DTS Sentinel unit serial number:	SN410029Multiplexer serial number:	ORYXHardware model number:	OX2-SRSoftware version number:	ORYX F/W v4,00 Oryx Data Collector v3.7.2.0data status	okinstallation	B4 Nyhavnadifferential loss correction	single-endedforward channel	channel 2reverse channel	N/Adate	2023/12/19time	08:45:14forward acquisition time	300,00reverse acquisition time	0,00gamma	499,1914k internal	0,3127k external	0,3127temperature offset calibration	1,0000default loss term (dB/km)	0,3820temperature slope calibration	1,0000multiplexer offset coefficient	1,0000multiplexer slope coefficient	1,0000fibre end	0,00T internal ref (°C)	20,71T ext. ref 1 (°C)	5,37T ext. ref 2 (°C)	5,36length (m)	temperature (°C)	Stokes	anti-Stokes-744,400	800,000	-0,005	0,011
-743,385	219,111	-0,157	0,187
-742,371	-200,000	0,026	-0,088
-741,356	-2,716	-0,198	0,103
-740,342	-127,759	0,060	-0,006
-739,327	73,251	-0,211	0,165
-738,312	531,588	-0,035	-0,062
-737,298	-134,136	-0,261	0,024
-736,283	291,213	0,062	-0,084
-735,269	-14,917	-0,265	0,126
-734,254	57,582	0,025	-0,018
-733,239	-25,100	-0,410	-0,180
-732,225	117,760	0,147	0,135
-731,210	-2,986	-0,114	0,059
-730,196	103,125	0,066	-0,058
-729,181	-66,419	-0,114	-0,034
-728,167	800,000	-0,023	-0,049
-727,152	27,018	-0,078	0,049
-726,137	-20,411	-0,101	0,046
-725,123	23,768	-0,142	0,087
-724,108	-200,000	0,004	-0,063
-723,094	-32,227	-0,131	-0,054
-722,079	-39,012	-0,161	0,063
-721,064	-162,851	-0,107	-0,004
-720,050	-27,696	0,074	-0,032
-719,035	29,938	-0,054	-0,034
-718,021	263,192	-0,093	-0,121
-717,006	101,406	-0,042	-0,036
-715,991	508,477	-0,129	-0,225
-714,977	-18,380	-0,051	0,024
-713,962	800,000	-0,005	-0,015
-712,948	307,082	0,029	0,041
-711,933	800,000	0,043	-0,121
-710,918	106,914	-0,067	-0,059
-709,904	59,391	-0,085	-0,062
-708,889	10,570	-0,054	0,030
-707,875	-200,000	-0,023	-0,162
-706,860	51,192	-0,092	-0,065
-705,845	-22,207	-0,080	-0,036
-704,831	180,608	0,113	-0,124
-703,816	326,130	-0,050	-0,071
-702,802	800,000	-0,055	-0,126
-701,787	251,283	-0,118	-0,150
-700,772	800,000	-0,017	-0,050
-699,758	-110,674	0,102	-0,015
-698,743	-81,026	0,080	0,020
-697,729	77,782	-0,095	-0,075
-696,714	-200,000	0,007	0,040
-695,699	-200,000	-0,039	0,000
-694,685	-200,000	-0,005	-0,142
-693,670	-134,007	-0,076	-0,007
-692,656	43,700	-0,013	-0,009
-691,641	-31,845	0,061	-0,025
-690,627	-122,876	-0,164	-0,019
-689,612	-200,000	-0,018	0,063
-688,597	-10,035	-0,049	-0,024
-687,583	-200,000	0,001	-0,110
-686,568	800,000	-0,029	-0,062
-685,554	683,146	-0,024	-0,047
-684,539	-200,000	0,007	0,069
-683,524	-191,968	0,134	0,001
-682,510	-200,000	0,033	0,118
-681,495	-128,014	-0,083	0,009
-680,481	-119,813	-0,122	0,015
-679,466	800,000	-0,016	-0,032
-678,451	-0,051	-0,159	-0,084
-677,437	66,887	0,058	0,044
-676,422	-69,405	0,047	-0,013
-675,408	-200,000	-0,015	-0,068
-674,393	-193,982	-0,103	0,001
-673,378	-200,000	0,004	0,074
-672,364	423,127	0,068	0,109
-671,349	800,000	-0,039	0,101
-670,335	800,000	0,060	-0,126
-669,320	114,507	-0,038	0,034
-668,305	-90,090	0,108	-0,023
-667,291	800,000	-0,035	-0,076
-666,276	279,774	0,056	-0,075
-665,262	-200,000	-0,009	0,070
-664,247	-135,191	-0,062	-0,005
-663,232	-17,637	0,058	-0,027
-662,218	60,011	-0,049	-0,036
-661,203	72,742	0,053	0,041
-660,189	-200,000	-0,003	0,058
-659,174	-200,000	-0,025	0,100
-658,159	-200,000	-0,018	-0,076
-657,145	-65,102	-0,032	-0,010
-656,130	-133,597	0,082	-0,007
-655,116	-200,000	0,008	0,097
-654,101	108,476	0,016	0,014
-653,086	800,000	-0,017	-0,055
-652,072	-149,360	-0,087	0,005
-651,057	-179,291	-0,083	-0,001
-650,043	-200,000	-0,022	0,128
-649,028	800,000	0,070	-0,150
-648,014	230,073	0,053	-0,065
-646,999	-118,322	-0,155	-0,020
-645,984	56,601	0,084	0,061
-644,970	306,114	-0,066	0,091
-643,955	-15,557	-0,205	-0,097
-642,941	-200,000	-0,025	-0,082
-641,926	-26,355	0,098	0,043
-640,911	99,458	-0,025	-0,021
-639,897	-88,474	0,087	0,019
-638,882	-200,000	0,002	0,141
-637,868	631,390	-0,021	0,040
-636,853	-200,000	-0,086	-0,000
-635,838	44,695	-0,183	-0,125
-634,824	93,643	0,050	-0,042
-633,809	-145,125	0,127	0,008
-632,795	800,000	-0,042	-0,123
-631,780	499,359	-0,028	-0,048
-630,765	-63,960	-0,045	-0,014
-629,751	800,000	0,057	0,123
-628,736	488,016	-0,088	-0,149
-627,722	800,000	0,029	-0,072
-626,707	56,022	0,051	-0,037
-625,692	192,729	0,066	-0,074
-624,678	-49,271	0,041	0,015
-623,663	24,698	0,118	0,072
-622,649	-200,000	0,022	-0,118
-621,634	-80,583	-0,157	-0,038
-620,619	-200,000	0,010	-0,138
-619,605	-200,000	-0,010	0,042
-618,590	-200,000	0,009	0,063
-617,576	42,986	-0,049	0,033
-616,561	-58,652	0,012	0,004
-615,546	-200,000	-0,013	0,094
-614,532	-200,000	-0,012	-0,095
-613,517	27,210	-0,059	0,037
-612,503	-200,000	-0,015	-0,116
-611,488	75,060	0,051	-0,040
-610,474	-200,000	0,003	-0,023
-609,459	-42,325	-0,054	0,020
-608,444	800,000	0,029	0,072
-607,430	18,540	-0,067	-0,039
-606,415	275,736	-0,052	-0,069
-605,401	800,000	0,038	-0,102
-604,386	26,144	0,132	0,081
-603,371	173,265	-0,039	0,042
-602,357	140,914	-0,039	0,038
-601,342	-72,987	-0,080	-0,022
-600,328	-27,846	-0,109	-0,046
-599,313	-111,691	0,167	0,025
-598,298	-200,000	0,003	0,078
-597,284	-200,000	-0,003	0,022
-596,269	17,011	-0,095	0,056
-595,255	162,086	0,052	0,054
-594,240	-53,441	0,133	0,045
-593,225	177,600	-0,110	-0,119
-592,211	-70,934	-0,131	0,036
-591,196	-53,536	-0,060	0,020
-590,182	-10,881	0,077	0,037
-589,167	-76,983	0,037	-0,009
-588,152	-147,693	-0,038	-0,002
-587,138	-200,000	0,003	0,099
-586,123	-130,026	-0,116	-0,012
-585,109	-27,366	-0,114	-0,049
-584,094	-200,000	-0,008	-0,040
-583,079	-79,717	-0,130	-0,032
-582,065	66,246	-0,085	-0,064
-581,050	800,000	0,029	0,068
-580,036	-200,000	-0,003	-0,062
-579,021	446,713	-0,076	0,124
-578,006	12,652	-0,094	-0,054
-576,992	286,296	-0,046	0,062
-575,977	123,542	0,114	0,106
-574,963	251,748	0,112	0,142
-573,948	90,705	0,092	-0,076
-572,934	-200,000	0,008	-0,037
-571,919	-2,060	-0,046	0,024
-570,904	800,000	0,027	-0,071
-569,890	148,758	-0,063	-0,063
-568,875	100,407	-0,070	-0,060
-567,861	54,025	-0,050	-0,036
-566,846	-122,056	-0,058	-0,007
-565,831	740,999	0,021	0,041
-564,817	-14,448	-0,154	-0,073
-563,802	14,691	0,022	-0,013
-562,788	800,000	0,014	0,038
-561,773	-106,328	-0,059	-0,010
-560,758	-200,000	-0,037	0,000
-559,744	-200,000	0,012	-0,102
-558,729	-85,682	-0,143	-0,033
-557,715	-20,169	-0,057	0,026
-556,700	-200,000	-0,002	0,016
-555,685	37,765	-0,111	0,073
-554,671	590,690	-0,045	0,083
-553,656	800,000	0,027	0,064
-552,642	82,717	0,016	0,012
-551,627	29,981	-0,056	-0,035
-550,612	277,422	-0,030	0,039
-549,598	-200,000	-0,035	-0,115
-548,583	-160,575	-0,075	0,003
-547,569	-200,000	0,003	-0,034
-546,554	41,281	0,072	-0,048
-545,539	-31,733	0,103	0,043
-544,525	273,545	-0,051	-0,066
-543,510	244,224	-0,046	0,057
-542,496	800,000	0,011	0,032
-541,481	254,637	-0,060	0,076
-540,466	-200,000	0,001	0,053
-539,452	350,337	0,045	-0,066
-538,437	188,618	-0,038	0,042
-537,423	11,201	-0,121	0,068
-536,408	297,543	0,054	0,073
-535,393	800,000	0,061	-0,153
-534,379	145,708	0,109	-0,108
-533,364	84,417	-0,098	-0,079
-532,350	215,376	0,071	-0,083
-531,335	-6,420	0,084	0,042
-530,321	-100,749	-0,057	0,010
-529,306	-144,342	0,123	-0,008
-528,291	-10,701	0,023	-0,011
-527,277	-69,227	0,163	-0,046
-526,262	-200,000	-0,006	0,122
-525,248	625,935	0,035	0,065
-524,233	-14,897	-0,020	-0,009
-523,218	-157,212	-0,041	0,002
-522,204	-200,000	0,003	-0,039
-521,189	70,162	-0,061	-0,046
-520,175	233,673	-0,046	0,056
-519,160	-85,672	0,075	0,017
-518,145	-200,000	-0,035	0,129
-517,131	327,118	-0,063	0,089
-516,116	-62,453	0,085	-0,026
-515,102	528,550	-0,032	-0,056
-514,087	123,679	-0,071	-0,066
-513,072	775,148	0,010	0,020
-512,058	800,000	-0,039	0,097
-511,043	-69,486	0,039	0,011
-510,029	598,295	0,064	-0,118
-509,014	800,000	0,018	0,040
-507,999	800,000	0,075	0,234
-506,985	683,648	-0,076	-0,147
-505,970	68,186	-0,070	-0,053
-504,956	738,110	-0,024	0,048
-503,941	-200,000	0,038	-0,151
-502,926	800,000	-0,066	-0,144
-501,912	-132,112	-0,147	0,014
-500,897	-200,000	0,009	0,065
-499,883	41,430	-0,113	-0,075
-498,868	-200,000	0,017	-0,149
-497,853	36,572	-0,167	-0,108
-496,839	-70,037	-0,117	0,033
-495,824	-52,953	0,116	0,039
-494,810	-78,121	0,153	0,039
-493,795	-0,613	0,071	0,037
-492,781	36,201	0,072	-0,047
-491,766	-13,728	-0,079	-0,037
-490,751	-200,000	0,013	-0,123
-489,737	230,314	-0,030	-0,037
-488,722	-148,191	-0,154	-0,009
-487,708	-11,251	0,063	-0,030
-486,693	-200,000	0,144	0,000
-485,678	-27,230	0,053	-0,023
-484,664	-200,000	-0,013	-0,082
-483,649	-200,000	0,004	0,024
-482,635	-200,000	0,003	-0,015
-481,620	-148,677	0,011	-0,001
-480,605	386,786	0,056	0,085
-479,591	-200,000	-0,017	0,118
-478,576	246,640	-0,011	-0,014
-477,562	-53,702	-0,044	0,015
-476,547	-88,876	-0,162	0,035
-475,532	-17,379	0,069	0,032
-474,518	-28,049	-0,017	0,007
-473,503	277,574	-0,043	0,056
-472,489	-52,909	0,066	-0,022
-471,474	232,500	0,027	-0,033
-470,459	-200,000	0,011	-0,110
-469,445	800,000	-0,036	-0,081
-468,430	-35,560	-0,090	-0,036
-467,416	-111,149	0,087	0,013
-466,401	534,779	-0,021	0,037
-465,386	168,990	0,046	-0,049
-464,372	-200,000	-0,008	0,075
-463,357	-200,000	-0,013	-0,191
-462,343	241,423	-0,060	0,074
-461,328	800,000	-0,025	0,065
-460,313	-146,421	0,109	0,007
-459,299	272,629	0,070	-0,092
-458,284	800,000	0,022	-0,070
-457,270	800,000	-0,028	-0,067
-456,255	-116,942	0,066	-0,009
-455,241	-110,635	-0,062	0,009
-454,226	-200,000	0,004	0,040
-453,211	-129,573	0,171	0,017
-452,197	93,350	0,130	-0,108
-451,182	248,353	-0,062	0,077
-450,168	391,474	-0,055	0,084
-449,153	800,000	-0,002	0,005
-448,138	-168,678	-0,090	0,002
-447,124	-200,000	0,020	-0,103
-446,109	648,507	-0,052	0,098
-445,095	-21,713	-0,037	0,017
-444,080	-47,170	-0,003	-0,001
-443,065	668,155	-0,107	0,205
-442,051	-159,335	0,041	-0,002
-441,036	-200,000	-0,022	-0,260
-440,022	-52,973	-0,085	-0,029
-439,007	17,477	0,114	-0,066
-437,992	800,000	0,064	0,155
-436,978	800,000	-0,050	0,126
-435,963	-200,000	-0,014	0,099
-434,949	-200,000	0,018	-0,121
-433,934	235,754	0,082	-0,100
-432,919	-200,000	-0,002	0,033
-431,905	-75,607	0,111	0,029
-430,890	612,268	-0,085	0,157
-429,876	-142,724	0,142	0,010
-428,861	-200,000	0,022	0,136
-427,846	-200,000	0,023	-0,078
-426,832	220,980	-0,023	0,027
-425,817	754,528	0,013	-0,026
-424,803	11,240	-0,078	0,044
-423,788	507,093	0,078	0,133
-422,773	-200,000	0,006	0,021
-421,759	-151,052	0,030	-0,002
-420,744	-95,679	0,019	0,004
-419,730	800,000	0,014	-0,038
-418,715	800,000	-0,034	-0,085
-417,701	800,000	0,072	0,198
-416,686	800,000	-0,045	0,102
-415,671	-128,554	0,060	0,006
-414,657	41,435	-0,057	0,038
-413,642	165,220	-0,040	0,042
-412,628	-40,191	-0,101	-0,038
-411,613	-56,151	0,084	-0,027
-410,598	-90,363	-0,070	0,015
-409,584	-60,289	0,054	0,017
-408,569	51,694	0,087	0,061
-407,555	-120,113	0,099	0,012
-406,540	215,271	-0,089	0,104
-405,525	-103,539	0,046	-0,008
-404,511	698,095	0,046	-0,088
-403,496	217,441	0,069	0,081
-402,482	47,006	0,106	0,072
-401,467	-57,563	0,057	-0,018
-400,452	284,452	0,029	0,039
-399,438	-61,078	0,138	0,043
-398,423	102,563	-0,088	-0,076
-397,409	554,155	0,046	-0,082
-396,394	-44,592	0,033	-0,012
-395,379	378,639	0,022	-0,034
-394,365	8,962	0,085	-0,047
-393,350	403,396	0,015	-0,024
-392,336	800,000	-0,013	-0,037
-391,321	-68,125	-0,118	-0,034
-390,306	800,000	-0,126	-0,264
-389,292	-85,764	-0,266	0,060
-388,277	335,198	0,073	0,105
-387,263	-126,698	0,023	0,002
-386,248	800,000	-0,051	0,151
-385,233	199,338	-0,060	0,068
-384,219	-86,977	0,038	0,008
-383,204	-58,875	0,108	0,034
-382,190	-20,329	-0,088	0,039
-381,175	223,276	0,017	0,020
-380,160	-200,000	-0,009	0,082
-379,146	91,399	0,110	0,091
-378,131	-22,203	0,046	0,021
-377,117	227,650	0,049	0,059
-376,102	-200,000	-0,035	-0,175
-375,088	76,626	-0,082	0,064
-374,073	800,000	0,096	-0,220
-373,058	370,147	-0,007	-0,010
-372,044	-200,000	0,024	-0,097
-371,029	34,070	-0,166	0,106
-370,015	444,032	0,047	0,076
-369,000	-71,351	-0,045	0,012
-367,985	721,639	-0,030	0,059
-366,971	292,995	-0,095	-0,128
-365,956	171,828	0,050	0,053
-364,942	-96,144	0,097	0,019
-363,927	-200,000	0,016	0,107
-362,912	179,570	-0,018	0,019
-361,898	-117,055	0,044	-0,006
-360,883	-23,411	-0,037	-0,016
-359,869	-41,955	-0,057	-0,021
-358,854	10,418	0,085	-0,047
-357,839	800,000	-0,018	-0,040
-356,825	156,529	0,102	-0,103
-355,810	555,073	-0,065	0,116
-354,796	-108,402	0,039	-0,006
-353,781	13,250	0,076	-0,043
-352,766	19,806	-0,075	0,044
-351,752	-128,081	0,121	-0,013
-350,737	-101,326	-0,090	-0,016
-349,723	130,209	0,081	0,076
-348,708	-113,948	-0,052	-0,007
-347,693	-29,526	0,138	0,058
-346,679	-81,523	0,080	0,019
-345,664	800,000	-0,034	-0,073
-344,650	25,166	-0,030	0,018
-343,635	-200,000	-0,019	0,070
-342,620	-91,422	0,131	0,027
-341,606	800,000	0,015	0,047
-340,591	-67,991	-0,128	0,036
-339,577	-161,053	0,012	-0,000
-338,562	89,884	0,084	-0,069
-337,548	-99,127	0,137	0,025
-336,533	56,258	0,049	0,035
-335,518	280,697	0,029	0,038
-334,504	-97,119	-0,160	0,030
-333,489	765,373	0,066	0,132
-332,475	261,440	0,034	0,043
-331,460	245,813	-0,051	-0,062
-330,445	530,228	-0,042	-0,074
-329,431	-87,834	0,100	-0,022
-328,416	800,000	0,010	0,021
-327,402	-53,351	0,081	0,027
-326,387	459,920	0,035	-0,058
-325,372	800,000	-0,020	-0,043
-324,358	24,682	0,021	-0,013
-323,343	598,809	-0,081	-0,147
-322,329	397,240	-0,032	-0,049
-321,314	305,707	-0,017	-0,023
-320,299	38,261	0,072	-0,047
-319,285	196,653	-0,059	-0,066
-318,270	800,000	-0,014	0,033
-317,256	800,000	0,042	0,101
-316,241	706,093	0,041	-0,080
-315,226	123,251	-0,051	0,047
-314,212	800,000	0,028	-0,074
-313,197	-7,528	0,015	0,007
-312,183	800,000	-0,068	-0,147
-311,168	-119,799	0,056	0,007
-310,153	-103,779	0,140	-0,024
-309,139	48,836	0,093	-0,064
-308,124	-200,000	-0,011	-0,040
-307,110	240,038	0,075	0,091
-306,095	-77,708	-0,035	0,009
-305,080	800,000	-0,048	-0,127
-304,066	-112,218	-0,151	0,022
-303,051	731,263	-0,058	-0,113
-302,037	-200,000	0,012	0,041
-301,022	67,027	0,107	-0,079
-300,008	-121,573	0,036	-0,004
-298,993	454,454	-0,112	0,182
-297,978	-200,000	0,016	0,148
-296,964	21,268	0,081	0,048
-295,949	224,703	-0,085	0,101
-294,935	-34,193	0,034	-0,014
-293,920	437,399	-0,027	0,043
-292,905	-113,367	-0,054	-0,008
-291,891	209,288	0,119	-0,136
-290,876	800,000	0,040	-0,115
-289,862	-200,000	-0,002	-0,024
-288,847	216,660	-0,030	0,035
-287,832	226,788	-0,031	-0,037
-286,818	-138,873	-0,097	-0,008
-285,803	-143,924	0,179	0,012
-284,789	800,000	-0,028	-0,066
-283,774	-200,000	-0,002	0,066
-282,759	390,077	0,015	0,023
-281,745	-200,000	0,004	-0,051
-280,730	-200,000	-0,016	-0,088
-279,716	-159,075	-0,143	0,006
-278,701	130,488	-0,067	0,063
-277,686	-200,000	0,020	0,093
-276,672	-200,000	0,038	0,183
-275,657	112,464	0,013	0,012
-274,643	272,550	0,038	-0,049
-273,628	-24,566	-0,097	0,042
-272,613	800,000	0,024	0,064
-271,599	164,569	0,104	-0,107
-270,584	181,309	0,135	-0,145
-269,570	-200,000	-0,005	0,041
-268,555	193,029	0,043	0,048
-267,540	800,000	-0,045	0,116
-266,526	-45,461	-0,182	-0,066
-265,511	-200,000	0,030	0,102
-264,497	318,241	0,017	-0,024
-263,482	313,511	0,028	-0,039
-262,467	-200,000	0,025	0,083
-261,453	3,092	0,066	-0,035
-260,438	-143,329	0,133	-0,009
-259,424	-14,985	-0,217	0,101
-258,409	800,000	-0,027	-0,062
-257,395	138,085	0,024	-0,023
-256,380	387,834	0,062	-0,094
-255,365	280,234	0,058	0,076
-254,351	185,904	-0,126	0,137
-253,336	81,888	0,056	0,044
-252,322	800,000	-0,016	0,036
-251,307	594,148	-0,030	-0,054
-250,292	800,000	-0,032	-0,072
-249,278	7,377	0,047	0,026
-248,263	-200,000	0,012	0,039
-247,249	185,593	-0,067	0,073
-246,234	800,000	0,055	-0,128
-245,219	-147,689	0,047	-0,003
-244,205	-4,397	0,090	0,045
-243,190	15,887	0,043	0,025
-242,176	800,000	0,043	-0,090
-241,161	-28,654	-0,022	-0,009
-240,146	-23,705	0,111	0,049
-239,132	-48,634	0,023	-0,008
-238,117	-186,827	-0,182	0,002
-237,103	800,000	-0,014	-0,042
-236,088	-30,597	-0,141	0,058
-235,073	-18,534	0,034	0,016
-234,059	269,317	0,114	-0,147
-233,044	776,308	-0,012	0,024
-232,030	-103,310	-0,122	-0,021
-231,015	361,688	-0,091	0,133
-230,000	-200,000	0,027	-0,144
-228,986	44,178	0,060	0,040
-227,971	800,000	0,047	0,096
-226,957	252,851	-0,028	-0,034
-225,942	-200,000	-0,011	-0,043
-224,927	606,222	0,079	0,145
-223,913	-200,000	0,010	0,069
-222,898	229,160	-0,081	-0,097
-221,884	336,052	0,046	-0,066
-220,869	233,412	0,026	-0,031
-219,855	-58,167	0,110	-0,035
-218,840	-117,283	-0,047	0,006
-217,825	-177,533	-0,091	0,002
-216,811	-98,695	-0,178	0,033
-215,796	-41,655	0,027	-0,010
-214,782	-155,519	0,073	-0,003
-213,767	310,342	0,070	0,095
-212,752	800,000	-0,017	0,052
-211,738	-90,128	-0,039	0,008
-210,723	72,383	-0,078	-0,059
-209,709	540,162	-0,093	-0,163
-208,694	64,895	-0,065	0,048
-207,679	800,000	0,026	0,071
-206,665	105,985	0,121	-0,104
-205,650	-200,000	-0,025	0,090
-204,636	-200,000	-0,002	-0,100
-203,621	47,474	-0,186	0,126
-202,606	53,293	0,076	-0,053
-201,592	109,601	-0,019	-0,017
-200,577	-1,056	0,061	-0,032
-199,563	-31,136	-0,021	-0,009
-198,548	-200,000	0,010	0,143
-197,533	58,426	0,021	-0,015
-196,519	-147,852	0,024	-0,001
-195,504	-138,925	0,157	0,012
-194,490	800,000	-0,025	0,070
-193,475	160,842	-0,052	0,053
-192,460	-65,303	0,026	-0,007
-191,446	-200,000	0,023	-0,080
-190,431	800,000	0,050	0,109
-189,417	-172,665	0,025	-0,001
-188,402	119,637	-0,086	0,077
-187,387	163,530	-0,061	-0,063
-186,373	-200,000	-0,003	-0,028
-185,358	800,000	0,023	0,055
-184,344	51,425	-0,050	0,035
-183,329	84,554	0,078	0,062
-182,315	10,691	0,136	0,075
-181,300	10,637	-0,085	-0,047
-180,285	541,457	0,058	-0,101
-179,271	-101,951	-0,199	-0,035
-178,256	46,273	0,069	0,046
-177,242	258,062	0,071	0,090
-176,227	209,213	0,034	-0,039
-175,212	800,000	0,048	0,099
-174,198	-101,224	0,166	0,029
-173,183	2,766	0,098	-0,052
-172,169	555,772	0,017	-0,030
-171,154	-96,039	-0,067	0,013
-170,139	92,588	-0,053	-0,044
-169,125	-143,686	0,182	0,012
-168,110	-78,288	-0,142	0,035
-167,096	116,576	0,078	-0,069
-166,081	48,109	-0,122	0,083
-165,066	367,695	0,045	-0,067
-164,052	800,000	-0,006	-0,018
-163,037	-104,676	-0,066	0,011
-162,023	-200,000	-0,003	0,082
-161,008	27,066	0,086	0,052
-159,993	-139,665	-0,172	0,013
-158,979	-109,019	0,068	-0,010
-157,964	-200,000	-0,006	-0,070
-156,950	350,241	0,041	-0,058
-155,935	-200,000	-0,015	-0,054
-154,920	-200,000	0,013	0,096
-153,906	-200,000	0,007	-0,047
-152,891	-200,000	0,015	-0,120
-151,877	-200,000	0,030	0,133
-150,862	76,778	-0,147	-0,113
-149,847	800,000	-0,040	-0,085
-148,833	800,000	0,013	0,036
-147,818	800,000	0,003	0,007
-146,804	638,316	0,062	0,115
-145,789	-200,000	0,013	0,066
-144,775	342,215	0,081	0,115
-143,760	-200,000	-0,004	0,020
-142,745	316,595	-0,003	0,004
-141,731	167,703	-0,081	-0,084
-140,716	236,530	0,068	-0,082
-139,702	800,000	-0,038	0,107
-138,687	88,044	-0,040	-0,033
-137,672	-193,594	-0,031	0,000
-136,658	800,000	0,013	-0,036
-135,643	53,704	-0,136	-0,095
-134,629	210,347	0,101	-0,116
-133,614	-49,496	0,072	0,025
-132,599	20,322	0,116	-0,068
-131,585	800,000	-0,010	-0,030
-130,570	-200,000	-0,002	-0,103
-129,556	569,601	-0,016	-0,028
-128,541	-150,827	0,158	-0,009
-127,526	-200,000	-0,023	-0,074
-126,512	800,000	-0,009	-0,019
-125,497	-200,000	0,006	0,162
-124,483	745,501	0,037	0,072
-123,468	800,000	-0,019	-0,051
-122,453	-200,000	0,049	-0,189
-121,439	-148,066	0,013	-0,001
-120,424	-152,915	-0,129	-0,007
-119,410	219,217	0,034	0,040
-118,395	188,874	0,077	0,084
-117,380	-112,965	0,174	-0,025
-116,366	-166,307	0,069	-0,002
-115,351	800,000	0,030	-0,096
-114,337	800,000	-0,024	-0,054
-113,322	-200,000	0,037	-0,143
-112,307	550,137	-0,035	-0,062
-111,293	350,500	0,097	0,139
-110,278	-54,973	0,023	0,007
-109,264	-98,784	0,064	-0,012
-108,249	-200,000	-0,003	-0,040
-107,234	-21,314	-0,068	0,030
-106,220	-200,000	0,011	-0,131
-105,205	-53,657	0,061	-0,020
-104,191	-200,000	0,004	0,119
-103,176	274,952	0,053	0,068
-102,162	140,976	0,031	0,030
-101,147	-32,477	-0,100	0,040
-100,132	-8,369	-0,053	0,026
-99,118	800,000	-0,107	-0,221
-98,103	25,930	0,146	-0,088
-97,089	164,276	-0,032	-0,033
-96,074	-76,519	-0,028	0,007
-95,059	-200,000	0,015	0,118
-94,045	-16,646	0,120	0,055
-93,030	-200,000	0,005	-0,041
-92,016	211,782	-0,055	-0,063
-91,001	-9,216	-0,074	0,036
-89,986	121,310	0,168	0,152
-88,972	579,796	0,098	0,174
-87,957	-200,000	0,004	-0,030
-86,943	-200,000	-0,016	0,100
-85,928	800,000	-0,046	0,106
-84,913	-13,334	-0,041	-0,019
-83,899	43,409	0,020	-0,013
-82,884	356,541	0,020	0,030
-81,870	-200,000	0,001	-0,080
-80,855	-200,000	-0,016	0,051
-79,840	-144,713	-0,134	-0,009
-78,826	104,071	-0,107	0,091
-77,811	-200,000	-0,031	-0,135
-76,797	242,267	0,089	-0,109
-75,782	289,448	-0,027	0,035
-74,767	-200,000	-0,005	0,076
-73,753	84,150	-0,166	-0,131
-72,738	275,410	0,071	-0,091
-71,724	800,000	-0,053	-0,114
-70,709	800,000	0,065	-0,193
-69,694	-155,436	-0,176	-0,008
-68,680	-116,248	-0,077	-0,010
-67,665	418,067	0,037	-0,058
-66,651	-200,000	0,004	-0,133
-65,636	-200,000	-0,014	0,075
-64,622	-43,683	-0,080	0,029
-63,607	800,000	0,009	0,025
-62,592	-36,121	0,160	0,062
-61,578	-113,965	-0,065	-0,009
-60,563	-200,000	-0,002	-0,044
-59,549	-200,000	-0,006	-0,064
-58,534	-124,873	-1,464	-0,162
-57,519	800,000	-0,649	-1,334
-56,505	-200,000	-0,887	-4,466
-55,490	-119,242	0,530	-0,066
-54,476	800,000	4,994	11,735
-53,461	-200,000	14,784	265,137
-52,446	-200,000	699,104	2282,554
-51,432	602,554	1624,090	2938,512
-50,417	120,178	1630,041	1465,824
-49,403	78,766	1282,989	993,637
-48,388	37,777	1021,053	655,881
-47,373	23,080	980,942	581,846
-46,359	22,157	970,231	572,448
-45,344	20,974	965,721	565,904
-44,330	20,933	964,516	565,043
-43,315	20,839	962,935	563,788
-42,300	20,739	961,996	562,890
-41,286	20,761	960,855	562,270
-40,271	20,756	960,019	561,743
-39,257	20,786	958,914	561,172
-38,242	20,708	958,116	560,428
-37,227	20,750	957,394	560,121
-36,213	20,738	956,446	559,505
-35,198	20,710	955,445	558,806
-34,184	20,748	954,705	558,474
-33,169	20,655	953,862	557,660
-32,154	20,706	952,952	557,269
-31,140	20,839	951,864	557,038
-30,125	20,779	951,377	556,538
-29,111	20,730	950,424	555,803
-28,096	20,721	949,641	555,293
-27,082	20,730	949,115	554,993
-26,067	20,769	948,280	554,608
-25,052	20,772	947,476	554,124
-24,038	20,702	946,952	553,572
-23,023	20,774	946,138	553,305
-22,009	20,764	945,706	552,998
-20,994	20,818	944,891	552,671
-19,979	20,749	944,401	552,144
-18,965	20,746	943,663	551,680
-17,950	20,696	943,283	551,275
-16,936	20,692	942,424	550,741
-15,921	20,725	941,775	550,445
-14,906	20,561	941,242	549,588
-13,892	20,614	940,509	549,309
-12,877	20,595	939,910	548,876
-11,863	20,619	939,221	548,529
-10,848	20,633	938,838	548,327
-9,833	20,725	938,310	548,290
-8,819	20,690	937,648	547,769
-7,804	20,641	937,006	547,216
-6,790	20,628	936,366	546,780
-5,775	20,653	936,013	546,631
-4,760	20,636	935,192	546,076
-3,746	20,636	934,576	545,695
-2,731	20,490	934,056	544,908
-1,717	20,485	933,220	544,383
-0,702	20,416	932,413	543,673
0,313	20,277	931,913	543,767
1,327	22,744	929,598	550,116
2,342	30,150	806,180	497,097
3,356	24,389	507,340	302,991
4,371	0,039	373,697	192,163
5,386	-2,807	356,839	179,982
6,400	-3,934	350,896	175,606
7,415	-4,294	348,218	173,818
8,429	-4,216	346,944	173,259
9,444	-4,170	345,918	172,786
10,459	-4,104	345,238	172,510
11,473	-4,215	344,715	172,102
12,488	-4,338	344,169	171,667
13,502	-4,364	343,639	171,358
14,517	-4,187	342,944	171,204
15,531	-4,173	342,669	171,069
16,546	-4,090	342,203	170,918
17,561	-4,115	341,843	170,694
18,575	-4,011	341,443	170,601
19,590	-3,991	340,963	170,370
20,604	-3,972	340,797	170,294
21,619	-4,181	340,266	169,769
22,634	-4,029	339,808	169,703
23,648	-4,085	339,562	169,499
24,663	-4,109	339,310	169,330
25,677	-3,995	339,001	169,293
26,692	-4,137	338,716	168,971
27,707	-4,081	338,359	168,843
28,721	-4,083	337,991	168,643
29,736	-4,006	337,734	168,588
30,750	-4,176	337,542	168,279
31,765	-4,068	337,190	168,214
32,780	-4,110	336,820	167,966
33,794	-4,043	336,594	167,917
34,809	-3,961	336,266	167,833
35,823	-3,928	335,950	167,698
36,838	-4,082	335,826	167,444
37,853	-4,066	335,465	167,267
38,867	-4,176	335,238	167,012
39,882	-4,066	334,892	166,951
40,896	-4,012	334,565	166,836
41,911	-4,093	334,367	166,629
42,926	-4,040	334,128	166,556
43,940	-3,989	333,952	166,512
44,955	-3,938	333,502	166,331
45,969	-4,073	333,252	166,036
46,984	-3,888	332,962	166,089
47,999	-4,014	332,846	165,873
49,013	-3,991	332,665	165,793
50,028	-4,096	332,507	165,580
51,042	-3,916	331,995	165,516
52,057	-4,070	331,856	165,256
53,071	-3,966	331,656	165,261
54,086	-3,919	331,313	165,129
55,101	-4,067	331,102	164,840
56,115	-3,901	330,687	164,807
57,130	-3,968	330,526	164,637
58,144	-4,060	330,200	164,355
59,159	-4,140	329,926	164,113
60,174	-3,967	329,647	164,155
61,188	-4,156	329,506	163,857
62,203	-4,102	329,158	163,731
63,217	-4,141	328,959	163,573
64,232	-4,035	328,683	163,540
65,247	-4,045	328,308	163,328
66,261	-4,184	328,065	163,036
67,276	-4,131	327,908	163,004
68,290	-4,001	327,606	162,985
69,305	-4,002	327,404	162,868
70,320	-4,003	327,145	162,724
71,334	-4,003	326,822	162,549
72,349	-3,822	326,426	162,540
73,363	-4,084	326,335	162,187
74,378	-4,009	326,040	162,110
75,393	-4,128	325,796	161,841
76,407	-4,076	325,484	161,730
77,422	-3,972	325,141	161,660
78,436	-3,981	324,945	161,539
79,451	-4,123	324,785	161,287
80,466	-4,080	324,328	161,094
81,480	-3,962	324,192	161,142
82,495	-3,896	323,883	161,047
83,509	-4,099	323,766	160,750
84,524	-3,946	323,581	160,813
85,539	-3,942	323,250	160,639
86,553	-4,032	323,083	160,442
87,568	-4,093	322,860	160,250
88,582	-4,051	322,504	160,105
89,597	-3,938	322,284	160,107
90,611	-4,015	321,988	159,860
91,626	-4,101	321,874	159,694
92,641	-3,971	321,710	159,742
93,655	-4,047	321,347	159,464
94,670	-4,153	321,278	159,298
95,684	-4,057	321,004	159,254
96,699	-4,034	320,684	159,106
97,714	-4,100	320,433	158,895
98,728	-4,022	320,273	158,887
99,743	-3,977	320,057	158,816
100,757	-3,959	319,755	158,671
101,772	-3,924	319,463	158,550
102,787	-3,970	319,130	158,321
103,801	-4,002	319,072	158,243
104,816	-4,007	318,726	158,052
105,830	-4,058	318,430	157,836
106,845	-3,854	318,235	157,946
107,860	-3,872	317,981	157,786
108,874	-3,959	317,714	157,545
109,889	-3,996	317,597	157,433
110,903	-4,113	317,343	157,167
111,918	-4,052	317,196	157,146
112,933	-4,047	316,934	157,008
113,947	-3,966	316,509	156,870
114,962	-3,854	316,324	156,886
115,976	-3,890	316,198	156,770
116,991	-4,018	316,023	156,531
118,006	-4,102	315,792	156,313
119,020	-3,978	315,685	156,379
120,035	-4,047	315,393	156,147
121,049	-3,887	315,222	156,220
122,064	-3,830	314,878	156,097
123,079	-3,907	314,814	155,969
124,093	-3,890	314,540	155,837
125,108	-4,006	314,210	155,535
126,122	-4,021	314,148	155,475
127,137	-3,952	314,000	155,462
128,151	-3,933	313,724	155,331
129,166	-3,927	313,338	155,133
130,181	-3,964	313,090	154,957
131,195	-3,959	312,787	154,798
132,210	-3,939	312,571	154,699
133,224	-4,001	312,510	154,589
134,239	-3,960	312,271	154,501
135,254	-3,857	311,941	154,433
136,268	-3,937	311,726	154,228
137,283	-3,921	311,472	154,106
138,297	-3,960	311,345	153,987
139,312	-3,937	311,081	153,868
140,327	-3,934	310,770	153,703
141,341	-4,095	310,682	153,476
142,356	-4,046	310,414	153,381
143,370	-4,019	310,240	153,310
144,385	-3,930	310,015	153,280
145,400	-3,965	309,767	153,105
146,414	-4,056	309,479	152,854
147,429	-4,087	309,336	152,737
148,443	-4,047	309,176	152,687
149,458	-3,982	308,856	152,584
150,473	-3,998	308,640	152,446
151,487	-4,057	308,445	152,274
152,502	-3,831	308,251	152,402
153,516	-3,994	308,023	152,105
154,531	-4,067	307,747	151,879
155,546	-4,018	307,540	151,814
156,560	-3,952	307,328	151,766
157,575	-4,046	307,160	151,571
158,589	-3,959	306,970	151,553
159,604	-3,940	306,742	151,448
160,619	-3,908	306,612	151,404
161,633	-3,995	306,251	151,121
162,648	-3,824	306,121	151,221
163,662	-3,927	305,979	151,030
164,677	-3,889	305,641	150,890
165,692	-3,926	305,497	150,766
166,706	-4,055	305,391	150,567
167,721	-4,074	305,148	150,414
168,735	-4,084	305,003	150,319
169,750	-3,888	304,641	150,329
170,764	-3,801	304,433	150,304
171,779	-3,976	304,417	150,102
172,794	-3,820	304,075	150,081
173,808	-3,808	303,844	149,966
174,823	-3,953	303,711	149,737
175,837	-3,765	303,512	149,819
176,852	-4,076	303,281	149,372
177,867	-3,983	303,097	149,364
178,881	-3,995	302,987	149,284
179,896	-3,992	302,679	149,122
180,910	-3,893	302,353	149,049
181,925	-4,033	302,210	148,823
182,940	-4,129	302,047	148,630
183,954	-4,011	301,880	148,655
184,969	-3,983	301,692	148,579
185,983	-3,842	301,489	148,609
186,998	-3,750	301,372	148,632
188,013	-3,797	301,053	148,414
189,027	-4,050	300,911	148,072
190,042	-3,967	300,614	147,998
191,056	-3,965	300,318	147,841
192,071	-4,080	300,161	147,633
193,086	-4,048	299,966	147,557
194,100	-4,008	299,728	147,467
195,115	-3,929	299,463	147,404
196,129	-3,922	299,234	147,285
197,144	-3,866	299,111	147,268
198,159	-4,052	298,853	146,940
199,173	-3,935	298,720	146,979
200,188	-3,979	298,368	146,749
201,202	-4,158	298,267	146,505
202,217	-3,758	298,004	146,766
203,232	-3,785	298,056	146,752
204,246	-3,988	297,724	146,370
205,261	-4,012	297,550	146,247
206,275	-3,732	297,081	146,286
207,290	-3,824	297,113	146,197
208,304	-3,951	296,814	145,908
209,319	-3,993	296,492	145,695
210,334	-3,741	296,379	145,879
211,348	-3,891	296,156	145,607
212,363	-3,949	296,055	145,485
213,377	-4,010	295,866	145,319
214,392	-3,929	295,617	145,264
215,407	-3,918	295,495	145,202
216,421	-3,728	295,287	145,277
217,436	-3,875	295,131	145,041
218,450	-3,924	294,833	144,832
219,465	-4,114	294,655	144,543
220,480	-3,886	294,409	144,636
221,494	-3,967	294,242	144,461
222,509	-3,956	294,166	144,421
223,523	-3,855	293,939	144,397
224,538	-3,974	293,744	144,171
225,553	-3,753	293,421	144,218
226,567	-3,914	293,390	144,031
227,582	-3,998	293,094	143,789
228,596	-3,755	292,862	143,903
229,611	-3,803	292,805	143,815
230,626	-3,898	292,645	143,630
231,640	-3,848	292,416	143,554
232,655	-3,874	292,363	143,489
233,669	-3,774	292,033	143,413
234,684	-3,646	291,648	143,337
235,699	-3,707	291,549	143,216
236,713	-3,779	291,397	143,057
237,728	-3,739	291,212	142,993
238,742	-3,812	290,987	142,798
239,757	-3,894	290,665	142,547
240,772	-3,829	290,456	142,495
241,786	-3,982	290,533	142,371
242,801	-4,116	290,241	142,083
243,815	-3,740	289,972	142,307
244,830	-3,857	289,864	142,127
245,844	-3,778	289,607	142,065
246,859	-3,962	289,457	141,799
247,874	-3,892	289,312	141,784
248,888	-4,137	289,358	141,555
249,903	-4,117	289,013	141,393
250,917	-3,979	288,714	141,368
251,932	-3,943	288,504	141,288
252,947	-4,228	288,013	140,758
253,961	-4,725	287,768	140,143
254,976	-4,499	287,686	140,311
255,990	-4,500	287,640	140,274
257,005	-3,302	287,924	141,564
258,020	-1,185	288,580	143,930
259,034	-0,025	289,077	145,294
260,049	0,658	288,931	145,871
261,063	1,059	289,040	146,303
262,078	1,292	288,782	146,385
263,093	1,684	288,661	146,691
264,107	1,948	288,681	146,944
265,122	2,031	288,552	146,945
266,136	2,075	288,498	146,948
267,151	2,229	288,181	146,921
268,166	2,242	288,076	146,867
269,180	2,374	287,759	146,820
270,195	2,356	287,617	146,718
271,209	2,203	287,475	146,485
272,224	2,331	287,359	146,535
273,239	2,171	287,125	146,249
274,253	2,014	286,858	145,949
275,268	2,039	286,682	145,871
276,282	2,055	286,552	145,807
277,297	2,176	286,173	145,717
278,312	2,079	286,122	145,586
279,326	1,964	286,061	145,431
280,341	1,986	285,974	145,395
281,355	1,927	285,803	145,238
282,370	1,855	285,371	144,937
283,384	1,974	285,327	145,016
284,399	1,977	285,029	144,853
285,414	1,960	284,813	144,715
286,428	1,983	284,708	144,670
287,443	1,977	284,460	144,526
288,457	1,942	284,229	144,363
289,472	1,858	284,023	144,165
290,487	1,909	283,787	144,081
291,501	2,100	283,566	144,138
292,516	2,043	283,399	143,985
293,530	1,952	283,304	143,838
294,545	1,803	283,144	143,603
295,560	1,858	282,904	143,520
296,574	1,838	282,719	143,394
297,589	1,750	282,605	143,240
298,603	1,826	282,485	143,239
299,618	1,884	282,207	143,140
300,633	1,927	282,010	143,068
301,647	1,932	281,805	142,955
302,662	1,830	281,659	142,772
303,676	2,100	281,474	142,921
304,691	1,871	281,428	142,669
305,706	1,948	281,291	142,660
306,720	1,977	281,078	142,566
307,735	2,089	280,784	142,509
308,749	2,135	280,680	142,487
309,764	2,158	280,518	142,414
310,779	2,010	280,343	142,173
311,793	1,971	280,060	141,980
312,808	2,010	279,782	141,863
313,822	1,933	279,662	141,718
314,837	1,875	279,594	141,617
315,852	2,015	279,343	141,607
316,866	2,050	279,004	141,456
317,881	2,071	278,844	141,382
318,895	2,022	278,721	141,261
319,910	2,035	278,544	141,171
320,925	2,072	278,408	141,124
321,939	2,077	278,252	141,036
322,954	2,009	278,168	140,919
323,968	2,253	277,965	141,030
324,983	2,286	277,830	140,979
325,997	2,222	277,536	140,758
327,012	2,230	277,463	140,715
328,027	2,129	277,212	140,482
329,041	2,050	277,081	140,330
330,056	2,268	276,859	140,407
331,070	2,081	276,766	140,174
332,085	2,091	276,554	140,064
333,100	2,256	276,318	140,084
334,114	2,128	276,147	139,867
335,129	2,227	275,869	139,805
336,143	2,158	275,712	139,650
337,158	2,038	275,601	139,470
338,173	2,247	275,424	139,560
339,187	2,184	275,297	139,426
340,202	2,211	275,081	139,328
341,216	2,206	274,734	139,135
342,231	2,370	274,653	139,232
343,246	2,191	274,587	139,023
344,260	2,119	274,452	138,876
345,275	2,269	274,248	138,898
346,289	2,176	274,072	138,711
347,304	2,106	273,906	138,551
348,319	2,243	273,567	138,492
349,333	2,337	273,386	138,474
350,348	2,140	273,217	138,196
351,362	2,063	273,132	138,071
352,377	2,364	273,054	138,293
353,392	2,279	272,762	138,055
354,406	2,299	272,644	138,002
355,421	191,962	1348,377	1428,923
356,435	155,006	1479,517	1429,046
