DTS Sentinel unit serial number:	SN410029Multiplexer serial number:	ORYXHardware model number:	OX2-SRSoftware version number:	ORYX F/W v4,00 Oryx Data Collector v3.7.2.0data status	okinstallation	B4 Nyhavnadifferential loss correction	single-endedforward channel	channel 2reverse channel	N/Adate	2023/12/15time	19:40:13forward acquisition time	300,00reverse acquisition time	0,00gamma	499,1914k internal	0,3138k external	0,3138temperature offset calibration	1,0000default loss term (dB/km)	0,3820temperature slope calibration	1,0000multiplexer offset coefficient	1,0000multiplexer slope coefficient	1,0000fibre end	0,00T internal ref (°C)	20,03T ext. ref 1 (°C)	5,55T ext. ref 2 (°C)	5,70length (m)	temperature (°C)	Stokes	anti-Stokes-744,400	749,508	-0,036	-0,073
-743,385	-138,446	-0,384	-0,031
-742,371	500,982	-0,034	0,059
-741,356	-4,403	-0,158	0,081
-740,342	-47,522	0,137	-0,049
-739,327	-161,103	-0,290	-0,011
-738,312	-24,404	0,102	-0,045
-737,298	-109,448	-0,314	-0,049
-736,283	-74,658	0,139	-0,037
-735,269	-107,859	-0,231	-0,037
-734,254	135,569	0,049	0,047
-733,239	-147,923	-0,487	-0,030
-732,225	-113,206	0,238	0,034
-731,210	70,404	0,098	0,075
-730,196	-43,521	0,063	0,023
-729,181	-61,135	0,035	-0,011
-728,167	-118,537	0,080	-0,010
-727,152	-200,000	0,010	-0,072
-726,137	-71,870	-0,124	-0,034
-725,123	18,629	-0,130	-0,077
-724,108	278,937	-0,073	-0,097
-723,094	-200,000	0,000	-0,122
-722,079	52,978	-0,040	-0,029
-721,064	-97,065	-0,061	-0,012
-720,050	-200,000	-0,004	-0,112
-719,035	30,299	-0,094	-0,059
-718,021	800,000	-0,034	-0,105
-717,006	-82,078	-0,112	0,027
-715,991	-200,000	-0,006	0,022
-714,977	-150,368	-0,096	0,005
-713,962	-200,000	-0,003	-0,093
-712,948	-69,834	0,073	0,020
-711,933	800,000	-0,033	0,098
-710,918	-200,000	0,009	-0,081
-709,904	-200,000	-0,033	-0,188
-708,889	800,000	-0,089	-0,195
-707,875	800,000	-0,054	-0,131
-706,860	607,772	0,051	-0,094
-705,845	92,825	-0,072	-0,060
-704,831	-6,865	-0,076	-0,038
-703,816	-46,727	0,013	0,005
-702,802	-200,000	-0,024	0,079
-701,787	-101,764	-0,096	-0,017
-700,772	-200,000	-0,004	-0,070
-699,758	-200,000	-0,010	-0,115
-698,743	161,692	0,034	-0,036
-697,729	-200,000	0,027	0,109
-696,714	-200,000	-0,001	-0,075
-695,699	-200,000	-0,031	0,101
-694,685	-161,608	0,168	0,006
-693,670	11,539	-0,103	-0,058
-692,656	-78,416	0,106	-0,027
-691,641	800,000	0,030	-0,076
-690,627	-50,966	-0,022	0,008
-689,612	-200,000	0,008	-0,094
-688,597	-33,148	-0,050	0,020
-687,583	-200,000	-0,090	0,000
-686,568	800,000	0,039	-0,085
-685,554	217,944	-0,095	-0,113
-684,539	497,748	0,025	0,043
-683,524	55,569	-0,043	-0,031
-682,510	119,376	-0,079	0,072
-681,495	-146,881	-0,094	-0,006
-680,481	-200,000	-0,012	-0,058
-679,466	800,000	-0,040	-0,085
-678,451	-123,649	-0,152	0,018
-677,437	-27,393	0,085	-0,036
-676,422	509,385	-0,038	-0,065
-675,408	-143,051	-0,033	-0,002
-674,393	-49,308	-0,134	-0,047
-673,378	205,307	0,069	-0,080
-672,364	5,525	-0,053	-0,029
-671,349	800,000	0,027	-0,059
-670,335	117,501	-0,095	-0,086
-669,320	509,252	0,043	0,075
-668,305	80,967	-0,038	0,030
-667,291	41,520	-0,120	0,080
-666,276	-184,779	0,095	-0,001
-665,262	132,567	-0,091	0,087
-664,247	174,742	-0,134	-0,143
-663,232	-200,000	0,019	-0,088
-662,218	-200,000	0,000	0,082
-661,203	800,000	0,015	0,033
-660,189	-25,853	0,117	-0,051
-659,174	161,486	-0,066	-0,068
-658,159	34,780	-0,141	0,091
-657,145	-200,000	-0,005	0,075
-656,130	170,525	0,128	-0,136
-655,116	-103,297	0,164	-0,028
-654,101	7,221	-0,074	0,041
-653,086	219,332	0,054	0,064
-652,072	-200,000	-0,019	-0,064
-651,057	-200,000	0,002	-0,066
-650,043	7,045	0,094	0,052
-649,028	220,574	0,085	-0,101
-648,014	-96,057	0,084	-0,016
-646,999	-124,879	-0,051	0,006
-645,984	367,806	-0,016	0,024
-644,970	-200,000	0,000	-0,046
-643,955	800,000	-0,064	-0,134
-642,941	800,000	-0,030	-0,095
-641,926	-137,876	0,045	0,004
-640,911	124,750	-0,078	-0,073
-639,897	800,000	0,046	-0,101
-638,882	-107,099	0,008	-0,001
-637,868	800,000	-0,049	0,125
-636,853	-200,000	0,011	-0,091
-635,838	118,365	-0,036	-0,033
-634,824	-68,976	-0,132	-0,037
-633,809	-200,000	-0,019	-0,103
-632,795	4,167	-0,093	0,050
-631,780	800,000	-0,047	-0,124
-630,765	186,153	-0,075	0,082
-629,751	63,290	-0,092	0,068
-628,736	48,459	0,048	-0,033
-627,722	-200,000	0,006	0,075
-626,707	-154,589	-0,052	0,003
-625,692	-200,000	-0,007	-0,097
-624,678	609,380	-0,048	0,089
-623,663	9,567	0,018	-0,010
-622,649	800,000	-0,070	-0,201
-621,634	800,000	-0,007	-0,016
-620,619	-87,369	0,085	0,019
-619,605	411,376	-0,029	-0,046
-618,590	-200,000	-0,023	-0,106
-617,576	800,000	-0,023	-0,063
-616,561	-84,785	-0,036	0,008
-615,546	-200,000	-0,005	0,073
-614,532	223,981	-0,067	-0,079
-613,517	-61,134	-0,228	0,071
-612,503	241,627	0,091	0,113
-611,488	-200,000	0,016	0,087
-610,474	382,723	0,069	0,105
-609,459	-28,445	0,112	0,048
-608,444	-66,673	-0,108	-0,031
-607,430	452,817	-0,039	-0,063
-606,415	-138,321	-0,132	0,011
-605,401	-200,000	0,001	-0,082
-604,386	800,000	-0,021	0,057
-603,371	130,985	0,064	0,061
-602,357	476,920	-0,004	-0,007
-601,342	-38,605	0,037	-0,014
-600,328	-66,011	-0,061	-0,018
-599,313	-200,000	-0,010	0,000
-598,298	-200,000	-0,017	-0,110
-597,284	-61,356	0,136	-0,042
-596,269	-27,889	-0,052	0,022
-595,255	-140,981	0,072	0,005
-594,240	223,027	-0,065	0,077
-593,225	-69,388	-0,136	0,038
-592,211	336,828	0,046	0,067
-591,196	182,555	-0,085	-0,093
-590,182	-42,477	0,043	0,016
-589,167	126,088	0,144	-0,135
-588,152	160,492	0,037	0,039
-587,138	251,697	-0,108	0,135
-586,123	200,682	-0,150	-0,171
-585,109	-200,000	-0,008	0,042
-584,094	800,000	-0,033	-0,097
-583,079	-28,186	-0,145	0,061
-582,065	564,587	-0,014	-0,025
-581,050	149,212	-0,064	0,064
-580,036	-200,000	-0,034	0,181
-579,021	-200,000	0,038	-0,153
-578,006	800,000	0,039	-0,127
-576,992	47,385	0,128	-0,088
-575,977	-88,136	-0,119	-0,026
-574,963	72,569	0,037	-0,029
-573,948	-54,836	-0,043	-0,014
-572,934	11,938	0,037	-0,021
-571,919	274,404	-0,069	-0,090
-570,904	-104,256	-0,135	0,023
-569,890	-200,000	0,024	-0,181
-568,875	800,000	0,034	-0,091
-567,861	-200,000	0,024	0,169
-566,846	-18,257	-0,051	-0,023
-565,831	28,937	-0,039	-0,024
-564,817	-200,000	0,004	-0,086
-563,802	114,647	0,093	0,083
-562,788	-38,845	-0,053	-0,021
-561,773	-200,000	0,114	0,000
-560,758	-200,000	-0,033	-0,124
-559,744	-200,000	-0,009	0,074
-558,729	96,692	0,048	0,040
-557,715	13,446	-0,064	-0,037
-556,700	-200,000	-0,012	-0,090
-555,685	-114,428	-0,097	-0,014
-554,671	-144,878	0,120	0,008
-553,656	46,279	0,060	-0,041
-552,642	-176,711	0,087	0,002
-551,627	208,893	-0,088	0,101
-550,612	-180,907	-0,028	0,000
-549,598	-35,285	-0,097	-0,039
-548,583	-41,618	-0,047	-0,018
-547,569	-200,000	0,107	0,000
-546,554	316,198	0,050	-0,070
-545,539	-200,000	0,007	-0,076
-544,525	800,000	-0,030	0,064
-543,510	800,000	0,034	-0,074
-542,496	454,887	-0,055	-0,089
-541,481	800,000	-0,007	-0,020
-540,466	-200,000	0,003	-0,010
-539,452	102,548	0,027	-0,024
-538,437	47,354	0,116	0,080
-537,423	21,806	-0,061	0,037
-536,408	-39,747	-0,026	-0,010
-535,393	33,578	0,050	-0,032
-534,379	-16,182	-0,061	-0,028
-533,364	-200,000	0,009	-0,124
-532,350	-200,000	-0,008	0,148
-531,335	135,559	-0,019	-0,018
-530,321	277,065	0,066	-0,087
-529,306	101,415	-0,021	0,018
-528,291	24,403	-0,158	-0,096
-527,277	-164,183	0,047	0,002
-526,262	-200,000	0,029	0,107
-525,248	-153,079	0,075	0,004
-524,233	188,098	0,126	0,139
-523,218	800,000	-0,010	-0,024
-522,204	800,000	0,025	-0,073
-521,189	87,406	-0,090	-0,074
-520,175	45,057	0,095	0,064
-519,160	800,000	-0,033	-0,071
-518,145	-200,000	0,024	-0,111
-517,131	-90,586	0,113	-0,024
-516,116	-200,000	0,004	-0,165
-515,102	-200,000	-0,020	0,078
-514,087	-200,000	-0,002	0,161
-513,072	55,926	0,111	0,079
-512,058	-194,245	-0,022	-0,000
-511,043	-177,958	0,040	0,001
-510,029	263,245	0,076	-0,097
-509,014	234,935	0,053	0,065
-507,999	28,909	0,037	-0,023
-506,985	800,000	0,017	-0,040
-505,970	-156,552	0,097	-0,004
-504,956	800,000	0,028	-0,061
-503,941	-32,340	0,038	0,016
-502,926	-91,539	0,162	-0,034
-501,912	-200,000	-0,005	0,017
-500,897	-200,000	-0,005	0,093
-499,883	-200,000	-0,001	-0,007
-498,868	456,647	-0,020	-0,032
-497,853	-47,280	0,125	0,044
-496,839	466,868	0,008	-0,014
-495,824	-156,190	0,028	0,001
-494,810	48,297	0,090	0,062
-493,795	-200,000	0,014	0,105
-492,781	-59,372	-0,162	0,051
-491,766	-62,129	0,027	0,008
-490,751	-12,714	0,115	-0,055
-489,737	7,357	0,036	-0,019
-488,722	-122,987	0,162	0,019
-487,708	-200,000	-0,016	-0,093
-486,693	-92,266	0,098	-0,020
-485,678	-200,000	0,010	0,035
-484,664	-200,000	-0,020	-0,077
-483,649	-200,000	0,003	-0,092
-482,635	800,000	0,029	-0,072
-481,620	409,653	-0,061	-0,095
-480,605	211,392	0,047	-0,054
-479,591	298,793	-0,056	-0,076
-478,576	119,764	-0,012	0,011
-477,562	13,588	-0,069	-0,039
-476,547	187,348	-0,095	0,105
-475,532	-200,000	-0,017	-0,065
-474,518	-200,000	-0,017	0,067
-473,503	250,349	0,067	0,083
-472,489	-72,854	-0,047	0,013
-471,474	443,402	-0,060	0,097
-470,459	266,529	-0,052	0,066
-469,445	48,084	0,053	-0,036
-468,430	104,798	0,134	-0,116
-467,416	-200,000	-0,009	0,031
-466,401	138,147	-0,030	-0,029
-465,386	-200,000	-0,012	-0,084
-464,372	262,796	0,056	0,071
-463,357	-200,000	-0,002	0,038
-462,343	13,407	-0,179	-0,102
-461,328	397,037	-0,166	-0,255
-460,313	800,000	-0,026	-0,059
-459,299	187,975	0,068	-0,074
-458,284	-200,000	-0,027	0,087
-457,270	98,395	0,055	0,047
-456,255	62,005	-0,094	-0,068
-455,241	16,187	-0,144	-0,083
-454,226	-97,216	-0,248	-0,047
-453,211	-181,523	0,123	0,002
-452,197	-200,000	-0,008	0,071
-451,182	-200,000	-0,021	0,109
-450,168	407,082	0,012	0,018
-449,153	139,279	-0,049	-0,047
-448,138	539,823	-0,058	0,102
-447,124	-200,000	0,009	0,103
-446,109	800,000	-0,066	-0,188
-445,095	38,879	-0,045	-0,029
-444,080	74,843	-0,163	0,126
-443,065	800,000	-0,031	-0,081
-442,051	104,552	-0,069	-0,060
-441,036	636,682	-0,048	-0,089
-440,022	-63,813	0,193	0,057
-439,007	800,000	-0,043	-0,109
-437,992	-200,000	-0,015	-0,100
-436,978	64,416	0,027	0,020
-435,963	800,000	-0,020	0,048
-434,949	-54,216	-0,020	0,007
-433,934	18,995	-0,094	0,055
-432,919	775,554	-0,057	-0,114
-431,905	-35,288	0,061	-0,024
-430,890	319,165	-0,084	0,117
-429,876	-200,000	0,025	0,149
-428,861	367,936	0,074	0,110
-427,846	9,473	0,137	-0,076
-426,832	-200,000	-0,012	-0,061
-425,817	800,000	-0,020	-0,049
-424,803	-120,071	-0,090	0,011
-423,788	800,000	0,007	0,022
-422,773	-148,799	0,174	-0,010
-421,759	-119,540	0,056	-0,007
-420,744	800,000	0,047	0,109
-419,730	-200,000	0,014	-0,136
-418,715	377,634	-0,076	-0,114
-417,701	800,000	-0,052	0,122
-416,686	117,178	0,022	-0,020
-415,671	-200,000	0,009	-0,082
-414,657	-44,538	0,135	0,049
-413,642	-46,120	0,130	-0,047
-412,628	-50,936	-0,048	-0,017
-411,613	-125,912	-0,092	-0,010
-410,598	-93,442	-0,069	0,014
-409,584	-200,000	0,003	0,040
-408,569	-200,000	-0,026	0,095
-407,555	-20,872	-0,035	0,016
-406,540	526,515	0,075	0,130
-405,525	-58,240	-0,179	0,057
-404,511	-200,000	-0,006	-0,042
-403,496	-135,948	0,110	-0,009
-402,482	-200,000	0,024	-0,083
-401,467	-13,791	0,174	0,082
-400,452	800,000	0,017	0,046
-399,438	-200,000	-0,029	0,104
-398,423	-92,151	-0,114	0,023
-397,409	-200,000	0,002	-0,207
-396,394	508,319	0,056	0,095
-395,379	800,000	0,020	0,043
-394,365	-200,000	0,002	-0,095
-393,350	-75,423	0,072	-0,019
-392,336	-80,861	-0,111	-0,027
-391,321	235,809	0,044	-0,054
-390,306	63,617	-0,125	0,092
-389,292	-194,652	-0,027	0,000
-388,277	-53,340	0,081	-0,027
-387,263	-51,799	0,074	0,025
-386,248	232,222	0,109	0,131
-385,233	-200,000	0,018	0,157
-384,219	223,142	0,056	0,067
-383,204	800,000	0,005	-0,013
-382,190	-133,886	-0,053	-0,005
-381,175	536,345	0,055	-0,096
-380,160	-200,000	0,011	0,073
-379,146	-80,829	0,076	-0,018
-378,131	-200,000	0,009	0,055
-377,117	742,093	0,007	0,014
-376,102	452,346	-0,095	-0,154
-375,088	170,195	-0,015	-0,016
-374,073	800,000	0,007	-0,020
-373,058	473,028	0,029	-0,048
-372,044	-47,189	0,104	-0,037
-371,029	800,000	0,028	0,057
-370,015	-19,488	-0,090	0,040
-369,000	52,171	-0,080	-0,055
-367,985	670,914	-0,059	-0,113
-366,971	-200,000	-0,027	-0,127
-365,956	602,484	-0,078	0,143
-364,942	800,000	0,044	0,129
-363,927	-200,000	0,027	0,167
-362,912	800,000	0,077	0,157
-361,898	-17,627	-0,118	0,054
-360,883	800,000	-0,042	0,101
-359,869	190,503	-0,090	-0,099
-358,854	-200,000	0,013	0,097
-357,839	458,119	-0,052	0,085
-356,825	-200,000	-0,016	-0,058
-355,810	267,531	-0,020	0,026
-354,796	414,375	-0,023	-0,036
-353,781	-200,000	0,001	-0,055
-352,766	-200,000	-0,019	0,080
-351,752	117,741	0,027	0,025
-350,737	-200,000	-0,019	0,169
-349,723	-111,477	-0,177	0,026
-348,708	800,000	-0,021	0,057
-347,693	-129,344	-0,084	-0,008
-346,679	-200,000	0,019	-0,103
-345,664	800,000	0,015	-0,041
-344,650	-200,000	0,020	0,109
-343,635	133,768	0,102	0,097
-342,620	277,044	-0,065	-0,085
-341,606	-200,000	-0,014	0,076
-340,591	800,000	0,040	0,103
-339,577	-200,000	-0,005	0,053
-338,562	800,000	0,024	0,060
-337,548	-72,615	0,130	-0,035
-336,533	91,563	0,066	-0,054
-335,518	-200,000	-0,017	-0,057
-334,504	-200,000	-0,014	0,093
-333,489	800,000	-0,007	0,018
-332,475	280,276	-0,040	0,052
-331,460	-86,190	-0,106	-0,024
-330,445	722,456	0,022	0,043
-329,431	-158,316	0,049	0,002
-328,416	-200,000	-0,023	0,174
-327,402	-20,748	0,065	0,029
-326,387	53,025	0,047	0,033
-325,372	-200,000	0,019	-0,141
-324,358	-200,000	0,010	-0,089
-323,343	182,085	0,018	-0,020
-322,329	19,749	0,042	0,025
-321,314	531,558	0,083	0,143
-320,299	-200,000	-0,011	0,066
-319,285	800,000	-0,058	0,169
-318,270	-33,762	-0,111	-0,044
-317,256	208,378	-0,119	-0,136
-316,241	800,000	0,045	-0,139
-315,226	-171,723	0,096	0,002
-314,212	290,256	0,021	0,027
-313,197	800,000	0,016	-0,040
-312,183	-18,654	-0,133	0,060
-311,168	-10,794	0,157	-0,076
-310,153	75,540	0,071	-0,055
-309,139	381,583	-0,041	-0,062
-308,124	-200,000	0,012	0,098
-307,110	-200,000	-0,005	0,045
-306,095	-61,235	0,103	0,031
-305,080	-92,005	0,122	-0,025
-304,066	-109,708	-0,088	0,013
-303,051	-185,701	0,022	-0,000
-302,037	429,992	-0,025	-0,040
-301,022	-21,264	-0,046	0,020
-300,008	-200,000	-0,015	0,051
-298,993	93,871	0,069	0,057
-297,978	-200,000	-0,003	0,017
-296,964	-102,562	0,082	0,014
-295,949	-200,000	-0,017	0,097
-294,935	800,000	-0,027	0,068
-293,920	35,613	-0,114	-0,073
-292,905	-22,942	0,091	0,040
-291,891	-95,380	0,100	0,019
-290,876	-27,388	0,058	0,024
-289,862	-94,084	0,094	0,019
-288,847	-41,497	-0,076	-0,028
-287,832	-121,723	0,119	0,014
-286,818	146,041	0,052	0,050
-285,803	378,016	0,106	-0,159
-284,789	2,786	0,083	0,044
-283,774	285,960	0,042	-0,055
-282,759	-200,000	0,006	0,059
-281,745	82,773	-0,108	-0,085
-280,730	184,840	0,035	0,038
-279,716	-18,416	0,048	0,022
-278,701	-171,376	-0,037	-0,001
-277,686	17,261	0,143	0,082
-276,672	170,945	0,090	0,094
-275,657	-40,048	-0,108	0,041
-274,643	-200,000	-0,005	0,111
-273,628	-200,000	-0,006	0,078
-272,613	-200,000	-0,006	0,048
-271,599	-128,361	0,101	0,010
-270,584	45,116	0,115	0,077
-269,570	-200,000	0,006	0,047
-268,555	615,702	-0,015	0,028
-267,540	800,000	0,005	-0,015
-266,526	-200,000	0,000	-0,142
-265,511	-200,000	0,003	-0,036
-264,497	611,637	0,043	-0,079
-263,482	-128,865	0,017	0,002
-262,467	694,739	0,073	0,141
-261,453	222,446	-0,073	0,085
-260,438	800,000	0,033	0,093
-259,424	241,419	-0,101	-0,123
-258,409	242,330	-0,092	-0,112
-257,395	800,000	0,041	-0,126
-256,380	479,077	0,097	-0,161
-255,365	270,249	-0,047	0,060
-254,351	-47,246	0,101	0,036
-253,336	-200,000	0,003	0,081
-252,322	-200,000	-0,010	-0,119
-251,307	194,668	-0,064	0,071
-250,292	-75,308	0,119	0,031
-249,278	41,757	0,083	0,054
-248,263	286,146	0,060	-0,079
-247,249	87,394	0,037	-0,030
-246,234	-31,508	-0,055	-0,023
-245,219	-200,000	-0,026	-0,180
-244,205	-200,000	-0,009	-0,043
-243,190	-200,000	-0,017	-0,124
-242,176	-200,000	0,015	-0,139
-241,161	-200,000	0,015	0,099
-240,146	-200,000	-0,019	0,101
-239,132	800,000	-0,050	-0,103
-238,117	-49,955	-0,021	-0,007
-237,103	-200,000	0,001	-0,008
-236,088	389,033	-0,126	0,191
-235,073	-83,775	-0,039	0,009
-234,059	-55,610	-0,173	0,056
-233,044	-55,829	-0,115	-0,037
-232,030	351,484	0,085	-0,123
-231,015	-76,999	-0,088	-0,022
-230,000	92,399	0,107	-0,088
-228,986	66,643	0,084	-0,062
-227,971	139,506	0,047	0,045
-226,957	-18,756	-0,092	-0,041
-225,942	-200,000	-0,013	0,084
-224,927	419,708	-0,087	-0,135
-223,913	287,111	-0,127	0,167
-222,898	-200,000	0,008	-0,119
-221,884	143,474	0,035	-0,033
-220,869	-200,000	0,011	0,085
-219,855	293,078	-0,101	0,134
-218,840	-13,348	0,051	0,024
-217,825	-59,193	-0,095	-0,030
-216,811	-41,853	-0,099	-0,037
-215,796	-17,622	-0,048	-0,022
-214,782	0,714	-0,027	-0,014
-213,767	800,000	-0,029	0,075
-212,752	-89,876	0,074	-0,016
-211,738	800,000	-0,049	0,132
-210,723	-91,241	0,116	0,024
-209,709	104,719	-0,118	-0,101
-208,694	637,372	-0,073	-0,135
-207,679	629,782	0,059	-0,109
-206,665	219,157	-0,089	-0,103
-205,650	732,816	-0,068	0,133
-204,636	348,746	0,068	0,098
-203,621	-134,644	0,166	0,014
-202,606	-33,166	0,059	0,024
-201,592	-17,670	0,072	0,033
-200,577	-200,000	0,020	0,082
-199,563	-32,036	0,135	-0,054
-198,548	-128,910	0,155	-0,016
-197,533	51,178	0,113	0,078
-196,519	0,475	0,048	-0,025
-195,504	-47,054	0,083	-0,029
-194,490	800,000	0,013	0,031
-193,475	296,740	-0,079	-0,105
-192,460	565,573	-0,005	-0,009
-191,446	580,858	-0,116	0,207
-190,431	44,721	0,081	0,054
-189,417	480,532	-0,025	0,041
-188,402	423,183	0,026	0,041
-187,387	26,595	-0,162	0,098
-186,373	199,249	0,068	-0,075
-185,358	-200,000	0,003	-0,097
-184,344	-200,000	0,014	0,071
-183,329	800,000	0,024	0,068
-182,315	458,723	-0,072	0,117
-181,300	-198,096	-0,074	0,000
-180,285	67,064	-0,076	-0,056
-179,271	145,818	0,002	0,002
-178,256	-179,037	-0,072	-0,001
-177,242	-40,876	0,098	-0,037
-176,227	-200,000	0,000	0,009
-175,212	727,959	-0,035	-0,068
-174,198	800,000	0,026	0,080
-173,183	-20,820	-0,112	0,050
-172,169	-158,128	0,045	0,002
-171,154	-134,127	-0,042	-0,004
-170,139	-112,802	0,130	-0,019
-169,125	-65,274	-0,071	-0,021
-168,110	129,816	0,108	0,100
-167,096	-174,880	0,053	0,001
-166,081	-200,000	-0,003	0,138
-165,066	-200,000	0,001	0,005
-164,052	716,016	-0,035	0,068
-163,037	800,000	-0,004	-0,012
-162,023	-123,087	0,072	0,008
-161,008	-6,528	0,033	0,016
-159,993	258,075	-0,033	-0,042
-158,979	82,284	0,036	-0,028
-157,964	592,271	-0,043	0,078
-156,950	-108,341	-0,055	-0,008
-155,935	-199,441	-0,077	-0,000
-154,920	-200,000	0,008	0,040
-153,906	-56,535	0,161	0,052
-152,891	694,178	-0,016	-0,031
-151,877	800,000	-0,034	-0,098
-150,862	-148,970	-0,051	-0,003
-149,847	15,641	0,156	-0,089
-148,833	523,960	-0,041	0,070
-147,818	-108,289	-0,076	-0,012
-146,804	149,485	-0,083	-0,082
-145,789	-12,272	-0,051	0,024
-144,775	-138,448	-0,086	0,007
-143,760	729,283	-0,007	-0,013
-142,745	33,750	0,151	-0,095
-141,731	-93,154	-0,152	0,030
-140,716	-200,000	0,099	0,000
-139,702	553,750	0,033	-0,058
-138,687	800,000	0,038	0,078
-137,672	190,118	-0,061	0,066
-136,658	-200,000	-0,003	-0,018
-135,643	648,375	-0,011	0,020
-134,629	445,156	0,075	0,120
-133,614	-64,419	0,159	-0,046
-132,599	134,232	-0,107	0,100
-131,585	266,879	0,077	0,097
-130,570	134,530	-0,083	0,078
-129,556	234,191	-0,019	-0,023
-128,541	800,000	-0,044	-0,123
-127,526	800,000	-0,007	0,018
-126,512	800,000	0,058	-0,120
-125,497	43,039	-0,085	0,056
-124,483	321,839	0,075	0,103
-123,468	163,864	0,083	-0,085
-122,453	205,488	0,009	-0,010
-121,439	-200,000	-0,031	0,101
-120,424	-200,000	-0,010	0,052
-119,410	87,597	-0,019	-0,015
-118,395	74,277	0,087	0,066
-117,380	276,420	0,045	0,058
-116,366	332,034	-0,034	0,048
-115,351	-1,243	-0,057	-0,029
-114,337	-74,910	-0,088	-0,023
-113,322	-88,476	-0,096	0,021
-112,307	-150,710	0,143	0,008
-111,293	237,651	-0,076	0,092
-110,278	685,116	0,096	0,183
-109,264	453,586	0,025	-0,040
-108,249	87,012	-0,133	-0,106
-107,234	184,704	-0,047	0,051
-106,220	77,524	0,036	-0,027
-105,205	-96,947	0,027	0,005
-104,191	54,165	0,069	0,048
-103,176	133,768	-0,058	0,054
-102,162	-93,747	-0,072	0,014
-101,147	336,366	-0,026	-0,036
-100,132	800,000	0,055	-0,115
-99,118	800,000	-0,020	-0,056
-98,103	140,141	-0,094	-0,090
-97,089	-26,163	0,080	0,034
-96,074	800,000	0,062	-0,143
-95,059	0,168	-0,075	0,039
-94,045	1,140	0,108	-0,056
-93,030	-200,000	0,007	-0,050
-92,016	-110,563	-0,036	-0,005
-91,001	49,752	0,124	-0,084
-89,986	-162,906	-0,063	-0,002
-88,972	526,086	-0,034	-0,058
-87,957	178,479	-0,057	0,060
-86,943	800,000	-0,019	0,042
-85,928	-200,000	-0,002	0,032
-84,913	-46,051	0,024	-0,008
-83,899	82,455	0,051	-0,040
-82,884	479,065	0,003	-0,006
-81,870	80,917	-0,098	0,076
-80,855	388,721	0,041	-0,062
-79,840	331,083	-0,044	-0,062
-78,826	-200,000	0,015	-0,058
-77,811	-33,276	0,073	-0,029
-76,797	31,975	0,084	0,052
-75,782	141,386	0,082	0,078
-74,767	-105,981	0,106	0,017
-73,753	106,348	-0,087	0,075
-72,738	194,355	0,016	0,018
-71,724	-41,847	-0,132	0,049
-70,709	111,413	-0,110	-0,096
-69,694	93,654	-0,046	0,038
-68,680	169,155	0,055	0,057
-67,665	23,659	-0,052	-0,031
-66,651	-200,000	0,001	0,014
-65,636	-134,194	-0,120	0,011
-64,622	800,000	0,058	-0,123
-63,607	-200,000	0,028	-0,094
-62,592	-188,859	-0,093	0,001
-61,578	11,777	0,096	0,053
-60,563	-200,000	0,001	0,165
-59,549	56,383	-0,061	0,043
-58,534	-74,455	-1,515	-0,392
-57,519	800,000	-0,466	-1,301
-56,505	-200,000	-1,007	-4,520
-55,490	-146,215	0,651	0,041
-54,476	800,000	5,037	11,633
-53,461	-200,000	14,933	261,920
-52,446	800,000	698,730	2217,635
-51,432	565,009	1619,776	2847,085
-50,417	120,201	1625,816	1457,152
-49,403	79,963	1280,944	993,441
-48,388	37,685	1020,545	653,010
-47,373	22,542	981,283	578,291
-46,359	21,687	970,139	568,908
-45,344	20,277	965,805	561,755
-44,330	20,328	964,650	561,227
-43,315	20,087	963,139	559,541
-42,300	20,105	961,966	558,898
-41,286	20,117	961,044	558,379
-40,271	20,074	960,004	557,614
-39,257	20,137	959,212	557,336
-38,242	20,121	958,295	556,728
-37,227	20,071	957,746	556,225
-36,213	20,101	956,543	555,601
-35,198	20,025	955,904	554,965
-34,184	20,109	954,998	554,685
-33,169	20,070	953,995	553,956
-32,154	20,101	953,092	553,509
-31,140	20,124	952,272	553,086
-30,125	20,104	951,539	552,575
-29,111	20,092	950,752	552,054
-28,096	20,052	950,123	551,540
-27,082	20,039	949,397	551,054
-26,067	20,088	948,566	550,709
-25,052	20,083	947,812	550,233
-24,038	20,049	947,203	549,750
-23,023	20,014	946,527	549,224
-22,009	20,092	945,969	549,125
-20,994	20,083	945,152	548,600
-19,979	20,101	944,540	548,282
-18,965	20,085	943,892	547,833
-17,950	20,028	943,439	547,367
-16,936	19,993	942,654	546,779
-15,921	19,983	942,216	546,472
-14,906	19,927	941,380	545,786
-13,892	19,934	940,767	545,430
-12,877	19,946	940,061	545,038
-11,863	19,929	939,426	544,596
-10,848	19,954	938,930	544,364
-9,833	20,037	938,745	544,500
-8,819	20,001	937,957	543,908
-7,804	19,965	937,375	543,434
-6,790	19,929	936,809	542,971
-5,775	19,954	936,085	542,608
-4,760	19,961	935,421	542,222
-3,746	19,941	934,894	541,835
-2,731	19,847	934,090	541,051
-1,717	19,814	933,317	540,478
-0,702	19,782	932,757	540,030
0,313	19,541	932,351	539,855
1,327	22,192	929,871	546,675
2,342	29,764	805,632	494,031
3,356	24,758	506,790	302,259
4,371	1,306	373,997	193,285
5,386	-1,627	357,225	181,009
6,400	-2,755	350,968	176,464
7,415	-3,582	348,311	174,123
8,429	-3,908	346,842	172,986
9,444	-3,851	345,852	172,544
10,459	-3,781	345,147	172,259
11,473	-3,987	344,556	171,705
12,488	-3,770	344,011	171,675
13,502	-3,792	343,473	171,365
14,517	-4,030	342,896	170,782
15,531	-4,225	342,159	170,170
16,546	-4,276	341,792	169,913
17,561	-4,178	341,316	169,777
18,575	-4,369	340,984	169,373
19,590	-4,411	340,636	169,136
20,604	-4,386	340,402	169,033
21,619	-4,422	339,837	168,696
22,634	-4,353	339,497	168,593
23,648	-4,428	339,061	168,273
24,663	-4,418	338,786	168,134
25,677	-4,351	338,468	168,039
26,692	-4,417	338,326	167,877
27,707	-4,464	337,872	167,581
28,721	-4,446	337,685	167,495
29,736	-4,278	337,243	167,456
30,750	-4,339	336,915	167,207
31,765	-4,523	336,716	166,881
32,780	-4,586	336,406	166,640
33,794	-4,364	336,040	166,700
34,809	-4,509	335,894	166,445
35,823	-4,364	335,596	166,449
36,838	-4,399	335,402	166,298
37,853	-4,582	335,154	165,950
38,867	-4,358	334,697	165,966
39,882	-4,545	334,484	165,631
40,896	-4,284	333,981	165,666
41,911	-4,394	333,877	165,473
42,926	-4,553	333,607	165,143
43,940	-4,483	333,245	165,029
44,955	-4,472	332,955	164,883
45,969	-4,542	332,714	164,670
46,984	-4,592	332,505	164,495
47,999	-4,775	332,133	164,088
49,013	-4,867	331,763	163,786
50,028	-4,856	331,600	163,704
51,042	-4,963	331,263	163,401
52,057	-4,842	330,970	163,379
53,071	-4,831	330,815	163,300
54,086	-4,994	330,392	162,893
55,101	-4,907	330,275	162,919
56,115	-4,727	330,161	163,051
57,130	-4,429	330,071	163,329
58,144	-4,262	329,947	163,442
59,159	-4,222	329,437	163,220
60,174	-4,282	329,324	163,082
61,188	-4,254	329,048	162,962
62,203	-4,159	328,773	162,918
63,217	-4,254	328,435	162,629
64,232	-4,154	328,158	162,590
65,247	-4,073	327,990	162,582
66,261	-4,095	327,682	162,391
67,276	-4,438	327,259	161,782
68,290	-4,579	327,006	161,486
69,305	-4,426	326,598	161,441
70,320	-4,554	326,593	161,281
71,334	-4,287	326,363	161,451
72,349	-4,169	326,206	161,491
73,363	-4,255	325,906	161,231
74,378	-4,340	325,840	161,090
75,393	-4,131	325,438	161,110
76,407	-4,229	325,236	160,886
77,422	-4,161	324,878	160,770
78,436	-4,171	324,762	160,687
79,451	-4,238	324,387	160,413
80,466	-4,328	324,086	160,150
81,480	-4,417	323,736	159,865
82,495	-4,539	323,448	159,574
83,509	-4,371	323,393	159,718
84,524	-4,539	323,133	159,390
85,539	-4,537	322,740	159,184
86,553	-4,676	322,663	158,979
87,568	-4,515	322,374	158,999
88,582	-4,566	322,103	158,795
89,597	-4,546	321,863	158,685
90,611	-4,493	321,692	158,645
91,626	-4,308	321,433	158,706
92,641	-4,328	321,177	158,543
93,655	-4,319	320,984	158,443
94,670	-4,471	320,743	158,144
95,684	-4,472	320,556	158,037
96,699	-4,547	320,360	157,844
97,714	-4,366	320,014	157,857
98,728	-4,570	319,761	157,496
99,743	-4,591	319,513	157,337
100,757	-4,568	319,298	157,242
101,772	-4,775	319,163	156,936
102,787	-4,561	318,827	156,989
103,801	-4,495	318,671	156,970
104,816	-4,418	318,441	156,927
105,830	-4,259	318,327	157,029
106,845	-4,302	318,041	156,827
107,860	-4,343	317,683	156,592
108,874	-4,470	317,486	156,344
109,889	-4,361	317,197	156,305
110,903	-4,369	316,925	156,148
111,918	-4,592	316,923	155,893
112,933	-4,537	316,550	155,755
113,947	-4,360	316,292	155,805
114,962	-4,301	316,087	155,753
115,976	-4,390	316,095	155,648
116,991	-4,520	315,718	155,309
118,006	-4,278	315,402	155,399
119,020	-4,341	315,330	155,282
120,035	-4,170	315,225	155,400
121,049	-4,156	314,954	155,267
122,064	-4,298	314,719	154,986
123,079	-4,371	314,470	154,770
124,093	-4,277	314,135	154,693
125,108	-4,482	313,826	154,309
126,122	-4,529	313,681	154,173
127,137	-4,763	313,226	153,686
128,151	-4,720	313,314	153,761
129,166	-4,508	312,959	153,799
130,181	-4,564	312,760	153,629
131,195	-4,595	312,640	153,522
132,210	-4,440	312,265	153,489
133,224	-4,396	312,112	153,447
134,239	-4,313	312,003	153,468
135,254	-4,325	311,785	153,334
136,268	-4,295	311,313	153,120
137,283	-4,578	311,182	152,743
138,297	-4,644	310,990	152,565
139,312	-4,610	310,748	152,468
140,327	-4,439	310,594	152,560
141,341	-4,044	310,495	152,914
142,356	-4,148	310,356	152,722
143,370	-4,071	310,060	152,644
144,385	-4,028	309,807	152,551
145,400	-4,074	309,572	152,374
146,414	-3,971	309,386	152,376
147,429	-4,212	309,236	152,036
148,443	-4,107	309,052	152,042
149,458	-4,066	308,687	151,893
150,473	-4,066	308,542	151,807
151,487	-4,270	308,470	151,544
152,502	-4,036	308,009	151,550
153,516	-3,984	307,782	151,479
154,531	-4,151	307,587	151,195
155,546	-4,035	307,578	151,298
156,560	-4,253	307,280	150,911
157,575	-4,186	306,866	150,764
158,589	-4,148	306,773	150,744
159,604	-4,116	306,576	150,667
160,619	-3,902	306,408	150,794
161,633	-3,950	306,211	150,633
162,648	-4,151	306,072	150,343
163,662	-4,074	305,854	150,302
164,677	-4,062	305,605	150,179
165,692	-4,050	305,437	150,095
166,706	-4,124	305,452	150,013
167,721	-4,052	305,067	149,885
168,735	-3,907	304,788	149,884
169,750	-4,026	304,613	149,661
170,764	-4,001	304,496	149,617
171,779	-4,033	304,349	149,498
172,794	-3,866	304,132	149,550
173,808	-4,040	303,745	149,167
174,823	-4,380	303,521	148,695
175,837	-4,693	303,236	148,221
176,852	-4,158	303,219	148,749
177,867	-4,063	303,186	148,816
178,881	-3,799	302,699	148,834
179,896	-3,953	302,542	148,586
180,910	-4,040	302,467	148,447
181,925	-3,974	302,245	148,393
182,940	-3,980	302,005	148,256
183,954	-4,076	301,831	148,059
184,969	-3,904	301,636	148,125
185,983	-3,900	301,581	148,089
186,998	-3,803	301,215	147,995
188,013	-3,881	300,947	147,770
189,027	-3,817	300,892	147,796
190,042	-3,682	300,555	147,754
191,056	-3,801	300,404	147,546
192,071	-3,741	300,310	147,547
193,086	-3,747	300,168	147,458
194,100	-3,703	299,821	147,319
195,115	-3,767	299,560	147,114
196,129	-3,696	299,395	147,091
197,144	-3,767	299,102	146,862
198,159	-3,861	299,041	146,724
199,173	-3,817	298,775	146,625
200,188	-3,568	298,581	146,768
201,202	-3,917	298,368	146,299
202,217	-4,301	297,940	145,688
203,232	-4,348	297,536	145,432
204,246	-4,200	297,602	145,599
205,261	-3,863	297,419	145,835
206,275	-3,955	297,257	145,650
207,290	-3,786	297,136	145,747
208,304	-3,903	297,017	145,559
209,319	-3,908	296,740	145,405
210,334	-3,832	296,447	145,325
211,348	-3,926	296,308	145,150
212,363	-3,847	296,122	145,124
213,377	-3,912	296,018	144,996
214,392	-3,889	295,797	144,898
215,407	-4,194	295,607	144,487
216,421	-4,197	295,223	144,284
217,436	-4,249	294,951	144,086
218,450	-4,115	294,903	144,184
219,465	-4,215	294,748	143,995
220,480	-3,977	294,467	144,081
221,494	-4,052	294,361	143,942
222,509	-3,989	294,179	143,902
223,523	-3,985	293,975	143,794
224,538	-3,948	293,748	143,706
225,553	-3,887	293,669	143,715
226,567	-3,953	293,456	143,533
227,582	-3,920	293,251	143,453
228,596	-3,934	293,150	143,377
229,611	-3,815	293,072	143,443
230,626	-3,867	292,731	143,212
231,640	-4,087	292,248	142,747
232,655	-4,373	291,994	142,329
233,669	-4,464	291,740	142,103
234,684	-4,300	291,592	142,179
235,699	-4,266	291,585	142,196
236,713	-4,216	291,345	142,116
237,728	-4,148	291,258	142,127
238,742	-4,221	291,046	141,939
239,757	-4,060	290,948	142,037
240,772	-3,889	290,737	142,088
241,786	-4,001	290,593	141,896
242,801	-4,037	290,384	141,746
243,815	-4,100	290,149	141,557
244,830	-3,982	289,930	141,553
245,844	-4,126	289,723	141,299
246,859	-4,056	289,519	141,256
247,874	-4,222	289,347	140,996
248,888	-4,207	289,192	140,923
249,903	-3,855	289,158	141,236
250,917	-3,810	289,057	141,219
251,932	-3,807	288,892	141,128
252,947	-2,852	288,890	142,041
253,961	-3,208	288,574	141,528
254,976	-2,183	289,097	142,767
255,990	0,480	289,869	145,726
257,005	0,633	289,709	145,780
258,020	1,895	290,194	147,238
259,034	2,682	290,182	147,984
260,049	2,514	289,868	147,647
261,063	2,341	289,692	147,376
262,078	2,753	289,542	147,686
263,093	3,169	289,819	148,217
264,107	3,269	289,573	148,175
265,122	3,298	289,423	148,113
266,136	3,443	289,245	148,149
267,151	3,390	288,739	147,825
268,166	3,344	288,707	147,752
269,180	3,185	288,571	147,516
270,195	3,178	288,383	147,400
271,209	3,226	288,228	147,353
272,224	3,124	287,912	147,081
273,239	2,963	287,795	146,853
274,253	2,905	287,655	146,713
275,268	3,090	287,423	146,759
276,282	3,144	287,315	146,743
277,297	3,046	287,038	146,494
278,312	3,171	286,906	146,533
279,326	3,500	286,902	146,834
280,341	3,408	286,648	146,602
281,355	3,354	286,403	146,411
282,370	3,213	286,152	146,136
283,384	3,197	286,057	146,059
284,399	3,425	285,766	146,115
285,414	3,335	285,653	145,958
286,428	3,131	285,542	145,695
287,443	3,018	285,141	145,370
288,457	2,769	285,009	145,053
289,472	2,932	284,673	145,023
290,487	2,927	284,558	144,947
291,501	2,828	284,341	144,729
292,516	2,553	284,113	144,340
293,530	2,412	284,034	144,153
294,545	2,922	283,896	144,553
295,560	2,969	283,775	144,523
296,574	2,782	283,447	144,167
297,589	3,128	283,322	144,417
298,603	3,295	283,274	144,538
299,618	3,294	283,217	144,494
300,633	2,979	282,969	144,058
301,647	3,156	282,702	144,077
302,662	2,975	282,480	143,779
303,676	2,929	282,264	143,614
304,691	2,733	281,868	143,215
305,706	2,321	281,751	142,756
306,720	2,445	281,429	142,697
307,735	2,402	281,284	142,570
308,749	2,665	281,239	142,781
309,764	2,758	281,076	142,772
310,779	2,542	280,849	142,442
311,793	2,370	280,630	142,158
312,808	2,418	280,480	142,114
313,822	2,364	280,275	141,947
314,837	2,450	279,995	141,873
315,852	2,145	279,873	141,514
316,866	2,335	279,723	141,603
317,881	2,416	279,475	141,539
318,895	2,533	279,368	141,582
319,910	2,149	279,047	141,050
320,925	2,168	278,869	140,965
321,939	2,360	278,805	141,097
322,954	2,687	278,617	141,293
323,968	2,523	278,604	141,122
324,983	2,673	278,548	141,220
325,997	2,712	278,239	141,087
327,012	2,783	278,052	141,046
328,027	2,821	277,900	140,991
329,041	2,533	277,609	140,565
330,056	2,690	277,617	140,701
331,070	2,577	277,203	140,375
332,085	2,471	277,034	140,178
333,100	2,691	276,870	140,286
334,114	2,588	276,674	140,079
335,129	2,342	276,491	139,749
336,143	2,577	276,402	139,907
337,158	2,981	276,233	140,180
338,173	2,943	275,918	139,973
339,187	2,589	275,760	139,555
340,202	2,684	275,596	139,547
341,216	2,807	275,667	139,683
342,231	2,653	275,370	139,379
343,246	2,594	275,154	139,203
344,260	2,634	275,121	139,211
345,275	2,737	274,951	139,207
346,289	3,239	274,835	139,593
347,304	3,131	274,670	139,399
348,319	2,911	274,302	138,999
349,333	2,860	274,138	138,858
350,348	3,010	274,168	138,997
351,362	3,071	273,905	138,906
352,377	3,104	273,802	138,872
353,392	3,003	273,794	138,764
354,406	2,893	273,646	138,576
355,421	191,740	1327,064	1400,827
356,435	154,976	1455,457	1400,902
