DTS Sentinel unit serial number:	SN410029Multiplexer serial number:	ORYXHardware model number:	OX2-SRSoftware version number:	ORYX F/W v4,00 Oryx Data Collector v3.7.2.0data status	okinstallation	B4 Nyhavnadifferential loss correction	single-endedforward channel	channel 2reverse channel	N/Adate	2023/12/19time	13:50:14forward acquisition time	300,00reverse acquisition time	0,00gamma	499,1914k internal	0,3128k external	0,3128temperature offset calibration	1,0000default loss term (dB/km)	0,3820temperature slope calibration	1,0000multiplexer offset coefficient	1,0000multiplexer slope coefficient	1,0000fibre end	0,00T internal ref (°C)	19,39T ext. ref 1 (°C)	4,41T ext. ref 2 (°C)	4,36length (m)	temperature (°C)	Stokes	anti-Stokes-744,400	-200,000	-0,008	-0,040
-743,385	-141,575	-0,175	-0,013
-742,371	229,346	0,088	0,107
-741,356	691,148	-0,102	0,199
-740,342	800,000	-0,021	0,059
-739,327	-107,666	-0,403	0,065
-738,312	-200,000	0,001	0,016
-737,298	-94,692	-0,329	0,066
-736,283	-149,379	0,083	0,005
-735,269	115,681	-0,127	0,116
-734,254	800,000	-0,038	-0,107
-733,239	-145,959	-0,509	0,033
-732,225	-81,942	0,196	0,047
-731,210	119,776	0,109	0,101
-730,196	77,012	-0,034	0,027
-729,181	-200,000	0,014	0,207
-728,167	800,000	-0,008	-0,027
-727,152	584,921	-0,055	-0,102
-726,137	1,495	-0,064	-0,034
-725,123	-200,000	-0,035	-0,179
-724,108	131,801	-0,125	-0,119
-723,094	-200,000	0,005	-0,028
-722,079	-18,191	-0,228	-0,106
-721,064	338,079	0,056	-0,082
-720,050	-120,292	-0,119	-0,015
-719,035	800,000	-0,030	0,089
-718,021	-200,000	-0,021	0,105
-717,006	209,148	-0,066	0,077
-715,991	80,626	-0,092	-0,073
-714,977	763,740	-0,045	-0,091
-713,962	-94,091	-0,058	0,012
-712,948	-162,935	-0,110	-0,004
-711,933	98,159	-0,052	-0,044
-710,918	-127,994	-0,075	-0,008
-709,904	-150,191	-0,147	-0,008
-708,889	375,044	-0,056	0,086
-707,875	223,073	0,076	-0,092
-706,860	800,000	-0,058	-0,127
-705,845	-200,000	0,017	0,059
-704,831	170,182	0,077	0,082
-703,816	-130,666	-0,091	0,009
-702,802	800,000	0,078	-0,164
-701,787	-200,000	0,012	-0,051
-700,772	232,251	0,034	-0,042
-699,758	-122,206	0,075	0,009
-698,743	-80,492	0,067	0,017
-697,729	27,676	0,112	0,070
-696,714	-4,259	0,028	-0,014
-695,699	221,353	0,022	-0,026
-694,685	-200,000	0,022	-0,165
-693,670	800,000	0,013	-0,032
-692,656	80,189	-0,029	-0,024
-691,641	-200,000	-0,023	-0,083
-690,627	-94,030	0,027	0,005
-689,612	325,911	-0,035	-0,049
-688,597	-146,300	-0,051	-0,003
-687,583	79,069	-0,088	-0,070
-686,568	68,526	-0,035	-0,027
-685,554	-42,925	-0,087	-0,033
-684,539	800,000	-0,045	-0,110
-683,524	-191,907	-0,076	0,001
-682,510	123,228	-0,016	0,015
-681,495	-152,998	0,101	0,005
-680,481	95,472	-0,126	-0,107
-679,466	265,862	-0,074	0,096
-678,451	3,036	-0,037	0,020
-677,437	-61,407	0,020	0,006
-676,422	-51,716	-0,049	0,017
-675,408	-134,648	0,087	-0,008
-674,393	-89,594	-0,101	-0,022
-673,378	-200,000	-0,005	-0,056
-672,364	472,487	-0,038	0,064
-671,349	-14,153	-0,087	-0,042
-670,335	4,487	-0,111	-0,060
-669,320	-65,124	0,081	-0,024
-668,305	-63,872	0,113	0,034
-667,291	217,824	-0,074	-0,087
-666,276	-89,083	-0,089	0,019
-665,262	-200,000	-0,030	-0,177
-664,247	-153,350	-0,058	-0,003
-663,232	-80,465	-0,033	0,008
-662,218	800,000	-0,078	0,184
-661,203	150,864	-0,019	-0,020
-660,189	-200,000	0,037	-0,133
-659,174	-94,256	-0,015	-0,003
-658,159	-164,843	0,077	-0,002
-657,145	-200,000	0,002	-0,142
-656,130	-143,991	-0,097	0,007
-655,116	800,000	-0,017	-0,044
-654,101	75,127	0,087	0,068
-653,086	209,838	0,045	-0,053
-652,072	-90,895	0,057	0,012
-651,057	15,070	-0,105	-0,061
-650,043	140,188	-0,066	-0,064
-649,028	316,420	-0,077	0,108
-648,014	209,368	-0,057	0,067
-646,999	-55,522	-0,041	0,013
-645,984	800,000	0,055	-0,137
-644,970	-175,661	-0,199	-0,004
-643,955	-72,373	-0,091	0,025
-642,941	-200,000	0,008	-0,089
-641,926	1,985	0,075	-0,040
-640,911	299,318	-0,006	-0,008
-639,897	-200,000	-0,014	0,172
-638,882	800,000	0,039	-0,087
-637,868	-200,000	-0,000	-0,044
-636,853	800,000	0,052	-0,122
-635,838	-200,000	0,046	-0,180
-634,824	-36,987	-0,171	-0,067
-633,809	233,002	-0,041	0,049
-632,795	15,417	0,097	-0,056
-631,780	152,225	0,048	-0,048
-630,765	-200,000	-0,011	0,054
-629,751	23,491	-0,097	-0,059
-628,736	411,137	-0,045	-0,070
-627,722	238,405	0,055	-0,068
-626,707	3,870	-0,063	0,034
-625,692	-54,786	-0,073	0,024
-624,678	-200,000	-0,032	-0,124
-623,663	74,154	-0,054	0,042
-622,649	468,323	-0,141	-0,234
-621,634	133,762	-0,153	-0,147
-620,619	-30,954	-0,143	-0,059
-619,605	-200,000	0,008	-0,026
-618,590	707,200	-0,052	0,103
-617,576	-65,995	-0,108	-0,032
-616,561	-79,059	-0,033	-0,008
-615,546	800,000	0,024	-0,072
-614,532	120,689	0,070	-0,065
-613,517	117,266	0,034	0,031
-612,503	-134,210	-0,074	-0,007
-611,488	429,421	-0,007	0,011
-610,474	31,534	0,056	0,036
-609,459	316,174	-0,066	0,092
-608,444	290,353	-0,041	0,055
-607,430	666,641	0,036	0,068
-606,415	136,263	0,071	-0,069
-605,401	399,504	-0,029	0,045
-604,386	323,289	-0,046	-0,065
-603,371	-200,000	0,010	-0,074
-602,357	73,348	0,131	-0,101
-601,342	-64,647	-0,053	0,016
-600,328	-23,760	0,049	0,021
-599,313	95,587	0,115	-0,097
-598,298	298,695	-0,084	0,114
-597,284	-200,000	0,006	-0,104
-596,269	800,000	-0,015	-0,034
-595,255	-200,000	0,007	0,075
-594,240	65,493	-0,089	0,067
-593,225	93,545	-0,031	-0,026
-592,211	332,951	-0,081	-0,116
-591,196	-81,062	0,112	-0,027
-590,182	291,390	-0,029	-0,039
-589,167	800,000	0,061	0,132
-588,152	-48,320	-0,068	0,024
-587,138	-20,485	-0,093	-0,042
-586,123	-93,931	0,073	0,015
-585,109	-8,381	-0,124	-0,061
-584,094	-200,000	0,001	0,014
-583,079	-200,000	-0,003	-0,047
-582,065	410,789	-0,049	0,077
-581,050	-200,000	0,020	0,071
-580,036	-200,000	-0,029	0,116
-579,021	184,070	0,080	-0,088
-578,006	81,673	-0,140	-0,112
-576,992	751,559	-0,065	0,130
-575,977	119,492	0,020	0,018
-574,963	-4,262	-0,044	-0,022
-573,948	-118,190	0,114	0,015
-572,934	295,334	-0,070	0,094
-571,919	-138,965	-0,116	0,009
-570,904	345,476	-0,048	-0,069
-569,890	-135,220	-0,102	0,009
-568,875	-52,282	-0,081	-0,028
-567,861	376,133	0,051	-0,077
-566,846	-33,643	0,065	-0,026
-565,831	-200,000	0,012	0,097
-564,817	200,799	-0,079	-0,090
-563,802	-2,742	-0,045	-0,023
-562,788	-200,000	0,012	0,107
-561,773	14,247	-0,032	0,019
-560,758	374,989	0,055	-0,084
-559,744	-24,430	0,064	0,028
-558,729	800,000	0,035	-0,085
-557,715	800,000	-0,050	-0,152
-556,700	31,106	0,149	-0,094
-555,685	449,194	0,059	-0,097
-554,671	-200,000	0,015	0,059
-553,656	-14,589	0,100	0,047
-552,642	88,365	-0,124	0,102
-551,627	-200,000	-0,014	0,058
-550,612	367,939	0,071	0,106
-549,598	254,583	0,067	0,084
-548,583	-169,236	-0,045	-0,001
-547,569	-106,982	-0,051	-0,008
-546,554	-48,436	0,086	0,031
-545,539	-200,000	0,025	-0,123
-544,525	-115,661	0,028	0,004
-543,510	-200,000	0,030	-0,166
-542,496	55,680	-0,097	0,069
-541,481	-88,283	0,173	0,038
-540,466	571,327	0,053	0,096
-539,452	64,945	-0,042	0,031
-538,437	11,176	0,022	-0,012
-537,423	0,427	-0,077	0,040
-536,408	227,245	0,069	-0,082
-535,393	-200,000	0,008	0,068
-534,379	299,941	-0,056	-0,076
-533,364	-24,264	0,208	-0,091
-532,350	398,133	0,056	0,087
-531,335	-200,000	0,007	0,086
-530,321	-200,000	-0,022	-0,135
-529,306	366,398	-0,040	0,060
-528,291	217,153	-0,108	-0,127
-527,277	1,687	0,183	0,097
-526,262	283,227	0,042	0,056
-525,248	-10,714	0,101	0,049
-524,233	368,235	-0,059	-0,089
-523,218	800,000	0,042	-0,088
-522,204	16,245	0,100	0,058
-521,189	-200,000	-0,012	0,084
-520,175	194,154	-0,138	-0,155
-519,160	-122,312	0,103	-0,012
-518,145	800,000	0,082	0,171
-517,131	92,571	0,054	0,045
-516,116	17,456	0,012	-0,007
-515,102	-131,722	-0,037	0,004
-514,087	100,731	-0,088	-0,076
-513,072	405,623	-0,078	-0,122
-512,058	800,000	-0,041	-0,091
-511,043	800,000	-0,018	0,039
-510,029	-200,000	0,016	0,168
-509,014	800,000	0,037	0,101
-507,999	45,627	0,144	0,098
-506,985	154,810	-0,058	-0,059
-505,970	-200,000	0,004	0,186
-504,956	-69,437	-0,094	0,026
-503,941	800,000	-0,013	0,027
-502,926	89,901	0,133	0,109
-501,912	-200,000	0,011	0,155
-500,897	-61,899	0,065	0,020
-499,883	83,282	-0,019	-0,015
-498,868	94,579	-0,066	-0,055
-497,853	284,206	-0,088	-0,116
-496,839	-119,810	0,083	0,010
-495,824	-200,000	0,016	0,126
-494,810	161,184	0,064	-0,066
-493,795	-200,000	0,001	0,089
-492,781	-56,537	-0,060	-0,020
-491,766	6,902	0,032	-0,018
-490,751	-200,000	-0,008	0,051
-489,737	131,260	-0,122	-0,116
-488,722	-134,734	0,131	-0,012
-487,708	-200,000	0,012	-0,059
-486,693	32,627	-0,051	0,032
-485,678	-122,481	-0,064	-0,008
-484,664	800,000	-0,055	-0,173
-483,649	219,309	-0,085	0,100
-482,635	115,555	-0,081	0,073
-481,620	-67,443	0,101	0,029
-480,605	-200,000	-0,016	0,186
-479,591	-200,000	0,028	0,116
-478,576	-93,169	0,093	0,019
-477,562	-95,629	-0,026	-0,005
-476,547	-200,000	0,020	-0,125
-475,532	134,323	-0,046	-0,044
-474,518	-200,000	0,093	0,000
-473,503	-200,000	-0,008	0,124
-472,489	-180,458	0,131	-0,002
-471,474	-4,411	-0,081	-0,041
-470,459	800,000	0,012	-0,040
-469,445	105,724	0,111	-0,096
-468,430	-200,000	0,001	-0,086
-467,416	138,213	0,152	-0,147
-466,401	-105,422	0,074	0,012
-465,386	746,278	-0,030	-0,060
-464,372	-93,669	-0,070	0,014
-463,357	345,431	-0,056	0,082
-462,343	83,532	0,086	-0,069
-461,328	356,741	0,032	0,047
-460,313	-114,733	0,065	0,009
-459,299	120,297	-0,039	-0,036
-458,284	800,000	0,032	0,071
-457,270	-200,000	-0,011	0,042
-456,255	-35,557	0,021	0,008
-455,241	800,000	0,049	-0,147
-454,226	55,204	0,010	0,007
-453,211	0,477	-0,109	0,057
-452,197	434,654	-0,036	-0,058
-451,182	183,973	-0,130	0,142
-450,168	-126,214	-0,046	-0,005
-449,153	-136,210	0,070	-0,006
-448,138	-200,000	-0,013	0,050
-447,124	-200,000	0,015	-0,054
-446,109	364,332	0,010	0,015
-445,095	-176,085	0,068	0,001
-444,080	95,266	0,028	-0,023
-443,065	-200,000	-0,000	-0,047
-442,051	-69,404	-0,145	-0,041
-441,036	60,419	-0,070	0,051
-440,022	10,088	-0,116	-0,065
-439,007	345,574	-0,080	-0,116
-437,992	553,515	0,059	0,105
-436,978	146,505	-0,058	0,057
-435,963	-200,000	-0,000	-0,012
-434,949	800,000	0,011	-0,031
-433,934	-200,000	0,012	-0,071
-432,919	800,000	-0,031	0,085
-431,905	-200,000	-0,040	0,153
-430,890	-87,364	0,066	-0,015
-429,876	-129,291	0,065	0,007
-428,861	800,000	0,071	0,160
-427,846	-149,278	-0,056	-0,003
-426,832	154,149	0,062	-0,063
-425,817	800,000	-0,066	-0,142
-424,803	221,548	-0,075	0,089
-423,788	409,101	0,040	-0,062
-422,773	-192,908	0,052	-0,000
-421,759	800,000	0,020	-0,058
-420,744	34,748	-0,146	0,094
-419,730	115,098	0,202	-0,181
-418,715	-65,061	-0,160	0,047
-417,701	-21,981	-0,104	-0,046
-416,686	-85,401	0,085	0,019
-415,671	230,011	-0,029	-0,034
-414,657	-164,173	-0,081	0,003
-413,642	-131,700	-0,077	0,007
-412,628	-155,940	0,036	-0,002
-411,613	-200,000	-0,013	-0,145
-410,598	-200,000	-0,018	-0,090
-409,584	-200,000	-0,006	0,137
-408,569	-200,000	0,010	-0,178
-407,555	-101,538	0,101	0,018
-406,540	57,760	0,147	-0,106
-405,525	106,223	-0,063	-0,054
-404,511	-200,000	0,016	-0,131
-403,496	-40,173	-0,159	-0,061
-402,482	800,000	-0,041	-0,128
-401,467	388,569	0,035	-0,053
-400,452	-113,009	-0,058	-0,008
-399,438	-144,814	-0,015	0,001
-398,423	-9,757	-0,036	0,017
-397,409	-173,131	-0,073	0,002
-396,394	-138,675	0,020	0,002
-395,379	-200,000	-0,007	0,047
-394,365	-135,588	0,217	0,019
-393,350	-76,454	-0,020	0,005
-392,336	196,803	-0,053	-0,059
-391,321	218,628	0,045	-0,053
-390,306	-200,000	-0,002	-0,181
-389,292	800,000	-0,016	-0,041
-388,277	-200,000	0,024	0,091
-387,263	653,405	0,029	0,055
-386,248	563,861	0,040	-0,071
-385,233	-200,000	-0,026	0,181
-384,219	800,000	-0,044	0,114
-383,204	80,443	-0,028	-0,022
-382,190	-200,000	0,006	-0,056
-381,175	42,516	-0,101	-0,067
-380,160	-66,135	-0,059	0,017
-379,146	-200,000	-0,011	0,096
-378,131	-175,610	0,045	-0,001
-377,117	800,000	-0,014	-0,039
-376,102	78,103	-0,028	-0,022
-375,088	80,033	-0,090	-0,071
-374,073	-200,000	0,031	0,100
-373,058	-82,514	0,036	-0,009
-372,044	128,947	0,048	-0,045
-371,029	85,794	0,068	0,055
-370,015	307,559	0,044	-0,060
-369,000	800,000	-0,073	-0,158
-367,985	800,000	-0,012	0,029
-366,971	143,569	0,036	-0,036
-365,956	-9,950	0,210	-0,102
-364,942	386,067	0,062	0,093
-363,927	800,000	0,040	0,125
-362,912	-200,000	-0,007	-0,044
-361,898	-191,480	-0,092	-0,001
-360,883	441,353	-0,079	0,127
-359,869	138,568	-0,036	0,035
-358,854	482,303	-0,043	0,071
-357,839	7,240	0,095	-0,052
-356,825	-200,000	-0,000	0,069
-355,810	424,132	-0,018	0,028
-354,796	-200,000	-0,007	0,073
-353,781	244,988	-0,037	0,045
-352,766	204,718	0,078	0,089
-351,752	32,628	-0,078	-0,049
-350,737	76,357	0,056	-0,043
-349,723	16,968	-0,023	-0,013
-348,708	-161,576	-0,056	0,002
-347,693	800,000	0,027	0,062
-346,679	-110,526	-0,091	-0,014
-345,664	24,706	-0,056	-0,034
-344,650	107,024	0,055	-0,048
-343,635	-200,000	0,009	0,076
-342,620	-143,769	0,027	0,002
-341,606	188,874	-0,103	0,113
-340,591	800,000	0,024	-0,056
-339,577	-200,000	-0,022	-0,094
-338,562	800,000	0,044	-0,113
-337,548	-200,000	0,020	-0,083
-336,533	39,550	0,048	-0,032
-335,518	-200,000	0,013	0,043
-334,504	632,908	0,022	-0,040
-333,489	296,885	-0,029	0,038
-332,475	-200,000	-0,035	-0,120
-331,460	-106,277	-0,102	-0,017
-330,445	490,821	0,027	-0,046
-329,431	800,000	0,019	0,050
-328,416	-200,000	-0,004	-0,021
-327,402	-200,000	-0,005	-0,077
-326,387	-200,000	0,019	0,065
-325,372	207,792	-0,130	-0,149
-324,358	773,402	-0,022	-0,044
-323,343	-95,462	0,076	0,015
-322,329	-200,000	0,006	0,031
-321,314	527,781	0,087	0,151
-320,299	-144,208	0,140	-0,009
-319,285	630,314	0,075	0,139
-318,270	16,560	-0,076	0,044
-317,256	-200,000	0,010	-0,071
-316,241	-72,963	-0,074	0,020
-315,226	800,000	0,010	0,032
-314,212	142,367	0,080	0,077
-313,197	319,080	0,041	-0,057
-312,183	-200,000	0,008	-0,147
-311,168	-24,521	-0,019	0,008
-310,153	138,046	-0,038	0,037
-309,139	-200,000	-0,027	-0,200
-308,124	-139,688	-0,042	-0,003
-307,110	-20,677	-0,086	-0,038
-306,095	-200,000	-0,000	0,015
-305,080	-200,000	-0,018	0,092
-304,066	-116,411	0,105	-0,014
-303,051	-113,373	0,050	0,007
-302,037	-73,982	0,103	-0,027
-301,022	-130,579	0,019	-0,002
-300,008	-200,000	0,016	0,160
-298,993	-200,000	0,005	0,032
-297,978	-200,000	0,016	0,065
-296,964	677,778	0,008	0,016
-295,949	115,909	-0,087	0,078
-294,935	-149,614	0,093	0,005
-293,920	-200,000	0,002	0,081
-292,905	-200,000	-0,007	0,109
-291,891	510,040	0,048	0,082
-290,876	-200,000	0,003	0,068
-289,862	-200,000	-0,012	-0,097
-288,847	182,971	0,051	0,055
-287,832	565,662	-0,042	0,075
-286,818	44,630	-0,025	-0,017
-285,803	121,095	-0,008	-0,007
-284,789	-15,377	0,177	-0,083
-283,774	800,000	0,043	0,102
-282,759	-200,000	-0,004	-0,022
-281,745	-67,524	0,041	0,012
-280,730	259,556	-0,041	0,051
-279,716	800,000	0,019	-0,059
-278,701	23,857	0,128	0,077
-277,686	90,312	0,068	0,056
-276,672	800,000	-0,048	0,140
-275,657	-39,687	-0,116	0,044
-274,643	-79,460	0,041	0,010
-273,628	-27,063	0,081	0,034
-272,613	-200,000	0,034	0,157
-271,599	-36,256	-0,038	-0,015
-270,584	75,148	0,065	-0,050
-269,570	-116,815	0,137	0,018
-268,555	105,348	-0,033	-0,029
-267,540	37,713	-0,117	-0,076
-266,526	172,257	-0,017	-0,018
-265,511	-81,563	-0,100	0,024
-264,497	-34,414	0,059	-0,024
-263,482	-128,644	-0,058	0,006
-262,467	-22,969	0,142	0,062
-261,453	219,780	-0,047	0,055
-260,438	-200,000	-0,007	0,088
-259,424	800,000	0,038	-0,103
-258,409	800,000	-0,016	-0,044
-257,395	-200,000	0,011	0,180
-256,380	-200,000	0,040	0,151
-255,365	-119,232	-0,117	0,015
-254,351	200,689	0,080	-0,090
-253,336	-106,417	-0,129	-0,021
-252,322	95,721	-0,079	0,066
-251,307	361,873	-0,100	0,147
-250,292	167,801	0,083	0,086
-249,278	188,516	0,059	0,065
-248,263	800,000	0,024	0,073
-247,249	730,798	-0,054	-0,105
-246,234	35,053	-0,067	-0,042
-245,219	-12,149	-0,109	-0,052
-244,205	-51,065	0,171	0,058
-243,190	-200,000	0,008	0,045
-242,176	-76,982	0,098	0,025
-241,161	693,293	0,053	0,102
-240,146	38,912	-0,072	-0,047
-239,132	89,653	-0,027	-0,022
-238,117	-117,310	0,074	-0,010
-237,103	-200,000	0,002	0,058
-236,088	-96,021	-0,163	-0,031
-235,073	800,000	-0,047	0,116
-234,059	-200,000	-0,019	0,102
-233,044	-200,000	-0,031	0,102
-232,030	62,397	0,074	-0,054
-231,015	800,000	0,006	-0,019
-230,000	68,416	-0,079	-0,059
-228,986	800,000	0,062	-0,132
-227,971	154,984	0,068	-0,069
-226,957	11,708	0,145	-0,081
-225,942	-81,222	0,101	0,024
-224,927	307,188	0,057	0,078
-223,913	-200,000	-0,019	-0,060
-222,898	-47,725	0,071	0,025
-221,884	-200,000	-0,000	-0,045
-220,869	-137,009	0,104	0,009
-219,855	-200,000	0,026	-0,173
-218,840	-200,000	-0,004	-0,036
-217,825	-200,000	-0,010	0,112
-216,811	-24,402	-0,055	0,024
-215,796	-6,885	-0,090	0,045
-214,782	55,651	-0,029	0,021
-213,767	173,313	-0,058	-0,061
-212,752	307,040	-0,109	0,149
-211,738	138,713	0,171	0,164
-210,723	96,293	-0,041	0,034
-209,709	-114,337	-0,090	-0,012
-208,694	800,000	-0,063	-0,142
-207,679	167,887	-0,034	0,035
-206,665	-200,000	-0,005	0,066
-205,650	-50,199	-0,039	0,013
-204,636	-200,000	-0,011	0,065
-203,621	255,172	-0,023	0,028
-202,606	-21,338	-0,016	0,007
-201,592	62,231	0,078	-0,057
-200,577	-140,271	0,108	0,008
-199,563	800,000	-0,015	-0,031
-198,548	57,798	0,094	-0,067
-197,533	105,181	-0,047	0,041
-196,519	346,695	0,042	0,060
-195,504	-200,000	-0,008	0,081
-194,490	107,551	-0,045	-0,039
-193,475	800,000	-0,050	-0,127
-192,460	14,929	0,083	-0,047
-191,446	-63,952	0,083	-0,025
-190,431	181,820	0,105	0,113
-189,417	-163,070	0,097	0,003
-188,402	296,471	0,030	-0,041
-187,387	112,123	-0,084	-0,074
-186,373	-200,000	0,044	-0,155
-185,358	-200,000	0,003	-0,141
-184,344	-25,963	-0,033	-0,014
-183,329	245,594	-0,075	0,092
-182,315	-200,000	0,015	0,121
-181,300	-200,000	0,010	-0,047
-180,285	31,911	-0,086	-0,054
-179,271	-200,000	-0,021	-0,120
-178,256	-200,000	-0,006	-0,036
-177,242	80,787	-0,034	0,026
-176,227	-200,000	0,030	0,097
-175,212	-200,000	0,005	0,023
-174,198	200,798	0,098	0,109
-173,183	-200,000	0,001	-0,083
-172,169	455,220	-0,066	-0,107
-171,154	800,000	0,071	0,145
-170,139	-200,000	0,000	-0,008
-169,125	196,353	0,078	0,086
-168,110	-81,505	0,095	0,022
-167,096	100,650	-0,086	0,073
-166,081	-132,952	0,112	-0,010
-165,066	-25,772	0,089	-0,038
-164,052	-43,832	-0,063	0,023
-163,037	115,022	0,052	-0,046
-162,023	32,252	0,058	0,036
-161,008	-11,019	0,036	-0,017
-159,993	-48,559	-0,068	0,024
-158,979	-200,000	0,003	-0,050
-157,964	800,000	0,030	-0,086
-156,950	-98,236	-0,128	0,024
-155,935	168,668	-0,059	0,061
-154,920	76,112	-0,059	-0,046
-153,906	-114,732	0,105	0,014
-152,891	6,699	-0,101	-0,055
-151,877	187,067	0,040	-0,043
-150,862	210,473	-0,073	-0,083
-149,847	800,000	0,018	0,038
-148,833	-200,000	-0,018	-0,133
-147,818	-4,065	-0,065	-0,033
-146,804	77,407	0,095	-0,074
-145,789	-200,000	-0,007	0,103
-144,775	-149,020	-0,071	0,004
-143,760	18,453	-0,151	-0,087
-142,745	-157,381	-0,118	0,005
-141,731	-30,524	-0,066	0,027
-140,716	-125,872	0,108	-0,012
-139,702	441,438	0,046	0,073
-138,687	770,738	0,026	-0,052
-137,672	89,100	0,042	0,034
-136,658	59,322	0,120	-0,086
-135,643	800,000	-0,038	-0,077
-134,629	328,631	0,046	-0,064
-133,614	346,111	-0,019	-0,028
-132,599	424,845	0,023	0,036
-131,585	-12,566	0,088	0,041
-130,570	-12,913	-0,117	0,055
-129,556	-100,119	0,083	-0,015
-128,541	41,187	0,090	0,059
-127,526	-200,000	-0,011	-0,039
-126,512	723,526	-0,030	0,058
-125,497	800,000	0,039	0,103
-124,483	-200,000	0,017	-0,110
-123,468	-116,314	0,036	0,005
-122,453	122,270	-0,072	0,065
-121,439	56,554	0,056	0,040
-120,424	-28,958	-0,154	0,064
-119,410	800,000	0,018	-0,039
-118,395	-7,090	0,141	0,069
-117,380	244,814	0,050	-0,061
-116,366	800,000	-0,023	-0,061
-115,351	388,780	-0,077	0,116
-114,337	800,000	-0,048	-0,141
-113,322	501,813	0,049	-0,082
-112,307	527,799	0,058	0,100
-111,293	46,960	0,091	0,061
-110,278	800,000	-0,001	0,003
-109,264	-15,315	0,048	-0,022
-108,249	-148,059	0,048	-0,003
-107,234	293,278	-0,049	0,065
-106,220	657,070	0,109	-0,204
-105,205	800,000	0,004	-0,011
-104,191	800,000	0,041	-0,085
-103,176	800,000	-0,027	0,081
-102,162	49,745	-0,049	-0,033
-101,147	-56,527	-0,046	-0,015
-100,132	-8,517	-0,099	-0,048
-99,118	0,815	-0,083	-0,043
-98,103	800,000	-0,003	-0,006
-97,089	-200,000	0,021	0,162
-96,074	-149,491	0,134	-0,008
-95,059	-200,000	-0,014	-0,076
-94,045	-200,000	0,030	0,111
-93,030	-200,000	-0,012	0,072
-92,016	-200,000	0,005	0,065
-91,001	-123,708	0,049	-0,006
-89,986	148,032	-0,007	0,007
-88,972	-111,233	0,038	-0,006
-87,957	-128,378	0,066	-0,007
-86,943	778,193	0,045	-0,090
-85,928	488,697	-0,047	-0,079
-84,913	-67,983	-0,060	0,017
-83,899	99,066	0,082	-0,069
-82,884	25,816	0,080	-0,048
-81,870	-200,000	-0,032	-0,109
-80,855	-68,474	0,064	-0,018
-79,840	141,567	-0,094	-0,090
-78,826	478,758	0,083	-0,137
-77,811	-1,738	-0,016	0,008
-76,797	-5,091	0,133	0,066
-75,782	-60,333	-0,107	0,033
-74,767	-19,863	0,064	-0,028
-73,753	509,531	0,057	0,096
-72,738	-9,098	-0,008	0,004
-71,724	-26,524	-0,037	-0,016
-70,709	172,412	-0,016	0,017
-69,694	295,158	-0,064	-0,084
-68,680	589,161	0,089	-0,159
-67,665	109,908	0,029	0,025
-66,651	800,000	0,047	0,140
-65,636	800,000	0,022	-0,055
-64,622	-45,790	-0,102	0,036
-63,607	-59,769	-0,091	-0,028
-62,592	55,948	0,098	-0,069
-61,578	-95,600	-0,058	-0,011
-60,563	-200,000	-0,017	-0,070
-59,549	-30,496	0,067	0,027
-58,534	-56,381	-1,506	-0,482
-57,519	800,000	-0,636	-1,414
-56,505	-200,000	-0,876	-4,453
-55,490	-121,475	0,542	0,065
-54,476	800,000	5,047	11,801
-53,461	-200,000	15,194	271,179
-52,446	-200,000	696,405	2255,901
-51,432	589,645	1616,122	2898,310
-50,417	121,030	1624,194	1464,097
-49,403	82,675	1281,360	1007,632
-48,388	37,355	1022,643	655,255
-47,373	22,224	983,629	580,409
-46,359	21,162	972,561	570,366
-45,344	19,650	968,341	562,916
-44,330	19,724	967,013	562,363
-43,315	19,507	965,243	560,602
-42,300	19,465	964,233	559,858
-41,286	19,480	963,285	559,333
-40,271	19,436	962,538	558,733
-39,257	19,430	961,625	558,162
-38,242	19,464	960,629	557,673
-37,227	19,369	960,110	557,042
-36,213	19,373	959,268	556,542
-35,198	19,372	958,244	555,923
-34,184	19,469	957,524	555,797
-33,169	19,425	956,449	555,009
-32,154	19,448	955,609	554,576
-31,140	19,477	954,604	554,063
-30,125	19,456	953,928	553,583
-29,111	19,488	953,016	553,132
-28,096	19,392	952,573	552,543
-27,082	19,478	951,908	552,412
-26,067	19,409	951,140	551,723
-25,052	19,428	950,422	551,345
-24,038	19,446	949,670	550,947
-23,023	19,391	949,092	550,413
-22,009	19,446	948,243	550,075
-20,994	19,471	947,713	549,827
-19,979	19,448	946,984	549,308
-18,965	19,424	946,414	548,878
-17,950	19,457	945,835	548,626
-16,936	19,352	945,309	547,963
-15,921	19,369	944,633	547,605
-14,906	19,283	943,885	546,872
-13,892	19,263	943,209	546,396
-12,877	19,285	942,615	546,103
-11,863	19,320	941,797	545,717
-10,848	19,336	941,365	545,495
-9,833	19,410	941,084	545,546
-8,819	19,404	940,373	545,095
-7,804	19,338	939,586	544,407
-6,790	19,276	939,080	543,896
-5,775	19,351	938,538	543,798
-4,760	19,274	937,762	543,082
-3,746	19,338	937,014	542,831
-2,731	19,170	936,649	542,066
-1,717	19,158	935,755	541,489
-0,702	19,163	935,163	541,141
0,313	18,990	934,605	541,087
1,327	21,382	932,388	547,298
2,342	28,842	806,394	493,536
3,356	23,062	506,586	300,178
4,371	-0,965	374,094	191,011
5,386	-3,736	357,431	179,077
6,400	-4,717	351,595	174,949
7,415	-5,290	349,202	173,052
8,429	-5,312	347,706	172,270
9,444	-5,250	346,865	171,911
10,459	-5,337	346,216	171,471
11,473	-5,472	345,683	171,031
12,488	-5,268	344,909	170,875
13,502	-5,427	344,499	170,468
14,517	-5,355	343,924	170,253
15,531	-5,288	343,397	170,056
16,546	-5,351	343,158	169,849
17,561	-5,377	342,622	169,537
18,575	-5,144	342,075	169,527
19,590	-5,314	341,705	169,128
20,604	-5,254	341,449	169,056
21,619	-5,400	341,123	168,709
22,634	-5,294	340,632	168,575
23,648	-5,385	340,364	168,321
24,663	-5,307	340,101	168,267
25,677	-5,237	339,820	168,195
26,692	-5,332	339,580	167,950
27,707	-5,240	339,207	167,858
28,721	-5,201	338,812	167,693
29,736	-5,408	338,549	167,307
30,750	-5,326	338,239	167,234
31,765	-5,198	337,761	167,131
32,780	-5,326	337,783	166,979
33,794	-5,376	337,569	166,800
34,809	-5,292	337,167	166,684
35,823	-5,236	336,742	166,523
36,838	-5,207	336,581	166,463
37,853	-5,194	336,156	166,252
38,867	-5,315	335,949	165,996
39,882	-5,301	335,840	165,943
40,896	-5,218	335,500	165,857
41,911	-5,217	335,055	165,623
42,926	-5,315	334,974	165,455
43,940	-5,100	334,619	165,512
44,955	-5,324	334,423	165,144
45,969	-5,390	334,190	164,937
46,984	-5,168	333,850	165,010
47,999	-5,253	333,784	164,865
49,013	-5,223	333,462	164,726
50,028	-5,238	333,042	164,486
51,042	-5,290	332,980	164,382
52,057	-5,254	332,706	164,273
53,071	-5,274	332,359	164,063
54,086	-5,320	332,101	163,869
55,101	-5,320	331,969	163,790
56,115	-5,346	331,673	163,600
57,130	-5,370	331,432	163,438
58,144	-5,337	331,078	163,287
59,159	-5,215	330,683	163,216
60,174	-5,333	330,507	162,980
61,188	-5,308	330,180	162,833
62,203	-5,224	329,925	162,788
63,217	-5,211	329,751	162,703
64,232	-5,297	329,445	162,440
65,247	-5,378	329,172	162,199
66,261	-5,371	328,979	162,097
67,276	-5,265	328,754	162,092
68,290	-5,384	328,558	161,846
69,305	-5,277	328,173	161,763
70,320	-5,360	328,074	161,606
71,334	-5,326	327,717	161,454
72,349	-5,164	327,330	161,431
73,363	-5,278	327,067	161,159
74,378	-5,425	326,866	160,881
75,393	-5,163	326,560	161,010
76,407	-5,147	326,335	160,902
77,422	-5,160	326,110	160,762
78,436	-5,279	325,909	160,516
79,451	-5,244	325,592	160,384
80,466	-5,298	325,384	160,207
81,480	-5,177	325,030	160,154
82,495	-5,132	324,816	160,084
83,509	-5,110	324,581	159,978
84,524	-5,289	324,467	159,709
85,539	-5,170	324,294	159,742
86,553	-5,192	323,868	159,494
87,568	-5,134	323,723	159,472
88,582	-5,303	323,452	159,137
89,597	-5,288	323,146	158,988
90,611	-5,257	322,976	158,925
91,626	-5,234	322,867	158,883
92,641	-5,242	322,485	158,672
93,655	-5,294	322,250	158,485
94,670	-5,295	322,067	158,380
95,684	-5,279	321,740	158,222
96,699	-5,122	321,407	158,217
97,714	-5,245	321,285	158,008
98,728	-5,337	321,098	157,801
99,743	-5,124	320,818	157,883
100,757	-5,253	320,683	157,661
101,772	-5,227	320,381	157,527
102,787	-5,215	320,021	157,349
103,801	-5,323	320,034	157,223
104,816	-5,101	319,750	157,312
105,830	-5,240	319,540	157,043
106,845	-5,161	319,248	156,972
107,860	-5,119	318,936	156,850
108,874	-5,245	318,604	156,535
109,889	-5,196	318,515	156,531
110,903	-5,257	318,228	156,310
111,918	-5,282	318,126	156,219
112,933	-5,351	317,900	156,018
113,947	-5,160	317,783	156,154
114,962	-5,241	317,408	155,869
115,976	-5,206	317,104	155,744
116,991	-5,164	316,985	155,716
118,006	-5,263	316,739	155,475
119,020	-5,150	316,605	155,518
120,035	-5,225	316,329	155,287
121,049	-5,064	316,184	155,375
122,064	-5,175	315,908	155,106
123,079	-5,261	315,698	154,897
124,093	-5,185	315,424	154,830
125,108	-5,170	315,164	154,705
126,122	-5,057	314,927	154,697
127,137	-5,337	314,927	154,382
128,151	-5,112	314,585	154,442
129,166	-5,200	314,292	154,190
130,181	-5,300	314,164	154,007
131,195	-5,059	313,778	154,061
132,210	-5,295	313,642	153,728
133,224	-5,240	313,370	153,640
134,239	-5,143	313,007	153,552
135,254	-5,187	312,952	153,464
136,268	-5,228	312,658	153,262
137,283	-5,142	312,449	153,239
138,297	-5,230	312,246	153,031
139,312	-5,310	311,992	152,808
140,327	-5,229	311,867	152,819
141,341	-5,054	311,408	152,766
142,356	-5,183	311,229	152,528
143,370	-5,267	311,174	152,399
144,385	-5,156	310,965	152,400
145,400	-5,159	310,633	152,220
146,414	-5,141	310,424	152,123
147,429	-5,110	310,083	151,976
148,443	-5,177	309,958	151,831
149,458	-5,130	309,812	151,795
150,473	-5,137	309,490	151,616
151,487	-5,180	309,231	151,431
152,502	-5,137	309,122	151,409
153,516	-5,238	308,926	151,193
154,531	-5,147	308,747	151,188
155,546	-5,206	308,400	150,942
156,560	-5,155	308,143	150,856
157,575	-5,193	308,040	150,752
158,589	-5,360	307,846	150,469
159,604	-5,198	307,620	150,516
160,619	-5,036	307,385	150,556
161,633	-5,058	307,145	150,402
162,648	-5,248	307,141	150,188
163,662	-5,237	306,814	150,027
164,677	-5,093	306,522	150,021
165,692	-5,040	306,451	150,027
166,706	-5,182	306,201	149,744
167,721	-5,177	306,110	149,691
168,735	-5,082	305,733	149,592
169,750	-5,038	305,621	149,570
170,764	-5,172	305,453	149,336
171,779	-5,050	305,214	149,331
172,794	-5,108	304,995	149,151
173,808	-5,159	304,883	149,031
174,823	-5,123	304,487	148,861
175,837	-5,120	304,389	148,802
176,852	-5,111	304,155	148,684
177,867	-5,151	304,011	148,559
178,881	-4,928	303,675	148,612
179,896	-4,968	303,526	148,484
180,910	-5,167	303,313	148,161
181,925	-4,920	303,180	148,338
182,940	-5,170	303,059	148,008
183,954	-5,086	302,842	147,976
184,969	-5,087	302,552	147,820
185,983	-5,056	302,452	147,789
186,998	-5,144	302,128	147,528
188,013	-5,110	302,009	147,491
189,027	-5,100	301,723	147,348
190,042	-5,070	301,524	147,269
191,056	-5,144	301,280	147,061
192,071	-5,116	301,080	146,979
193,086	-5,146	300,849	146,823
194,100	-5,140	300,722	146,753
195,115	-5,071	300,457	146,681
196,129	-5,147	300,206	146,468
197,144	-5,059	299,925	146,408
198,159	-5,110	299,740	146,253
199,173	-5,038	299,455	146,173
200,188	-5,133	299,358	146,017
201,202	-5,081	299,255	146,006
202,217	-5,150	298,895	145,747
203,232	-5,119	298,771	145,705
204,246	-5,103	298,599	145,625
205,261	-5,081	298,328	145,502
206,275	-5,068	298,182	145,431
207,290	-5,047	298,028	145,364
208,304	-4,993	297,791	145,290
209,319	-4,950	297,578	145,216
210,334	-4,989	297,334	145,045
211,348	-4,978	297,152	144,954
212,363	-4,981	297,054	144,891
213,377	-5,067	296,755	144,645
214,392	-5,196	296,621	144,438
215,407	-4,950	296,266	144,499
216,421	-5,094	296,027	144,225
217,436	-5,025	295,900	144,219
218,450	-5,224	295,738	143,929
219,465	-5,088	295,408	143,891
220,480	-5,135	295,381	143,818
221,494	-5,042	295,223	143,821
222,509	-5,014	295,028	143,741
223,523	-5,017	294,702	143,566
224,538	-5,138	294,689	143,427
225,553	-4,944	294,240	143,389
226,567	-5,084	294,251	143,242
227,582	-5,038	294,085	143,193
228,596	-4,945	293,821	143,145
229,611	-5,136	293,763	142,914
230,626	-5,112	293,479	142,787
231,640	-5,145	293,237	142,624
232,655	-5,133	293,087	142,551
233,669	-5,095	292,779	142,426
234,684	-5,058	292,605	142,364
235,699	-5,101	292,498	142,258
236,713	-5,008	292,427	142,302
237,728	-4,995	292,148	142,166
238,742	-5,005	291,906	142,027
239,757	-5,240	291,597	141,631
240,772	-5,064	291,544	141,766
241,786	-5,145	291,222	141,518
242,801	-5,069	291,032	141,487
243,815	-4,960	290,937	141,535
244,830	-4,985	290,748	141,406
245,844	-5,030	290,554	141,256
246,859	-5,065	290,353	141,110
247,874	-5,023	290,087	141,010
248,888	-4,932	289,884	140,988
249,903	-5,010	289,610	140,765
250,917	-5,048	289,534	140,680
251,932	-5,096	289,316	140,514
252,947	-5,305	288,993	140,141
253,961	-5,429	288,742	139,886
254,976	-5,439	288,530	139,761
255,990	-5,236	288,649	140,004
257,005	-3,635	289,046	141,744
258,020	-1,472	289,858	144,241
259,034	-0,226	290,152	145,590
260,049	0,321	290,039	146,054
261,063	0,573	290,098	146,316
262,078	1,086	289,912	146,710
263,093	1,312	289,858	146,889
264,107	1,594	289,908	147,175
265,122	1,665	289,778	147,165
266,136	1,668	289,691	147,111
267,151	1,940	289,450	147,240
268,166	1,775	289,268	146,974
269,180	1,878	289,068	146,959
270,195	1,849	288,956	146,861
271,209	1,757	288,684	146,620
272,224	1,867	288,517	146,629
273,239	1,875	288,210	146,468
274,253	1,785	288,153	146,338
275,268	1,714	287,856	146,106
276,282	1,642	287,710	145,950
277,297	1,677	287,561	145,895
278,312	1,818	287,378	145,925
279,326	1,749	287,134	145,721
280,341	1,810	287,052	145,726
281,355	1,742	286,770	145,504
282,370	1,771	286,524	145,394
283,384	1,741	286,439	145,310
284,399	1,701	286,071	145,071
285,414	1,576	285,941	144,873
286,428	1,582	285,839	144,813
287,443	1,463	285,577	144,554
288,457	1,625	285,306	144,559
289,472	1,647	284,994	144,410
290,487	1,595	285,048	144,374
291,501	1,499	284,906	144,197
292,516	1,521	284,779	144,141
293,530	1,628	284,476	144,077
294,545	1,631	284,384	144,020
295,560	1,579	284,073	143,800
296,574	1,427	283,872	143,541
297,589	1,500	283,769	143,546
298,603	1,525	283,514	143,428
299,618	1,379	283,413	143,226
300,633	1,702	283,077	143,349
301,647	1,550	283,128	143,217
302,662	1,638	282,816	143,130
303,676	1,746	282,645	143,133
304,691	1,763	282,548	143,088
305,706	1,842	282,260	143,004
306,720	1,665	282,193	142,790
307,735	1,769	282,019	142,787
308,749	1,795	281,774	142,675
309,764	1,639	281,633	142,444
310,779	1,819	281,155	142,358
311,793	1,677	281,182	142,226
312,808	1,572	281,032	142,039
313,822	1,692	280,866	142,055
314,837	1,685	280,635	141,919
315,852	1,669	280,471	141,808
316,866	1,799	280,259	141,810
317,881	1,841	280,043	141,728
318,895	1,667	279,845	141,452
319,910	1,576	279,813	141,338
320,925	1,749	279,488	141,323
321,939	1,737	279,376	141,242
322,954	1,624	279,362	141,117
323,968	1,863	279,062	141,176
324,983	1,866	278,846	141,056
325,997	1,777	278,778	140,927
327,012	1,845	278,357	140,765
328,027	1,645	278,361	140,569
329,041	1,772	278,236	140,611
330,056	1,707	277,987	140,412
331,070	1,900	277,787	140,477
332,085	1,811	277,668	140,323
333,100	1,844	277,346	140,178
334,114	1,884	277,185	140,121
335,129	1,919	276,978	140,036
336,143	1,803	276,940	139,897
337,158	1,778	276,702	139,741
338,173	1,825	276,644	139,743
339,187	1,792	276,499	139,627
340,202	1,954	276,268	139,647
341,216	1,961	276,075	139,544
342,231	1,978	275,770	139,392
343,246	1,819	275,699	139,198
344,260	1,918	275,520	139,186
345,275	1,815	275,412	139,024
346,289	1,820	275,262	138,941
347,304	1,905	274,992	138,870
348,319	1,993	274,821	138,852
349,333	2,054	274,560	138,763
350,348	1,782	274,500	138,472
351,362	1,790	274,286	138,360
352,377	1,956	274,158	138,434
353,392	1,874	273,871	138,202
354,406	1,836	273,779	138,108
355,421	190,855	1349,675	1426,173
356,435	154,089	1480,821	1426,263
