DTS Sentinel unit serial number:	SN410029Multiplexer serial number:	ORYXHardware model number:	OX2-SRSoftware version number:	ORYX F/W v4,00 Oryx Data Collector v3.7.2.0data status	okinstallation	B4 Nyhavnadifferential loss correction	single-endedforward channel	channel 2reverse channel	N/Adate	2023/12/15time	20:45:13forward acquisition time	300,00reverse acquisition time	0,00gamma	499,1914k internal	0,3134k external	0,3134temperature offset calibration	1,0000default loss term (dB/km)	0,3820temperature slope calibration	1,0000multiplexer offset coefficient	1,0000multiplexer slope coefficient	1,0000fibre end	0,00T internal ref (°C)	20,71T ext. ref 1 (°C)	6,11T ext. ref 2 (°C)	6,26length (m)	temperature (°C)	Stokes	anti-Stokes-744,400	124,951	-0,039	0,036
-743,385	59,535	-0,211	0,154
-742,371	250,306	-0,088	0,112
-741,356	26,886	-0,114	0,071
-740,342	800,000	0,018	0,049
-739,327	27,506	-0,320	0,200
-738,312	-30,176	0,121	-0,051
-737,298	-134,058	-0,256	-0,023
-736,283	179,209	0,046	-0,050
-735,269	-135,013	-0,169	0,015
-734,254	-118,217	0,054	-0,007
-733,239	-98,301	-0,452	-0,085
-732,225	205,462	0,093	0,108
-731,210	62,151	-0,021	-0,015
-730,196	-200,000	0,008	0,041
-729,181	11,557	-0,105	-0,059
-728,167	-200,000	-0,020	-0,075
-727,152	13,930	-0,146	-0,084
-726,137	33,767	-0,084	-0,054
-725,123	-200,000	0,003	0,041
-724,108	-13,483	-0,100	-0,048
-723,094	-200,000	0,017	-0,062
-722,079	404,534	-0,110	-0,173
-721,064	352,510	0,016	0,023
-720,050	-200,000	0,022	0,000
-719,035	800,000	0,025	0,055
-718,021	-0,916	-0,083	-0,044
-717,006	401,254	-0,046	-0,073
-715,991	800,000	-0,076	-0,218
-714,977	0,230	-0,065	-0,034
-713,962	-200,000	0,002	0,084
-712,948	800,000	-0,039	0,108
-711,933	-125,177	0,104	0,012
-710,918	488,081	-0,022	-0,038
-709,904	800,000	0,029	0,084
-708,889	-200,000	-0,034	-0,154
-707,875	-104,808	0,085	-0,014
-706,860	422,306	-0,074	0,118
-705,845	-200,000	0,033	0,161
-704,831	255,370	0,087	0,110
-703,816	-37,601	0,089	-0,035
-702,802	-200,000	-0,013	-0,073
-701,787	266,334	-0,008	0,011
-700,772	27,171	-0,092	-0,057
-699,758	-200,000	-0,013	-0,093
-698,743	-5,798	0,068	0,035
-697,729	500,920	0,040	-0,068
-696,714	-200,000	-0,017	0,172
-695,699	588,474	0,056	-0,104
-694,685	-22,414	0,064	-0,028
-693,670	19,395	0,097	-0,058
-692,656	40,395	0,039	-0,026
-691,641	596,232	0,016	-0,030
-690,627	800,000	-0,056	0,140
-689,612	-200,000	-0,001	-0,080
-688,597	800,000	0,036	-0,087
-687,583	-33,502	-0,152	0,062
-686,568	-18,441	-0,102	-0,047
-685,554	465,629	0,092	-0,153
-684,539	-68,364	0,141	-0,040
-683,524	-200,000	-0,014	0,102
-682,510	224,417	0,013	0,015
-681,495	800,000	-0,069	-0,148
-680,481	155,905	0,028	-0,028
-679,466	-200,000	0,028	-0,117
-678,451	800,000	0,018	-0,054
-677,437	9,595	-0,190	-0,107
-676,422	-185,314	-0,243	-0,003
-675,408	-69,470	-0,121	0,034
-674,393	-129,622	0,020	-0,002
-673,378	165,890	-0,026	0,028
-672,364	580,660	-0,081	-0,147
-671,349	250,191	0,021	0,026
-670,335	13,686	0,068	0,039
-669,320	-142,291	0,184	-0,013
-668,305	89,663	0,024	-0,020
-667,291	0,307	0,122	-0,064
-666,276	195,878	-0,060	0,068
-665,262	-103,755	-0,126	0,022
-664,247	-14,355	0,027	0,013
-663,232	99,671	0,012	-0,010
-662,218	-200,000	-0,027	0,100
-661,203	-106,254	0,029	-0,005
-660,189	74,079	0,120	0,093
-659,174	-200,000	0,004	-0,141
-658,159	800,000	0,026	-0,077
-657,145	-35,864	-0,060	0,024
-656,130	800,000	-0,035	-0,096
-655,116	-68,965	-0,063	0,018
-654,101	-94,414	-0,208	-0,042
-653,086	-152,682	-0,077	-0,004
-652,072	112,440	-0,088	-0,079
-651,057	-49,341	0,074	-0,026
-650,043	-200,000	0,037	0,171
-649,028	-44,936	0,061	0,022
-648,014	-124,427	0,093	0,011
-646,999	-6,197	-0,052	-0,026
-645,984	-200,000	-0,000	-0,074
-644,970	-200,000	-0,025	-0,097
-643,955	181,445	0,014	-0,015
-642,941	115,156	0,025	0,023
-641,926	800,000	-0,006	-0,013
-640,911	148,832	0,150	-0,150
-639,897	51,110	0,134	0,094
-638,882	185,776	-0,065	0,072
-637,868	-21,487	-0,138	0,062
-636,853	800,000	-0,055	0,140
-635,838	-123,441	-0,103	0,012
-634,824	-200,000	0,012	0,044
-633,809	-200,000	-0,034	-0,115
-632,795	428,340	-0,074	-0,118
-631,780	-0,821	0,053	-0,028
-630,765	-200,000	-0,006	0,045
-629,751	-200,000	-0,022	-0,076
-628,736	800,000	0,060	-0,173
-627,722	800,000	0,018	0,040
-626,707	561,065	0,048	-0,087
-625,692	-200,000	-0,001	0,049
-624,678	-200,000	-0,007	-0,040
-623,663	50,097	-0,043	0,030
-622,649	-67,627	-0,097	-0,028
-621,634	197,785	-0,031	-0,035
-620,619	496,187	-0,050	-0,085
-619,605	27,773	0,092	-0,057
-618,590	-60,217	0,146	0,046
-617,576	255,286	-0,023	-0,029
-616,561	-200,000	-0,006	0,074
-615,546	59,123	-0,090	-0,066
-614,532	800,000	-0,045	-0,124
-613,517	102,781	-0,103	0,089
-612,503	-71,496	0,042	-0,012
-611,488	73,665	0,061	0,047
-610,474	-136,694	0,122	0,010
-609,459	134,858	-0,045	0,043
-608,444	-79,412	-0,061	0,015
-607,430	343,009	-0,056	0,081
-606,415	414,698	-0,053	0,084
-605,401	800,000	-0,030	0,066
-604,386	429,569	0,018	-0,030
-603,371	-200,000	-0,006	0,066
-602,357	-21,143	0,068	-0,031
-601,342	800,000	-0,036	-0,077
-600,328	-81,658	-0,064	0,015
-599,313	427,461	0,052	-0,083
-598,298	207,908	0,025	0,028
-597,284	332,735	-0,057	0,081
-596,269	12,015	0,056	-0,032
-595,255	-200,000	-0,002	-0,033
-594,240	-11,548	-0,098	-0,047
-593,225	800,000	0,053	-0,113
-592,211	-180,086	-0,129	0,002
-591,196	-200,000	-0,002	0,027
-590,182	50,522	-0,081	0,057
-589,167	615,398	-0,025	0,046
-588,152	-3,587	-0,077	-0,039
-587,138	-200,000	0,028	-0,143
-586,123	280,828	-0,039	-0,051
-585,109	118,117	0,047	0,043
-584,094	800,000	-0,050	-0,129
-583,079	42,559	-0,073	-0,049
-582,065	39,247	0,025	-0,017
-581,050	-83,168	-0,159	0,037
-580,036	263,922	-0,036	0,047
-579,021	800,000	0,015	-0,048
-578,006	-166,770	0,220	-0,007
-576,992	-36,998	0,158	-0,062
-575,977	32,978	-0,073	-0,046
-574,963	700,858	0,039	0,077
-573,948	10,607	-0,054	-0,031
-572,934	258,763	-0,050	-0,064
-571,919	298,487	-0,053	-0,072
-570,904	-200,000	-0,004	-0,022
-569,890	27,583	0,095	-0,059
-568,875	-200,000	0,025	-0,083
-567,861	800,000	-0,031	0,089
-566,846	800,000	-0,016	0,033
-565,831	172,063	-0,052	-0,055
-564,817	800,000	-0,060	0,145
-563,802	60,310	-0,028	-0,021
-562,788	-116,275	-0,125	0,017
-561,773	-200,000	-0,031	-0,124
-560,758	360,076	0,038	-0,057
-559,744	-200,000	-0,001	0,031
-558,729	-67,844	0,012	-0,004
-557,715	0,794	0,075	-0,040
-556,700	76,305	-0,122	-0,095
-555,685	784,425	-0,065	-0,132
-554,671	-200,000	0,007	0,059
-553,656	-200,000	0,003	-0,055
-552,642	-200,000	0,010	-0,079
-551,627	-37,280	0,051	0,020
-550,612	63,031	-0,066	0,049
-549,598	389,769	0,033	-0,051
-548,583	116,326	0,063	0,057
-547,569	-200,000	-0,013	0,046
-546,554	-67,788	0,066	-0,019
-545,539	-58,535	0,029	0,009
-544,525	-16,327	0,062	0,029
-543,510	-200,000	-0,005	0,131
-542,496	47,009	-0,055	-0,037
-541,481	-178,890	0,054	0,001
-540,466	-200,000	-0,011	-0,137
-539,452	39,750	0,139	0,092
-538,437	560,908	0,061	0,108
-537,423	1,111	-0,044	0,023
-536,408	173,117	-0,037	-0,039
-535,393	-200,000	-0,011	-0,063
-534,379	-8,557	-0,044	0,022
-533,364	417,969	-0,041	-0,064
-532,350	144,605	-0,068	0,067
-531,335	800,000	-0,015	-0,032
-530,321	-84,457	0,147	0,034
-529,306	800,000	-0,012	-0,034
-528,291	319,439	0,023	-0,032
-527,277	-68,566	0,023	0,006
-526,262	800,000	0,075	-0,169
-525,248	192,076	-0,051	0,057
-524,233	76,974	0,106	0,083
-523,218	-5,325	-0,118	0,060
-522,204	-200,000	-0,033	0,115
-521,189	227,171	0,033	0,040
-520,175	-49,672	-0,046	0,016
-519,160	-35,831	0,123	0,049
-518,145	800,000	0,065	-0,143
-517,131	123,391	-0,117	-0,108
-516,116	98,526	0,081	0,069
-515,102	-200,000	-0,017	-0,134
-514,087	149,843	0,026	-0,026
-513,072	383,897	-0,055	0,084
-512,058	146,335	0,108	-0,107
-511,043	27,006	-0,065	0,040
-510,029	-200,000	-0,004	-0,036
-509,014	618,931	-0,014	0,027
-507,999	-200,000	-0,009	0,087
-506,985	-40,788	0,066	-0,025
-505,970	-1,845	-0,169	0,087
-504,956	800,000	-0,039	-0,102
-503,941	96,615	-0,056	0,047
-502,926	158,461	-0,008	-0,008
-501,912	-168,420	-0,098	0,003
-500,897	566,172	-0,019	0,034
-499,883	307,942	-0,085	0,117
-498,868	-58,664	0,014	0,004
-497,853	800,000	0,028	-0,079
-496,839	66,996	-0,123	-0,092
-495,824	100,220	-0,067	0,057
-494,810	800,000	0,022	0,048
-493,795	13,740	0,069	-0,039
-492,781	-81,448	-0,079	0,019
-491,766	800,000	0,069	0,147
-490,751	345,126	-0,074	0,108
-489,737	800,000	0,054	0,115
-488,722	-16,279	0,084	0,039
-487,708	-200,000	-0,016	-0,065
-486,693	-200,000	0,016	-0,079
-485,678	-41,004	0,111	-0,042
-484,664	733,660	0,012	0,023
-483,649	800,000	-0,064	0,152
-482,635	-200,000	0,028	0,133
-481,620	135,735	0,070	0,067
-480,605	280,997	-0,040	0,052
-479,591	343,888	0,055	0,080
-478,576	201,181	0,069	-0,078
-477,562	-200,000	-0,004	-0,041
-476,547	-200,000	-0,016	-0,087
-475,532	91,782	-0,016	-0,013
-474,518	-125,381	0,099	-0,011
-473,503	-200,000	0,044	0,205
-472,489	-100,434	0,043	0,008
-471,474	87,253	-0,036	0,029
-470,459	-200,000	0,000	-0,009
-469,445	-13,876	0,051	-0,024
-468,430	800,000	0,046	-0,148
-467,416	-156,983	0,108	0,005
-466,401	495,792	0,055	-0,093
-465,386	417,311	0,090	0,142
-464,372	185,951	-0,095	0,103
-463,357	-200,000	0,023	0,077
-462,343	459,041	0,038	0,062
-461,328	-149,848	0,040	-0,002
-460,313	-200,000	0,003	-0,100
-459,299	147,748	-0,065	0,065
-458,284	482,475	0,069	-0,116
-457,270	800,000	0,028	-0,090
-456,255	333,934	-0,105	-0,150
-455,241	800,000	-0,012	-0,037
-454,226	179,070	0,044	0,047
-453,211	-200,000	-0,005	0,061
-452,197	-161,917	-0,134	0,005
-451,182	-200,000	0,000	0,030
-450,168	-200,000	0,013	0,055
-449,153	173,647	0,046	0,048
-448,138	-200,000	-0,034	-0,176
-447,124	106,047	0,110	-0,096
-446,109	-200,000	-0,017	0,060
-445,095	29,636	0,098	0,061
-444,080	-200,000	-0,009	-0,034
-443,065	45,865	0,133	0,090
-442,051	-200,000	0,030	0,105
-441,036	-200,000	-0,002	-0,114
-440,022	-200,000	-0,030	-0,098
-439,007	-143,677	-0,027	0,002
-437,992	371,853	0,011	0,016
-436,978	189,074	0,053	-0,059
-435,963	800,000	-0,010	0,022
-434,949	330,476	-0,071	0,101
-433,934	510,047	0,070	-0,119
-432,919	304,055	0,038	-0,052
-431,905	638,995	-0,065	0,123
-430,890	255,718	-0,055	0,070
-429,876	-149,142	0,043	0,003
-428,861	-51,242	-0,110	0,038
-427,846	-200,000	0,008	0,153
-426,832	78,542	-0,010	-0,008
-425,817	-200,000	0,001	-0,007
-424,803	26,689	-0,056	-0,034
-423,788	533,339	0,066	-0,115
-422,773	105,037	0,028	0,025
-421,759	-133,672	0,032	0,003
-420,744	800,000	0,039	0,084
-419,730	-200,000	-0,024	-0,090
-418,715	-69,720	0,083	0,023
-417,701	-200,000	0,016	0,077
-416,686	21,342	-0,077	-0,046
-415,671	800,000	0,027	0,054
-414,657	-96,364	-0,085	-0,016
-413,642	-7,610	0,074	-0,037
-412,628	-200,000	0,013	0,065
-411,613	214,718	-0,077	0,090
-410,598	-160,643	-0,054	0,002
-409,584	373,202	-0,082	0,123
-408,569	-43,990	0,030	-0,011
-407,555	800,000	0,052	0,166
-406,540	20,410	0,048	-0,028
-405,525	663,980	-0,042	-0,079
-404,511	800,000	-0,060	-0,123
-403,496	239,028	-0,080	0,097
-402,482	-26,789	0,023	-0,010
-401,467	220,239	-0,016	-0,018
-400,452	443,084	-0,081	-0,130
-399,438	135,076	0,070	0,066
-398,423	800,000	-0,037	-0,096
-397,409	130,454	-0,066	-0,062
-396,394	-37,427	-0,153	-0,059
-395,379	-200,000	0,003	0,045
-394,365	-200,000	0,022	-0,147
-393,350	244,299	0,051	0,063
-392,336	-200,000	0,050	0,170
-391,321	-40,891	-0,131	-0,049
-390,306	-200,000	-0,016	0,151
-389,292	-26,582	-0,129	0,055
-388,277	-131,838	0,096	0,009
-387,263	44,534	0,033	-0,022
-386,248	-159,832	0,101	0,004
-385,233	800,000	0,025	0,070
-384,219	122,343	-0,015	0,014
-383,204	160,811	0,060	-0,061
-382,190	-200,000	-0,001	-0,093
-381,175	-200,000	-0,009	0,046
-380,160	-8,071	-0,103	0,051
-379,146	47,933	0,066	0,045
-378,131	-200,000	0,011	0,112
-377,117	238,250	0,018	0,022
-376,102	-200,000	0,022	-0,221
-375,088	-89,156	-0,056	0,012
-374,073	800,000	-0,013	0,039
-373,058	-89,155	0,122	-0,026
-372,044	-86,557	-0,106	-0,024
-371,029	-171,475	0,144	-0,003
-370,015	-86,095	0,136	-0,030
-369,000	-111,073	-0,125	0,019
-367,985	-200,000	0,032	-0,190
-366,971	-200,000	-0,008	-0,064
-365,956	419,667	0,076	-0,119
-364,942	284,441	0,145	0,191
-363,927	-138,441	-0,043	0,003
-362,912	45,844	-0,056	-0,038
-361,898	-104,969	-0,170	0,028
-360,883	56,325	0,082	-0,058
-359,869	-127,491	-0,051	-0,005
-358,854	162,266	0,045	-0,046
-357,839	-70,808	0,035	0,010
-356,825	800,000	0,011	0,023
-355,810	293,061	0,039	-0,052
-354,796	-200,000	-0,022	0,077
-353,781	-200,000	-0,001	0,113
-352,766	-200,000	0,025	-0,158
-351,752	96,142	0,134	-0,112
-350,737	-70,527	0,196	0,054
-349,723	107,958	0,106	0,093
-348,708	-200,000	-0,002	0,013
-347,693	800,000	0,029	0,072
-346,679	-106,043	-0,058	-0,009
-345,664	176,214	-0,124	-0,132
-344,650	-161,030	-0,046	0,002
-343,635	-83,939	-0,078	-0,018
-342,620	-200,000	0,004	0,113
-341,606	228,958	-0,036	0,043
-340,591	-102,489	0,069	0,012
-339,577	-143,656	-0,054	-0,004
-338,562	59,376	-0,099	-0,071
-337,548	635,103	0,057	-0,105
-336,533	243,633	0,039	0,048
-335,518	3,742	0,150	-0,080
-334,504	403,379	-0,086	0,133
-333,489	541,956	-0,065	0,114
-332,475	-56,008	0,074	-0,024
-331,460	800,000	0,023	-0,050
-330,445	-200,000	0,005	0,080
-329,431	255,839	0,015	0,018
-328,416	-119,465	-0,050	0,006
-327,402	-200,000	0,005	-0,047
-326,387	-93,667	-0,025	-0,005
-325,372	-127,760	-0,118	0,012
-324,358	-90,599	0,041	0,009
-323,343	76,186	0,089	0,068
-322,329	-200,000	0,034	0,168
-321,314	215,054	-0,080	-0,093
-320,299	-200,000	-0,010	0,121
-319,285	367,376	-0,066	0,098
-318,270	112,355	0,038	0,033
-317,256	-70,724	-0,196	-0,054
-316,241	-103,445	0,092	0,016
-315,226	-8,528	-0,072	0,035
-314,212	166,973	-0,043	0,045
-313,197	-200,000	0,010	0,054
-312,183	522,385	-0,056	0,096
-311,168	-200,000	0,015	0,062
-310,153	702,030	-0,049	-0,095
-309,139	40,194	-0,039	-0,026
-308,124	62,256	-0,042	-0,030
-307,110	-200,000	0,014	0,050
-306,095	-200,000	0,043	0,145
-305,080	607,892	-0,024	0,043
-304,066	-200,000	0,009	-0,032
-303,051	800,000	-0,020	0,044
-302,037	-200,000	0,019	0,129
-301,022	-28,318	-0,017	0,007
-300,008	91,094	-0,052	0,043
-298,993	410,092	0,065	0,101
-297,978	-24,153	-0,054	-0,023
-296,964	-112,473	-0,210	0,030
-295,949	-200,000	0,013	0,090
-294,935	-0,965	0,017	0,009
-293,920	-79,533	0,020	0,005
-292,905	-75,469	0,139	0,036
-291,891	146,398	0,022	-0,022
-290,876	800,000	0,010	-0,029
-289,862	-67,901	0,060	0,017
-288,847	231,461	-0,095	-0,114
-287,832	-200,000	-0,018	-0,103
-286,818	177,801	-0,069	-0,073
-285,803	800,000	-0,019	0,053
-284,789	356,390	0,099	0,145
-283,774	8,192	0,013	0,007
-282,759	-200,000	0,010	0,059
-281,745	358,287	-0,111	0,162
-280,730	-71,367	-0,049	-0,013
-279,716	-123,399	-0,052	-0,006
-278,701	185,328	0,127	0,137
-277,686	-200,000	0,003	-0,021
-276,672	-200,000	0,019	-0,204
-275,657	-200,000	0,033	0,123
-274,643	-15,687	0,062	0,029
-273,628	527,631	-0,052	-0,090
-272,613	561,243	0,032	-0,056
-271,599	-33,466	0,085	-0,034
-270,584	413,414	0,026	0,040
-269,570	-57,510	-0,105	-0,033
-268,555	74,164	0,014	0,011
-267,540	-110,474	0,091	-0,014
-266,526	-91,806	-0,109	-0,022
-265,511	38,239	-0,172	0,111
-264,497	120,528	-0,068	0,062
-263,482	502,202	-0,017	-0,029
-262,467	233,397	0,097	0,116
-261,453	247,521	0,051	0,062
-260,438	206,599	-0,070	-0,079
-259,424	-200,000	-0,004	-0,124
-258,409	800,000	-0,028	-0,062
-257,395	177,502	0,041	-0,044
-256,380	-184,731	0,114	0,001
-255,365	456,045	0,062	-0,100
-254,351	-200,000	0,028	0,175
-253,336	4,829	0,123	0,066
-252,322	-107,335	-0,032	-0,005
-251,307	-183,315	0,054	0,001
-250,292	198,219	0,026	-0,029
-249,278	33,368	0,029	0,019
-248,263	375,442	0,027	0,040
-247,249	800,000	-0,006	0,018
-246,234	610,723	-0,052	0,096
-245,219	-84,513	0,049	-0,011
-244,205	1,364	-0,048	-0,025
-243,190	-200,000	0,012	-0,058
-242,176	-134,443	0,149	0,013
-241,161	0,584	-0,035	-0,018
-240,146	-191,696	0,108	0,001
-239,132	-200,000	-0,014	0,076
-238,117	-200,000	0,007	-0,076
-237,103	800,000	0,019	0,049
-236,088	800,000	-0,025	0,061
-235,073	140,624	0,062	0,059
-234,059	457,873	-0,018	-0,029
-233,044	162,096	0,062	-0,063
-232,030	-47,798	-0,099	0,035
-231,015	800,000	0,053	0,116
-230,000	327,029	0,010	-0,013
-228,986	-200,000	-0,046	-0,208
-227,971	-49,980	0,057	0,019
-226,957	633,646	0,060	-0,112
-225,942	23,902	0,035	0,021
-224,927	-101,700	-0,188	-0,033
-223,913	34,172	-0,138	-0,087
-222,898	450,906	0,035	-0,057
-221,884	800,000	-0,062	-0,177
-220,869	250,949	-0,015	-0,018
-219,855	10,128	0,027	0,015
-218,840	-75,059	0,093	-0,024
-217,825	800,000	0,011	-0,023
-216,811	800,000	-0,034	0,074
-215,796	417,856	-0,055	-0,086
-214,782	-200,000	-0,023	0,088
-213,767	515,888	0,018	-0,030
-212,752	-200,000	0,021	0,104
-211,738	142,229	-0,097	0,093
-210,723	-94,337	-0,156	-0,031
-209,709	800,000	0,021	-0,048
-208,694	-200,000	0,015	0,065
-207,679	62,417	-0,092	0,066
-206,665	-200,000	0,006	0,056
-205,650	107,719	0,021	-0,018
-204,636	-95,506	0,038	-0,007
-203,621	-73,957	0,171	-0,045
-202,606	-74,416	-0,129	-0,034
-201,592	134,699	-0,036	-0,034
-200,577	-200,000	0,031	-0,113
-199,563	-116,408	-0,071	0,009
-198,548	-200,000	-0,000	0,048
-197,533	-200,000	0,018	0,064
-196,519	800,000	-0,020	0,044
-195,504	800,000	-0,034	-0,091
-194,490	800,000	-0,029	-0,071
-193,475	-200,000	0,004	0,036
-192,460	-200,000	-0,033	-0,131
-191,446	570,151	-0,046	-0,081
-190,431	-200,000	0,044	0,167
-189,417	56,776	0,094	0,067
-188,402	800,000	0,014	0,029
-187,387	-72,092	-0,020	-0,005
-186,373	-101,587	-0,116	0,020
-185,358	440,285	-0,043	-0,068
-184,344	-200,000	0,015	0,129
-183,329	-127,248	0,100	0,010
-182,315	-75,286	0,053	-0,014
-181,300	44,421	-0,091	-0,061
-180,285	157,066	-0,114	-0,114
-179,271	-200,000	-0,016	0,099
-178,256	800,000	0,050	0,112
-177,242	74,619	0,046	0,035
-176,227	-187,877	0,045	-0,000
-175,212	311,638	-0,045	-0,061
-174,198	-57,998	0,125	0,039
-173,183	-200,000	-0,013	-0,124
-172,169	-118,217	0,059	0,008
-171,154	-200,000	-0,001	-0,137
-170,139	-174,621	0,079	-0,002
-169,125	175,682	-0,017	-0,017
-168,110	209,100	0,069	-0,079
-167,096	303,869	0,058	-0,078
-166,081	16,949	-0,068	-0,039
-165,066	150,886	0,065	-0,065
-164,052	800,000	0,018	0,055
-163,037	-200,000	-0,009	-0,078
-162,023	128,166	0,064	-0,059
-161,008	-200,000	0,011	0,135
-159,993	-200,000	-0,014	-0,114
-158,979	582,669	-0,011	0,020
-157,964	-200,000	-0,023	-0,175
-156,950	342,891	0,079	-0,112
-155,935	800,000	-0,004	0,011
-154,920	14,806	0,024	-0,014
-153,906	3,653	-0,094	-0,049
-152,891	198,156	0,058	0,064
-151,877	-200,000	-0,001	0,080
-150,862	166,696	-0,102	-0,105
-149,847	-171,783	0,129	-0,003
-148,833	121,592	0,066	0,060
-147,818	-110,078	0,130	0,019
-146,804	800,000	-0,004	0,010
-145,789	-200,000	0,010	-0,035
-144,775	237,684	0,015	-0,018
-143,760	800,000	-0,029	-0,062
-142,745	-200,000	-0,059	-0,217
-141,731	200,274	0,040	-0,045
-140,716	-170,422	-0,056	0,001
-139,702	800,000	0,020	0,048
-138,687	-200,000	0,010	0,057
-137,672	73,797	0,087	0,066
-136,658	150,108	-0,012	0,012
-135,643	-200,000	0,025	-0,255
-134,629	-17,622	0,045	-0,020
-133,614	225,820	0,024	0,028
-132,599	-148,672	0,071	0,004
-131,585	-125,289	-0,093	-0,010
-130,570	-200,000	-0,019	-0,085
-129,556	-79,064	-0,072	0,018
-128,541	-200,000	0,009	0,029
-127,526	-169,972	-0,129	0,003
-126,512	-64,496	-0,104	0,030
-125,497	800,000	0,006	0,017
-124,483	118,750	-0,032	0,028
-123,468	-119,675	-0,097	-0,012
-122,453	-68,340	0,032	-0,009
-121,439	800,000	-0,028	-0,081
-120,424	106,170	0,109	0,093
-119,410	174,933	0,067	0,071
-118,395	-200,000	0,019	0,071
-117,380	-74,359	0,119	0,031
-116,366	-200,000	-0,002	0,043
-115,351	800,000	0,040	0,089
-114,337	388,275	0,087	-0,130
-113,322	-49,755	-0,056	0,019
-112,307	-67,830	-0,036	-0,010
-111,293	-92,580	0,097	0,020
-110,278	22,035	0,017	-0,010
-109,264	756,015	0,069	0,136
-108,249	-103,365	-0,039	0,007
-107,234	-200,000	-0,004	-0,039
-106,220	86,863	0,092	-0,073
-105,205	26,738	-0,077	0,047
-104,191	-102,178	0,045	-0,008
-103,176	-200,000	-0,000	0,096
-102,162	268,506	0,053	0,067
-101,147	-200,000	-0,004	-0,057
-100,132	-83,519	-0,088	-0,020
-99,118	-49,497	-0,070	-0,024
-98,103	800,000	-0,034	0,089
-97,089	425,166	0,009	-0,015
-96,074	82,075	0,012	0,009
-95,059	-200,000	-0,015	0,102
-94,045	170,941	0,052	0,054
-93,030	800,000	0,072	-0,188
-92,016	800,000	0,045	-0,108
-91,001	256,527	0,094	-0,117
-89,986	-200,000	0,012	-0,047
-88,972	-90,393	0,106	0,022
-87,957	176,939	0,087	0,091
-86,943	102,845	-0,009	0,008
-85,928	800,000	-0,033	-0,079
-84,913	404,496	-0,066	0,101
-83,899	-125,658	0,057	-0,006
-82,884	106,037	0,060	0,051
-81,870	285,892	-0,060	0,079
-80,855	-200,000	0,014	0,079
-79,840	50,389	-0,030	-0,021
-78,826	-200,000	0,003	-0,025
-77,811	692,301	-0,049	-0,094
-76,797	203,504	-0,032	0,036
-75,782	-200,000	0,005	0,090
-74,767	-39,709	-0,027	-0,010
-73,753	800,000	-0,031	0,085
-72,738	-78,220	0,054	-0,013
-71,724	-178,812	-0,060	0,001
-70,709	-200,000	-0,013	-0,069
-69,694	58,870	-0,127	0,090
-68,680	-33,241	-0,093	0,037
-67,665	-60,557	0,050	-0,015
-66,651	-200,000	0,037	0,147
-65,636	25,364	-0,122	-0,073
-64,622	-96,473	-0,109	-0,021
-63,607	133,227	-0,094	0,088
-62,592	-78,178	0,139	-0,034
-61,578	-28,532	0,041	0,017
-60,563	-200,000	0,016	-0,139
-59,549	-200,000	-0,007	0,024
-58,534	-99,749	-1,581	-0,284
-57,519	533,713	-0,786	-1,352
-56,505	-200,000	-0,863	-4,389
-55,490	-153,978	0,631	-0,031
-54,476	800,000	4,888	11,562
-53,461	-200,000	14,550	261,768
-52,446	-200,000	695,623	2248,640
-51,432	580,550	1618,869	2879,477
-50,417	119,878	1626,061	1457,353
-49,403	77,829	1280,028	985,250
-48,388	37,837	1018,844	653,106
-47,373	23,078	978,519	579,024
-46,359	22,179	967,805	569,731
-45,344	20,982	963,358	563,201
-44,330	20,953	962,007	562,295
-43,315	20,822	960,543	560,994
-42,300	20,839	959,503	560,420
-41,286	20,801	958,675	559,790
-40,271	20,760	957,445	558,917
-39,257	20,743	956,745	558,432
-38,242	20,756	955,817	557,908
-37,227	20,684	955,083	557,227
-36,213	20,710	954,148	556,744
-35,198	20,729	953,044	556,137
-34,184	20,779	952,486	555,949
-33,169	20,722	951,504	555,174
-32,154	20,799	950,544	554,838
-31,140	20,731	949,761	554,142
-30,125	20,720	949,056	553,673
-29,111	20,772	948,017	553,209
-28,096	20,748	947,516	552,818
-27,082	20,723	946,935	552,379
-26,067	20,727	945,974	551,809
-25,052	20,700	945,371	551,349
-24,038	20,775	944,658	551,152
-23,023	20,791	944,015	550,803
-22,009	20,801	943,319	550,408
-20,994	20,795	942,739	550,030
-19,979	20,746	942,272	549,577
-18,965	20,725	941,608	549,104
-17,950	20,757	941,071	548,869
-16,936	20,754	940,190	548,326
-15,921	20,657	939,561	547,627
-14,906	20,639	938,884	547,157
-13,892	20,689	938,273	546,936
-12,877	20,648	937,528	546,349
-11,863	20,544	937,070	545,731
-10,848	20,540	936,760	545,517
-9,833	20,715	936,031	545,624
-8,819	20,645	935,431	545,032
-7,804	20,659	934,738	544,650
-6,790	20,575	934,407	544,173
-5,775	20,666	933,492	543,904
-4,760	20,658	933,134	543,649
-3,746	20,559	932,689	543,056
-2,731	20,477	931,827	542,274
-1,717	20,454	931,045	541,726
-0,702	20,468	930,412	541,381
0,313	20,267	929,847	541,240
1,327	22,876	927,511	547,987
2,342	30,430	804,810	495,825
3,356	25,350	506,771	303,568
4,371	1,916	373,462	193,989
5,386	-1,021	356,480	181,559
6,400	-2,597	350,034	176,365
7,415	-3,536	347,278	173,842
8,429	-3,679	345,757	172,895
9,444	-3,806	344,895	172,298
10,459	-3,658	343,948	171,984
11,473	-3,590	343,353	171,751
12,488	-3,513	342,986	171,643
13,502	-3,412	342,293	171,399
14,517	-3,723	341,783	170,764
15,531	-3,794	341,128	170,338
16,546	-3,962	340,650	169,888
17,561	-3,826	340,237	169,826
18,575	-3,924	339,929	169,542
19,590	-4,014	339,444	169,180
20,604	-4,074	339,195	168,971
21,619	-3,978	338,665	168,803
22,634	-4,049	338,359	168,554
23,648	-3,962	337,979	168,451
24,663	-3,893	337,645	168,349
25,677	-4,190	337,391	167,864
26,692	-3,836	337,131	168,128
27,707	-3,886	336,558	167,771
28,721	-4,155	336,436	167,384
29,736	-4,059	336,046	167,286
30,750	-3,987	335,917	167,289
31,765	-3,888	335,480	167,171
32,780	-3,976	335,336	166,983
33,794	-4,017	335,029	166,767
34,809	-3,834	334,611	166,755
35,823	-3,934	334,314	166,478
36,838	-4,043	334,134	166,248
37,853	-4,034	333,794	166,074
38,867	-4,042	333,556	165,932
39,882	-4,077	333,273	165,736
40,896	-4,061	333,033	165,621
41,911	-3,805	332,572	165,669
42,926	-4,152	332,513	165,229
43,940	-3,951	331,956	165,165
44,955	-4,103	331,908	164,954
45,969	-4,094	331,441	164,718
46,984	-4,240	331,321	164,478
47,999	-4,231	330,977	164,303
49,013	-4,317	330,653	164,030
50,028	-4,379	330,467	163,852
51,042	-4,404	330,114	163,635
52,057	-4,519	329,835	163,352
53,071	-4,510	329,681	163,271
54,086	-4,413	329,425	163,239
55,101	-4,442	329,315	163,138
56,115	-4,270	328,944	163,133
57,130	-4,013	328,702	163,288
58,144	-3,976	328,555	163,242
59,159	-3,810	328,284	163,279
60,174	-3,851	328,116	163,135
61,188	-3,792	327,782	163,021
62,203	-3,866	327,510	162,788
63,217	-3,958	327,416	162,623
64,232	-3,862	326,972	162,495
65,247	-3,878	326,876	162,416
66,261	-3,811	326,553	162,316
67,276	-3,928	326,196	161,993
68,290	-4,092	325,858	161,628
69,305	-4,093	325,730	161,548
70,320	-4,142	325,502	161,367
71,334	-4,131	325,360	161,295
72,349	-3,824	325,017	161,451
73,363	-3,898	324,743	161,218
74,378	-3,764	324,582	161,272
75,393	-3,846	324,157	160,957
76,407	-3,991	324,020	160,714
77,422	-4,053	323,816	160,530
78,436	-3,748	323,332	160,612
79,451	-3,903	323,177	160,350
80,466	-3,953	322,844	160,115
81,480	-4,074	322,448	159,771
82,495	-4,087	322,232	159,635
83,509	-4,052	322,195	159,641
84,524	-4,238	322,007	159,329
85,539	-4,339	321,584	158,995
86,553	-4,211	321,400	159,030
87,568	-4,160	321,137	158,942
88,582	-4,026	320,845	158,930
89,597	-4,108	320,659	158,734
90,611	-3,892	320,388	158,822
91,626	-4,018	320,398	158,674
92,641	-3,909	319,904	158,535
93,655	-4,015	319,917	158,412
94,670	-4,078	319,452	158,099
95,684	-3,989	319,323	158,117
96,699	-4,120	319,119	157,860
97,714	-4,263	318,904	157,584
98,728	-4,035	318,507	157,621
99,743	-4,112	318,178	157,361
100,757	-4,191	318,045	157,195
101,772	-3,986	317,874	157,319
102,787	-4,141	317,673	157,037
103,801	-4,160	317,528	156,931
104,816	-4,053	317,201	156,872
105,830	-4,021	317,040	156,813
106,845	-3,851	316,858	156,891
107,860	-4,042	316,790	156,638
108,874	-4,015	316,417	156,469
109,889	-4,009	316,113	156,311
110,903	-4,039	315,740	156,080
111,918	-3,974	315,540	156,037
112,933	-3,918	315,406	156,017
113,947	-4,013	315,180	155,790
114,962	-3,987	314,965	155,698
115,976	-3,939	314,805	155,656
116,991	-3,985	314,463	155,423
118,006	-4,026	314,300	155,286
119,020	-3,909	314,175	155,335
120,035	-3,783	313,944	155,342
121,049	-3,873	313,842	155,181
122,064	-3,734	313,389	155,092
123,079	-3,983	313,313	154,774
124,093	-4,056	312,966	154,512
125,108	-4,019	312,765	154,438
126,122	-4,260	312,450	154,012
127,137	-4,296	312,255	153,864
128,151	-4,267	312,115	153,813
129,166	-4,016	311,748	153,885
130,181	-4,164	311,570	153,626
131,195	-4,147	311,392	153,542
132,210	-3,950	311,092	153,589
133,224	-3,938	310,858	153,472
134,239	-4,028	310,815	153,343
135,254	-4,108	310,532	153,105
136,268	-4,024	310,199	153,015
137,283	-4,220	309,915	152,655
138,297	-4,200	309,737	152,575
139,312	-4,376	309,603	152,311
140,327	-3,896	309,275	152,640
141,341	-3,795	309,330	152,759
142,356	-3,700	309,024	152,694
143,370	-3,614	308,829	152,674
144,385	-3,622	308,646	152,562
145,400	-3,804	308,356	152,214
146,414	-3,712	308,213	152,226
147,429	-3,680	308,079	152,180
148,443	-3,585	307,792	152,124
149,458	-3,890	307,557	151,676
150,473	-3,738	307,310	151,699
151,487	-3,655	307,001	151,620
152,502	-3,776	306,907	151,433
153,516	-3,575	306,644	151,500
154,531	-3,660	306,420	151,287
155,546	-3,673	306,069	151,087
156,560	-3,731	306,004	150,981
157,575	-3,925	305,730	150,632
158,589	-3,879	305,503	150,553
159,604	-3,656	305,465	150,753
160,619	-3,554	305,212	150,720
161,633	-3,698	304,938	150,423
162,648	-3,675	304,889	150,408
163,662	-3,644	304,698	150,333
164,677	-3,771	304,337	150,010
165,692	-3,812	304,196	149,885
166,706	-3,692	304,067	149,932
167,721	-3,726	303,868	149,785
168,735	-3,595	303,504	149,728
169,750	-3,705	303,612	149,654
170,764	-3,639	303,341	149,575
171,779	-3,578	303,149	149,529
172,794	-3,570	302,797	149,351
173,808	-3,649	302,572	149,146
174,823	-3,967	302,239	148,643
175,837	-4,064	302,075	148,450
176,852	-3,975	302,056	148,518
177,867	-3,718	301,812	148,647
178,881	-3,643	301,729	148,670
179,896	-3,524	301,558	148,694
180,910	-3,512	301,129	148,482
181,925	-3,564	301,076	148,389
182,940	-3,594	300,854	148,236
183,954	-3,666	300,801	148,123
184,969	-3,655	300,519	147,982
185,983	-3,512	300,346	148,029
186,998	-3,542	299,969	147,800
188,013	-3,642	299,846	147,624
189,027	-3,588	299,641	147,566
190,042	-3,712	299,556	147,385
191,056	-3,475	299,248	147,459
192,071	-3,624	299,126	147,235
193,086	-3,549	298,889	147,182
194,100	-3,533	298,703	147,093
195,115	-3,512	298,554	147,027
196,129	-3,508	298,198	146,844
197,144	-3,554	297,963	146,668
198,159	-3,651	297,761	146,458
199,173	-3,470	297,721	146,608
200,188	-3,397	297,448	146,533
201,202	-3,469	297,100	146,277
202,217	-3,807	296,717	145,736
203,232	-4,041	296,523	145,394
204,246	-3,835	296,506	145,578
205,261	-3,537	296,334	145,779
206,275	-3,708	296,310	145,583
207,290	-3,636	296,069	145,524
208,304	-3,492	295,752	145,499
209,319	-3,566	295,494	145,285
210,334	-3,617	295,357	145,154
211,348	-3,649	295,193	145,029
212,363	-3,555	294,988	145,008
213,377	-3,418	294,615	144,948
214,392	-3,568	294,582	144,770
215,407	-3,641	294,308	144,550
216,421	-3,766	293,957	144,241
217,436	-3,918	293,908	144,054
218,450	-3,936	293,732	143,936
219,465	-3,701	293,555	144,069
220,480	-3,567	293,296	144,062
221,494	-3,589	293,287	144,023
222,509	-3,550	292,855	143,836
223,523	-3,604	292,757	143,723
224,538	-3,394	292,588	143,834
225,553	-3,677	292,540	143,518
226,567	-3,566	292,348	143,521
227,582	-3,648	292,327	143,416
228,596	-3,379	291,861	143,440
229,611	-3,391	291,797	143,384
230,626	-3,508	291,452	143,086
231,640	-3,920	291,270	142,579
232,655	-4,061	290,942	142,269
233,669	-3,952	290,797	142,292
234,684	-4,044	290,549	142,067
235,699	-3,820	290,452	142,226
236,713	-3,748	290,306	142,213
237,728	-3,851	290,142	142,019
238,742	-3,695	290,035	142,106
239,757	-3,615	289,770	142,042
240,772	-3,665	289,549	141,873
241,786	-3,733	289,511	141,775
242,801	-3,854	289,205	141,494
243,815	-3,824	289,150	141,484
244,830	-3,688	288,861	141,462
245,844	-3,945	288,603	141,073
246,859	-3,856	288,461	141,078
247,874	-3,733	288,263	141,089
248,888	-3,823	288,170	140,942
249,903	-3,614	288,026	141,063
250,917	-3,520	287,819	141,039
251,932	-3,247	287,676	141,221
252,947	-2,589	287,765	141,888
253,961	-2,935	287,328	141,326
254,976	-2,148	287,843	142,329
255,990	0,392	288,634	145,169
257,005	0,840	288,652	145,599
258,020	2,120	289,104	147,054
259,034	2,998	289,043	147,860
260,049	2,771	288,814	147,510
261,063	2,712	288,569	147,315
262,078	2,892	288,573	147,478
263,093	3,592	288,594	148,151
264,107	3,682	288,393	148,123
265,122	3,594	288,386	148,020
266,136	3,751	288,196	148,062
267,151	3,475	287,880	147,620
268,166	3,411	287,789	147,498
269,180	3,634	287,421	147,511
270,195	3,472	287,249	147,254
271,209	3,682	286,912	147,269
272,224	3,566	286,977	147,178
273,239	3,304	286,744	146,794
274,253	3,366	286,423	146,677
275,268	3,484	286,381	146,755
276,282	3,591	286,159	146,730
277,297	3,486	285,893	146,480
278,312	3,647	285,861	146,605
279,326	3,626	285,874	146,579
280,341	3,627	285,481	146,365
281,355	3,477	285,219	146,075
282,370	3,255	285,110	145,793
283,384	3,393	284,851	145,780
284,399	3,263	284,792	145,613
285,414	3,333	284,524	145,529
286,428	3,484	284,157	145,472
287,443	3,226	283,978	145,123
288,457	3,133	283,733	144,897
289,472	3,135	283,577	144,806
290,487	3,450	283,384	144,992
291,501	2,908	283,211	144,379
292,516	2,788	283,062	144,176
293,530	2,854	282,766	144,075
294,545	3,059	282,813	144,280
295,560	3,173	282,587	144,259
296,574	3,053	282,275	143,974
297,589	3,336	282,253	144,217
298,603	3,664	282,059	144,413
299,618	3,482	282,069	144,234
300,633	3,365	281,760	143,953
301,647	3,430	281,489	143,862
302,662	3,426	281,328	143,764
303,676	3,148	281,061	143,354
304,691	3,017	280,641	143,004
305,706	2,693	280,585	142,660
306,720	2,510	280,380	142,372
307,735	2,655	280,165	142,386
308,749	3,050	280,186	142,753
309,764	3,091	279,933	142,650
310,779	2,905	279,691	142,340
311,793	2,794	279,397	142,074
312,808	2,762	279,345	142,005
313,822	2,905	279,027	141,964
314,837	2,666	278,996	141,713
315,852	2,565	278,764	141,489
316,866	2,643	278,633	141,482
317,881	2,621	278,572	141,418
318,895	2,572	278,273	141,208
319,910	2,692	277,977	141,156
320,925	2,606	277,857	141,004
321,939	2,681	277,745	141,003
322,954	2,784	277,748	141,087
323,968	2,891	277,463	141,029
324,983	3,162	277,252	141,160
325,997	3,359	277,169	141,286
327,012	3,022	277,018	140,887
328,027	3,129	276,745	140,833
329,041	2,990	276,578	140,608
330,056	3,129	276,402	140,634
331,070	2,828	276,214	140,249
332,085	2,807	275,952	140,084
333,100	2,918	275,891	140,143
334,114	2,996	275,500	140,003
335,129	2,874	275,457	139,857
336,143	2,945	275,298	139,828
337,158	3,308	275,269	140,133
338,173	3,137	275,054	139,855
339,187	2,857	274,830	139,473
340,202	3,047	274,770	139,604
341,216	3,317	274,545	139,724
342,231	3,051	274,338	139,363
343,246	3,060	274,066	139,221
344,260	2,954	273,848	139,001
345,275	3,073	273,872	139,109
346,289	3,332	273,892	139,342
347,304	3,379	273,641	139,245
348,319	3,176	273,221	138,835
349,333	3,093	273,124	138,698
350,348	3,306	273,076	138,854
351,362	3,312	273,049	138,834
352,377	3,367	272,687	138,687
353,392	3,295	272,605	138,567
354,406	3,495	272,347	138,605
355,421	191,228	1331,006	1404,775
356,435	154,480	1460,040	1404,864
