DTS Sentinel unit serial number:	SN410029Multiplexer serial number:	ORYXHardware model number:	OX2-SRSoftware version number:	ORYX F/W v4,00 Oryx Data Collector v3.7.2.0data status	okinstallation	B4 Nyhavnadifferential loss correction	single-endedforward channel	channel 2reverse channel	N/Adate	2023/12/19time	11:00:13forward acquisition time	300,00reverse acquisition time	0,00gamma	499,1914k internal	0,3128k external	0,3128temperature offset calibration	1,0000default loss term (dB/km)	0,3820temperature slope calibration	1,0000multiplexer offset coefficient	1,0000multiplexer slope coefficient	1,0000fibre end	0,00T internal ref (°C)	19,92T ext. ref 1 (°C)	4,73T ext. ref 2 (°C)	4,65length (m)	temperature (°C)	Stokes	anti-Stokes-744,400	279,568	0,074	-0,099
-743,385	-67,002	-0,272	0,079
-742,371	-131,773	0,103	-0,010
-741,356	-22,990	-0,300	0,134
-740,342	-92,344	-0,105	-0,022
-739,327	-93,385	-0,202	0,041
-738,312	-155,414	-0,134	0,006
-737,298	-92,155	-0,268	-0,056
-736,283	-111,207	0,124	0,019
-735,269	-112,979	-0,260	0,038
-734,254	-97,743	-0,024	-0,005
-733,239	-187,306	-0,471	-0,005
-732,225	-200,000	-0,025	-0,144
-731,210	-174,039	0,110	-0,002
-730,196	-136,013	0,087	0,008
-729,181	-115,145	-0,128	0,018
-728,167	-130,037	0,060	-0,006
-727,152	-200,000	0,029	-0,104
-726,137	-70,238	-0,132	0,037
-725,123	-94,938	-0,123	0,025
-724,108	-200,000	-0,005	-0,047
-723,094	-200,000	0,002	-0,070
-722,079	406,793	-0,023	-0,036
-721,064	490,498	-0,033	-0,056
-720,050	800,000	0,045	-0,120
-719,035	800,000	0,020	-0,057
-718,021	335,746	-0,086	0,124
-717,006	567,968	-0,096	-0,174
-715,991	-200,000	0,003	-0,092
-714,977	-9,349	-0,105	-0,052
-713,962	10,465	-0,057	-0,032
-712,948	655,846	0,011	-0,021
-711,933	-86,675	0,069	-0,015
-710,918	-200,000	0,011	0,071
-709,904	-200,000	0,019	-0,087
-708,889	-12,452	-0,189	-0,091
-707,875	-10,681	-0,153	0,075
-706,860	-200,000	0,014	-0,178
-705,845	-81,457	-0,103	-0,025
-704,831	51,766	0,005	-0,004
-703,816	-85,824	0,108	0,025
-702,802	-200,000	-0,024	0,207
-701,787	188,558	-0,104	-0,116
-700,772	800,000	-0,081	-0,185
-699,758	-122,956	0,085	0,010
-698,743	-149,276	0,112	-0,007
-697,729	46,441	0,040	0,027
-696,714	5,074	-0,044	-0,024
-695,699	89,870	0,103	-0,085
-694,685	153,175	-0,043	0,044
-693,670	681,539	0,016	0,032
-692,656	-200,000	0,011	-0,164
-691,641	676,825	-0,045	0,088
-690,627	800,000	0,034	-0,092
-689,612	-200,000	-0,023	-0,136
-688,597	800,000	-0,067	-0,155
-687,583	-119,978	-0,118	0,015
-686,568	34,057	-0,072	0,047
-685,554	3,397	0,026	0,014
-684,539	143,037	0,026	-0,026
-683,524	209,204	-0,057	-0,066
-682,510	63,595	0,077	0,057
-681,495	406,726	-0,068	0,107
-680,481	11,788	-0,197	-0,112
-679,466	-37,393	-0,180	-0,071
-678,451	-200,000	0,044	-0,174
-677,437	145,625	0,069	-0,069
-676,422	-164,418	0,077	-0,003
-675,408	-200,000	0,008	0,094
-674,393	-200,000	-0,022	0,078
-673,378	-200,000	-0,011	-0,054
-672,364	239,383	0,067	-0,083
-671,349	-200,000	0,011	-0,084
-670,335	-112,394	-0,028	-0,004
-669,320	99,162	0,104	0,090
-668,305	-200,000	-0,036	0,133
-667,291	-200,000	0,006	-0,082
-666,276	187,442	-0,050	0,055
-665,262	170,874	-0,060	0,064
-664,247	800,000	-0,032	-0,100
-663,232	160,924	-0,020	0,021
-662,218	138,937	-0,071	0,070
-661,203	800,000	-0,027	0,072
-660,189	270,142	0,067	-0,088
-659,174	800,000	-0,011	-0,034
-658,159	-65,389	-0,057	0,017
-657,145	-47,209	0,077	-0,028
-656,130	-1,656	-0,034	0,018
-655,116	304,321	0,121	-0,167
-654,101	-64,385	0,109	0,033
-653,086	206,646	0,071	-0,082
-652,072	-4,648	-0,091	0,046
-651,057	414,100	0,016	0,026
-650,043	-200,000	-0,015	0,078
-649,028	301,302	0,060	-0,082
-648,014	-182,121	0,058	0,001
-646,999	-61,132	0,102	0,032
-645,984	-9,734	-0,076	-0,037
-644,970	576,769	-0,073	-0,134
-643,955	163,207	-0,050	0,052
-642,941	-31,221	0,043	0,018
-641,926	296,291	-0,042	0,058
-640,911	-132,639	-0,122	0,011
-639,897	-200,000	-0,015	0,079
-638,882	-60,815	-0,124	0,039
-637,868	800,000	-0,058	0,129
-636,853	-11,056	-0,113	-0,055
-635,838	166,867	-0,075	-0,078
-634,824	387,050	0,017	-0,026
-633,809	-19,182	0,030	0,014
-632,795	-38,539	0,091	0,036
-631,780	293,667	-0,088	0,119
-630,765	123,586	0,026	0,024
-629,751	800,000	-0,043	-0,089
-628,736	-57,907	0,035	-0,011
-627,722	-108,143	0,093	0,015
-626,707	800,000	-0,062	-0,156
-625,692	-58,184	0,111	0,036
-624,678	-200,000	0,001	0,051
-623,663	352,310	-0,063	0,092
-622,649	37,416	-0,086	0,056
-621,634	800,000	0,018	-0,055
-620,619	137,555	-0,105	-0,102
-619,605	-30,774	-0,049	-0,020
-618,590	745,528	0,047	0,094
-617,576	800,000	0,024	0,077
-616,561	498,566	0,081	-0,139
-615,546	-31,894	-0,115	-0,048
-614,532	-127,245	-0,155	-0,017
-613,517	-40,594	0,037	-0,014
-612,503	62,968	-0,104	-0,077
-611,488	100,278	0,092	-0,079
-610,474	-58,488	-0,131	-0,042
-609,459	-26,507	0,055	-0,024
-608,444	-200,000	0,016	-0,095
-607,430	207,951	0,079	-0,091
-606,415	-200,000	-0,002	-0,052
-605,401	-190,112	0,063	-0,001
-604,386	151,139	-0,081	-0,082
-603,371	100,582	0,069	0,060
-602,357	-200,000	0,011	0,167
-601,342	-20,057	-0,076	-0,035
-600,328	-134,266	-0,103	0,009
-599,313	408,340	-0,040	-0,063
-598,298	-109,280	-0,022	-0,003
-597,284	-200,000	0,019	-0,069
-596,269	-6,032	0,071	0,036
-595,255	-31,645	0,072	0,030
-594,240	189,194	-0,029	-0,033
-593,225	-58,003	-0,069	0,022
-592,211	-42,985	0,152	0,057
-591,196	-200,000	0,004	-0,025
-590,182	-156,813	-0,187	0,008
-589,167	800,000	-0,030	0,068
-588,152	-200,000	0,012	0,113
-587,138	800,000	-0,025	0,058
-586,123	-200,000	0,043	-0,177
-585,109	-200,000	0,004	0,025
-584,094	-62,888	0,098	0,030
-583,079	21,589	0,145	0,087
-582,065	800,000	0,032	-0,103
-581,050	-181,403	-0,135	-0,002
-580,036	800,000	-0,039	-0,118
-579,021	107,477	-0,091	-0,080
-578,006	104,851	0,104	-0,090
-576,992	800,000	-0,083	-0,175
-575,977	486,599	-0,065	-0,110
-574,963	-11,623	0,040	0,020
-573,948	24,242	0,074	0,045
-572,934	800,000	-0,048	-0,100
-571,919	800,000	-0,045	-0,133
-570,904	228,724	-0,137	-0,165
-569,890	132,570	0,054	-0,051
-568,875	24,144	-0,058	-0,036
-567,861	800,000	0,015	-0,047
-566,846	-13,127	0,015	0,007
-565,831	-200,000	-0,020	-0,081
-564,817	-200,000	-0,006	0,115
-563,802	211,861	0,034	0,039
-562,788	-45,059	-0,124	-0,045
-561,773	243,502	-0,057	0,070
-560,758	-200,000	-0,001	0,018
-559,744	79,325	-0,128	0,101
-558,729	-200,000	-0,039	-0,130
-557,715	-117,037	-0,047	-0,006
-556,700	-55,594	-0,117	-0,038
-555,685	161,657	0,019	0,019
-554,671	399,801	0,036	-0,056
-553,656	-62,645	0,152	0,046
-552,642	-200,000	-0,036	0,187
-551,627	144,249	0,048	0,047
-550,612	792,961	-0,025	-0,051
-549,598	-200,000	-0,001	-0,220
-548,583	-200,000	0,024	-0,101
-547,569	800,000	0,069	-0,181
-546,554	-200,000	0,003	-0,060
-545,539	253,919	-0,019	-0,024
-544,525	-15,471	-0,131	-0,062
-543,510	91,875	-0,055	0,046
-542,496	-200,000	0,019	-0,153
-541,481	-36,891	-0,036	-0,014
-540,466	108,878	0,010	-0,009
-539,452	18,323	0,052	0,031
-538,437	39,389	0,143	0,094
-537,423	149,973	0,105	-0,106
-536,408	-17,812	0,063	-0,029
-535,393	172,762	0,091	-0,097
-534,379	8,676	0,136	-0,076
-533,364	-200,000	-0,019	0,076
-532,350	282,974	0,104	0,137
-531,335	694,345	-0,043	0,083
-530,321	-200,000	-0,000	-0,025
-529,306	-200,000	0,002	-0,035
-528,291	244,014	0,043	-0,054
-527,277	315,233	0,036	-0,051
-526,262	93,979	-0,038	-0,031
-525,248	325,079	0,114	0,161
-524,233	800,000	0,070	0,153
-523,218	-32,532	-0,073	-0,030
-522,204	395,196	-0,045	0,069
-521,189	228,041	-0,091	-0,110
-520,175	-46,490	0,089	0,032
-519,160	258,477	0,025	-0,032
-518,145	216,207	0,111	0,131
-517,131	-200,000	-0,009	0,048
-516,116	684,277	0,057	0,110
-515,102	-28,133	0,054	0,023
-514,087	-200,000	0,027	0,092
-513,072	-10,943	-0,094	-0,046
-512,058	143,724	-0,064	-0,063
-511,043	5,409	-0,108	-0,059
-510,029	176,794	0,064	0,069
-509,014	-180,813	-0,026	-0,000
-507,999	-200,000	0,009	0,068
-506,985	-200,000	0,019	-0,071
-505,970	238,811	-0,051	-0,063
-504,956	157,001	-0,139	-0,142
-503,941	-200,000	0,010	-0,113
-502,926	375,437	0,058	0,088
-501,912	-105,350	0,027	0,004
-500,897	-101,826	0,109	0,019
-499,883	-118,271	0,188	-0,024
-498,868	385,277	0,024	-0,037
-497,853	800,000	0,008	-0,020
-496,839	-116,934	-0,107	0,014
-495,824	-200,000	-0,024	0,110
-494,810	-24,642	0,057	-0,025
-493,795	-77,139	-0,094	-0,024
-492,781	167,895	-0,055	-0,057
-491,766	-64,801	0,096	-0,028
-490,751	34,152	-0,077	0,049
-489,737	40,632	0,118	-0,078
-488,722	80,519	0,027	0,021
-487,708	-200,000	-0,005	0,131
-486,693	-128,734	-0,050	-0,005
-485,678	800,000	0,019	0,046
-484,664	-56,926	-0,098	-0,032
-483,649	136,727	0,058	0,056
-482,635	-161,302	-0,027	0,001
-481,620	800,000	0,028	0,073
-480,605	800,000	0,028	0,066
-479,591	-89,134	0,060	-0,013
-478,576	5,438	-0,017	-0,009
-477,562	54,948	-0,063	0,045
-476,547	558,506	0,034	-0,060
-475,532	-26,087	-0,098	0,042
-474,518	42,077	0,119	0,080
-473,503	-200,000	-0,015	0,049
-472,489	-94,786	0,127	0,025
-471,474	245,161	0,060	0,074
-470,459	144,224	-0,084	0,082
-469,445	800,000	-0,037	-0,090
-468,430	102,220	-0,111	0,096
-467,416	58,733	-0,037	-0,027
-466,401	-111,480	-0,121	0,018
-465,386	-200,000	0,004	-0,082
-464,372	800,000	-0,037	0,084
-463,357	573,970	0,017	-0,030
-462,343	107,355	-0,141	-0,124
-461,328	-200,000	0,026	-0,089
-460,313	274,541	-0,010	-0,013
-459,299	-99,786	0,087	-0,016
-458,284	-162,731	-0,105	-0,004
-457,270	800,000	0,009	0,023
-456,255	-200,000	-0,016	-0,104
-455,241	227,094	-0,079	-0,095
-454,226	163,147	-0,164	-0,169
-453,211	35,510	0,092	0,060
-452,197	800,000	0,039	0,095
-451,182	454,346	0,083	0,136
-450,168	-115,344	0,094	-0,013
-449,153	-200,000	0,022	0,160
-448,138	144,805	-0,088	-0,087
-447,124	800,000	0,010	0,031
-446,109	800,000	-0,046	0,126
-445,095	-74,685	-0,169	0,044
-444,080	-8,217	0,089	-0,044
-443,065	-115,844	-0,032	0,004
-442,051	-200,000	-0,020	0,100
-441,036	-46,568	-0,077	0,028
-440,022	-200,000	0,003	0,081
-439,007	615,012	0,019	-0,035
-437,992	800,000	-0,042	-0,086
-436,978	29,635	0,086	0,054
-435,963	-110,193	0,020	0,003
-434,949	78,860	0,044	-0,035
-433,934	-200,000	-0,027	0,106
-432,919	196,753	-0,028	-0,031
-431,905	800,000	0,014	-0,030
-430,890	-174,896	0,095	-0,002
-429,876	-118,649	0,070	-0,009
-428,861	-200,000	0,024	-0,084
-427,846	-98,083	0,148	0,028
-426,832	-8,562	0,069	-0,034
-425,817	800,000	0,017	0,054
-424,803	-153,866	0,117	-0,006
-423,788	800,000	0,052	0,125
-422,773	-83,225	-0,111	-0,026
-421,759	112,093	-0,056	0,050
-420,744	87,697	0,062	-0,050
-419,730	165,504	0,049	-0,050
-418,715	84,652	-0,014	0,012
-417,701	800,000	0,008	-0,022
-416,686	321,915	-0,012	-0,016
-415,671	83,019	-0,025	0,020
-414,657	134,195	-0,064	0,061
-413,642	-117,215	0,085	0,011
-412,628	-109,413	0,080	0,012
-411,613	92,894	0,056	-0,046
-410,598	-200,000	0,008	0,031
-409,584	43,435	0,105	0,070
-408,569	85,851	0,038	0,031
-407,555	-200,000	-0,029	0,109
-406,540	130,808	-0,106	0,100
-405,525	800,000	-0,039	-0,083
-404,511	-200,000	-0,012	0,070
-403,496	-43,814	0,075	-0,028
-402,482	69,674	-0,082	-0,062
-401,467	-200,000	0,029	0,208
-400,452	73,319	0,024	0,018
-399,438	548,981	-0,050	-0,089
-398,423	-200,000	0,023	-0,185
-397,409	-7,150	-0,024	-0,012
-396,394	-200,000	0,001	0,087
-395,379	800,000	-0,023	-0,053
-394,365	148,100	-0,107	-0,107
-393,350	-200,000	-0,008	0,130
-392,336	-200,000	0,008	-0,156
-391,321	418,518	0,053	-0,083
-390,306	800,000	-0,030	-0,091
-389,292	13,492	0,187	-0,106
-388,277	-77,256	-0,029	0,007
-387,263	18,210	-0,068	0,040
-386,248	64,865	-0,015	-0,011
-385,233	196,566	-0,038	-0,042
-384,219	3,177	0,038	-0,020
-383,204	800,000	0,018	-0,048
-382,190	-109,307	-0,082	0,013
-381,175	-200,000	0,006	0,043
-380,160	33,372	0,052	-0,033
-379,146	497,512	-0,011	0,019
-378,131	-32,612	-0,034	-0,014
-377,117	20,367	0,118	0,070
-376,102	173,598	-0,069	-0,073
-375,088	28,503	0,060	-0,037
-374,073	228,237	-0,065	-0,078
-373,058	249,127	-0,008	0,010
-372,044	109,317	0,070	0,062
-371,029	354,361	0,096	0,140
-370,015	-52,228	-0,086	0,029
-369,000	800,000	-0,083	-0,178
-367,985	-200,000	0,005	0,053
-366,971	-78,769	-0,119	0,029
-365,956	-31,771	0,122	-0,050
-364,942	-200,000	0,003	-0,043
-363,927	-12,895	-0,038	-0,018
-362,912	800,000	-0,021	-0,044
-361,898	-182,004	-0,178	0,002
-360,883	-200,000	0,011	-0,098
-359,869	668,639	0,067	-0,127
-358,854	-37,805	-0,127	-0,049
-357,839	-43,911	0,167	-0,061
-356,825	-200,000	-0,004	0,020
-355,810	53,705	-0,030	0,021
-354,796	-14,126	-0,036	0,017
-353,781	-200,000	-0,007	-0,042
-352,766	-149,560	-0,092	0,005
-351,752	-200,000	0,007	-0,048
-350,737	-134,489	0,152	-0,013
-349,723	332,135	0,088	0,124
-348,708	-200,000	0,010	0,059
-347,693	-85,989	0,046	0,010
-346,679	23,278	-0,025	-0,015
-345,664	93,309	-0,110	0,091
-344,650	-200,000	0,024	0,106
-343,635	-200,000	-0,008	0,131
-342,620	83,128	-0,058	0,047
-341,606	-87,707	-0,007	-0,001
-340,591	800,000	0,034	0,106
-339,577	-200,000	0,032	-0,117
-338,562	-99,417	0,109	0,020
-337,548	276,517	0,062	-0,081
-336,533	210,971	0,060	-0,069
-335,518	800,000	0,011	-0,023
-334,504	-200,000	0,027	-0,090
-333,489	-200,000	-0,019	-0,081
-332,475	-200,000	-0,010	-0,148
-331,460	42,387	0,041	0,027
-330,445	-200,000	0,023	-0,086
-329,431	-200,000	0,019	-0,100
-328,416	22,611	0,061	0,037
-327,402	15,017	-0,093	-0,053
-326,387	-128,370	-0,046	-0,005
-325,372	177,811	0,043	-0,046
-324,358	-200,000	0,004	-0,020
-323,343	29,862	-0,047	0,029
-322,329	800,000	0,045	-0,096
-321,314	-200,000	0,010	-0,035
-320,299	-200,000	0,021	0,072
-319,285	800,000	-0,003	0,008
-318,270	-15,179	-0,093	0,044
-317,256	-40,751	-0,073	0,027
-316,241	19,868	0,101	0,060
-315,226	217,068	0,106	-0,124
-314,212	-10,532	0,182	0,088
-313,197	22,033	0,104	0,062
-312,183	379,976	0,097	0,146
-311,168	72,258	-0,088	0,067
-310,153	-34,846	0,075	-0,030
-309,139	-95,255	-0,087	-0,017
-308,124	295,721	-0,045	0,060
-307,110	130,979	0,016	0,015
-306,095	800,000	0,032	0,103
-305,080	800,000	-0,026	0,053
-304,066	800,000	-0,021	-0,062
-303,051	-200,000	0,015	-0,164
-302,037	-60,473	-0,133	-0,041
-301,022	94,645	-0,085	0,070
-300,008	-59,123	-0,107	0,034
-298,993	204,967	0,090	0,102
-297,978	-200,000	0,036	0,148
-296,964	48,360	0,139	0,095
-295,949	114,376	0,020	0,018
-294,935	-200,000	-0,008	-0,065
-293,920	481,410	-0,018	-0,030
-292,905	567,621	-0,022	-0,038
-291,891	200,479	0,053	0,059
-290,876	151,910	-0,054	0,054
-289,862	-168,707	0,137	-0,004
-288,847	-168,050	-0,080	-0,002
-287,832	-200,000	-0,018	-0,149
-286,818	165,998	0,109	-0,113
-285,803	-131,838	-0,121	0,011
-284,789	22,637	-0,057	0,034
-283,774	454,302	0,120	0,195
-282,759	22,138	-0,036	0,021
-281,745	800,000	-0,044	-0,113
-280,730	523,468	-0,008	-0,014
-279,716	485,949	0,092	-0,153
-278,701	16,718	0,085	0,049
-277,686	3,576	0,054	0,029
-276,672	800,000	-0,065	0,150
-275,657	800,000	0,046	0,105
-274,643	-124,926	-0,090	-0,010
-273,628	800,000	-0,029	-0,076
-272,613	-26,419	-0,082	0,035
-271,599	-200,000	0,015	0,103
-270,584	800,000	0,016	0,039
-269,570	143,720	0,088	-0,086
-268,555	800,000	-0,064	0,132
-267,540	593,582	-0,061	0,111
-266,526	-151,523	0,041	0,002
-265,511	4,679	-0,050	0,027
-264,497	83,606	-0,093	0,074
-263,482	800,000	0,052	0,113
-262,467	104,466	0,089	0,076
-261,453	-24,737	-0,130	-0,056
-260,438	-142,943	-0,124	0,009
-259,424	800,000	0,088	-0,208
-258,409	26,627	-0,154	0,094
-257,395	271,553	0,064	0,082
-256,380	-30,346	0,184	0,076
-255,365	-129,689	-0,053	0,005
-254,351	450,368	0,076	-0,123
-253,336	123,503	-0,094	-0,086
-252,322	-47,184	-0,043	-0,015
-251,307	-73,539	0,032	-0,009
-250,292	800,000	0,004	0,013
-249,278	-200,000	-0,029	-0,131
-248,263	-148,974	-0,068	0,004
-247,249	-47,151	-0,113	0,040
-246,234	-200,000	-0,004	-0,085
-245,219	749,562	-0,042	-0,084
-244,205	23,799	-0,052	-0,031
-243,190	-58,488	0,055	0,017
-242,176	305,595	-0,022	0,029
-241,161	-67,864	0,051	0,014
-240,146	800,000	0,034	-0,071
-239,132	286,077	-0,035	0,047
-238,117	-44,505	-0,108	0,039
-237,103	33,287	0,061	-0,038
-236,088	184,931	0,026	0,028
-235,073	219,146	0,118	0,138
-234,059	-50,735	0,077	0,026
-233,044	-200,000	-0,038	0,123
-232,030	-200,000	-0,016	0,117
-231,015	800,000	-0,039	-0,114
-230,000	800,000	0,054	-0,155
-228,986	-11,924	0,100	0,048
-227,971	63,393	-0,080	0,059
-226,957	7,612	-0,057	0,031
-225,942	-200,000	0,009	0,105
-224,927	-56,221	0,040	-0,013
-223,913	-97,741	-0,097	0,018
-222,898	195,338	0,007	-0,008
-221,884	186,868	-0,075	-0,082
-220,869	131,891	0,081	-0,076
-219,855	208,694	0,040	-0,046
-218,840	-200,000	0,041	0,211
-217,825	-48,572	-0,067	0,023
-216,811	-101,075	0,124	0,022
-215,796	307,227	-0,043	0,058
-214,782	-200,000	-0,027	0,210
-213,767	-69,825	-0,084	0,023
-212,752	-200,000	0,004	0,065
-211,738	-200,000	-0,007	-0,026
-210,723	-15,889	-0,153	0,071
-209,709	-41,422	-0,105	0,039
-208,694	-101,433	-0,196	0,034
-207,679	800,000	0,030	0,069
-206,665	-61,932	0,084	-0,025
-205,650	-137,080	0,235	-0,019
-204,636	-200,000	-0,010	0,093
-203,621	-200,000	-0,022	0,145
-202,606	117,958	0,026	0,024
-201,592	800,000	0,037	-0,093
-200,577	-47,302	0,088	-0,031
-199,563	-200,000	0,013	0,123
-198,548	230,933	0,107	0,128
-197,533	-200,000	0,008	0,108
-196,519	225,938	0,102	0,121
-195,504	415,526	0,023	0,036
-194,490	296,547	-0,071	0,095
-193,475	-82,502	-0,146	-0,034
-192,460	52,874	-0,107	-0,075
-191,446	-4,269	-0,043	-0,022
-190,431	-57,815	0,157	0,050
-189,417	800,000	0,030	-0,071
-188,402	-200,000	-0,011	0,082
-187,387	143,097	0,063	-0,061
-186,373	564,805	-0,099	-0,176
-185,358	-200,000	-0,001	-0,075
-184,344	800,000	0,035	0,110
-183,329	-97,396	0,053	-0,010
-182,315	287,268	0,052	0,069
-181,300	274,009	0,085	-0,110
-180,285	-53,978	-0,144	0,047
-179,271	-200,000	0,018	-0,118
-178,256	-25,078	-0,075	-0,032
-177,242	240,629	0,094	-0,114
-176,227	800,000	0,067	-0,157
-175,212	800,000	0,019	-0,051
-174,198	152,262	0,038	-0,038
-173,183	19,899	0,032	-0,019
-172,169	132,199	-0,054	-0,051
-171,154	97,273	0,062	0,052
-170,139	139,485	0,057	-0,055
-169,125	428,596	-0,022	-0,034
-168,110	-118,573	-0,135	0,017
-167,096	-152,443	-0,030	0,002
-166,081	-141,048	-0,034	-0,003
-165,066	613,833	-0,045	-0,082
-164,052	755,646	-0,041	0,081
-163,037	800,000	-0,036	0,095
-162,023	-138,508	0,124	-0,010
-161,008	200,243	0,042	0,047
-159,993	260,597	0,077	0,097
-158,979	-200,000	0,016	0,180
-157,964	-200,000	-0,026	-0,088
-156,950	-200,000	-0,033	-0,144
-155,935	158,150	-0,045	-0,046
-154,920	741,933	-0,013	-0,025
-153,906	282,547	-0,087	0,114
-152,891	35,367	0,104	0,066
-151,877	-181,558	0,121	-0,002
-150,862	367,631	0,082	-0,121
-149,847	-39,946	-0,135	0,051
-148,833	-92,390	0,051	-0,010
-147,818	-99,908	0,058	-0,011
-146,804	800,000	0,027	0,078
-145,789	6,129	0,035	0,019
-144,775	56,939	0,103	0,073
-143,760	93,027	0,049	-0,040
-142,745	89,008	0,093	0,075
-141,731	-120,399	-0,083	-0,010
-140,716	-114,762	0,044	-0,006
-139,702	361,456	0,027	0,040
-138,687	-200,000	-0,009	0,083
-137,672	-200,000	-0,034	-0,145
-136,658	495,657	0,045	-0,075
-135,643	-8,375	-0,010	0,005
-134,629	334,110	0,075	-0,106
-133,614	-200,000	-0,033	0,162
-132,599	-200,000	0,035	0,117
-131,585	-200,000	0,031	0,163
-130,570	-20,492	-0,158	0,070
-129,556	800,000	-0,062	-0,129
-128,541	140,407	0,099	0,095
-127,526	-53,547	-0,051	-0,017
-126,512	338,483	0,064	0,091
-125,497	402,883	0,057	0,087
-124,483	-129,237	-0,077	0,008
-123,468	-177,680	-0,078	-0,001
-122,453	-51,471	0,056	0,019
-121,439	-200,000	-0,009	0,121
-120,424	-173,264	-0,036	0,001
-119,410	-129,993	0,131	-0,013
-118,395	120,240	-0,059	-0,053
-117,380	369,005	0,024	0,035
-116,366	244,589	-0,048	-0,059
-115,351	307,500	-0,032	-0,043
-114,337	-80,062	-0,152	-0,037
-113,322	508,986	0,069	-0,117
-112,307	555,342	0,072	-0,126
-111,293	426,399	0,015	0,023
-110,278	-113,124	0,005	0,001
-109,264	-34,334	0,047	-0,019
-108,249	18,641	-0,065	0,038
-107,234	-53,868	-0,091	0,030
-106,220	-200,000	-0,014	-0,055
-105,205	10,649	0,036	-0,020
-104,191	-200,000	0,014	-0,086
-103,176	38,945	-0,012	0,008
-102,162	-200,000	-0,000	-0,034
-101,147	-56,268	0,014	0,004
-100,132	-69,522	-0,149	0,041
-99,118	-19,767	0,070	-0,031
-98,103	-200,000	-0,018	-0,068
-97,089	800,000	0,017	-0,047
-96,074	735,937	-0,055	0,108
-95,059	-124,033	-0,140	0,016
-94,045	-89,442	-0,128	0,027
-93,030	800,000	0,036	-0,102
-92,016	-88,044	-0,113	-0,024
-91,001	800,000	0,022	-0,046
-89,986	-149,688	0,197	-0,011
-88,972	-200,000	-0,007	0,098
-87,957	-126,710	-0,130	0,014
-86,943	155,633	-0,079	-0,079
-85,928	-77,294	0,111	0,028
-84,913	-13,223	0,047	-0,022
-83,899	-17,264	-0,054	0,025
-82,884	-85,780	0,113	-0,025
-81,870	366,523	0,037	-0,054
-80,855	147,799	0,065	-0,063
-79,840	126,824	0,077	-0,071
-78,826	-124,797	0,159	0,018
-77,811	-200,000	-0,089	0,000
-76,797	-200,000	-0,001	0,007
-75,782	-133,178	-0,133	-0,012
-74,767	-34,565	0,111	0,044
-73,753	-95,056	0,114	0,022
-72,738	176,747	-0,031	-0,033
-71,724	-200,000	-0,035	-0,117
-70,709	800,000	-0,025	-0,050
-69,694	-171,055	0,060	0,001
-68,680	-100,405	0,111	0,020
-67,665	62,434	-0,134	0,097
-66,651	-105,205	0,122	0,020
-65,636	553,143	-0,050	-0,088
-64,622	-27,911	0,060	-0,025
-63,607	-200,000	0,002	-0,016
-62,592	-200,000	0,001	0,046
-61,578	-35,666	0,079	0,031
-60,563	-200,000	-0,005	-0,018
-59,549	224,894	-0,092	0,108
-58,534	-107,434	-1,504	-0,237
-57,519	390,355	-0,895	-1,349
-56,505	-200,000	-0,999	-4,393
-55,490	-183,304	0,640	0,008
-54,476	800,000	5,063	11,830
-53,461	-200,000	15,116	263,503
-52,446	-200,000	697,250	2235,160
-51,432	583,633	1619,146	2892,214
-50,417	120,382	1626,965	1463,667
-49,403	81,844	1282,287	1005,142
-48,388	37,654	1021,663	655,694
-47,373	22,493	982,760	580,837
-46,359	21,573	971,496	571,137
-45,344	20,161	967,296	564,030
-44,330	20,242	965,912	563,463
-43,315	20,014	964,359	561,791
-42,300	19,999	963,442	561,186
-41,286	19,974	962,372	560,459
-40,271	19,930	961,435	559,750
-39,257	20,011	960,560	559,481
-38,242	19,907	959,756	558,651
-37,227	20,001	958,913	558,444
-36,213	19,992	957,841	557,769
-35,198	19,930	956,888	556,992
-34,184	19,977	956,387	556,830
-33,169	19,843	955,288	555,733
-32,154	19,966	954,355	555,565
-31,140	20,053	953,579	555,373
-30,125	20,053	952,624	554,795
-29,111	19,936	951,937	553,998
-28,096	19,957	951,282	553,662
-27,082	19,946	950,654	553,237
-26,067	19,935	949,958	552,775
-25,052	19,935	949,036	552,217
-24,038	20,006	948,284	551,984
-23,023	19,931	947,681	551,373
-22,009	20,001	947,025	551,191
-20,994	19,959	946,510	550,736
-19,979	19,971	945,829	550,358
-18,965	19,911	945,364	549,872
-17,950	19,946	944,645	549,543
-16,936	19,896	944,093	549,043
-15,921	19,856	943,472	548,531
-14,906	19,798	942,776	547,920
-13,892	19,823	942,043	547,552
-12,877	19,793	941,578	547,163
-11,863	19,786	940,768	546,649
-10,848	19,792	940,272	546,358
-9,833	19,891	939,840	546,402
-8,819	19,923	939,013	546,001
-7,804	19,860	938,604	545,542
-6,790	19,844	937,983	545,107
-5,775	19,856	937,455	544,818
-4,760	19,833	936,625	544,238
-3,746	19,816	936,154	543,890
-2,731	19,717	935,412	543,125
-1,717	19,757	934,403	542,645
-0,702	19,710	933,994	542,238
0,313	19,535	933,433	542,178
1,327	21,987	931,034	548,452
2,342	29,352	805,816	494,601
3,356	23,613	505,709	300,623
4,371	-0,655	372,419	190,570
5,386	-3,570	355,886	178,521
6,400	-4,540	349,687	174,227
7,415	-4,932	347,316	172,562
8,429	-4,748	346,010	172,117
9,444	-4,932	345,044	171,402
10,459	-4,827	344,419	171,200
11,473	-4,816	343,678	170,830
12,488	-4,844	343,224	170,556
13,502	-4,928	342,659	170,161
14,517	-4,911	342,288	169,982
15,531	-4,860	341,850	169,809
16,546	-4,601	341,313	169,832
17,561	-4,733	341,010	169,511
18,575	-4,572	340,476	169,419
19,590	-4,547	340,014	169,204
20,604	-4,627	339,826	169,001
21,619	-4,619	339,385	168,775
22,634	-4,778	339,065	168,417
23,648	-4,539	338,525	168,412
24,663	-4,710	338,450	168,160
25,677	-4,736	338,132	167,956
26,692	-4,758	337,699	167,700
27,707	-4,762	337,479	167,572
28,721	-4,569	337,101	167,594
29,736	-4,623	336,875	167,403
30,750	-4,617	336,420	167,170
31,765	-4,639	336,373	167,107
32,780	-4,448	335,997	167,125
33,794	-4,835	335,786	166,558
34,809	-4,670	335,344	166,514
35,823	-4,619	335,184	166,478
36,838	-4,688	334,801	166,194
37,853	-4,689	334,604	166,080
38,867	-4,695	334,304	165,910
39,882	-4,531	334,026	165,945
40,896	-4,644	333,781	165,680
41,911	-4,853	333,569	165,319
42,926	-4,717	333,196	165,276
43,940	-4,707	332,956	165,154
44,955	-4,726	332,617	164,949
45,969	-4,566	332,370	164,995
46,984	-4,587	332,109	164,827
47,999	-4,646	332,037	164,709
49,013	-4,727	331,728	164,448
50,028	-4,668	331,494	164,385
51,042	-4,406	331,242	164,543
52,057	-4,598	331,005	164,192
53,071	-4,690	330,861	164,002
54,086	-4,578	330,572	163,971
55,101	-4,664	330,238	163,693
56,115	-4,674	329,971	163,535
57,130	-4,610	329,618	163,418
58,144	-4,815	329,523	163,124
59,159	-4,676	328,985	163,000
60,174	-4,868	328,889	162,722
61,188	-4,711	328,608	162,746
62,203	-4,616	328,309	162,690
63,217	-4,689	328,154	162,517
64,232	-4,503	327,778	162,525
65,247	-4,827	327,506	162,011
66,261	-4,733	327,252	161,977
67,276	-4,794	327,102	161,819
68,290	-4,718	326,845	161,763
69,305	-4,608	326,523	161,712
70,320	-4,561	326,323	161,651
71,334	-4,627	326,051	161,429
72,349	-4,652	325,674	161,200
73,363	-4,746	325,519	161,004
74,378	-4,713	325,300	160,918
75,393	-4,648	325,102	160,878
76,407	-4,602	324,760	160,746
77,422	-4,625	324,603	160,628
78,436	-4,639	324,151	160,375
79,451	-4,718	324,019	160,207
80,466	-4,690	323,812	160,121
81,480	-4,643	323,510	160,009
82,495	-4,606	323,336	159,950
83,509	-4,541	322,938	159,811
84,524	-4,475	322,785	159,794
85,539	-4,578	322,722	159,635
86,553	-4,441	322,263	159,545
87,568	-4,642	322,066	159,212
88,582	-4,597	321,912	159,170
89,597	-4,820	321,770	158,841
90,611	-4,716	321,338	158,728
91,626	-4,709	321,141	158,625
92,641	-4,503	320,708	158,622
93,655	-4,442	320,535	158,589
94,670	-4,623	320,366	158,293
95,684	-4,493	320,047	158,264
96,699	-4,566	319,963	158,128
97,714	-4,538	319,655	157,993
98,728	-4,567	319,474	157,857
99,743	-4,605	319,334	157,733
100,757	-4,543	319,045	157,643
101,772	-4,506	318,645	157,472
102,787	-4,746	318,575	157,161
103,801	-4,643	318,329	157,138
104,816	-4,537	317,857	157,007
105,830	-4,612	317,817	156,891
106,845	-4,705	317,660	156,699
107,860	-4,696	317,369	156,551
108,874	-4,583	317,112	156,533
109,889	-4,746	316,905	156,241
110,903	-4,569	316,555	156,245
111,918	-4,779	316,436	155,945
112,933	-4,714	316,229	155,899
113,947	-4,700	315,952	155,765
114,962	-4,765	315,849	155,629
115,976	-4,504	315,392	155,672
116,991	-4,687	315,364	155,447
118,006	-4,561	315,065	155,422
119,020	-4,471	314,814	155,380
120,035	-4,724	314,776	155,076
121,049	-4,590	314,556	155,098
122,064	-4,615	314,297	154,929
123,079	-4,543	313,963	154,828
124,093	-4,627	313,800	154,644
125,108	-4,542	313,559	154,602
126,122	-4,625	313,441	154,442
127,137	-4,571	313,007	154,272
128,151	-4,571	312,828	154,169
129,166	-4,555	312,640	154,081
130,181	-4,578	312,551	153,998
131,195	-4,587	312,269	153,836
132,210	-4,606	311,979	153,659
133,224	-4,563	311,698	153,552
134,239	-4,661	311,467	153,321
135,254	-4,641	311,331	153,262
136,268	-4,620	311,008	153,112
137,283	-4,585	310,744	153,004
138,297	-4,626	310,669	152,911
139,312	-4,528	310,226	152,783
140,327	-4,523	310,030	152,677
141,341	-4,606	310,057	152,590
142,356	-4,556	309,750	152,478
143,370	-4,523	309,472	152,362
144,385	-4,586	309,276	152,186
145,400	-4,423	309,053	152,234
146,414	-4,532	308,806	151,984
147,429	-4,666	308,562	151,709
148,443	-4,540	308,287	151,694
149,458	-4,741	308,201	151,426
150,473	-4,504	307,932	151,530
151,487	-4,455	307,625	151,416
152,502	-4,631	307,591	151,202
153,516	-4,438	307,181	151,189
154,531	-4,625	307,087	150,933
155,546	-4,403	306,737	150,979
156,560	-4,502	306,659	150,824
157,575	-4,559	306,365	150,607
158,589	-4,632	306,181	150,427
159,604	-4,448	305,936	150,484
160,619	-4,490	305,765	150,343
161,633	-4,470	305,645	150,292
162,648	-4,685	305,487	149,977
163,662	-4,428	305,118	150,049
164,677	-4,708	305,027	149,701
165,692	-4,494	304,671	149,734
166,706	-4,403	304,590	149,775
167,721	-4,437	304,211	149,541
168,735	-4,440	304,179	149,509
169,750	-4,569	303,951	149,250
170,764	-4,575	303,698	149,106
171,779	-4,592	303,688	149,070
172,794	-4,599	303,264	148,842
173,808	-4,604	303,144	148,764
174,823	-4,481	302,907	148,761
175,837	-4,503	302,679	148,613
176,852	-4,564	302,472	148,435
177,867	-4,746	302,563	148,280
178,881	-4,479	302,076	148,302
179,896	-4,519	301,981	148,202
180,910	-4,484	301,589	148,032
181,925	-4,544	301,532	147,929
182,940	-4,604	301,346	147,763
183,954	-4,571	301,042	147,634
184,969	-4,497	300,908	147,631
185,983	-4,510	300,772	147,538
186,998	-4,463	300,474	147,427
188,013	-4,620	300,489	147,261
189,027	-4,619	300,144	147,080
190,042	-4,540	299,879	147,017
191,056	-4,722	299,675	146,719
192,071	-4,708	299,371	146,572
193,086	-4,724	299,342	146,528
194,100	-4,575	299,014	146,505
195,115	-4,530	298,692	146,380
196,129	-4,517	298,578	146,324
197,144	-4,504	298,259	146,168
198,159	-4,749	298,056	145,807
199,173	-4,598	297,885	145,864
200,188	-4,677	297,794	145,726
201,202	-4,544	297,603	145,754
202,217	-4,499	297,339	145,657
203,232	-4,482	297,140	145,564
204,246	-4,560	296,894	145,352
205,261	-4,579	296,734	145,242
206,275	-4,552	296,545	145,163
207,290	-4,567	296,241	144,986
208,304	-4,341	296,171	145,166
209,319	-4,682	296,003	144,729
210,334	-4,441	295,617	144,769
211,348	-4,486	295,402	144,605
212,363	-4,443	295,275	144,573
213,377	-4,409	295,143	144,530
214,392	-4,444	294,895	144,360
215,407	-4,595	294,682	144,092
216,421	-4,458	294,612	144,181
217,436	-4,525	294,284	143,942
218,450	-4,536	294,107	143,831
219,465	-4,612	293,852	143,618
220,480	-4,589	293,845	143,626
221,494	-4,653	293,658	143,458
222,509	-4,494	293,313	143,434
223,523	-4,696	293,122	143,127
224,538	-4,531	292,981	143,209
225,553	-4,544	292,852	143,120
226,567	-4,540	292,566	142,972
227,582	-4,436	292,382	142,972
228,596	-4,533	292,359	142,852
229,611	-4,593	292,060	142,634
230,626	-4,526	291,841	142,581
231,640	-4,383	291,678	142,629
232,655	-4,351	291,400	142,512
233,669	-4,486	291,320	142,327
234,684	-4,349	290,964	142,275
235,699	-4,613	290,851	141,948
236,713	-4,505	290,718	141,976
237,728	-4,518	290,475	141,832
238,742	-4,572	290,385	141,723
239,757	-4,708	290,118	141,447
240,772	-4,525	289,823	141,469
241,786	-4,551	289,720	141,382
242,801	-4,503	289,528	141,322
243,815	-4,351	289,273	141,332
244,830	-4,520	289,275	141,157
245,844	-4,234	288,834	141,208
246,859	-4,423	288,765	140,977
247,874	-4,549	288,512	140,718
248,888	-4,570	288,380	140,620
249,903	-4,716	288,205	140,381
250,917	-4,681	287,915	140,261
251,932	-4,520	287,707	140,303
252,947	-4,883	287,529	139,852
253,961	-5,281	286,963	139,179
254,976	-5,534	286,679	138,784
255,990	-5,376	286,665	138,918
257,005	-3,777	287,285	140,755
258,020	-1,292	288,007	143,506
259,034	-0,073	288,445	144,895
260,049	0,581	288,339	145,463
261,063	0,824	288,400	145,716
262,078	1,251	288,422	146,127
263,093	1,590	288,181	146,321
264,107	1,730	288,150	146,427
265,122	1,952	288,036	146,570
266,136	2,095	287,744	146,547
267,151	1,945	287,845	146,441
268,166	2,080	287,563	146,414
269,180	2,067	287,347	146,279
270,195	1,985	287,165	146,094
271,209	2,209	286,865	146,144
272,224	1,878	286,874	145,817
273,239	2,055	286,555	145,812
274,253	1,903	286,428	145,588
275,268	1,970	286,142	145,494
276,282	1,911	285,961	145,333
277,297	2,006	285,703	145,279
278,312	1,797	285,713	145,071
279,326	1,752	285,521	144,918
280,341	2,085	285,238	145,080
281,355	1,738	285,184	144,707
282,370	1,892	284,798	144,646
283,384	1,993	284,677	144,668
284,399	1,785	284,508	144,371
285,414	1,823	284,407	144,343
286,428	1,895	284,161	144,274
287,443	1,837	283,927	144,087
288,457	1,817	283,828	144,005
289,472	1,747	283,611	143,816
290,487	1,614	283,420	143,579
291,501	1,872	283,194	143,697
292,516	1,742	282,940	143,432
293,530	1,807	282,840	143,431
294,545	1,704	282,584	143,190
295,560	1,778	282,359	143,133
296,574	1,616	282,206	142,890
297,589	1,705	282,098	142,907
298,603	1,679	281,914	142,776
299,618	1,763	281,787	142,778
300,633	1,836	281,497	142,687
301,647	1,945	281,258	142,656
302,662	1,819	281,069	142,429
303,676	1,864	281,050	142,449
304,691	1,992	280,876	142,468
305,706	1,932	280,749	142,335
306,720	1,796	280,499	142,067
307,735	1,921	280,360	142,102
308,749	1,843	280,212	141,941
309,764	2,103	279,869	141,998
310,779	1,962	279,614	141,724
311,793	1,849	279,473	141,534
312,808	1,969	279,358	141,575
313,822	1,828	279,206	141,354
314,837	1,890	279,097	141,344
315,852	1,934	278,901	141,273
316,866	2,085	278,680	141,289
317,881	1,970	278,413	141,035
318,895	1,865	278,369	140,902
319,910	1,988	278,151	140,894
320,925	2,090	277,891	140,844
321,939	1,843	277,886	140,600
322,954	1,994	277,693	140,629
323,968	2,117	277,410	140,588
324,983	2,074	277,242	140,449
325,997	2,020	277,070	140,300
327,012	2,070	276,877	140,237
328,027	2,024	276,525	140,003
329,041	1,823	276,661	139,874
330,056	1,985	276,280	139,819
331,070	2,036	276,258	139,842
332,085	2,178	275,990	139,825
333,100	2,245	275,777	139,765
334,114	2,152	275,583	139,569
335,129	1,898	275,424	139,243
336,143	2,052	275,271	139,294
337,158	2,065	275,171	139,243
338,173	2,066	274,959	139,125
339,187	2,153	274,757	139,090
340,202	2,084	274,477	138,872
341,216	1,995	274,480	138,780
342,231	2,264	274,108	138,826
343,246	1,947	274,096	138,518
344,260	2,089	273,930	138,550
345,275	2,127	273,699	138,457
346,289	2,152	273,566	138,399
347,304	2,065	273,431	138,239
348,319	2,180	273,064	138,146
349,333	2,044	272,949	137,952
350,348	2,093	272,852	137,936
351,362	2,105	272,698	137,856
352,377	2,221	272,556	137,877
353,392	2,143	272,395	137,713
354,406	2,144	272,071	137,538
355,421	191,601	1348,420	1427,430
356,435	154,681	1479,624	1427,538
