DTS Sentinel unit serial number:	SN410029Multiplexer serial number:	ORYXHardware model number:	OX2-SRSoftware version number:	ORYX F/W v4,00 Oryx Data Collector v3.7.2.0data status	okinstallation	B4 Nyhavnadifferential loss correction	single-endedforward channel	channel 2reverse channel	N/Adate	2023/12/15time	19:35:13forward acquisition time	300,00reverse acquisition time	0,00gamma	499,1914k internal	0,3138k external	0,3138temperature offset calibration	1,0000default loss term (dB/km)	0,3820temperature slope calibration	1,0000multiplexer offset coefficient	1,0000multiplexer slope coefficient	1,0000fibre end	0,00T internal ref (°C)	19,97T ext. ref 1 (°C)	5,58T ext. ref 2 (°C)	5,77length (m)	temperature (°C)	Stokes	anti-Stokes-744,400	-139,085	0,072	0,006
-743,385	-121,776	-0,285	-0,035
-742,371	25,004	0,152	0,093
-741,356	-24,268	-0,228	0,100
-740,342	-112,958	0,087	-0,013
-739,327	540,423	-0,106	0,188
-738,312	266,061	0,037	-0,048
-737,298	-101,241	-0,278	-0,050
-736,283	10,669	0,104	-0,059
-735,269	132,123	-0,120	0,115
-734,254	22,027	0,110	-0,066
-733,239	-55,012	-0,317	-0,105
-732,225	-57,954	0,047	0,015
-731,210	800,000	0,030	0,066
-730,196	800,000	0,017	0,045
-729,181	-200,000	0,007	0,099
-728,167	647,110	0,023	-0,043
-727,152	-92,470	0,073	0,015
-726,137	-17,939	0,040	-0,019
-725,123	-200,000	-0,006	-0,061
-724,108	-27,097	-0,129	-0,055
-723,094	-108,396	-0,126	0,020
-722,079	296,901	-0,054	-0,073
-721,064	618,730	0,044	-0,083
-720,050	-134,187	0,035	-0,003
-719,035	-114,803	-0,118	0,017
-718,021	-200,000	-0,030	0,189
-717,006	-173,502	-0,123	0,003
-715,991	-200,000	-0,008	-0,172
-714,977	162,650	-0,078	-0,081
-713,962	149,706	0,067	-0,067
-712,948	9,255	-0,173	-0,096
-711,933	800,000	-0,044	-0,129
-710,918	800,000	-0,023	-0,071
-709,904	-200,000	0,028	-0,128
-708,889	87,101	-0,017	-0,014
-707,875	-101,075	-0,048	0,009
-706,860	800,000	-0,002	0,006
-705,845	-42,403	0,106	-0,040
-704,831	800,000	0,034	-0,103
-703,816	-200,000	-0,028	-0,106
-702,802	-200,000	-0,002	0,025
-701,787	-171,458	-0,101	0,002
-700,772	37,404	-0,042	0,027
-699,758	121,720	-0,062	-0,058
-698,743	-112,136	-0,051	-0,008
-697,729	-200,000	0,027	0,131
-696,714	18,324	-0,127	-0,075
-695,699	-129,958	0,130	0,013
-694,685	-200,000	-0,018	-0,180
-693,670	-88,814	0,041	0,009
-692,656	25,164	-0,064	-0,039
-691,641	-200,000	-0,014	0,084
-690,627	104,190	-0,030	0,026
-689,612	-200,000	0,027	-0,090
-688,597	-200,000	0,031	0,103
-687,583	-200,000	-0,022	-0,151
-686,568	800,000	0,030	0,076
-685,554	-37,420	0,097	-0,038
-684,539	211,578	0,074	0,086
-683,524	145,477	0,039	0,039
-682,510	-200,000	-0,015	-0,059
-681,495	800,000	0,025	0,070
-680,481	-156,736	-0,152	-0,007
-679,466	-200,000	-0,015	-0,092
-678,451	800,000	-0,040	-0,102
-677,437	70,820	0,100	-0,077
-676,422	64,995	-0,073	-0,055
-675,408	-200,000	0,005	-0,024
-674,393	-200,000	0,003	-0,110
-673,378	35,145	0,010	-0,006
-672,364	29,523	-0,080	-0,050
-671,349	30,953	-0,105	-0,066
-670,335	800,000	0,035	-0,114
-669,320	-105,444	0,243	-0,040
-668,305	-200,000	-0,039	-0,144
-667,291	18,018	-0,043	0,025
-666,276	-2,140	0,059	0,031
-665,262	-91,961	0,120	-0,025
-664,247	-188,871	-0,087	-0,001
-663,232	368,497	-0,117	-0,176
-662,218	-41,882	-0,046	0,017
-661,203	73,282	0,096	-0,074
-660,189	-200,000	-0,031	-0,145
-659,174	786,485	-0,037	-0,076
-658,159	-141,737	-0,028	0,002
-657,145	-173,720	0,113	-0,002
-656,130	-200,000	0,004	-0,129
-655,116	-200,000	0,007	0,062
-654,101	800,000	-0,041	-0,085
-653,086	47,110	0,031	0,022
-652,072	128,263	-0,128	-0,120
-651,057	-59,671	0,061	-0,019
-650,043	125,487	-0,052	-0,049
-649,028	800,000	-0,026	0,061
-648,014	800,000	-0,031	0,083
-646,999	800,000	0,026	0,079
-645,984	53,603	0,078	0,055
-644,970	-25,605	-0,213	0,092
-643,955	-95,793	-0,056	0,011
-642,941	800,000	0,026	-0,081
-641,926	321,067	-0,082	0,116
-640,911	70,798	0,080	0,061
-639,897	61,062	-0,072	-0,053
-638,882	-23,723	-0,079	0,035
-637,868	-112,217	0,091	-0,013
-636,853	70,991	-0,117	-0,089
-635,838	-200,000	0,026	-0,176
-634,824	-37,027	-0,105	-0,041
-633,809	-200,000	-0,001	0,055
-632,795	-46,640	0,146	-0,052
-631,780	-137,232	-0,073	0,006
-630,765	-12,101	0,016	0,008
-629,751	-101,500	-0,104	-0,019
-628,736	-200,000	-0,054	-0,193
-627,722	-126,663	0,142	0,015
-626,707	800,000	0,054	-0,158
-625,692	271,899	0,059	0,077
-624,678	-200,000	-0,010	0,105
-623,663	26,878	0,044	0,027
-622,649	11,144	-0,116	0,065
-621,634	384,510	-0,059	-0,090
-620,619	800,000	-0,026	-0,084
-619,605	-200,000	0,001	0,151
-618,590	-100,468	-0,073	0,013
-617,576	142,980	-0,137	0,135
-616,561	62,510	0,090	-0,066
-615,546	-26,828	0,062	0,027
-614,532	-136,447	0,034	-0,003
-613,517	800,000	0,027	-0,066
-612,503	-160,447	-0,121	-0,005
-611,488	800,000	0,050	-0,104
-610,474	800,000	0,017	-0,038
-609,459	22,160	-0,070	0,042
-608,444	800,000	-0,069	-0,141
-607,430	553,894	-0,034	0,060
-606,415	-19,843	-0,058	0,027
-605,401	-200,000	0,010	-0,039
-604,386	-25,219	0,138	0,060
-603,371	-200,000	-0,032	0,114
-602,357	-199,021	-0,098	-0,000
-601,342	656,991	0,018	-0,035
-600,328	-200,000	-0,010	-0,082
-599,313	800,000	-0,014	-0,036
-598,298	-200,000	-0,002	-0,037
-597,284	-200,000	0,006	-0,065
-596,269	-128,441	0,108	0,011
-595,255	591,477	-0,062	-0,114
-594,240	90,078	-0,064	-0,053
-593,225	800,000	0,014	-0,044
-592,211	62,707	-0,060	-0,044
-591,196	-117,970	-0,063	-0,008
-590,182	-108,549	0,069	0,011
-589,167	-20,851	0,195	0,088
-588,152	-200,000	0,020	0,154
-587,138	51,795	-0,028	0,019
-586,123	-200,000	0,008	-0,102
-585,109	-113,546	-0,104	-0,015
-584,094	-36,622	0,068	-0,027
-583,079	223,374	0,058	0,070
-582,065	197,350	0,136	0,154
-581,050	29,419	0,087	0,055
-580,036	21,437	0,071	0,043
-579,021	-91,539	0,089	-0,019
-578,006	-54,913	-0,090	0,030
-576,992	800,000	0,029	0,074
-575,977	-200,000	-0,013	0,145
-574,963	336,590	0,039	0,056
-573,948	-200,000	0,005	-0,043
-572,934	-200,000	-0,027	0,093
-571,919	368,412	0,033	-0,049
-570,904	-100,598	-0,134	-0,024
-569,890	-200,000	-0,002	0,145
-568,875	-56,758	-0,079	0,026
-567,861	117,754	-0,042	0,038
-566,846	90,388	-0,107	0,088
-565,831	-200,000	-0,012	-0,064
-564,817	13,242	-0,093	0,053
-563,802	-123,087	-0,036	-0,004
-562,788	93,275	-0,106	-0,088
-561,773	800,000	0,016	-0,044
-560,758	83,468	-0,077	0,062
-559,744	800,000	0,025	0,065
-558,729	250,620	-0,047	-0,058
-557,715	-126,243	0,015	0,002
-556,700	179,857	0,124	-0,134
-555,685	301,784	-0,110	-0,150
-554,671	93,323	-0,119	-0,099
-553,656	-200,000	-0,004	-0,034
-552,642	297,704	0,077	-0,104
-551,627	-142,938	-0,139	0,010
-550,612	-28,971	-0,047	0,020
-549,598	-200,000	-0,011	-0,143
-548,583	442,253	0,034	-0,055
-547,569	-200,000	0,029	0,125
-546,554	-200,000	0,016	0,125
-545,539	9,081	0,157	0,087
-544,525	800,000	-0,068	-0,142
-543,510	121,292	0,049	-0,045
-542,496	800,000	0,027	-0,064
-541,481	195,022	-0,012	-0,013
-540,466	-158,839	0,011	-0,000
-539,452	147,688	0,071	0,071
-538,437	179,399	-0,061	0,066
-537,423	-166,875	0,013	-0,000
-536,408	118,783	0,147	0,134
-535,393	615,293	0,017	-0,032
-534,379	-200,000	-0,036	-0,133
-533,364	800,000	0,027	0,081
-532,350	-200,000	0,008	-0,034
-531,335	9,350	-0,085	0,047
-530,321	-200,000	-0,002	-0,015
-529,306	-200,000	-0,007	0,024
-528,291	461,256	-0,011	0,018
-527,277	-170,722	-0,167	0,004
-526,262	-13,165	-0,069	0,033
-525,248	-200,000	-0,009	-0,097
-524,233	-200,000	0,007	0,031
-523,218	-30,400	-0,164	-0,068
-522,204	403,419	0,086	0,133
-521,189	89,415	0,063	0,052
-520,175	-200,000	0,002	0,045
-519,160	-200,000	-0,005	-0,136
-518,145	-114,565	-0,056	-0,008
-517,131	171,175	-0,068	-0,071
-516,116	237,124	0,155	0,190
-515,102	-200,000	0,041	0,268
-514,087	71,614	-0,145	-0,110
-513,072	-200,000	0,023	-0,100
-512,058	-14,519	0,083	-0,039
-511,043	14,447	-0,097	-0,055
-510,029	800,000	0,030	0,064
-509,014	800,000	-0,026	0,065
-507,999	-5,774	-0,076	0,038
-506,985	-129,976	-0,060	0,006
-505,970	726,596	-0,111	-0,219
-504,956	-200,000	-0,023	-0,194
-503,941	-200,000	-0,023	-0,113
-502,926	326,267	0,093	0,132
-501,912	-200,000	-0,005	0,102
-500,897	-200,000	0,031	0,135
-499,883	39,554	0,087	-0,057
-498,868	-200,000	-0,005	-0,086
-497,853	800,000	0,045	-0,134
-496,839	-39,743	0,024	0,009
-495,824	179,824	0,076	-0,081
-494,810	-200,000	-0,014	0,086
-493,795	136,251	0,072	0,069
-492,781	-34,608	-0,044	-0,018
-491,766	-100,416	-0,085	0,015
-490,751	-50,163	-0,084	-0,029
-489,737	-138,994	-0,043	0,003
-488,722	671,339	-0,041	-0,079
-487,708	-73,393	0,126	0,034
-486,693	130,001	0,056	-0,053
-485,678	248,674	-0,061	-0,076
-484,664	800,000	-0,029	-0,085
-483,649	-63,485	-0,175	-0,052
-482,635	-200,000	-0,018	-0,088
-481,620	-200,000	-0,002	-0,090
-480,605	-35,483	0,058	-0,023
-479,591	-43,309	0,085	-0,031
-478,576	-18,961	-0,059	0,027
-477,562	606,453	-0,072	0,132
-476,547	450,010	0,031	-0,051
-475,532	-106,245	-0,050	0,008
-474,518	-200,000	-0,001	0,070
-473,503	122,476	0,076	0,070
-472,489	800,000	0,047	0,145
-471,474	153,613	0,059	-0,059
-470,459	-121,095	-0,090	0,011
-469,445	-75,124	0,029	-0,008
-468,430	107,060	-0,057	-0,050
-467,416	-68,825	0,101	-0,029
-466,401	212,287	0,121	0,140
-465,386	-200,000	0,001	0,133
-464,372	-200,000	-0,003	0,048
-463,357	-153,978	-0,200	0,010
-462,343	357,866	-0,055	-0,081
-461,328	-200,000	0,016	-0,057
-460,313	-200,000	0,002	0,008
-459,299	11,750	0,179	0,100
-458,284	-137,711	0,114	-0,009
-457,270	138,528	0,094	0,090
-456,255	431,111	-0,101	0,160
-455,241	71,675	0,094	-0,071
-454,226	4,764	-0,074	0,040
-453,211	-200,000	-0,009	0,148
-452,197	-200,000	-0,003	-0,103
-451,182	511,248	0,060	0,103
-450,168	91,869	0,089	0,073
-449,153	119,523	0,088	-0,080
-448,138	-200,000	-0,011	-0,056
-447,124	454,062	0,035	0,058
-446,109	-148,778	-0,038	-0,002
-445,095	77,824	0,054	-0,043
-444,080	164,245	0,022	0,023
-443,065	800,000	0,054	0,143
-442,051	-200,000	0,036	0,128
-441,036	-22,954	-0,075	0,033
-440,022	-200,000	0,027	-0,133
-439,007	261,826	-0,012	0,016
-437,992	341,587	0,031	-0,045
-436,978	268,789	0,069	-0,089
-435,963	290,355	-0,078	0,104
-434,949	-200,000	0,006	0,099
-433,934	313,651	0,028	0,038
-432,919	-200,000	-0,006	-0,046
-431,905	800,000	0,029	-0,087
-430,890	-96,876	0,147	0,028
-429,876	591,045	-0,060	-0,110
-428,861	618,025	-0,043	0,079
-427,846	158,842	0,035	0,035
-426,832	800,000	-0,043	-0,107
-425,817	-86,863	-0,179	-0,040
-424,803	800,000	-0,016	0,049
-423,788	51,336	0,020	-0,014
-422,773	27,350	-0,023	0,014
-421,759	-130,963	0,065	-0,006
-420,744	-200,000	-0,010	0,056
-419,730	85,444	-0,033	-0,027
-418,715	295,961	0,061	-0,082
-417,701	43,989	-0,064	-0,043
-416,686	41,210	0,052	0,034
-415,671	-104,770	0,177	0,030
-414,657	-200,000	-0,010	0,150
-413,642	-106,053	-0,132	-0,022
-412,628	-200,000	-0,008	-0,099
-411,613	-200,000	0,005	-0,098
-410,598	88,299	0,088	0,071
-409,584	-106,239	0,066	-0,011
-408,569	360,300	0,029	-0,042
-407,555	449,963	0,077	0,125
-406,540	228,076	-0,040	0,048
-405,525	800,000	-0,014	0,040
-404,511	125,755	-0,062	-0,058
-403,496	-166,885	-0,156	0,005
-402,482	188,363	0,080	0,088
-401,467	51,832	0,099	-0,069
-400,452	800,000	0,045	0,096
-399,438	154,114	-0,020	0,020
-398,423	-200,000	0,036	0,134
-397,409	-88,289	-0,103	0,022
-396,394	455,728	-0,036	-0,058
-395,379	-105,103	-0,088	0,015
-394,365	483,307	-0,036	0,060
-393,350	-200,000	-0,002	-0,024
-392,336	-72,263	0,199	0,054
-391,321	42,666	0,078	-0,052
-390,306	165,246	-0,104	-0,108
-389,292	-184,859	0,215	-0,002
-388,277	400,210	0,040	-0,062
-387,263	-200,000	-0,006	0,078
-386,248	31,113	0,226	-0,141
-385,233	74,944	-0,018	0,014
-384,219	-60,012	0,094	-0,029
-383,204	50,809	-0,090	-0,063
-382,190	-87,605	0,033	0,007
-381,175	-200,000	-0,035	-0,126
-380,160	-200,000	-0,016	0,100
-379,146	-200,000	-0,009	0,135
-378,131	800,000	-0,033	0,090
-377,117	340,899	-0,070	0,100
-376,102	800,000	-0,034	-0,103
-375,088	55,816	-0,152	-0,108
-374,073	-25,788	0,085	-0,037
-373,058	-71,919	0,198	-0,054
-372,044	-32,969	-0,071	-0,029
-371,029	209,175	0,105	0,121
-370,015	-200,000	0,042	-0,153
-369,000	7,248	0,035	0,019
-367,985	-78,495	0,012	0,003
-366,971	25,402	-0,066	-0,040
-365,956	-39,418	0,042	0,016
-364,942	24,538	0,138	0,083
-363,927	492,046	0,040	0,067
-362,912	330,864	0,086	0,121
-361,898	-200,000	0,036	-0,148
-360,883	98,589	0,048	-0,040
-359,869	-107,647	0,079	0,013
-358,854	67,329	-0,030	-0,022
-357,839	-98,580	-0,116	-0,021
-356,825	-200,000	-0,002	0,014
-355,810	388,830	-0,014	-0,022
-354,796	11,069	0,116	-0,065
-353,781	-157,902	-0,160	0,007
-352,766	-200,000	0,015	0,071
-351,752	43,327	-0,079	-0,052
-350,737	129,558	0,106	-0,099
-349,723	83,809	0,110	0,087
-348,708	142,811	-0,031	-0,030
-347,693	-200,000	-0,016	-0,066
-346,679	45,531	0,136	-0,091
-345,664	-44,794	0,013	0,005
-344,650	-185,679	0,066	-0,001
-343,635	621,885	0,117	0,216
-342,620	-35,559	-0,085	-0,034
-341,606	-200,000	0,001	0,058
-340,591	145,664	-0,120	-0,117
-339,577	-70,096	0,204	0,056
-338,562	-200,000	0,004	0,055
-337,548	725,888	0,015	-0,030
-336,533	19,576	0,108	-0,064
-335,518	800,000	0,022	0,057
-334,504	124,171	0,101	0,093
-333,489	-39,556	-0,020	-0,007
-332,475	-8,439	0,175	-0,086
-331,460	-200,000	0,002	-0,152
-330,445	-200,000	-0,005	0,074
-329,431	34,765	0,058	0,037
-328,416	-200,000	0,001	0,019
-327,402	61,812	0,040	-0,029
-326,387	-200,000	0,011	-0,109
-325,372	800,000	-0,018	-0,043
-324,358	-125,183	0,102	-0,011
-323,343	-200,000	-0,011	0,141
-322,329	-200,000	-0,022	0,101
-321,314	-200,000	0,007	0,023
-320,299	21,294	0,057	-0,034
-319,285	128,017	-0,043	0,040
-318,270	-7,810	0,092	-0,045
-317,256	286,760	-0,063	-0,084
-316,241	312,340	-0,074	-0,101
-315,226	113,567	-0,024	0,021
-314,212	-72,503	0,087	-0,023
-313,197	-200,000	-0,012	-0,099
-312,183	240,942	-0,047	0,057
-311,168	-200,000	-0,046	-0,166
-310,153	-49,603	-0,129	0,045
-309,139	514,772	0,031	-0,052
-308,124	-85,900	-0,181	0,041
-307,110	-61,787	0,027	0,008
-306,095	-115,249	0,062	-0,008
-305,080	-200,000	-0,027	0,148
-304,066	41,634	-0,093	0,062
-303,051	171,597	0,028	-0,029
-302,037	-200,000	0,021	-0,098
-301,022	800,000	-0,003	0,010
-300,008	-100,570	-0,078	-0,014
-298,993	170,689	-0,073	-0,076
-297,978	-200,000	-0,004	-0,155
-296,964	62,273	0,053	-0,039
-295,949	-200,000	-0,010	-0,139
-294,935	-33,049	-0,094	0,038
-293,920	800,000	0,018	-0,056
-292,905	627,724	0,031	-0,057
-291,891	58,927	0,061	0,044
-290,876	-82,065	-0,077	0,018
-289,862	61,277	-0,028	-0,020
-288,847	240,241	0,057	-0,070
-287,832	252,207	-0,019	0,024
-286,818	616,686	0,011	-0,020
-285,803	5,241	-0,136	0,073
-284,789	24,668	0,055	0,033
-283,774	-200,000	-0,008	-0,048
-282,759	126,098	-0,057	0,053
-281,745	282,219	0,049	-0,064
-280,730	127,207	0,045	0,042
-279,716	66,469	-0,063	0,047
-278,701	-84,280	0,033	-0,007
-277,686	792,525	-0,026	0,053
-276,672	-200,000	-0,017	-0,068
-275,657	48,800	-0,108	-0,074
-274,643	-24,674	-0,122	0,053
-273,628	-156,309	-0,057	0,003
-272,613	-200,000	-0,038	0,135
-271,599	87,591	0,024	-0,020
-270,584	140,820	-0,124	0,119
-269,570	186,172	-0,099	0,108
-268,555	11,946	-0,097	-0,054
-267,540	99,458	0,115	-0,097
-266,526	-200,000	0,026	-0,091
-265,511	41,326	0,118	-0,078
-264,497	800,000	0,024	-0,058
-263,482	-52,247	0,113	0,038
-262,467	525,893	0,043	0,075
-261,453	68,501	0,079	0,059
-260,438	-200,000	-0,001	-0,018
-259,424	396,929	0,055	-0,084
-258,409	-59,904	-0,074	0,023
-257,395	-200,000	-0,002	0,015
-256,380	-200,000	0,007	-0,038
-255,365	144,617	0,080	-0,078
-254,351	-64,825	-0,051	0,015
-253,336	370,851	0,059	-0,087
-252,322	-200,000	0,042	-0,155
-251,307	55,140	-0,062	-0,043
-250,292	-31,794	-0,050	-0,020
-249,278	29,985	-0,044	0,027
-248,263	-137,875	-0,048	0,004
-247,249	480,396	0,020	0,034
-246,234	800,000	0,011	-0,034
-245,219	192,385	0,085	0,093
-244,205	-66,541	-0,028	0,008
-243,190	800,000	0,050	-0,141
-242,176	-200,000	0,006	0,061
-241,161	77,264	0,038	0,030
-240,146	-79,723	0,030	-0,007
-239,132	-200,000	-0,001	-0,061
-238,117	-200,000	0,033	-0,176
-237,103	800,000	-0,041	0,085
-236,088	800,000	-0,059	0,140
-235,073	-200,000	-0,016	-0,151
-234,059	-200,000	0,052	0,223
-233,044	-69,047	-0,139	0,039
-232,030	-48,763	-0,129	0,045
-231,015	-200,000	-0,022	-0,158
-230,000	-200,000	0,033	-0,139
-228,986	133,369	-0,084	0,079
-227,971	800,000	0,022	-0,065
-226,957	-200,000	0,001	0,125
-225,942	-91,442	-0,080	0,016
-224,927	-200,000	-0,020	0,140
-223,913	-31,944	-0,148	0,060
-222,898	-200,000	0,007	-0,056
-221,884	197,801	-0,057	-0,064
-220,869	-153,840	0,127	0,006
-219,855	385,454	0,069	-0,104
-218,840	800,000	0,051	0,109
-217,825	287,709	-0,034	0,045
-216,811	298,141	0,023	-0,030
-215,796	58,542	-0,121	-0,086
-214,782	-200,000	-0,012	-0,089
-213,767	279,914	0,015	-0,019
-212,752	384,417	0,048	0,072
-211,738	-102,807	0,061	-0,010
-210,723	57,567	0,011	-0,008
-209,709	89,950	-0,120	0,097
-208,694	-125,283	-0,085	0,009
-207,679	-200,000	0,010	-0,094
-206,665	-200,000	-0,006	0,100
-205,650	-200,000	0,013	0,069
-204,636	800,000	0,026	0,064
-203,621	623,210	0,027	-0,049
-202,606	-1,452	-0,047	0,024
-201,592	800,000	-0,042	-0,107
-200,577	12,335	0,043	0,024
-199,563	775,267	-0,053	-0,106
-198,548	160,163	-0,048	-0,048
-197,533	4,410	-0,033	-0,017
-196,519	-65,243	0,024	-0,007
-195,504	430,375	-0,057	-0,090
-194,490	800,000	0,029	-0,078
-193,475	100,348	-0,068	0,057
-192,460	-200,000	0,030	0,130
-191,446	-200,000	0,015	-0,136
-190,431	76,575	0,178	0,137
-189,417	-84,372	0,120	0,027
-188,402	-63,448	0,116	-0,035
-187,387	607,333	-0,055	0,100
-186,373	664,377	-0,038	0,072
-185,358	-11,995	-0,036	0,017
-184,344	387,020	0,065	0,098
-183,329	537,383	-0,065	0,113
-182,315	-117,700	-0,092	0,012
-181,300	6,089	0,007	-0,004
-180,285	800,000	0,022	-0,060
-179,271	339,284	-0,059	-0,084
-178,256	-104,373	-0,128	0,021
-177,242	196,072	0,115	0,127
-176,227	1,522	-0,035	-0,018
-175,212	323,598	-0,031	-0,042
-174,198	-75,666	0,100	0,026
-173,183	-200,000	-0,011	-0,052
-172,169	-200,000	-0,011	-0,097
-171,154	375,947	-0,047	-0,069
-170,139	130,275	-0,046	0,043
-169,125	-106,733	-0,060	0,010
-168,110	65,349	0,102	0,075
-167,096	800,000	0,003	-0,006
-166,081	-200,000	0,040	0,175
-165,066	-26,909	-0,046	-0,019
-164,052	-87,418	-0,049	0,011
-163,037	-200,000	0,015	-0,100
-162,023	346,194	-0,075	0,107
-161,008	25,865	0,165	0,100
-159,993	-129,064	-0,087	-0,009
-158,979	152,448	-0,124	-0,123
-157,964	-200,000	-0,007	0,068
-156,950	800,000	-0,018	0,039
-155,935	392,562	0,055	0,083
-154,920	-114,494	0,166	-0,023
-153,906	-63,177	-0,066	0,019
-152,891	-117,619	0,056	-0,007
-151,877	-150,273	0,066	-0,004
-150,862	-200,000	0,052	-0,198
-149,847	-200,000	-0,023	-0,142
-148,833	47,366	-0,057	0,038
-147,818	684,031	-0,043	0,081
-146,804	-100,271	-0,042	0,008
-145,789	-200,000	-0,007	0,140
-144,775	90,912	-0,083	0,067
-143,760	675,488	0,053	0,100
-142,745	73,554	-0,025	0,019
-141,731	-200,000	0,003	0,045
-140,716	189,359	0,023	0,025
-139,702	134,909	0,092	0,087
-138,687	618,893	-0,016	-0,030
-137,672	-168,691	-0,191	-0,005
-136,658	110,078	-0,004	-0,004
-135,643	20,783	0,044	-0,026
-134,629	181,813	0,064	0,069
-133,614	50,749	0,100	-0,068
-132,599	307,083	0,096	-0,130
-131,585	54,174	0,115	0,080
-130,570	143,987	-0,079	-0,076
-129,556	571,893	-0,052	-0,093
-128,541	800,000	-0,042	-0,109
-127,526	352,753	-0,040	-0,057
-126,512	-78,774	0,049	0,012
-125,497	73,386	0,047	0,036
-124,483	568,362	0,067	0,118
-123,468	745,392	-0,038	0,075
-122,453	800,000	-0,027	-0,071
-121,439	800,000	0,012	-0,030
-120,424	800,000	0,032	0,066
-119,410	-6,900	0,036	-0,018
-118,395	73,245	0,046	-0,035
-117,380	317,104	0,038	0,052
-116,366	322,100	0,080	0,111
-115,351	292,710	0,008	0,010
-114,337	32,384	0,069	-0,043
-113,322	20,389	-0,031	0,018
-112,307	302,361	0,041	0,056
-111,293	-2,044	0,098	0,050
-110,278	93,651	0,129	0,106
-109,264	360,243	0,023	0,034
-108,249	-84,021	-0,099	-0,023
-107,234	221,304	-0,047	-0,055
-106,220	503,347	-0,032	-0,054
-105,205	800,000	-0,045	-0,092
-104,191	800,000	0,055	0,175
-103,176	-200,000	-0,010	-0,063
-102,162	441,294	-0,050	-0,079
-101,147	195,830	0,029	0,032
-100,132	59,057	0,051	0,036
-99,118	-190,347	0,077	0,001
-98,103	-200,000	-0,015	-0,125
-97,089	-58,903	-0,086	-0,027
-96,074	273,019	-0,109	0,140
-95,059	800,000	-0,039	0,083
-94,045	14,800	-0,046	-0,026
-93,030	-99,955	-0,023	0,004
-92,016	482,037	0,050	-0,083
-91,001	330,953	-0,043	0,060
-89,986	-15,252	0,132	0,061
-88,972	-2,703	0,097	0,049
-87,957	40,668	0,046	0,030
-86,943	-200,000	-0,005	-0,085
-85,928	-5,408	0,080	0,040
-84,913	-200,000	0,004	-0,057
-83,899	800,000	-0,019	0,048
-82,884	31,524	0,046	0,029
-81,870	235,982	0,032	0,038
-80,855	-200,000	-0,016	-0,055
-79,840	800,000	0,006	0,013
-78,826	159,528	-0,077	-0,077
-77,811	94,005	0,018	0,015
-76,797	-47,884	0,030	-0,010
-75,782	-129,595	0,087	-0,009
-74,767	-200,000	0,002	0,057
-73,753	800,000	-0,052	0,121
-72,738	-168,569	-0,082	0,002
-71,724	176,360	-0,094	-0,099
-70,709	396,568	0,139	-0,210
-69,694	142,894	-0,065	-0,063
-68,680	-80,602	0,090	-0,021
-67,665	800,000	0,021	-0,063
-66,651	36,227	0,108	0,069
-65,636	-61,511	0,020	0,006
-64,622	800,000	0,039	0,084
-63,607	-55,241	-0,101	0,033
-62,592	271,194	-0,066	-0,084
-61,578	-200,000	-0,001	-0,011
-60,563	-59,410	0,093	0,029
-59,549	800,000	0,052	0,107
-58,534	-83,989	-1,566	-0,357
-57,519	800,000	-0,606	-1,265
-56,505	-200,000	-0,939	-4,493
-55,490	-134,655	0,792	0,069
-54,476	800,000	5,134	11,567
-53,461	-200,000	15,090	261,724
-52,446	800,000	698,256	2213,768
-51,432	563,414	1619,210	2842,858
-50,417	120,259	1625,619	1457,248
-49,403	80,249	1280,880	994,529
-48,388	37,650	1020,864	653,096
-47,373	22,570	981,163	578,314
-46,359	21,645	970,369	568,904
-45,344	20,269	966,055	561,873
-44,330	20,267	964,666	561,038
-43,315	20,074	963,184	559,528
-42,300	20,051	962,149	558,828
-41,286	19,976	961,475	558,171
-40,271	20,021	960,393	557,668
-39,257	20,060	959,395	557,192
-38,242	20,037	958,599	556,632
-37,227	20,047	957,660	556,098
-36,213	19,974	956,872	555,383
-35,198	19,982	955,874	554,808
-34,184	19,987	955,232	554,428
-33,169	19,961	954,377	553,828
-32,154	20,047	953,169	553,382
-31,140	19,986	952,424	552,730
-30,125	19,953	951,830	552,257
-29,111	20,021	950,743	551,823
-28,096	20,063	950,192	551,614
-27,082	20,017	949,663	551,139
-26,067	19,970	948,856	550,498
-25,052	20,002	947,924	550,040
-24,038	20,033	947,408	549,818
-23,023	19,978	946,619	549,161
-22,009	20,029	946,131	549,020
-20,994	20,033	945,389	548,579
-19,979	20,108	944,806	548,458
-18,965	20,059	944,122	547,884
-17,950	20,008	943,704	547,457
-16,936	19,950	943,098	546,899
-15,921	19,891	942,428	546,301
-14,906	19,922	941,326	545,739
-13,892	19,910	940,974	545,475
-12,877	19,834	940,327	544,839
-11,863	19,865	939,622	544,507
-10,848	19,860	939,315	544,291
-9,833	19,991	938,725	544,340
-8,819	19,988	938,111	543,954
-7,804	19,852	937,650	543,236
-6,790	19,905	936,937	542,968
-5,775	19,982	936,092	542,700
-4,760	19,885	935,676	542,130
-3,746	19,831	935,201	541,664
-2,731	19,821	934,402	541,149
-1,717	19,696	933,635	540,291
-0,702	19,711	932,961	539,927
0,313	19,518	932,233	539,715
1,327	22,102	930,092	546,523
2,342	29,693	805,568	493,801
3,356	24,537	506,814	301,899
4,371	1,173	373,762	192,993
5,386	-1,680	356,922	180,791
6,400	-2,980	350,966	176,191
7,415	-3,590	347,905	173,911
8,429	-3,828	346,455	172,888
9,444	-3,892	345,462	172,300
10,459	-3,974	344,953	171,934
11,473	-4,134	344,281	171,394
12,488	-3,852	343,687	171,416
13,502	-3,896	343,032	171,023
14,517	-4,024	342,592	170,638
15,531	-4,293	342,025	170,025
16,546	-4,305	341,460	169,714
17,561	-4,413	340,989	169,338
18,575	-4,288	340,562	169,257
19,590	-4,328	340,274	169,052
20,604	-4,350	339,843	168,798
21,619	-4,435	339,502	168,514
22,634	-4,345	339,183	168,446
23,648	-4,406	338,840	168,190
24,663	-4,396	338,573	168,054
25,677	-4,473	338,204	167,766
26,692	-4,444	337,857	167,612
27,707	-4,528	337,604	167,375
28,721	-4,362	337,229	167,366
29,736	-4,406	336,810	167,092
30,750	-4,464	336,777	166,994
31,765	-4,456	336,349	166,776
32,780	-4,398	336,040	166,674
33,794	-4,467	335,817	166,470
34,809	-4,451	335,379	166,256
35,823	-4,471	335,160	166,110
36,838	-4,488	334,847	165,920
37,853	-4,507	334,512	165,718
38,867	-4,605	334,497	165,584
39,882	-4,510	334,076	165,469
40,896	-4,497	333,741	165,303
41,911	-4,520	333,597	165,191
42,926	-4,397	333,193	165,117
43,940	-4,549	332,880	164,773
44,955	-4,599	332,723	164,624
45,969	-4,674	332,409	164,368
46,984	-4,542	331,990	164,296
47,999	-4,880	331,770	163,789
49,013	-4,941	331,597	163,620
50,028	-4,936	331,255	163,442
51,042	-4,993	330,856	163,166
52,057	-5,008	330,688	163,052
53,071	-4,930	330,526	163,046
54,086	-4,967	330,226	162,841
55,101	-4,939	330,086	162,789
56,115	-4,756	329,808	162,845
57,130	-4,362	329,710	163,226
58,144	-4,347	329,468	163,109
59,159	-4,196	329,110	163,086
60,174	-4,287	328,833	162,832
61,188	-4,470	328,727	162,560
62,203	-4,325	328,378	162,536
63,217	-4,354	328,065	162,334
64,232	-4,332	327,914	162,269
65,247	-4,056	327,704	162,459
66,261	-4,255	327,281	162,013
67,276	-4,514	327,123	161,631
68,290	-4,644	326,704	161,264
69,305	-4,641	326,533	161,169
70,320	-4,644	326,258	161,015
71,334	-4,419	325,935	161,092
72,349	-4,239	325,840	161,231
73,363	-4,221	325,554	161,096
74,378	-4,398	325,360	160,788
75,393	-4,301	325,176	160,791
76,407	-4,353	324,924	160,594
77,422	-4,380	324,700	160,438
78,436	-4,214	324,305	160,413
79,451	-4,155	323,982	160,304
80,466	-4,270	323,635	159,992
81,480	-4,525	323,421	159,590
82,495	-4,563	323,245	159,447
83,509	-4,411	323,027	159,493
84,524	-4,572	322,746	159,163
85,539	-4,694	322,454	158,870
86,553	-4,804	322,172	158,596
87,568	-4,565	321,891	158,706
88,582	-4,558	321,894	158,701
89,597	-4,640	321,549	158,427
90,611	-4,528	321,362	158,444
91,626	-4,337	321,192	158,555
92,641	-4,398	320,950	158,355
93,655	-4,362	320,498	158,156
94,670	-4,572	320,342	157,836
95,684	-4,429	320,046	157,832
96,699	-4,510	320,067	157,740
97,714	-4,480	319,528	157,493
98,728	-4,654	319,339	157,197
99,743	-4,688	319,326	157,139
100,757	-4,671	318,953	156,960
101,772	-4,645	318,584	156,792
102,787	-4,680	318,513	156,705
103,801	-4,490	318,215	156,751
104,816	-4,556	318,167	156,642
105,830	-4,426	317,909	156,642
106,845	-4,497	317,798	156,497
107,860	-4,354	317,508	156,494
108,874	-4,479	317,161	156,174
109,889	-4,469	316,896	156,041
110,903	-4,459	316,676	155,928
111,918	-4,352	316,427	155,908
112,933	-4,452	316,185	155,667
113,947	-4,486	316,088	155,569
114,962	-4,302	315,644	155,535
115,976	-4,436	315,669	155,388
116,991	-4,468	315,462	155,238
118,006	-4,342	315,053	155,158
119,020	-4,340	314,978	155,109
120,035	-4,451	314,966	154,971
121,049	-4,361	314,776	154,960
122,064	-4,355	314,290	154,713
123,079	-4,382	314,141	154,598
124,093	-4,410	313,843	154,407
125,108	-4,523	313,674	154,189
126,122	-4,574	313,403	153,989
127,137	-4,916	313,009	153,418
128,151	-4,684	312,960	153,626
129,166	-4,652	312,632	153,485
130,181	-4,600	312,425	153,425
131,195	-4,803	312,294	153,132
132,210	-4,483	311,914	153,271
133,224	-4,499	312,003	153,285
134,239	-4,403	311,615	153,181
135,254	-4,262	311,289	153,157
136,268	-4,501	311,066	152,781
137,283	-4,662	310,701	152,418
138,297	-4,761	310,550	152,226
139,312	-4,645	310,406	152,264
140,327	-4,450	310,242	152,376
141,341	-4,211	309,999	152,494
142,356	-4,077	309,821	152,534
143,370	-4,012	309,766	152,561
144,385	-4,194	309,721	152,335
145,400	-4,160	309,380	152,189
146,414	-4,082	309,032	152,086
147,429	-4,093	308,856	151,975
148,443	-3,951	308,539	151,953
149,458	-4,090	308,404	151,728
150,473	-4,012	308,262	151,726
151,487	-4,203	307,983	151,376
152,502	-4,182	307,803	151,295
153,516	-4,142	307,529	151,189
154,531	-4,158	307,440	151,115
155,546	-4,136	307,143	150,979
156,560	-4,313	306,913	150,668
157,575	-4,227	306,511	150,546
158,589	-4,143	306,273	150,504
159,604	-4,201	306,266	150,426
160,619	-4,091	306,150	150,471
161,633	-4,192	305,843	150,201
162,648	-4,083	305,600	150,181
163,662	-4,096	305,437	150,074
164,677	-4,169	305,261	149,899
165,692	-4,180	305,038	149,764
166,706	-4,124	304,969	149,775
167,721	-4,117	304,795	149,684
168,735	-3,976	304,462	149,652
169,750	-4,012	304,305	149,525
170,764	-3,988	304,213	149,490
171,779	-3,993	303,915	149,326
172,794	-4,033	303,798	149,214
173,808	-4,074	303,429	148,977
174,823	-4,450	303,092	148,413
175,837	-4,551	302,821	148,163
176,852	-4,203	302,816	148,504
177,867	-3,938	302,715	148,713
178,881	-3,978	302,547	148,576
179,896	-4,062	302,353	148,382
180,910	-4,021	302,145	148,309
181,925	-4,051	301,883	148,136
182,940	-3,800	301,501	148,192
183,954	-4,033	301,581	147,979
184,969	-4,083	301,224	147,740
185,983	-4,207	301,157	147,568
186,998	-4,056	300,968	147,616
188,013	-3,905	300,733	147,641
189,027	-3,929	300,516	147,497
190,042	-3,867	300,200	147,392
191,056	-3,694	300,123	147,516
192,071	-3,702	299,995	147,432
193,086	-3,825	299,721	147,159
194,100	-3,914	299,531	146,963
195,115	-3,861	299,226	146,854
196,129	-3,884	299,085	146,749
197,144	-3,941	298,840	146,558
198,159	-3,882	298,692	146,531
199,173	-3,943	298,502	146,364
200,188	-3,540	298,150	146,583
201,202	-3,854	297,957	146,160
202,217	-4,406	297,600	145,417
203,232	-4,488	297,446	145,246
204,246	-4,108	297,226	145,508
205,261	-3,943	297,111	145,604
206,275	-3,890	296,964	145,571
207,290	-3,904	296,794	145,461
208,304	-3,943	296,708	145,367
209,319	-4,010	296,416	145,144
210,334	-4,018	296,229	145,032
211,348	-3,934	295,908	144,946
212,363	-3,721	295,618	145,003
213,377	-3,837	295,605	144,867
214,392	-4,048	295,445	144,567
215,407	-4,214	295,043	144,192
216,421	-4,152	294,782	144,113
217,436	-4,308	294,659	143,884
218,450	-4,055	294,586	144,088
219,465	-4,211	294,471	143,863
220,480	-4,129	294,350	143,873
221,494	-4,010	294,127	143,869
222,509	-3,940	293,859	143,795
223,523	-3,932	293,547	143,637
224,538	-4,092	293,477	143,432
225,553	-3,856	293,410	143,619
226,567	-3,882	293,180	143,468
227,582	-4,001	293,049	143,274
228,596	-3,731	292,841	143,426
229,611	-3,887	292,726	143,203
230,626	-3,998	292,494	142,968
231,640	-4,209	292,162	142,585
232,655	-4,536	291,793	142,070
233,669	-4,402	291,456	142,026
234,684	-4,386	291,309	141,957
235,699	-4,391	291,312	141,941
236,713	-4,335	291,053	141,857
237,728	-4,161	290,961	141,970
238,742	-4,134	290,787	141,899
239,757	-4,016	290,732	141,974
240,772	-4,015	290,470	141,835
241,786	-3,938	290,000	141,668
242,801	-4,056	289,988	141,535
243,815	-4,179	289,877	141,347
244,830	-4,004	289,604	141,373
245,844	-4,026	289,423	141,250
246,859	-4,236	289,362	141,003
247,874	-4,268	289,067	140,815
248,888	-3,918	288,883	141,054
249,903	-3,789	288,702	141,078
250,917	-3,818	288,651	141,012
251,932	-3,521	288,569	141,247
252,947	-2,993	288,643	141,783
253,961	-3,118	288,472	141,566
254,976	-2,197	288,731	142,573
255,990	0,452	289,570	145,548
257,005	0,493	289,497	145,538
258,020	1,739	289,970	146,973
259,034	2,544	289,934	147,723
260,049	2,590	289,783	147,677
261,063	2,244	289,414	147,141
262,078	2,564	289,391	147,426
263,093	2,991	289,429	147,846
264,107	3,047	289,352	147,848
265,122	3,227	289,133	147,897
266,136	3,524	288,891	148,046
267,151	3,326	288,687	147,737
268,166	3,431	288,237	147,594
269,180	3,174	288,245	147,338
270,195	3,145	288,106	147,226
271,209	2,977	287,838	146,915
272,224	3,027	287,695	146,877
273,239	2,883	287,515	146,633
274,253	2,841	287,327	146,484
275,268	3,154	287,219	146,715
276,282	3,171	286,971	146,592
277,297	3,169	286,773	146,476
278,312	3,133	286,622	146,351
279,326	3,286	286,573	146,460
280,341	3,436	286,278	146,439
281,355	3,017	286,143	145,958
282,370	3,095	285,847	145,868
283,384	3,238	285,676	145,904
284,399	3,322	285,523	145,892
285,414	3,226	285,348	145,699
286,428	3,235	285,164	145,600
287,443	2,850	284,920	145,097
288,457	2,985	284,524	145,010
289,472	2,789	284,491	144,795
290,487	2,894	284,347	144,808
291,501	2,716	284,025	144,462
292,516	2,632	283,792	144,251
293,530	2,510	283,608	144,030
294,545	2,887	283,563	144,351
295,560	3,090	283,333	144,412
296,574	2,729	283,292	144,037
297,589	2,912	283,065	144,082
298,603	3,135	283,102	144,299
299,618	3,132	282,796	144,127
300,633	2,848	282,709	143,802
301,647	3,062	282,304	143,784
302,662	3,095	282,179	143,739
303,676	2,844	281,870	143,333
304,691	2,373	281,629	142,756
305,706	2,450	281,445	142,722
306,720	2,297	281,237	142,461
307,735	2,237	281,012	142,278
308,749	2,755	280,795	142,639
309,764	2,712	280,801	142,590
310,779	2,335	280,628	142,137
311,793	2,392	280,239	141,980
312,808	2,296	280,170	141,843
313,822	2,440	279,941	141,849
314,837	2,406	279,668	141,666
315,852	2,090	279,553	141,300
316,866	2,291	279,488	141,443
317,881	2,303	279,241	141,316
318,895	2,440	278,930	141,273
319,910	2,149	278,824	140,937
320,925	2,170	278,679	140,871
321,939	2,321	278,636	140,977
322,954	2,615	278,431	141,133
323,968	2,632	278,133	140,985
324,983	2,516	278,051	140,823
325,997	2,712	277,971	140,952
327,012	2,854	277,783	140,975
328,027	2,568	277,537	140,573
329,041	2,677	277,388	140,585
330,056	2,657	277,199	140,459
331,070	2,824	277,018	140,509
332,085	2,531	276,749	140,090
333,100	2,633	276,687	140,140
334,114	2,485	276,448	139,871
335,129	2,183	276,252	139,481
336,143	2,558	276,072	139,722
337,158	2,774	276,042	139,893
338,173	2,548	275,736	139,518
339,187	2,658	275,659	139,567
340,202	2,582	275,639	139,475
341,216	2,821	275,223	139,470
342,231	2,661	274,995	139,197
343,246	2,691	274,875	139,151
344,260	2,752	274,672	139,091
345,275	2,684	274,676	139,019
346,289	3,041	274,639	139,313
347,304	3,065	274,319	139,161
348,319	2,714	274,216	138,776
349,333	2,833	273,879	138,702
350,348	2,920	273,845	138,751
351,362	2,817	273,749	138,596
352,377	2,902	273,453	138,511
353,392	2,991	273,355	138,530
354,406	2,863	273,253	138,350
355,421	191,291	1327,862	1400,214
356,435	154,578	1456,388	1400,281
