DTS Sentinel unit serial number:	SN410029Multiplexer serial number:	ORYXHardware model number:	OX2-SRSoftware version number:	ORYX F/W v4,00 Oryx Data Collector v3.7.2.0data status	okinstallation	B4 Nyhavnadifferential loss correction	single-endedforward channel	channel 2reverse channel	N/Adate	2023/12/16time	03:45:13forward acquisition time	300,00reverse acquisition time	0,00gamma	499,1914k internal	0,3128k external	0,3128temperature offset calibration	1,0000default loss term (dB/km)	0,3820temperature slope calibration	1,0000multiplexer offset coefficient	1,0000multiplexer slope coefficient	1,0000fibre end	0,00T internal ref (°C)	22,00T ext. ref 1 (°C)	7,10T ext. ref 2 (°C)	7,27length (m)	temperature (°C)	Stokes	anti-Stokes-744,400	-200,000	-0,027	-0,133
-743,385	-160,007	-0,153	-0,006
-742,371	211,495	0,086	0,100
-741,356	462,754	-0,147	0,246
-740,342	-42,357	0,071	-0,027
-739,327	-108,863	-0,284	0,045
-738,312	30,999	-0,060	-0,038
-737,298	81,894	-0,092	0,074
-736,283	-112,418	0,130	0,019
-735,269	-8,782	-0,317	0,158
-734,254	800,000	0,033	0,095
-733,239	-80,968	-0,544	-0,133
-732,225	-96,587	0,226	0,044
-731,210	-200,000	-0,021	0,070
-730,196	-150,879	-0,123	0,007
-729,181	-95,416	-0,135	0,027
-728,167	-128,912	-0,138	-0,014
-727,152	34,586	-0,114	-0,074
-726,137	537,003	-0,046	-0,081
-725,123	632,105	-0,039	0,073
-724,108	-200,000	-0,044	-0,184
-723,094	-200,000	-0,003	-0,028
-722,079	800,000	-0,022	0,056
-721,064	-17,293	-0,111	-0,052
-720,050	-172,819	0,038	-0,001
-719,035	156,712	-0,007	0,007
-718,021	800,000	-0,043	-0,121
-717,006	-16,121	-0,145	-0,068
-715,991	-140,866	-0,097	-0,007
-714,977	-141,804	-0,048	0,003
-713,962	-109,019	0,034	0,005
-712,948	-56,869	-0,036	-0,012
-711,933	321,597	0,055	-0,078
-710,918	-200,000	0,021	-0,108
-709,904	-91,985	-0,191	0,040
-708,889	-37,740	0,009	0,003
-707,875	800,000	-0,062	-0,171
-706,860	-200,000	-0,033	0,000
-705,845	-200,000	-0,017	0,095
-704,831	-200,000	0,014	-0,072
-703,816	800,000	-0,023	0,051
-702,802	199,148	-0,092	-0,104
-701,787	136,574	-0,066	-0,064
-700,772	-78,314	-0,079	0,020
-699,758	-70,637	0,114	0,032
-698,743	154,699	-0,085	-0,087
-697,729	276,341	0,043	0,057
-696,714	280,389	-0,040	0,053
-695,699	800,000	0,037	0,116
-694,685	-103,410	-0,035	-0,006
-693,670	-141,451	-0,051	0,004
-692,656	800,000	0,030	0,068
-691,641	-111,391	-0,035	-0,005
-690,627	127,200	0,120	-0,113
-689,612	-17,743	0,032	0,015
-688,597	63,721	-0,112	-0,084
-687,583	149,422	-0,241	-0,242
-686,568	800,000	-0,029	-0,062
-685,554	508,352	-0,025	-0,043
-684,539	-84,877	0,085	0,020
-683,524	-200,000	-0,004	0,020
-682,510	-66,190	0,059	0,017
-681,495	129,614	0,042	-0,040
-680,481	92,290	-0,068	0,057
-679,466	-137,724	-0,070	-0,006
-678,451	357,908	-0,030	-0,045
-677,437	-95,888	0,065	-0,013
-676,422	-160,441	0,109	0,004
-675,408	6,623	-0,087	-0,048
-674,393	-15,947	0,083	-0,039
-673,378	0,589	-0,005	0,003
-672,364	-29,063	-0,105	-0,045
-671,349	-200,000	-0,020	-0,137
-670,335	253,380	0,045	-0,057
-669,320	35,345	-0,128	0,083
-668,305	-200,000	0,006	-0,064
-667,291	-59,116	-0,031	0,010
-666,276	104,790	-0,071	-0,062
-665,262	795,780	-0,045	-0,093
-664,247	800,000	-0,022	0,066
-663,232	-200,000	-0,020	0,119
-662,218	135,023	0,044	-0,043
-661,203	-71,104	0,153	0,042
-660,189	-76,502	-0,049	-0,013
-659,174	-118,222	-0,118	-0,015
-658,159	-71,048	0,056	-0,016
-657,145	52,886	-0,130	-0,092
-656,130	800,000	-0,027	0,060
-655,116	607,969	0,052	-0,097
-654,101	-135,481	0,105	0,009
-653,086	485,890	0,006	-0,011
-652,072	800,000	-0,013	-0,035
-651,057	-106,909	0,090	-0,015
-650,043	76,999	-0,122	-0,096
-649,028	-62,001	-0,051	0,016
-648,014	-200,000	0,007	0,087
-646,999	332,818	-0,124	0,179
-645,984	-200,000	-0,004	-0,060
-644,970	-200,000	0,036	0,152
-643,955	-73,464	-0,148	-0,040
-642,941	375,135	0,023	0,035
-641,926	567,419	0,033	-0,059
-640,911	-200,000	0,007	-0,117
-639,897	10,466	-0,060	-0,034
-638,882	257,318	-0,069	-0,088
-637,868	-145,306	-0,132	0,009
-636,853	408,213	-0,076	-0,119
-635,838	262,222	0,084	-0,109
-634,824	-20,433	0,017	0,008
-633,809	-93,565	0,126	0,026
-632,795	-200,000	0,002	0,069
-631,780	-200,000	-0,052	-0,172
-630,765	-200,000	-0,022	-0,116
-629,751	324,473	-0,081	-0,115
-628,736	316,759	0,047	-0,066
-627,722	-130,944	0,075	-0,007
-626,707	-119,184	-0,009	-0,001
-625,692	-176,162	-0,032	-0,001
-624,678	190,421	0,023	0,025
-623,663	-200,000	0,006	0,171
-622,649	-36,563	0,066	0,026
-621,634	2,686	0,068	-0,037
-620,619	-59,853	-0,075	0,024
-619,605	-103,816	-0,100	0,017
-618,590	-57,165	0,086	0,028
-617,576	-139,569	-0,023	0,002
-616,561	800,000	-0,006	-0,018
-615,546	18,050	0,091	0,053
-614,532	0,310	-0,130	-0,069
-613,517	800,000	0,041	-0,123
-612,503	-200,000	-0,014	0,070
-611,488	3,664	-0,053	0,029
-610,474	-200,000	0,020	-0,115
-609,459	800,000	0,047	-0,112
-608,444	692,550	-0,060	-0,118
-607,430	539,371	0,114	-0,202
-606,415	635,891	0,093	-0,176
-605,401	37,108	-0,095	-0,062
-604,386	-115,718	0,032	-0,004
-603,371	-200,000	-0,014	0,154
-602,357	96,489	0,050	-0,042
-601,342	-55,186	-0,064	0,021
-600,328	-37,033	-0,077	0,030
-599,313	129,980	-0,068	0,064
-598,298	-200,000	-0,004	-0,119
-597,284	415,825	0,060	0,094
-596,269	-200,000	0,011	-0,084
-595,255	730,520	-0,022	-0,045
-594,240	-35,920	-0,164	0,065
-593,225	100,878	0,082	-0,071
-592,211	-101,971	-0,100	0,018
-591,196	59,528	-0,116	-0,085
-590,182	375,741	0,079	0,119
-589,167	-143,257	-0,141	-0,010
-588,152	32,311	-0,065	-0,042
-587,138	435,890	-0,035	-0,056
-586,123	-200,000	0,059	-0,284
-585,109	-200,000	-0,001	-0,115
-584,094	800,000	0,032	-0,102
-583,079	7,395	-0,036	0,020
-582,065	336,725	0,082	0,118
-581,050	473,506	0,061	-0,102
-580,036	-80,829	0,104	-0,025
-579,021	0,837	-0,018	0,009
-578,006	274,548	-0,094	-0,123
-576,992	800,000	0,017	-0,045
-575,977	-114,630	-0,045	0,006
-574,963	-132,884	-0,115	0,011
-573,948	208,979	0,035	0,040
-572,934	70,854	0,103	0,079
-571,919	39,238	-0,087	-0,058
-570,904	-200,000	0,015	-0,084
-569,890	82,743	0,096	-0,077
-568,875	-112,050	0,179	-0,026
-567,861	680,568	0,027	0,052
-566,846	215,689	-0,111	0,131
-565,831	-200,000	0,010	-0,041
-564,817	-94,324	-0,068	0,014
-563,802	268,312	-0,018	-0,023
-562,788	-33,609	0,080	-0,032
-561,773	131,842	-0,060	-0,057
-560,758	175,086	0,055	0,059
-559,744	-200,000	0,011	0,042
-558,729	-41,078	-0,223	0,085
-557,715	134,729	-0,067	0,064
-556,700	259,442	-0,075	-0,096
-555,685	181,482	-0,108	-0,117
-554,671	1,282	0,098	-0,052
-553,656	-200,000	-0,010	-0,088
-552,642	667,685	0,034	0,064
-551,627	-200,000	0,005	-0,023
-550,612	420,123	-0,066	-0,104
-549,598	-147,536	-0,067	-0,004
-548,583	227,717	-0,070	-0,084
-547,569	646,182	-0,058	-0,109
-546,554	290,944	-0,062	0,083
-545,539	-200,000	0,013	-0,109
-544,525	-16,409	0,152	0,071
-543,510	602,566	0,076	0,141
-542,496	-200,000	0,020	-0,087
-541,481	-200,000	0,002	-0,067
-540,466	45,745	-0,153	-0,104
-539,452	-200,000	0,001	-0,018
-538,437	-102,549	0,114	-0,020
-537,423	-200,000	-0,029	0,095
-536,408	800,000	-0,059	0,142
-535,393	183,500	0,079	-0,086
-534,379	800,000	-0,022	-0,053
-533,364	-37,253	0,055	0,022
-532,350	58,520	0,101	-0,073
-531,335	236,147	0,022	0,027
-530,321	441,424	0,114	0,185
-529,306	-36,800	-0,031	-0,012
-528,291	345,866	-0,044	0,064
-527,277	145,232	-0,120	0,119
-526,262	679,280	-0,041	0,079
-525,248	91,139	0,054	0,044
-524,233	800,000	-0,015	0,047
-523,218	-200,000	-0,011	-0,053
-522,204	-8,072	0,066	0,033
-521,189	-200,000	-0,004	-0,067
-520,175	52,911	0,036	-0,025
-519,160	438,523	0,075	0,121
-518,145	-200,000	-0,036	-0,138
-517,131	-200,000	0,006	0,040
-516,116	402,910	0,023	-0,036
-515,102	138,614	-0,150	0,145
-514,087	134,110	0,031	-0,030
-513,072	-54,289	-0,087	0,029
-512,058	-102,743	0,082	-0,014
-511,043	-58,801	-0,190	0,060
-510,029	-136,682	-0,034	-0,003
-509,014	347,674	0,073	-0,107
-507,999	-143,694	-0,233	-0,016
-506,985	230,992	0,048	0,058
-505,970	800,000	0,017	-0,045
-504,956	800,000	-0,028	-0,072
-503,941	-96,165	-0,187	0,036
-502,926	-163,424	0,078	0,003
-501,912	333,563	-0,074	0,106
-500,897	399,731	0,022	0,034
-499,883	-2,797	-0,084	0,043
-498,868	-156,048	-0,094	-0,004
-497,853	-39,854	-0,102	-0,039
-496,839	33,063	-0,149	0,095
-495,824	-103,657	-0,060	-0,010
-494,810	-200,000	0,015	0,096
-493,795	302,455	0,094	0,128
-492,781	-200,000	-0,007	0,060
-491,766	-200,000	0,026	-0,098
-490,751	175,995	-0,134	-0,143
-489,737	-200,000	0,002	-0,032
-488,722	800,000	-0,015	0,048
-487,708	19,031	-0,008	0,005
-486,693	198,938	0,041	-0,046
-485,678	-200,000	-0,000	-0,049
-484,664	-200,000	0,001	-0,028
-483,649	-200,000	0,001	-0,015
-482,635	-115,569	-0,035	0,005
-481,620	-181,147	0,131	0,002
-480,605	-200,000	-0,001	-0,140
-479,591	446,556	0,088	-0,143
-478,576	-200,000	-0,002	-0,065
-477,562	63,696	0,093	-0,069
-476,547	0,932	-0,067	0,036
-475,532	-200,000	0,007	-0,184
-474,518	-173,998	-0,026	-0,001
-473,503	13,255	0,041	0,023
-472,489	800,000	-0,037	0,077
-471,474	-12,018	-0,022	0,011
-470,459	-158,747	-0,063	0,003
-469,445	160,368	0,106	-0,109
-468,430	-200,000	-0,006	0,056
-467,416	-178,380	0,119	0,002
-466,401	254,140	0,070	0,088
-465,386	285,841	-0,119	0,158
-464,372	8,713	0,039	0,021
-463,357	-106,011	-0,122	0,020
-462,343	-64,362	0,120	0,036
-461,328	-200,000	-0,010	-0,174
-460,313	-200,000	0,027	0,093
-459,299	-200,000	0,039	0,146
-458,284	-108,680	0,077	-0,012
-457,270	800,000	0,021	-0,057
-456,255	384,111	0,076	-0,116
-455,241	21,465	-0,063	-0,038
-454,226	-191,970	0,186	0,001
-453,211	-200,000	0,008	-0,067
-452,197	-66,380	0,065	0,019
-451,182	-161,663	0,168	-0,006
-450,168	106,908	-0,039	-0,034
-449,153	800,000	0,028	0,077
-448,138	273,170	-0,076	-0,099
-447,124	-200,000	-0,004	0,035
-446,109	-28,496	0,118	-0,050
-445,095	-200,000	0,008	0,041
-444,080	-13,117	0,106	-0,051
-443,065	-112,029	-0,072	0,011
-442,051	269,370	-0,075	-0,097
-441,036	664,143	-0,050	-0,096
-440,022	-75,674	-0,102	-0,026
-439,007	599,728	0,004	-0,007
-437,992	-200,000	-0,001	-0,010
-436,978	800,000	0,018	0,045
-435,963	-154,562	-0,054	0,003
-434,949	4,260	-0,071	-0,038
-433,934	-200,000	0,012	-0,166
-432,919	-0,696	-0,080	0,042
-431,905	-200,000	-0,009	-0,033
-430,890	103,292	-0,013	-0,012
-429,876	654,145	-0,031	0,059
-428,861	-94,002	-0,094	-0,019
-427,846	-200,000	0,003	-0,048
-426,832	800,000	-0,030	-0,077
-425,817	-105,846	-0,106	0,017
-424,803	192,355	0,073	0,081
-423,788	37,048	-0,021	-0,014
-422,773	-64,396	0,148	0,044
-421,759	106,580	-0,041	0,036
-420,744	-200,000	0,010	0,034
-419,730	-55,715	-0,141	-0,046
-418,715	-200,000	-0,001	0,060
-417,701	81,681	0,084	-0,067
-416,686	-200,000	0,004	0,060
-415,671	-200,000	-0,008	-0,094
-414,657	-200,000	0,030	0,102
-413,642	130,812	-0,066	0,063
-412,628	355,844	-0,058	-0,085
-411,613	215,607	-0,096	0,112
-410,598	236,870	-0,042	-0,052
-409,584	-6,049	-0,098	0,049
-408,569	-200,000	-0,003	0,090
-407,555	-94,044	0,063	-0,013
-406,540	54,381	0,093	-0,065
-405,525	24,540	0,043	0,026
-404,511	142,676	0,022	-0,021
-403,496	-200,000	-0,001	0,008
-402,482	-200,000	0,005	0,047
-401,467	-62,052	0,192	0,059
-400,452	348,311	0,007	0,010
-399,438	312,061	-0,064	-0,088
-398,423	351,297	0,043	0,063
-397,409	-91,970	-0,140	-0,029
-396,394	-200,000	0,002	-0,013
-395,379	-21,971	-0,067	0,030
-394,365	78,089	0,025	-0,020
-393,350	-200,000	0,011	-0,069
-392,336	800,000	-0,019	-0,039
-391,321	-200,000	-0,000	0,035
-390,306	-10,712	0,057	-0,027
-389,292	-200,000	-0,018	0,082
-388,277	370,952	-0,055	0,082
-387,263	437,680	0,045	0,073
-386,248	191,309	-0,092	0,102
-385,233	330,936	0,067	0,096
-384,219	-134,207	0,095	0,008
-383,204	-200,000	-0,028	0,120
-382,190	-5,463	0,052	-0,026
-381,175	438,234	-0,018	0,030
-380,160	-200,000	0,029	0,100
-379,146	79,334	0,193	0,152
-378,131	81,058	0,109	0,086
-377,117	-200,000	0,008	0,106
-376,102	-30,186	0,099	-0,041
-375,088	300,964	-0,126	-0,171
-374,073	276,023	0,115	-0,150
-373,058	-200,000	0,021	0,101
-372,044	800,000	-0,021	-0,044
-371,029	712,330	-0,023	-0,045
-370,015	383,733	-0,038	-0,057
-369,000	75,859	-0,067	-0,052
-367,985	-200,000	0,015	-0,061
-366,971	162,631	0,066	-0,068
-365,956	-36,209	0,106	0,042
-364,942	-200,000	-0,000	-0,029
-363,927	-113,303	0,071	0,010
-362,912	-152,529	0,098	-0,005
-361,898	-20,784	-0,050	0,022
-360,883	-200,000	0,019	0,079
-359,869	-56,502	-0,060	-0,019
-358,854	-200,000	0,011	-0,048
-357,839	-146,853	-0,086	-0,005
-356,825	139,025	0,032	0,031
-355,810	-51,441	-0,077	0,026
-354,796	61,285	0,026	0,019
-353,781	260,379	0,039	-0,050
-352,766	312,205	-0,018	-0,025
-351,752	-200,000	0,002	0,010
-350,737	211,689	-0,034	0,039
-349,723	214,606	0,050	-0,058
-348,708	-200,000	0,009	0,059
-347,693	260,958	-0,023	-0,030
-346,679	800,000	0,043	0,095
-345,664	572,231	0,026	0,046
-344,650	-139,253	0,089	0,007
-343,635	571,045	0,035	0,063
-342,620	-200,000	-0,009	0,048
-341,606	-77,343	0,053	0,013
-340,591	747,266	0,081	0,160
-339,577	-200,000	0,013	0,073
-338,562	613,159	-0,021	-0,039
-337,548	800,000	-0,027	-0,083
-336,533	-200,000	0,038	0,147
-335,518	-32,215	0,099	0,040
-334,504	800,000	-0,045	0,133
-333,489	-16,903	-0,094	0,043
-332,475	-200,000	-0,008	0,051
-331,460	800,000	0,012	-0,029
-330,445	-46,399	-0,022	0,008
-329,431	800,000	-0,007	0,021
-328,416	-200,000	0,024	0,128
-327,402	91,082	0,107	0,088
-326,387	239,557	0,079	0,097
-325,372	141,098	0,114	0,110
-324,358	394,812	-0,032	0,049
-323,343	13,800	-0,054	-0,031
-322,329	420,059	0,014	-0,022
-321,314	-200,000	-0,013	-0,069
-320,299	-59,383	0,215	-0,067
-319,285	-101,015	-0,051	-0,009
-318,270	-160,392	-0,033	0,001
-317,256	-92,964	-0,074	-0,015
-316,241	192,982	0,135	-0,149
-315,226	-200,000	-0,014	-0,074
-314,212	261,834	-0,104	-0,133
-313,197	-157,632	0,057	-0,002
-312,183	-24,871	0,062	0,027
-311,168	-200,000	-0,014	-0,076
-310,153	-123,531	-0,053	0,006
-309,139	35,566	-0,040	0,026
-308,124	517,814	-0,006	-0,010
-307,110	-160,801	-0,073	-0,003
-306,095	-68,419	0,062	0,017
-305,080	-200,000	0,097	0,000
-304,066	-174,540	-0,042	-0,001
-303,051	-74,029	0,024	-0,006
-302,037	-60,917	-0,015	-0,005
-301,022	-79,011	0,068	-0,017
-300,008	-200,000	0,001	0,077
-298,993	575,337	0,059	0,106
-297,978	26,303	0,142	-0,086
-296,964	-200,000	-0,063	-0,204
-295,949	800,000	0,037	-0,107
-294,935	25,901	-0,130	-0,079
-293,920	-200,000	0,004	0,087
-292,905	713,665	0,051	0,100
-291,891	-106,079	-0,091	-0,015
-290,876	417,554	-0,016	0,025
-289,862	-30,188	-0,029	-0,012
-288,847	21,022	-0,018	-0,011
-287,832	-29,017	-0,078	-0,032
-286,818	800,000	-0,020	-0,050
-285,803	-200,000	-0,004	-0,055
-284,789	-200,000	-0,003	0,014
-283,774	-61,515	0,177	-0,054
-282,759	-97,321	0,074	-0,014
-281,745	-200,000	0,017	-0,096
-280,730	800,000	-0,049	-0,128
-279,716	-200,000	0,003	0,020
-278,701	283,329	0,032	-0,042
-277,686	-135,701	0,030	0,003
-276,672	-13,472	-0,032	-0,015
-275,657	75,870	0,070	-0,054
-274,643	200,762	-0,017	0,019
-273,628	-41,421	-0,083	0,031
-272,613	223,626	0,059	-0,070
-271,599	800,000	0,017	-0,039
-270,584	-154,972	0,013	-0,001
-269,570	-157,731	0,078	0,003
-268,555	-138,708	0,112	0,009
-267,540	12,476	-0,104	0,058
-266,526	8,796	-0,088	0,048
-265,511	-70,825	-0,176	-0,048
-264,497	28,799	-0,110	0,068
-263,482	-43,994	0,080	-0,029
-262,467	800,000	-0,006	-0,018
-261,453	-12,455	-0,116	0,055
-260,438	-200,000	0,011	-0,071
-259,424	130,826	-0,048	-0,045
-258,409	-90,554	-0,019	-0,004
-257,395	-200,000	0,016	0,075
-256,380	-200,000	0,015	0,142
-255,365	-200,000	0,012	0,050
-254,351	640,486	0,029	0,053
-253,336	591,020	-0,022	-0,039
-252,322	800,000	-0,039	-0,089
-251,307	14,741	0,123	-0,070
-250,292	-164,279	0,133	-0,004
-249,278	-87,443	-0,050	0,011
-248,263	-104,313	0,083	0,014
-247,249	800,000	-0,019	-0,049
-246,234	-200,000	0,007	-0,029
-245,219	-76,022	-0,091	0,023
-244,205	383,472	-0,034	-0,051
-243,190	290,568	0,061	-0,081
-242,176	3,223	0,062	-0,033
-241,161	-62,244	-0,038	-0,012
-240,146	-140,885	0,100	-0,007
-239,132	800,000	0,048	-0,144
-238,117	442,228	0,028	-0,045
-237,103	57,590	0,051	0,036
-236,088	-200,000	0,010	0,132
-235,073	-200,000	0,008	0,061
-234,059	356,899	-0,059	0,086
-233,044	-200,000	-0,012	0,070
-232,030	154,767	-0,061	0,061
-231,015	-200,000	0,025	-0,094
-230,000	33,628	-0,080	0,050
-228,986	110,005	-0,118	-0,103
-227,971	800,000	0,033	-0,076
-226,957	-200,000	0,014	0,046
-225,942	-10,238	-0,018	0,009
-224,927	-23,549	0,082	0,036
-223,913	20,948	-0,068	-0,040
-222,898	800,000	0,020	-0,052
-221,884	668,944	-0,017	0,033
-220,869	81,198	0,156	-0,123
-219,855	800,000	-0,021	0,065
-218,840	-200,000	0,004	-0,043
-217,825	-39,829	-0,101	0,038
-216,811	-43,904	0,075	0,027
-215,796	390,145	-0,065	0,098
-214,782	28,341	0,032	-0,020
-213,767	-200,000	-0,011	0,098
-212,752	800,000	-0,033	0,069
-211,738	-112,645	0,134	-0,019
-210,723	800,000	0,020	0,056
-209,709	-42,866	-0,144	0,053
-208,694	34,495	0,051	-0,032
-207,679	185,119	-0,087	0,094
-206,665	586,686	0,033	0,060
-205,650	800,000	0,013	-0,027
-204,636	-200,000	-0,007	-0,034
-203,621	-124,028	-0,033	-0,004
-202,606	-200,000	-0,015	0,111
-201,592	7,870	-0,026	-0,014
-200,577	-150,868	-0,088	-0,005
-199,563	-84,305	0,057	0,013
-198,548	800,000	-0,022	0,066
-197,533	-93,800	0,121	0,024
-196,519	279,830	0,104	0,135
-195,504	800,000	0,011	-0,031
-194,490	-70,683	-0,067	-0,018
-193,475	-60,727	-0,079	0,024
-192,460	21,257	0,022	-0,013
-191,446	64,292	-0,124	0,091
-190,431	800,000	0,015	0,041
-189,417	-101,026	0,060	-0,011
-188,402	-200,000	0,005	0,019
-187,387	-200,000	-0,007	0,042
-186,373	-200,000	-0,010	-0,189
-185,358	180,183	-0,089	-0,095
-184,344	335,679	-0,006	-0,009
-183,329	-200,000	-0,012	0,161
-182,315	-132,003	-0,136	-0,013
-181,300	555,554	0,023	0,040
-180,285	96,836	-0,061	-0,051
-179,271	-144,320	-0,067	0,004
-178,256	150,057	0,043	0,043
-177,242	103,335	0,054	-0,046
-176,227	461,467	-0,048	0,078
-175,212	-200,000	0,027	0,113
-174,198	800,000	-0,040	0,089
-173,183	800,000	-0,068	0,145
-172,169	-165,010	0,149	0,005
-171,154	-200,000	-0,025	-0,124
-170,139	-48,640	-0,014	0,005
-169,125	29,130	0,092	0,057
-168,110	800,000	0,036	0,088
-167,096	341,700	0,085	0,121
-166,081	468,844	-0,075	0,123
-165,066	-200,000	-0,005	-0,092
-164,052	-200,000	0,000	-0,048
-163,037	251,859	0,090	0,111
-162,023	800,000	0,005	0,014
-161,008	-71,696	0,069	-0,019
-159,993	-200,000	0,044	0,148
-158,979	-200,000	-0,010	0,052
-157,964	453,884	0,062	-0,100
-156,950	184,146	-0,047	0,050
-155,935	700,285	0,053	0,101
-154,920	86,527	0,039	0,031
-153,906	187,450	0,143	0,155
-152,891	800,000	0,012	0,031
-151,877	-81,215	0,133	0,032
-150,862	327,773	-0,082	-0,114
-149,847	-8,309	0,086	0,042
-148,833	-30,336	0,124	-0,051
-147,818	-200,000	0,020	0,118
-146,804	622,796	0,078	-0,143
-145,789	800,000	-0,009	0,021
-144,775	800,000	0,015	0,044
-143,760	592,323	-0,082	-0,149
-142,745	-143,669	0,039	0,003
-141,731	-200,000	0,003	-0,075
-140,716	111,428	0,101	-0,089
-139,702	20,377	0,022	0,013
-138,687	789,378	-0,019	0,038
-137,672	-145,556	0,061	0,004
-136,658	218,534	0,035	0,040
-135,643	-177,666	0,063	0,001
-134,629	-186,304	0,048	-0,000
-133,614	414,113	0,033	0,051
-132,599	800,000	0,036	0,099
-131,585	83,232	-0,043	0,034
-130,570	-200,000	0,018	-0,101
-129,556	110,810	-0,077	0,067
-128,541	800,000	-0,029	-0,083
-127,526	800,000	0,050	-0,140
-126,512	-178,827	0,044	-0,001
-125,497	251,158	0,064	-0,079
-124,483	800,000	-0,025	0,069
-123,468	91,130	-0,069	-0,057
-122,453	36,642	-0,074	-0,047
-121,439	147,195	-0,016	-0,015
-120,424	366,846	0,061	-0,090
-119,410	-56,804	-0,061	-0,020
-118,395	-200,000	0,019	0,084
-117,380	-139,784	0,034	0,003
-116,366	-81,747	0,059	-0,014
-115,351	15,592	-0,052	0,030
-114,337	-184,751	-0,033	0,000
-113,322	-200,000	-0,005	0,020
-112,307	-142,239	-0,088	-0,006
-111,293	8,545	0,051	0,028
-110,278	139,793	0,075	0,072
-109,264	306,561	-0,057	0,077
-108,249	-55,599	0,123	0,040
-107,234	787,945	0,067	-0,134
-106,220	-186,223	-0,090	-0,001
-105,205	-75,094	0,154	0,040
-104,191	-200,000	0,001	0,021
-103,176	211,202	0,080	0,091
-102,162	-74,010	-0,052	-0,014
-101,147	129,380	0,086	0,079
-100,132	325,642	-0,024	0,033
-99,118	305,276	-0,086	-0,116
-98,103	-200,000	0,025	-0,125
-97,089	-40,593	-0,103	0,039
-96,074	91,812	-0,024	0,019
-95,059	-24,332	-0,028	0,012
-94,045	-122,816	-0,105	-0,012
-93,030	-128,773	-0,081	-0,008
-92,016	37,196	0,032	-0,021
-91,001	741,868	0,007	0,013
-89,986	800,000	-0,038	0,101
-88,972	-127,316	0,169	0,018
-87,957	440,178	-0,045	-0,072
-86,943	-200,000	-0,013	-0,083
-85,928	196,839	0,052	-0,057
-84,913	-200,000	-0,023	0,113
-83,899	76,241	-0,070	0,053
-82,884	10,629	0,106	-0,059
-81,870	533,210	-0,047	0,081
-80,855	105,723	0,082	-0,071
-79,840	281,289	-0,095	-0,124
-78,826	258,377	-0,032	-0,040
-77,811	55,862	-0,088	0,062
-76,797	611,317	-0,012	-0,021
-75,782	-154,251	0,104	0,005
-74,767	433,931	-0,033	-0,053
-73,753	26,120	0,080	-0,048
-72,738	-200,000	0,015	0,110
-71,724	-200,000	-0,007	0,040
-70,709	455,934	-0,024	-0,039
-69,694	99,780	-0,083	0,069
-68,680	616,704	0,068	0,124
-67,665	-132,800	-0,069	-0,006
-66,651	234,908	-0,026	0,031
-65,636	-200,000	0,013	0,071
-64,622	800,000	-0,079	-0,169
-63,607	-134,987	-0,141	0,012
-62,592	-200,000	0,008	0,123
-61,578	-131,327	0,109	0,010
-60,563	800,000	0,028	-0,061
-59,549	800,000	-0,037	0,101
-58,534	-169,495	-1,312	-0,034
-57,519	523,323	-0,830	-1,418
-56,505	-200,000	-0,888	-4,432
-55,490	-90,983	0,535	-0,111
-54,476	800,000	4,784	11,470
-53,461	-200,000	14,058	251,148
-52,446	-200,000	692,979	2240,190
-51,432	582,656	1621,980	2894,836
-50,417	117,907	1630,841	1455,161
-49,403	73,956	1285,439	975,747
-48,388	37,815	1021,958	656,312
-47,373	24,020	980,438	584,411
-46,359	23,245	969,718	575,463
-45,344	22,267	965,470	569,736
-44,330	22,231	963,983	568,717
-43,315	22,087	962,675	567,455
-42,300	22,058	961,508	566,649
-41,286	22,074	960,529	566,105
-40,271	22,040	959,662	565,460
-39,257	21,983	958,795	564,742
-38,242	22,011	957,929	564,299
-37,227	22,060	956,854	563,804
-36,213	21,957	956,103	563,006
-35,198	21,952	955,178	562,423
-34,184	22,074	954,568	562,434
-33,169	21,991	953,639	561,598
-32,154	22,037	952,670	561,152
-31,140	22,083	951,672	560,690
-30,125	22,047	951,076	560,200
-29,111	22,017	950,397	559,681
-28,096	22,108	949,409	559,368
-27,082	22,014	949,006	558,809
-26,067	22,032	948,247	558,398
-25,052	22,037	947,525	557,964
-24,038	22,018	946,689	557,391
-23,023	22,036	946,077	557,065
-22,009	22,049	945,537	556,767
-20,994	22,007	944,819	556,189
-19,979	22,097	944,299	556,148
-18,965	22,082	943,549	555,636
-17,950	22,100	942,954	555,320
-16,936	21,971	942,193	554,442
-15,921	21,938	941,579	553,951
-14,906	21,949	940,780	553,495
-13,892	21,967	940,132	553,148
-12,877	21,904	939,682	552,663
-11,863	21,911	938,967	552,241
-10,848	21,926	938,360	551,911
-9,833	21,993	938,066	551,929
-8,819	22,002	937,421	551,555
-7,804	21,941	936,827	550,990
-6,790	21,922	936,259	550,574
-5,775	21,955	935,453	550,185
-4,760	21,962	934,806	549,804
-3,746	21,953	934,351	549,484
-2,731	21,777	933,686	548,520
-1,717	21,735	932,865	547,883
-0,702	21,767	932,171	547,554
0,313	21,568	931,525	547,375
1,327	24,135	929,149	553,973
2,342	31,899	807,321	502,309
3,356	27,100	507,718	307,717
4,371	2,944	372,499	195,182
5,386	-0,150	355,351	182,404
6,400	-1,766	349,136	177,257
7,415	-2,516	346,237	174,876
8,429	-2,839	344,882	173,793
9,444	-2,755	343,866	173,365
10,459	-2,798	343,184	172,955
11,473	-2,679	342,603	172,786
12,488	-2,454	342,182	172,824
13,502	-2,312	341,585	172,674
14,517	-2,537	341,156	172,177
15,531	-2,657	340,540	171,711
16,546	-2,763	340,097	171,348
17,561	-2,660	339,486	171,145
18,575	-2,688	339,147	170,927
19,590	-2,688	338,822	170,747
20,604	-2,659	338,616	170,662
21,619	-2,639	338,085	170,403
22,634	-2,673	337,753	170,181
23,648	-2,588	337,330	170,050
24,663	-2,687	337,180	169,845
25,677	-2,614	336,916	169,782
26,692	-2,652	336,461	169,494
27,707	-2,607	336,290	169,444
28,721	-2,795	335,916	169,023
29,736	-2,770	335,513	168,835
30,750	-2,650	335,215	168,807
31,765	-2,769	334,995	168,545
32,780	-2,707	334,527	168,366
33,794	-2,691	334,362	168,286
34,809	-2,704	334,185	168,167
35,823	-2,811	333,797	167,834
36,838	-2,636	333,444	167,842
37,853	-2,686	333,266	167,680
38,867	-2,792	332,944	167,382
39,882	-2,769	332,729	167,286
40,896	-2,926	332,535	166,993
41,911	-2,804	332,108	166,903
42,926	-2,738	331,803	166,811
43,940	-2,807	331,661	166,645
44,955	-2,832	331,290	166,416
45,969	-2,907	330,994	166,167
46,984	-3,032	330,705	165,865
47,999	-3,064	330,400	165,662
49,013	-3,297	330,030	165,198
50,028	-3,113	329,648	165,199
51,042	-3,274	329,493	164,925
52,057	-3,277	329,208	164,765
53,071	-3,395	328,991	164,508
54,086	-3,269	328,654	164,467
55,101	-3,232	328,562	164,448
56,115	-2,998	328,383	164,607
57,130	-2,829	328,337	164,760
58,144	-2,542	327,934	164,865
59,159	-2,557	327,689	164,711
60,174	-2,662	327,664	164,566
61,188	-2,528	327,191	164,464
62,203	-2,613	326,898	164,206
63,217	-2,679	326,748	164,042
64,232	-2,666	326,454	163,895
65,247	-2,558	326,298	163,922
66,261	-2,564	325,963	163,732
67,276	-2,736	325,643	163,365
68,290	-2,893	325,286	162,996
69,305	-2,973	325,072	162,786
70,320	-2,951	324,807	162,663
71,334	-2,844	324,674	162,701
72,349	-2,569	324,467	162,889
73,363	-2,510	324,355	162,883
74,378	-2,596	323,985	162,588
75,393	-2,629	323,716	162,402
76,407	-2,663	323,486	162,233
77,422	-2,567	323,225	162,195
78,436	-2,561	323,025	162,086
79,451	-2,538	322,545	161,857
80,466	-2,611	322,182	161,580
81,480	-2,828	321,949	161,210
82,495	-2,948	321,804	160,990
83,509	-2,866	321,667	160,997
84,524	-2,893	321,351	160,795
85,539	-2,847	320,927	160,620
86,553	-3,064	320,803	160,306
87,568	-2,976	320,679	160,325
88,582	-2,929	320,364	160,205
89,597	-2,851	319,996	160,091
90,611	-2,821	320,004	160,114
91,626	-2,629	319,783	160,199
92,641	-2,706	319,487	159,953
93,655	-2,846	319,231	159,658
94,670	-2,978	319,130	159,448
95,684	-2,715	318,838	159,575
96,699	-2,729	318,483	159,368
97,714	-2,824	318,442	159,230
98,728	-2,935	317,988	158,868
99,743	-3,081	317,901	158,652
100,757	-2,962	317,452	158,543
101,772	-2,760	317,359	158,701
102,787	-3,024	317,152	158,298
103,801	-2,880	316,995	158,361
104,816	-2,732	316,764	158,392
105,830	-2,818	316,561	158,183
106,845	-2,752	316,400	158,160
107,860	-2,711	315,991	157,986
108,874	-2,812	315,777	157,756
109,889	-2,862	315,641	157,620
110,903	-2,693	315,326	157,630
111,918	-2,793	315,066	157,379
112,933	-2,863	314,910	157,211
113,947	-2,744	314,704	157,222
114,962	-2,664	314,592	157,238
115,976	-2,653	314,150	157,014
116,991	-2,785	314,067	156,818
118,006	-2,885	314,000	156,664
119,020	-2,725	313,544	156,593
120,035	-2,794	313,530	156,499
121,049	-2,655	313,261	156,499
122,064	-2,789	313,100	156,261
123,079	-2,765	312,792	156,119
124,093	-2,776	312,628	156,012
125,108	-2,854	312,126	155,665
126,122	-3,091	312,045	155,358
127,137	-3,050	311,769	155,250
128,151	-3,383	311,777	154,887
129,166	-2,829	311,289	155,218
130,181	-3,192	311,106	154,729
131,195	-3,196	310,929	154,623
132,210	-2,993	310,636	154,678
133,224	-2,822	310,507	154,781
134,239	-2,760	310,137	154,647
135,254	-2,850	310,103	154,522
136,268	-3,072	309,928	154,187
137,283	-3,067	309,573	154,001
138,297	-3,093	309,254	153,802
139,312	-2,981	309,004	153,782
140,327	-2,796	308,987	153,953
141,341	-2,586	308,875	154,105
142,356	-2,602	308,637	153,956
143,370	-2,506	308,459	153,954
144,385	-2,286	308,256	154,070
145,400	-2,424	308,042	153,804
146,414	-2,484	307,817	153,615
147,429	-2,444	307,576	153,524
148,443	-2,519	307,361	153,324
149,458	-2,342	307,100	153,365
150,473	-2,387	306,881	153,195
151,487	-2,481	306,622	152,954
152,502	-2,404	306,548	152,984
153,516	-2,330	306,270	152,908
154,531	-2,540	306,101	152,591
155,546	-2,378	305,668	152,531
156,560	-2,527	305,612	152,335
157,575	-2,788	305,360	151,925
158,589	-2,531	305,076	152,035
159,604	-2,455	305,108	152,117
160,619	-2,503	304,821	151,911
161,633	-2,491	304,600	151,800
162,648	-2,479	304,560	151,778
163,662	-2,291	304,095	151,727
164,677	-2,541	303,971	151,394
165,692	-2,503	303,901	151,385
166,706	-2,552	303,696	151,218
167,721	-2,547	303,464	151,094
168,735	-2,484	303,307	151,068
169,750	-2,343	303,196	151,144
170,764	-2,416	302,956	150,936
171,779	-2,335	302,824	150,940
172,794	-2,426	302,539	150,690
173,808	-2,424	302,301	150,561
174,823	-2,816	301,804	149,899
175,837	-2,887	301,646	149,735
176,852	-2,530	301,665	150,096
177,867	-2,401	301,562	150,163
178,881	-2,421	301,311	150,004
179,896	-2,284	301,243	150,096
180,910	-2,370	300,887	149,818
181,925	-2,658	300,854	149,495
182,940	-2,479	300,568	149,522
183,954	-2,453	300,414	149,458
184,969	-2,416	300,122	149,337
185,983	-2,467	299,857	149,140
186,998	-2,458	299,767	149,092
188,013	-2,396	299,370	148,943
189,027	-2,292	299,152	148,927
190,042	-2,406	299,007	148,726
191,056	-2,268	298,925	148,811
192,071	-2,139	298,680	148,807
193,086	-2,279	298,518	148,572
194,100	-2,365	298,366	148,395
195,115	-2,441	298,042	148,145
196,129	-2,256	297,693	148,145
197,144	-2,371	297,817	148,077
198,159	-2,376	297,432	147,868
199,173	-2,341	297,316	147,832
200,188	-2,256	297,003	147,749
201,202	-2,518	296,878	147,410
202,217	-2,922	296,444	146,776
203,232	-2,972	296,163	146,574
204,246	-2,698	296,264	146,886
205,261	-2,447	296,087	147,036
206,275	-2,304	295,730	146,989
207,290	-2,169	295,431	146,962
208,304	-2,453	295,503	146,700
209,319	-2,322	295,195	146,666
210,334	-2,394	294,922	146,444
211,348	-2,494	294,732	146,238
212,363	-2,470	294,628	146,197
213,377	-2,449	294,474	146,129
214,392	-2,266	294,179	146,151
215,407	-2,573	294,004	145,746
216,421	-2,562	293,695	145,591
217,436	-2,684	293,594	145,407
218,450	-2,704	293,487	145,321
219,465	-2,542	293,192	145,322
220,480	-2,528	292,973	145,215
221,494	-2,545	292,867	145,132
222,509	-2,520	292,535	144,980
223,523	-2,327	292,430	145,105
224,538	-2,340	292,307	145,018
225,553	-2,304	292,123	144,950
226,567	-2,381	292,040	144,819
227,582	-2,409	291,769	144,644
228,596	-2,409	291,696	144,595
229,611	-2,316	291,611	144,632
230,626	-2,372	291,234	144,377
231,640	-2,738	290,999	143,888
232,655	-2,956	290,663	143,496
233,669	-3,132	290,502	143,230
234,684	-3,028	290,277	143,208
235,699	-2,809	290,076	143,311
236,713	-2,927	289,963	143,128
237,728	-2,770	289,714	143,145
238,742	-2,639	289,680	143,244
239,757	-2,638	289,500	143,143
240,772	-2,645	289,328	143,038
241,786	-2,777	289,171	142,818
242,801	-2,804	288,928	142,660
243,815	-2,752	288,742	142,606
244,830	-2,502	288,431	142,683
245,844	-2,521	288,205	142,540
246,859	-2,672	288,142	142,349
247,874	-2,616	287,946	142,294
248,888	-2,714	287,905	142,166
249,903	-2,548	287,683	142,205
250,917	-2,450	287,602	142,246
251,932	-2,350	287,431	142,246
252,947	-1,833	287,437	142,737
253,961	-2,234	286,896	142,069
254,976	-1,137	287,490	143,411
255,990	1,668	288,098	146,419
257,005	2,573	288,629	147,553
258,020	4,007	288,801	149,018
259,034	3,958	288,702	148,906
260,049	3,814	288,400	148,597
261,063	3,383	288,214	148,071
262,078	3,708	288,083	148,305
263,093	4,331	288,210	148,959
264,107	4,696	287,915	149,145
265,122	4,498	287,843	148,903
266,136	4,742	287,752	149,078
267,151	4,629	287,380	148,764
268,166	4,284	287,240	148,347
269,180	4,121	287,217	148,164
270,195	4,355	286,813	148,167
271,209	4,273	286,566	147,948
272,224	4,323	286,437	147,916
273,239	4,005	286,171	147,460
274,253	4,051	286,224	147,519
275,268	4,737	286,222	148,162
276,282	4,465	285,738	147,638
277,297	4,577	285,572	147,646
278,312	4,763	285,460	147,753
279,326	4,585	285,235	147,454
280,341	4,415	285,021	147,168
281,355	4,185	284,758	146,799
282,370	4,156	284,553	146,653
283,384	4,393	284,286	146,728
284,399	4,342	284,224	146,635
285,414	4,225	283,973	146,380
286,428	4,204	283,797	146,257
287,443	4,054	283,687	146,044
288,457	3,889	283,394	145,724
289,472	3,922	283,207	145,647
290,487	3,948	283,015	145,560
291,501	3,806	282,946	145,376
292,516	3,604	282,605	144,997
293,530	3,720	282,387	144,982
294,545	3,968	282,375	145,198
295,560	4,111	282,203	145,231
296,574	3,885	281,939	144,869
297,589	4,051	281,904	144,995
298,603	4,451	281,790	145,299
299,618	4,173	281,578	144,916
300,633	4,067	281,323	144,672
301,647	4,150	281,202	144,675
302,662	4,170	280,879	144,514
303,676	4,156	280,667	144,379
304,691	3,823	280,350	143,891
305,706	3,562	280,229	143,572
306,720	3,654	280,005	143,530
307,735	3,493	279,952	143,340
308,749	4,088	279,734	143,772
309,764	3,949	279,597	143,559
310,779	3,693	279,253	143,130
311,793	3,600	279,151	142,979
312,808	3,562	278,950	142,828
313,822	3,661	278,909	142,887
314,837	3,554	278,610	142,621
315,852	3,605	278,301	142,498
316,866	3,509	278,255	142,372
317,881	3,639	278,126	142,414
318,895	3,586	277,954	142,264
319,910	3,524	277,651	142,039
320,925	3,651	277,387	142,009
321,939	3,553	277,400	141,912
322,954	3,837	277,136	142,027
323,968	3,751	277,187	141,960
324,983	3,918	277,022	142,018
325,997	3,955	276,717	141,883
327,012	4,103	276,641	141,968
328,027	3,992	276,514	141,788
329,041	3,932	276,211	141,565
330,056	3,906	276,142	141,492
331,070	3,780	276,085	141,335
332,085	3,904	275,678	141,227
333,100	3,964	275,510	141,184
334,114	3,787	275,249	140,876
335,129	3,690	274,921	140,606
336,143	3,681	275,054	140,653
337,158	4,235	274,864	141,051
338,173	3,961	274,609	140,656
339,187	3,920	274,476	140,538
340,202	3,884	274,147	140,325
341,216	3,927	274,179	140,368
342,231	3,941	273,875	140,213
343,246	3,895	273,736	140,087
344,260	3,786	273,554	139,883
345,275	3,909	273,599	140,004
346,289	4,354	273,368	140,279
347,304	4,296	273,365	140,212
348,319	4,037	273,161	139,859
349,333	3,929	272,907	139,619
350,348	4,265	272,724	139,817
351,362	4,441	272,396	139,796
352,377	4,311	272,168	139,549
353,392	4,193	272,199	139,445
354,406	4,143	272,081	139,327
355,421	191,967	1329,025	1407,838
356,435	155,110	1457,881	1407,953
