DTS Sentinel unit serial number:	SN410029Multiplexer serial number:	ORYXHardware model number:	OX2-SRSoftware version number:	ORYX F/W v4,00 Oryx Data Collector v3.7.2.0data status	okinstallation	B4 Nyhavnadifferential loss correction	single-endedforward channel	channel 2reverse channel	N/Adate	2023/12/15time	23:40:13forward acquisition time	300,00reverse acquisition time	0,00gamma	499,1914k internal	0,3128k external	0,3128temperature offset calibration	1,0000default loss term (dB/km)	0,3820temperature slope calibration	1,0000multiplexer offset coefficient	1,0000multiplexer slope coefficient	1,0000fibre end	0,00T internal ref (°C)	21,76T ext. ref 1 (°C)	6,78T ext. ref 2 (°C)	6,95length (m)	temperature (°C)	Stokes	anti-Stokes-744,400	-200,000	-0,011	-0,075
-743,385	709,510	-0,098	0,194
-742,371	488,749	0,046	0,078
-741,356	459,540	-0,142	0,235
-740,342	-200,000	-0,020	-0,132
-739,327	-88,498	-0,281	0,062
-738,312	-118,076	0,139	-0,018
-737,298	-66,392	-0,276	0,081
-736,283	-200,000	-0,018	-0,063
-735,269	-70,841	-0,349	0,097
-734,254	800,000	0,055	0,137
-733,239	-116,848	-0,400	-0,054
-732,225	-69,258	0,198	0,056
-731,210	33,585	0,054	-0,035
-730,196	80,355	-0,102	-0,081
-729,181	142,106	-0,035	0,034
-728,167	-177,393	0,109	-0,002
-727,152	800,000	-0,036	0,115
-726,137	-49,235	-0,113	0,040
-725,123	-111,813	-0,138	-0,020
-724,108	175,249	-0,073	-0,078
-723,094	-114,295	-0,117	0,017
-722,079	-200,000	-0,034	-0,172
-721,064	36,528	0,099	-0,065
-720,050	-200,000	0,012	-0,064
-719,035	-72,038	-0,039	0,011
-718,021	-32,523	-0,075	-0,031
-717,006	-93,338	0,109	-0,022
-715,991	-108,780	-0,138	0,022
-714,977	52,189	-0,171	-0,121
-713,962	56,516	0,051	0,037
-712,948	-139,985	-0,115	-0,009
-711,933	-123,505	-0,019	0,002
-710,918	496,666	-0,054	0,093
-709,904	-111,290	-0,024	-0,004
-708,889	580,728	-0,061	0,112
-707,875	155,166	-0,051	-0,052
-706,860	604,736	-0,030	0,055
-705,845	-200,000	0,002	0,007
-704,831	-200,000	-0,012	0,048
-703,816	-43,487	-0,054	-0,020
-702,802	-3,994	-0,058	-0,030
-701,787	142,182	-0,071	-0,070
-700,772	56,773	-0,230	-0,166
-699,758	-102,637	-0,077	0,014
-698,743	-25,877	0,146	0,064
-697,729	107,894	-0,043	0,038
-696,714	24,419	-0,065	-0,040
-695,699	102,994	-0,114	-0,099
-694,685	-200,000	0,024	-0,084
-693,670	-200,000	0,003	-0,031
-692,656	396,981	-0,081	-0,126
-691,641	-200,000	0,003	-0,067
-690,627	-38,335	0,092	-0,036
-689,612	-200,000	-0,005	-0,080
-688,597	800,000	0,040	0,084
-687,583	800,000	-0,046	-0,114
-686,568	-157,867	-0,069	0,003
-685,554	134,001	-0,103	-0,099
-684,539	800,000	-0,024	-0,059
-683,524	-200,000	0,010	0,072
-682,510	567,732	0,027	-0,050
-681,495	411,033	0,046	-0,073
-680,481	140,527	-0,057	0,056
-679,466	72,568	-0,093	-0,072
-678,451	800,000	0,013	-0,042
-677,437	256,492	-0,059	-0,076
-676,422	121,367	0,061	0,057
-675,408	35,679	-0,061	0,040
-674,393	-77,476	-0,099	-0,025
-673,378	-42,522	0,167	-0,063
-672,364	-62,175	-0,106	0,033
-671,349	-150,456	-0,106	0,006
-670,335	-200,000	0,015	0,089
-669,320	-15,075	-0,078	0,037
-668,305	32,277	0,076	-0,049
-667,291	-200,000	0,002	-0,052
-666,276	-0,690	-0,072	0,038
-665,262	800,000	-0,051	-0,133
-664,247	-200,000	-0,006	-0,076
-663,232	-32,245	-0,143	0,059
-662,218	-4,041	-0,058	0,030
-661,203	-200,000	-0,010	0,106
-660,189	-200,000	0,021	0,087
-659,174	-200,000	0,002	-0,080
-658,159	-200,000	0,008	-0,117
-657,145	559,580	-0,091	-0,163
-656,130	-4,631	0,082	-0,042
-655,116	800,000	-0,034	-0,070
-654,101	-18,523	0,061	0,028
-653,086	143,373	-0,036	-0,036
-652,072	220,242	-0,039	-0,046
-651,057	-13,036	-0,108	-0,052
-650,043	354,603	0,054	-0,080
-649,028	14,504	-0,049	0,028
-648,014	144,914	-0,016	0,015
-646,999	-106,059	-0,074	-0,012
-645,984	-200,000	0,010	0,113
-644,970	800,000	0,040	-0,111
-643,955	-148,580	-0,097	0,006
-642,941	143,029	-0,104	-0,102
-641,926	-58,861	0,095	-0,030
-640,911	-47,639	-0,105	-0,037
-639,897	112,025	0,094	0,084
-638,882	-134,262	-0,172	0,015
-637,868	-200,000	-0,006	-0,056
-636,853	-36,045	-0,121	-0,048
-635,838	800,000	0,035	-0,093
-634,824	-27,344	0,097	0,042
-633,809	229,496	0,067	0,082
-632,795	174,601	-0,045	0,049
-631,780	-200,000	0,039	-0,160
-630,765	84,542	0,143	-0,116
-629,751	538,024	0,067	-0,119
-628,736	800,000	0,046	-0,107
-627,722	-116,102	-0,082	0,011
-626,707	-200,000	-0,011	-0,050
-625,692	-200,000	0,007	0,084
-624,678	231,311	0,011	0,013
-623,663	576,883	0,034	0,062
-622,649	79,775	-0,018	0,014
-621,634	-41,151	0,023	-0,009
-620,619	378,477	-0,041	0,062
-619,605	-200,000	0,001	0,078
-618,590	423,658	0,043	-0,068
-617,576	445,585	-0,016	-0,025
-616,561	-200,000	0,001	0,067
-615,546	2,712	0,027	0,014
-614,532	-43,668	-0,089	0,033
-613,517	351,629	-0,051	0,075
-612,503	-140,368	-0,057	-0,004
-611,488	-114,015	0,095	-0,014
-610,474	-200,000	-0,017	0,111
-609,459	-163,758	-0,062	-0,002
-608,444	576,953	-0,087	-0,159
-607,430	-33,355	-0,091	0,037
-606,415	316,843	0,026	0,037
-605,401	122,766	-0,022	0,021
-604,386	720,934	0,061	-0,121
-603,371	800,000	0,022	-0,060
-602,357	-200,000	-0,014	0,084
-601,342	-49,318	0,046	0,016
-600,328	-200,000	-0,038	-0,232
-599,313	-117,473	-0,128	0,017
-598,298	-200,000	-0,006	0,035
-597,284	-93,819	-0,010	-0,002
-596,269	314,755	-0,043	0,060
-595,255	-200,000	-0,012	0,189
-594,240	-101,499	-0,107	-0,019
-593,225	-200,000	0,000	-0,013
-592,211	44,089	0,035	0,024
-591,196	-200,000	0,007	-0,043
-590,182	342,409	0,150	-0,218
-589,167	800,000	-0,037	0,111
-588,152	231,508	0,030	-0,037
-587,138	211,114	0,039	0,045
-586,123	95,528	0,128	0,108
-585,109	164,882	-0,072	-0,075
-584,094	800,000	0,038	-0,088
-583,079	129,157	0,038	-0,036
-582,065	48,883	0,034	-0,023
-581,050	-200,000	-0,018	-0,172
-580,036	49,842	-0,007	-0,005
-579,021	49,586	0,030	-0,021
-578,006	-96,092	-0,069	-0,013
-576,992	-200,000	-0,009	0,140
-575,977	181,326	0,045	0,049
-574,963	-200,000	-0,008	0,063
-573,948	96,102	0,048	-0,041
-572,934	-48,150	0,113	-0,040
-571,919	214,004	0,033	0,039
-570,904	800,000	-0,054	-0,133
-569,890	257,286	0,094	-0,120
-568,875	-83,805	-0,027	-0,006
-567,861	-137,438	0,183	-0,015
-566,846	63,398	-0,050	-0,037
-565,831	-200,000	-0,005	0,107
-564,817	28,583	-0,129	0,080
-563,802	-26,319	-0,081	-0,035
-562,788	26,041	0,093	0,057
-561,773	800,000	0,049	-0,139
-560,758	165,114	-0,022	-0,023
-559,744	74,790	0,034	-0,026
-558,729	310,929	0,067	-0,094
-557,715	-200,000	-0,026	-0,133
-556,700	47,301	-0,064	-0,044
-555,685	-142,209	-0,189	-0,014
-554,671	800,000	-0,010	-0,024
-553,656	257,475	0,021	0,026
-552,642	171,572	-0,030	0,031
-551,627	307,119	-0,050	0,069
-550,612	-196,166	0,185	-0,001
-549,598	-53,722	-0,095	-0,032
-548,583	473,850	0,093	0,155
-547,569	-200,000	-0,035	0,144
-546,554	-200,000	0,012	0,058
-545,539	25,957	0,093	0,057
-544,525	478,376	-0,036	-0,060
-543,510	-111,553	-0,146	0,022
-542,496	-113,926	0,127	-0,018
-541,481	270,482	-0,075	-0,098
-540,466	-200,000	0,021	-0,120
-539,452	15,425	0,038	0,022
-538,437	-200,000	-0,007	0,067
-537,423	-200,000	0,001	0,025
-536,408	-197,137	0,129	0,001
-535,393	53,256	-0,077	-0,055
-534,379	-200,000	-0,043	-0,192
-533,364	23,130	0,093	0,056
-532,350	3,749	-0,093	0,050
-531,335	247,527	0,032	-0,040
-530,321	62,145	0,084	-0,062
-529,306	294,712	0,089	-0,120
-528,291	-167,402	-0,251	-0,007
-527,277	17,448	0,072	-0,042
-526,262	800,000	0,016	0,052
-525,248	273,282	0,071	0,093
-524,233	-200,000	0,032	-0,155
-523,218	-200,000	-0,016	0,122
-522,204	80,162	-0,093	-0,074
-521,189	162,073	-0,068	-0,071
-520,175	243,065	0,037	0,046
-519,160	800,000	-0,044	-0,099
-518,145	17,347	0,040	-0,023
-517,131	-200,000	-0,030	0,099
-516,116	722,963	0,005	-0,009
-515,102	800,000	-0,040	-0,100
-514,087	370,840	-0,017	0,025
-513,072	800,000	-0,026	0,079
-512,058	162,714	0,055	-0,057
-511,043	65,416	-0,066	-0,049
-510,029	377,142	0,053	-0,080
-509,014	800,000	-0,026	-0,072
-507,999	705,974	-0,038	0,075
-506,985	-200,000	0,033	-0,143
-505,970	-148,648	0,101	0,006
-504,956	-200,000	0,017	-0,093
-503,941	800,000	0,028	-0,069
-502,926	216,260	-0,018	-0,021
-501,912	-156,668	0,059	0,003
-500,897	130,745	0,025	-0,024
-499,883	800,000	-0,016	-0,049
-498,868	-200,000	0,037	0,000
-497,853	-123,526	-0,084	0,010
-496,839	-100,948	-0,066	0,012
-495,824	226,525	0,059	-0,071
-494,810	299,415	-0,035	-0,047
-493,795	2,674	-0,207	-0,111
-492,781	-200,000	-0,007	0,063
-491,766	-200,000	-0,004	-0,072
-490,751	-200,000	0,013	0,153
-489,737	521,796	-0,056	0,098
-488,722	-125,720	-0,094	0,010
-487,708	-200,000	-0,011	0,054
-486,693	209,258	-0,005	-0,006
-485,678	-35,542	-0,061	-0,024
-484,664	800,000	-0,056	-0,167
-483,649	87,899	0,068	0,056
-482,635	-42,819	-0,068	0,025
-481,620	-66,893	-0,046	-0,013
-480,605	104,296	0,048	-0,042
-479,591	37,135	0,096	0,063
-478,576	60,214	0,058	-0,042
-477,562	-97,710	0,060	-0,011
-476,547	38,303	-0,091	-0,059
-475,532	155,002	-0,031	0,031
-474,518	-200,000	0,006	-0,030
-473,503	-200,000	-0,001	-0,028
-472,489	179,839	0,051	0,055
-471,474	-27,694	0,008	0,004
-470,459	4,277	-0,061	-0,033
-469,445	113,033	0,075	-0,067
-468,430	-175,825	-0,068	-0,001
-467,416	143,692	-0,036	0,035
-466,401	292,294	0,037	0,050
-465,386	-97,547	0,063	0,012
-464,372	92,000	-0,049	-0,040
-463,357	-125,198	0,112	0,012
-462,343	-30,135	0,111	-0,046
-461,328	498,055	-0,020	-0,034
-460,313	2,982	0,057	0,031
-459,299	223,775	0,077	0,092
-458,284	800,000	-0,016	0,045
-457,270	-155,147	-0,170	0,008
-456,255	122,521	-0,072	-0,066
-455,241	-109,822	-0,184	0,028
-454,226	-18,177	-0,046	0,021
-453,211	160,999	-0,067	-0,069
-452,197	16,936	0,059	0,034
-451,182	-118,168	-0,068	-0,009
-450,168	675,732	-0,018	0,035
-449,153	16,774	-0,074	-0,043
-448,138	-200,000	-0,002	-0,015
-447,124	-113,176	-0,153	-0,022
-446,109	-87,446	0,036	-0,008
-445,095	-158,373	0,112	-0,005
-444,080	-46,880	-0,033	-0,012
-443,065	-41,142	-0,055	0,021
-442,051	775,142	-0,060	0,122
-441,036	647,472	-0,036	-0,069
-440,022	-200,000	0,007	-0,036
-439,007	-200,000	0,010	-0,093
-437,992	30,707	-0,033	0,021
-436,978	53,282	-0,041	-0,029
-435,963	-200,000	0,026	-0,086
-434,949	-37,429	-0,063	-0,025
-433,934	117,921	-0,029	0,026
-432,919	-97,870	-0,157	-0,030
-431,905	11,787	0,025	-0,014
-430,890	-65,239	0,141	0,042
-429,876	490,694	-0,044	0,075
-428,861	800,000	0,004	0,013
-427,846	-7,851	0,087	0,043
-426,832	800,000	-0,051	0,148
-425,817	-21,935	-0,092	0,041
-424,803	75,699	-0,095	0,074
-423,788	-71,459	0,071	0,019
-422,773	663,012	0,084	0,161
-421,759	800,000	0,016	0,051
-420,744	76,662	-0,092	0,072
-419,730	-4,775	0,046	-0,023
-418,715	95,193	0,077	-0,064
-417,701	-63,905	0,024	0,007
-416,686	331,294	0,115	0,163
-415,671	800,000	0,046	0,135
-414,657	188,765	-0,064	-0,071
-413,642	-18,707	-0,182	-0,083
-412,628	54,146	-0,027	0,019
-411,613	-35,917	-0,058	-0,023
-410,598	800,000	-0,019	0,044
-409,584	-200,000	-0,024	-0,114
-408,569	-200,000	0,016	0,105
-407,555	259,696	0,058	0,074
-406,540	-200,000	-0,026	0,121
-405,525	-64,105	-0,090	-0,027
-404,511	-7,302	-0,167	-0,083
-403,496	-18,615	0,096	0,044
-402,482	-126,991	-0,055	-0,006
-401,467	-62,142	0,139	-0,042
-400,452	-200,000	0,017	-0,127
-399,438	800,000	-0,039	-0,106
-398,423	472,665	0,067	0,111
-397,409	101,893	-0,062	-0,053
-396,394	-200,000	0,001	-0,160
-395,379	48,410	-0,078	0,053
-394,365	-200,000	0,004	-0,017
-393,350	119,156	0,054	0,049
-392,336	308,547	0,057	0,078
-391,321	-51,360	-0,036	-0,012
-390,306	-60,451	-0,079	-0,024
-389,292	-47,740	-0,068	-0,024
-388,277	-200,000	0,020	0,072
-387,263	19,348	0,174	-0,102
-386,248	-26,986	-0,026	0,011
-385,233	8,220	0,080	-0,044
-384,219	800,000	-0,031	-0,098
-383,204	800,000	0,029	-0,092
-382,190	-200,000	0,007	0,036
-381,175	-122,633	-0,090	0,011
-380,160	323,635	-0,036	0,051
-379,146	149,752	0,038	-0,037
-378,131	59,447	0,098	-0,071
-377,117	111,766	0,115	0,102
-376,102	-121,059	0,136	-0,017
-375,088	800,000	-0,014	0,035
-374,073	-37,821	0,079	-0,031
-373,058	-76,948	0,143	0,036
-372,044	30,342	0,099	-0,062
-371,029	-200,000	-0,024	-0,124
-370,015	330,515	-0,055	-0,079
-369,000	453,781	0,030	-0,049
-367,985	306,012	-0,099	0,135
-366,971	-27,846	-0,074	0,031
-365,956	262,364	0,061	0,078
-364,942	-200,000	0,010	0,050
-363,927	45,759	0,081	0,055
-362,912	97,511	-0,028	-0,024
-361,898	31,482	0,072	-0,046
-360,883	645,701	0,011	-0,021
-359,869	-200,000	-0,024	-0,108
-358,854	48,736	-0,021	0,014
-357,839	-3,941	-0,058	0,030
-356,825	-200,000	-0,017	0,088
-355,810	540,366	0,030	0,053
-354,796	-108,418	-0,073	-0,011
-353,781	-200,000	-0,022	-0,088
-352,766	13,400	0,123	-0,070
-351,752	28,807	0,029	0,018
-350,737	31,397	0,022	0,014
-349,723	-96,663	0,017	-0,003
-348,708	126,000	0,005	-0,005
-347,693	-103,236	0,032	0,006
-346,679	-162,382	-0,081	0,003
-345,664	151,222	-0,008	0,008
-344,650	-92,767	0,030	-0,006
-343,635	-200,000	-0,004	0,024
-342,620	-31,105	0,047	-0,019
-341,606	-74,001	0,066	-0,017
-340,591	26,544	0,081	0,049
-339,577	-200,000	0,029	0,139
-338,562	34,681	0,145	-0,093
-337,548	-56,776	0,088	-0,028
-336,533	-200,000	-0,048	-0,167
-335,518	-169,200	0,059	0,002
-334,504	-96,551	-0,025	-0,005
-333,489	355,871	-0,027	-0,040
-332,475	800,000	0,045	-0,106
-331,460	-101,032	-0,015	0,003
-330,445	-188,855	-0,111	0,001
-329,431	36,565	0,169	0,109
-328,416	-123,501	0,057	-0,007
-327,402	409,977	0,013	0,021
-326,387	800,000	-0,029	0,072
-325,372	-124,172	-0,027	-0,003
-324,358	-163,509	-0,073	0,002
-323,343	612,888	-0,013	-0,025
-322,329	-154,622	0,084	-0,004
-321,314	760,358	-0,050	-0,099
-320,299	-35,457	-0,020	-0,008
-319,285	-200,000	0,016	0,056
-318,270	-81,138	-0,092	-0,022
-317,256	238,276	-0,079	-0,097
-316,241	-101,940	-0,175	-0,031
-315,226	-87,861	0,100	0,022
-314,212	-51,741	0,051	0,017
-313,197	-54,449	0,146	0,048
-312,183	147,870	0,117	0,116
-311,168	-200,000	-0,010	0,032
-310,153	449,468	0,053	0,086
-309,139	800,000	-0,016	-0,035
-308,124	23,205	-0,043	-0,026
-307,110	-200,000	-0,036	0,130
-306,095	800,000	-0,038	0,110
-305,080	-166,964	-0,098	-0,003
-304,066	800,000	0,015	-0,041
-303,051	173,634	-0,045	0,048
-302,037	680,906	0,048	-0,093
-301,022	103,346	-0,082	-0,070
-300,008	146,580	0,082	0,081
-298,993	223,938	0,091	0,108
-297,978	-200,000	0,024	0,181
-296,964	168,864	-0,024	-0,025
-295,949	219,548	0,015	-0,018
-294,935	1,437	-0,117	0,061
-293,920	453,093	-0,050	-0,081
-292,905	-102,596	0,260	0,045
-291,891	-23,535	0,072	-0,031
-290,876	-200,000	0,017	0,102
-289,862	-200,000	0,041	0,134
-288,847	-73,225	-0,081	-0,022
-287,832	27,878	-0,063	0,039
-286,818	-200,000	-0,002	-0,040
-285,803	7,665	0,025	0,014
-284,789	594,970	0,018	0,032
-283,774	-125,680	0,131	0,014
-282,759	-200,000	-0,015	0,088
-281,745	800,000	0,085	-0,182
-280,730	800,000	-0,029	0,063
-279,716	-200,000	-0,021	0,103
-278,701	179,913	0,081	0,087
-277,686	-200,000	-0,013	0,052
-276,672	-83,244	0,072	0,017
-275,657	-87,043	0,094	-0,021
-274,643	27,786	0,117	-0,072
-273,628	-200,000	-0,012	0,042
-272,613	119,063	-0,028	0,025
-271,599	800,000	0,005	0,014
-270,584	-79,864	0,141	0,034
-269,570	-200,000	-0,012	0,102
-268,555	368,482	-0,023	0,034
-267,540	-90,035	0,080	-0,017
-266,526	81,123	-0,162	-0,128
-265,511	196,046	-0,148	-0,165
-264,497	41,313	0,050	0,033
-263,482	377,617	0,099	0,148
-262,467	-98,787	-0,043	0,008
-261,453	36,859	-0,112	0,072
-260,438	-70,692	0,059	0,016
-259,424	-200,000	-0,012	-0,090
-258,409	-200,000	0,012	0,061
-257,395	529,911	-0,023	-0,041
-256,380	-200,000	0,003	0,082
-255,365	-200,000	-0,018	0,120
-254,351	138,670	0,058	-0,055
-253,336	-200,000	-0,001	0,044
-252,322	-51,206	-0,086	-0,029
-251,307	800,000	-0,044	0,093
-250,292	-200,000	0,023	-0,076
-249,278	99,525	-0,014	0,012
-248,263	-54,034	-0,107	0,035
-247,249	-12,035	-0,071	-0,034
-246,234	25,904	0,071	-0,043
-245,219	422,235	0,082	-0,129
-244,205	-200,000	-0,013	-0,175
-243,190	-120,503	-0,103	-0,013
-242,176	-104,141	0,099	0,017
-241,161	652,201	-0,040	0,074
-240,146	134,079	0,038	0,035
-239,132	20,652	0,060	-0,035
-238,117	-200,000	-0,004	-0,046
-237,103	-9,795	-0,079	0,038
-236,088	-21,181	-0,057	-0,025
-235,073	-200,000	-0,008	0,058
-234,059	108,057	0,045	-0,039
-233,044	800,000	0,004	0,012
-232,030	-97,750	-0,190	-0,036
-231,015	800,000	0,026	0,061
-230,000	76,930	-0,046	0,036
-228,986	-16,862	-0,068	0,031
-227,971	-200,000	0,006	0,084
-226,957	78,664	0,033	-0,026
-225,942	-53,952	0,125	-0,041
-224,927	49,574	0,061	0,042
-223,913	-200,000	0,017	-0,096
-222,898	566,562	-0,028	-0,050
-221,884	-91,541	-0,096	-0,020
-220,869	-19,993	-0,093	0,042
-219,855	-7,621	0,083	0,041
-218,840	294,511	-0,027	0,036
-217,825	800,000	-0,022	-0,062
-216,811	464,496	0,051	0,083
-215,796	-117,566	-0,097	-0,013
-214,782	-119,395	-0,139	0,017
-213,767	-200,000	-0,002	0,173
-212,752	77,246	0,032	0,025
-211,738	-200,000	0,006	0,078
-210,723	800,000	0,032	0,087
-209,709	800,000	0,018	0,058
-208,694	-95,566	0,041	0,008
-207,679	-200,000	-0,001	-0,162
-206,665	317,559	-0,014	-0,020
-205,650	153,119	0,082	0,082
-204,636	800,000	0,042	0,110
-203,621	425,332	-0,023	0,035
-202,606	164,604	-0,033	0,034
-201,592	-200,000	-0,013	-0,098
-200,577	-107,469	0,055	-0,009
-199,563	-45,443	-0,101	-0,036
-198,548	8,839	0,064	-0,035
-197,533	-106,251	0,083	0,013
-196,519	415,609	0,079	0,124
-195,504	-200,000	0,003	-0,058
-194,490	5,674	-0,095	-0,051
-193,475	-200,000	-0,005	0,089
-192,460	108,407	0,019	-0,016
-191,446	73,638	0,081	-0,062
-190,431	800,000	-0,018	0,042
-189,417	60,772	-0,079	0,057
-188,402	-80,670	0,141	0,034
-187,387	51,211	-0,025	-0,017
-186,373	-173,459	-0,105	0,002
-185,358	-111,703	0,060	-0,009
-184,344	208,727	0,008	-0,009
-183,329	186,233	0,033	0,036
-182,315	300,451	-0,047	0,063
-181,300	360,304	0,048	-0,070
-180,285	-51,541	-0,110	-0,037
-179,271	749,060	-0,034	0,068
-178,256	-79,841	0,150	0,036
-177,242	-200,000	0,153	-0,000
-176,227	48,383	0,048	0,032
-175,212	-86,437	-0,103	0,023
-174,198	54,349	0,108	0,075
-173,183	-200,000	-0,013	-0,092
-172,169	-67,389	0,037	0,011
-171,154	800,000	-0,040	-0,124
-170,139	-107,792	0,086	0,013
-169,125	-200,000	0,022	-0,079
-168,110	658,413	-0,016	-0,029
-167,096	404,464	0,055	0,085
-166,081	128,855	0,051	0,047
-165,066	47,409	-0,043	-0,029
-164,052	32,790	-0,152	0,095
-163,037	-45,413	-0,063	0,023
-162,023	-200,000	-0,008	0,085
-161,008	-149,877	-0,097	0,005
-159,993	-106,624	0,187	0,030
-158,979	31,638	-0,064	-0,040
-157,964	32,327	-0,054	0,034
-156,950	-41,015	-0,125	0,047
-155,935	-33,563	0,090	0,036
-154,920	-200,000	-0,009	-0,139
-153,906	79,499	-0,066	0,051
-152,891	220,429	-0,069	-0,081
-151,877	-200,000	-0,003	-0,049
-150,862	-200,000	-0,022	-0,193
-149,847	-200,000	0,009	-0,105
-148,833	94,005	0,049	-0,040
-147,818	-103,019	0,065	-0,011
-146,804	-154,157	-0,097	-0,005
-145,789	698,345	0,041	-0,079
-144,775	800,000	0,015	0,044
-143,760	-46,306	-0,095	-0,034
-142,745	607,596	0,062	-0,113
-141,731	49,884	0,026	-0,018
-140,716	-85,556	0,053	-0,012
-139,702	800,000	-0,036	0,094
-138,687	-83,037	0,110	0,026
-137,672	517,687	-0,025	0,042
-136,658	800,000	-0,023	-0,064
-135,643	359,995	0,029	-0,042
-134,629	-16,654	-0,126	-0,058
-133,614	208,376	-0,098	0,111
-132,599	244,351	0,095	0,116
-131,585	129,166	-0,037	-0,035
-130,570	-200,000	-0,027	-0,113
-129,556	227,400	-0,056	0,067
-128,541	-74,182	-0,136	0,035
-127,526	-128,172	-0,126	-0,013
-126,512	-42,268	0,067	-0,025
-125,497	-200,000	-0,030	-0,157
-124,483	270,848	0,010	0,012
-123,468	777,250	-0,026	0,052
-122,453	111,032	0,117	0,102
-121,439	219,421	-0,074	-0,086
-120,424	-99,462	-0,160	0,029
-119,410	-200,000	0,015	0,054
-118,395	-95,574	-0,082	0,016
-117,380	795,191	-0,040	0,081
-116,366	800,000	-0,020	-0,041
-115,351	800,000	0,051	0,108
-114,337	303,313	0,066	0,089
-113,322	153,146	-0,074	-0,074
-112,307	-78,371	0,079	0,019
-111,293	-119,589	0,091	0,011
-110,278	-200,000	0,042	0,150
-109,264	133,173	-0,056	-0,053
-108,249	83,893	0,154	-0,122
-107,234	-127,536	-0,071	0,007
-106,220	-121,190	0,076	-0,009
-105,205	657,185	0,023	-0,043
-104,191	46,783	0,048	0,032
-103,176	91,655	0,064	-0,052
-102,162	-127,176	0,082	-0,009
-101,147	459,917	0,022	0,036
-100,132	-129,840	-0,032	0,003
-99,118	-200,000	-0,002	-0,039
-98,103	-23,321	-0,096	0,042
-97,089	-138,492	0,131	-0,010
-96,074	558,461	-0,074	0,131
-95,059	-115,435	-0,082	0,011
-94,045	-200,000	0,019	-0,093
-93,030	800,000	-0,026	-0,062
-92,016	54,394	0,050	-0,035
-91,001	-200,000	0,023	0,148
-89,986	-200,000	-0,027	0,147
-88,972	143,077	0,177	0,171
-87,957	800,000	-0,043	0,093
-86,943	800,000	0,038	0,098
-85,928	-24,711	-0,088	-0,038
-84,913	158,104	-0,046	0,047
-83,899	-60,928	0,044	-0,013
-82,884	7,210	-0,078	0,042
-81,870	-75,665	-0,164	0,042
-80,855	338,416	-0,025	-0,036
-79,840	76,564	0,085	-0,065
-78,826	-63,337	0,074	-0,022
-77,811	607,140	-0,046	-0,084
-76,797	-200,000	-0,026	0,096
-75,782	760,364	0,078	0,155
-74,767	86,308	-0,056	-0,045
-73,753	419,831	0,008	0,013
-72,738	462,488	0,038	0,062
-71,724	800,000	-0,050	-0,111
-70,709	800,000	0,054	-0,117
-69,694	656,165	-0,013	-0,025
-68,680	800,000	0,036	-0,104
-67,665	-200,000	0,021	0,149
-66,651	-200,000	-0,004	0,114
-65,636	104,371	0,035	0,030
-64,622	-102,995	-0,012	0,002
-63,607	-200,000	0,027	-0,115
-62,592	433,665	-0,019	0,031
-61,578	800,000	-0,040	0,127
-60,563	570,354	-0,079	0,140
-59,549	-200,000	0,050	0,174
-58,534	-136,554	-1,305	-0,108
-57,519	800,000	-0,667	-1,394
-56,505	-200,000	-0,810	-4,432
-55,490	-30,606	0,555	-0,227
-54,476	800,000	4,745	11,329
-53,461	-200,000	14,096	251,191
-52,446	-200,000	693,204	2232,512
-51,432	578,069	1621,022	2884,019
-50,417	117,352	1629,166	1451,022
-49,403	73,740	1283,919	973,713
-48,388	37,584	1020,892	654,840
-47,373	23,773	979,445	582,996
-46,359	23,060	968,679	574,238
-45,344	21,978	964,435	568,179
-44,330	21,934	962,833	567,067
-43,315	21,825	961,420	565,859
-42,300	21,846	960,409	565,312
-41,286	21,789	959,402	564,512
-40,271	21,817	958,414	563,997
-39,257	21,807	957,576	563,450
-38,242	21,791	956,633	562,820
-37,227	21,766	955,649	562,138
-36,213	21,733	954,900	561,571
-35,198	21,755	953,921	561,041
-34,184	21,818	953,363	560,896
-33,169	21,723	952,573	560,101
-32,154	21,848	951,471	559,834
-31,140	21,799	950,641	559,167
-30,125	21,814	949,950	558,786
-29,111	21,810	948,983	558,181
-28,096	21,813	948,374	557,809
-27,082	21,805	947,727	557,381
-26,067	21,817	946,874	556,897
-25,052	21,728	946,255	556,225
-24,038	21,781	945,558	555,965
-23,023	21,858	944,924	555,814
-22,009	21,800	944,379	555,288
-20,994	21,879	943,541	555,024
-19,979	21,854	943,058	554,638
-18,965	21,855	942,381	554,222
-17,950	21,810	941,884	553,763
-16,936	21,764	941,270	553,234
-15,921	21,721	940,371	552,548
-14,906	21,684	939,744	552,042
-13,892	21,670	939,191	551,649
-12,877	21,670	938,464	551,200
-11,863	21,643	937,852	550,734
-10,848	21,641	937,309	550,387
-9,833	21,817	936,712	550,571
-8,819	21,675	936,514	549,984
-7,804	21,669	935,586	549,398
-6,790	21,631	935,153	549,001
-5,775	21,735	934,222	548,761
-4,760	21,700	933,643	548,291
-3,746	21,617	933,302	547,806
-2,731	21,517	932,393	546,937
-1,717	21,543	931,783	546,638
-0,702	21,513	931,008	546,067
0,313	21,284	930,515	545,884
1,327	23,699	928,087	551,972
2,342	31,235	806,605	500,072
3,356	26,336	507,764	306,439
4,371	2,584	372,958	194,960
5,386	-0,293	355,882	182,499
6,400	-2,195	349,639	176,995
7,415	-2,979	346,603	174,506
8,429	-2,991	345,111	173,726
9,444	-3,093	344,167	173,115
10,459	-3,081	343,421	172,738
11,473	-3,072	342,944	172,493
12,488	-2,913	342,648	172,516
13,502	-2,878	341,910	172,171
14,517	-2,841	341,305	171,895
15,531	-3,246	340,712	171,106
16,546	-3,186	340,276	170,942
17,561	-3,283	339,947	170,647
18,575	-3,267	339,554	170,453
19,590	-3,396	338,949	169,985
20,604	-3,141	338,680	170,132
21,619	-3,318	338,350	169,745
22,634	-3,181	338,199	169,812
23,648	-3,215	337,553	169,434
24,663	-3,238	337,353	169,291
25,677	-3,083	336,873	169,216
26,692	-3,333	336,766	168,857
27,707	-3,321	336,385	168,665
28,721	-3,228	336,058	168,593
29,736	-3,183	335,714	168,457
30,750	-3,250	335,493	168,255
31,765	-3,341	335,287	168,032
32,780	-3,272	334,946	167,925
33,794	-3,171	334,523	167,814
34,809	-3,230	334,428	167,684
35,823	-3,254	334,112	167,482
36,838	-3,122	333,727	167,425
37,853	-3,215	333,423	167,153
38,867	-3,214	333,200	167,026
39,882	-3,332	332,973	166,762
40,896	-3,235	332,609	166,677
41,911	-3,201	332,273	166,532
42,926	-3,361	331,888	166,142
43,940	-3,275	331,666	166,114
44,955	-3,414	331,594	165,904
45,969	-3,442	331,226	165,674
46,984	-3,639	331,091	165,368
47,999	-3,646	330,606	165,103
49,013	-3,688	330,321	164,898
50,028	-3,694	330,083	164,758
51,042	-3,617	329,753	164,666
52,057	-3,704	329,511	164,432
53,071	-3,779	329,318	164,236
54,086	-3,714	329,135	164,204
55,101	-3,548	328,824	164,221
56,115	-3,478	328,468	164,107
57,130	-3,307	328,505	164,304
58,144	-3,219	328,341	164,307
59,159	-3,262	328,101	164,123
60,174	-3,079	327,713	164,119
61,188	-3,160	327,465	163,890
62,203	-3,127	327,181	163,770
63,217	-3,166	326,974	163,609
64,232	-2,892	326,605	163,716
65,247	-3,072	326,515	163,455
66,261	-3,133	326,333	163,281
67,276	-3,347	325,882	162,802
68,290	-3,372	325,581	162,609
69,305	-3,409	325,276	162,400
70,320	-3,422	325,192	162,331
71,334	-3,334	324,794	162,215
72,349	-3,159	324,698	162,347
73,363	-3,052	324,373	162,289
74,378	-3,248	324,185	161,962
75,393	-3,155	323,999	161,959
76,407	-3,107	323,551	161,773
77,422	-3,285	323,571	161,572
78,436	-3,052	323,163	161,611
79,451	-3,261	322,971	161,270
80,466	-3,293	322,602	161,037
81,480	-3,276	322,381	160,930
82,495	-3,331	322,090	160,710
83,509	-3,447	321,982	160,514
84,524	-3,514	321,760	160,315
85,539	-3,446	321,382	160,187
86,553	-3,515	321,001	159,908
87,568	-3,390	321,016	160,038
88,582	-3,394	320,697	159,860
89,597	-3,420	320,432	159,685
90,611	-3,316	320,233	159,686
91,626	-3,237	320,044	159,663
92,641	-3,333	319,856	159,450
93,655	-3,171	319,542	159,456
94,670	-3,378	319,435	159,163
95,684	-3,338	319,139	159,044
96,699	-3,205	318,828	159,021
97,714	-3,256	318,496	158,785
98,728	-3,396	318,324	158,533
99,743	-3,425	318,096	158,374
100,757	-3,397	317,754	158,220
101,772	-3,437	317,540	158,056
102,787	-3,493	317,256	157,840
103,801	-3,370	317,213	157,937
104,816	-3,287	317,037	157,926
105,830	-3,086	316,787	158,004
106,845	-3,166	316,659	157,841
107,860	-3,212	316,358	157,626
108,874	-3,176	315,971	157,459
109,889	-3,295	315,812	157,237
110,903	-3,331	315,609	157,084
111,918	-3,451	315,353	156,812
112,933	-3,259	315,208	156,933
113,947	-3,402	314,925	156,625
114,962	-3,202	314,708	156,717
115,976	-3,327	314,589	156,510
116,991	-3,281	314,289	156,396
118,006	-3,263	314,027	156,271
119,020	-3,336	313,966	156,148
120,035	-3,246	313,834	156,165
121,049	-3,126	313,503	156,115
122,064	-3,225	313,307	155,897
123,079	-3,289	313,024	155,675
124,093	-3,184	312,707	155,615
125,108	-3,481	312,507	155,185
126,122	-3,437	312,308	155,120
127,137	-3,496	311,966	154,872
128,151	-3,440	311,843	154,857
129,166	-3,461	311,580	154,692
130,181	-3,321	311,317	154,695
131,195	-3,505	311,206	154,431
132,210	-3,467	311,134	154,421
133,224	-3,324	310,722	154,355
134,239	-3,196	310,603	154,418
135,254	-3,213	310,295	154,232
136,268	-3,246	310,080	154,077
137,283	-3,339	309,851	153,851
138,297	-3,467	309,513	153,535
139,312	-3,472	309,359	153,440
140,327	-3,245	309,239	153,606
141,341	-3,192	309,117	153,586
142,356	-2,914	308,904	153,760
143,370	-2,916	308,559	153,572
144,385	-2,984	308,512	153,464
145,400	-3,032	308,211	153,250
146,414	-2,878	308,012	153,299
147,429	-3,051	307,923	153,059
148,443	-2,850	307,579	153,085
149,458	-2,807	307,315	152,986
150,473	-2,880	307,376	152,925
151,487	-3,015	306,969	152,568
152,502	-2,671	306,653	152,756
153,516	-2,880	306,624	152,510
154,531	-2,997	306,298	152,213
155,546	-2,975	306,056	152,102
156,560	-2,998	305,911	151,992
157,575	-3,106	305,523	151,674
158,589	-3,158	305,332	151,512
159,604	-2,965	305,171	151,618
160,619	-3,000	304,997	151,482
161,633	-3,021	304,743	151,321
162,648	-3,083	304,708	151,225
163,662	-3,059	304,487	151,127
164,677	-3,106	304,141	150,894
165,692	-2,835	303,969	151,075
166,706	-2,863	303,790	150,943
167,721	-2,962	303,647	150,756
168,735	-2,886	303,414	150,705
169,750	-2,842	303,345	150,703
170,764	-2,868	303,248	150,615
171,779	-2,813	302,992	150,531
172,794	-2,848	302,715	150,344
173,808	-3,107	302,456	149,936
174,823	-3,182	302,031	149,635
175,837	-3,387	301,900	149,347
176,852	-3,016	301,956	149,741
177,867	-2,896	301,608	149,678
178,881	-2,909	301,479	149,587
179,896	-2,943	301,376	149,488
180,910	-2,922	301,182	149,400
181,925	-2,918	300,953	149,278
182,940	-2,882	300,728	149,189
183,954	-2,839	300,474	149,094
184,969	-2,749	300,340	149,106
185,983	-2,958	300,143	148,782
186,998	-2,767	299,869	148,826
188,013	-2,737	299,650	148,736
189,027	-2,888	299,350	148,420
190,042	-2,915	299,472	148,439
191,056	-2,749	299,036	148,378
192,071	-2,845	298,963	148,232
193,086	-2,875	298,787	148,101
194,100	-2,684	298,404	148,091
195,115	-2,874	298,269	147,819
196,129	-2,833	298,098	147,762
197,144	-2,866	297,835	147,586
198,159	-2,799	297,537	147,492
199,173	-2,913	297,526	147,359
200,188	-2,522	297,102	147,529
201,202	-2,939	296,993	147,042
202,217	-3,310	296,547	146,436
203,232	-3,525	296,594	146,231
204,246	-3,151	296,356	146,476
205,261	-2,785	296,155	146,730
206,275	-2,939	296,030	146,500
207,290	-2,988	295,752	146,301
208,304	-2,850	295,574	146,337
209,319	-2,839	295,391	146,245
210,334	-2,891	295,109	146,040
211,348	-2,907	294,975	145,945
212,363	-2,844	294,742	145,879
213,377	-2,757	294,444	145,805
214,392	-2,984	294,419	145,554
215,407	-2,964	294,114	145,410
216,421	-3,016	293,895	145,237
217,436	-3,280	293,686	144,859
218,450	-3,230	293,552	144,830
219,465	-3,040	293,363	144,911
220,480	-2,993	293,225	144,878
221,494	-3,039	293,107	144,761
222,509	-2,995	293,116	144,796
223,523	-3,047	292,841	144,596
224,538	-2,889	292,625	144,632
225,553	-2,911	292,254	144,414
226,567	-2,752	292,022	144,444
227,582	-2,699	291,926	144,436
228,596	-2,875	291,932	144,252
229,611	-2,714	291,732	144,299
230,626	-2,876	291,467	143,996
231,640	-3,111	291,083	143,562
232,655	-3,143	290,841	143,398
233,669	-3,282	290,585	143,123
234,684	-3,248	290,399	143,052
235,699	-3,194	290,265	143,026
236,713	-3,198	290,235	142,995
237,728	-3,319	290,104	142,799
238,742	-3,183	289,859	142,799
239,757	-3,082	289,737	142,824
240,772	-2,763	289,262	142,889
241,786	-3,007	289,305	142,659
242,801	-3,012	289,023	142,503
243,815	-3,016	288,900	142,426
244,830	-3,013	288,741	142,337
245,844	-3,168	288,572	142,090
246,859	-3,030	288,244	142,051
247,874	-2,984	288,150	142,036
248,888	-2,927	288,055	142,032
249,903	-2,936	287,863	141,915
250,917	-2,686	287,676	142,054
251,932	-2,643	287,570	142,030
252,947	-2,179	287,667	142,515
253,961	-2,583	287,279	141,919
254,976	-1,821	287,655	142,830
255,990	1,205	288,455	146,150
257,005	2,119	288,644	147,120
258,020	3,368	288,979	148,488
259,034	3,661	288,739	148,636
260,049	3,467	288,639	148,383
261,063	3,122	288,429	147,928
262,078	3,333	288,276	148,040
263,093	3,922	288,330	148,624
264,107	3,843	288,187	148,461
265,122	4,182	288,194	148,778
266,136	4,368	288,045	148,868
267,151	4,176	287,707	148,495
268,166	3,893	287,487	148,096
269,180	3,839	287,404	147,988
270,195	3,895	287,142	147,893
271,209	4,110	286,727	147,873
272,224	3,930	286,644	147,644
273,239	3,746	286,486	147,373
274,253	3,757	286,171	147,208
275,268	4,133	286,296	147,621
276,282	4,010	286,042	147,358
277,297	4,006	285,894	147,265
278,312	4,547	285,919	147,782
279,326	4,363	285,588	147,422
280,341	4,239	285,201	147,091
281,355	3,868	285,075	146,659
282,370	3,977	284,734	146,574
283,384	4,066	284,612	146,584
284,399	3,916	284,566	146,404
285,414	3,851	284,438	146,263
286,428	3,808	284,150	146,061
287,443	3,659	283,886	145,770
288,457	3,537	283,589	145,490
289,472	3,556	283,414	145,404
290,487	3,391	283,271	145,161
291,501	3,395	283,012	145,020
292,516	2,969	282,878	144,535
293,530	3,148	282,701	144,601
294,545	3,727	282,507	145,036
295,560	3,728	282,430	144,985
296,574	3,362	282,316	144,568
297,589	3,621	282,089	144,683
298,603	3,921	282,093	144,955
299,618	3,958	281,719	144,784
300,633	3,685	281,562	144,434
301,647	3,690	281,459	144,373
302,662	3,851	281,142	144,349
303,676	3,595	280,991	144,018
304,691	3,346	280,601	143,572
305,706	3,120	280,495	143,293
306,720	3,142	280,256	143,179
307,735	3,151	280,061	143,075
308,749	3,433	279,976	143,282
309,764	3,388	279,887	143,181
310,779	3,403	279,530	143,001
311,793	3,207	279,389	142,733
312,808	3,282	279,166	142,676
313,822	3,327	279,000	142,620
314,837	3,171	278,805	142,363
315,852	2,977	278,657	142,094
316,866	3,107	278,451	142,097
317,881	3,342	278,375	142,264
318,895	3,396	277,969	142,094
319,910	3,199	277,892	141,859
320,925	3,254	277,519	141,708
321,939	3,149	277,650	141,664
322,954	3,366	277,497	141,774
323,968	3,398	277,429	141,757
324,983	3,544	277,170	141,747
325,997	3,740	276,886	141,769
327,012	3,645	276,849	141,650
328,027	3,487	276,537	141,333
329,041	3,554	276,405	141,314
330,056	3,238	276,301	140,957
331,070	3,435	276,072	141,009
332,085	3,376	275,844	140,826
333,100	3,553	275,699	140,902
334,114	3,373	275,503	140,624
335,129	3,203	275,334	140,370
336,143	3,453	275,124	140,479
337,158	3,662	275,115	140,654
338,173	3,578	274,853	140,430
339,187	3,307	274,730	140,107
340,202	3,620	274,575	140,301
341,216	3,435	274,509	140,086
342,231	3,499	274,295	140,023
343,246	3,379	274,169	139,836
344,260	3,415	273,876	139,707
345,275	3,650	273,718	139,829
346,289	3,976	273,572	140,038
347,304	3,827	273,357	139,779
348,319	3,810	273,192	139,668
349,333	3,514	273,031	139,304
350,348	3,864	272,935	139,560
351,362	3,631	272,783	139,258
352,377	3,664	272,685	139,226
353,392	3,717	272,371	139,101
354,406	3,911	272,337	139,248
355,421	191,345	1330,332	1407,187
356,435	154,582	1459,315	1407,300
