DTS Sentinel unit serial number:	SN410029Multiplexer serial number:	ORYXHardware model number:	OX2-SRSoftware version number:	ORYX F/W v4,00 Oryx Data Collector v3.7.2.0data status	okinstallation	B4 Nyhavnadifferential loss correction	single-endedforward channel	channel 2reverse channel	N/Adate	2023/12/19time	03:40:13forward acquisition time	300,00reverse acquisition time	0,00gamma	499,1914k internal	0,3125k external	0,3125temperature offset calibration	1,0000default loss term (dB/km)	0,3820temperature slope calibration	1,0000multiplexer offset coefficient	1,0000multiplexer slope coefficient	1,0000fibre end	0,00T internal ref (°C)	21,06T ext. ref 1 (°C)	5,63T ext. ref 2 (°C)	5,58length (m)	temperature (°C)	Stokes	anti-Stokes-744,400	-200,000	0,020	-0,081
-743,385	-110,187	-0,164	0,025
-742,371	-200,000	-0,005	0,075
-741,356	187,991	-0,211	0,235
-740,342	-71,085	-0,081	-0,022
-739,327	-132,505	-0,238	0,023
-738,312	800,000	-0,070	-0,173
-737,298	92,424	-0,148	0,125
-736,283	-102,831	-0,103	0,018
-735,269	-57,630	-0,191	0,062
-734,254	4,635	0,045	-0,025
-733,239	-89,795	-0,379	-0,082
-732,225	-88,583	0,132	-0,029
-731,210	-14,833	0,046	-0,022
-730,196	768,800	-0,063	-0,127
-729,181	-200,000	-0,008	-0,049
-728,167	190,150	-0,034	0,038
-727,152	178,430	-0,178	0,193
-726,137	-43,276	-0,090	-0,034
-725,123	211,007	0,045	0,053
-724,108	788,953	0,076	-0,156
-723,094	171,670	-0,034	0,037
-722,079	454,727	-0,067	-0,110
-721,064	-48,896	-0,119	-0,042
-720,050	4,415	-0,027	-0,015
-719,035	359,264	-0,017	-0,026
-718,021	247,943	0,085	0,107
-717,006	201,259	-0,067	-0,077
-715,991	157,592	-0,070	-0,072
-714,977	800,000	-0,035	-0,104
-713,962	58,016	-0,039	-0,029
-712,948	-200,000	-0,007	0,032
-711,933	-137,951	-0,111	-0,009
-710,918	-117,891	-0,045	-0,006
-709,904	-200,000	0,007	-0,055
-708,889	-200,000	0,002	-0,054
-707,875	145,950	-0,053	-0,052
-706,860	-200,000	0,008	-0,055
-705,845	204,364	-0,013	-0,015
-704,831	-119,296	0,080	-0,010
-703,816	-58,476	0,040	-0,013
-702,802	-87,140	-0,087	-0,019
-701,787	187,736	0,047	0,053
-700,772	-183,069	-0,130	0,002
-699,758	-200,000	0,008	0,168
-698,743	-200,000	-0,015	0,102
-697,729	-77,032	0,084	-0,022
-696,714	-7,640	0,035	0,018
-695,699	359,019	-0,102	-0,152
-694,685	-200,000	-0,022	0,093
-693,670	-113,083	-0,017	0,002
-692,656	141,569	0,123	-0,121
-691,641	-200,000	-0,043	-0,170
-690,627	-200,000	0,028	0,129
-689,612	385,304	0,071	-0,109
-688,597	-90,987	-0,186	-0,039
-687,583	800,000	-0,025	-0,076
-686,568	798,981	-0,035	0,073
-685,554	-97,262	-0,127	-0,024
-684,539	-167,040	-0,100	0,003
-683,524	-200,000	0,020	-0,079
-682,510	800,000	0,017	0,052
-681,495	800,000	0,022	-0,065
-680,481	-33,854	-0,124	-0,050
-679,466	800,000	-0,066	-0,145
-678,451	-39,050	0,056	-0,022
-677,437	631,842	-0,026	0,050
-676,422	43,951	-0,047	0,032
-675,408	294,917	-0,011	-0,015
-674,393	468,818	0,056	0,094
-673,378	-163,877	-0,078	0,003
-672,364	514,223	-0,051	-0,089
-671,349	800,000	0,033	-0,073
-670,335	-128,711	0,034	-0,004
-669,320	-55,509	0,041	-0,013
-668,305	-85,514	-0,175	-0,040
-667,291	31,231	0,145	-0,092
-666,276	301,467	-0,047	-0,065
-665,262	315,114	-0,055	-0,078
-664,247	-143,505	-0,106	-0,007
-663,232	305,577	-0,078	-0,107
-662,218	-200,000	-0,003	-0,014
-661,203	-31,834	-0,138	0,057
-660,189	-200,000	-0,028	0,092
-659,174	800,000	-0,030	-0,063
-658,159	3,800	-0,106	0,057
-657,145	77,685	-0,053	-0,042
-656,130	2,781	0,092	0,049
-655,116	-106,237	0,126	-0,021
-654,101	800,000	-0,046	0,100
-653,086	-72,152	0,203	-0,056
-652,072	800,000	-0,044	-0,118
-651,057	-67,902	-0,076	-0,022
-650,043	-79,619	-0,081	-0,020
-649,028	-38,175	0,087	-0,034
-648,014	334,073	0,077	-0,111
-646,999	-200,000	-0,009	0,057
-645,984	-22,987	-0,138	-0,061
-644,970	110,604	0,033	-0,030
-643,955	310,753	-0,114	-0,158
-642,941	800,000	-0,030	-0,072
-641,926	313,206	-0,012	-0,017
-640,911	800,000	0,033	0,077
-639,897	208,553	0,020	-0,023
-638,882	41,155	-0,037	0,025
-637,868	-190,972	-0,035	-0,000
-636,853	175,280	-0,040	0,043
-635,838	67,385	0,069	0,052
-634,824	800,000	-0,046	-0,121
-633,809	-200,000	0,024	-0,107
-632,795	-50,377	0,080	-0,028
-631,780	106,351	0,092	0,081
-630,765	502,055	-0,061	0,105
-629,751	-76,975	-0,101	-0,026
-628,736	63,243	-0,094	-0,070
-627,722	118,898	0,057	-0,052
-626,707	-200,000	-0,008	0,064
-625,692	75,614	-0,054	0,042
-624,678	800,000	0,029	0,063
-623,663	138,660	0,046	0,044
-622,649	155,975	-0,033	-0,034
-621,634	800,000	-0,042	-0,098
-620,619	-58,421	-0,129	0,041
-619,605	-200,000	-0,005	-0,024
-618,590	-109,849	-0,030	0,005
-617,576	69,911	0,043	-0,033
-616,561	85,149	0,114	-0,092
-615,546	754,613	-0,069	-0,139
-614,532	347,232	0,014	-0,021
-613,517	-44,960	-0,075	0,027
-612,503	35,865	-0,099	0,064
-611,488	45,294	0,096	0,065
-610,474	114,855	0,060	-0,054
-609,459	-200,000	0,003	-0,123
-608,444	151,334	0,065	-0,066
-607,430	61,205	0,049	-0,036
-606,415	-200,000	-0,015	-0,068
-605,401	514,023	0,019	0,033
-604,386	64,538	-0,082	-0,061
-603,371	-164,055	0,110	-0,004
-602,357	289,327	-0,071	0,095
-601,342	-56,676	0,058	0,019
-600,328	155,138	-0,050	-0,051
-599,313	-200,000	-0,034	-0,113
-598,298	237,453	0,042	0,052
-597,284	-200,000	0,016	0,114
-596,269	-86,334	-0,107	0,024
-595,255	3,484	-0,143	0,077
-594,240	800,000	0,035	0,099
-593,225	54,706	-0,168	0,119
-592,211	-79,870	-0,170	0,042
-591,196	-91,026	-0,072	0,015
-590,182	-59,786	-0,020	0,006
-589,167	-7,555	-0,033	-0,016
-588,152	348,220	0,026	-0,038
-587,138	-134,618	-0,043	0,004
-586,123	374,722	0,023	-0,035
-585,109	-200,000	0,037	0,169
-584,094	235,214	-0,093	-0,114
-583,079	-200,000	-0,013	0,138
-582,065	-109,489	0,243	0,038
-581,050	-11,077	-0,078	-0,038
-580,036	-167,373	0,097	-0,003
-579,021	-200,000	-0,024	-0,133
-578,006	-107,993	-0,074	-0,012
-576,992	250,307	-0,052	-0,066
-575,977	-200,000	-0,009	-0,159
-574,963	800,000	0,019	-0,051
-573,948	-177,882	0,116	0,002
-572,934	-200,000	-0,020	-0,082
-571,919	-140,904	0,083	-0,006
-570,904	796,711	-0,063	-0,130
-569,890	-46,925	0,015	-0,006
-568,875	-200,000	-0,023	0,080
-567,861	800,000	-0,009	0,028
-566,846	123,378	-0,040	-0,037
-565,831	89,662	0,106	-0,087
-564,817	53,524	-0,067	-0,048
-563,802	372,891	0,035	0,053
-562,788	-47,385	0,028	-0,010
-561,773	-56,458	0,079	0,026
-560,758	-80,606	0,125	0,031
-559,744	-66,331	0,107	-0,031
-558,729	460,689	-0,060	0,100
-557,715	246,818	0,028	0,035
-556,700	-200,000	0,008	-0,095
-555,685	642,599	0,033	0,062
-554,671	800,000	0,056	-0,116
-553,656	201,528	-0,182	-0,208
-552,642	-200,000	0,012	0,057
-551,627	-200,000	0,024	0,118
-550,612	43,157	0,027	-0,019
-549,598	-155,328	0,024	-0,001
-548,583	135,803	0,029	-0,028
-547,569	800,000	-0,017	-0,037
-546,554	800,000	-0,058	0,145
-545,539	142,847	-0,061	0,060
-544,525	-200,000	0,013	0,065
-543,510	478,099	-0,051	0,086
-542,496	-200,000	-0,024	-0,096
-541,481	40,026	0,124	0,082
-540,466	800,000	-0,017	0,055
-539,452	82,470	-0,045	0,036
-538,437	74,830	0,060	-0,046
-537,423	-85,198	-0,071	0,016
-536,408	437,762	-0,036	0,057
-535,393	311,098	-0,073	-0,102
-534,379	-200,000	-0,001	-0,020
-533,364	-12,010	0,140	-0,068
-532,350	-200,000	-0,039	0,146
-531,335	89,310	0,078	0,064
-530,321	15,429	0,031	0,018
-529,306	-200,000	-0,005	-0,023
-528,291	71,565	-0,032	-0,024
-527,277	-54,638	-0,063	0,021
-526,262	-200,000	-0,034	0,117
-525,248	45,712	0,050	0,034
-524,233	-168,754	-0,010	-0,000
-523,218	-200,000	-0,013	0,091
-522,204	18,948	0,129	0,076
-521,189	333,222	0,071	0,101
-520,175	-112,055	-0,113	-0,017
-519,160	-65,399	-0,056	-0,017
-518,145	-56,262	0,025	0,008
-517,131	-180,850	0,062	-0,001
-516,116	-200,000	0,000	0,022
-515,102	800,000	0,012	0,036
-514,087	-10,112	0,079	-0,038
-513,072	-200,000	0,018	-0,073
-512,058	80,549	-0,103	-0,082
-511,043	800,000	-0,044	-0,096
-510,029	-191,729	-0,024	0,000
-509,014	800,000	0,043	0,108
-507,999	362,197	-0,046	-0,068
-506,985	-41,305	0,093	0,035
-505,970	44,072	-0,072	-0,048
-504,956	318,245	-0,114	-0,160
-503,941	-77,988	0,175	0,044
-502,926	-200,000	-0,000	-0,073
-501,912	235,436	0,035	0,042
-500,897	-200,000	-0,010	0,099
-499,883	301,249	0,076	-0,104
-498,868	381,976	0,046	-0,070
-497,853	-200,000	-0,016	0,063
-496,839	-175,626	-0,009	0,000
-495,824	53,300	0,073	0,052
-494,810	-171,493	-0,015	-0,000
-493,795	-200,000	-0,002	0,025
-492,781	424,533	-0,072	-0,115
-491,766	704,526	0,056	-0,109
-490,751	800,000	-0,049	-0,101
-489,737	-0,263	0,073	0,038
-488,722	-4,327	0,177	0,090
-487,708	-200,000	0,012	0,063
-486,693	504,788	-0,023	0,039
-485,678	-200,000	-0,009	-0,062
-484,664	119,466	-0,156	-0,143
-483,649	-200,000	-0,049	-0,168
-482,635	-200,000	0,045	-0,183
-481,620	179,182	0,051	-0,055
-480,605	-200,000	0,009	0,072
-479,591	133,625	0,089	0,085
-478,576	591,382	-0,035	-0,064
-477,562	51,711	-0,116	-0,081
-476,547	-200,000	-0,001	-0,096
-475,532	-200,000	-0,013	-0,058
-474,518	800,000	-0,037	0,077
-473,503	603,753	0,008	-0,015
-472,489	-200,000	-0,032	0,125
-471,474	800,000	0,039	-0,108
-470,459	15,408	0,072	-0,041
-469,445	-97,567	-0,143	-0,027
-468,430	129,152	-0,014	-0,014
-467,416	21,465	0,055	0,033
-466,401	800,000	0,048	0,109
-465,386	-17,228	0,099	-0,046
-464,372	-200,000	-0,017	0,080
-463,357	-25,842	0,091	0,039
-462,343	63,292	-0,140	-0,103
-461,328	-200,000	-0,013	0,146
-460,313	152,053	-0,166	0,167
-459,299	43,101	0,106	0,071
-458,284	-37,278	0,077	0,030
-457,270	-200,000	-0,006	0,120
-456,255	-200,000	-0,027	-0,095
-455,241	485,026	-0,037	0,063
-454,226	275,210	0,016	0,021
-453,211	800,000	0,017	0,048
-452,197	800,000	0,016	0,036
-451,182	-200,000	0,021	0,138
-450,168	44,762	0,092	-0,062
-449,153	481,875	0,026	-0,044
-448,138	10,488	-0,059	-0,033
-447,124	300,373	-0,062	-0,085
-446,109	-200,000	0,017	0,075
-445,095	-120,978	0,060	0,007
-444,080	5,293	-0,125	0,067
-443,065	137,654	0,024	0,023
-442,051	280,144	-0,030	-0,039
-441,036	800,000	0,004	-0,009
-440,022	181,528	0,121	-0,132
-439,007	-98,868	-0,138	0,026
-437,992	139,017	-0,079	0,077
-436,978	-17,055	0,047	-0,022
-435,963	-123,791	0,106	0,012
-434,949	171,986	0,094	-0,099
-433,934	-200,000	0,026	-0,094
-432,919	800,000	-0,045	-0,098
-431,905	-200,000	-0,022	-0,097
-430,890	-200,000	-0,003	0,033
-429,876	-9,456	-0,065	0,032
-428,861	511,399	-0,096	0,165
-427,846	370,579	0,033	-0,050
-426,832	800,000	-0,018	0,041
-425,817	90,290	-0,087	0,071
-424,803	25,371	0,070	-0,043
-423,788	-200,000	0,013	0,118
-422,773	366,198	0,072	0,107
-421,759	-54,242	0,076	0,025
-420,744	587,566	0,015	0,028
-419,730	-200,000	-0,024	-0,108
-418,715	-200,000	-0,030	-0,158
-417,701	-117,390	-0,137	-0,018
-416,686	-200,000	-0,002	0,046
-415,671	21,341	0,076	0,045
-414,657	148,643	0,020	-0,020
-413,642	-200,000	-0,009	0,074
-412,628	51,194	-0,134	-0,093
-411,613	-34,066	-0,127	0,051
-410,598	-200,000	-0,012	-0,111
-409,584	-187,604	-0,019	0,000
-408,569	-155,285	0,162	0,008
-407,555	-44,337	-0,126	0,046
-406,540	-91,315	-0,045	-0,009
-405,525	112,046	0,058	0,051
-404,511	-103,526	-0,062	-0,011
-403,496	-77,949	-0,095	0,024
-402,482	-200,000	0,052	-0,232
-401,467	-200,000	0,009	0,031
-400,452	96,455	-0,056	0,047
-399,438	118,486	-0,025	0,023
-398,423	-200,000	-0,002	-0,125
-397,409	-99,459	-0,118	0,022
-396,394	649,423	-0,037	-0,070
-395,379	16,063	0,053	0,031
-394,365	164,113	0,120	-0,124
-393,350	0,285	0,074	-0,038
-392,336	-117,606	0,092	0,012
-391,321	64,899	0,060	0,045
-390,306	800,000	0,025	0,053
-389,292	-200,000	-0,034	0,131
-388,277	-99,740	-0,084	0,015
-387,263	-200,000	-0,010	0,038
-386,248	-68,673	-0,058	-0,016
-385,233	-102,819	-0,123	-0,021
-384,219	-200,000	0,007	0,082
-383,204	-152,099	0,065	0,003
-382,190	-200,000	0,003	0,051
-381,175	-200,000	0,020	-0,095
-380,160	800,000	0,026	-0,063
-379,146	-5,510	-0,104	0,052
-378,131	-200,000	-0,027	-0,113
-377,117	369,775	-0,047	0,070
-376,102	-55,916	-0,128	-0,042
-375,088	216,827	0,116	-0,136
-374,073	46,634	0,033	0,022
-373,058	-200,000	0,005	-0,019
-372,044	400,044	0,068	0,105
-371,029	-200,000	-0,010	0,054
-370,015	528,755	0,072	-0,126
-369,000	-200,000	0,004	-0,092
-367,985	-200,000	-0,022	-0,113
-366,971	499,513	-0,083	0,142
-365,956	800,000	0,051	0,107
-364,942	-200,000	0,007	0,066
-363,927	-92,705	-0,094	0,019
-362,912	438,712	0,054	0,087
-361,898	-86,286	0,084	-0,019
-360,883	110,122	0,052	-0,046
-359,869	-54,264	-0,114	0,038
-358,854	26,953	0,050	0,031
-357,839	-71,356	0,199	-0,054
-356,825	28,316	-0,112	0,069
-355,810	-53,853	0,055	-0,018
-354,796	-200,000	-0,009	-0,155
-353,781	109,673	-0,029	0,026
-352,766	-200,000	0,004	-0,106
-351,752	-46,059	0,098	0,035
-350,737	-142,932	-0,140	0,010
-349,723	-200,000	-0,002	0,111
-348,708	800,000	-0,020	0,049
-347,693	-68,067	0,122	0,035
-346,679	495,498	-0,084	0,142
-345,664	-83,494	-0,091	-0,021
-344,650	97,804	-0,066	0,056
-343,635	-200,000	-0,005	0,055
-342,620	259,333	-0,035	0,045
-341,606	-200,000	0,002	0,078
-340,591	191,075	-0,142	0,157
-339,577	-58,015	-0,073	-0,023
-338,562	77,720	-0,141	-0,110
-337,548	-116,178	0,093	0,012
-336,533	800,000	0,021	0,059
-335,518	17,600	0,125	0,073
-334,504	62,325	-0,088	0,064
-333,489	-200,000	0,028	0,138
-332,475	-50,002	0,071	-0,025
-331,460	130,349	-0,037	-0,035
-330,445	800,000	-0,016	-0,046
-329,431	240,496	-0,049	-0,060
-328,416	189,101	0,044	0,048
-327,402	16,458	0,039	0,022
-326,387	66,417	-0,045	0,033
-325,372	287,399	0,032	-0,043
-324,358	726,953	-0,043	-0,084
-323,343	-82,613	0,057	0,013
-322,329	1,631	0,087	0,046
-321,314	800,000	0,028	-0,084
-320,299	54,808	0,099	-0,070
-319,285	-54,047	0,035	0,012
-318,270	-47,480	0,137	0,049
-317,256	-200,000	-0,056	-0,189
-316,241	-200,000	-0,041	-0,136
-315,226	-7,181	0,160	-0,079
-314,212	-171,737	0,090	0,002
-313,197	800,000	0,055	0,175
-312,183	800,000	-0,044	0,105
-311,168	97,186	-0,067	0,057
-310,153	-29,669	-0,076	0,032
-309,139	0,825	-0,122	0,064
-308,124	361,974	-0,025	-0,036
-307,110	209,725	0,155	0,178
-306,095	800,000	0,023	0,059
-305,080	95,867	0,085	0,071
-304,066	-82,597	-0,123	0,029
-303,051	-57,620	-0,210	-0,067
-302,037	-97,201	0,098	0,019
-301,022	-63,153	-0,145	0,043
-300,008	560,364	0,022	0,038
-298,993	208,560	0,093	-0,106
-297,978	259,611	0,091	0,115
-296,964	-200,000	0,016	-0,095
-295,949	-103,725	-0,062	-0,011
-294,935	59,976	-0,147	-0,106
-293,920	-62,263	-0,180	-0,055
-292,905	510,677	-0,025	-0,043
-291,891	-200,000	0,031	0,198
-290,876	-200,000	0,018	-0,084
-289,862	117,691	-0,044	0,040
-288,847	92,025	0,088	0,073
-287,832	-13,920	0,078	-0,037
-286,818	-111,822	-0,173	0,025
-285,803	-200,000	0,011	0,055
-284,789	48,436	0,102	-0,070
-283,774	56,686	0,031	-0,022
-282,759	-111,332	-0,131	0,019
-281,745	-200,000	-0,019	-0,061
-280,730	115,603	0,026	-0,023
-279,716	-200,000	0,048	-0,163
-278,701	-200,000	-0,003	-0,046
-277,686	800,000	0,021	-0,063
-276,672	384,664	-0,011	-0,017
-275,657	800,000	-0,061	0,135
-274,643	-38,002	-0,062	0,024
-273,628	-45,361	-0,023	-0,008
-272,613	-116,695	-0,098	0,013
-271,599	-94,671	0,023	0,005
-270,584	-137,182	-0,006	0,000
-269,570	-200,000	0,020	0,113
-268,555	536,228	-0,038	0,067
-267,540	139,664	0,089	0,085
-266,526	-200,000	-0,019	-0,179
-265,511	-4,200	0,035	-0,018
-264,497	800,000	0,044	0,092
-263,482	210,488	0,061	-0,070
-262,467	-176,434	0,085	0,002
-261,453	0,825	-0,043	-0,022
-260,438	-65,805	-0,172	0,050
-259,424	29,335	-0,114	0,071
-258,409	800,000	0,018	0,041
-257,395	800,000	0,016	0,032
-256,380	-200,000	0,016	-0,069
-255,365	10,966	0,129	-0,072
-254,351	-200,000	-0,005	0,035
-253,336	-200,000	0,025	0,127
-252,322	-200,000	-0,022	-0,092
-251,307	800,000	0,016	-0,038
-250,292	800,000	-0,038	-0,083
-249,278	800,000	0,018	-0,049
-248,263	-11,009	-0,048	0,023
-247,249	122,869	-0,127	-0,117
-246,234	-130,076	0,057	0,006
-245,219	-53,900	0,133	-0,044
-244,205	718,818	0,047	-0,091
-243,190	-59,537	0,112	-0,035
-242,176	800,000	0,032	-0,083
-241,161	19,219	0,086	-0,050
-240,146	-185,712	0,056	0,001
-239,132	47,262	0,098	-0,067
-238,117	145,528	-0,045	0,044
-237,103	800,000	-0,059	-0,184
-236,088	50,880	0,020	0,014
-235,073	-7,776	0,084	0,041
-234,059	-10,901	0,090	-0,043
-233,044	-200,000	-0,008	-0,036
-232,030	369,325	-0,071	0,105
-231,015	-56,829	-0,035	0,011
-230,000	382,479	0,103	-0,155
-228,986	-85,100	0,047	0,011
-227,971	62,062	-0,128	0,093
-226,957	-42,179	0,152	-0,057
-225,942	-34,129	0,150	0,060
-224,927	-16,169	-0,090	-0,042
-223,913	10,567	-0,091	-0,051
-222,898	800,000	-0,023	-0,056
-221,884	215,432	-0,023	-0,027
-220,869	-47,024	-0,022	-0,008
-219,855	369,574	0,028	0,042
-218,840	-85,025	-0,061	-0,014
-217,825	166,900	-0,066	-0,068
-216,811	800,000	0,025	0,056
-215,796	-81,797	-0,032	0,008
-214,782	-200,000	0,016	-0,062
-213,767	-200,000	-0,041	0,187
-212,752	-200,000	0,020	-0,065
-211,738	540,631	0,040	0,070
-210,723	6,324	0,132	0,071
-209,709	-144,887	-0,154	0,010
-208,694	177,735	0,047	0,050
-207,679	800,000	-0,060	0,162
-206,665	800,000	-0,047	0,131
-205,650	147,625	0,104	-0,102
-204,636	407,104	0,025	-0,039
-203,621	196,547	-0,056	0,062
-202,606	177,678	-0,014	0,015
-201,592	-200,000	0,000	0,129
-200,577	-150,531	0,038	-0,002
-199,563	-200,000	0,004	-0,064
-198,548	-165,153	0,199	-0,006
-197,533	0,841	0,077	0,040
-196,519	255,929	-0,052	-0,065
-195,504	89,982	0,085	0,069
-194,490	-159,175	-0,036	-0,001
-193,475	40,906	-0,030	0,020
-192,460	209,528	0,093	-0,107
-191,446	-41,750	0,260	-0,097
-190,431	22,857	0,025	-0,015
-189,417	-153,642	0,084	-0,004
-188,402	260,357	0,040	-0,051
-187,387	-200,000	-0,023	-0,155
-186,373	583,917	0,024	-0,042
-185,358	164,176	0,051	0,052
-184,344	-98,641	-0,071	0,013
-183,329	491,806	0,066	0,111
-182,315	-200,000	-0,003	-0,067
-181,300	-200,000	0,027	0,154
-180,285	286,224	-0,082	0,108
-179,271	-200,000	-0,037	0,143
-178,256	130,501	0,094	-0,088
-177,242	122,407	-0,087	0,079
-176,227	-200,000	-0,001	-0,069
-175,212	-200,000	0,011	-0,081
-174,198	800,000	-0,015	-0,047
-173,183	-143,070	-0,104	0,007
-172,169	-200,000	-0,028	-0,195
-171,154	800,000	0,050	-0,143
-170,139	-73,366	0,031	-0,008
-169,125	-200,000	-0,026	0,198
-168,110	147,922	0,044	0,043
-167,096	374,028	-0,022	0,032
-166,081	-200,000	0,000	0,098
-165,066	-200,000	0,007	0,034
-164,052	48,323	-0,022	0,015
-163,037	591,676	-0,071	0,128
-162,023	-90,960	0,190	0,039
-161,008	-16,722	-0,111	0,051
-159,993	3,994	-0,044	0,023
-158,979	-200,000	-0,019	0,066
-157,964	50,427	-0,045	-0,031
-156,950	551,520	-0,038	-0,068
-155,935	331,227	0,067	0,095
-154,920	-32,403	0,134	0,054
-153,906	-15,565	-0,124	-0,057
-152,891	-29,568	-0,139	0,057
-151,877	575,069	-0,038	-0,067
-150,862	-200,000	0,034	-0,121
-149,847	443,930	-0,052	-0,083
-148,833	149,711	-0,074	-0,073
-147,818	639,925	-0,038	-0,071
-146,804	108,884	0,128	-0,111
-145,789	-112,448	0,088	-0,013
-144,775	31,601	-0,110	-0,068
-143,760	34,216	-0,136	0,086
-142,745	-100,342	-0,084	-0,015
-141,731	65,215	-0,049	0,036
-140,716	-6,078	-0,100	0,050
-139,702	123,728	-0,065	0,060
-138,687	-50,603	-0,109	-0,037
-137,672	-9,133	0,039	-0,019
-136,658	-200,000	0,013	-0,074
-135,643	294,337	0,043	-0,057
-134,629	197,349	-0,044	-0,048
-133,614	-91,859	-0,082	-0,017
-132,599	56,406	0,044	0,031
-131,585	800,000	-0,034	0,073
-130,570	68,405	0,118	-0,088
-129,556	-200,000	0,009	0,056
-128,541	143,039	0,087	-0,084
-127,526	800,000	-0,059	-0,121
-126,512	800,000	-0,036	-0,098
-125,497	-10,654	0,056	0,027
-124,483	-200,000	0,049	-0,181
-123,468	242,693	-0,055	0,067
-122,453	-34,466	0,066	-0,026
-121,439	-200,000	-0,014	-0,084
-120,424	73,332	-0,089	-0,067
-119,410	13,335	0,055	0,031
-118,395	-200,000	0,021	0,095
-117,380	-200,000	0,010	-0,123
-116,366	-143,619	0,017	-0,001
-115,351	386,613	-0,101	-0,152
-114,337	162,297	-0,148	-0,151
-113,322	-200,000	0,048	-0,000
-112,307	-200,000	-0,012	-0,114
-111,293	-0,758	-0,070	-0,036
-110,278	126,672	-0,029	-0,026
-109,264	-82,400	-0,091	-0,021
-108,249	-35,849	-0,101	0,040
-107,234	104,670	0,039	-0,033
-106,220	7,529	-0,018	0,010
-105,205	-91,110	0,073	0,015
-104,191	-84,433	-0,050	-0,011
-103,176	-94,146	0,111	-0,022
-102,162	70,196	0,019	0,014
-101,147	-200,000	-0,004	-0,020
-100,132	-172,725	-0,134	0,003
-99,118	252,502	0,023	0,028
-98,103	-41,209	0,054	0,020
-97,089	253,877	-0,060	-0,074
-96,074	35,090	0,153	-0,097
-95,059	800,000	-0,053	-0,120
-94,045	800,000	-0,039	0,105
-93,030	-35,334	0,034	0,013
-92,016	-200,000	-0,011	-0,127
-91,001	25,443	-0,041	0,025
-89,986	-200,000	0,022	0,091
-88,972	-0,350	0,068	-0,035
-87,957	800,000	0,040	0,113
-86,943	59,774	-0,073	0,052
-85,928	-105,458	0,076	0,012
-84,913	9,561	-0,118	-0,065
-83,899	98,210	-0,133	-0,111
-82,884	-20,215	-0,037	-0,017
-81,870	-22,148	0,025	0,011
-80,855	19,760	0,124	-0,072
-79,840	-93,974	-0,137	-0,027
-78,826	-200,000	0,014	0,063
-77,811	486,616	-0,100	0,166
-76,797	800,000	-0,002	0,005
-75,782	442,745	-0,037	0,058
-74,767	-200,000	0,005	0,133
-73,753	325,733	0,037	-0,051
-72,738	45,954	0,065	-0,044
-71,724	474,176	-0,020	0,033
-70,709	72,439	-0,038	0,029
-69,694	-200,000	0,003	0,040
-68,680	-117,286	-0,024	0,003
-67,665	172,524	0,106	0,110
-66,651	74,919	-0,097	0,074
-65,636	800,000	-0,040	0,083
-64,622	-22,249	-0,044	0,019
-63,607	-200,000	-0,007	0,080
-62,592	-200,000	0,000	-0,048
-61,578	70,137	0,039	-0,029
-60,563	-133,574	0,024	0,002
-59,549	21,770	-0,018	-0,011
-58,534	-106,200	-1,341	-0,216
-57,519	700,429	-0,754	-1,446
-56,505	-200,000	-0,691	-4,439
-55,490	-117,863	0,506	-0,065
-54,476	800,000	4,940	11,750
-53,461	-200,000	14,471	261,433
-52,446	-200,000	695,946	2280,157
-51,432	604,650	1622,416	2940,774
-50,417	118,546	1630,965	1459,563
-49,403	76,174	1284,575	984,884
-48,388	37,303	1022,200	655,298
-47,373	23,372	981,196	583,220
-46,359	22,536	970,552	574,132
-45,344	21,327	966,158	567,561
-44,330	21,367	964,882	566,920
-43,315	21,169	963,218	565,274
-42,300	21,123	962,189	564,500
-41,286	21,159	961,319	564,085
-40,271	21,100	960,239	563,236
-39,257	21,080	959,277	562,586
-38,242	21,060	958,354	561,957
-37,227	21,138	957,504	561,687
-36,213	21,045	956,783	560,941
-35,198	20,993	955,707	560,122
-34,184	21,096	954,963	559,993
-33,169	21,049	954,148	559,344
-32,154	21,089	953,337	558,975
-31,140	21,128	952,337	558,490
-30,125	21,090	951,839	558,054
-29,111	21,166	950,600	557,552
-28,096	21,155	950,212	557,264
-27,082	21,106	949,373	556,594
-26,067	21,089	948,653	556,095
-25,052	21,060	947,866	555,518
-24,038	21,072	947,314	555,211
-23,023	21,068	946,677	554,804
-22,009	21,167	945,874	554,628
-20,994	21,198	945,506	554,488
-19,979	21,156	944,848	553,947
-18,965	21,144	944,281	553,554
-17,950	21,118	943,621	553,064
-16,936	21,075	942,832	552,440
-15,921	21,020	942,342	551,958
-14,906	20,984	941,494	551,324
-13,892	20,996	941,026	551,066
-12,877	20,989	940,241	550,564
-11,863	20,978	939,617	550,139
-10,848	20,982	939,205	549,890
-9,833	20,968	938,786	549,579
-8,819	21,045	937,968	549,321
-7,804	20,960	937,376	548,683
-6,790	20,993	936,803	548,433
-5,775	21,021	936,178	548,133
-4,760	21,005	935,685	547,771
-3,746	20,940	934,839	547,049
-2,731	20,774	934,427	546,261
-1,717	20,755	933,534	545,658
-0,702	20,863	932,708	545,495
0,313	20,621	932,204	545,262
1,327	23,098	930,036	551,728
2,342	30,695	806,905	499,235
3,356	25,168	507,739	304,696
4,371	0,332	373,607	192,577
5,386	-2,585	356,834	180,331
6,400	-3,685	351,056	176,064
7,415	-3,875	348,385	174,480
8,429	-3,704	346,961	173,957
9,444	-3,780	346,087	173,413
10,459	-3,743	345,456	173,124
11,473	-3,582	344,670	172,907
12,488	-3,985	344,311	172,234
13,502	-4,067	343,660	171,794
14,517	-3,976	343,301	171,707
15,531	-3,810	342,790	171,632
16,546	-3,636	342,285	171,570
17,561	-3,686	341,935	171,321
18,575	-3,652	341,472	171,113
19,590	-3,627	340,976	170,878
20,604	-3,814	340,925	170,618
21,619	-3,785	340,420	170,384
22,634	-3,781	339,957	170,143
23,648	-3,752	339,655	170,009
24,663	-3,830	339,389	169,770
25,677	-3,734	339,105	169,725
26,692	-3,681	338,701	169,569
27,707	-3,657	338,419	169,442
28,721	-3,821	338,281	169,166
29,736	-3,817	337,853	168,942
30,750	-3,833	337,502	168,733
31,765	-3,806	337,377	168,686
32,780	-3,742	337,061	168,588
33,794	-3,842	336,860	168,356
34,809	-3,830	336,549	168,199
35,823	-3,685	336,110	168,133
36,838	-3,688	335,827	167,973
37,853	-3,699	335,548	167,805
38,867	-3,881	335,325	167,470
39,882	-3,795	335,117	167,449
40,896	-3,830	334,802	167,237
41,911	-3,804	334,502	167,103
42,926	-3,833	334,193	166,900
43,940	-3,712	333,868	166,860
44,955	-3,798	333,815	166,721
45,969	-3,781	333,317	166,477
46,984	-3,605	333,205	166,607
47,999	-3,761	333,064	166,343
49,013	-3,700	332,780	166,256
50,028	-3,707	332,378	166,033
51,042	-3,913	332,174	165,681
52,057	-3,752	331,811	165,668
53,071	-3,674	331,567	165,621
54,086	-3,621	331,424	165,596
55,101	-3,716	331,042	165,282
56,115	-3,603	330,725	165,237
57,130	-3,828	330,658	164,933
58,144	-3,784	330,325	164,803
59,159	-3,705	330,081	164,756
60,174	-3,760	329,763	164,520
61,188	-3,677	329,431	164,434
62,203	-3,735	329,251	164,263
63,217	-3,755	328,955	164,078
64,232	-3,901	328,893	163,867
65,247	-3,759	328,387	163,762
66,261	-3,725	328,270	163,727
67,276	-3,695	327,901	163,562
68,290	-3,670	327,548	163,399
69,305	-3,815	327,466	163,181
70,320	-3,787	327,305	163,118
71,334	-3,668	326,974	163,071
72,349	-3,710	326,659	162,853
73,363	-3,876	326,475	162,561
74,378	-3,674	326,065	162,568
75,393	-3,796	325,886	162,328
76,407	-3,803	325,732	162,228
77,422	-3,676	325,467	162,224
78,436	-3,805	325,168	161,917
79,451	-3,684	324,865	161,887
80,466	-3,561	324,667	161,909
81,480	-3,464	324,267	161,803
82,495	-3,658	323,976	161,429
83,509	-3,665	323,843	161,340
84,524	-3,718	323,713	161,203
85,539	-3,711	323,547	161,113
86,553	-3,617	323,181	161,021
87,568	-3,735	322,935	160,754
88,582	-3,720	322,769	160,673
89,597	-3,721	322,501	160,524
90,611	-3,713	322,256	160,396
91,626	-3,844	321,939	160,080
92,641	-3,735	321,784	160,109
93,655	-3,810	321,606	159,923
94,670	-3,606	321,235	159,949
95,684	-3,695	320,905	159,673
96,699	-3,839	320,847	159,471
97,714	-3,768	320,493	159,360
98,728	-3,569	320,165	159,400
99,743	-3,645	320,041	159,240
100,757	-3,582	319,790	159,170
101,772	-3,711	319,556	158,899
102,787	-3,619	319,302	158,859
103,801	-3,722	318,935	158,550
104,816	-3,835	319,007	158,448
105,830	-3,710	318,681	158,408
106,845	-3,834	318,404	158,121
107,860	-3,785	318,225	158,072
108,874	-3,759	317,889	157,919
109,889	-3,811	317,582	157,696
110,903	-3,728	317,439	157,701
111,918	-3,702	317,097	157,545
112,933	-3,795	317,004	157,385
113,947	-3,610	316,823	157,480
114,962	-3,542	316,476	157,367
115,976	-3,739	316,310	157,058
116,991	-3,682	315,980	156,942
118,006	-3,764	315,914	156,806
119,020	-3,920	315,840	156,588
120,035	-3,704	315,544	156,660
121,049	-3,647	315,228	156,550
122,064	-3,562	314,994	156,512
123,079	-3,769	314,733	156,145
124,093	-3,636	314,685	156,250
125,108	-3,637	314,354	156,071
126,122	-3,614	313,986	155,899
127,137	-3,559	313,930	155,916
128,151	-3,664	313,657	155,654
129,166	-3,609	313,435	155,589
130,181	-3,775	313,314	155,337
131,195	-3,553	312,936	155,374
132,210	-3,722	312,687	155,056
133,224	-3,619	312,450	155,034
134,239	-3,779	312,309	154,780
135,254	-3,649	312,013	154,757
136,268	-3,764	311,866	154,549
137,283	-3,625	311,652	154,577
138,297	-3,676	311,442	154,405
139,312	-3,746	311,141	154,168
140,327	-3,749	310,900	154,031
141,341	-3,716	310,773	153,989
142,356	-3,728	310,589	153,872
143,370	-3,506	310,207	153,904
144,385	-3,671	310,171	153,698
145,400	-3,693	309,936	153,544
146,414	-3,674	309,641	153,404
147,429	-3,657	309,460	153,319
148,443	-3,612	309,180	153,214
149,458	-3,778	308,989	152,931
150,473	-3,615	308,793	152,992
151,487	-3,573	308,367	152,811
152,502	-3,651	308,276	152,670
153,516	-3,603	308,022	152,581
154,531	-3,775	307,777	152,266
155,546	-3,789	307,696	152,198
156,560	-3,563	307,360	152,255
157,575	-3,472	307,048	152,181
158,589	-3,585	306,889	151,971
159,604	-3,609	306,702	151,840
160,619	-3,598	306,363	151,670
161,633	-3,554	306,203	151,623
162,648	-3,589	306,120	151,532
163,662	-3,682	306,032	151,378
164,677	-3,687	305,756	151,223
165,692	-3,682	305,525	151,101
166,706	-3,509	305,216	151,114
167,721	-3,623	305,209	150,978
168,735	-3,520	304,980	150,958
169,750	-3,626	304,784	150,738
170,764	-3,709	304,513	150,505
171,779	-3,637	304,343	150,481
172,794	-3,716	304,162	150,298
173,808	-3,520	303,901	150,358
174,823	-3,452	303,563	150,246
175,837	-3,662	303,506	149,989
176,852	-3,738	303,278	149,784
177,867	-3,645	303,110	149,783
178,881	-3,745	302,898	149,563
179,896	-3,547	302,762	149,686
180,910	-3,672	302,410	149,369
181,925	-3,530	302,204	149,400
182,940	-3,618	302,082	149,237
183,954	-3,615	301,763	149,069
184,969	-3,544	301,723	149,108
185,983	-3,409	301,508	149,126
186,998	-3,475	301,210	148,899
188,013	-3,529	300,982	148,718
189,027	-3,430	300,750	148,691
190,042	-3,520	300,599	148,511
191,056	-3,600	300,504	148,369
192,071	-3,583	300,179	148,213
193,086	-3,590	300,008	148,108
194,100	-3,654	299,824	147,939
195,115	-3,713	299,597	147,754
196,129	-3,455	299,455	147,933
197,144	-3,603	299,146	147,616
198,159	-3,615	298,813	147,427
199,173	-3,653	298,698	147,319
200,188	-3,696	298,484	147,157
201,202	-3,672	298,260	147,057
202,217	-3,590	298,084	147,041
203,232	-3,879	297,844	146,616
204,246	-3,564	297,510	146,757
205,261	-3,532	297,428	146,736
206,275	-3,518	297,154	146,602
207,290	-3,540	297,154	146,566
208,304	-3,604	297,009	146,417
209,319	-3,583	296,730	146,288
210,334	-3,492	296,343	146,176
211,348	-3,539	296,292	146,090
212,363	-3,443	296,021	146,040
213,377	-3,562	295,919	145,857
214,392	-3,756	295,726	145,555
215,407	-3,641	295,348	145,470
216,421	-3,725	295,327	145,363
217,436	-3,705	294,976	145,198
218,450	-3,734	294,766	145,053
219,465	-3,640	294,545	145,024
220,480	-3,555	294,201	144,927
221,494	-3,716	294,167	144,737
222,509	-3,706	294,057	144,679
223,523	-3,576	293,879	144,709
224,538	-3,701	293,691	144,479
225,553	-3,753	293,509	144,325
226,567	-3,521	293,325	144,452
227,582	-3,641	293,153	144,235
228,596	-3,599	292,990	144,184
229,611	-3,586	292,683	144,033
230,626	-3,545	292,509	143,974
231,640	-3,424	292,186	143,922
232,655	-3,564	292,018	143,689
233,669	-3,420	291,862	143,741
234,684	-3,450	291,621	143,580
235,699	-3,518	291,574	143,477
236,713	-3,654	291,486	143,288
237,728	-3,568	291,270	143,253
238,742	-3,528	290,954	143,123
239,757	-3,529	290,652	142,962
240,772	-3,537	290,397	142,815
241,786	-3,643	290,366	142,684
242,801	-3,463	290,263	142,797
243,815	-3,558	290,092	142,606
244,830	-3,521	289,732	142,453
245,844	-3,481	289,458	142,345
246,859	-3,375	289,464	142,439
247,874	-3,596	289,256	142,108
248,888	-3,647	289,190	142,013
249,903	-3,538	288,761	141,896
250,917	-3,714	288,813	141,738
251,932	-3,588	288,328	141,609
252,947	-3,864	288,102	141,218
253,961	-4,232	287,789	140,694
254,976	-4,499	287,694	140,376
255,990	-4,360	287,438	140,374
257,005	-2,966	287,808	141,895
258,020	-0,733	288,440	144,364
259,034	0,462	288,865	145,725
260,049	0,744	288,825	145,965
261,063	1,363	288,862	146,572
262,078	1,668	288,786	146,816
263,093	1,902	288,669	146,971
264,107	2,123	288,581	147,127
265,122	2,225	288,544	147,194
266,136	2,364	288,339	147,210
267,151	2,334	288,202	147,099
268,166	2,622	287,955	147,237
269,180	2,553	287,670	147,012
270,195	2,284	287,752	146,782
271,209	2,185	287,527	146,558
272,224	2,262	287,234	146,470
273,239	2,275	287,014	146,357
274,253	2,240	286,698	146,149
275,268	2,152	286,680	146,042
276,282	2,098	286,520	145,896
277,297	2,107	286,261	145,760
278,312	2,430	286,054	145,951
279,326	2,316	285,777	145,688
280,341	2,187	285,746	145,536
281,355	2,169	285,649	145,456
282,370	2,263	285,270	145,340
283,384	2,304	285,166	145,313
284,399	2,087	285,001	145,009
285,414	2,236	284,578	144,922
286,428	2,109	284,441	144,719
287,443	2,163	284,405	144,739
288,457	2,048	284,107	144,465
289,472	2,124	283,870	144,404
290,487	2,046	283,784	144,274
291,501	2,178	283,478	144,230
292,516	2,193	283,256	144,118
293,530	2,106	283,157	143,972
294,545	2,091	283,018	143,875
295,560	1,890	282,899	143,611
296,574	2,206	282,648	143,770
297,589	2,040	282,430	143,489
298,603	2,075	282,230	143,408
299,618	2,017	282,148	143,299
300,633	2,180	281,820	143,273
301,647	2,104	281,765	143,161
302,662	2,264	281,497	143,163
303,676	2,287	281,392	143,118
304,691	2,257	281,246	143,003
305,706	2,314	281,108	142,974
306,720	2,256	280,919	142,809
307,735	2,242	280,772	142,710
308,749	2,220	280,603	142,590
309,764	2,276	280,356	142,505
310,779	2,275	280,165	142,394
311,793	2,251	279,931	142,240
312,808	2,088	279,788	142,002
313,822	2,050	279,625	141,870
314,837	2,178	279,482	141,906
315,852	2,159	279,417	141,842
316,866	2,143	279,134	141,671
317,881	2,369	278,894	141,747
318,895	2,417	278,600	141,630
319,910	2,251	278,467	141,395
320,925	2,197	278,334	141,264
321,939	2,249	278,148	141,206
322,954	2,314	278,036	141,196
323,968	2,379	277,971	141,212
324,983	2,376	277,603	141,010
325,997	2,341	277,439	140,881
327,012	2,274	277,284	140,728
328,027	2,459	277,126	140,806
329,041	2,399	276,890	140,619
330,056	2,100	276,857	140,312
331,070	2,390	276,604	140,440
332,085	2,416	276,429	140,361
333,100	2,236	276,275	140,105
334,114	2,327	275,988	140,031
335,129	2,270	275,858	139,900
336,143	2,259	275,712	139,803
337,158	2,267	275,547	139,715
338,173	2,531	275,258	139,798
339,187	2,365	275,201	139,604
340,202	2,391	274,950	139,489
341,216	2,376	274,726	139,349
342,231	2,326	274,692	139,272
343,246	2,317	274,564	139,187
344,260	2,275	274,302	139,004
345,275	2,411	274,170	139,048
346,289	2,485	273,961	138,998
347,304	2,451	273,751	138,848
348,319	2,249	273,567	138,559
349,333	2,416	273,400	138,614
350,348	2,448	273,173	138,516
351,362	2,348	273,072	138,361
352,377	2,424	273,009	138,385
353,392	2,317	272,780	138,160
354,406	2,445	272,601	138,173
355,421	191,380	1348,319	1427,571
356,435	154,512	1479,466	1427,703
