DTS Sentinel unit serial number:	SN410029Multiplexer serial number:	ORYXHardware model number:	OX2-SRSoftware version number:	ORYX F/W v4,00 Oryx Data Collector v3.7.2.0data status	okinstallation	B4 Nyhavnadifferential loss correction	single-endedforward channel	channel 2reverse channel	N/Adate	2023/12/15time	23:45:13forward acquisition time	300,00reverse acquisition time	0,00gamma	499,1914k internal	0,3128k external	0,3128temperature offset calibration	1,0000default loss term (dB/km)	0,3820temperature slope calibration	1,0000multiplexer offset coefficient	1,0000multiplexer slope coefficient	1,0000fibre end	0,00T internal ref (°C)	21,80T ext. ref 1 (°C)	6,70T ext. ref 2 (°C)	6,88length (m)	temperature (°C)	Stokes	anti-Stokes-744,400	-109,447	0,117	-0,018
-743,385	-79,822	-0,247	0,061
-742,371	496,551	0,031	-0,053
-741,356	74,052	-0,206	0,161
-740,342	36,766	-0,033	0,021
-739,327	10,158	-0,295	0,166
-738,312	290,518	0,049	-0,067
-737,298	-120,663	-0,287	0,036
-736,283	800,000	0,016	-0,050
-735,269	-90,036	-0,186	0,040
-734,254	171,192	-0,044	0,047
-733,239	-43,633	-0,397	-0,148
-732,225	92,909	0,008	0,007
-731,210	-163,246	-0,111	0,004
-730,196	-200,000	-0,012	-0,088
-729,181	800,000	0,056	0,124
-728,167	-35,548	0,014	0,006
-727,152	678,860	-0,042	-0,082
-726,137	220,396	-0,096	-0,114
-725,123	36,204	-0,113	-0,074
-724,108	553,976	-0,112	-0,202
-723,094	-57,657	-0,087	0,028
-722,079	-200,000	-0,028	-0,245
-721,064	43,120	0,083	-0,056
-720,050	-8,320	-0,150	-0,075
-719,035	159,502	0,056	0,058
-718,021	638,056	-0,015	-0,028
-717,006	590,916	-0,059	-0,109
-715,991	146,108	-0,138	-0,138
-714,977	177,173	0,068	-0,074
-713,962	-200,000	0,021	-0,073
-712,948	-84,876	0,132	0,031
-711,933	98,107	-0,136	0,116
-710,918	144,391	-0,053	-0,053
-709,904	57,089	-0,102	-0,073
-708,889	-200,000	0,009	-0,081
-707,875	112,079	-0,053	0,048
-706,860	16,241	0,125	-0,073
-705,845	-182,250	0,059	-0,001
-704,831	-37,246	-0,029	-0,012
-703,816	-43,333	0,072	-0,027
-702,802	481,163	-0,046	0,078
-701,787	64,980	-0,092	-0,069
-700,772	-173,107	-0,160	0,004
-699,758	250,576	0,109	-0,138
-698,743	39,909	-0,072	0,048
-697,729	60,456	-0,108	-0,079
-696,714	800,000	-0,040	-0,097
-695,699	296,443	0,023	-0,032
-694,685	-200,000	0,004	-0,147
-693,670	-52,245	-0,019	0,006
-692,656	669,277	0,022	-0,043
-691,641	-200,000	0,008	0,041
-690,627	73,928	0,109	-0,085
-689,612	-47,838	0,043	-0,015
-688,597	-200,000	-0,001	-0,038
-687,583	-62,962	-0,143	0,043
-686,568	679,195	-0,049	0,095
-685,554	28,296	-0,020	0,012
-684,539	80,884	-0,051	-0,040
-683,524	800,000	0,017	0,035
-682,510	-27,674	-0,084	0,036
-681,495	190,187	-0,052	0,058
-680,481	-200,000	0,000	-0,153
-679,466	59,314	-0,114	-0,084
-678,451	470,820	0,018	0,030
-677,437	74,723	-0,026	0,020
-676,422	-117,422	0,125	-0,017
-675,408	-200,000	-0,018	-0,116
-674,393	800,000	-0,012	-0,036
-673,378	18,104	-0,202	-0,119
-672,364	404,428	-0,097	-0,151
-671,349	-200,000	0,013	-0,135
-670,335	-200,000	-0,008	0,031
-669,320	-200,000	-0,000	-0,097
-668,305	-23,406	-0,079	-0,035
-667,291	800,000	0,052	-0,160
-666,276	438,387	-0,089	0,145
-665,262	73,296	-0,118	-0,092
-664,247	-146,434	-0,186	-0,012
-663,232	800,000	-0,017	-0,051
-662,218	64,926	0,095	0,071
-661,203	46,096	-0,098	-0,067
-660,189	73,854	-0,127	0,098
-659,174	-200,000	-0,008	-0,185
-658,159	-106,057	0,104	-0,017
-657,145	369,440	0,019	-0,029
-656,130	481,830	0,038	0,065
-655,116	139,661	-0,116	0,113
-654,101	332,281	0,028	0,040
-653,086	117,230	0,026	0,024
-652,072	-2,657	-0,043	0,022
-651,057	271,307	-0,019	-0,025
-650,043	-23,051	-0,058	0,026
-649,028	800,000	-0,006	-0,015
-648,014	800,000	0,054	0,115
-646,999	311,034	-0,023	0,032
-645,984	-36,217	0,074	-0,029
-644,970	110,676	-0,088	0,079
-643,955	800,000	-0,019	0,048
-642,941	-54,817	0,059	0,020
-641,926	166,564	-0,031	0,032
-640,911	98,256	0,035	0,030
-639,897	341,148	0,050	-0,073
-638,882	800,000	0,028	0,059
-637,868	-95,008	-0,090	0,018
-636,853	800,000	-0,058	-0,124
-635,838	-73,074	0,066	0,018
-634,824	-200,000	-0,015	-0,098
-633,809	405,223	0,035	-0,054
-632,795	-200,000	-0,012	-0,043
-631,780	236,754	-0,044	0,054
-630,765	800,000	0,062	-0,173
-629,751	-26,943	0,014	0,006
-628,736	399,253	-0,096	-0,150
-627,722	357,134	0,061	-0,090
-626,707	-152,797	-0,026	-0,001
-625,692	204,550	0,109	-0,126
-624,678	315,372	0,088	-0,123
-623,663	-50,134	-0,132	-0,046
-622,649	-42,359	-0,097	0,036
-621,634	-49,561	-0,220	-0,077
-620,619	-133,377	-0,023	0,002
-619,605	351,297	-0,062	-0,092
-618,590	800,000	0,018	-0,038
-617,576	800,000	0,033	-0,093
-616,561	544,933	-0,084	0,150
-615,546	73,819	0,090	0,070
-614,532	800,000	0,021	-0,044
-613,517	800,000	-0,013	-0,029
-612,503	477,439	-0,037	-0,062
-611,488	370,145	0,017	0,026
-610,474	279,361	-0,022	0,030
-609,459	381,856	-0,051	0,077
-608,444	128,721	-0,124	0,117
-607,430	150,322	0,066	-0,066
-606,415	130,741	0,044	-0,042
-605,401	272,834	-0,056	0,073
-604,386	-200,000	0,014	0,239
-603,371	800,000	0,085	0,238
-602,357	-200,000	0,018	0,074
-601,342	160,748	0,039	-0,040
-600,328	-152,639	-0,034	-0,002
-599,313	800,000	-0,052	-0,136
-598,298	-94,883	-0,113	0,022
-597,284	-177,707	0,161	0,003
-596,269	-74,924	-0,048	-0,013
-595,255	-145,791	0,088	0,006
-594,240	27,452	-0,092	-0,057
-593,225	46,772	-0,049	0,033
-592,211	-200,000	-0,025	-0,146
-591,196	-200,000	-0,015	-0,067
-590,182	-200,000	-0,039	0,168
-589,167	97,336	0,045	0,038
-588,152	418,874	0,072	-0,114
-587,138	800,000	0,029	-0,085
-586,123	-200,000	-0,046	-0,222
-585,109	800,000	0,054	-0,146
-584,094	283,198	-0,080	0,107
-583,079	-121,216	-0,013	0,002
-582,065	-200,000	0,038	-0,152
-581,050	800,000	0,068	-0,184
-580,036	-200,000	-0,006	-0,024
-579,021	-70,807	-0,034	-0,009
-578,006	800,000	0,014	-0,032
-576,992	373,074	0,066	0,099
-575,977	-200,000	-0,006	-0,074
-574,963	-200,000	0,049	-0,170
-573,948	308,796	0,054	-0,075
-572,934	-105,045	-0,146	0,025
-571,919	-200,000	-0,015	-0,112
-570,904	-43,016	0,115	-0,043
-569,890	-98,749	0,067	-0,012
-568,875	-200,000	0,003	0,014
-567,861	-67,979	0,094	0,027
-566,846	-200,000	0,007	-0,076
-565,831	603,837	0,019	-0,036
-564,817	-200,000	0,015	-0,062
-563,802	58,601	0,069	-0,050
-562,788	213,750	-0,080	-0,094
-561,773	23,616	-0,075	0,046
-560,758	268,994	0,104	-0,135
-559,744	-13,605	0,189	0,090
-558,729	-121,364	-0,053	-0,006
-557,715	800,000	0,040	-0,119
-556,700	-200,000	0,012	-0,050
-555,685	-196,157	-0,052	-0,000
-554,671	-192,437	-0,031	-0,000
-553,656	377,482	-0,036	-0,054
-552,642	-48,855	0,127	0,045
-551,627	279,670	-0,015	0,019
-550,612	-200,000	0,023	-0,090
-549,598	800,000	-0,011	0,037
-548,583	-80,087	0,031	-0,008
-547,569	258,113	0,051	-0,065
-546,554	800,000	-0,031	0,102
-545,539	-200,000	-0,010	0,078
-544,525	3,097	-0,098	0,052
-543,510	-65,666	0,100	-0,030
-542,496	-200,000	0,043	-0,182
-541,481	-200,000	0,009	-0,047
-540,466	421,322	0,111	0,176
-539,452	76,888	-0,052	-0,040
-538,437	161,221	-0,025	0,026
-537,423	-39,376	-0,078	0,030
-536,408	-55,061	0,084	-0,028
-535,393	800,000	-0,046	-0,130
-534,379	800,000	0,022	-0,056
-533,364	-22,596	-0,132	0,059
-532,350	-66,878	0,153	-0,044
-531,335	-126,162	0,094	-0,010
-530,321	99,705	0,090	-0,077
-529,306	-27,339	0,030	-0,013
-528,291	-119,790	-0,056	-0,007
-527,277	-115,939	-0,133	0,018
-526,262	800,000	-0,022	-0,060
-525,248	47,815	0,050	-0,034
-524,233	-200,000	-0,001	-0,109
-523,218	-144,773	0,041	-0,003
-522,204	371,806	0,082	0,124
-521,189	-79,401	-0,102	0,025
-520,175	346,315	-0,037	0,054
-519,160	278,237	-0,110	-0,145
-518,145	-153,581	0,054	-0,003
-517,131	-16,031	0,073	-0,034
-516,116	157,452	0,072	0,074
-515,102	235,839	-0,072	-0,088
-514,087	227,507	-0,012	0,014
-513,072	208,527	-0,021	0,024
-512,058	162,394	0,084	-0,087
-511,043	103,240	0,018	-0,015
-510,029	-200,000	0,005	0,125
-509,014	-53,518	0,075	-0,025
-507,999	36,132	0,081	0,053
-506,985	-51,706	-0,085	0,029
-505,970	-52,057	-0,027	-0,009
-504,956	800,000	-0,029	-0,095
-503,941	-173,066	0,122	0,003
-502,926	103,104	0,126	0,109
-501,912	281,959	0,054	-0,072
-500,897	498,839	0,014	0,024
-499,883	159,695	-0,105	-0,108
-498,868	-200,000	-0,044	-0,200
-497,853	92,553	-0,086	-0,071
-496,839	-2,070	0,111	-0,057
-495,824	157,357	0,107	0,110
-494,810	-9,984	0,081	0,040
-493,795	800,000	-0,059	-0,123
-492,781	800,000	-0,029	-0,073
-491,766	800,000	0,028	0,079
-490,751	199,434	-0,064	-0,073
-489,737	89,980	-0,106	-0,087
-488,722	355,415	-0,010	-0,015
-487,708	80,200	0,037	-0,029
-486,693	-2,848	-0,114	-0,058
-485,678	-200,000	-0,005	0,045
-484,664	800,000	0,037	-0,096
-483,649	66,668	-0,032	-0,024
-482,635	546,056	-0,014	0,025
-481,620	-42,842	0,169	0,063
-480,605	261,851	0,076	0,098
-479,591	477,664	0,044	0,074
-478,576	291,426	-0,052	0,070
-477,562	-200,000	0,039	-0,150
-476,547	-29,767	-0,122	-0,051
-475,532	-9,545	0,111	-0,054
-474,518	-61,640	-0,263	-0,081
-473,503	800,000	0,029	0,062
-472,489	28,054	-0,086	0,053
-471,474	71,979	0,068	0,052
-470,459	-200,000	-0,015	-0,139
-469,445	97,149	0,057	0,048
-468,430	59,560	0,056	-0,041
-467,416	-200,000	0,002	0,052
-466,401	-200,000	-0,022	0,140
-465,386	121,185	0,149	0,137
-464,372	94,959	0,039	0,033
-463,357	-200,000	-0,018	-0,131
-462,343	116,933	-0,048	0,043
-461,328	715,799	0,046	-0,090
-460,313	91,592	0,020	0,016
-459,299	678,222	0,004	0,008
-458,284	528,812	-0,044	0,077
-457,270	-53,430	0,067	-0,023
-456,255	69,580	-0,069	-0,052
-455,241	721,602	-0,009	0,018
-454,226	-200,000	0,010	-0,042
-453,211	358,650	0,054	-0,080
-452,197	619,734	0,078	-0,145
-451,182	-141,662	0,130	-0,009
-450,168	15,957	0,066	-0,038
-449,153	-16,936	0,101	0,047
-448,138	133,903	0,067	0,064
-447,124	475,914	0,066	0,110
-446,109	373,584	0,060	-0,089
-445,095	800,000	0,030	-0,067
-444,080	195,102	0,082	0,092
-443,065	26,431	-0,062	0,038
-442,051	24,907	-0,038	0,023
-441,036	-125,498	-0,050	0,006
-440,022	65,532	-0,084	-0,062
-439,007	-200,000	0,003	0,071
-437,992	33,964	0,077	0,049
-436,978	800,000	0,062	0,187
-435,963	800,000	-0,017	0,044
-434,949	-200,000	-0,013	0,109
-433,934	800,000	-0,041	-0,106
-432,919	-12,288	-0,084	-0,040
-431,905	800,000	0,010	-0,026
-430,890	-187,075	-0,034	0,000
-429,876	-200,000	-0,007	0,155
-428,861	-200,000	0,015	-0,071
-427,846	800,000	-0,057	-0,128
-426,832	42,905	-0,164	-0,109
-425,817	66,403	-0,047	0,035
-424,803	217,170	0,127	0,149
-423,788	-68,343	-0,123	0,035
-422,773	189,395	-0,077	0,085
-421,759	48,168	0,104	-0,071
-420,744	26,595	-0,129	0,079
-419,730	752,685	-0,015	-0,030
-418,715	110,306	0,058	-0,051
-417,701	800,000	-0,046	0,106
-416,686	-200,000	-0,017	0,152
-415,671	81,891	0,065	-0,052
-414,657	-174,251	-0,155	-0,003
-413,642	-200,000	0,011	0,131
-412,628	800,000	0,012	-0,027
-411,613	-52,188	-0,044	0,015
-410,598	24,593	-0,109	0,066
-409,584	-142,385	-0,105	0,008
-408,569	-22,229	0,048	0,021
-407,555	730,651	0,025	-0,049
-406,540	139,224	0,140	0,135
-405,525	1,341	0,025	0,013
-404,511	33,795	-0,099	-0,063
-403,496	-200,000	0,023	-0,112
-402,482	-95,543	0,110	-0,021
-401,467	800,000	0,057	0,135
-400,452	-153,295	-0,107	-0,005
-399,438	81,874	0,022	-0,018
-398,423	2,295	-0,080	-0,042
-397,409	800,000	0,041	0,086
-396,394	260,140	-0,093	0,118
-395,379	58,764	0,118	0,085
-394,365	-200,000	0,005	-0,086
-393,350	299,450	-0,089	0,120
-392,336	800,000	-0,014	-0,044
-391,321	-83,054	0,090	-0,021
-390,306	385,687	-0,007	-0,011
-389,292	-200,000	0,004	-0,046
-388,277	-200,000	-0,007	0,081
-387,263	-12,908	-0,049	0,023
-386,248	-200,000	0,000	0,134
-385,233	-200,000	-0,001	-0,030
-384,219	286,319	-0,056	-0,074
-383,204	423,703	-0,079	-0,124
-382,190	-15,079	-0,006	0,003
-381,175	-200,000	-0,002	-0,024
-380,160	-200,000	-0,011	0,045
-379,146	125,959	0,061	0,057
-378,131	-86,780	0,035	0,008
-377,117	338,916	-0,079	0,113
-376,102	-103,326	-0,050	0,009
-375,088	-23,731	-0,091	0,040
-374,073	-200,000	0,024	0,141
-373,058	334,548	0,047	0,067
-372,044	155,813	0,043	0,043
-371,029	-200,000	0,008	0,121
-370,015	-46,219	-0,062	0,022
-369,000	-200,000	0,000	0,017
-367,985	27,366	-0,031	-0,019
-366,971	-200,000	-0,012	-0,090
-365,956	800,000	-0,013	0,031
-364,942	108,696	0,125	0,109
-363,927	255,517	-0,039	-0,050
-362,912	158,521	-0,143	0,146
-361,898	-200,000	-0,014	-0,101
-360,883	63,418	-0,125	0,092
-359,869	152,952	-0,052	-0,052
-358,854	800,000	-0,048	0,136
-357,839	-86,740	-0,068	0,015
-356,825	800,000	0,017	0,050
-355,810	-200,000	-0,002	0,016
-354,796	134,815	-0,044	-0,042
-353,781	273,880	0,019	-0,024
-352,766	172,068	0,039	0,041
-351,752	-160,350	0,009	0,000
-350,737	-200,000	-0,026	0,219
-349,723	228,023	0,130	0,156
-348,708	800,000	0,062	0,167
-347,693	-8,823	0,076	-0,037
-346,679	-200,000	-0,001	-0,013
-345,664	36,803	-0,088	0,057
-344,650	-189,050	0,071	0,001
-343,635	-200,000	0,002	0,028
-342,620	166,733	-0,104	0,108
-341,606	-200,000	-0,011	0,078
-340,591	-36,312	-0,121	-0,048
-339,577	266,721	-0,041	0,053
-338,562	800,000	0,026	0,072
-337,548	-200,000	-0,004	0,070
-336,533	-1,035	0,111	-0,057
-335,518	642,554	0,013	-0,025
-334,504	-77,440	0,098	0,025
-333,489	14,313	-0,027	-0,015
-332,475	-200,000	0,003	-0,082
-331,460	-136,597	-0,138	0,012
-330,445	-200,000	-0,006	0,150
-329,431	118,070	-0,083	-0,074
-328,416	108,067	-0,048	0,042
-327,402	-200,000	-0,033	0,153
-326,387	-11,080	-0,071	0,034
-325,372	800,000	0,029	0,092
-324,358	-66,185	-0,210	0,061
-323,343	194,638	-0,022	0,024
-322,329	144,447	0,051	0,050
-321,314	-200,000	-0,016	0,061
-320,299	125,704	-0,021	0,019
-319,285	83,771	0,085	-0,068
-318,270	-200,000	0,001	-0,159
-317,256	-200,000	0,034	-0,109
-316,241	800,000	0,053	-0,117
-315,226	-200,000	0,023	0,091
-314,212	22,554	-0,059	0,035
-313,197	-115,618	-0,055	0,007
-312,183	-165,219	0,080	0,003
-311,168	364,625	-0,047	0,070
-310,153	800,000	-0,049	-0,117
-309,139	-200,000	-0,020	0,105
-308,124	800,000	0,034	-0,074
-307,110	-200,000	-0,004	0,033
-306,095	-19,885	-0,017	0,008
-305,080	31,419	-0,065	0,041
-304,066	-200,000	-0,004	0,033
-303,051	-200,000	0,020	0,087
-302,037	344,242	-0,049	0,070
-301,022	-200,000	0,011	-0,120
-300,008	-161,211	-0,149	-0,006
-298,993	800,000	-0,027	0,083
-297,978	-21,067	-0,066	0,029
-296,964	90,802	0,039	-0,032
-295,949	-71,955	0,034	0,009
-294,935	304,869	-0,070	0,095
-293,920	-178,846	0,083	-0,001
-292,905	285,072	0,068	0,090
-291,891	106,366	0,049	-0,042
-290,876	-82,420	-0,101	-0,024
-289,862	548,336	0,013	0,024
-288,847	51,271	-0,143	-0,099
-287,832	-200,000	0,001	-0,035
-286,818	708,807	-0,036	0,071
-285,803	172,229	0,107	0,112
-284,789	588,048	-0,024	0,043
-283,774	-118,849	0,086	0,011
-282,759	-200,000	0,001	0,058
-281,745	340,232	0,049	-0,071
-280,730	-5,919	-0,041	0,020
-279,716	334,744	-0,065	-0,092
-278,701	-200,000	0,001	-0,077
-277,686	90,520	-0,090	0,073
-276,672	-200,000	0,013	0,044
-275,657	204,743	0,103	-0,117
-274,643	-200,000	-0,016	-0,104
-273,628	800,000	0,020	-0,062
-272,613	276,857	0,060	-0,078
-271,599	-144,605	-0,025	-0,002
-270,584	-77,944	0,069	-0,017
-269,570	-200,000	0,034	0,165
-268,555	41,915	-0,056	-0,037
-267,540	11,688	0,145	-0,081
-266,526	502,660	-0,029	-0,049
-265,511	267,216	-0,080	-0,103
-264,497	-61,624	0,035	-0,011
-263,482	56,318	-0,038	-0,027
-262,467	282,498	0,102	0,133
-261,453	160,675	0,083	0,085
-260,438	-70,157	-0,144	0,040
-259,424	-200,000	0,030	-0,140
-258,409	800,000	0,035	-0,079
-257,395	48,702	0,037	-0,025
-256,380	54,064	0,045	0,032
-255,365	117,945	0,053	0,048
-254,351	216,663	-0,058	-0,067
-253,336	800,000	0,036	0,073
-252,322	-100,711	0,077	-0,014
-251,307	102,885	0,052	-0,044
-250,292	324,243	-0,048	-0,067
-249,278	-200,000	0,000	0,091
-248,263	166,137	-0,058	-0,060
-247,249	781,386	-0,021	0,041
-246,234	-200,000	-0,020	0,124
-245,219	100,136	0,061	-0,051
-244,205	-18,222	-0,053	-0,024
-243,190	614,526	-0,034	-0,063
-242,176	59,596	0,078	0,056
-241,161	-200,000	0,021	0,109
-240,146	139,534	0,037	0,036
-239,132	-70,884	0,116	-0,032
-238,117	496,806	-0,072	-0,120
-237,103	28,354	0,036	-0,022
-236,088	-200,000	-0,008	0,057
-235,073	220,801	0,128	0,149
-234,059	501,063	0,081	0,137
-233,044	43,909	-0,047	0,031
-232,030	-53,369	-0,164	-0,055
-231,015	137,698	-0,096	-0,092
-230,000	-122,372	-0,068	0,008
-228,986	-200,000	0,026	-0,085
-227,971	-3,652	0,006	0,003
-226,957	391,596	0,054	0,081
-225,942	-63,952	-0,020	-0,006
-224,927	-10,487	0,052	-0,025
-223,913	-200,000	-0,023	-0,106
-222,898	-93,846	0,059	0,012
-221,884	22,778	-0,067	-0,040
-220,869	-117,385	0,082	0,011
-219,855	-200,000	-0,021	0,078
-218,840	-31,160	-0,030	-0,012
-217,825	361,830	0,125	0,183
-216,811	-200,000	-0,021	-0,135
-215,796	-119,606	-0,071	0,009
-214,782	-4,772	-0,143	-0,072
-213,767	-200,000	-0,007	-0,061
-212,752	214,759	-0,050	0,058
-211,738	411,180	-0,029	0,045
-210,723	-136,588	0,186	-0,015
-209,709	-200,000	-0,012	0,056
-208,694	179,431	-0,060	0,064
-207,679	115,179	-0,018	0,016
-206,665	-200,000	-0,008	-0,039
-205,650	-200,000	-0,004	-0,021
-204,636	484,036	-0,017	-0,029
-203,621	-13,976	-0,063	-0,030
-202,606	-91,193	-0,086	0,018
-201,592	123,417	-0,152	-0,139
-200,577	-200,000	0,000	-0,038
-199,563	-200,000	0,011	-0,097
-198,548	80,961	0,174	-0,137
-197,533	227,593	0,145	0,172
-196,519	288,314	0,028	0,037
-195,504	800,000	-0,040	-0,108
-194,490	49,346	-0,030	0,021
-193,475	-103,393	-0,039	-0,007
-192,460	-200,000	0,003	0,150
-191,446	-137,419	0,104	0,008
-190,431	800,000	0,035	0,074
-189,417	-69,353	-0,024	-0,007
-188,402	-35,056	0,043	-0,017
-187,387	-58,117	-0,021	0,006
-186,373	227,231	0,033	-0,040
-185,358	53,576	0,026	-0,018
-184,344	-2,180	0,122	0,062
-183,329	-54,417	-0,036	0,012
-182,315	17,073	0,131	-0,075
-181,300	-200,000	0,009	-0,040
-180,285	-200,000	-0,002	-0,010
-179,271	800,000	-0,007	0,013
-178,256	-93,178	0,102	0,020
-177,242	-106,149	-0,047	-0,008
-176,227	-170,996	-0,064	-0,002
-175,212	-200,000	0,002	-0,066
-174,198	-200,000	-0,001	0,063
-173,183	-67,174	-0,100	-0,029
-172,169	-7,816	-0,057	0,028
-171,154	-200,000	0,010	-0,112
-170,139	346,229	-0,008	0,011
-169,125	21,255	0,073	0,043
-168,110	190,323	0,073	0,080
-167,096	-200,000	0,001	-0,030
-166,081	75,758	0,149	0,115
-165,066	489,510	-0,048	-0,080
-164,052	594,757	-0,016	-0,028
-163,037	289,343	0,074	-0,098
-162,023	-78,590	-0,032	0,008
-161,008	800,000	-0,043	0,129
-159,993	800,000	0,006	0,018
-158,979	-164,955	-0,116	0,004
-157,964	-200,000	0,002	0,021
-156,950	-200,000	0,001	-0,154
-155,935	213,120	-0,042	0,048
-154,920	570,638	-0,083	-0,148
-153,906	-200,000	0,019	0,068
-152,891	620,285	-0,046	0,085
-151,877	141,860	-0,056	0,054
-150,862	85,939	0,040	0,032
-149,847	800,000	0,025	0,079
-148,833	505,306	0,057	-0,096
-147,818	-33,266	0,107	-0,043
-146,804	119,108	0,102	0,092
-145,789	33,628	-0,040	-0,025
-144,775	-200,000	0,003	0,030
-143,760	234,870	0,053	-0,064
-142,745	648,507	0,044	-0,082
-141,731	140,421	0,125	-0,120
-140,716	400,824	0,041	-0,063
-139,702	-97,800	0,075	0,014
-138,687	151,758	0,045	-0,044
-137,672	-33,295	-0,042	0,017
-136,658	-54,164	0,002	0,001
-135,643	-200,000	-0,042	-0,149
-134,629	-106,909	-0,127	-0,020
-133,614	393,979	0,067	0,101
-132,599	-119,723	0,157	-0,019
-131,585	-200,000	0,008	0,181
-130,570	214,251	0,054	0,063
-129,556	52,296	-0,078	-0,054
-128,541	-130,076	-0,118	0,012
-127,526	-69,436	0,064	0,018
-126,512	10,751	-0,042	-0,023
-125,497	740,054	0,054	0,106
-124,483	349,862	0,039	0,056
-123,468	296,542	0,030	-0,040
-122,453	108,125	-0,137	-0,118
-121,439	134,716	0,082	-0,078
-120,424	800,000	-0,026	0,059
-119,410	-200,000	0,010	0,056
-118,395	408,527	0,061	-0,094
-117,380	-200,000	0,008	0,055
-116,366	-115,072	-0,108	-0,015
-115,351	-19,200	-0,084	0,038
-114,337	634,665	-0,030	-0,056
-113,322	-99,136	-0,121	-0,022
-112,307	-75,545	0,205	-0,053
-111,293	198,297	0,164	0,182
-110,278	85,293	-0,089	0,071
-109,264	159,297	-0,065	-0,065
-108,249	-200,000	0,006	-0,071
-107,234	380,716	-0,064	-0,096
-106,220	421,159	-0,049	0,076
-105,205	29,032	0,067	-0,041
-104,191	-56,837	-0,101	-0,032
-103,176	443,638	-0,122	0,195
-102,162	24,793	0,102	0,061
-101,147	-123,224	-0,064	0,007
-100,132	104,154	-0,053	-0,046
-99,118	347,277	-0,051	-0,073
-98,103	394,708	0,066	-0,100
-97,089	28,081	0,008	0,005
-96,074	584,656	-0,021	0,038
-95,059	216,760	0,033	0,038
-94,045	800,000	0,059	-0,170
-93,030	425,511	0,081	-0,127
-92,016	226,129	-0,005	0,006
-91,001	172,705	0,063	0,066
-89,986	-167,690	0,034	-0,001
-88,972	-192,198	-0,055	-0,000
-87,957	97,585	-0,075	0,062
-86,943	47,413	-0,060	0,040
-85,928	646,808	-0,051	-0,096
-84,913	-15,247	-0,038	0,018
-83,899	235,761	0,127	-0,153
-82,884	-200,000	0,016	-0,057
-81,870	800,000	-0,030	-0,078
-80,855	-200,000	-0,015	-0,058
-79,840	-200,000	-0,017	0,083
-78,826	-53,578	-0,066	-0,022
-77,811	-153,715	-0,080	0,004
-76,797	-200,000	0,013	0,135
-75,782	-200,000	0,006	0,159
-74,767	-200,000	0,013	0,123
-73,753	141,249	0,127	0,122
-72,738	-160,515	-0,047	-0,002
-71,724	181,306	-0,072	-0,076
-70,709	-200,000	-0,002	-0,039
-69,694	397,046	-0,013	0,020
-68,680	-90,112	0,130	0,027
-67,665	18,557	0,106	0,061
-66,651	-47,328	-0,035	-0,012
-65,636	708,674	-0,036	-0,069
-64,622	577,909	0,048	-0,086
-63,607	-200,000	-0,008	0,069
-62,592	-111,183	-0,106	-0,016
-61,578	-27,481	0,057	-0,024
-60,563	800,000	-0,058	0,157
-59,549	-11,322	-0,047	0,022
-58,534	-96,589	-1,379	-0,261
-57,519	704,305	-0,804	-1,543
-56,505	-200,000	-0,749	-4,424
-55,490	-95,419	0,758	-0,146
-54,476	800,000	4,855	11,584
-53,461	-200,000	14,148	250,658
-52,446	-200,000	693,097	2232,234
-51,432	578,311	1621,182	2884,705
-50,417	117,375	1629,178	1451,102
-49,403	73,761	1283,588	973,520
-48,388	37,589	1020,706	654,720
-47,373	23,796	979,151	582,884
-46,359	23,062	968,557	574,155
-45,344	22,034	964,132	568,167
-44,330	21,991	962,793	567,214
-43,315	21,851	961,239	565,821
-42,300	21,868	960,310	565,310
-41,286	21,870	959,316	564,706
-40,271	21,893	958,206	564,107
-39,257	21,903	957,262	563,561
-38,242	21,763	956,614	562,705
-37,227	21,766	955,713	562,161
-36,213	21,777	954,753	561,609
-35,198	21,803	953,817	561,120
-34,184	21,801	953,346	560,816
-33,169	21,816	952,371	560,266
-32,154	21,866	951,550	559,923
-31,140	21,882	950,485	559,324
-30,125	21,869	949,852	558,889
-29,111	21,822	949,066	558,254
-28,096	21,863	948,315	557,920
-27,082	21,823	947,609	557,356
-26,067	21,816	946,967	556,932
-25,052	21,845	946,044	556,461
-24,038	21,875	945,454	556,187
-23,023	21,864	944,762	555,724
-22,009	21,902	944,100	555,432
-20,994	21,809	943,560	554,798
-19,979	21,849	942,937	554,536
-18,965	21,876	942,233	554,186
-17,950	21,907	941,589	553,882
-16,936	21,840	940,930	553,261
-15,921	21,794	940,336	552,743
-14,906	21,651	939,704	551,897
-13,892	21,740	938,969	551,725
-12,877	21,723	938,471	551,359
-11,863	21,692	937,705	550,789
-10,848	21,755	937,216	550,678
-9,833	21,831	936,682	550,583
-8,819	21,771	936,132	550,049
-7,804	21,716	935,535	549,503
-6,790	21,688	935,124	549,148
-5,775	21,763	934,231	548,841
-4,760	21,762	933,486	548,376
-3,746	21,692	933,119	547,918
-2,731	21,593	932,257	547,081
-1,717	21,582	931,593	546,634
-0,702	21,541	930,999	546,135
0,313	21,332	930,399	545,950
1,327	23,842	927,867	552,273
2,342	31,348	806,447	500,265
3,356	26,422	507,453	306,390
4,371	2,442	372,698	194,637
5,386	-0,497	355,575	182,089
6,400	-1,940	349,146	177,047
7,415	-2,847	346,292	174,503
8,429	-3,137	344,809	173,396
9,444	-3,089	343,975	173,018
10,459	-3,022	343,260	172,722
11,473	-2,969	342,536	172,405
12,488	-2,862	342,142	172,317
13,502	-2,841	341,602	172,054
14,517	-2,985	341,023	171,578
15,531	-3,223	340,525	171,034
16,546	-3,186	340,017	170,807
17,561	-3,219	339,473	170,480
18,575	-3,215	339,139	170,301
19,590	-3,130	338,643	170,136
20,604	-3,127	338,364	169,985
21,619	-3,310	338,145	169,647
22,634	-3,163	337,640	169,549
23,648	-3,099	337,212	169,392
24,663	-3,237	337,066	169,144
25,677	-3,178	336,630	168,978
26,692	-3,188	336,560	168,917
27,707	-3,242	336,031	168,575
28,721	-3,261	335,909	168,476
29,736	-3,141	335,540	168,414
30,750	-3,182	335,239	168,201
31,765	-3,269	334,891	167,911
32,780	-3,218	334,648	167,833
33,794	-3,157	334,297	167,712
34,809	-3,143	334,050	167,589
35,823	-3,213	333,740	167,339
36,838	-3,196	333,423	167,184
37,853	-3,226	333,067	166,956
38,867	-3,232	332,929	166,866
39,882	-3,268	332,660	166,675
40,896	-3,361	332,390	166,419
41,911	-3,339	332,007	166,237
42,926	-3,382	331,795	166,067
43,940	-3,243	331,595	166,110
44,955	-3,345	331,254	165,809
45,969	-3,402	331,011	165,607
46,984	-3,465	330,768	165,400
47,999	-3,471	330,434	165,211
49,013	-3,716	330,206	164,804
50,028	-3,682	329,867	164,660
51,042	-3,676	329,609	164,523
52,057	-3,556	329,289	164,484
53,071	-3,693	329,095	164,218
54,086	-3,705	328,670	163,978
55,101	-3,730	328,669	163,934
56,115	-3,478	328,464	164,101
57,130	-3,190	328,181	164,269
58,144	-3,268	328,034	164,093
59,159	-3,161	327,674	164,019
60,174	-3,136	327,438	163,914
61,188	-3,173	327,246	163,762
62,203	-3,118	326,871	163,621
63,217	-3,166	326,737	163,486
64,232	-3,218	326,522	163,305
65,247	-2,973	326,212	163,409
66,261	-3,047	325,932	163,171
67,276	-3,169	325,582	162,846
68,290	-3,436	325,419	162,453
69,305	-3,307	325,060	162,403
70,320	-3,413	324,755	162,118
71,334	-3,435	324,699	162,050
72,349	-3,029	324,417	162,347
73,363	-2,853	324,066	162,352
74,378	-3,085	323,991	162,042
75,393	-3,115	323,625	161,812
76,407	-2,973	323,375	161,830
77,422	-3,150	323,091	161,476
78,436	-3,029	322,984	161,543
79,451	-3,021	322,525	161,308
80,466	-3,307	322,309	160,870
81,480	-3,410	322,257	160,716
82,495	-3,424	321,717	160,417
83,509	-3,315	321,590	160,459
84,524	-3,393	321,317	160,223
85,539	-3,419	321,056	160,050
86,553	-3,520	320,949	159,872
87,568	-3,489	320,832	159,832
88,582	-3,199	320,369	159,906
89,597	-3,482	320,207	159,501
90,611	-3,139	319,993	159,756
91,626	-3,264	319,798	159,507
92,641	-3,193	319,400	159,372
93,655	-3,198	319,234	159,270
94,670	-3,326	318,970	158,984
95,684	-3,295	318,756	158,897
96,699	-3,337	318,526	158,723
97,714	-3,433	318,365	158,524
98,728	-3,422	318,102	158,390
99,743	-3,471	317,900	158,223
100,757	-3,426	317,626	158,120
101,772	-3,273	317,351	158,136
102,787	-3,383	317,227	157,941
103,801	-3,270	316,902	157,887
104,816	-3,416	316,809	157,669
105,830	-3,227	316,535	157,723
106,845	-3,218	316,386	157,644
107,860	-3,064	315,993	157,600
108,874	-3,429	315,895	157,143
109,889	-3,239	315,525	157,151
110,903	-3,305	315,375	156,990
111,918	-3,491	315,071	156,625
112,933	-3,386	315,059	156,718
113,947	-3,181	314,563	156,677
114,962	-3,315	314,498	156,488
115,976	-3,193	314,254	156,483
116,991	-3,352	314,053	156,198
118,006	-3,191	313,792	156,227
119,020	-3,183	313,696	156,173
120,035	-3,126	313,456	156,101
121,049	-3,186	313,335	155,963
122,064	-3,166	313,032	155,820
123,079	-3,174	312,743	155,653
124,093	-3,279	312,521	155,417
125,108	-3,249	312,134	155,242
126,122	-3,511	312,011	154,889
127,137	-3,418	311,894	154,916
128,151	-3,310	311,616	154,879
129,166	-3,262	311,469	154,842
130,181	-3,264	310,929	154,558
131,195	-3,357	310,853	154,408
132,210	-3,234	310,610	154,404
133,224	-3,258	310,551	154,336
134,239	-3,131	310,240	154,302
135,254	-3,280	310,184	154,103
136,268	-3,310	309,788	153,860
137,283	-3,387	309,482	153,613
138,297	-3,478	309,302	153,415
139,312	-3,411	309,009	153,326
140,327	-3,514	309,226	153,311
141,341	-2,981	308,888	153,691
142,356	-3,088	308,670	153,456
143,370	-2,917	308,412	153,494
144,385	-2,947	308,360	153,422
145,400	-3,032	307,876	153,079
146,414	-2,885	307,718	153,141
147,429	-2,914	307,569	153,023
148,443	-2,803	307,310	152,996
149,458	-3,039	307,275	152,718
150,473	-2,973	307,088	152,681
151,487	-2,983	306,607	152,417
152,502	-3,011	306,592	152,368
153,516	-3,051	306,373	152,204
154,531	-2,866	306,063	152,228
155,546	-3,183	305,966	151,837
156,560	-2,944	305,528	151,854
157,575	-3,175	305,307	151,491
158,589	-3,015	305,134	151,557
159,604	-2,941	304,845	151,477
160,619	-2,764	304,623	151,537
161,633	-2,889	304,571	151,368
162,648	-2,881	304,241	151,198
163,662	-2,831	304,045	151,139
164,677	-2,925	303,896	150,954
165,692	-3,054	303,804	150,763
166,706	-3,061	303,750	150,715
167,721	-3,009	303,352	150,557
168,735	-3,066	303,301	150,460
169,750	-2,760	302,982	150,603
170,764	-2,680	302,891	150,626
171,779	-2,874	302,558	150,249
172,794	-2,879	302,562	150,232
173,808	-3,035	302,196	149,876
174,823	-3,364	301,986	149,422
175,837	-3,293	301,607	149,294
176,852	-3,038	301,597	149,537
177,867	-2,923	301,480	149,583
178,881	-2,886	301,312	149,524
179,896	-2,748	300,963	149,479
180,910	-2,831	300,873	149,336
181,925	-2,731	300,485	149,232
182,940	-2,760	300,333	149,113
183,954	-2,888	300,063	148,836
184,969	-2,930	299,986	148,742
185,983	-2,970	299,960	148,675
186,998	-2,802	299,553	148,630
188,013	-2,893	299,414	148,456
189,027	-2,810	299,111	148,376
190,042	-2,992	299,121	148,183
191,056	-2,742	298,894	148,311
192,071	-2,899	298,740	148,063
193,086	-2,795	298,397	147,984
194,100	-2,784	298,238	147,904
195,115	-2,732	298,031	147,841
196,129	-2,908	297,729	147,500
197,144	-2,871	297,523	147,422
198,159	-2,888	297,342	147,302
199,173	-2,850	297,075	147,195
200,188	-2,790	297,034	147,222
201,202	-2,845	296,821	147,048
202,217	-3,238	296,419	146,441
203,232	-3,402	296,163	146,137
204,246	-3,008	296,101	146,488
205,261	-2,736	295,997	146,697
206,275	-2,970	295,853	146,378
207,290	-2,901	295,583	146,300
208,304	-2,941	295,290	146,102
209,319	-2,908	295,072	146,014
210,334	-2,824	294,922	146,011
211,348	-2,786	294,657	145,905
212,363	-2,721	294,334	145,796
213,377	-2,871	294,295	145,615
214,392	-2,864	294,125	145,525
215,407	-3,022	293,993	145,289
216,421	-3,205	293,723	144,960
217,436	-3,056	293,234	144,855
218,450	-3,012	293,247	144,892
219,465	-2,896	293,102	144,922
220,480	-2,978	292,998	144,776
221,494	-2,848	292,810	144,799
222,509	-2,973	292,586	144,552
223,523	-2,939	292,535	144,548
224,538	-2,810	292,243	144,518
225,553	-2,824	292,191	144,465
226,567	-2,867	291,982	144,306
227,582	-2,870	291,749	144,176
228,596	-2,826	291,565	144,114
229,611	-2,785	291,416	144,068
230,626	-2,848	291,146	143,860
231,640	-3,039	290,869	143,524
232,655	-3,362	290,625	143,074
233,669	-3,390	290,246	142,847
234,684	-3,314	290,202	142,886
235,699	-3,261	290,095	142,873
236,713	-3,120	289,875	142,890
237,728	-3,125	289,743	142,807
238,742	-3,063	289,518	142,744
239,757	-2,870	289,380	142,851
240,772	-3,120	289,223	142,517
241,786	-2,961	289,049	142,574
242,801	-3,194	288,963	142,291
243,815	-3,094	288,738	142,265
244,830	-2,971	288,408	142,210
245,844	-3,121	288,144	141,922
246,859	-3,182	288,154	141,854
247,874	-3,028	288,007	141,919
248,888	-3,034	287,735	141,766
249,903	-2,804	287,690	141,954
250,917	-2,917	287,712	141,843
251,932	-2,820	287,564	141,852
252,947	-2,113	287,452	142,469
253,961	-2,631	286,950	141,707
254,976	-1,740	287,400	142,778
255,990	1,211	288,035	145,940
257,005	1,974	288,475	146,889
258,020	3,224	288,825	148,266
259,034	3,532	288,725	148,500
260,049	3,465	288,301	148,204
261,063	3,234	288,079	147,853
262,078	3,427	288,031	148,001
263,093	3,829	288,087	148,405
264,107	4,073	287,941	148,552
265,122	3,997	287,845	148,416
266,136	4,257	287,614	148,534
267,151	4,254	287,398	148,407
268,166	3,965	287,255	148,042
269,180	3,972	286,911	147,858
270,195	4,037	286,840	147,870
271,209	3,991	286,726	147,754
272,224	3,956	286,438	147,559
273,239	3,771	286,117	147,204
274,253	3,665	285,930	146,992
275,268	4,340	285,765	147,541
276,282	4,070	285,678	147,224
277,297	3,972	285,730	147,144
278,312	4,487	285,565	147,538
279,326	4,285	285,319	147,204
280,341	4,155	285,095	146,952
281,355	3,887	284,756	146,509
282,370	3,864	284,505	146,345
283,384	3,829	284,390	146,240
284,399	4,009	284,246	146,324
285,414	4,017	284,077	146,231
286,428	3,799	284,039	145,991
287,443	3,493	283,703	145,515
288,457	3,526	283,317	145,335
289,472	3,586	283,122	145,280
290,487	3,574	282,907	145,145
291,501	3,500	282,740	144,976
292,516	3,135	282,530	144,511
293,530	3,344	282,278	144,565
294,545	3,636	282,341	144,861
295,560	3,738	282,107	144,824
296,574	3,607	281,870	144,566
297,589	3,611	281,863	144,554
298,603	3,933	281,743	144,782
299,618	3,904	281,715	144,727
300,633	3,668	281,387	144,324
301,647	3,767	281,186	144,301
302,662	3,900	280,834	144,233
303,676	3,756	280,675	144,004
304,691	3,313	280,462	143,466
305,706	3,125	280,211	143,149
306,720	3,077	280,017	142,992
307,735	3,181	279,862	142,997
308,749	3,281	279,879	143,086
309,764	3,607	279,461	143,165
310,779	3,310	279,255	142,770
311,793	3,281	278,993	142,596
312,808	3,225	279,052	142,560
313,822	3,256	278,756	142,425
314,837	3,298	278,419	142,281
315,852	3,179	278,385	142,139
316,866	3,179	278,232	142,049
317,881	3,366	277,998	142,090
318,895	3,322	277,811	141,941
319,910	3,272	277,550	141,748
320,925	3,020	277,449	141,451
321,939	3,261	277,302	141,586
322,954	3,406	277,170	141,641
323,968	3,381	277,065	141,551
324,983	3,595	276,959	141,682
325,997	3,525	276,784	141,515
327,012	3,586	276,572	141,450
328,027	3,519	276,299	141,236
329,041	3,355	276,143	140,993
330,056	3,449	276,002	140,996
331,070	3,340	275,786	140,772
332,085	3,378	275,580	140,690
333,100	3,430	275,410	140,638
334,114	3,456	275,076	140,478
335,129	3,111	274,988	140,104
336,143	3,360	274,861	140,255
337,158	3,804	274,757	140,596
338,173	3,530	274,624	140,265
339,187	3,376	274,338	139,966
340,202	3,597	274,286	140,129
341,216	3,581	274,026	139,969
342,231	3,487	274,019	139,867
343,246	3,411	273,869	139,709
344,260	3,584	273,502	139,666
345,275	3,654	273,400	139,665
346,289	3,894	273,393	139,868
347,304	3,929	273,207	139,792
348,319	3,678	272,826	139,357
349,333	3,566	272,636	139,145
350,348	3,974	272,647	139,509
351,362	3,988	272,501	139,435
352,377	3,862	272,378	139,245
353,392	3,740	272,297	139,080
354,406	3,669	272,136	138,922
355,421	191,271	1330,997	1407,611
356,435	154,509	1460,084	1407,724
