DTS Sentinel unit serial number:	SN410029Multiplexer serial number:	ORYXHardware model number:	OX2-SRSoftware version number:	ORYX F/W v4,00 Oryx Data Collector v3.7.2.0data status	okinstallation	B4 Nyhavnadifferential loss correction	single-endedforward channel	channel 2reverse channel	N/Adate	2023/12/16time	04:20:13forward acquisition time	300,00reverse acquisition time	0,00gamma	499,1914k internal	0,3128k external	0,3128temperature offset calibration	1,0000default loss term (dB/km)	0,3820temperature slope calibration	1,0000multiplexer offset coefficient	1,0000multiplexer slope coefficient	1,0000fibre end	0,00T internal ref (°C)	22,00T ext. ref 1 (°C)	7,16T ext. ref 2 (°C)	7,33length (m)	temperature (°C)	Stokes	anti-Stokes-744,400	61,796	-0,059	-0,044
-743,385	407,031	-0,162	0,256
-742,371	-200,000	-0,014	-0,158
-741,356	-69,920	-0,199	0,056
-740,342	-43,267	0,061	-0,023
-739,327	-25,920	-0,121	0,053
-738,312	-200,000	-0,013	-0,096
-737,298	165,692	-0,153	0,161
-736,283	5,643	0,230	-0,126
-735,269	-97,927	-0,222	-0,042
-734,254	61,685	-0,079	-0,058
-733,239	-109,215	-0,381	-0,060
-732,225	318,755	-0,059	-0,084
-731,210	800,000	0,053	0,137
-730,196	-53,691	-0,152	0,051
-729,181	-112,868	-0,131	0,019
-728,167	144,493	0,051	0,051
-727,152	-6,390	0,021	-0,011
-726,137	511,065	-0,038	0,065
-725,123	-63,242	-0,201	-0,061
-724,108	-200,000	-0,030	-0,152
-723,094	-124,317	-0,116	0,013
-722,079	38,524	-0,089	-0,059
-721,064	47,272	0,081	0,056
-720,050	-4,150	-0,101	0,052
-719,035	604,855	-0,062	0,115
-718,021	7,186	-0,062	-0,034
-717,006	-57,783	-0,145	-0,047
-715,991	272,108	0,043	-0,057
-714,977	273,386	-0,062	-0,082
-713,962	-200,000	0,005	0,106
-712,948	-200,000	-0,009	-0,113
-711,933	-200,000	-0,009	0,091
-710,918	18,540	-0,110	0,065
-709,904	92,392	-0,084	-0,070
-708,889	800,000	0,028	-0,069
-707,875	-56,553	-0,061	-0,020
-706,860	-92,781	0,072	0,015
-705,845	-76,884	0,157	0,040
-704,831	-25,099	-0,125	-0,055
-703,816	-66,270	0,059	-0,017
-702,802	60,724	-0,083	0,061
-701,787	-200,000	-0,021	-0,072
-700,772	567,833	0,048	0,088
-699,758	97,142	-0,077	0,065
-698,743	-94,045	-0,049	-0,010
-697,729	665,050	0,011	0,022
-696,714	152,711	0,059	-0,060
-695,699	-200,000	-0,029	-0,173
-694,685	-40,091	-0,187	-0,072
-693,670	417,889	-0,081	-0,129
-692,656	84,105	0,067	0,054
-691,641	11,600	0,111	0,063
-690,627	-200,000	0,013	0,095
-689,612	800,000	-0,026	-0,058
-688,597	200,015	-0,036	-0,041
-687,583	753,512	-0,058	-0,117
-686,568	-200,000	0,020	-0,139
-685,554	-200,000	0,001	-0,052
-684,539	800,000	-0,009	0,020
-683,524	-200,000	-0,011	0,042
-682,510	-200,000	-0,015	0,061
-681,495	433,454	-0,041	-0,067
-680,481	215,056	0,110	-0,130
-679,466	-152,983	-0,105	-0,005
-678,451	-200,000	-0,000	0,136
-677,437	-96,321	0,027	-0,005
-676,422	52,005	0,083	-0,059
-675,408	173,142	-0,090	0,096
-674,393	526,989	-0,061	-0,107
-673,378	-94,967	-0,120	-0,024
-672,364	493,174	-0,038	-0,065
-671,349	64,666	-0,059	-0,044
-670,335	0,458	0,047	0,025
-669,320	200,902	0,048	0,055
-668,305	-124,441	0,070	-0,008
-667,291	-200,000	-0,014	-0,049
-666,276	-118,405	-0,194	0,025
-665,262	16,263	-0,097	-0,057
-664,247	-200,000	-0,041	-0,167
-663,232	122,056	0,080	0,074
-662,218	55,391	-0,078	0,056
-661,203	-200,000	0,003	-0,039
-660,189	207,477	0,061	-0,071
-659,174	-200,000	0,013	0,046
-658,159	50,191	-0,037	-0,026
-657,145	800,000	-0,058	-0,136
-656,130	800,000	-0,015	0,040
-655,116	155,337	0,142	-0,145
-654,101	800,000	-0,017	0,038
-653,086	174,071	0,103	0,110
-652,072	11,266	-0,026	0,015
-651,057	-145,827	-0,148	-0,010
-650,043	37,173	-0,148	-0,097
-649,028	-44,659	-0,042	-0,016
-648,014	800,000	-0,067	0,187
-646,999	492,095	-0,085	0,146
-645,984	532,051	-0,074	0,131
-644,970	144,256	-0,129	-0,128
-643,955	47,047	0,009	-0,007
-642,941	-200,000	0,012	0,051
-641,926	-73,454	-0,052	-0,014
-640,911	-77,660	-0,050	0,013
-639,897	-82,214	-0,104	0,025
-638,882	-146,243	-0,059	0,004
-637,868	274,334	0,031	-0,041
-636,853	520,322	0,010	0,018
-635,838	800,000	-0,023	-0,049
-634,824	116,060	-0,014	0,013
-633,809	17,182	0,031	0,018
-632,795	-200,000	0,000	-0,109
-631,780	-138,913	0,129	-0,010
-630,765	-131,625	-0,103	0,010
-629,751	-200,000	-0,013	0,061
-628,736	-43,782	-0,055	-0,021
-627,722	-35,777	0,075	-0,030
-626,707	151,502	0,091	0,092
-625,692	-105,899	-0,115	0,019
-624,678	-200,000	-0,010	0,035
-623,663	800,000	0,023	-0,052
-622,649	476,879	-0,050	0,084
-621,634	99,147	-0,066	-0,057
-620,619	-200,000	0,017	0,064
-619,605	-108,445	0,025	0,004
-618,590	48,886	-0,058	-0,040
-617,576	-200,000	0,005	-0,243
-616,561	-54,313	-0,128	0,043
-615,546	-92,070	-0,095	-0,020
-614,532	168,363	-0,177	-0,187
-613,517	62,429	-0,079	0,058
-612,503	231,418	0,096	-0,117
-611,488	36,798	0,128	-0,083
-610,474	800,000	0,019	-0,039
-609,459	215,832	-0,045	0,053
-608,444	-200,000	0,010	0,094
-607,430	-200,000	-0,039	0,130
-606,415	-133,222	0,066	-0,006
-605,401	194,703	-0,101	-0,114
-604,386	341,884	0,030	0,043
-603,371	-200,000	0,003	0,069
-602,357	13,876	0,066	-0,038
-601,342	-33,862	-0,062	-0,025
-600,328	722,680	-0,017	-0,034
-599,313	-89,063	0,055	-0,012
-598,298	-48,031	0,057	-0,020
-597,284	-2,662	0,081	-0,042
-596,269	131,965	-0,119	-0,114
-595,255	-200,000	-0,026	-0,237
-594,240	63,121	-0,165	-0,122
-593,225	-200,000	0,002	-0,041
-592,211	-183,144	0,128	-0,002
-591,196	-26,127	-0,129	-0,056
-590,182	-200,000	0,001	0,025
-589,167	-200,000	0,000	-0,055
-588,152	800,000	0,017	0,052
-587,138	81,392	-0,074	-0,059
-586,123	-10,634	-0,107	0,052
-585,109	37,951	-0,076	0,050
-584,094	-70,758	-0,087	-0,024
-583,079	85,059	0,054	-0,044
-582,065	-200,000	0,013	0,055
-581,050	786,741	-0,085	0,172
-580,036	800,000	0,053	-0,125
-579,021	6,824	0,159	0,087
-578,006	-179,906	-0,076	0,001
-576,992	160,894	0,082	-0,085
-575,977	-121,597	0,043	-0,005
-574,963	-28,444	-0,069	-0,029
-573,948	-61,067	-0,096	-0,030
-572,934	39,232	0,075	-0,050
-571,919	62,347	-0,097	-0,071
-570,904	171,672	-0,127	0,135
-569,890	800,000	-0,028	-0,067
-568,875	800,000	-0,042	-0,119
-567,861	564,014	0,009	0,016
-566,846	-20,212	0,107	0,048
-565,831	236,893	-0,055	0,067
-564,817	-101,705	-0,106	0,019
-563,802	383,823	0,123	-0,187
-562,788	293,933	0,036	0,049
-561,773	27,080	0,096	0,059
-560,758	158,004	0,050	-0,051
-559,744	-200,000	0,008	0,036
-558,729	45,211	-0,031	-0,021
-557,715	-200,000	0,013	0,088
-556,700	-106,652	-0,051	0,008
-555,685	-200,000	-0,032	-0,161
-554,671	653,676	0,074	0,141
-553,656	-200,000	0,054	0,237
-552,642	-25,946	0,114	0,049
-551,627	-104,641	0,053	0,009
-550,612	800,000	-0,008	0,020
-549,598	-200,000	0,006	0,061
-548,583	-183,330	-0,108	-0,001
-547,569	229,671	0,038	0,046
-546,554	-36,282	0,051	0,020
-545,539	-21,006	0,056	-0,025
-544,525	428,247	0,100	-0,161
-543,510	-200,000	0,023	-0,125
-542,496	126,154	-0,063	-0,059
-541,481	-200,000	-0,002	-0,042
-540,466	-200,000	-0,028	-0,109
-539,452	582,528	-0,008	-0,014
-538,437	-200,000	0,004	0,064
-537,423	-200,000	0,036	0,187
-536,408	-200,000	0,032	0,143
-535,393	-200,000	0,006	0,060
-534,379	-200,000	-0,002	-0,153
-533,364	800,000	0,041	-0,087
-532,350	-32,051	0,011	-0,005
-531,335	43,750	-0,109	0,073
-530,321	271,536	0,028	-0,036
-529,306	-78,779	-0,138	-0,034
-528,291	-200,000	0,032	-0,105
-527,277	-200,000	-0,009	-0,101
-526,262	-136,807	-0,167	0,014
-525,248	-31,320	-0,085	-0,035
-524,233	544,234	-0,015	0,026
-523,218	401,690	-0,014	0,022
-522,204	-64,046	-0,183	-0,055
-521,189	-69,801	0,081	0,023
-520,175	-134,485	0,201	-0,018
-519,160	-200,000	-0,007	-0,075
-518,145	-200,000	0,011	-0,134
-517,131	-73,363	0,154	0,041
-516,116	-200,000	0,004	-0,030
-515,102	-200,000	0,016	-0,115
-514,087	-57,308	-0,088	0,028
-513,072	48,345	-0,090	0,062
-512,058	-33,063	0,084	-0,034
-511,043	-144,616	0,029	-0,002
-510,029	-200,000	0,014	0,132
-509,014	91,569	0,120	0,100
-507,999	341,778	-0,018	-0,026
-506,985	800,000	-0,045	-0,131
-505,970	-108,716	0,125	0,019
-504,956	-200,000	-0,007	-0,034
-503,941	-200,000	0,022	0,130
-502,926	236,817	0,075	-0,092
-501,912	256,212	-0,088	0,111
-500,897	-100,371	-0,066	0,012
-499,883	319,146	0,021	-0,030
-498,868	800,000	-0,018	-0,055
-497,853	-200,000	-0,016	-0,175
-496,839	-200,000	-0,015	0,164
-495,824	508,254	0,088	0,152
-494,810	800,000	0,054	0,112
-493,795	165,916	-0,033	-0,035
-492,781	-56,383	0,112	0,036
-491,766	-124,269	-0,061	-0,007
-490,751	800,000	-0,032	-0,089
-489,737	-71,716	0,183	0,050
-488,722	470,829	-0,057	-0,095
-487,708	-200,000	0,020	0,069
-486,693	-200,000	-0,014	0,083
-485,678	137,122	0,043	0,041
-484,664	1,360	0,078	-0,041
-483,649	115,777	0,018	-0,016
-482,635	800,000	0,011	-0,025
-481,620	10,665	0,109	0,061
-480,605	142,918	0,036	-0,035
-479,591	-22,960	0,037	-0,016
-478,576	-54,702	0,114	-0,038
-477,562	-122,680	-0,033	-0,004
-476,547	9,773	-0,107	-0,060
-475,532	132,892	-0,010	0,010
-474,518	436,656	-0,039	-0,063
-473,503	-42,291	-0,028	-0,010
-472,489	436,021	-0,066	-0,106
-471,474	-200,000	0,007	-0,029
-470,459	-59,534	-0,102	0,032
-469,445	-19,697	-0,113	0,051
-468,430	163,406	0,027	0,028
-467,416	-97,645	-0,156	0,030
-466,401	800,000	-0,022	-0,070
-465,386	121,664	0,036	-0,033
-464,372	-126,276	0,098	0,011
-463,357	139,514	-0,151	-0,146
-462,343	-111,033	-0,201	0,030
-461,328	563,770	-0,033	0,059
-460,313	-200,000	-0,012	0,086
-459,299	800,000	0,051	-0,122
-458,284	183,965	-0,077	0,084
-457,270	-16,445	0,087	0,041
-456,255	-200,000	-0,006	0,124
-455,241	800,000	0,078	-0,216
-454,226	800,000	0,045	-0,105
-453,211	-82,616	0,056	0,013
-452,197	-50,607	0,047	0,016
-451,182	-48,076	0,173	0,061
-450,168	800,000	-0,053	0,142
-449,153	263,089	-0,049	-0,063
-448,138	-129,804	0,129	-0,013
-447,124	-18,902	-0,095	0,043
-446,109	-30,833	-0,022	0,009
-445,095	800,000	0,033	0,087
-444,080	242,895	0,051	0,063
-443,065	1,151	0,107	-0,056
-442,051	180,504	-0,020	-0,022
-441,036	-60,340	-0,037	0,011
-440,022	7,776	-0,106	0,058
-439,007	740,747	0,044	-0,088
-437,992	101,203	0,073	0,063
-436,978	-200,000	0,003	0,028
-435,963	-200,000	0,001	0,080
-434,949	-91,920	-0,069	0,014
-433,934	-200,000	0,001	-0,151
-432,919	246,757	0,095	-0,119
-431,905	-22,355	-0,191	0,085
-430,890	-69,881	0,068	-0,019
-429,876	800,000	0,023	-0,054
-428,861	543,387	-0,067	-0,118
-427,846	-136,054	0,052	0,004
-426,832	316,826	0,017	-0,024
-425,817	-41,326	-0,083	0,031
-424,803	251,934	-0,055	0,068
-423,788	191,978	0,053	0,059
-422,773	-200,000	-0,023	-0,112
-421,759	-41,814	0,088	-0,033
-420,744	422,456	0,012	0,019
-419,730	287,698	-0,067	0,089
-418,715	-200,000	0,024	0,121
-417,701	-140,768	-0,114	0,009
-416,686	83,384	0,118	0,094
-415,671	259,713	0,045	0,057
-414,657	-200,000	-0,019	-0,067
-413,642	-45,374	0,155	-0,056
-412,628	-58,831	0,064	-0,020
-411,613	221,841	-0,049	-0,059
-410,598	-200,000	0,001	-0,080
-409,584	751,910	0,040	-0,079
-408,569	-94,552	-0,076	-0,015
-407,555	117,866	-0,044	-0,040
-406,540	800,000	-0,016	-0,045
-405,525	72,435	-0,047	-0,036
-404,511	-183,750	-0,085	-0,001
-403,496	-200,000	0,010	-0,105
-402,482	17,762	-0,072	-0,042
-401,467	-130,665	0,127	0,012
-400,452	635,130	-0,021	-0,039
-399,438	800,000	-0,007	-0,014
-398,423	114,483	-0,069	0,062
-397,409	-50,899	-0,080	0,028
-396,394	1,356	-0,037	0,019
-395,379	-200,000	0,008	-0,063
-394,365	-116,057	0,085	0,011
-393,350	-126,714	-0,079	0,009
-392,336	-200,000	-0,000	-0,053
-391,321	43,969	-0,104	-0,070
-390,306	125,702	-0,053	-0,049
-389,292	800,000	-0,046	0,135
-388,277	733,034	-0,035	-0,068
-387,263	-32,666	0,210	-0,085
-386,248	-200,000	0,022	0,139
-385,233	94,811	-0,093	0,078
-384,219	-107,412	-0,113	-0,018
-383,204	-23,278	0,074	-0,032
-382,190	179,106	-0,088	-0,094
-381,175	-200,000	-0,022	-0,116
-380,160	-200,000	-0,012	-0,119
-379,146	230,227	-0,008	0,010
-378,131	-200,000	-0,002	-0,043
-377,117	-8,659	-0,052	-0,025
-376,102	664,764	0,027	-0,051
-375,088	800,000	-0,029	-0,063
-374,073	-145,910	0,038	-0,002
-373,058	480,009	0,098	-0,164
-372,044	-200,000	0,030	-0,121
-371,029	800,000	-0,047	-0,101
-370,015	-200,000	-0,008	0,027
-369,000	-8,184	0,156	-0,077
-367,985	119,839	-0,093	-0,085
-366,971	30,666	0,016	-0,010
-365,956	305,767	0,062	0,084
-364,942	-75,935	-0,013	0,003
-363,927	217,376	0,094	0,110
-362,912	-82,378	0,050	0,012
-361,898	195,311	-0,044	-0,049
-360,883	767,911	0,010	-0,021
-359,869	-79,528	-0,132	-0,032
-358,854	150,473	-0,088	-0,088
-357,839	101,096	0,093	0,079
-356,825	800,000	-0,011	0,028
-355,810	-37,214	0,123	-0,048
-354,796	-200,000	-0,001	-0,053
-353,781	800,000	-0,092	-0,225
-352,766	800,000	-0,015	-0,048
-351,752	61,994	0,076	0,055
-350,737	-64,547	0,073	-0,022
-349,723	-160,511	0,181	0,007
-348,708	88,313	-0,057	0,047
-347,693	-200,000	-0,036	0,117
-346,679	-200,000	0,025	-0,094
-345,664	105,243	-0,077	0,067
-344,650	279,211	0,033	-0,043
-343,635	-106,355	0,126	0,020
-342,620	54,232	-0,098	0,069
-341,606	72,817	-0,074	0,056
-340,591	-200,000	0,001	-0,093
-339,577	46,488	-0,248	-0,168
-338,562	692,401	0,042	-0,081
-337,548	657,851	0,056	0,107
-336,533	161,251	0,065	0,067
-335,518	481,448	-0,065	0,109
-334,504	800,000	-0,040	0,126
-333,489	-200,000	0,005	-0,141
-332,475	451,292	-0,062	-0,101
-331,460	82,800	0,049	0,039
-330,445	-200,000	0,026	0,165
-329,431	16,332	0,064	0,037
-328,416	319,183	0,079	-0,109
-327,402	242,770	0,066	-0,081
-326,387	18,124	0,009	0,005
-325,372	-200,000	-0,026	-0,092
-324,358	16,151	-0,083	0,048
-323,343	800,000	0,060	0,132
-322,329	6,794	0,121	0,066
-321,314	66,130	-0,101	0,075
-320,299	343,388	0,092	0,133
-319,285	501,777	0,027	-0,046
-318,270	-200,000	-0,023	0,099
-317,256	86,332	-0,070	-0,056
-316,241	-116,696	-0,124	0,017
-315,226	800,000	0,003	-0,006
-314,212	-25,746	0,131	0,056
-313,197	327,528	0,080	0,113
-312,183	-101,402	0,092	0,016
-311,168	289,587	-0,102	-0,136
-310,153	-10,400	0,054	-0,026
-309,139	800,000	0,066	-0,136
-308,124	-49,559	-0,021	0,007
-307,110	202,126	0,059	0,067
-306,095	800,000	0,074	0,202
-305,080	-61,935	0,035	0,011
-304,066	-56,791	-0,022	0,007
-303,051	-165,505	0,061	-0,002
-302,037	-200,000	0,007	0,037
-301,022	-200,000	0,038	0,130
-300,008	-57,868	0,134	0,043
-298,993	-200,000	-0,000	-0,055
-297,978	-156,899	-0,083	-0,004
-296,964	-1,404	-0,090	0,046
-295,949	123,615	-0,128	-0,118
-294,935	-200,000	0,017	-0,058
-293,920	-48,689	-0,079	-0,028
-292,905	279,047	-0,054	-0,070
-291,891	249,124	0,087	-0,108
-290,876	331,727	0,033	0,046
-289,862	-41,153	-0,075	-0,028
-288,847	33,182	-0,063	0,040
-287,832	800,000	-0,035	0,075
-286,818	-141,644	-0,133	-0,010
-285,803	-9,695	0,092	0,044
-284,789	800,000	0,057	0,136
-283,774	-119,624	-0,144	-0,018
-282,759	196,869	0,069	0,076
-281,745	-200,000	-0,004	-0,071
-280,730	66,721	-0,137	-0,102
-279,716	6,220	0,071	-0,038
-278,701	-140,955	-0,147	-0,011
-277,686	34,499	-0,033	-0,021
-276,672	800,000	0,019	0,060
-275,657	127,954	-0,071	0,066
-274,643	-200,000	-0,049	0,183
-273,628	105,083	-0,031	-0,026
-272,613	-97,216	0,131	0,025
-271,599	-78,321	0,058	-0,014
-270,584	494,047	0,059	0,100
-269,570	393,541	0,096	-0,147
-268,555	800,000	0,041	0,097
-267,540	386,078	0,049	0,074
-266,526	-200,000	-0,007	-0,071
-265,511	-80,737	0,039	0,009
-264,497	764,053	-0,072	0,143
-263,482	165,786	0,054	0,056
-262,467	4,689	-0,183	0,098
-261,453	133,066	0,047	-0,045
-260,438	-200,000	-0,006	0,053
-259,424	30,926	0,065	0,040
-258,409	-200,000	-0,026	-0,135
-257,395	-24,709	0,112	0,048
-256,380	45,186	0,112	0,075
-255,365	800,000	0,025	0,051
-254,351	87,741	-0,104	-0,084
-253,336	-160,931	-0,249	0,009
-252,322	-154,203	-0,072	-0,004
-251,307	334,210	0,021	-0,030
-250,292	-23,128	0,106	-0,047
-249,278	531,507	0,042	0,073
-248,263	-35,567	0,092	0,036
-247,249	-29,943	0,064	0,026
-246,234	800,000	0,017	0,038
-245,219	442,070	-0,082	0,131
-244,205	86,939	0,035	-0,028
-243,190	39,675	0,035	0,023
-242,176	18,377	0,146	0,085
-241,161	127,570	0,025	-0,023
-240,146	182,297	-0,122	0,131
-239,132	-200,000	0,027	0,172
-238,117	-130,301	0,057	-0,006
-237,103	731,840	-0,015	0,029
-236,088	-119,136	0,036	0,005
-235,073	53,040	0,059	-0,041
-234,059	-146,004	0,128	0,008
-233,044	-100,259	0,078	0,014
-232,030	-200,000	0,014	0,103
-231,015	252,322	0,055	-0,068
-230,000	-103,210	0,019	-0,003
-228,986	-7,934	-0,095	-0,047
-227,971	-200,000	0,025	0,184
-226,957	-46,686	0,151	0,054
-225,942	-200,000	0,003	0,138
-224,927	175,867	-0,049	0,052
-223,913	-200,000	-0,020	-0,074
-222,898	-22,788	0,121	-0,053
-221,884	800,000	-0,021	-0,050
-220,869	95,159	-0,098	-0,081
-219,855	307,599	-0,078	0,106
-218,840	281,169	0,074	0,096
-217,825	669,235	-0,029	-0,056
-216,811	276,229	-0,022	-0,029
-215,796	425,247	0,099	0,157
-214,782	-200,000	-0,030	0,112
-213,767	512,045	-0,048	-0,082
-212,752	290,152	0,050	-0,066
-211,738	15,604	0,135	0,077
-210,723	133,042	-0,094	-0,089
-209,709	399,335	-0,118	0,181
-208,694	132,430	-0,027	0,026
-207,679	-200,000	0,011	-0,254
-206,665	30,792	-0,113	0,070
-205,650	-200,000	0,014	0,049
-204,636	-167,667	-0,011	0,000
-203,621	-64,504	-0,056	0,016
-202,606	140,952	-0,066	-0,063
-201,592	-200,000	-0,006	0,021
-200,577	-200,000	-0,014	0,077
-199,563	-82,229	0,086	0,020
-198,548	800,000	0,020	0,059
-197,533	223,625	0,115	-0,136
-196,519	-26,443	-0,028	0,012
-195,504	-200,000	-0,008	-0,046
-194,490	-35,123	-0,106	-0,042
-193,475	197,377	0,026	-0,029
-192,460	146,325	0,044	-0,043
-191,446	-200,000	-0,002	-0,054
-190,431	-187,883	0,188	-0,002
-189,417	-200,000	-0,002	-0,045
-188,402	609,770	0,013	0,024
-187,387	209,041	-0,072	-0,082
-186,373	-200,000	-0,001	-0,058
-185,358	-188,063	0,100	0,001
-184,344	-33,868	-0,069	0,027
-183,329	-200,000	-0,002	0,080
-182,315	8,620	0,066	0,036
-181,300	1,055	-0,013	-0,007
-180,285	-65,067	0,060	-0,017
-179,271	-200,000	-0,011	-0,064
-178,256	289,463	0,015	-0,020
-177,242	-71,843	-0,135	0,036
-176,227	-200,000	-0,006	0,059
-175,212	-200,000	-0,023	0,160
-174,198	-139,682	-0,030	-0,002
-173,183	-200,000	-0,003	-0,019
-172,169	-13,388	-0,033	0,016
-171,154	275,187	-0,051	0,065
-170,139	521,783	-0,053	0,091
-169,125	800,000	0,008	0,019
-168,110	-200,000	-0,003	0,067
-167,096	800,000	0,073	-0,152
-166,081	800,000	0,057	0,135
-165,066	-37,569	0,033	-0,013
-164,052	800,000	0,037	-0,076
-163,037	79,127	0,045	0,035
-162,023	-200,000	0,038	-0,129
-161,008	-49,854	0,112	0,038
-159,993	454,693	0,045	0,073
-158,979	-200,000	-0,013	0,059
-157,964	800,000	0,010	0,027
-156,950	800,000	0,058	-0,156
-155,935	7,178	0,044	-0,024
-154,920	288,315	0,052	0,068
-153,906	243,105	0,038	0,046
-152,891	445,385	-0,080	0,128
-151,877	284,630	-0,068	-0,089
-150,862	-87,170	0,043	0,009
-149,847	-200,000	0,008	0,097
-148,833	543,469	-0,012	0,022
-147,818	-200,000	-0,002	0,045
-146,804	623,850	-0,039	-0,072
-145,789	-200,000	0,003	0,146
-144,775	253,417	-0,071	-0,088
-143,760	17,720	-0,106	0,061
-142,745	-200,000	-0,001	0,160
-141,731	179,231	-0,010	0,010
-140,716	800,000	-0,020	0,045
-139,702	800,000	0,058	0,145
-138,687	-84,070	0,064	-0,015
-137,672	10,993	0,066	-0,037
-136,658	-5,900	-0,049	-0,024
-135,643	-200,000	0,041	-0,174
-134,629	157,793	0,066	-0,067
-133,614	698,982	0,093	0,178
-132,599	350,801	-0,057	0,082
-131,585	-200,000	-0,023	-0,121
-130,570	424,262	0,054	-0,085
-129,556	-200,000	-0,011	0,043
-128,541	-65,546	0,040	0,012
-127,526	-28,796	-0,079	-0,033
-126,512	-40,872	-0,102	-0,038
-125,497	515,705	-0,022	-0,037
-124,483	16,408	0,087	0,050
-123,468	-95,009	-0,151	-0,029
-122,453	800,000	-0,039	-0,087
-121,439	800,000	-0,051	-0,135
-120,424	-38,588	0,043	-0,016
-119,410	800,000	0,078	0,168
-118,395	-8,415	0,064	-0,031
-117,380	141,873	-0,033	0,032
-116,366	-49,353	0,046	0,016
-115,351	-200,000	-0,003	0,086
-114,337	-200,000	0,007	0,084
-113,322	-57,200	0,090	0,029
-112,307	800,000	0,037	0,078
-111,293	-125,419	-0,029	-0,003
-110,278	800,000	-0,047	0,132
-109,264	66,018	-0,062	0,045
-108,249	-64,996	0,044	-0,013
-107,234	96,067	-0,098	0,081
-106,220	-61,390	0,138	-0,042
-105,205	60,554	-0,105	0,076
-104,191	-101,677	0,130	0,023
-103,176	25,456	0,098	0,059
-102,162	-200,000	0,009	0,121
-101,147	-200,000	0,010	-0,141
-100,132	43,091	-0,079	-0,052
-99,118	-200,000	0,018	0,058
-98,103	-140,732	-0,109	-0,008
-97,089	277,865	0,024	-0,030
-96,074	331,049	0,072	0,101
-95,059	-25,449	0,088	0,038
-94,045	134,828	0,079	-0,075
-93,030	128,383	-0,061	0,057
-92,016	344,450	0,085	0,121
-91,001	-65,845	0,101	0,029
-89,986	800,000	0,038	0,091
-88,972	-110,438	0,128	-0,019
-87,957	-18,365	0,101	-0,046
-86,943	-200,000	-0,024	0,081
-85,928	-200,000	-0,018	-0,157
-84,913	-8,296	-0,087	-0,042
-83,899	-49,623	-0,045	0,015
-82,884	393,773	0,048	0,073
-81,870	-136,408	0,080	-0,007
-80,855	-200,000	-0,003	0,042
-79,840	150,342	-0,069	-0,068
-78,826	-200,000	-0,001	-0,078
-77,811	323,517	0,089	-0,124
-76,797	-200,000	-0,035	0,124
-75,782	-108,654	0,096	-0,015
-74,767	-200,000	-0,006	-0,060
-73,753	346,817	0,078	-0,111
-72,738	-200,000	0,015	-0,075
-71,724	-200,000	0,006	0,079
-70,709	74,036	-0,104	0,079
-69,694	496,030	0,060	0,101
-68,680	-74,800	-0,154	0,040
-67,665	800,000	-0,054	0,167
-66,651	-134,757	0,067	-0,006
-65,636	16,986	-0,024	0,014
-64,622	122,086	-0,058	-0,052
-63,607	-200,000	0,015	0,058
-62,592	260,550	-0,060	-0,075
-61,578	-200,000	0,010	0,155
-60,563	294,440	0,100	0,132
-59,549	-200,000	0,018	0,105
-58,534	-171,960	-1,377	0,032
-57,519	510,208	-0,794	-1,343
-56,505	-200,000	-0,853	-4,403
-55,490	-52,122	0,631	-0,211
-54,476	800,000	4,953	11,491
-53,461	-200,000	13,893	252,222
-52,446	-200,000	693,185	2242,960
-51,432	583,613	1622,396	2897,459
-50,417	118,018	1631,727	1456,481
-49,403	74,049	1286,153	976,666
-48,388	37,790	1022,677	656,689
-47,373	24,016	980,791	584,606
-46,359	23,272	970,280	575,884
-45,344	22,216	965,977	569,866
-44,330	22,178	964,512	568,858
-43,315	22,084	963,070	567,677
-42,300	22,062	961,949	566,924
-41,286	22,075	960,956	566,356
-40,271	21,979	960,114	565,528
-39,257	21,986	959,215	564,999
-38,242	22,017	958,231	564,495
-37,227	21,955	957,450	563,813
-36,213	22,000	956,433	563,338
-35,198	22,000	955,490	562,759
-34,184	22,055	955,042	562,652
-33,169	22,032	954,195	562,056
-32,154	22,067	953,033	561,460
-31,140	22,005	952,390	560,860
-30,125	22,094	951,548	560,629
-29,111	22,070	950,622	559,985
-28,096	22,014	950,027	559,431
-27,082	21,984	949,487	558,994
-26,067	22,031	948,554	558,574
-25,052	21,995	947,814	558,002
-24,038	22,024	947,248	557,739
-23,023	22,059	946,562	557,425
-22,009	22,135	945,771	557,179
-20,994	22,039	945,255	556,547
-19,979	22,034	944,560	556,098
-18,965	22,099	943,913	555,902
-17,950	22,066	943,262	555,392
-16,936	22,061	942,653	554,997
-15,921	21,958	941,963	554,242
-14,906	21,954	941,125	553,712
-13,892	21,951	940,446	553,282
-12,877	21,950	939,905	552,940
-11,863	21,862	939,332	552,300
-10,848	21,897	938,854	552,108
-9,833	21,983	938,445	552,118
-8,819	22,059	937,679	551,888
-7,804	21,925	937,133	551,118
-6,790	21,891	936,506	550,623
-5,775	21,918	935,988	550,381
-4,760	21,954	935,423	550,139
-3,746	21,866	934,789	549,469
-2,731	21,836	933,818	548,782
-1,717	21,703	933,305	548,041
-0,702	21,713	932,655	547,666
0,313	21,517	931,965	547,471
1,327	24,087	929,744	554,177
2,342	31,944	807,633	502,624
3,356	27,228	507,840	308,008
4,371	2,967	372,707	195,320
5,386	-0,177	355,702	182,551
6,400	-1,702	349,299	177,417
7,415	-2,525	346,397	174,945
8,429	-2,752	344,962	173,936
9,444	-2,690	343,942	173,480
10,459	-2,735	343,439	173,157
11,473	-2,615	342,654	172,888
12,488	-2,220	342,158	173,087
13,502	-2,333	341,709	172,712
14,517	-2,309	341,036	172,384
15,531	-2,651	340,617	171,757
16,546	-2,610	340,069	171,512
17,561	-2,715	339,730	171,204
18,575	-2,649	339,354	171,076
19,590	-2,612	339,028	170,939
20,604	-2,720	338,804	170,685
21,619	-2,649	338,109	170,403
22,634	-2,590	337,990	170,397
23,648	-2,676	337,416	169,991
24,663	-2,623	337,340	170,000
25,677	-2,537	336,832	169,828
26,692	-2,497	336,555	169,720
27,707	-2,572	336,377	169,528
28,721	-2,620	335,986	169,261
29,736	-2,522	335,636	169,182
30,750	-2,792	335,544	168,809
31,765	-2,723	335,108	168,654
32,780	-2,673	334,796	168,540
33,794	-2,689	334,423	168,318
34,809	-2,578	334,048	168,243
35,823	-2,461	333,846	168,259
36,838	-2,610	333,656	167,978
37,853	-2,728	333,385	167,693
38,867	-2,757	333,017	167,458
39,882	-2,628	332,698	167,431
40,896	-2,713	332,472	167,205
41,911	-2,763	332,316	167,055
42,926	-2,678	331,944	166,950
43,940	-2,754	331,720	166,735
44,955	-2,689	331,398	166,632
45,969	-2,901	331,087	166,220
46,984	-3,092	331,001	165,946
47,999	-3,183	330,568	165,610
49,013	-3,197	330,282	165,436
50,028	-3,157	329,825	165,238
51,042	-3,357	329,723	164,947
52,057	-3,315	329,323	164,779
53,071	-3,242	329,110	164,740
54,086	-3,235	329,013	164,684
55,101	-3,161	328,818	164,656
56,115	-3,096	328,593	164,602
57,130	-2,743	328,383	164,878
58,144	-2,601	328,270	164,968
59,159	-2,553	327,821	164,781
60,174	-2,507	327,727	164,771
61,188	-2,509	327,355	164,567
62,203	-2,749	327,189	164,200
63,217	-2,500	326,872	164,305
64,232	-2,670	326,791	164,059
65,247	-2,638	326,445	163,907
66,261	-2,647	326,155	163,736
67,276	-2,729	325,777	163,441
68,290	-2,909	325,466	163,069
69,305	-2,817	325,260	163,054
70,320	-2,863	324,890	162,803
71,334	-2,763	324,663	162,786
72,349	-2,339	324,476	163,149
73,363	-2,416	324,381	163,000
74,378	-2,482	323,989	162,716
75,393	-2,575	324,025	162,616
76,407	-2,765	323,754	162,255
77,422	-2,517	323,391	162,333
78,436	-2,493	322,909	162,103
79,451	-2,404	322,729	162,097
80,466	-2,671	322,550	161,698
81,480	-2,783	322,145	161,357
82,495	-2,768	321,943	161,258
83,509	-2,646	321,687	161,249
84,524	-2,764	321,442	160,982
85,539	-2,842	321,049	160,686
86,553	-2,897	320,911	160,542
87,568	-2,820	320,777	160,545
88,582	-2,922	320,510	160,285
89,597	-2,765	320,350	160,363
90,611	-3,062	320,238	159,967
91,626	-2,777	319,887	160,089
92,641	-2,724	319,600	159,990
93,655	-2,664	319,372	159,926
94,670	-2,723	319,086	159,705
95,684	-2,787	318,930	159,542
96,699	-2,811	318,692	159,384
97,714	-2,657	318,297	159,339
98,728	-2,989	318,191	158,911
99,743	-3,013	317,979	158,764
100,757	-2,990	317,763	158,668
101,772	-3,040	317,590	158,512
102,787	-3,023	317,372	158,408
103,801	-2,979	317,054	158,283
104,816	-2,588	316,761	158,546
105,830	-2,861	316,715	158,213
106,845	-2,527	316,354	158,379
107,860	-2,604	316,197	158,204
108,874	-2,723	315,916	157,921
109,889	-2,757	315,815	157,819
110,903	-2,725	315,435	157,651
111,918	-2,828	315,199	157,407
112,933	-2,875	315,068	157,278
113,947	-2,692	314,927	157,389
114,962	-2,679	314,664	157,257
115,976	-2,626	314,474	157,206
116,991	-2,709	314,137	156,935
118,006	-2,690	313,977	156,861
119,020	-2,804	313,838	156,655
120,035	-2,727	313,746	156,677
121,049	-2,575	313,413	156,660
122,064	-2,754	313,229	156,363
123,079	-2,709	312,935	156,250
124,093	-2,820	312,589	155,946
125,108	-2,637	312,356	156,010
126,122	-3,064	312,140	155,434
127,137	-3,123	311,887	155,231
128,151	-2,924	311,652	155,312
129,166	-2,828	311,486	155,317
130,181	-2,952	311,238	155,048
131,195	-3,144	311,037	154,730
132,210	-2,890	310,813	154,875
133,224	-2,792	310,540	154,828
134,239	-2,545	310,363	154,987
135,254	-2,644	310,175	154,775
136,268	-2,789	309,995	154,518
137,283	-3,002	309,720	154,143
138,297	-3,070	309,412	153,904
139,312	-3,017	309,207	153,845
140,327	-2,694	308,878	154,006
141,341	-2,498	308,915	154,217
142,356	-2,402	308,892	154,293
143,370	-2,441	308,673	154,129
144,385	-2,301	308,400	154,126
145,400	-2,353	308,119	153,916
146,414	-2,359	307,893	153,784
147,429	-2,446	307,616	153,541
148,443	-2,458	307,593	153,503
149,458	-2,325	307,305	153,485
150,473	-2,344	307,081	153,340
151,487	-2,537	306,936	153,052
152,502	-2,389	306,807	153,128
153,516	-2,418	306,445	152,904
154,531	-2,223	306,242	152,992
155,546	-2,323	305,929	152,717
156,560	-2,537	305,865	152,449
157,575	-2,597	305,477	152,181
158,589	-2,589	305,372	152,123
159,604	-2,364	305,069	152,191
160,619	-2,460	304,971	152,030
161,633	-2,588	304,864	151,831
162,648	-2,423	304,492	151,802
163,662	-2,317	304,423	151,864
164,677	-2,505	304,034	151,462
165,692	-2,479	303,963	151,440
166,706	-2,309	303,885	151,562
167,721	-2,454	303,554	151,235
168,735	-2,347	303,354	151,231
169,750	-2,421	303,253	151,093
170,764	-2,340	303,057	151,065
171,779	-2,206	302,796	151,059
172,794	-2,284	302,712	150,922
173,808	-2,366	302,476	150,708
174,823	-2,743	301,966	150,054
175,837	-2,912	301,765	149,768
176,852	-2,509	301,741	150,155
177,867	-2,424	301,648	150,182
178,881	-2,335	301,479	150,175
179,896	-2,205	301,193	150,152
180,910	-2,327	301,140	149,987
181,925	-2,267	300,816	149,875
182,940	-2,173	300,650	149,874
183,954	-2,394	300,546	149,584
184,969	-2,492	300,418	149,407
185,983	-2,446	300,032	149,248
186,998	-2,324	299,738	149,213
188,013	-2,447	299,718	149,065
189,027	-2,230	299,557	149,192
190,042	-2,263	299,241	148,987
191,056	-2,269	299,133	148,914
192,071	-2,292	298,946	148,785
193,086	-2,134	298,712	148,815
194,100	-2,233	298,442	148,566
195,115	-2,300	298,288	148,409
196,129	-2,405	297,907	148,101
197,144	-2,312	297,693	148,075
198,159	-2,191	297,600	148,138
199,173	-2,328	297,353	147,863
200,188	-2,207	297,209	147,900
201,202	-2,372	296,852	147,544
202,217	-2,628	296,421	147,059
203,232	-2,810	296,282	146,794
204,246	-2,628	296,210	146,928
205,261	-2,328	296,127	147,175
206,275	-2,367	295,813	146,967
207,290	-2,360	295,763	146,935
208,304	-2,510	295,627	146,705
209,319	-2,333	295,363	146,738
210,334	-2,403	295,153	146,550
211,348	-2,481	294,901	146,334
212,363	-2,315	294,702	146,388
213,377	-2,379	294,645	146,283
214,392	-2,385	294,380	146,132
215,407	-2,459	294,046	145,880
216,421	-2,682	293,919	145,582
217,436	-2,622	293,682	145,511
218,450	-2,663	293,445	145,340
219,465	-2,470	293,289	145,441
220,480	-2,508	293,311	145,402
221,494	-2,482	293,053	145,287
222,509	-2,665	292,901	145,017
223,523	-2,346	292,610	145,176
224,538	-2,287	292,565	145,198
225,553	-2,161	292,324	145,190
226,567	-2,364	292,122	144,876
227,582	-2,317	292,114	144,906
228,596	-2,355	291,796	144,698
229,611	-2,083	291,492	144,802
230,626	-2,300	291,445	144,552
231,640	-2,737	291,036	143,908
232,655	-2,946	290,765	143,555
233,669	-2,969	290,527	143,403
234,684	-2,863	290,283	143,373
235,699	-2,774	290,182	143,398
236,713	-2,712	289,923	143,318
237,728	-2,679	289,942	143,347
238,742	-2,474	289,757	143,443
239,757	-2,267	289,572	143,540
240,772	-2,464	289,472	143,286
241,786	-2,521	289,286	143,125
242,801	-2,459	288,957	143,010
243,815	-2,613	288,801	142,770
244,830	-2,409	288,692	142,902
245,844	-2,531	288,367	142,610
246,859	-2,731	288,258	142,348
247,874	-2,693	288,208	142,349
248,888	-2,587	287,895	142,284
249,903	-2,522	287,833	142,304
250,917	-2,339	287,739	142,422
251,932	-2,187	287,545	142,461
252,947	-1,676	287,503	142,921
253,961	-2,133	287,115	142,274
254,976	-0,842	287,621	143,762
255,990	1,620	288,445	146,548
257,005	2,639	288,706	147,656
258,020	3,999	289,003	149,114
259,034	3,927	288,963	149,009
260,049	3,920	288,548	148,775
261,063	3,694	288,353	148,443
262,078	4,017	288,314	148,723
263,093	4,585	288,386	149,294
264,107	4,597	288,179	149,186
265,122	4,549	288,048	149,058
266,136	4,845	287,813	149,208
267,151	4,600	287,622	148,861
268,166	4,355	287,498	148,547
269,180	4,446	287,040	148,385
270,195	4,502	286,841	148,322
271,209	4,378	286,840	148,190
272,224	4,207	286,695	147,937
273,239	4,024	286,421	147,607
274,253	4,040	286,318	147,556
275,268	4,555	286,357	148,057
276,282	4,540	286,051	147,872
277,297	4,552	285,819	147,750
278,312	4,909	285,717	148,025
279,326	4,679	285,512	147,685
280,341	4,313	285,298	147,213
281,355	4,251	285,158	147,068
282,370	4,116	284,664	146,671
283,384	4,329	284,644	146,851
284,399	4,261	284,425	146,661
285,414	4,301	284,334	146,639
286,428	4,263	283,980	146,407
287,443	4,045	283,759	146,073
288,457	3,990	283,573	145,912
289,472	3,934	283,488	145,802
290,487	4,027	283,293	145,777
291,501	4,046	282,925	145,592
292,516	3,738	282,607	145,125
293,530	3,758	282,635	145,145
294,545	4,065	282,461	145,333
295,560	3,897	282,419	145,140
296,574	3,900	282,087	144,959
297,589	4,000	281,930	144,959
298,603	4,405	281,934	145,330
299,618	4,427	281,693	145,213
300,633	4,324	281,522	145,016
301,647	4,354	281,293	144,913
302,662	4,327	281,185	144,819
303,676	3,986	280,926	144,353
304,691	3,857	280,643	144,073
305,706	3,632	280,475	143,763
306,720	3,862	280,148	143,798
307,735	3,639	280,054	143,529
308,749	3,968	279,977	143,784
309,764	4,072	279,688	143,720
310,779	3,999	279,523	143,555
311,793	3,614	279,339	143,088
312,808	3,698	279,101	143,032
313,822	3,640	279,018	142,923
314,837	3,719	278,703	142,822
315,852	3,544	278,572	142,579
316,866	3,642	278,450	142,595
317,881	3,883	278,209	142,682
318,895	3,838	278,073	142,558
319,910	3,731	277,813	142,313
320,925	3,664	277,527	142,092
321,939	3,806	277,617	142,257
322,954	3,771	277,585	142,195
323,968	3,825	277,265	142,069
324,983	3,942	277,289	142,176
325,997	4,002	276,870	142,004
327,012	4,161	276,786	142,096
328,027	4,097	276,586	141,921
329,041	3,975	276,340	141,670
330,056	4,088	276,272	141,727
331,070	3,863	276,159	141,449
332,085	3,912	275,826	141,310
333,100	3,824	275,626	141,115
334,114	3,779	275,433	140,961
335,129	3,726	275,271	140,818
336,143	4,023	275,110	140,995
337,158	4,243	275,052	141,155
338,173	4,196	274,851	140,996
339,187	3,968	274,559	140,624
340,202	3,863	274,451	140,461
341,216	4,115	274,264	140,583
342,231	3,886	274,200	140,329
343,246	3,954	273,918	140,233
344,260	3,945	273,818	140,162
345,275	3,972	273,758	140,143
346,289	4,025	273,671	140,134
347,304	4,374	273,324	140,261
348,319	4,136	273,148	139,942
349,333	3,904	273,017	139,652
350,348	4,176	272,823	139,787
351,362	4,264	272,663	139,773
352,377	4,249	272,506	139,666
353,392	4,230	272,339	139,551
354,406	4,294	272,234	139,542
355,421	191,925	1330,103	1408,843
356,435	155,071	1459,074	1408,953
