DTS Sentinel unit serial number:	SN410029Multiplexer serial number:	ORYXHardware model number:	OX2-SRSoftware version number:	ORYX F/W v4,00 Oryx Data Collector v3.7.2.0data status	okinstallation	B4 Nyhavnadifferential loss correction	single-endedforward channel	channel 2reverse channel	N/Adate	2023/12/16time	00:35:14forward acquisition time	300,00reverse acquisition time	0,00gamma	499,1914k internal	0,3128k external	0,3128temperature offset calibration	1,0000default loss term (dB/km)	0,3820temperature slope calibration	1,0000multiplexer offset coefficient	1,0000multiplexer slope coefficient	1,0000fibre end	0,00T internal ref (°C)	21,99T ext. ref 1 (°C)	6,80T ext. ref 2 (°C)	6,96length (m)	temperature (°C)	Stokes	anti-Stokes-744,400	223,071	0,045	0,054
-743,385	-11,675	-0,283	0,138
-742,371	-148,780	0,059	-0,003
-741,356	-90,695	-0,303	0,065
-740,342	-60,962	0,073	-0,023
-739,327	-88,695	-0,207	0,045
-738,312	26,090	0,008	-0,005
-737,298	-43,120	-0,316	0,118
-736,283	-101,199	0,071	0,013
-735,269	506,691	-0,135	0,234
-734,254	-1,900	0,101	-0,053
-733,239	-134,636	-0,471	-0,042
-732,225	-148,381	0,094	-0,006
-731,210	-107,325	-0,038	-0,006
-730,196	591,377	-0,022	0,040
-729,181	-58,316	-0,192	-0,062
-728,167	-200,000	0,014	-0,109
-727,152	-152,420	0,058	0,003
-726,137	425,764	-0,045	-0,072
-725,123	800,000	0,028	-0,067
-724,108	-61,183	-0,210	0,065
-723,094	-143,963	-0,109	-0,008
-722,079	-48,936	-0,067	0,024
-721,064	-200,000	0,012	0,051
-720,050	-57,656	0,046	-0,015
-719,035	-200,000	-0,023	-0,090
-718,021	127,578	-0,047	0,045
-717,006	172,440	0,020	-0,021
-715,991	-200,000	-0,020	0,155
-714,977	-18,111	0,076	-0,035
-713,962	361,944	-0,108	-0,162
-712,948	800,000	-0,002	0,005
-711,933	-200,000	-0,012	0,123
-710,918	-69,078	-0,051	0,015
-709,904	37,005	-0,114	0,075
-708,889	-200,000	0,004	-0,017
-707,875	800,000	-0,022	-0,054
-706,860	-118,163	-0,218	-0,029
-705,845	326,822	0,011	-0,016
-704,831	517,036	-0,010	-0,018
-703,816	-174,755	-0,122	-0,003
-702,802	800,000	-0,062	-0,179
-701,787	-8,659	-0,099	-0,049
-700,772	800,000	-0,045	-0,132
-699,758	-200,000	-0,024	-0,200
-698,743	-40,341	-0,029	0,011
-697,729	-200,000	-0,025	-0,083
-696,714	800,000	0,027	-0,066
-695,699	-200,000	-0,018	-0,135
-694,685	84,756	-0,074	-0,060
-693,670	715,244	0,022	0,044
-692,656	680,456	-0,058	0,113
-691,641	42,253	0,111	-0,075
-690,627	112,535	0,065	-0,058
-689,612	30,975	0,004	-0,002
-688,597	110,249	0,037	-0,033
-687,583	-50,510	-0,174	-0,061
-686,568	-92,664	-0,042	0,009
-685,554	66,923	0,117	-0,089
-684,539	800,000	0,010	-0,025
-683,524	-200,000	0,009	0,093
-682,510	232,690	-0,043	0,053
-681,495	84,132	0,012	-0,010
-680,481	-22,097	-0,089	-0,040
-679,466	-200,000	-0,007	-0,214
-678,451	-120,343	0,110	-0,014
-677,437	-11,639	0,063	0,031
-676,422	-200,000	-0,019	0,069
-675,408	686,095	0,063	0,122
-674,393	-200,000	0,022	0,093
-673,378	-200,000	0,028	-0,142
-672,364	400,704	-0,048	0,075
-671,349	800,000	-0,027	-0,065
-670,335	45,447	0,077	0,052
-669,320	-166,281	-0,103	-0,003
-668,305	-148,073	0,162	-0,010
-667,291	-73,687	-0,089	0,024
-666,276	-83,923	-0,126	0,029
-665,262	800,000	-0,040	-0,107
-664,247	-200,000	-0,000	-0,077
-663,232	-31,207	-0,022	-0,009
-662,218	13,989	0,005	-0,003
-661,203	800,000	0,023	-0,049
-660,189	-200,000	-0,018	-0,074
-659,174	244,148	-0,145	-0,181
-658,159	-83,711	0,017	0,004
-657,145	216,543	-0,076	-0,089
-656,130	800,000	0,004	0,010
-655,116	-200,000	0,009	0,043
-654,101	47,897	0,132	-0,091
-653,086	-144,286	-0,065	-0,004
-652,072	-89,804	0,061	-0,013
-651,057	800,000	-0,030	0,093
-650,043	-200,000	0,008	-0,111
-649,028	315,009	0,089	-0,125
-648,014	264,920	-0,037	0,048
-646,999	462,641	-0,048	-0,080
-645,984	-55,162	0,153	0,051
-644,970	-38,681	0,059	-0,023
-643,955	-57,552	-0,055	0,018
-642,941	220,735	0,051	0,060
-641,926	96,450	-0,051	0,043
-640,911	25,546	-0,030	-0,018
-639,897	-200,000	-0,033	0,182
-638,882	169,305	-0,040	0,042
-637,868	-9,438	0,033	-0,016
-636,853	49,242	-0,034	0,024
-635,838	-200,000	0,033	-0,133
-634,824	-132,862	0,092	-0,009
-633,809	-33,443	0,145	0,059
-632,795	161,530	-0,145	0,151
-631,780	-127,725	0,143	-0,015
-630,765	480,758	-0,072	-0,122
-629,751	680,676	-0,064	-0,123
-628,736	-200,000	-0,041	-0,135
-627,722	-200,000	0,016	-0,088
-626,707	55,117	0,164	-0,117
-625,692	-200,000	0,013	0,054
-624,678	4,054	-0,137	-0,074
-623,663	-107,580	-0,145	-0,023
-622,649	-59,160	-0,067	0,021
-621,634	148,799	-0,050	0,051
-620,619	-130,270	0,029	-0,003
-619,605	-200,000	-0,005	-0,035
-618,590	37,815	0,059	-0,039
-617,576	314,645	-0,057	0,080
-616,561	-200,000	0,028	0,095
-615,546	800,000	0,023	0,066
-614,532	-106,399	-0,079	0,013
-613,517	-119,304	-0,078	-0,010
-612,503	800,000	0,036	-0,087
-611,488	407,100	-0,026	0,041
-610,474	-2,029	-0,033	0,017
-609,459	800,000	-0,012	0,035
-608,444	-104,335	-0,125	-0,021
-607,430	48,925	-0,097	-0,067
-606,415	509,259	0,020	-0,035
-605,401	-139,663	-0,052	0,004
-604,386	-200,000	0,045	0,156
-603,371	14,479	0,115	0,066
-602,357	800,000	-0,046	0,130
-601,342	-30,872	-0,054	-0,022
-600,328	-36,544	-0,082	0,033
-599,313	-14,358	-0,086	-0,041
-598,298	715,577	-0,019	-0,037
-597,284	580,567	-0,038	-0,069
-596,269	168,400	-0,036	-0,038
-595,255	-68,975	-0,013	-0,004
-594,240	385,112	-0,047	-0,072
-593,225	-104,448	-0,191	-0,032
-592,211	-41,054	0,044	0,017
-591,196	-17,982	0,140	0,065
-590,182	315,787	0,044	-0,062
-589,167	-200,000	-0,013	-0,051
-588,152	-70,116	0,039	0,011
-587,138	382,336	-0,093	-0,141
-586,123	-200,000	-0,023	0,108
-585,109	173,341	-0,072	-0,077
-584,094	33,678	-0,079	0,051
-583,079	132,428	0,111	0,105
-582,065	132,994	0,024	-0,023
-581,050	-71,086	-0,015	0,004
-580,036	466,632	-0,032	-0,053
-579,021	-39,652	-0,042	-0,016
-578,006	-151,309	-0,057	0,003
-576,992	240,349	0,031	-0,039
-575,977	-54,270	-0,027	0,009
-574,963	-200,000	-0,008	0,038
-573,948	32,684	0,007	0,005
-572,934	1,910	-0,011	0,006
-571,919	-66,383	-0,158	-0,046
-570,904	-2,392	-0,128	0,066
-569,890	-200,000	-0,003	-0,018
-568,875	-11,181	-0,097	-0,047
-567,861	-143,884	0,114	0,008
-566,846	-37,627	-0,081	-0,032
-565,831	153,728	0,018	-0,018
-564,817	-200,000	-0,026	-0,095
-563,802	-23,134	0,063	-0,028
-562,788	58,126	-0,080	-0,058
-561,773	-200,000	-0,009	-0,041
-560,758	-200,000	-0,006	0,039
-559,744	-136,047	-0,137	0,012
-558,729	140,526	-0,062	-0,061
-557,715	169,182	0,051	-0,054
-556,700	-99,273	0,047	-0,009
-555,685	178,950	0,081	-0,088
-554,671	-86,719	0,131	0,029
-553,656	172,662	-0,055	0,058
-552,642	-200,000	0,005	-0,047
-551,627	505,838	0,010	-0,016
-550,612	-200,000	-0,003	0,073
-549,598	-94,763	-0,084	0,017
-548,583	170,122	-0,062	0,065
-547,569	95,823	0,060	-0,051
-546,554	-51,435	-0,046	-0,016
-545,539	-200,000	-0,007	0,052
-544,525	278,658	-0,038	0,051
-543,510	205,630	-0,046	-0,053
-542,496	14,064	0,095	-0,055
-541,481	-200,000	-0,019	-0,064
-540,466	71,045	-0,060	-0,046
-539,452	-8,005	0,077	0,038
-538,437	-200,000	-0,023	0,141
-537,423	800,000	0,018	-0,041
-536,408	-100,148	0,125	0,023
-535,393	-79,720	-0,085	-0,021
-534,379	-159,462	-0,084	0,003
-533,364	-200,000	0,011	-0,055
-532,350	-113,255	-0,095	0,014
-531,335	317,674	0,022	-0,031
-530,321	160,477	0,031	0,032
-529,306	-118,663	0,108	-0,014
-528,291	-200,000	0,044	-0,281
-527,277	333,857	0,065	-0,092
-526,262	104,788	0,077	0,067
-525,248	48,742	0,099	0,069
-524,233	-200,000	-0,025	-0,114
-523,218	66,411	-0,056	0,042
-522,204	-67,418	0,105	-0,030
-521,189	26,884	-0,029	-0,018
-520,175	-124,484	-0,185	0,021
-519,160	472,862	-0,048	0,080
-518,145	800,000	-0,070	0,159
-517,131	70,616	0,054	0,041
-516,116	-200,000	0,009	-0,188
-515,102	-51,374	0,070	-0,024
-514,087	-200,000	0,035	-0,183
-513,072	-200,000	0,009	0,140
-512,058	800,000	-0,031	-0,068
-511,043	-46,734	-0,049	0,018
-510,029	-21,494	0,089	0,040
-509,014	84,829	-0,075	0,060
-507,999	273,955	0,010	0,014
-506,985	-200,000	0,004	-0,095
-505,970	42,655	-0,145	0,097
-504,956	-200,000	-0,008	0,038
-503,941	-154,040	0,065	-0,003
-502,926	800,000	-0,036	0,105
-501,912	222,881	0,106	0,126
-500,897	-200,000	0,004	-0,038
-499,883	-126,083	-0,094	0,010
-498,868	-104,509	-0,130	-0,022
-497,853	463,483	0,029	0,048
-496,839	-200,000	0,021	-0,185
-495,824	602,252	0,009	-0,017
-494,810	33,681	0,083	-0,053
-493,795	81,529	-0,133	0,106
-492,781	-64,578	-0,110	-0,033
-491,766	36,633	0,156	-0,101
-490,751	93,433	0,063	-0,052
-489,737	239,258	-0,076	-0,094
-488,722	15,327	0,062	-0,036
-487,708	-30,106	0,052	-0,022
-486,693	-167,814	-0,117	0,003
-485,678	-197,434	0,138	-0,001
-484,664	-25,898	-0,120	-0,052
-483,649	-88,900	0,082	0,018
-482,635	-71,351	0,074	-0,020
-481,620	785,000	0,041	0,083
-480,605	190,603	0,067	0,075
-479,591	349,568	0,025	0,037
-478,576	-143,796	0,077	0,005
-477,562	57,465	-0,073	0,052
-476,547	134,086	0,095	-0,090
-475,532	40,222	-0,045	0,030
-474,518	800,000	-0,023	-0,059
-473,503	800,000	0,073	0,217
-472,489	158,407	0,146	0,150
-471,474	-143,316	-0,020	-0,001
-470,459	-200,000	0,022	-0,144
-469,445	800,000	0,027	-0,078
-468,430	-62,954	-0,196	-0,059
-467,416	-31,658	0,085	-0,035
-466,401	-200,000	-0,010	0,064
-465,386	510,722	0,012	0,020
-464,372	-200,000	-0,022	0,075
-463,357	-173,660	-0,097	0,002
-462,343	-200,000	-0,002	0,106
-461,328	800,000	0,023	0,052
-460,313	800,000	-0,044	-0,135
-459,299	501,268	0,042	0,072
-458,284	-200,000	-0,012	0,065
-457,270	6,749	0,042	-0,023
-456,255	800,000	-0,033	-0,088
-455,241	-200,000	-0,006	0,094
-454,226	-23,741	0,159	-0,070
-453,211	599,414	-0,026	0,048
-452,197	-200,000	0,033	-0,142
-451,182	-200,000	0,016	0,055
-450,168	-29,711	-0,053	-0,022
-449,153	800,000	0,026	0,060
-448,138	342,099	-0,018	-0,025
-447,124	-200,000	0,015	-0,072
-446,109	-200,000	0,042	-0,148
-445,095	-140,090	-0,118	0,009
-444,080	-49,406	0,038	0,013
-443,065	565,063	0,025	0,044
-442,051	-37,438	0,144	0,056
-441,036	272,187	0,080	-0,104
-440,022	46,126	-0,096	-0,065
-439,007	402,261	-0,016	-0,025
-437,992	344,396	0,047	-0,069
-436,978	-80,456	0,216	0,053
-435,963	55,586	-0,134	0,096
-434,949	682,061	-0,008	0,015
-433,934	-200,000	-0,014	0,063
-432,919	-200,000	-0,024	-0,093
-431,905	53,231	-0,063	0,044
-430,890	736,664	-0,041	0,081
-429,876	-127,133	0,082	-0,009
-428,861	-200,000	0,016	-0,059
-427,846	-200,000	-0,011	0,076
-426,832	182,878	-0,055	-0,060
-425,817	478,142	0,054	0,091
-424,803	31,241	-0,060	-0,038
-423,788	-135,753	-0,102	-0,009
-422,773	-128,583	0,070	0,007
-421,759	1,009	0,127	0,066
-420,744	623,970	-0,067	-0,125
-419,730	-200,000	-0,005	-0,020
-418,715	-200,000	-0,004	-0,113
-417,701	-200,000	0,019	-0,075
-416,686	0,224	0,069	0,036
-415,671	-200,000	-0,012	0,042
-414,657	-122,951	0,090	0,011
-413,642	37,201	-0,079	0,051
-412,628	-200,000	0,011	-0,069
-411,613	97,221	0,028	0,023
-410,598	46,265	0,101	0,069
-409,584	-200,000	-0,025	0,089
-408,569	-200,000	-0,005	-0,031
-407,555	420,311	0,045	0,072
-406,540	101,222	0,084	0,072
-405,525	171,498	-0,107	0,113
-404,511	-200,000	0,017	0,054
-403,496	-101,357	0,081	-0,014
-402,482	304,197	0,015	-0,021
-401,467	-118,351	0,027	-0,003
-400,452	-200,000	0,036	0,126
-399,438	800,000	0,034	0,081
-398,423	-90,977	0,011	-0,002
-397,409	69,482	-0,077	-0,058
-396,394	-200,000	0,007	0,059
-395,379	207,832	-0,055	-0,064
-394,365	286,499	-0,004	-0,005
-393,350	800,000	0,015	-0,036
-392,336	-127,571	0,071	-0,007
-391,321	800,000	0,003	-0,006
-390,306	647,318	0,012	0,023
-389,292	-200,000	0,002	-0,034
-388,277	-200,000	-0,051	-0,166
-387,263	-14,353	-0,057	-0,027
-386,248	-200,000	-0,023	-0,159
-385,233	-93,907	-0,097	-0,019
-384,219	66,237	0,083	-0,062
-383,204	-149,768	-0,208	-0,012
-382,190	397,275	0,035	-0,055
-381,175	-120,138	0,057	0,007
-380,160	-200,000	0,012	-0,056
-379,146	342,282	-0,035	0,051
-378,131	-142,203	0,180	-0,013
-377,117	-134,914	-0,077	0,007
-376,102	354,682	0,060	0,087
-375,088	-200,000	0,008	-0,038
-374,073	-200,000	-0,030	-0,123
-373,058	26,573	0,046	0,028
-372,044	78,269	0,005	-0,004
-371,029	-200,000	-0,011	0,245
-370,015	-38,710	-0,095	0,037
-369,000	-45,774	-0,169	-0,061
-367,985	13,676	-0,127	-0,072
-366,971	220,357	-0,053	0,063
-365,956	-200,000	-0,013	0,140
-364,942	227,135	0,095	0,114
-363,927	-200,000	-0,017	0,131
-362,912	201,184	0,021	0,023
-361,898	-200,000	-0,003	-0,112
-360,883	-200,000	-0,022	-0,100
-359,869	378,150	0,133	-0,200
-358,854	-134,665	0,166	-0,015
-357,839	-200,000	0,006	0,035
-356,825	-200,000	-0,009	-0,034
-355,810	800,000	0,054	0,124
-354,796	87,428	0,056	0,045
-353,781	-52,843	-0,232	-0,078
-352,766	-200,000	0,022	-0,082
-351,752	-27,847	0,082	-0,035
-350,737	-200,000	0,018	0,094
-349,723	-101,118	0,072	0,013
-348,708	800,000	0,040	0,097
-347,693	-200,000	0,023	-0,087
-346,679	379,762	-0,030	0,045
-345,664	-200,000	-0,018	-0,068
-344,650	270,015	-0,049	-0,063
-343,635	189,858	0,046	-0,051
-342,620	82,987	0,038	0,030
-341,606	479,493	-0,054	0,090
-340,591	-200,000	-0,032	-0,150
-339,577	-42,395	0,078	0,029
-338,562	36,171	-0,095	-0,061
-337,548	63,843	0,032	0,024
-336,533	480,652	0,018	-0,031
-335,518	30,449	-0,026	-0,016
-334,504	268,941	0,079	-0,102
-333,489	178,249	-0,029	0,031
-332,475	-200,000	-0,006	0,055
-331,460	-112,215	0,055	-0,008
-330,445	-53,210	-0,096	0,032
-329,431	468,832	0,039	0,065
-328,416	204,319	0,054	0,061
-327,402	-54,814	-0,140	-0,046
-326,387	-200,000	0,035	-0,201
-325,372	-200,000	-0,027	0,090
-324,358	341,623	-0,049	0,070
-323,343	-72,264	-0,081	-0,022
-322,329	223,719	0,061	-0,072
-321,314	166,128	-0,041	-0,043
-320,299	800,000	0,036	0,094
-319,285	-167,194	0,040	-0,001
-318,270	800,000	0,044	-0,116
-317,256	-39,042	-0,053	-0,020
-316,241	800,000	-0,032	0,087
-315,226	800,000	0,025	-0,080
-314,212	21,767	0,095	0,056
-313,197	800,000	0,031	0,089
-312,183	-61,805	-0,047	0,014
-311,168	800,000	-0,034	-0,073
-310,153	-37,836	-0,075	-0,029
-309,139	121,908	0,032	-0,029
-308,124	-200,000	0,000	0,078
-307,110	513,669	-0,037	-0,063
-306,095	-87,194	0,175	-0,039
-305,080	147,434	0,056	0,055
-304,066	-31,520	-0,056	-0,023
-303,051	-188,744	-0,145	-0,001
-302,037	44,296	-0,096	-0,064
-301,022	9,074	0,062	0,034
-300,008	-200,000	0,002	0,118
-298,993	105,081	0,080	-0,069
-297,978	270,234	0,069	-0,089
-296,964	39,359	-0,111	-0,072
-295,949	502,724	-0,002	-0,003
-294,935	-48,095	-0,107	0,038
-293,920	-200,000	-0,031	-0,133
-292,905	-156,005	-0,040	-0,002
-291,891	27,109	0,022	0,014
-290,876	-97,413	0,093	-0,017
-289,862	18,504	0,089	-0,052
-288,847	574,447	-0,038	0,068
-287,832	-200,000	-0,006	-0,066
-286,818	800,000	0,058	0,126
-285,803	-200,000	0,016	0,178
-284,789	800,000	0,037	-0,085
-283,774	78,817	0,086	0,067
-282,759	719,569	-0,048	0,095
-281,745	800,000	0,025	0,060
-280,730	-0,376	-0,140	-0,073
-279,716	-133,270	0,080	-0,007
-278,701	800,000	0,047	0,132
-277,686	800,000	-0,047	0,127
-276,672	-138,752	0,113	0,009
-275,657	-200,000	-0,012	0,071
-274,643	-108,580	-0,050	0,008
-273,628	620,788	0,075	-0,138
-272,613	190,798	-0,056	-0,062
-271,599	-58,302	0,016	0,005
-270,584	-83,710	0,101	-0,023
-269,570	-200,000	0,016	0,065
-268,555	494,756	-0,015	0,024
-267,540	800,000	-0,027	-0,082
-266,526	-200,000	0,027	-0,115
-265,511	23,942	-0,048	-0,029
-264,497	-200,000	0,005	-0,035
-263,482	263,931	0,086	0,110
-262,467	-104,855	0,173	-0,029
-261,453	15,869	-0,059	0,034
-260,438	323,318	-0,112	0,157
-259,424	371,829	0,006	-0,010
-258,409	-47,769	-0,090	0,032
-257,395	-123,326	0,094	0,011
-256,380	347,278	-0,070	0,100
-255,365	800,000	-0,034	0,107
-254,351	-200,000	-0,000	-0,042
-253,336	-200,000	-0,003	-0,044
-252,322	-200,000	0,016	-0,055
-251,307	599,975	0,048	-0,087
-250,292	-19,428	-0,166	-0,075
-249,278	-200,000	-0,007	-0,058
-248,263	-62,836	0,102	0,031
-247,249	80,916	-0,319	0,251
-246,234	49,568	-0,094	-0,065
-245,219	-200,000	0,000	0,043
-244,205	-65,866	-0,125	0,036
-243,190	249,081	0,071	0,088
-242,176	38,846	-0,045	0,029
-241,161	97,515	0,123	0,103
-240,146	-11,105	0,069	-0,033
-239,132	162,834	-0,067	0,069
-238,117	-116,944	-0,106	0,014
-237,103	-200,000	0,017	-0,112
-236,088	800,000	0,036	-0,098
-235,073	-0,723	-0,047	-0,024
-234,059	-200,000	-0,016	0,137
-233,044	155,143	0,056	-0,056
-232,030	39,077	-0,060	-0,039
-231,015	-46,947	-0,124	-0,044
-230,000	-77,049	0,146	-0,037
-228,986	-21,480	0,066	0,029
-227,971	507,793	-0,024	-0,041
-226,957	800,000	0,027	0,079
-225,942	235,890	0,093	0,112
-224,927	114,175	0,043	-0,038
-223,913	800,000	-0,047	-0,099
-222,898	-200,000	-0,019	-0,242
-221,884	261,467	-0,070	-0,089
-220,869	-85,441	-0,042	0,009
-219,855	276,692	0,146	0,190
-218,840	-32,119	-0,118	0,048
-217,825	27,681	-0,114	-0,070
-216,811	800,000	0,042	-0,134
-215,796	681,429	0,014	-0,026
-214,782	-178,662	-0,087	-0,001
-213,767	800,000	-0,043	0,090
-212,752	119,671	0,058	-0,052
-211,738	-148,656	0,161	0,009
-210,723	-112,245	0,049	-0,007
-209,709	348,147	-0,091	-0,131
-208,694	103,598	-0,075	-0,064
-207,679	-200,000	-0,007	-0,025
-206,665	52,814	0,092	0,064
-205,650	-190,873	0,126	-0,001
-204,636	-200,000	-0,023	0,169
-203,621	275,391	0,117	0,152
-202,606	697,277	-0,060	0,115
-201,592	-10,578	-0,106	-0,051
-200,577	421,996	0,028	-0,044
-199,563	-31,306	-0,072	0,029
-198,548	144,892	0,120	0,117
-197,533	-5,115	-0,099	0,049
-196,519	58,238	0,091	-0,065
-195,504	-112,769	0,037	0,005
-194,490	800,000	0,058	-0,132
-193,475	-71,877	0,107	0,029
-192,460	-200,000	0,007	-0,036
-191,446	31,790	-0,083	0,052
-190,431	-200,000	-0,015	0,068
-189,417	-16,688	0,075	0,035
-188,402	-176,735	-0,052	0,001
-187,387	-20,043	0,030	0,013
-186,373	211,875	-0,098	0,113
-185,358	395,533	-0,045	-0,069
-184,344	51,686	0,075	-0,052
-183,329	-49,369	0,138	-0,048
-182,315	8,817	0,037	0,020
-181,300	-200,000	0,005	0,087
-180,285	-76,453	0,046	-0,012
-179,271	60,236	-0,091	-0,065
-178,256	-200,000	0,015	-0,063
-177,242	-200,000	0,121	0,000
-176,227	-16,371	0,121	-0,056
-175,212	529,094	0,078	0,135
-174,198	800,000	0,019	0,038
-173,183	187,223	0,062	-0,068
-172,169	-200,000	-0,004	0,082
-171,154	-42,752	0,154	0,057
-170,139	-111,329	-0,039	0,006
-169,125	-4,698	-0,027	0,013
-168,110	142,577	0,053	0,051
-167,096	800,000	0,034	0,092
-166,081	-18,814	-0,118	0,053
-165,066	-200,000	-0,007	-0,090
-164,052	403,957	-0,011	-0,017
-163,037	62,708	-0,132	0,096
-162,023	-0,230	0,060	-0,031
-161,008	388,652	-0,086	0,131
-159,993	800,000	-0,025	0,061
-158,979	89,173	-0,063	-0,051
-157,964	-200,000	0,017	0,079
-156,950	800,000	0,034	-0,077
-155,935	-77,294	0,051	0,013
-154,920	-200,000	0,030	0,099
-153,906	-106,972	0,098	0,016
-152,891	79,185	0,025	-0,020
-151,877	-78,809	0,056	-0,014
-150,862	798,998	-0,038	0,076
-149,847	337,844	-0,053	0,075
-148,833	226,546	0,028	0,033
-147,818	-87,088	0,258	-0,057
-146,804	-200,000	0,043	0,160
-145,789	225,613	-0,030	0,036
-144,775	800,000	-0,046	-0,093
-143,760	152,597	-0,092	0,091
-142,745	252,698	0,061	-0,075
-141,731	-200,000	-0,011	0,110
-140,716	66,977	0,062	0,046
-139,702	142,133	-0,015	-0,014
-138,687	-200,000	-0,009	0,053
-137,672	-0,441	0,098	-0,050
-136,658	273,995	-0,054	0,069
-135,643	-27,507	-0,062	-0,026
-134,629	64,589	0,109	-0,080
-133,614	92,398	0,125	0,102
-132,599	-10,887	-0,050	-0,024
-131,585	800,000	-0,021	-0,058
-130,570	423,306	-0,021	0,032
-129,556	66,109	0,101	0,074
-128,541	-169,401	0,073	-0,002
-127,526	-149,875	0,077	0,004
-126,512	-150,140	-0,038	0,002
-125,497	-200,000	0,014	0,124
-124,483	-191,383	0,020	0,000
-123,468	-44,302	0,028	-0,010
-122,453	-91,168	0,013	0,003
-121,439	-10,063	-0,033	0,016
-120,424	-151,094	-0,164	0,009
-119,410	-200,000	0,038	0,227
-118,395	800,000	0,014	-0,045
-117,380	-12,659	0,030	-0,014
-116,366	-200,000	-0,002	0,085
-115,351	754,846	-0,023	-0,046
-114,337	800,000	-0,002	-0,006
-113,322	800,000	-0,032	-0,065
-112,307	-28,764	0,029	-0,012
-111,293	-95,548	0,139	-0,027
-110,278	308,535	0,079	-0,108
-109,264	-200,000	-0,013	-0,092
-108,249	-82,101	0,020	-0,005
-107,234	237,743	-0,032	0,039
-106,220	-200,000	0,032	-0,124
-105,205	-200,000	0,032	-0,161
-104,191	141,304	0,086	-0,082
-103,176	-65,859	-0,108	-0,031
-102,162	72,858	0,092	-0,070
-101,147	800,000	0,020	0,057
-100,132	77,714	0,086	-0,067
-99,118	65,054	-0,072	-0,053
-98,103	-150,779	0,116	0,006
-97,089	-200,000	0,006	0,050
-96,074	-93,195	0,037	0,007
-95,059	-61,207	-0,040	0,012
-94,045	-200,000	-0,005	-0,198
-93,030	-141,540	-0,089	0,006
-92,016	3,519	-0,129	-0,068
-91,001	-200,000	0,010	-0,049
-89,986	-80,781	0,082	-0,020
-88,972	800,000	0,037	0,101
-87,957	265,871	0,032	0,041
-86,943	-200,000	-0,027	-0,119
-85,928	-8,442	-0,107	-0,052
-84,913	316,904	0,047	-0,065
-83,899	800,000	-0,040	-0,126
-82,884	-92,235	0,047	-0,010
-81,870	142,832	0,095	0,092
-80,855	164,282	0,100	-0,102
-79,840	-200,000	0,029	-0,095
-78,826	-200,000	-0,010	0,036
-77,811	261,636	0,014	-0,018
-76,797	-200,000	-0,018	-0,121
-75,782	344,679	0,068	-0,097
-74,767	-6,794	0,078	-0,039
-73,753	546,781	-0,030	0,053
-72,738	-200,000	-0,006	0,049
-71,724	800,000	-0,042	0,101
-70,709	800,000	0,028	0,079
-69,694	-200,000	-0,004	0,100
-68,680	101,544	0,033	0,028
-67,665	-200,000	-0,004	0,160
-66,651	-10,039	0,096	0,046
-65,636	-56,349	0,107	-0,034
-64,622	-200,000	0,036	-0,209
-63,607	-200,000	-0,009	-0,129
-62,592	-200,000	0,003	-0,076
-61,578	-200,000	-0,035	0,158
-60,563	180,220	-0,038	0,041
-59,549	-58,343	-0,067	0,021
-58,534	-164,211	-1,424	0,047
-57,519	542,095	-0,844	-1,464
-56,505	-200,000	-0,840	-4,506
-55,490	55,009	0,565	-0,395
-54,476	800,000	4,860	11,519
-53,461	-200,000	13,946	250,970
-52,446	-200,000	692,519	2236,600
-51,432	581,121	1621,017	2890,442
-50,417	117,786	1629,991	1454,012
-49,403	73,760	1284,459	974,332
-48,388	37,782	1021,371	655,907
-47,373	24,001	979,669	583,961
-46,359	23,213	969,159	575,100
-45,344	22,263	964,771	569,381
-44,330	22,227	963,327	568,390
-43,315	22,091	961,851	567,054
-42,300	22,031	960,935	566,297
-41,286	22,045	959,996	565,764
-40,271	22,016	959,175	565,165
-39,257	21,981	958,050	564,366
-38,242	21,922	957,079	563,581
-37,227	22,022	956,127	563,322
-36,213	22,023	955,292	562,810
-35,198	21,967	954,532	562,160
-34,184	22,035	953,802	561,928
-33,169	21,966	953,016	561,220
-32,154	21,985	952,203	560,778
-31,140	22,042	951,224	560,362
-30,125	22,075	950,473	560,003
-29,111	22,051	949,598	559,390
-28,096	22,002	949,088	558,910
-27,082	22,009	948,301	558,448
-26,067	21,987	947,661	557,979
-25,052	22,006	946,815	557,519
-24,038	22,063	946,035	557,220
-23,023	22,076	945,534	556,942
-22,009	22,096	944,838	556,576
-20,994	22,102	944,092	556,131
-19,979	21,996	943,638	555,504
-18,965	22,081	942,927	555,334
-17,950	22,104	942,165	554,937
-16,936	22,034	941,469	554,284
-15,921	21,954	940,890	553,667
-14,906	21,921	940,120	553,086
-13,892	21,931	939,514	552,739
-12,877	21,912	938,968	552,336
-11,863	21,863	938,339	551,791
-10,848	21,854	937,876	551,466
-9,833	21,978	937,514	551,625
-8,819	21,985	936,724	551,159
-7,804	21,945	936,016	550,594
-6,790	21,933	935,397	550,171
-5,775	21,948	934,720	549,798
-4,760	21,936	934,196	549,430
-3,746	21,879	933,669	548,919
-2,731	21,803	932,953	548,236
-1,717	21,713	932,319	547,560
-0,702	21,795	931,389	547,251
0,313	21,547	930,989	547,062
1,327	24,172	928,428	553,727
2,342	31,915	806,563	501,944
3,356	26,975	507,279	307,275
4,371	2,642	372,267	194,699
5,386	-0,298	355,222	182,179
6,400	-1,887	348,843	176,985
7,415	-2,937	345,971	174,262
8,429	-3,147	344,578	173,295
9,444	-3,036	343,575	172,907
10,459	-3,029	342,971	172,597
11,473	-2,987	342,280	172,282
12,488	-2,788	341,947	172,333
13,502	-2,853	341,322	171,926
14,517	-2,895	340,879	171,640
15,531	-3,071	340,058	171,005
16,546	-3,086	339,760	170,822
17,561	-3,061	339,228	170,568
18,575	-3,021	338,860	170,415
19,590	-3,183	338,605	170,082
20,604	-3,006	338,141	170,041
21,619	-3,163	337,769	169,655
22,634	-3,138	337,412	169,490
23,648	-3,124	337,094	169,332
24,663	-3,025	336,679	169,223
25,677	-3,086	336,394	168,993
26,692	-3,095	336,105	168,823
27,707	-3,251	335,862	168,505
28,721	-3,192	335,520	168,388
29,736	-3,112	335,070	168,239
30,750	-3,096	334,752	168,082
31,765	-3,195	334,683	167,918
32,780	-3,188	334,496	167,818
33,794	-3,091	333,885	167,608
34,809	-2,998	333,572	167,543
35,823	-3,184	333,336	167,196
36,838	-3,258	333,230	167,043
37,853	-3,224	332,905	166,904
38,867	-3,206	332,567	166,740
39,882	-3,130	332,297	166,677
40,896	-3,071	332,015	166,587
41,911	-3,100	331,753	166,409
42,926	-3,254	331,537	166,110
43,940	-3,167	331,094	165,973
44,955	-3,145	330,895	165,882
45,969	-3,405	330,832	165,541
46,984	-3,445	330,487	165,309
47,999	-3,401	330,116	165,157
49,013	-3,584	329,754	164,755
50,028	-3,591	329,517	164,614
51,042	-3,591	329,264	164,473
52,057	-3,772	329,107	164,175
53,071	-3,525	328,542	164,157
54,086	-3,706	328,613	163,974
55,101	-3,521	328,380	164,051
56,115	-3,290	328,126	164,170
57,130	-3,291	327,997	164,089
58,144	-3,163	327,670	164,055
59,159	-3,181	327,355	163,863
60,174	-3,062	327,069	163,838
61,188	-2,840	326,879	163,978
62,203	-3,066	326,648	163,593
63,217	-3,121	326,421	163,404
64,232	-3,096	326,100	163,256
65,247	-3,078	326,114	163,269
66,261	-2,849	325,650	163,278
67,276	-3,143	325,240	162,730
68,290	-3,106	324,981	162,628
69,305	-3,101	324,784	162,520
70,320	-3,316	324,527	162,138
71,334	-3,224	324,356	162,140
72,349	-2,976	324,068	162,256
73,363	-3,107	323,877	162,001
74,378	-2,951	323,604	162,023
75,393	-2,956	323,170	161,786
76,407	-3,123	323,150	161,577
77,422	-3,156	322,870	161,386
78,436	-3,042	322,660	161,393
79,451	-3,025	322,252	161,192
80,466	-3,243	322,154	160,888
81,480	-3,283	321,858	160,682
82,495	-3,190	321,387	160,536
83,509	-3,289	321,301	160,369
84,524	-3,353	321,135	160,202
85,539	-3,340	320,925	160,097
86,553	-3,454	320,541	159,767
87,568	-3,278	320,305	159,828
88,582	-3,370	320,053	159,587
89,597	-3,382	319,929	159,498
90,611	-3,266	319,682	159,487
91,626	-3,183	319,419	159,432
92,641	-3,100	319,106	159,352
93,655	-3,144	318,840	159,158
94,670	-3,181	318,615	158,991
95,684	-3,385	318,487	158,690
96,699	-3,109	318,239	158,852
97,714	-3,185	318,047	158,660
98,728	-3,326	317,862	158,400
99,743	-3,381	317,509	158,151
100,757	-3,499	317,271	157,891
101,772	-3,242	317,010	158,025
102,787	-3,236	316,850	157,937
103,801	-3,213	316,594	157,820
104,816	-3,150	316,430	157,793
105,830	-3,064	316,123	157,718
106,845	-3,145	315,992	157,552
107,860	-3,164	315,794	157,418
108,874	-3,215	315,488	157,197
109,889	-3,236	315,223	157,028
110,903	-3,185	314,964	156,940
111,918	-3,173	314,705	156,809
112,933	-3,228	314,604	156,687
113,947	-3,145	314,395	156,657
114,962	-2,979	314,047	156,648
115,976	-3,071	313,964	156,494
116,991	-3,098	313,760	156,350
118,006	-3,111	313,583	156,233
119,020	-3,129	313,419	156,118
120,035	-3,103	313,199	156,023
121,049	-3,197	312,861	155,741
122,064	-3,200	312,751	155,668
123,079	-3,268	312,386	155,400
124,093	-3,195	312,240	155,391
125,108	-3,336	311,957	155,087
126,122	-3,302	311,661	154,963
127,137	-3,438	311,483	154,715
128,151	-3,364	311,311	154,694
129,166	-3,177	310,996	154,723
130,181	-3,206	310,706	154,533
131,195	-3,419	310,501	154,193
132,210	-3,177	310,238	154,304
133,224	-3,048	310,097	154,356
134,239	-3,200	310,035	154,151
135,254	-3,147	309,775	154,064
136,268	-3,159	309,445	153,873
137,283	-3,368	309,221	153,528
138,297	-3,316	308,936	153,428
139,312	-3,334	308,850	153,352
140,327	-3,023	308,637	153,560
141,341	-3,034	308,552	153,492
142,356	-2,970	308,446	153,493
143,370	-2,869	308,170	153,448
144,385	-2,817	308,012	153,411
145,400	-2,882	307,640	153,143
146,414	-2,996	307,495	152,938
147,429	-2,946	307,367	152,913
148,443	-2,775	306,975	152,883
149,458	-2,834	306,860	152,750
150,473	-2,795	306,520	152,608
151,487	-2,900	306,408	152,429
152,502	-2,810	306,217	152,415
153,516	-2,949	306,113	152,205
154,531	-2,910	305,901	152,127
155,546	-2,956	305,637	151,933
156,560	-3,050	305,348	151,678
157,575	-3,157	305,052	151,408
158,589	-3,010	304,791	151,416
159,604	-2,873	304,586	151,443
160,619	-2,993	304,528	151,276
161,633	-2,863	304,309	151,289
162,648	-2,977	304,172	151,088
163,662	-2,872	303,965	151,081
164,677	-2,925	303,718	150,891
165,692	-2,949	303,755	150,871
166,706	-2,838	303,290	150,741
167,721	-2,898	303,028	150,535
168,735	-2,891	302,902	150,466
169,750	-2,773	302,713	150,481
170,764	-2,759	302,754	150,502
171,779	-2,804	302,544	150,337
172,794	-2,833	302,353	150,200
173,808	-2,991	301,983	149,840
174,823	-3,199	301,581	149,415
175,837	-3,224	301,293	149,233
176,852	-2,970	301,202	149,434
177,867	-2,985	301,249	149,429
178,881	-2,916	301,120	149,422
179,896	-2,844	300,844	149,345
180,910	-2,682	300,545	149,349
181,925	-2,783	300,317	149,119
182,940	-2,641	300,030	149,108
183,954	-2,768	299,945	148,924
184,969	-2,773	299,690	148,778
185,983	-2,891	299,681	148,640
186,998	-2,867	299,257	148,441
188,013	-3,023	299,144	148,213
189,027	-2,834	299,002	148,322
190,042	-2,685	298,685	148,302
191,056	-2,672	298,504	148,212
192,071	-2,479	298,488	148,386
193,086	-2,542	298,195	148,164
194,100	-2,706	298,023	147,899
195,115	-2,702	297,708	147,734
196,129	-2,701	297,564	147,650
197,144	-2,776	297,419	147,489
198,159	-2,657	297,072	147,424
199,173	-2,888	297,179	147,231
200,188	-2,602	296,681	147,259
201,202	-2,736	296,449	146,997
202,217	-3,317	296,237	146,296
203,232	-3,300	295,834	146,101
204,246	-2,918	295,646	146,377
205,261	-2,703	295,795	146,652
206,275	-2,799	295,454	146,374
207,290	-2,639	295,245	146,418
208,304	-2,989	295,153	146,010
209,319	-2,953	294,931	145,923
210,334	-2,825	294,706	145,926
211,348	-2,780	294,433	145,823
212,363	-2,981	294,387	145,587
213,377	-2,706	294,128	145,720
214,392	-2,859	293,965	145,473
215,407	-2,945	293,722	145,255
216,421	-3,047	293,470	145,016
217,436	-3,107	293,372	144,895
218,450	-2,996	293,173	144,894
219,465	-2,898	292,759	144,774
220,480	-2,754	292,667	144,858
221,494	-2,970	292,653	144,624
222,509	-2,821	292,454	144,660
223,523	-2,848	292,202	144,495
224,538	-2,682	291,965	144,529
225,553	-2,711	291,913	144,462
226,567	-2,634	291,659	144,399
227,582	-2,686	291,523	144,267
228,596	-2,685	291,384	144,187
229,611	-2,574	291,131	144,159
230,626	-2,665	290,896	143,940
231,640	-3,140	290,528	143,279
232,655	-3,259	290,351	143,063
233,669	-3,106	290,103	143,077
234,684	-3,118	289,870	142,938
235,699	-3,092	289,833	142,932
236,713	-3,184	289,790	142,808
237,728	-2,925	289,539	142,925
238,742	-2,872	289,232	142,812
239,757	-2,755	289,234	142,915
240,772	-2,905	288,983	142,631
241,786	-2,915	288,751	142,494
242,801	-2,968	288,678	142,394
243,815	-2,904	288,455	142,334
244,830	-3,052	288,237	142,070
245,844	-3,022	287,957	141,948
246,859	-3,080	287,856	141,829
247,874	-3,021	287,794	141,844
248,888	-2,831	287,417	141,829
249,903	-2,665	287,439	141,988
250,917	-2,955	287,285	141,619
251,932	-2,651	287,227	141,872
252,947	-1,894	287,253	142,604
253,961	-2,185	286,674	142,023
254,976	-1,437	287,251	143,020
255,990	1,343	288,186	146,167
257,005	2,226	288,286	147,060
258,020	3,518	288,641	148,479
259,034	3,536	288,433	148,377
260,049	3,449	288,237	148,179
261,063	3,289	287,941	147,859
262,078	3,601	287,885	148,117
263,093	4,140	287,954	148,661
264,107	4,074	287,815	148,512
265,122	4,107	287,598	148,418
266,136	4,359	287,440	148,567
267,151	4,183	287,198	148,259
268,166	4,217	286,924	148,136
269,180	4,156	286,753	147,977
270,195	4,055	286,521	147,747
271,209	4,227	286,438	147,856
272,224	4,130	286,208	147,631
273,239	3,723	285,952	147,096
274,253	3,730	285,864	147,044
275,268	4,267	285,758	147,491
276,282	4,124	285,523	147,219
277,297	4,427	285,320	147,391
278,312	4,820	285,169	147,675
279,326	4,523	285,076	147,330
280,341	4,201	284,803	146,869
281,355	4,098	284,411	146,556
282,370	3,872	284,308	146,274
283,384	3,978	284,233	146,324
284,399	3,999	284,159	146,293
285,414	3,831	283,744	145,906
286,428	3,842	283,743	145,903
287,443	3,567	283,437	145,472
288,457	3,490	283,101	145,214
289,472	3,726	282,985	145,365
290,487	3,668	282,888	145,247
291,501	3,386	282,680	144,860
292,516	3,418	282,192	144,628
293,530	3,276	282,241	144,506
294,545	3,760	282,127	144,891
295,560	3,910	282,013	144,961
296,574	3,535	281,779	144,475
297,589	3,696	281,612	144,528
298,603	4,040	281,489	144,776
299,618	4,236	281,315	144,857
300,633	3,920	281,118	144,446
301,647	3,933	280,951	144,360
302,662	3,747	280,791	144,090
303,676	3,742	280,367	143,855
304,691	3,424	279,994	143,354
305,706	3,292	279,874	143,156
306,720	3,447	279,699	143,198
307,735	3,307	279,644	143,027
308,749	3,599	279,481	143,203
309,764	3,735	279,367	143,259
310,779	3,390	279,131	142,804
311,793	3,394	278,835	142,643
312,808	3,292	278,722	142,477
313,822	3,477	278,440	142,493
314,837	3,361	278,325	142,313
315,852	3,130	278,211	142,028
316,866	3,377	277,841	142,056
317,881	3,349	277,794	141,992
318,895	3,371	277,696	141,951
319,910	3,244	277,328	141,632
320,925	3,218	277,089	141,474
321,939	3,430	277,139	141,682
322,954	3,664	277,130	141,881
323,968	3,659	276,798	141,694
324,983	3,635	276,671	141,594
325,997	3,700	276,456	141,532
327,012	3,831	276,219	141,518
328,027	3,694	276,063	141,300
329,041	3,566	275,996	141,135
330,056	3,761	275,735	141,168
331,070	3,553	275,660	140,926
332,085	3,337	275,504	140,635
333,100	3,492	275,203	140,611
334,114	3,487	274,910	140,444
335,129	3,360	274,798	140,258
336,143	3,595	274,650	140,386
337,158	3,694	274,664	140,471
338,173	3,750	274,381	140,364
339,187	3,596	274,280	140,160
340,202	3,678	274,058	140,108
341,216	3,804	273,908	140,134
342,231	3,326	273,869	139,666
343,246	3,492	273,715	139,726
344,260	3,450	273,355	139,492
345,275	3,563	273,367	139,589
346,289	3,899	273,296	139,845
347,304	3,857	273,074	139,681
348,319	3,612	272,786	139,299
349,333	3,899	272,448	139,373
350,348	3,981	272,451	139,437
351,362	4,033	272,364	139,428
352,377	3,989	272,082	139,231
353,392	3,845	271,957	139,024
354,406	3,912	271,866	139,026
355,421	191,534	1330,819	1408,504
356,435	154,724	1459,920	1408,614
