DTS Sentinel unit serial number:	SN410029Multiplexer serial number:	ORYXHardware model number:	OX2-SRSoftware version number:	ORYX F/W v4,00 Oryx Data Collector v3.7.2.0data status	okinstallation	B4 Nyhavnadifferential loss correction	single-endedforward channel	channel 2reverse channel	N/Adate	2023/12/19time	05:45:13forward acquisition time	300,00reverse acquisition time	0,00gamma	499,1914k internal	0,3126k external	0,3126temperature offset calibration	1,0000default loss term (dB/km)	0,3820temperature slope calibration	1,0000multiplexer offset coefficient	1,0000multiplexer slope coefficient	1,0000fibre end	0,00T internal ref (°C)	21,02T ext. ref 1 (°C)	6,25T ext. ref 2 (°C)	6,43length (m)	temperature (°C)	Stokes	anti-Stokes-744,400	-200,000	0,017	-0,136
-743,385	-49,907	-0,156	-0,055
-742,371	187,559	0,038	-0,042
-741,356	-107,717	-0,343	0,055
-740,342	245,594	0,039	-0,049
-739,327	30,871	-0,291	0,185
-738,312	146,937	0,076	-0,076
-737,298	-78,614	-0,227	-0,057
-736,283	-10,104	-0,068	-0,033
-735,269	-48,559	-0,111	-0,040
-734,254	29,430	-0,025	-0,016
-733,239	30,537	-0,301	-0,191
-732,225	-200,000	0,022	-0,095
-731,210	525,131	-0,045	-0,080
-730,196	143,844	0,032	0,032
-729,181	-200,000	0,003	0,057
-728,167	46,148	-0,022	0,015
-727,152	296,960	-0,119	-0,163
-726,137	711,589	-0,090	-0,177
-725,123	-37,361	-0,050	-0,020
-724,108	-200,000	-0,020	-0,130
-723,094	-200,000	0,000	-0,016
-722,079	-200,000	0,003	-0,148
-721,064	182,551	-0,070	0,077
-720,050	11,208	0,102	0,058
-719,035	-200,000	0,009	-0,046
-718,021	-200,000	0,024	0,092
-717,006	318,118	-0,083	-0,117
-715,991	-4,106	-0,126	-0,065
-714,977	569,855	0,077	-0,139
-713,962	482,352	0,036	-0,062
-712,948	-28,947	-0,156	-0,066
-711,933	800,000	-0,045	-0,097
-710,918	-200,000	-0,009	0,139
-709,904	442,990	-0,076	-0,125
-708,889	126,770	0,030	-0,028
-707,875	-200,000	0,008	-0,086
-706,860	-31,770	-0,075	-0,031
-705,845	-200,000	-0,023	-0,123
-704,831	-105,983	-0,043	-0,007
-703,816	27,670	-0,064	0,040
-702,802	66,855	-0,077	-0,058
-701,787	-29,078	-0,173	-0,073
-700,772	-200,000	-0,016	0,071
-699,758	91,197	0,053	-0,044
-698,743	800,000	-0,004	-0,008
-697,729	800,000	-0,037	0,089
-696,714	-104,759	0,034	-0,006
-695,699	204,258	-0,039	0,045
-694,685	-109,160	-0,162	0,025
-693,670	6,957	0,204	-0,112
-692,656	238,989	-0,057	0,070
-691,641	-172,748	0,056	-0,001
-690,627	217,324	0,023	0,028
-689,612	-17,518	0,141	-0,066
-688,597	800,000	-0,028	-0,076
-687,583	-200,000	0,026	-0,121
-686,568	113,976	-0,050	-0,046
-685,554	800,000	-0,041	-0,094
-684,539	-200,000	-0,021	-0,106
-683,524	-137,094	-0,024	-0,002
-682,510	800,000	0,057	0,154
-681,495	-183,116	-0,078	0,001
-680,481	800,000	0,040	0,107
-679,466	653,018	-0,043	-0,082
-678,451	-200,000	0,037	-0,127
-677,437	616,632	-0,023	-0,043
-676,422	-118,916	0,094	-0,012
-675,408	-200,000	-0,018	-0,079
-674,393	-38,700	0,094	0,037
-673,378	-124,926	-0,172	0,019
-672,364	800,000	-0,031	-0,088
-671,349	-30,489	0,080	0,034
-670,335	-200,000	0,003	-0,044
-669,320	100,039	0,080	-0,068
-668,305	-135,646	-0,028	-0,002
-667,291	86,480	-0,088	-0,072
-666,276	91,410	-0,071	0,060
-665,262	529,435	-0,077	-0,136
-664,247	-67,830	-0,087	0,025
-663,232	-171,283	0,065	-0,002
-662,218	112,809	0,017	0,015
-661,203	-200,000	-0,013	-0,087
-660,189	249,794	-0,035	0,044
-659,174	-145,997	0,099	0,006
-658,159	-31,567	0,024	-0,010
-657,145	306,385	-0,051	-0,071
-656,130	-91,561	0,068	-0,014
-655,116	-70,672	-0,074	-0,021
-654,101	59,841	-0,087	0,064
-653,086	-14,866	0,050	-0,024
-652,072	165,405	-0,093	0,098
-651,057	-115,794	-0,070	0,010
-650,043	246,018	0,030	0,038
-649,028	253,182	0,094	0,120
-648,014	800,000	-0,033	0,095
-646,999	-22,145	-0,082	-0,037
-645,984	100,581	0,039	0,034
-644,970	355,803	-0,103	-0,152
-643,955	-200,000	0,015	-0,097
-642,941	-68,617	0,071	-0,020
-641,926	-200,000	-0,001	-0,110
-640,911	-179,097	0,042	0,001
-639,897	456,979	0,103	0,171
-638,882	-112,946	0,064	0,009
-637,868	800,000	-0,050	-0,144
-636,853	-51,098	0,022	-0,008
-635,838	303,174	-0,064	0,089
-634,824	40,929	-0,105	-0,070
-633,809	722,119	-0,029	0,058
-632,795	191,962	0,016	-0,017
-631,780	64,144	0,101	-0,075
-630,765	-72,902	-0,130	-0,035
-629,751	-160,401	-0,051	-0,002
-628,736	800,000	-0,015	-0,047
-627,722	800,000	-0,053	0,112
-626,707	-82,190	0,071	0,017
-625,692	-200,000	0,011	-0,162
-624,678	-62,063	-0,051	0,016
-623,663	497,997	-0,023	-0,040
-622,649	109,488	-0,143	-0,127
-621,634	-200,000	-0,009	-0,132
-620,619	6,948	-0,066	-0,036
-619,605	688,427	0,042	0,081
-618,590	-200,000	0,023	-0,085
-617,576	-38,334	0,016	-0,006
-616,561	-200,000	0,019	-0,068
-615,546	-200,000	-0,005	-0,086
-614,532	800,000	-0,043	-0,122
-613,517	149,885	-0,021	-0,021
-612,503	-91,575	-0,058	-0,012
-611,488	800,000	0,039	-0,086
-610,474	-200,000	-0,015	0,140
-609,459	-200,000	0,026	-0,112
-608,444	78,069	0,038	-0,030
-607,430	26,721	-0,047	0,029
-606,415	30,745	0,090	-0,057
-605,401	-17,891	0,080	-0,037
-604,386	-113,921	-0,185	0,026
-603,371	-90,412	0,050	0,011
-602,357	53,145	-0,014	0,010
-601,342	-95,673	0,130	0,026
-600,328	-54,615	0,040	-0,013
-599,313	214,999	0,030	-0,035
-598,298	-200,000	0,007	-0,212
-597,284	324,991	-0,053	0,075
-596,269	-200,000	-0,034	0,116
-595,255	8,921	-0,123	0,068
-594,240	586,562	0,033	-0,060
-593,225	-77,958	-0,046	-0,012
-592,211	132,749	0,038	-0,037
-591,196	129,911	-0,031	-0,029
-590,182	800,000	0,019	0,041
-589,167	-57,114	0,085	-0,028
-588,152	800,000	-0,038	0,098
-587,138	-123,198	-0,154	-0,018
-586,123	-200,000	0,015	-0,093
-585,109	566,902	-0,033	-0,060
-584,094	-26,691	0,066	0,028
-583,079	800,000	0,018	-0,055
-582,065	128,199	-0,051	0,048
-581,050	800,000	-0,036	0,101
-580,036	-200,000	0,006	0,124
-579,021	483,648	0,044	-0,075
-578,006	139,389	0,107	-0,104
-576,992	800,000	0,047	-0,111
-575,977	-29,332	0,147	0,062
-574,963	-102,941	0,079	-0,014
-573,948	-84,457	-0,043	0,010
-572,934	47,574	-0,014	-0,010
-571,919	-200,000	-0,027	-0,115
-570,904	-200,000	-0,007	-0,178
-569,890	-104,224	0,066	0,011
-568,875	-200,000	-0,001	-0,071
-567,861	-163,641	0,059	-0,002
-566,846	143,997	0,065	0,064
-565,831	-89,269	0,129	-0,028
-564,817	800,000	0,027	0,086
-563,802	48,242	-0,103	-0,071
-562,788	-123,989	-0,030	-0,003
-561,773	256,760	-0,079	-0,100
-560,758	-45,444	0,125	0,045
-559,744	66,232	-0,085	0,064
-558,729	146,792	0,057	0,056
-557,715	23,315	-0,043	0,026
-556,700	-200,000	0,025	-0,144
-555,685	-65,567	0,052	-0,015
-554,671	800,000	0,011	0,032
-553,656	217,724	-0,073	0,087
-552,642	-200,000	-0,020	0,145
-551,627	79,821	-0,054	-0,043
-550,612	-148,513	0,172	0,010
-549,598	397,011	-0,067	-0,103
-548,583	-149,963	-0,106	0,006
-547,569	-200,000	-0,007	0,023
-546,554	-71,254	-0,074	0,020
-545,539	-200,000	0,041	0,133
-544,525	-33,926	0,035	-0,014
-543,510	-200,000	0,024	-0,089
-542,496	236,917	-0,103	-0,126
-541,481	-1,433	-0,085	-0,044
-540,466	-200,000	0,027	0,091
-539,452	-84,586	0,100	0,023
-538,437	-200,000	0,010	-0,223
-537,423	-200,000	-0,015	-0,073
-536,408	800,000	-0,028	0,067
-535,393	47,221	-0,139	-0,096
-534,379	-200,000	-0,009	0,070
-533,364	-200,000	-0,012	0,091
-532,350	-69,071	-0,102	-0,029
-531,335	71,557	-0,054	0,041
-530,321	-200,000	0,005	0,049
-529,306	-200,000	-0,009	-0,137
-528,291	682,002	-0,022	-0,042
-527,277	-177,730	-0,151	0,003
-526,262	231,349	0,053	0,065
-525,248	461,377	0,021	0,035
-524,233	-166,394	0,045	-0,001
-523,218	-142,485	0,119	-0,008
-522,204	-141,856	-0,165	0,012
-521,189	-200,000	0,004	0,015
-520,175	-141,493	-0,082	-0,006
-519,160	-200,000	-0,006	-0,127
-518,145	7,495	-0,052	-0,029
-517,131	-101,562	0,025	0,004
-516,116	-200,000	-0,020	-0,097
-515,102	-200,000	-0,018	-0,089
-514,087	352,190	0,010	-0,015
-513,072	108,808	-0,076	0,067
-512,058	58,232	-0,139	-0,101
-511,043	-115,675	0,052	0,007
-510,029	-44,949	0,131	0,048
-509,014	-200,000	0,003	0,094
-507,999	49,412	-0,017	0,011
-506,985	598,700	-0,036	-0,066
-505,970	-98,826	0,131	-0,024
-504,956	-79,942	-0,174	0,043
-503,941	-13,111	-0,081	0,039
-502,926	-77,727	0,150	0,038
-501,912	-200,000	-0,009	0,044
-500,897	49,846	-0,038	-0,026
-499,883	-200,000	-0,047	-0,199
-498,868	-106,233	-0,163	-0,027
-497,853	573,931	-0,017	0,031
-496,839	-200,000	0,001	-0,021
-495,824	-54,305	-0,072	0,024
-494,810	229,609	-0,011	0,014
-493,795	-200,000	-0,004	-0,044
-492,781	197,590	-0,047	0,053
-491,766	-200,000	0,019	-0,219
-490,751	800,000	-0,046	-0,132
-489,737	-200,000	-0,015	-0,079
-488,722	-114,474	0,068	0,010
-487,708	67,010	0,047	0,035
-486,693	-31,100	0,203	0,084
-485,678	-147,692	-0,061	-0,004
-484,664	800,000	-0,033	-0,093
-483,649	103,871	0,008	0,007
-482,635	800,000	0,019	-0,054
-481,620	86,415	0,044	-0,035
-480,605	-30,276	0,085	0,035
-479,591	-200,000	-0,034	0,150
-478,576	74,406	-0,030	0,023
-477,562	726,097	-0,003	0,006
-476,547	-200,000	0,019	-0,072
-475,532	-134,306	0,053	0,005
-474,518	78,565	0,054	-0,042
-473,503	-200,000	0,009	0,099
-472,489	-87,368	0,086	0,019
-471,474	-56,963	-0,079	0,026
-470,459	356,930	0,040	-0,059
-469,445	234,359	-0,025	-0,031
-468,430	800,000	-0,038	-0,084
-467,416	-200,000	-0,010	0,098
-466,401	763,853	0,048	0,097
-465,386	99,689	0,072	0,061
-464,372	-144,974	-0,091	-0,006
-463,357	384,354	0,053	0,081
-462,343	49,047	0,027	0,019
-461,328	-61,071	-0,083	0,026
-460,313	133,338	-0,040	-0,038
-459,299	-95,634	0,133	-0,026
-458,284	-200,000	0,033	0,168
-457,270	-37,770	-0,074	-0,029
-456,255	-75,856	0,099	0,026
-455,241	46,619	0,063	0,043
-454,226	800,000	-0,034	-0,099
-453,211	800,000	-0,037	-0,075
-452,197	503,283	0,060	0,102
-451,182	630,924	0,083	0,156
-450,168	-36,812	0,071	-0,028
-449,153	81,511	-0,093	-0,074
-448,138	116,079	-0,088	-0,080
-447,124	-108,426	0,046	-0,007
-446,109	-30,784	0,058	-0,024
-445,095	82,994	0,049	-0,039
-444,080	-130,187	0,066	-0,007
-443,065	310,944	-0,051	0,071
-442,051	-200,000	0,008	0,052
-441,036	-66,586	0,008	0,002
-440,022	-76,460	-0,091	0,023
-439,007	83,493	0,054	0,043
-437,992	-200,000	0,002	0,037
-436,978	-70,296	0,015	-0,004
-435,963	-200,000	0,006	0,066
-434,949	559,210	-0,024	-0,042
-433,934	-79,127	0,163	-0,040
-432,919	-200,000	-0,008	0,084
-431,905	96,304	0,023	-0,019
-430,890	747,163	0,091	0,181
-429,876	-122,843	0,014	0,002
-428,861	-10,201	0,138	0,067
-427,846	77,024	0,051	-0,039
-426,832	356,024	0,028	0,042
-425,817	-27,637	0,175	-0,074
-424,803	176,480	-0,059	-0,063
-423,788	1,439	-0,070	0,037
-422,773	-113,028	0,044	-0,006
-421,759	800,000	0,044	0,115
-420,744	800,000	0,021	-0,058
-419,730	-4,715	0,106	-0,054
-418,715	-16,053	0,130	-0,060
-417,701	-67,107	0,107	-0,031
-416,686	11,219	0,081	0,045
-415,671	-155,536	0,049	0,002
-414,657	-68,204	0,048	-0,014
-413,642	140,585	0,034	0,033
-412,628	-124,656	-0,129	-0,015
-411,613	-147,658	-0,038	0,002
-410,598	38,934	-0,054	0,036
-409,584	-147,717	-0,134	0,008
-408,569	-84,164	-0,044	-0,010
-407,555	800,000	0,037	0,080
-406,540	26,878	-0,058	-0,035
-405,525	800,000	-0,021	0,046
-404,511	-200,000	0,014	-0,093
-403,496	-123,397	-0,103	-0,012
-402,482	283,809	0,070	0,093
-401,467	800,000	-0,031	-0,097
-400,452	70,367	-0,076	0,058
-399,438	298,101	-0,059	0,080
-398,423	-200,000	0,007	-0,050
-397,409	-191,565	-0,080	0,001
-396,394	-195,531	-0,115	-0,001
-395,379	-187,877	0,113	-0,001
-394,365	184,411	0,114	-0,124
-393,350	48,166	0,022	0,015
-392,336	-200,000	0,019	0,129
-391,321	-153,886	-0,044	0,002
-390,306	-118,019	-0,067	0,009
-389,292	-200,000	-0,007	-0,058
-388,277	425,272	-0,023	0,037
-387,263	-200,000	0,054	0,186
-386,248	-200,000	0,001	-0,035
-385,233	-105,370	0,054	0,009
-384,219	-101,892	-0,143	0,025
-383,204	-166,566	-0,114	-0,003
-382,190	800,000	-0,060	-0,156
-381,175	10,567	-0,077	-0,043
-380,160	-169,782	-0,039	0,001
-379,146	-64,177	-0,138	-0,041
-378,131	731,841	0,021	0,042
-377,117	-14,340	0,005	0,003
-376,102	677,465	-0,014	-0,026
-375,088	800,000	0,002	-0,006
-374,073	122,043	0,062	0,057
-373,058	2,301	-0,035	0,019
-372,044	58,506	0,113	-0,081
-371,029	-60,507	-0,099	0,031
-370,015	303,611	0,076	0,103
-369,000	-5,805	0,009	0,005
-367,985	26,060	-0,093	-0,057
-366,971	544,144	-0,027	-0,048
-365,956	-169,991	0,162	0,004
-364,942	-200,000	-0,010	-0,034
-363,927	-61,916	-0,117	0,036
-362,912	800,000	-0,039	0,106
-361,898	800,000	-0,023	0,074
-360,883	800,000	0,034	-0,078
-359,869	426,753	-0,038	0,060
-358,854	-81,280	0,144	-0,035
-357,839	800,000	0,044	0,100
-356,825	405,323	0,007	-0,011
-355,810	-200,000	0,004	-0,056
-354,796	447,874	0,035	0,056
-353,781	156,370	0,042	0,043
-352,766	100,425	0,047	0,040
-351,752	-10,616	0,031	0,015
-350,737	624,447	0,106	0,197
-349,723	-200,000	-0,002	0,033
-348,708	-200,000	0,025	0,083
-347,693	-200,000	-0,028	-0,114
-346,679	-200,000	0,028	-0,094
-345,664	-200,000	0,002	-0,069
-344,650	472,983	0,030	-0,050
-343,635	-200,000	-0,011	0,124
-342,620	-200,000	0,013	-0,043
-341,606	-74,550	0,068	0,018
-340,591	800,000	-0,026	0,061
-339,577	56,154	-0,182	-0,129
-338,562	363,851	0,027	0,039
-337,548	-62,209	0,049	-0,015
-336,533	-38,440	0,164	-0,063
-335,518	800,000	0,070	0,211
-334,504	55,009	-0,064	-0,045
-333,489	367,788	0,036	-0,054
-332,475	800,000	0,032	-0,082
-331,460	-34,160	-0,035	0,014
-330,445	65,479	-0,084	-0,062
-329,431	13,259	-0,079	0,045
-328,416	650,832	-0,020	0,038
-327,402	69,291	-0,065	0,049
-326,387	38,098	0,096	0,063
-325,372	-47,463	-0,078	-0,028
-324,358	800,000	0,009	-0,025
-323,343	696,686	0,021	-0,041
-322,329	339,014	0,062	0,089
-321,314	-112,074	-0,064	-0,009
-320,299	98,393	-0,061	-0,052
-319,285	-105,451	-0,057	0,009
-318,270	-108,186	-0,089	-0,014
-317,256	-200,000	0,021	-0,168
-316,241	-200,000	-0,034	-0,178
-315,226	-200,000	-0,009	0,062
-314,212	-71,963	0,111	0,030
-313,197	-80,275	0,070	-0,017
-312,183	-67,170	0,086	0,025
-311,168	-58,039	-0,084	-0,027
-310,153	-78,175	0,102	-0,026
-309,139	14,464	-0,160	-0,091
-308,124	261,786	0,029	0,037
-307,110	21,436	-0,039	0,023
-306,095	-167,456	0,078	-0,002
-305,080	-200,000	0,015	0,189
-304,066	-58,633	-0,073	0,023
-303,051	-200,000	0,071	-0,000
-302,037	-11,455	-0,026	0,013
-301,022	418,545	0,059	0,092
-300,008	-61,176	0,110	0,034
-298,993	-99,635	-0,079	-0,014
-297,978	-176,597	-0,119	0,002
-296,964	-77,643	-0,041	0,010
-295,949	800,000	-0,052	-0,133
-294,935	348,856	0,071	-0,102
-293,920	-32,457	0,113	0,046
-292,905	-200,000	0,000	0,040
-291,891	-25,979	0,103	0,044
-290,876	-200,000	-0,006	0,038
-289,862	-200,000	-0,003	0,010
-288,847	-200,000	0,013	0,083
-287,832	800,000	0,019	0,057
-286,818	-200,000	-0,007	-0,058
-285,803	-179,477	0,147	0,002
-284,789	-200,000	-0,010	0,120
-283,774	81,555	-0,122	0,096
-282,759	257,557	-0,025	0,032
-281,745	190,120	-0,055	-0,060
-280,730	800,000	0,020	0,055
-279,716	-200,000	0,011	-0,047
-278,701	-200,000	0,013	0,061
-277,686	19,181	-0,044	-0,026
-276,672	237,851	-0,055	-0,067
-275,657	276,315	-0,009	0,012
-274,643	144,642	-0,100	-0,098
-273,628	197,728	-0,137	-0,153
-272,613	210,052	0,067	0,077
-271,599	-1,006	-0,083	-0,043
-270,584	-179,332	0,188	0,003
-269,570	55,296	-0,055	0,039
-268,555	774,991	0,038	0,077
-267,540	-49,985	0,126	-0,043
-266,526	-24,342	0,084	-0,037
-265,511	140,248	-0,046	0,045
-264,497	81,201	0,082	0,065
-263,482	58,152	-0,065	0,046
-262,467	428,572	0,026	0,041
-261,453	800,000	0,044	0,116
-260,438	-39,321	-0,076	0,029
-259,424	105,515	-0,048	0,041
-258,409	800,000	-0,048	-0,103
-257,395	800,000	-0,016	0,038
-256,380	800,000	0,037	0,082
-255,365	174,555	0,031	0,033
-254,351	0,795	-0,100	-0,052
-253,336	800,000	-0,024	0,069
-252,322	-200,000	-0,003	0,128
-251,307	270,609	0,064	-0,082
-250,292	-98,870	0,010	0,002
-249,278	-61,367	0,108	0,033
-248,263	-200,000	-0,001	0,022
-247,249	-91,699	-0,164	0,034
-246,234	-176,125	0,106	0,002
-245,219	747,461	-0,046	0,091
-244,205	-20,556	-0,084	-0,037
-243,190	184,150	-0,010	0,011
-242,176	-200,000	0,024	-0,100
-241,161	-106,026	0,090	-0,015
-240,146	177,257	0,035	0,038
-239,132	689,974	0,020	0,038
-238,117	549,878	0,054	-0,096
-237,103	-133,664	0,116	0,010
-236,088	-40,870	0,039	0,015
-235,073	481,950	0,061	0,101
-234,059	-54,066	-0,067	-0,022
-233,044	-145,739	0,092	0,006
-232,030	-40,052	0,023	-0,009
-231,015	251,348	-0,043	0,054
-230,000	-144,549	-0,038	-0,003
-228,986	353,214	0,053	0,077
-227,971	636,586	0,045	-0,083
-226,957	-20,181	0,111	-0,050
-225,942	82,792	0,061	-0,048
-224,927	4,071	-0,143	0,076
-223,913	-100,819	0,019	-0,003
-222,898	800,000	0,023	0,067
-221,884	610,786	0,056	0,103
-220,869	96,946	0,049	0,041
-219,855	247,865	0,091	0,113
-218,840	-34,512	-0,126	0,050
-217,825	800,000	-0,011	-0,026
-216,811	-58,189	-0,032	-0,010
-215,796	-200,000	-0,025	-0,168
-214,782	-99,753	-0,126	0,023
-213,767	485,408	-0,028	-0,047
-212,752	-61,019	0,084	-0,026
-211,738	-99,282	0,197	-0,036
-210,723	800,000	-0,022	0,050
-209,709	-114,059	-0,172	0,024
-208,694	-58,667	-0,212	-0,067
-207,679	74,961	0,066	0,051
-206,665	-200,000	-0,018	0,106
-205,650	-200,000	0,004	0,021
-204,636	-200,000	0,010	-0,061
-203,621	-200,000	-0,008	0,097
-202,606	-132,606	0,058	-0,005
-201,592	2,008	-0,151	-0,079
-200,577	505,854	-0,013	-0,022
-199,563	155,678	0,067	0,067
-198,548	-200,000	0,027	-0,105
-197,533	265,160	-0,042	-0,054
-196,519	-194,666	0,169	-0,001
-195,504	-200,000	0,004	-0,029
-194,490	78,149	-0,050	0,038
-193,475	-11,463	0,103	0,049
-192,460	-105,292	-0,046	0,008
-191,446	57,230	0,071	-0,050
-190,431	-2,687	0,113	-0,057
-189,417	-81,914	0,125	0,030
-188,402	800,000	0,055	0,124
-187,387	-56,802	-0,128	-0,041
-186,373	-38,755	-0,115	-0,044
-185,358	-82,498	0,082	0,019
-184,344	-54,179	0,107	0,035
-183,329	-200,000	0,007	0,079
-182,315	800,000	0,021	-0,049
-181,300	78,505	-0,120	0,093
-180,285	800,000	-0,040	-0,089
-179,271	-200,000	-0,027	-0,103
-178,256	242,689	-0,037	0,045
-177,242	587,052	0,016	-0,029
-176,227	-200,000	-0,008	0,062
-175,212	-200,000	0,001	-0,010
-174,198	277,014	0,024	0,031
-173,183	-200,000	0,012	0,054
-172,169	-200,000	-0,007	-0,049
-171,154	177,090	0,089	0,094
-170,139	800,000	-0,020	0,041
-169,125	311,408	0,013	0,018
-168,110	623,012	-0,078	0,143
-167,096	52,755	-0,033	-0,023
-166,081	800,000	-0,012	-0,036
-165,066	-86,310	-0,101	0,022
-164,052	-21,239	-0,038	0,017
-163,037	-28,061	-0,026	0,011
-162,023	-200,000	0,035	0,225
-161,008	800,000	-0,006	-0,015
-159,993	53,322	0,029	0,020
-158,979	-149,485	-0,043	0,002
-157,964	102,579	-0,102	-0,087
-156,950	19,877	0,055	-0,032
-155,935	-46,014	-0,105	0,037
-154,920	41,059	-0,022	-0,014
-153,906	112,525	-0,147	-0,130
-152,891	-19,389	-0,187	-0,084
-151,877	565,604	-0,050	0,089
-150,862	-145,504	-0,101	0,007
-149,847	204,147	-0,027	0,031
-148,833	800,000	0,027	-0,078
-147,818	-32,956	0,050	-0,020
-146,804	333,938	-0,066	-0,093
-145,789	57,214	-0,027	-0,019
-144,775	-200,000	-0,016	-0,091
-143,760	-200,000	-0,022	0,072
-142,745	-200,000	0,002	-0,041
-141,731	-200,000	-0,016	-0,106
-140,716	-200,000	-0,007	0,106
-139,702	-28,817	0,123	0,051
-138,687	-200,000	0,017	-0,135
-137,672	438,251	-0,059	-0,094
-136,658	-200,000	-0,035	-0,129
-135,643	800,000	0,029	0,068
-134,629	444,812	-0,105	0,168
-133,614	64,514	0,089	0,065
-132,599	35,805	0,084	0,053
-131,585	-200,000	-0,009	0,119
-130,570	105,612	-0,064	0,055
-129,556	-4,694	-0,104	-0,052
-128,541	-48,303	-0,101	0,035
-127,526	529,909	0,065	-0,113
-126,512	-96,306	0,140	-0,027
-125,497	54,735	0,098	-0,069
-124,483	800,000	-0,047	0,118
-123,468	4,633	-0,086	-0,046
-122,453	228,578	0,032	0,038
-121,439	-200,000	0,008	-0,101
-120,424	110,749	-0,092	-0,080
-119,410	244,488	0,044	0,054
-118,395	314,235	0,043	0,059
-117,380	-116,314	0,035	-0,005
-116,366	10,290	0,014	-0,008
-115,351	800,000	0,009	0,022
-114,337	390,094	-0,026	-0,039
-113,322	-73,695	-0,107	0,028
-112,307	-200,000	-0,001	-0,058
-111,293	800,000	-0,014	0,041
-110,278	-200,000	0,018	-0,094
-109,264	550,675	-0,050	0,087
-108,249	57,064	0,080	-0,056
-107,234	-200,000	-0,043	-0,144
-106,220	123,696	0,019	-0,018
-105,205	45,793	0,030	-0,020
-104,191	-72,207	0,039	0,011
-103,176	60,314	-0,067	0,048
-102,162	698,514	0,035	-0,067
-101,147	-66,939	0,020	-0,006
-100,132	800,000	-0,018	0,036
-99,118	39,912	-0,034	0,022
-98,103	-7,802	0,162	-0,079
-97,089	-26,962	0,113	0,048
-96,074	22,268	0,094	-0,056
-95,059	-200,000	-0,026	-0,146
-94,045	-116,662	0,049	0,006
-93,030	270,751	0,011	0,015
-92,016	-30,195	-0,020	0,008
-91,001	-200,000	-0,015	0,092
-89,986	-71,403	-0,034	0,009
-88,972	140,924	0,030	0,029
-87,957	-200,000	-0,014	-0,140
-86,943	180,665	-0,031	-0,033
-85,928	669,371	-0,010	-0,019
-84,913	319,934	0,126	-0,173
-83,899	241,962	0,038	0,046
-82,884	-57,047	0,091	0,029
-81,870	800,000	-0,037	0,092
-80,855	141,082	0,044	0,042
-79,840	-200,000	-0,001	-0,027
-78,826	800,000	0,024	0,069
-77,811	-41,487	0,139	0,052
-76,797	-146,295	-0,088	0,006
-75,782	453,078	0,006	0,009
-74,767	410,248	-0,058	0,090
-73,753	-200,000	-0,007	0,038
-72,738	800,000	0,037	0,109
-71,724	-200,000	0,005	-0,072
-70,709	-200,000	-0,030	0,102
-69,694	107,751	0,018	0,016
-68,680	338,053	-0,086	-0,122
-67,665	164,737	0,090	-0,092
-66,651	212,277	0,052	-0,059
-65,636	107,328	-0,097	0,084
-64,622	138,855	-0,046	-0,044
-63,607	240,009	-0,148	-0,179
-62,592	-200,000	0,002	0,054
-61,578	-11,597	0,042	0,020
-60,563	800,000	0,055	0,145
-59,549	-200,000	0,004	0,079
-58,534	-116,602	-1,306	-0,172
-57,519	639,058	-0,811	-1,502
-56,505	-200,000	-0,821	-4,357
-55,490	-76,352	0,542	-0,137
-54,476	800,000	5,077	11,849
-53,461	-200,000	14,499	261,275
-52,446	-200,000	695,528	2277,736
-51,432	603,130	1621,998	2936,257
-50,417	118,546	1630,412	1458,640
-49,403	76,387	1283,752	984,824
-48,388	37,375	1021,612	654,972
-47,373	23,299	980,881	582,620
-46,359	22,454	970,234	573,505
-45,344	21,237	965,903	566,951
-44,330	21,268	964,329	566,108
-43,315	21,075	963,017	564,687
-42,300	21,103	961,903	564,103
-41,286	21,084	960,803	563,371
-40,271	21,112	959,598	562,736
-39,257	21,068	958,862	562,138
-38,242	20,997	958,192	561,491
-37,227	21,072	957,203	561,135
-36,213	21,031	956,246	560,419
-35,198	21,003	955,378	559,796
-34,184	21,094	954,901	559,790
-33,169	20,943	954,033	558,770
-32,154	21,091	953,021	558,633
-31,140	21,060	952,173	558,012
-30,125	21,099	951,387	557,656
-29,111	21,054	950,438	556,934
-28,096	20,982	949,989	556,418
-27,082	21,064	949,068	556,117
-26,067	21,041	948,277	555,559
-25,052	21,038	947,672	555,171
-24,038	21,110	946,913	554,935
-23,023	21,049	946,282	554,351
-22,009	21,141	945,641	554,245
-20,994	21,061	945,162	553,687
-19,979	21,061	944,506	553,280
-18,965	21,041	943,961	552,875
-17,950	21,086	943,194	552,548
-16,936	21,033	942,597	552,008
-15,921	21,078	941,692	551,600
-14,906	20,926	941,228	550,823
-13,892	20,998	940,483	550,593
-12,877	20,999	939,877	550,221
-11,863	20,876	939,378	549,516
-10,848	20,890	938,821	549,214
-9,833	21,021	938,366	549,340
-8,819	21,017	937,722	548,928
-7,804	20,971	937,005	548,341
-6,790	20,936	936,452	547,885
-5,775	20,974	935,897	547,658
-4,760	20,936	935,334	547,186
-3,746	20,887	934,862	546,734
-2,731	20,753	933,988	545,779
-1,717	20,700	933,294	545,184
-0,702	20,745	932,642	544,926
0,313	20,554	932,001	544,771
1,327	23,005	929,808	551,140
2,342	30,753	806,698	499,118
3,356	25,628	507,792	305,423
4,371	1,491	373,954	194,190
5,386	-1,533	357,093	181,702
6,400	-2,931	350,864	176,828
7,415	-3,673	348,124	174,541
8,429	-3,735	346,659	173,717
9,444	-3,774	345,834	173,241
10,459	-3,824	345,078	172,788
11,473	-3,689	344,262	172,524
12,488	-3,703	343,910	172,317
13,502	-3,728	343,174	171,903
14,517	-3,818	342,856	171,622
15,531	-3,674	342,135	171,415
16,546	-3,883	341,891	171,031
17,561	-3,746	341,380	170,922
18,575	-3,842	341,095	170,651
19,590	-3,847	340,709	170,436
20,604	-3,703	340,336	170,404
21,619	-3,946	339,898	169,885
22,634	-3,801	339,456	169,819
23,648	-3,869	339,151	169,572
24,663	-3,663	338,755	169,598
25,677	-3,637	338,581	169,526
26,692	-3,741	338,147	169,173
27,707	-3,716	337,992	169,109
28,721	-3,712	337,534	168,870
29,736	-3,812	337,278	168,611
30,750	-3,806	337,019	168,472
31,765	-3,816	336,737	168,305
32,780	-3,665	336,456	168,325
33,794	-3,942	336,232	167,876
34,809	-3,829	335,863	167,808
35,823	-3,870	335,677	167,654
36,838	-3,796	335,309	167,540
37,853	-3,811	334,980	167,343
38,867	-3,859	334,743	167,154
39,882	-3,709	334,294	167,088
40,896	-3,815	334,259	166,933
41,911	-3,788	333,852	166,747
42,926	-3,652	333,520	166,721
43,940	-3,898	333,368	166,349
44,955	-3,694	332,844	166,306
45,969	-3,715	332,907	166,298
46,984	-3,765	332,717	166,131
47,999	-3,980	332,429	165,728
49,013	-3,743	332,176	165,858
50,028	-3,669	331,828	165,753
51,042	-3,815	331,635	165,475
52,057	-3,785	331,306	165,331
53,071	-3,907	331,126	165,087
54,086	-3,896	330,835	164,940
55,101	-3,747	330,515	164,936
56,115	-3,900	330,225	164,603
57,130	-3,671	330,056	164,763
58,144	-3,622	329,602	164,577
59,159	-3,900	329,641	164,268
60,174	-3,830	329,107	164,065
61,188	-3,681	328,777	164,054
62,203	-3,868	328,693	163,787
63,217	-3,669	328,476	163,889
64,232	-3,882	328,307	163,550
65,247	-3,686	327,921	163,563
66,261	-3,754	327,639	163,331
67,276	-3,763	327,420	163,198
68,290	-3,813	327,222	163,028
69,305	-3,728	326,940	162,968
70,320	-3,728	326,643	162,806
71,334	-3,581	326,432	162,851
72,349	-3,773	326,210	162,510
73,363	-3,731	325,935	162,407
74,378	-3,897	325,832	162,155
75,393	-3,860	325,302	161,919
76,407	-3,672	325,097	162,011
77,422	-3,762	324,865	161,780
78,436	-3,694	324,597	161,708
79,451	-3,618	324,250	161,605
80,466	-3,650	323,985	161,423
81,480	-3,730	323,834	161,245
82,495	-3,845	323,464	160,920
83,509	-3,794	323,423	160,941
84,524	-3,627	323,155	160,978
85,539	-3,818	322,864	160,608
86,553	-3,818	322,617	160,470
87,568	-3,783	322,519	160,446
88,582	-3,832	322,106	160,173
89,597	-3,823	321,816	160,024
90,611	-3,700	321,751	160,113
91,626	-3,640	321,394	159,986
92,641	-3,608	321,172	159,897
93,655	-3,752	320,999	159,638
94,670	-3,801	320,658	159,401
95,684	-3,743	320,553	159,399
96,699	-3,843	320,360	159,178
97,714	-3,681	319,977	159,152
98,728	-3,682	319,840	159,068
99,743	-3,658	319,508	158,915
100,757	-3,781	319,422	158,723
101,772	-3,480	318,941	158,798
102,787	-3,679	318,824	158,509
103,801	-3,758	318,577	158,286
104,816	-3,596	318,380	158,351
105,830	-3,597	318,188	158,240
106,845	-3,903	317,992	157,796
107,860	-3,806	317,729	157,756
108,874	-3,624	317,282	157,717
109,889	-3,754	317,166	157,505
110,903	-3,652	316,887	157,463
111,918	-3,688	316,637	157,286
112,933	-3,703	316,486	157,180
113,947	-3,716	316,246	157,033
114,962	-3,711	316,101	156,953
115,976	-3,694	315,944	156,880
116,991	-3,786	315,699	156,644
118,006	-3,703	315,292	156,518
119,020	-3,796	315,282	156,399
120,035	-3,735	315,114	156,367
121,049	-3,712	314,835	156,238
122,064	-3,677	314,619	156,156
123,079	-3,598	314,319	156,077
124,093	-3,868	314,019	155,626
125,108	-3,810	313,900	155,615
126,122	-3,772	313,610	155,498
127,137	-3,607	313,309	155,511
128,151	-3,591	313,079	155,399
129,166	-3,600	312,947	155,311
130,181	-3,616	312,776	155,195
131,195	-3,599	312,535	155,079
132,210	-3,802	312,206	154,687
133,224	-3,684	312,123	154,758
134,239	-3,694	311,840	154,592
135,254	-3,739	311,619	154,422
136,268	-3,688	311,421	154,363
137,283	-3,669	311,200	154,261
138,297	-3,674	310,845	154,065
139,312	-3,577	310,631	154,049
140,327	-3,818	310,474	153,702
141,341	-3,740	310,374	153,721
142,356	-3,679	309,967	153,571
143,370	-3,551	309,609	153,514
144,385	-3,469	309,405	153,486
145,400	-3,529	309,337	153,376
146,414	-3,746	309,197	153,064
147,429	-3,683	309,004	153,020
148,443	-3,607	308,697	152,935
149,458	-3,747	308,486	152,670
150,473	-3,668	308,250	152,623
151,487	-3,676	308,108	152,530
152,502	-3,781	307,914	152,311
153,516	-3,620	307,651	152,335
154,531	-3,617	307,448	152,224
155,546	-3,627	307,129	152,043
156,560	-3,790	306,970	151,780
157,575	-3,575	306,722	151,868
158,589	-3,708	306,608	151,659
159,604	-3,501	306,186	151,652
160,619	-3,526	306,092	151,566
161,633	-3,508	305,965	151,509
162,648	-3,572	305,640	151,268
163,662	-3,629	305,500	151,126
164,677	-3,682	305,404	151,010
165,692	-3,630	305,096	150,898
166,706	-3,550	304,933	150,887
167,721	-3,708	304,711	150,600
168,735	-3,631	304,553	150,588
169,750	-3,572	304,308	150,515
170,764	-3,581	304,245	150,460
171,779	-3,661	304,092	150,289
172,794	-3,641	303,709	150,107
173,808	-3,754	303,536	149,891
174,823	-3,577	303,322	149,955
175,837	-3,595	303,075	149,800
176,852	-3,695	302,863	149,579
177,867	-3,540	302,615	149,603
178,881	-3,571	302,491	149,496
179,896	-3,596	302,351	149,389
180,910	-3,425	302,075	149,415
181,925	-3,629	301,854	149,082
182,940	-3,307	301,580	149,263
183,954	-3,491	301,448	148,997
184,969	-3,648	301,400	148,799
185,983	-3,761	301,218	148,580
186,998	-3,695	301,054	148,553
188,013	-3,570	300,660	148,473
189,027	-3,607	300,303	148,246
190,042	-3,417	300,117	148,334
191,056	-3,561	299,990	148,112
192,071	-3,526	299,755	148,019
193,086	-3,643	299,662	147,840
194,100	-3,574	299,392	147,764
195,115	-3,571	299,108	147,613
196,129	-3,600	298,954	147,495
197,144	-3,419	298,660	147,520
198,159	-3,502	298,531	147,359
199,173	-3,477	298,392	147,303
200,188	-3,647	298,157	147,002
201,202	-3,697	298,032	146,876
202,217	-3,739	297,758	146,686
203,232	-3,506	297,409	146,736
204,246	-3,641	297,339	146,553
205,261	-3,670	297,020	146,353
206,275	-3,613	296,848	146,313
207,290	-3,634	296,757	146,234
208,304	-3,650	296,676	146,165
209,319	-3,406	296,270	146,196
210,334	-3,523	296,078	145,970
211,348	-3,479	295,755	145,843
212,363	-3,523	295,614	145,716
213,377	-3,662	295,482	145,499
214,392	-3,545	295,378	145,552
215,407	-3,613	295,081	145,325
216,421	-3,552	294,859	145,263
217,436	-3,553	294,701	145,171
218,450	-3,577	294,526	145,049
219,465	-3,467	294,183	144,977
220,480	-3,494	294,148	144,920
221,494	-3,579	294,033	144,764
222,509	-3,745	293,858	144,501
223,523	-3,496	293,586	144,602
224,538	-3,565	293,424	144,440
225,553	-3,560	293,018	144,232
226,567	-3,612	293,013	144,165
227,582	-3,529	292,878	144,168
228,596	-3,544	292,699	144,052
229,611	-3,531	292,448	143,929
230,626	-3,517	292,257	143,836
231,640	-3,636	292,087	143,623
232,655	-3,610	291,724	143,457
233,669	-3,456	291,634	143,552
234,684	-3,574	291,504	143,359
235,699	-3,420	291,228	143,361
236,713	-3,537	291,022	143,132
237,728	-3,468	290,860	143,108
238,742	-3,599	290,686	142,881
239,757	-3,436	290,467	142,920
240,772	-3,614	290,254	142,628
241,786	-3,548	290,071	142,590
242,801	-3,625	289,913	142,424
243,815	-3,562	289,786	142,410
244,830	-3,506	289,514	142,319
245,844	-3,540	289,334	142,185
246,859	-3,592	289,220	142,065
247,874	-3,597	288,948	141,914
248,888	-3,694	288,801	141,734
249,903	-3,721	288,730	141,661
250,917	-3,593	288,477	141,649
251,932	-3,408	288,226	141,692
252,947	-3,529	287,924	141,414
253,961	-3,628	287,884	141,285
254,976	-3,200	287,856	141,674
255,990	-3,153	287,527	141,546
257,005	-2,588	287,705	142,169
258,020	-0,858	288,337	144,148
259,034	0,230	288,434	145,239
260,049	0,917	288,453	145,903
261,063	1,175	288,578	146,203
262,078	1,580	288,564	146,576
263,093	1,825	288,389	146,711
264,107	2,120	288,308	146,942
265,122	2,231	288,161	146,962
266,136	2,156	287,963	146,775
267,151	2,335	287,883	146,894
268,166	2,260	287,671	146,701
269,180	2,469	287,484	146,794
270,195	2,339	287,366	146,595
271,209	2,397	287,176	146,540
272,224	2,405	286,780	146,333
273,239	2,259	286,713	146,145
274,253	2,328	286,500	146,090
275,268	2,194	286,360	145,877
276,282	2,038	286,184	145,624
277,297	1,914	285,941	145,369
278,312	2,115	285,781	145,467
279,326	2,374	285,639	145,630
280,341	2,222	285,362	145,331
281,355	2,242	285,226	145,267
282,370	2,186	284,955	145,063
283,384	2,081	284,835	144,889
284,399	2,063	284,632	144,755
285,414	2,018	284,450	144,606
286,428	2,146	284,190	144,584
287,443	2,272	283,887	144,537
288,457	2,069	283,742	144,257
289,472	2,055	283,681	144,200
290,487	2,012	283,351	143,979
291,501	1,928	283,211	143,815
292,516	2,072	282,987	143,825
293,530	2,055	282,843	143,722
294,545	2,144	282,581	143,660
295,560	2,100	282,540	143,586
296,574	2,107	282,249	143,431
297,589	1,931	282,228	143,241
298,603	1,989	281,866	143,100
299,618	1,990	281,790	143,049
300,633	2,076	281,565	143,004
301,647	2,201	281,408	143,029
302,662	2,068	281,273	142,822
303,676	2,248	281,155	142,919
304,691	2,049	281,034	142,658
305,706	2,147	280,822	142,629
306,720	2,304	280,537	142,619
307,735	2,262	280,298	142,445
308,749	2,295	280,161	142,395
309,764	2,225	280,044	142,257
310,779	2,208	279,744	142,076
311,793	2,174	279,650	141,983
312,808	2,173	279,419	141,852
313,822	2,049	279,215	141,620
314,837	2,276	279,058	141,740
315,852	2,147	278,904	141,529
316,866	2,263	278,617	141,479
317,881	2,139	278,608	141,346
318,895	2,282	278,351	141,335
319,910	2,215	278,125	141,147
320,925	2,314	277,975	141,149
321,939	2,269	277,893	141,053
322,954	2,067	277,709	140,760
323,968	2,332	277,539	140,907
324,983	2,354	277,330	140,809
325,997	2,312	277,067	140,624
327,012	2,219	276,903	140,442
328,027	2,375	276,832	140,538
329,041	2,319	276,711	140,412
330,056	2,320	276,422	140,254
331,070	2,336	276,330	140,209
332,085	2,330	276,144	140,097
333,100	2,435	275,906	140,060
334,114	2,248	275,643	139,742
335,129	2,349	275,571	139,787
336,143	2,169	275,222	139,432
337,158	2,341	275,285	139,609
338,173	2,165	275,055	139,319
339,187	2,270	274,824	139,286
340,202	2,310	274,651	139,221
341,216	2,284	274,426	139,071
342,231	2,227	274,323	138,955
343,246	2,308	274,153	138,930
344,260	2,309	273,948	138,815
345,275	2,298	273,690	138,661
346,289	2,271	273,663	138,611
347,304	2,461	273,458	138,668
348,319	2,449	273,235	138,531
349,333	2,163	273,245	138,264
350,348	2,447	272,878	138,325
351,362	2,383	272,735	138,181
352,377	2,333	272,561	138,035
353,392	2,290	272,525	137,966
354,406	2,504	272,155	137,960
355,421	189,702	1348,681	1421,984
356,435	153,069	1479,928	1422,098
