DTS Sentinel unit serial number:	SN410029Multiplexer serial number:	ORYXHardware model number:	OX2-SRSoftware version number:	ORYX F/W v4,00 Oryx Data Collector v3.7.2.0data status	okinstallation	B4 Nyhavnadifferential loss correction	single-endedforward channel	channel 2reverse channel	N/Adate	2023/12/18time	18:10:13forward acquisition time	300,00reverse acquisition time	0,00gamma	499,1914k internal	0,3124k external	0,3124temperature offset calibration	1,0000default loss term (dB/km)	0,3820temperature slope calibration	1,0000multiplexer offset coefficient	1,0000multiplexer slope coefficient	1,0000fibre end	0,00T internal ref (°C)	21,89T ext. ref 1 (°C)	7,19T ext. ref 2 (°C)	7,24length (m)	temperature (°C)	Stokes	anti-Stokes-744,400	-200,000	-0,005	-0,141
-743,385	379,046	-0,142	0,217
-742,371	800,000	0,072	-0,160
-741,356	39,904	-0,233	0,156
-740,342	-200,000	-0,002	-0,066
-739,327	49,775	-0,147	0,103
-738,312	-200,000	0,011	-0,061
-737,298	800,000	-0,109	0,232
-736,283	-113,274	0,099	0,014
-735,269	-4,652	-0,190	0,097
-734,254	563,362	-0,037	-0,067
-733,239	-37,268	-0,472	-0,187
-732,225	337,799	-0,071	-0,104
-731,210	131,930	0,109	0,105
-730,196	3,425	0,105	-0,057
-729,181	357,528	-0,092	-0,138
-728,167	-200,000	0,028	-0,132
-727,152	800,000	0,005	-0,015
-726,137	-6,733	-0,062	-0,031
-725,123	-200,000	-0,006	-0,092
-724,108	444,318	0,086	-0,140
-723,094	-160,105	0,011	-0,000
-722,079	800,000	-0,008	-0,026
-721,064	-200,000	0,039	-0,143
-720,050	800,000	0,015	0,037
-719,035	-117,613	-0,110	0,015
-718,021	40,055	-0,046	-0,030
-717,006	-200,000	0,022	0,084
-715,991	171,315	-0,103	0,110
-714,977	-200,000	-0,003	-0,026
-713,962	-200,000	0,001	-0,143
-712,948	800,000	-0,013	0,029
-711,933	-174,323	0,030	-0,001
-710,918	-22,626	-0,167	-0,075
-709,904	-120,649	-0,092	-0,011
-708,889	-200,000	-0,011	-0,045
-707,875	59,391	-0,128	-0,094
-706,860	-149,437	0,076	0,004
-705,845	800,000	-0,066	-0,142
-704,831	-3,227	-0,039	0,020
-703,816	-165,747	-0,104	0,003
-702,802	-115,836	-0,037	-0,005
-701,787	281,200	0,026	-0,035
-700,772	692,905	0,044	0,086
-699,758	-110,782	-0,080	0,012
-698,743	-79,683	-0,021	0,005
-697,729	547,971	-0,014	-0,026
-696,714	-200,000	-0,013	-0,045
-695,699	622,971	-0,062	-0,117
-694,685	-200,000	0,018	-0,067
-693,670	800,000	0,061	-0,186
-692,656	-55,955	0,136	0,045
-691,641	275,536	-0,105	-0,139
-690,627	184,712	0,025	0,027
-689,612	-200,000	0,022	-0,154
-688,597	226,699	-0,088	-0,107
-687,583	-87,966	0,037	-0,008
-686,568	800,000	-0,063	-0,168
-685,554	120,721	0,078	0,072
-684,539	655,211	-0,055	0,105
-683,524	-101,240	0,101	-0,018
-682,510	-85,242	0,163	0,038
-681,495	-200,000	0,026	0,096
-680,481	218,624	-0,121	-0,144
-679,466	86,991	-0,106	-0,087
-678,451	292,591	-0,060	-0,082
-677,437	-50,048	-0,079	-0,028
-676,422	95,944	0,098	0,083
-675,408	-57,135	0,080	0,026
-674,393	192,542	0,032	-0,036
-673,378	72,716	-0,045	-0,035
-672,364	-155,029	-0,137	-0,007
-671,349	-200,000	0,025	-0,179
-670,335	482,037	-0,055	0,093
-669,320	-69,146	0,130	-0,037
-668,305	-130,014	0,087	0,009
-667,291	800,000	-0,041	-0,099
-666,276	212,337	0,071	0,084
-665,262	206,685	0,068	-0,079
-664,247	-7,478	0,042	-0,021
-663,232	-81,695	0,041	0,010
-662,218	-114,662	0,137	-0,019
-661,203	800,000	-0,039	0,118
-660,189	-200,000	0,000	-0,055
-659,174	478,192	-0,067	-0,114
-658,159	800,000	-0,065	-0,167
-657,145	261,842	-0,075	-0,097
-656,130	-19,952	-0,033	-0,015
-655,116	23,195	0,099	0,060
-654,101	21,315	-0,095	0,057
-653,086	-26,470	0,034	-0,015
-652,072	223,684	-0,038	0,045
-651,057	503,184	-0,070	0,120
-650,043	-54,554	0,033	0,011
-649,028	-33,216	-0,094	0,039
-648,014	-200,000	-0,017	0,080
-646,999	76,715	0,017	-0,013
-645,984	-200,000	0,019	-0,098
-644,970	-85,141	0,061	0,014
-643,955	577,784	-0,092	-0,168
-642,941	-0,813	-0,124	-0,065
-641,926	227,247	-0,129	0,156
-640,911	-52,305	0,175	0,060
-639,897	-200,000	0,000	0,086
-638,882	-200,000	0,006	-0,062
-637,868	-58,955	-0,085	-0,027
-636,853	-200,000	0,028	-0,094
-635,838	-200,000	0,007	-0,052
-634,824	58,268	-0,146	-0,106
-633,809	-200,000	-0,003	-0,045
-632,795	800,000	0,050	0,132
-631,780	-200,000	-0,030	0,143
-630,765	85,971	0,105	0,086
-629,751	-200,000	-0,002	0,027
-628,736	-200,000	0,039	-0,136
-627,722	-10,828	-0,065	-0,032
-626,707	800,000	-0,047	0,119
-625,692	351,140	0,017	-0,025
-624,678	-200,000	0,028	0,183
-623,663	-106,382	0,038	0,006
-622,649	430,083	-0,052	-0,084
-621,634	137,794	0,024	-0,023
-620,619	-200,000	-0,015	-0,121
-619,605	40,549	-0,054	-0,036
-618,590	-69,338	0,150	-0,042
-617,576	703,158	0,079	0,155
-616,561	-200,000	-0,023	-0,136
-615,546	-200,000	0,011	0,119
-614,532	-43,865	0,069	0,026
-613,517	330,582	0,044	-0,063
-612,503	-200,000	0,011	0,083
-611,488	-200,000	-0,014	0,068
-610,474	800,000	-0,005	-0,012
-609,459	86,743	-0,060	0,049
-608,444	179,440	-0,082	0,089
-607,430	292,968	0,028	0,038
-606,415	24,896	0,085	-0,052
-605,401	8,192	-0,138	0,077
-604,386	-200,000	-0,008	0,039
-603,371	800,000	0,031	0,065
-602,357	-158,556	0,048	-0,002
-601,342	3,304	0,043	-0,023
-600,328	9,369	0,064	-0,036
-599,313	-200,000	0,018	-0,227
-598,298	-29,351	0,089	-0,038
-597,284	-200,000	-0,009	0,047
-596,269	-200,000	0,020	0,206
-595,255	-103,606	-0,066	-0,011
-594,240	5,516	-0,039	-0,021
-593,225	800,000	-0,046	-0,125
-592,211	285,428	-0,081	-0,109
-591,196	380,408	-0,035	0,053
-590,182	800,000	-0,030	0,074
-589,167	-200,000	-0,026	0,088
-588,152	-103,321	0,050	-0,009
-587,138	134,337	0,099	-0,096
-586,123	370,459	-0,071	-0,108
-585,109	14,637	-0,061	0,035
-584,094	76,753	-0,063	0,049
-583,079	-66,469	0,083	-0,024
-582,065	800,000	0,011	0,026
-581,050	800,000	-0,051	-0,160
-580,036	363,484	-0,047	-0,070
-579,021	-14,331	-0,076	-0,036
-578,006	-200,000	0,028	-0,129
-576,992	87,305	0,018	-0,015
-575,977	800,000	-0,021	0,048
-574,963	302,870	0,039	0,053
-573,948	800,000	0,024	-0,071
-572,934	519,514	0,086	0,149
-571,919	106,654	-0,012	-0,010
-570,904	404,980	0,056	0,087
-569,890	548,282	0,041	-0,074
-568,875	-200,000	-0,022	-0,129
-567,861	78,160	-0,066	0,052
-566,846	648,488	-0,058	0,110
-565,831	-116,212	-0,121	-0,016
-564,817	-200,000	0,009	-0,062
-563,802	41,102	-0,077	-0,052
-562,788	-200,000	0,034	-0,177
-561,773	32,108	-0,116	-0,074
-560,758	-200,000	-0,015	-0,136
-559,744	-200,000	-0,007	-0,058
-558,729	-12,615	0,080	0,038
-557,715	-158,370	-0,098	0,004
-556,700	-165,458	-0,102	0,003
-555,685	-200,000	0,001	-0,023
-554,671	800,000	0,044	-0,091
-553,656	-122,057	-0,142	-0,017
-552,642	164,850	-0,048	0,051
-551,627	800,000	-0,071	-0,149
-550,612	-48,553	-0,115	-0,041
-549,598	373,692	-0,083	-0,126
-548,583	7,773	0,156	0,086
-547,569	191,437	0,113	-0,126
-546,554	-21,828	0,128	-0,057
-545,539	-5,362	-0,110	-0,055
-544,525	672,914	0,052	0,100
-543,510	-152,886	0,063	0,003
-542,496	732,124	-0,022	0,044
-541,481	-200,000	-0,021	-0,091
-540,466	192,670	0,090	-0,100
-539,452	343,005	0,053	-0,078
-538,437	42,717	-0,074	0,050
-537,423	65,237	0,067	0,050
-536,408	-54,437	0,034	0,011
-535,393	-200,000	-0,009	0,086
-534,379	80,965	0,027	-0,022
-533,364	-59,172	0,010	0,003
-532,350	-91,637	0,142	0,030
-531,335	-200,000	-0,030	0,100
-530,321	-59,330	-0,081	0,026
-529,306	-100,047	-0,090	0,016
-528,291	-51,027	-0,104	-0,036
-527,277	-200,000	-0,003	0,015
-526,262	77,389	0,147	0,116
-525,248	64,377	0,109	0,081
-524,233	800,000	-0,041	0,110
-523,218	800,000	0,023	-0,068
-522,204	-102,036	0,029	-0,005
-521,189	-200,000	-0,011	-0,069
-520,175	800,000	-0,059	-0,176
-519,160	277,866	-0,049	-0,065
-518,145	610,689	0,068	0,126
-517,131	800,000	0,012	0,030
-516,116	706,778	-0,039	-0,077
-515,102	154,777	-0,043	0,043
-514,087	-2,232	-0,075	-0,039
-513,072	-6,650	0,018	0,009
-512,058	-200,000	-0,007	-0,155
-511,043	-200,000	-0,024	-0,125
-510,029	-110,308	0,126	-0,019
-509,014	-200,000	-0,007	0,086
-507,999	-78,026	-0,034	0,009
-506,985	38,032	0,018	-0,012
-505,970	-50,483	-0,149	0,051
-504,956	-96,241	0,061	0,012
-503,941	-71,120	-0,107	0,029
-502,926	-79,428	0,132	-0,033
-501,912	-200,000	0,001	-0,078
-500,897	800,000	-0,041	0,102
-499,883	-55,955	0,079	0,026
-498,868	534,561	-0,055	0,097
-497,853	-144,259	0,113	0,008
-496,839	426,709	-0,050	0,080
-495,824	-121,659	0,011	0,001
-494,810	170,915	0,041	0,043
-493,795	-200,000	-0,025	-0,145
-492,781	172,236	-0,074	-0,079
-491,766	-200,000	-0,016	-0,065
-490,751	-200,000	-0,025	-0,142
-489,737	-57,184	-0,276	-0,089
-488,722	-200,000	0,000	0,023
-487,708	-132,675	0,080	-0,007
-486,693	-200,000	0,002	0,187
-485,678	-200,000	0,009	0,138
-484,664	-200,000	-0,001	0,096
-483,649	95,374	-0,045	-0,037
-482,635	-200,000	0,001	-0,088
-481,620	255,892	-0,036	-0,046
-480,605	800,000	-0,027	0,063
-479,591	-200,000	0,003	0,091
-478,576	32,210	-0,051	0,032
-477,562	-26,679	0,085	0,037
-476,547	266,990	0,009	0,012
-475,532	554,116	-0,052	-0,092
-474,518	360,960	0,028	-0,042
-473,503	138,365	0,061	0,059
-472,489	-200,000	-0,006	0,079
-471,474	-200,000	-0,019	-0,105
-470,459	-200,000	-0,016	-0,074
-469,445	-200,000	-0,024	-0,096
-468,430	-95,903	-0,136	0,026
-467,416	800,000	0,018	0,050
-466,401	-200,000	0,008	0,089
-465,386	-200,000	-0,037	0,184
-464,372	-39,904	-0,146	0,056
-463,357	-90,590	-0,132	-0,028
-462,343	-174,965	-0,101	-0,002
-461,328	-200,000	0,029	0,116
-460,313	-200,000	-0,008	0,030
-459,299	280,496	-0,039	0,051
-458,284	275,224	0,105	0,138
-457,270	704,873	0,063	0,124
-456,255	800,000	-0,025	-0,080
-455,241	152,214	-0,020	0,020
-454,226	335,961	0,046	-0,066
-453,211	-79,749	-0,071	0,018
-452,197	84,445	0,128	-0,103
-451,182	-96,833	0,064	0,012
-450,168	66,543	-0,116	0,087
-449,153	-22,832	0,092	-0,041
-448,138	80,397	-0,172	-0,137
-447,124	-38,287	-0,077	-0,030
-446,109	-81,260	-0,084	0,020
-445,095	-200,000	0,007	0,081
-444,080	24,446	0,089	0,054
-443,065	-26,353	0,066	0,028
-442,051	-9,241	0,037	-0,018
-441,036	44,305	0,020	0,013
-440,022	687,984	-0,061	-0,118
-439,007	-200,000	0,018	0,084
-437,992	47,544	0,037	0,025
-436,978	163,623	0,093	0,097
-435,963	-172,096	-0,194	-0,005
-434,949	637,559	-0,050	-0,093
-433,934	176,121	-0,060	-0,064
-432,919	-200,000	0,033	0,131
-431,905	445,859	-0,058	0,094
-430,890	192,263	0,068	0,076
-429,876	-70,256	-0,125	0,035
-428,861	440,461	0,019	0,031
-427,846	-143,029	0,102	0,007
-426,832	153,402	0,049	-0,049
-425,817	529,511	-0,068	-0,118
-424,803	-200,000	-0,035	0,000
-423,788	106,255	0,046	0,040
-422,773	35,790	-0,125	-0,081
-421,759	74,107	-0,060	0,047
-420,744	28,839	-0,044	0,028
-419,730	-64,360	-0,107	0,032
-418,715	-111,059	-0,059	0,009
-417,701	-95,826	-0,168	0,033
-416,686	-200,000	-0,047	0,205
-415,671	-124,488	0,035	0,004
-414,657	-117,441	0,152	0,020
-413,642	-127,133	-0,127	-0,013
-412,628	-200,000	0,002	-0,134
-411,613	-28,557	0,085	-0,036
-410,598	-50,195	0,078	-0,027
-409,584	27,289	0,041	0,025
-408,569	155,381	-0,075	0,076
-407,555	-200,000	0,023	0,148
-406,540	-92,372	0,123	-0,025
-405,525	63,431	0,043	-0,032
-404,511	17,196	-0,135	-0,079
-403,496	-200,000	-0,002	-0,162
-402,482	800,000	-0,053	-0,123
-401,467	157,079	0,035	-0,036
-400,452	-27,120	-0,069	0,029
-399,438	-200,000	0,004	-0,023
-398,423	-172,472	-0,033	-0,001
-397,409	4,993	0,043	0,023
-396,394	800,000	-0,053	-0,170
-395,379	-68,568	-0,097	0,028
-394,365	-38,267	0,058	0,023
-393,350	59,827	0,029	0,021
-392,336	-200,000	0,028	0,193
-391,321	800,000	0,012	0,037
-390,306	-200,000	-0,008	-0,051
-389,292	-27,789	-0,168	-0,071
-388,277	31,858	0,036	0,023
-387,263	70,177	0,091	0,069
-386,248	-200,000	0,002	-0,045
-385,233	153,354	-0,084	0,085
-384,219	37,465	-0,088	-0,057
-383,204	97,011	-0,098	0,083
-382,190	63,750	0,082	-0,060
-381,175	-151,606	0,110	0,006
-380,160	275,947	-0,095	0,124
-379,146	81,460	0,148	0,118
-378,131	319,353	0,124	0,173
-377,117	-23,144	0,120	-0,053
-376,102	301,856	0,021	-0,028
-375,088	-85,747	-0,062	0,014
-374,073	-127,560	0,067	-0,007
-373,058	800,000	0,016	0,039
-372,044	800,000	-0,033	0,100
-371,029	1,013	0,040	0,021
-370,015	-30,450	-0,046	0,019
-369,000	-200,000	0,011	0,040
-367,985	12,960	-0,119	0,068
-366,971	-200,000	0,014	-0,090
-365,956	71,679	-0,016	0,012
-364,942	440,357	-0,037	0,059
-363,927	14,501	0,023	-0,013
-362,912	426,833	-0,046	0,074
-361,898	-200,000	-0,021	0,128
-360,883	-6,788	-0,058	0,029
-359,869	273,073	-0,022	-0,028
-358,854	-31,736	0,037	-0,015
-357,839	-136,437	0,108	0,009
-356,825	-200,000	0,029	0,125
-355,810	-47,307	0,102	-0,036
-354,796	-200,000	0,000	0,032
-353,781	2,939	-0,098	-0,052
-352,766	68,367	-0,204	-0,153
-351,752	257,003	0,055	-0,069
-350,737	800,000	0,016	0,039
-349,723	800,000	-0,041	0,086
-348,708	-21,380	0,050	-0,022
-347,693	-178,816	0,040	-0,001
-346,679	146,435	-0,063	-0,062
-345,664	176,050	-0,139	-0,148
-344,650	151,800	-0,114	-0,114
-343,635	-74,820	0,148	-0,039
-342,620	-104,502	0,116	-0,020
-341,606	800,000	-0,066	0,145
-340,591	-7,810	0,039	0,019
-339,577	800,000	0,047	0,098
-338,562	25,068	-0,059	-0,036
-337,548	-200,000	-0,004	-0,106
-336,533	57,351	0,072	0,051
-335,518	120,950	0,051	0,046
-334,504	800,000	-0,015	-0,039
-333,489	-200,000	0,005	-0,063
-332,475	93,647	0,139	0,115
-331,460	642,150	-0,043	-0,080
-330,445	160,736	-0,095	-0,098
-329,431	136,177	0,070	0,067
-328,416	-200,000	0,006	0,084
-327,402	800,000	-0,078	0,160
-326,387	-99,114	0,104	-0,019
-325,372	-135,948	-0,085	0,007
-324,358	-200,000	0,031	-0,139
-323,343	-200,000	-0,007	0,079
-322,329	-200,000	0,007	-0,042
-321,314	-74,992	0,078	0,020
-320,299	185,255	-0,059	0,065
-319,285	362,077	-0,003	0,005
-318,270	-200,000	-0,003	0,024
-317,256	25,601	-0,126	0,077
-316,241	527,812	-0,029	0,051
-315,226	467,458	0,062	0,102
-314,212	-24,584	0,079	-0,034
-313,197	800,000	0,044	0,098
-312,183	-55,722	0,059	0,019
-311,168	303,264	0,071	-0,096
-310,153	272,074	0,038	-0,050
-309,139	-200,000	0,032	-0,119
-308,124	-183,197	-0,087	0,001
-307,110	-200,000	0,034	0,169
-306,095	-129,568	0,114	0,011
-305,080	-130,001	0,177	0,017
-304,066	-44,617	-0,114	-0,042
-303,051	485,183	-0,022	-0,038
-302,037	27,707	-0,092	-0,057
-301,022	119,353	0,046	-0,042
-300,008	705,712	-0,016	0,032
-298,993	687,467	0,067	0,128
-297,978	178,750	-0,043	0,046
-296,964	285,445	0,073	-0,096
-295,949	6,682	-0,059	0,032
-294,935	-200,000	-0,013	0,053
-293,920	133,070	0,094	0,089
-292,905	800,000	0,013	0,027
-291,891	163,785	0,104	0,107
-290,876	-3,174	-0,093	-0,047
-289,862	793,493	0,043	-0,087
-288,847	-188,058	-0,036	-0,000
-287,832	-53,158	0,015	-0,005
-286,818	-131,717	0,109	-0,010
-285,803	-130,401	-0,041	-0,004
-284,789	-121,706	0,104	-0,012
-283,774	800,000	-0,059	0,159
-282,759	736,731	-0,029	-0,057
-281,745	-20,147	-0,067	-0,030
-280,730	800,000	-0,034	-0,098
-279,716	800,000	-0,062	-0,144
-278,701	-200,000	0,017	0,073
-277,686	-200,000	0,010	0,040
-276,672	500,626	0,075	0,127
-275,657	-200,000	-0,013	0,049
-274,643	-200,000	-0,011	0,053
-273,628	-102,223	0,137	0,024
-272,613	800,000	-0,027	-0,069
-271,599	-200,000	-0,001	-0,011
-270,584	109,804	0,058	-0,051
-269,570	324,678	0,038	0,054
-268,555	434,867	0,023	-0,037
-267,540	60,930	0,034	0,024
-266,526	18,882	-0,063	-0,037
-265,511	-140,748	-0,122	-0,009
-264,497	-10,332	0,082	-0,039
-263,482	-45,905	0,060	0,021
-262,467	-24,432	-0,172	0,075
-261,453	-45,315	0,016	-0,006
-260,438	239,640	-0,057	0,069
-259,424	-64,233	-0,087	0,026
-258,409	-109,865	-0,092	-0,014
-257,395	-137,834	0,170	0,014
-256,380	610,509	-0,060	-0,110
-255,365	184,219	0,029	0,031
-254,351	-66,046	-0,035	-0,010
-253,336	133,386	0,048	-0,045
-252,322	-159,498	0,049	-0,002
-251,307	133,498	0,048	-0,046
-250,292	-9,765	-0,050	0,024
-249,278	-200,000	0,013	0,053
-248,263	-29,452	0,066	-0,028
-247,249	800,000	0,033	0,085
-246,234	200,070	0,022	0,024
-245,219	-3,979	-0,078	0,039
-244,205	683,719	0,040	-0,077
-243,190	-86,010	0,044	0,010
-242,176	-200,000	-0,023	0,078
-241,161	-88,380	0,118	0,025
-240,146	-59,201	-0,074	0,023
-239,132	168,682	-0,061	-0,063
-238,117	433,824	-0,095	-0,151
-237,103	-200,000	-0,022	-0,079
-236,088	800,000	-0,055	-0,152
-235,073	-3,389	0,126	0,064
-234,059	34,993	-0,015	0,009
-233,044	800,000	0,034	-0,090
-232,030	-131,580	-0,063	-0,006
-231,015	58,745	-0,072	0,051
-230,000	108,367	-0,014	-0,012
-228,986	-37,987	0,042	0,016
-227,971	149,071	0,049	-0,049
-226,957	-81,083	-0,063	-0,015
-225,942	211,709	-0,118	0,136
-224,927	711,209	-0,044	0,086
-223,913	800,000	-0,020	0,041
-222,898	481,421	0,050	-0,082
-221,884	-134,553	-0,085	-0,007
-220,869	229,354	-0,021	0,025
-219,855	800,000	0,029	0,063
-218,840	197,116	0,093	-0,103
-217,825	-186,403	0,095	-0,001
-216,811	290,131	-0,019	-0,026
-215,796	800,000	-0,033	-0,085
-214,782	-85,912	0,119	0,027
-213,767	264,896	-0,042	-0,053
-212,752	-98,487	0,141	-0,026
-211,738	744,588	0,042	0,084
-210,723	-200,000	0,007	-0,080
-209,709	-200,000	0,007	-0,240
-208,694	380,541	0,051	-0,076
-207,679	800,000	0,027	-0,074
-206,665	-51,836	0,183	-0,062
-205,650	-3,491	0,034	0,017
-204,636	-28,991	0,025	0,010
-203,621	-84,548	0,056	-0,013
-202,606	-200,000	0,016	-0,110
-201,592	800,000	-0,047	-0,140
-200,577	227,442	-0,116	-0,137
-199,563	-21,544	-0,100	-0,044
-198,548	800,000	-0,069	0,165
-197,533	800,000	-0,037	0,101
-196,519	800,000	0,030	0,097
-195,504	-113,787	-0,051	0,007
-194,490	-200,000	-0,011	0,063
-193,475	-107,926	-0,048	0,008
-192,460	-200,000	-0,009	0,083
-191,446	-87,582	0,104	0,023
-190,431	-58,454	0,126	0,040
-189,417	-2,460	0,016	0,008
-188,402	64,173	-0,023	0,017
-187,387	505,058	-0,053	-0,089
-186,373	146,118	0,052	-0,051
-185,358	-200,000	0,002	-0,058
-184,344	-98,425	0,132	-0,024
-183,329	-200,000	0,035	-0,122
-182,315	27,954	0,159	-0,098
-181,300	316,058	0,071	0,098
-180,285	290,842	0,026	0,035
-179,271	800,000	0,019	-0,046
-178,256	-72,414	0,169	0,045
-177,242	-41,451	0,057	-0,021
-176,227	-164,603	0,133	-0,004
-175,212	257,081	0,076	-0,096
-174,198	-200,000	0,010	-0,111
-173,183	-117,149	0,012	0,002
-172,169	-200,000	-0,000	-0,110
-171,154	318,998	-0,056	-0,077
-170,139	-200,000	0,023	0,112
-169,125	-44,114	0,154	0,056
-168,110	185,757	-0,013	-0,014
-167,096	145,185	0,107	0,104
-166,081	193,492	-0,018	0,020
-165,066	214,335	0,026	0,030
-164,052	204,084	-0,087	0,099
-163,037	-171,199	0,063	-0,002
-162,023	-200,000	0,014	0,050
-161,008	90,190	0,072	-0,059
-159,993	-61,748	-0,063	-0,019
-158,979	482,912	-0,047	0,078
-157,964	50,624	0,032	0,022
-156,950	406,755	-0,054	-0,084
-155,935	184,218	-0,054	-0,058
-154,920	-200,000	-0,003	-0,138
-153,906	800,000	0,055	0,124
-152,891	627,400	0,022	-0,041
-151,877	-200,000	-0,011	0,093
-150,862	423,149	-0,048	-0,076
-149,847	72,104	0,032	0,024
-148,833	800,000	0,043	-0,099
-147,818	-200,000	0,012	0,079
-146,804	-151,366	0,164	-0,009
-145,789	-115,133	0,091	-0,012
-144,775	-70,302	-0,141	-0,039
-143,760	-53,885	0,069	-0,023
-142,745	-200,000	-0,016	-0,115
-141,731	800,000	-0,054	-0,138
-140,716	462,905	0,036	-0,059
-139,702	-200,000	-0,015	0,049
-138,687	-20,327	0,132	0,059
-137,672	-200,000	-0,012	-0,049
-136,658	-4,010	-0,040	0,020
-135,643	-47,449	0,110	0,039
-134,629	57,920	-0,108	0,077
-133,614	56,933	0,083	0,059
-132,599	58,445	0,112	0,080
-131,585	27,952	0,067	0,041
-130,570	-165,994	-0,060	-0,002
-129,556	-101,503	-0,166	-0,029
-128,541	-200,000	-0,000	0,052
-127,526	800,000	-0,028	-0,059
-126,512	67,510	-0,127	0,094
-125,497	36,068	0,016	0,010
-124,483	-136,416	-0,048	-0,004
-123,468	-200,000	0,007	-0,096
-122,453	-62,122	-0,128	-0,039
-121,439	-41,180	-0,070	-0,026
-120,424	732,210	-0,025	0,050
-119,410	60,607	0,023	0,017
-118,395	217,228	-0,098	-0,113
-117,380	-200,000	-0,009	0,110
-116,366	-200,000	0,011	0,102
-115,351	602,214	0,024	-0,043
-114,337	227,193	0,047	-0,055
-113,322	-45,509	0,028	-0,010
-112,307	645,602	0,063	0,117
-111,293	-66,124	0,050	0,014
-110,278	800,000	0,015	0,038
-109,264	-200,000	0,006	-0,043
-108,249	12,635	-0,115	-0,064
-107,234	82,671	-0,114	-0,090
-106,220	-80,305	-0,063	-0,015
-105,205	-79,665	-0,108	0,026
-104,191	374,824	-0,013	0,019
-103,176	-49,808	-0,053	0,018
-102,162	-192,868	0,051	-0,000
-101,147	110,192	0,027	0,024
-100,132	225,998	-0,037	-0,044
-99,118	-200,000	0,010	0,056
-98,103	-113,883	-0,018	-0,002
-97,089	432,108	0,028	0,044
-96,074	337,385	0,095	0,135
-95,059	665,978	0,081	0,153
-94,045	-200,000	0,000	-0,063
-93,030	20,339	-0,104	0,061
-92,016	800,000	0,032	0,073
-91,001	43,395	0,070	-0,046
-89,986	800,000	0,092	0,202
-88,972	70,874	0,028	0,021
-87,957	139,108	-0,048	0,046
-86,943	-151,500	0,073	-0,004
-85,928	-2,354	-0,086	0,044
-84,913	800,000	-0,034	-0,076
-83,899	110,002	0,009	0,008
-82,884	-143,397	0,093	0,006
-81,870	-200,000	-0,003	0,020
-80,855	800,000	-0,026	-0,053
-79,840	333,447	-0,065	-0,092
-78,826	92,175	-0,124	-0,101
-77,811	-200,000	0,004	-0,290
-76,797	-200,000	0,000	-0,054
-75,782	37,051	0,079	0,050
-74,767	-76,281	0,201	-0,051
-73,753	-147,125	-0,042	0,003
-72,738	800,000	-0,048	-0,148
-71,724	25,438	-0,127	0,076
-70,709	-57,519	0,055	0,017
-69,694	-200,000	-0,006	0,025
-68,680	-200,000	-0,011	-0,045
-67,665	-200,000	0,006	-0,174
-66,651	39,996	0,120	-0,078
-65,636	-200,000	0,009	-0,081
-64,622	178,137	0,039	-0,041
-63,607	-200,000	-0,035	-0,140
-62,592	-181,049	-0,067	-0,001
-61,578	138,164	0,066	-0,062
-60,563	800,000	0,029	-0,074
-59,549	61,652	0,059	0,043
-58,534	-124,753	-1,317	-0,146
-57,519	800,000	-0,696	-1,736
-56,505	-200,000	-0,765	-4,600
-55,490	64,757	0,428	-0,313
-54,476	800,000	5,138	11,575
-53,461	-200,000	13,935	253,821
-52,446	-200,000	692,752	2262,970
-51,432	601,184	1623,516	2937,874
-50,417	118,006	1633,277	1459,926
-49,403	73,490	1287,261	976,659
-48,388	37,412	1023,375	656,808
-47,373	23,950	981,517	585,670
-46,359	23,179	971,019	576,855
-45,344	22,103	966,714	570,760
-44,330	22,079	965,479	569,930
-43,315	21,942	963,895	568,529
-42,300	21,958	962,673	567,836
-41,286	21,923	961,919	567,255
-40,271	21,924	960,844	566,602
-39,257	21,912	959,976	566,030
-38,242	21,892	959,136	565,444
-37,227	21,869	958,225	564,811
-36,213	21,924	957,256	564,396
-35,198	21,862	956,404	563,672
-34,184	21,918	955,934	563,554
-33,169	21,870	954,850	562,735
-32,154	21,981	953,913	562,519
-31,140	21,950	953,224	561,993
-30,125	21,921	952,493	561,446
-29,111	21,942	951,359	560,820
-28,096	21,889	950,938	560,380
-27,082	21,900	950,157	559,934
-26,067	21,926	949,539	559,631
-25,052	21,968	948,720	559,261
-24,038	21,907	948,158	558,712
-23,023	21,940	947,236	558,251
-22,009	21,936	946,701	557,902
-20,994	21,978	946,020	557,613
-19,979	21,913	945,574	557,118
-18,965	21,937	944,856	556,752
-17,950	21,898	944,209	556,222
-16,936	21,890	943,611	555,823
-15,921	21,908	942,839	555,404
-14,906	21,875	942,056	554,816
-13,892	21,817	941,489	554,273
-12,877	21,764	940,930	553,756
-11,863	21,781	940,253	553,389
-10,848	21,806	939,774	553,166
-9,833	21,935	939,252	553,244
-8,819	21,868	938,744	552,710
-7,804	21,811	937,883	552,002
-6,790	21,770	937,482	551,616
-5,775	21,883	936,633	551,449
-4,760	21,745	936,289	550,790
-3,746	21,789	935,490	550,435
-2,731	21,684	934,805	549,679
-1,717	21,636	934,062	549,068
-0,702	21,599	933,405	548,545
0,313	21,426	932,716	548,423
1,327	23,898	930,497	554,839
2,342	31,486	809,082	503,019
3,356	26,287	509,798	308,033
4,371	2,037	374,784	195,496
5,386	-0,842	357,939	183,146
6,400	-1,882	351,820	178,739
7,415	-2,018	349,467	177,363
8,429	-1,974	348,214	176,765
9,444	-1,866	347,160	176,344
10,459	-1,789	346,601	176,135
11,473	-1,711	345,868	175,840
12,488	-1,936	345,327	175,282
13,502	-1,819	344,683	175,078
14,517	-1,857	344,250	174,798
15,531	-1,658	344,026	174,904
16,546	-1,641	343,402	174,592
17,561	-1,708	343,119	174,353
18,575	-1,562	342,582	174,237
19,590	-1,551	342,321	174,101
20,604	-1,486	341,851	173,923
21,619	-1,546	341,524	173,671
22,634	-1,579	341,059	173,380
23,648	-1,551	340,733	173,232
24,663	-1,565	340,460	173,062
25,677	-1,488	339,987	172,895
26,692	-1,533	339,886	172,775
27,707	-1,615	339,639	172,540
28,721	-1,605	339,382	172,405
29,736	-1,710	338,958	172,052
30,750	-1,661	338,642	171,933
31,765	-1,508	338,295	171,919
32,780	-1,699	338,146	171,606
33,794	-1,622	337,966	171,589
34,809	-1,555	337,475	171,402
35,823	-1,686	337,235	171,114
36,838	-1,619	336,904	171,008
37,853	-1,588	336,662	170,906
38,867	-1,586	336,385	170,752
39,882	-1,671	336,104	170,496
40,896	-1,430	335,848	170,630
41,911	-1,499	335,666	170,442
42,926	-1,448	335,232	170,265
43,940	-1,512	335,030	170,074
44,955	-1,586	334,707	169,810
45,969	-1,576	334,431	169,665
46,984	-1,549	334,255	169,592
47,999	-1,579	334,147	169,487
49,013	-1,502	333,609	169,288
50,028	-1,543	333,481	169,161
51,042	-1,717	333,248	168,829
52,057	-1,742	333,044	168,682
53,071	-1,742	332,786	168,537
54,086	-1,758	332,467	168,341
55,101	-1,627	332,134	168,307
56,115	-1,698	331,966	168,125
57,130	-1,597	331,683	168,082
58,144	-1,618	331,348	167,874
59,159	-1,585	331,030	167,736
60,174	-1,595	330,726	167,555
61,188	-1,569	330,476	167,442
62,203	-1,613	330,425	167,352
63,217	-1,559	329,982	167,174
64,232	-1,562	329,796	167,062
65,247	-1,633	329,532	166,833
66,261	-1,552	329,218	166,750
67,276	-1,673	329,048	166,513
68,290	-1,619	328,851	166,459
69,305	-1,628	328,384	166,198
70,320	-1,534	328,244	166,218
71,334	-1,429	327,958	166,176
72,349	-1,644	327,784	165,832
73,363	-1,619	327,531	165,716
74,378	-1,800	327,184	165,324
75,393	-1,661	326,953	165,348
76,407	-1,596	326,885	165,372
77,422	-1,518	326,446	165,222
78,436	-1,636	326,248	164,974
79,451	-1,631	325,968	164,825
80,466	-1,666	325,822	164,697
81,480	-1,630	325,595	164,608
82,495	-1,483	325,240	164,578
83,509	-1,585	324,975	164,315
84,524	-1,496	324,820	164,321
85,539	-1,434	324,499	164,212
86,553	-1,477	324,380	164,090
87,568	-1,610	324,155	163,814
88,582	-1,530	323,843	163,730
89,597	-1,552	323,570	163,553
90,611	-1,502	323,484	163,550
91,626	-1,618	323,198	163,264
92,641	-1,440	322,929	163,310
93,655	-1,565	322,683	163,033
94,670	-1,431	322,448	163,046
95,684	-1,734	322,221	162,584
96,699	-1,601	321,980	162,593
97,714	-1,554	321,745	162,513
98,728	-1,522	321,610	162,465
99,743	-1,614	321,394	162,240
100,757	-1,438	320,906	162,173
101,772	-1,598	320,800	161,929
102,787	-1,507	320,444	161,835
103,801	-1,596	320,313	161,657
104,816	-1,704	320,141	161,437
105,830	-1,516	319,959	161,537
106,845	-1,533	319,693	161,369
107,860	-1,659	319,392	161,065
108,874	-1,690	319,180	160,911
109,889	-1,521	318,831	160,904
110,903	-1,616	318,664	160,703
111,918	-1,678	318,614	160,596
112,933	-1,537	318,239	160,546
113,947	-1,588	317,953	160,332
114,962	-1,720	317,833	160,113
115,976	-1,584	317,639	160,149
116,991	-1,483	317,424	160,136
118,006	-1,706	317,217	159,776
119,020	-1,559	317,027	159,824
120,035	-1,627	316,833	159,638
121,049	-1,606	316,634	159,547
122,064	-1,610	316,442	159,432
123,079	-1,721	316,069	159,110
124,093	-1,711	315,793	158,968
125,108	-1,561	315,544	158,989
126,122	-1,509	315,291	158,904
127,137	-1,478	315,104	158,829
128,151	-1,516	314,912	158,677
129,166	-1,379	314,620	158,662
130,181	-1,587	314,478	158,353
131,195	-1,649	314,246	158,157
132,210	-1,510	314,028	158,182
133,224	-1,548	313,772	157,998
134,239	-1,663	313,531	157,740
135,254	-1,712	313,370	157,592
136,268	-1,483	312,993	157,633
137,283	-1,717	312,892	157,318
138,297	-1,727	312,686	157,189
139,312	-1,774	312,441	157,002
140,327	-1,733	312,172	156,897
141,341	-1,622	311,980	156,904
142,356	-1,746	311,802	156,669
143,370	-1,481	311,546	156,808
144,385	-1,560	311,367	156,620
145,400	-1,514	311,155	156,548
146,414	-1,647	310,904	156,267
147,429	-1,667	310,753	156,157
148,443	-1,542	310,438	156,116
149,458	-1,626	310,314	155,951
150,473	-1,652	310,160	155,832
151,487	-1,688	309,844	155,621
152,502	-1,482	309,597	155,701
153,516	-1,451	309,354	155,597
154,531	-1,649	309,292	155,344
155,546	-1,586	309,033	155,267
156,560	-1,496	308,837	155,248
157,575	-1,537	308,628	155,086
158,589	-1,430	308,320	155,030
159,604	-1,572	308,056	154,735
160,619	-1,314	307,817	154,871
161,633	-1,459	307,797	154,696
162,648	-1,413	307,490	154,576
163,662	-1,392	307,160	154,418
164,677	-1,598	307,140	154,179
165,692	-1,446	306,939	154,223
166,706	-1,520	306,679	154,001
167,721	-1,355	306,365	154,002
168,735	-1,416	306,450	153,967
169,750	-1,455	306,076	153,724
170,764	-1,615	305,866	153,439
171,779	-1,591	305,763	153,399
172,794	-1,519	305,410	153,283
173,808	-1,546	305,219	153,145
174,823	-1,664	305,084	152,942
175,837	-1,520	304,836	152,953
176,852	-1,559	304,622	152,791
177,867	-1,454	304,406	152,778
178,881	-1,279	304,234	152,859
179,896	-1,374	304,067	152,664
180,910	-1,503	303,780	152,373
181,925	-1,502	303,657	152,298
182,940	-1,593	303,377	152,050
183,954	-1,498	303,265	152,078
184,969	-1,512	303,041	151,938
185,983	-1,435	302,953	151,960
186,998	-1,401	302,623	151,816
188,013	-1,491	302,491	151,643
189,027	-1,427	302,254	151,577
190,042	-1,679	302,131	151,243
191,056	-1,508	301,806	151,242
192,071	-1,646	301,580	150,974
193,086	-1,823	301,363	150,671
194,100	-1,667	301,285	150,778
195,115	-1,608	301,054	150,710
196,129	-1,427	300,777	150,742
197,144	-1,599	300,526	150,428
198,159	-1,643	300,377	150,294
199,173	-1,480	299,985	150,251
200,188	-1,633	299,843	150,011
201,202	-1,712	299,742	149,866
202,217	-1,647	299,486	149,791
203,232	-1,546	299,156	149,716
204,246	-1,507	299,069	149,698
205,261	-1,508	298,892	149,594
206,275	-1,496	298,723	149,509
207,290	-1,409	298,478	149,461
208,304	-1,450	298,155	149,245
209,319	-1,546	298,083	149,099
210,334	-1,390	297,728	149,064
211,348	-1,489	297,632	148,904
212,363	-1,347	297,591	149,013
213,377	-1,458	297,284	148,734
214,392	-1,523	296,959	148,493
215,407	-1,703	296,915	148,277
216,421	-1,528	296,647	148,306
217,436	-1,517	296,399	148,179
218,450	-1,646	296,268	147,971
219,465	-1,659	296,041	147,831
220,480	-1,571	295,871	147,821
221,494	-1,473	295,661	147,802
222,509	-1,540	295,639	147,710
223,523	-1,597	295,275	147,459
224,538	-1,617	295,022	147,299
225,553	-1,391	294,812	147,406
226,567	-1,541	294,770	147,223
227,582	-1,514	294,548	147,126
228,596	-1,457	294,323	147,057
229,611	-1,562	294,123	146,840
230,626	-1,428	293,925	146,861
231,640	-1,446	293,741	146,738
232,655	-1,521	293,449	146,504
233,669	-1,550	293,350	146,413
234,684	-1,659	293,239	146,237
235,699	-1,357	292,945	146,376
236,713	-1,329	292,650	146,243
237,728	-1,347	292,572	146,173
238,742	-1,474	292,428	145,962
239,757	-1,563	292,209	145,753
240,772	-1,661	292,078	145,578
241,786	-1,679	291,827	145,423
242,801	-1,521	291,683	145,492
243,815	-1,518	291,429	145,356
244,830	-1,589	291,319	145,218
245,844	-1,550	291,101	145,135
246,859	-1,639	290,960	144,964
247,874	-1,798	290,716	144,674
248,888	-1,677	290,417	144,631
249,903	-1,632	290,284	144,596
250,917	-1,577	290,106	144,548
251,932	-1,824	289,897	144,189
252,947	-1,939	289,472	143,853
253,961	-2,704	289,020	142,870
254,976	-3,319	288,657	142,079
255,990	-3,229	288,402	142,028
257,005	-2,235	289,007	143,282
258,020	0,329	289,660	146,096
259,034	1,642	289,894	147,481
260,049	2,132	290,021	148,011
261,063	2,616	289,910	148,412
262,078	2,987	289,840	148,724
263,093	2,972	289,801	148,676
264,107	3,205	289,727	148,851
265,122	3,417	289,498	148,927
266,136	3,453	289,388	148,892
267,151	3,493	289,181	148,811
268,166	3,484	289,042	148,718
269,180	3,544	288,689	148,580
270,195	3,463	288,677	148,483
271,209	3,559	288,365	148,403
272,224	3,273	288,451	148,156
273,239	3,436	288,091	148,116
274,253	3,191	287,823	147,729
275,268	3,225	287,537	147,602
276,282	3,076	287,424	147,386
277,297	3,119	287,276	147,339
278,312	3,385	287,033	147,457
279,326	3,285	286,898	147,278
280,341	3,231	286,711	147,117
281,355	3,149	286,474	146,904
282,370	3,103	286,316	146,765
283,384	3,215	286,097	146,747
284,399	3,130	285,949	146,577
285,414	3,097	285,727	146,419
286,428	3,286	285,498	146,468
287,443	3,067	285,314	146,152
288,457	3,002	285,143	145,990
289,472	2,926	285,045	145,854
290,487	3,025	284,695	145,756
291,501	3,159	284,461	145,751
292,516	2,945	284,376	145,490
293,530	3,086	284,168	145,505
294,545	3,068	283,966	145,372
295,560	2,990	283,780	145,189
296,574	2,843	283,565	144,927
297,589	2,669	283,398	144,663
298,603	2,748	283,204	144,626
299,618	2,920	283,117	144,732
300,633	2,968	282,964	144,686
301,647	3,102	282,787	144,710
302,662	3,041	282,584	144,535
303,676	3,094	282,522	144,541
304,691	3,225	282,337	144,557
305,706	3,392	282,086	144,573
306,720	3,452	281,947	144,545
307,735	3,350	281,787	144,355
308,749	3,352	281,642	144,269
309,764	3,429	281,420	144,216
310,779	3,378	281,180	144,031
311,793	3,246	281,068	143,837
312,808	3,149	280,755	143,574
313,822	3,482	280,422	143,702
314,837	3,292	280,300	143,449
315,852	3,223	280,231	143,336
316,866	3,327	280,119	143,363
317,881	3,176	279,860	143,077
318,895	3,132	279,628	142,904
319,910	3,064	279,471	142,748
320,925	3,274	279,288	142,838
321,939	3,123	279,243	142,661
322,954	3,332	278,951	142,694
323,968	3,245	278,932	142,591
324,983	3,532	278,607	142,679
325,997	3,351	278,434	142,408
327,012	3,561	278,267	142,507
328,027	3,544	278,185	142,436
329,041	3,326	277,938	142,094
330,056	3,405	277,675	142,021
331,070	3,489	277,574	142,033
332,085	3,354	277,410	141,812
333,100	3,473	277,174	141,789
334,114	3,449	277,037	141,684
335,129	3,291	276,870	141,440
336,143	3,346	276,822	141,454
337,158	3,367	276,629	141,362
338,173	3,485	276,386	141,334
339,187	3,359	276,195	141,107
340,202	3,370	275,960	140,985
341,216	3,328	275,817	140,861
342,231	3,361	275,717	140,828
343,246	3,403	275,406	140,695
344,260	3,416	275,376	140,678
345,275	3,340	275,267	140,541
346,289	3,645	274,923	140,632
347,304	3,333	274,846	140,294
348,319	3,390	274,692	140,255
349,333	3,015	274,492	139,798
350,348	3,188	274,203	139,796
351,362	3,372	273,992	139,845
352,377	3,176	274,008	139,661
353,392	3,443	273,764	139,768
354,406	3,311	273,530	139,516
355,421	191,187	1350,722	1430,322
356,435	154,360	1482,064	1430,461
