DTS Sentinel unit serial number:	SN410029Multiplexer serial number:	ORYXHardware model number:	OX2-SRSoftware version number:	ORYX F/W v4,00 Oryx Data Collector v3.7.2.0data status	okinstallation	B4 Nyhavnadifferential loss correction	single-endedforward channel	channel 2reverse channel	N/Adate	2023/12/16time	12:45:13forward acquisition time	300,00reverse acquisition time	0,00gamma	499,1914k internal	0,3126k external	0,3126temperature offset calibration	1,0000default loss term (dB/km)	0,3820temperature slope calibration	1,0000multiplexer offset coefficient	1,0000multiplexer slope coefficient	1,0000fibre end	0,00T internal ref (°C)	24,23T ext. ref 1 (°C)	10,54T ext. ref 2 (°C)	10,68length (m)	temperature (°C)	Stokes	anti-Stokes-744,400	-168,590	0,166	0,005
-743,385	-83,591	-0,152	0,036
-742,371	52,141	0,192	-0,136
-741,356	3,188	-0,085	0,046
-740,342	800,000	-0,052	-0,127
-739,327	91,644	-0,148	0,124
-738,312	389,451	-0,057	-0,089
-737,298	285,151	-0,153	0,206
-736,283	-200,000	0,010	-0,175
-735,269	205,110	-0,207	0,239
-734,254	152,157	0,060	-0,061
-733,239	5,948	-0,265	-0,146
-732,225	297,280	0,093	-0,127
-731,210	-32,307	0,018	0,008
-730,196	800,000	-0,065	-0,145
-729,181	147,179	-0,029	-0,029
-728,167	-156,524	0,085	0,004
-727,152	-200,000	0,039	-0,132
-726,137	-20,398	-0,118	-0,054
-725,123	-88,874	-0,079	0,017
-724,108	-200,000	-0,004	-0,135
-723,094	-54,756	-0,076	0,025
-722,079	121,179	-0,137	-0,127
-721,064	116,287	-0,068	-0,062
-720,050	-60,796	0,040	0,013
-719,035	-79,784	0,022	-0,005
-718,021	150,003	0,035	-0,035
-717,006	76,742	-0,044	-0,035
-715,991	-112,701	-0,195	0,028
-714,977	-140,975	-0,085	-0,006
-713,962	-200,000	0,011	-0,043
-712,948	120,357	-0,015	0,014
-711,933	434,815	0,072	0,118
-710,918	459,847	-0,083	0,139
-709,904	-51,374	-0,218	0,075
-708,889	177,813	-0,077	-0,083
-707,875	-174,930	-0,073	0,001
-706,860	95,232	-0,075	-0,064
-705,845	-40,570	0,174	0,067
-704,831	-171,721	-0,092	-0,002
-703,816	-94,611	0,044	0,009
-702,802	556,400	-0,064	0,115
-701,787	-77,504	-0,082	-0,021
-700,772	490,092	-0,021	-0,037
-699,758	-200,000	-0,009	-0,115
-698,743	-77,536	-0,056	-0,014
-697,729	-128,243	-0,009	-0,001
-696,714	-200,000	-0,023	0,080
-695,699	-200,000	0,002	-0,017
-694,685	-133,135	-0,083	-0,008
-693,670	-200,000	0,028	-0,185
-692,656	-187,997	-0,075	-0,001
-691,641	14,177	0,110	0,064
-690,627	-77,090	-0,030	-0,008
-689,612	108,142	-0,048	-0,043
-688,597	-200,000	-0,004	0,024
-687,583	-200,000	-0,001	0,051
-686,568	-19,718	-0,166	0,076
-685,554	-99,425	0,050	-0,009
-684,539	-200,000	0,006	-0,054
-683,524	-20,845	0,098	0,045
-682,510	29,239	-0,116	-0,073
-681,495	206,212	0,026	0,030
-680,481	140,557	-0,083	0,082
-679,466	-188,536	-0,094	0,001
-678,451	-200,000	0,042	-0,137
-677,437	-27,044	0,039	-0,017
-676,422	-11,845	-0,029	-0,014
-675,408	-97,110	-0,140	0,027
-674,393	-95,759	0,068	-0,013
-673,378	284,355	-0,048	-0,064
-672,364	594,905	0,034	-0,063
-671,349	-200,000	-0,002	-0,088
-670,335	-67,385	0,043	0,013
-669,320	40,528	-0,104	-0,070
-668,305	-24,157	0,056	0,025
-667,291	82,984	-0,032	-0,026
-666,276	-36,470	-0,062	-0,025
-665,262	-19,677	-0,103	0,047
-664,247	-37,681	-0,030	0,012
-663,232	706,355	0,062	-0,123
-662,218	-200,000	-0,143	0,000
-661,203	343,233	-0,044	-0,065
-660,189	317,944	-0,092	-0,129
-659,174	320,843	-0,093	-0,132
-658,159	-76,534	-0,102	-0,026
-657,145	-200,000	-0,026	-0,132
-656,130	-200,000	0,019	0,068
-655,116	392,657	-0,049	-0,076
-654,101	754,552	-0,011	-0,023
-653,086	-200,000	0,010	0,095
-652,072	574,913	-0,047	-0,085
-651,057	-200,000	-0,007	0,113
-650,043	-200,000	-0,024	0,083
-649,028	-200,000	0,001	-0,036
-648,014	-30,773	0,099	-0,041
-646,999	-67,898	0,018	0,005
-645,984	800,000	-0,026	0,069
-644,970	-92,970	-0,206	0,042
-643,955	-200,000	-0,023	-0,094
-642,941	-200,000	-0,023	-0,108
-641,926	-200,000	0,023	-0,116
-640,911	631,422	0,013	0,024
-639,897	-145,255	-0,025	0,002
-638,882	92,162	0,041	-0,034
-637,868	-0,881	-0,058	-0,030
-636,853	-200,000	-0,015	-0,126
-635,838	16,998	-0,052	-0,030
-634,824	-1,947	-0,177	-0,092
-633,809	-200,000	-0,006	0,123
-632,795	343,270	-0,107	0,156
-631,780	94,888	0,050	0,042
-630,765	196,884	-0,091	0,103
-629,751	-200,000	0,006	0,106
-628,736	-200,000	-0,016	-0,142
-627,722	-200,000	-0,006	-0,134
-626,707	190,976	-0,049	0,055
-625,692	135,833	0,043	-0,041
-624,678	276,647	-0,080	0,105
-623,663	-21,948	0,098	-0,044
-622,649	433,965	0,029	-0,046
-621,634	-147,860	-0,035	-0,002
-620,619	249,225	-0,100	-0,126
-619,605	-8,340	0,051	0,025
-618,590	800,000	0,030	0,079
-617,576	55,539	0,048	-0,034
-616,561	231,894	-0,017	-0,020
-615,546	12,662	-0,149	-0,085
-614,532	105,397	0,035	-0,031
-613,517	-105,542	-0,061	0,010
-612,503	23,165	-0,061	-0,037
-611,488	383,738	0,023	-0,035
-610,474	-200,000	-0,021	-0,251
-609,459	-200,000	0,009	-0,045
-608,444	51,425	0,057	-0,040
-607,430	159,763	-0,035	0,037
-606,415	-200,000	0,014	0,123
-605,401	757,146	-0,035	0,071
-604,386	-82,924	0,029	0,007
-603,371	-200,000	-0,008	0,070
-602,357	85,791	0,042	-0,034
-601,342	-2,224	0,078	-0,040
-600,328	-164,796	-0,107	-0,003
-599,313	25,059	0,035	0,022
-598,298	-200,000	0,012	0,116
-597,284	-200,000	0,001	-0,134
-596,269	-200,000	-0,002	-0,031
-595,255	-200,000	-0,006	-0,022
-594,240	-200,000	-0,002	0,097
-593,225	269,171	0,024	-0,031
-592,211	366,196	-0,083	-0,125
-591,196	-62,628	0,093	-0,028
-590,182	335,894	0,037	0,054
-589,167	-200,000	0,048	0,167
-588,152	-200,000	0,034	0,159
-587,138	178,690	0,049	0,053
-586,123	81,791	-0,042	-0,033
-585,109	-200,000	-0,025	-0,118
-584,094	77,414	0,057	0,045
-583,079	338,560	0,018	0,026
-582,065	743,716	-0,037	0,074
-581,050	-200,000	-0,010	0,065
-580,036	-200,000	-0,080	-0,000
-579,021	142,406	-0,090	-0,089
-578,006	-42,162	0,076	-0,029
-576,992	-64,424	-0,149	-0,044
-575,977	-200,000	-0,016	-0,080
-574,963	41,698	0,050	0,033
-573,948	-200,000	0,004	0,028
-572,934	800,000	0,010	0,022
-571,919	-28,673	0,071	0,030
-570,904	569,982	-0,040	-0,072
-569,890	-200,000	-0,068	0,000
-568,875	-71,217	-0,096	-0,026
-567,861	39,861	0,105	-0,070
-566,846	-171,481	-0,069	-0,002
-565,831	800,000	-0,042	-0,098
-564,817	-49,168	0,062	0,022
-563,802	-200,000	0,039	-0,202
-562,788	-200,000	0,006	0,057
-561,773	800,000	-0,052	-0,158
-560,758	-142,295	0,082	-0,006
-559,744	-196,852	-0,110	0,001
-558,729	-0,433	0,117	-0,061
-557,715	800,000	0,036	-0,078
-556,700	-200,000	0,015	0,064
-555,685	-91,803	-0,070	-0,014
-554,671	437,473	0,023	0,037
-553,656	-22,383	0,014	-0,006
-552,642	415,621	0,025	0,040
-551,627	45,294	0,034	0,023
-550,612	-3,595	0,102	-0,052
-549,598	25,952	0,016	-0,010
-548,583	75,670	-0,122	-0,096
-547,569	-75,956	-0,114	0,030
-546,554	800,000	0,024	0,073
-545,539	-200,000	-0,003	0,051
-544,525	98,019	0,060	-0,051
-543,510	800,000	-0,017	0,054
-542,496	800,000	-0,016	0,036
-541,481	32,470	-0,035	0,022
-540,466	-75,293	-0,044	-0,011
-539,452	154,556	0,036	-0,037
-538,437	-75,882	0,078	0,020
-537,423	800,000	-0,036	0,075
-536,408	173,720	-0,028	0,030
-535,393	-200,000	-0,093	0,000
-534,379	-200,000	0,003	-0,043
-533,364	-200,000	-0,018	0,092
-532,350	-200,000	-0,007	0,080
-531,335	142,066	0,080	-0,078
-530,321	375,607	-0,058	0,087
-529,306	-34,566	0,173	-0,070
-528,291	800,000	0,092	-0,190
-527,277	208,316	0,051	-0,059
-526,262	-11,734	-0,120	-0,058
-525,248	-200,000	-0,004	-0,038
-524,233	-153,070	0,092	-0,005
-523,218	500,574	-0,095	0,163
-522,204	130,539	0,005	0,005
-521,189	-31,459	0,093	-0,038
-520,175	800,000	-0,055	-0,169
-519,160	-19,328	0,134	0,061
-518,145	325,183	-0,101	0,143
-517,131	125,652	-0,065	0,061
-516,116	45,025	0,087	-0,059
-515,102	-200,000	0,018	-0,095
-514,087	-24,917	-0,086	-0,038
-513,072	-126,733	0,085	0,009
-512,058	-80,280	-0,031	0,008
-511,043	-191,874	0,058	0,000
-510,029	181,605	0,054	0,059
-509,014	656,464	0,084	0,160
-507,999	-200,000	-0,010	0,095
-506,985	-97,112	-0,015	0,003
-505,970	-94,813	0,059	-0,012
-504,956	200,668	-0,017	0,020
-503,941	-11,918	-0,059	0,029
-502,926	669,741	0,043	0,082
-501,912	27,017	0,057	0,035
-500,897	12,637	-0,065	0,037
-499,883	-39,170	-0,165	0,064
-498,868	512,503	-0,006	-0,011
-497,853	800,000	-0,006	-0,018
-496,839	800,000	0,030	0,081
-495,824	113,853	-0,104	0,093
-494,810	-50,852	0,090	0,031
-493,795	-195,781	-0,074	0,000
-492,781	554,899	0,065	-0,115
-491,766	620,171	0,042	-0,078
-490,751	-200,000	0,017	-0,078
-489,737	800,000	-0,005	0,012
-488,722	31,694	0,039	-0,025
-487,708	473,321	-0,062	0,103
-486,693	-114,743	0,037	0,005
-485,678	-200,000	0,011	0,082
-484,664	195,105	-0,067	-0,075
-483,649	38,616	-0,008	-0,005
-482,635	-200,000	0,006	-0,038
-481,620	294,797	0,096	0,130
-480,605	-29,504	-0,104	-0,043
-479,591	77,739	-0,088	0,069
-478,576	-200,000	0,015	0,090
-477,562	-184,690	0,136	0,002
-476,547	558,986	-0,059	-0,105
-475,532	66,175	-0,067	-0,050
-474,518	18,300	0,046	0,027
-473,503	638,706	0,015	0,029
-472,489	124,509	0,064	0,059
-471,474	800,000	-0,031	0,071
-470,459	92,433	-0,179	-0,149
-469,445	800,000	0,010	0,030
-468,430	800,000	-0,058	0,172
-467,416	14,399	0,052	-0,030
-466,401	800,000	-0,019	-0,042
-465,386	0,139	0,119	-0,062
-464,372	711,081	0,045	0,088
-463,357	-119,856	-0,059	0,007
-462,343	-200,000	-0,012	-0,128
-461,328	-200,000	0,002	-0,008
-460,313	56,762	0,069	0,049
-459,299	59,133	-0,123	0,089
-458,284	-200,000	0,002	0,124
-457,270	-133,553	-0,087	0,008
-456,255	562,710	-0,051	-0,091
-455,241	31,379	-0,012	0,008
-454,226	800,000	-0,014	-0,033
-453,211	-14,037	-0,067	0,032
-452,197	-40,876	0,066	-0,025
-451,182	-15,367	0,042	0,019
-450,168	-132,321	0,032	0,003
-449,153	-141,240	0,043	-0,003
-448,138	-200,000	0,004	0,068
-447,124	19,027	-0,083	-0,049
-446,109	-200,000	-0,000	-0,030
-445,095	-128,404	0,053	0,005
-444,080	-60,899	0,058	-0,018
-443,065	247,600	0,036	0,045
-442,051	61,450	0,047	-0,035
-441,036	-200,000	-0,010	0,034
-440,022	-25,149	-0,091	0,040
-439,007	-143,225	0,112	-0,008
-437,992	-158,504	0,046	0,002
-436,978	395,687	-0,050	0,077
-435,963	141,569	0,074	0,072
-434,949	800,000	-0,035	0,112
-433,934	34,496	0,077	-0,049
-432,919	-200,000	-0,008	0,169
-431,905	800,000	-0,026	-0,071
-430,890	115,934	0,068	0,061
-429,876	-43,102	-0,148	0,055
-428,861	-88,258	0,039	-0,009
-427,846	325,297	0,010	-0,013
-426,832	187,231	-0,047	-0,051
-425,817	-149,416	0,129	0,007
-424,803	124,992	-0,011	0,010
-423,788	139,853	0,035	-0,034
-422,773	-200,000	0,013	-0,043
-421,759	90,389	-0,050	-0,041
-420,744	-200,000	0,013	0,049
-419,730	-90,354	0,224	0,047
-418,715	88,958	-0,052	0,042
-417,701	-200,000	-0,012	0,061
-416,686	436,230	0,053	0,085
-415,671	-200,000	-0,020	0,121
-414,657	163,251	0,058	-0,060
-413,642	800,000	0,050	-0,102
-412,628	-200,000	-0,001	-0,108
-411,613	265,383	-0,022	0,029
-410,598	459,520	-0,038	-0,063
-409,584	746,023	0,003	0,007
-408,569	130,487	0,091	0,085
-407,555	-45,117	0,184	0,067
-406,540	1,500	-0,062	-0,033
-405,525	-61,003	0,081	0,025
-404,511	-115,124	-0,054	-0,007
-403,496	110,077	-0,053	-0,047
-402,482	191,170	-0,018	-0,020
-401,467	458,635	-0,045	0,074
-400,452	183,605	0,088	-0,096
-399,438	-200,000	-0,007	-0,096
-398,423	171,874	0,068	-0,071
-397,409	800,000	-0,016	-0,050
-396,394	23,331	-0,091	-0,055
-395,379	800,000	-0,037	0,088
-394,365	157,384	0,090	0,092
-393,350	-164,871	-0,178	-0,006
-392,336	-150,005	-0,126	0,007
-391,321	230,911	-0,035	-0,042
-390,306	-200,000	-0,007	0,115
-389,292	132,835	-0,042	0,040
-388,277	17,492	-0,029	0,017
-387,263	69,292	0,005	0,004
-386,248	-71,062	0,089	0,024
-385,233	84,865	0,104	0,084
-384,219	-119,171	-0,101	-0,013
-383,204	448,572	-0,014	0,023
-382,190	-200,000	-0,004	-0,042
-381,175	534,049	-0,058	0,102
-380,160	-200,000	0,018	-0,083
-379,146	-200,000	0,042	-0,185
-378,131	-200,000	-0,018	-0,121
-377,117	800,000	0,061	-0,176
-376,102	30,282	-0,065	-0,041
-375,088	183,672	0,034	-0,037
-374,073	68,315	0,014	-0,011
-373,058	-200,000	-0,029	0,204
-372,044	-39,712	0,091	-0,035
-371,029	-143,933	0,212	0,014
-370,015	193,753	0,007	0,008
-369,000	-40,609	-0,055	-0,021
-367,985	548,150	-0,073	-0,128
-366,971	-149,050	-0,122	0,007
-365,956	-97,272	0,032	0,006
-364,942	-26,422	0,058	-0,025
-363,927	-75,442	0,109	-0,028
-362,912	-39,464	-0,078	-0,030
-361,898	-78,293	0,106	-0,027
-360,883	5,975	0,102	-0,055
-359,869	800,000	-0,053	0,128
-358,854	140,536	-0,023	-0,023
-357,839	-55,637	0,116	0,038
-356,825	-15,504	-0,166	-0,077
-355,810	138,904	0,047	0,045
-354,796	93,405	-0,058	0,048
-353,781	311,337	-0,054	-0,075
-352,766	-64,555	-0,102	0,030
-351,752	55,441	0,104	-0,073
-350,737	704,227	-0,056	-0,109
-349,723	-200,000	0,017	0,095
-348,708	32,103	0,054	0,034
-347,693	454,272	0,063	0,102
-346,679	185,875	-0,044	-0,048
-345,664	-139,016	-0,025	-0,002
-344,650	-108,203	-0,024	-0,004
-343,635	52,952	0,003	-0,002
-342,620	205,374	0,032	0,037
-341,606	-47,480	-0,034	0,012
-340,591	800,000	-0,032	0,074
-339,577	-117,641	-0,201	0,026
-338,562	-200,000	-0,022	0,177
-337,548	-200,000	-0,032	0,134
-336,533	-89,787	-0,075	-0,016
-335,518	-3,910	0,063	-0,032
-334,504	-200,000	-0,029	0,126
-333,489	130,647	0,080	-0,075
-332,475	-83,361	-0,117	0,027
-331,460	-4,343	0,051	-0,026
-330,445	47,135	-0,027	0,018
-329,431	-1,503	0,147	0,076
-328,416	502,498	0,088	0,150
-327,402	800,000	-0,002	0,006
-326,387	-123,141	-0,125	0,014
-325,372	170,098	-0,050	-0,052
-324,358	201,309	-0,094	-0,107
-323,343	14,346	0,122	-0,070
-322,329	-22,211	-0,046	-0,021
-321,314	-141,396	-0,061	-0,004
-320,299	-200,000	0,014	0,085
-319,285	75,787	-0,050	-0,038
-318,270	470,439	0,043	0,072
-317,256	800,000	-0,041	-0,093
-316,241	207,547	0,111	-0,127
-315,226	221,890	0,052	-0,061
-314,212	-200,000	-0,012	0,064
-313,197	120,351	-0,143	-0,130
-312,183	-29,881	0,033	0,014
-311,168	-200,000	-0,000	-0,088
-310,153	0,523	-0,064	0,033
-309,139	-72,179	0,106	-0,028
-308,124	19,891	0,103	0,061
-307,110	12,413	0,196	-0,110
-306,095	800,000	-0,020	-0,057
-305,080	62,943	-0,038	-0,028
-304,066	-140,414	-0,181	0,014
-303,051	-29,036	-0,109	-0,046
-302,037	800,000	-0,030	-0,076
-301,022	-200,000	-0,003	0,028
-300,008	-200,000	-0,007	0,082
-298,993	800,000	-0,047	0,101
-297,978	-200,000	0,007	-0,052
-296,964	-92,860	-0,086	0,017
-295,949	-200,000	0,030	0,158
-294,935	-200,000	-0,002	-0,076
-293,920	83,522	-0,005	0,004
-292,905	-200,000	0,031	-0,117
-291,891	-128,204	0,044	0,005
-290,876	-11,215	0,011	0,005
-289,862	800,000	-0,057	-0,127
-288,847	-200,000	0,018	0,074
-287,832	-122,047	0,099	-0,012
-286,818	111,272	-0,122	-0,107
-285,803	800,000	-0,057	0,163
-284,789	-97,289	0,127	-0,024
-283,774	800,000	-0,053	-0,117
-282,759	9,160	-0,067	-0,037
-281,745	669,300	-0,062	-0,118
-280,730	100,861	0,095	-0,081
-279,716	162,998	0,074	-0,076
-278,701	7,420	0,034	0,018
-277,686	121,156	0,103	0,093
-276,672	63,765	0,053	0,039
-275,657	-200,000	-0,034	0,121
-274,643	800,000	0,030	0,070
-273,628	800,000	-0,015	0,034
-272,613	-57,508	-0,038	0,012
-271,599	-200,000	0,017	0,109
-270,584	44,625	-0,015	0,010
-269,570	-105,909	0,068	0,011
-268,555	-145,753	-0,102	-0,007
-267,540	130,330	-0,058	0,054
-266,526	-69,466	0,049	0,014
-265,511	-200,000	-0,001	-0,141
-264,497	800,000	0,008	-0,024
-263,482	-200,000	-0,014	0,046
-262,467	-200,000	-0,016	-0,081
-261,453	94,904	0,052	-0,043
-260,438	-68,043	-0,048	-0,013
-259,424	-61,635	-0,214	0,065
-258,409	136,598	-0,071	0,068
-257,395	39,046	0,134	0,088
-256,380	-68,488	-0,181	0,051
-255,365	-200,000	-0,020	-0,183
-254,351	178,602	-0,032	-0,035
-253,336	26,335	-0,107	-0,065
-252,322	-200,000	0,023	0,076
-251,307	-200,000	0,007	0,029
-250,292	800,000	-0,023	-0,069
-249,278	190,295	0,044	-0,048
-248,263	418,120	0,071	0,112
-247,249	33,099	0,028	0,017
-246,234	20,368	-0,060	-0,035
-245,219	519,198	0,049	0,084
-244,205	800,000	0,036	0,100
-243,190	6,415	-0,070	0,038
-242,176	769,923	-0,017	-0,034
-241,161	-124,335	0,134	-0,015
-240,146	433,237	0,052	-0,082
-239,132	800,000	0,049	0,108
-238,117	-43,788	-0,110	0,040
-237,103	-98,226	-0,047	0,009
-236,088	61,408	-0,107	0,078
-235,073	800,000	0,079	0,164
-234,059	539,357	0,095	0,166
-233,044	800,000	-0,038	-0,097
-232,030	-80,912	0,066	-0,016
-231,015	300,738	0,045	-0,061
-230,000	43,010	0,143	0,095
-228,986	135,410	-0,084	0,080
-227,971	-200,000	0,016	0,095
-226,957	-200,000	-0,001	0,088
-225,942	43,399	-0,045	0,030
-224,927	179,721	0,040	-0,043
-223,913	-23,536	-0,090	-0,039
-222,898	81,525	-0,148	-0,117
-221,884	-200,000	0,031	0,105
-220,869	-200,000	0,015	0,063
-219,855	-200,000	0,016	0,076
-218,840	-61,746	0,115	-0,035
-217,825	-142,539	-0,142	-0,010
-216,811	800,000	0,056	-0,150
-215,796	279,130	0,011	-0,015
-214,782	425,176	0,042	0,066
-213,767	405,353	0,033	0,052
-212,752	407,443	-0,048	-0,075
-211,738	140,911	0,084	0,081
-210,723	77,830	0,117	-0,091
-209,709	-200,000	0,010	-0,091
-208,694	82,920	-0,097	0,077
-207,679	261,865	-0,051	-0,065
-206,665	545,594	0,118	0,206
-205,650	-200,000	0,004	-0,086
-204,636	500,551	0,061	-0,103
-203,621	800,000	0,036	0,076
-202,606	-200,000	0,011	0,104
-201,592	-1,926	0,098	0,050
-200,577	135,884	0,146	-0,139
-199,563	800,000	-0,056	-0,122
-198,548	-200,000	-0,015	-0,127
-197,533	800,000	0,049	0,113
-196,519	-72,532	-0,039	-0,010
-195,504	337,436	0,015	-0,022
-194,490	-73,347	-0,086	0,023
-193,475	90,100	-0,122	-0,100
-192,460	-24,522	0,106	-0,046
-191,446	-125,669	0,164	0,018
-190,431	-41,970	0,066	0,024
-189,417	70,573	-0,040	0,030
-188,402	-200,000	0,018	-0,120
-187,387	219,728	-0,064	-0,075
-186,373	83,591	-0,090	-0,072
-185,358	-30,288	-0,029	0,012
-184,344	-200,000	-0,005	0,023
-183,329	-71,245	-0,129	0,035
-182,315	-15,087	0,078	0,036
-181,300	116,520	0,063	-0,057
-180,285	800,000	-0,038	-0,088
-179,271	-30,621	0,053	-0,022
-178,256	-200,000	0,001	-0,235
-177,242	194,155	-0,003	0,003
-176,227	-20,061	-0,017	-0,008
-175,212	-37,379	-0,064	-0,025
-174,198	83,102	0,038	-0,030
-173,183	-200,000	0,006	-0,104
-172,169	389,775	0,099	-0,150
-171,154	397,932	-0,041	-0,062
-170,139	-19,029	0,070	-0,032
-169,125	10,804	0,061	0,034
-168,110	54,125	0,083	0,058
-167,096	-115,156	-0,046	0,006
-166,081	-200,000	0,018	0,060
-165,066	193,971	-0,103	-0,114
-164,052	-200,000	-0,017	0,062
-163,037	-200,000	0,006	-0,025
-162,023	157,132	0,025	0,025
-161,008	-200,000	0,026	0,092
-159,993	379,847	-0,090	0,135
-158,979	-53,530	-0,099	0,033
-157,964	245,204	-0,013	-0,015
-156,950	-154,505	-0,026	0,001
-155,935	800,000	0,079	0,169
-154,920	-105,494	0,218	0,036
-153,906	33,525	0,043	0,027
-152,891	-59,591	0,048	-0,015
-151,877	701,873	-0,096	0,184
-150,862	-70,974	0,060	0,016
-149,847	-81,816	-0,107	0,025
-148,833	245,486	0,055	0,068
-147,818	-55,881	0,133	0,043
-146,804	125,648	-0,052	-0,048
-145,789	262,756	0,013	-0,017
-144,775	789,037	0,048	0,096
-143,760	224,281	-0,079	-0,093
-142,745	800,000	0,061	0,153
-141,731	-19,259	0,128	0,058
-140,716	-200,000	0,015	-0,138
-139,702	-86,186	0,200	-0,044
-138,687	-200,000	0,008	-0,037
-137,672	-36,035	-0,117	0,046
-136,658	-200,000	-0,039	-0,127
-135,643	287,174	0,038	0,050
-134,629	800,000	0,015	-0,034
-133,614	-200,000	-0,003	0,103
-132,599	-200,000	-0,021	0,069
-131,585	800,000	-0,073	-0,149
-130,570	66,211	0,041	-0,031
-129,556	114,543	-0,086	-0,076
-128,541	763,068	-0,052	0,103
-127,526	265,914	-0,066	-0,084
-126,512	-14,290	0,086	0,040
-125,497	-200,000	0,036	0,178
-124,483	16,849	0,008	0,005
-123,468	-17,192	0,038	0,017
-122,453	-163,716	-0,047	-0,002
-121,439	-200,000	-0,003	-0,025
-120,424	800,000	-0,024	0,068
-119,410	23,077	-0,037	-0,022
-118,395	-200,000	0,019	0,072
-117,380	328,340	0,039	0,054
-116,366	-200,000	-0,018	0,121
-115,351	63,299	0,051	-0,037
-114,337	321,624	-0,057	-0,079
-113,322	-200,000	-0,016	-0,076
-112,307	65,830	0,038	-0,028
-111,293	97,085	0,006	-0,005
-110,278	-200,000	-0,038	0,127
-109,264	137,172	0,081	0,077
-108,249	-200,000	0,003	0,027
-107,234	373,490	-0,040	0,059
-106,220	97,579	-0,119	-0,099
-105,205	-61,548	0,034	0,010
-104,191	800,000	-0,012	0,032
-103,176	-200,000	0,034	0,186
-102,162	519,569	0,062	0,107
-101,147	102,045	-0,112	-0,095
-100,132	-32,891	0,076	-0,031
-99,118	152,574	-0,060	0,059
-98,103	18,593	-0,041	-0,024
-97,089	-138,855	-0,104	0,008
-96,074	-22,470	-0,073	-0,032
-95,059	37,647	0,009	0,006
-94,045	224,543	-0,091	0,107
-93,030	112,900	-0,113	0,100
-92,016	232,322	-0,038	0,046
-91,001	1,116	0,063	-0,033
-89,986	245,053	0,031	-0,038
-88,972	346,223	0,063	0,090
-87,957	-200,000	0,020	-0,116
-86,943	101,249	-0,091	-0,077
-85,928	-66,467	-0,040	-0,011
-84,913	34,693	-0,025	-0,016
-83,899	-121,723	0,120	0,014
-82,884	-70,126	0,164	0,045
-81,870	-22,546	-0,087	0,038
-80,855	441,315	-0,039	0,062
-79,840	-200,000	0,038	0,191
-78,826	-113,225	-0,159	-0,022
-77,811	-200,000	-0,009	-0,072
-76,797	-72,827	0,141	-0,037
-75,782	6,954	0,047	0,025
-74,767	345,777	-0,088	0,126
-73,753	-4,103	-0,068	0,034
-72,738	20,592	-0,111	0,065
-71,724	234,042	-0,055	0,066
-70,709	-200,000	0,001	0,093
-69,694	800,000	-0,032	0,088
-68,680	-110,408	-0,049	-0,007
-67,665	-142,961	-0,119	-0,008
-66,651	70,339	0,106	-0,080
-65,636	-200,000	-0,015	0,132
-64,622	800,000	-0,049	-0,119
-63,607	800,000	0,012	0,032
-62,592	619,158	0,036	0,065
-61,578	62,982	-0,184	0,133
-60,563	-99,012	0,116	0,021
-59,549	-200,000	0,016	-0,062
-58,534	-91,621	-1,296	0,265
-57,519	435,115	-0,964	-1,525
-56,505	-200,000	-0,722	-4,265
-55,490	202,082	0,514	-0,576
-54,476	800,000	4,717	11,543
-53,461	-200,000	12,184	232,793
-52,446	-200,000	680,670	2212,776
-51,432	590,772	1623,709	2915,645
-50,417	126,692	1645,399	1510,847
-49,403	80,757	1301,950	1016,602
-48,388	41,981	1035,577	679,745
-47,373	26,227	991,858	598,954
-46,359	25,251	981,895	589,690
-45,344	24,521	977,630	584,700
-44,330	24,360	976,300	583,351
-43,315	24,280	974,793	582,168
-42,300	24,312	973,797	581,654
-41,286	24,290	973,036	581,103
-40,271	24,236	971,826	580,181
-39,257	24,246	970,997	579,697
-38,242	24,263	970,005	579,135
-37,227	24,257	969,234	578,633
-36,213	24,223	968,288	577,935
-35,198	24,248	967,336	577,425
-34,184	24,247	966,677	577,005
-33,169	24,251	965,707	576,415
-32,154	24,231	964,734	575,748
-31,140	24,257	963,968	575,351
-30,125	24,310	963,032	574,944
-29,111	24,296	962,243	574,403
-28,096	24,277	961,586	573,928
-27,082	24,277	960,771	573,417
-26,067	24,245	960,095	572,888
-25,052	24,354	959,191	572,679
-24,038	24,207	958,739	571,910
-23,023	24,252	958,071	571,635
-22,009	24,308	957,298	571,332
-20,994	24,274	956,924	570,977
-19,979	24,348	956,053	570,671
-18,965	24,322	955,291	570,109
-17,950	24,303	954,718	569,686
-16,936	24,206	954,023	568,936
-15,921	24,240	953,260	568,568
-14,906	24,126	952,689	567,839
-13,892	24,167	952,094	567,595
-12,877	24,154	951,515	567,184
-11,863	24,112	950,681	566,529
-10,848	24,138	950,186	566,296
-9,833	24,268	949,791	566,455
-8,819	24,253	949,061	565,948
-7,804	24,194	948,366	565,322
-6,790	24,098	948,075	564,821
-5,775	24,184	947,243	564,574
-4,760	24,164	946,724	564,180
-3,746	24,122	946,100	563,652
-2,731	24,032	945,234	562,829
-1,717	23,960	944,676	562,246
-0,702	23,931	943,996	561,725
0,313	23,760	943,380	561,665
1,327	26,247	941,167	568,177
2,342	34,310	821,295	517,925
3,356	30,329	518,456	320,030
4,371	6,329	379,359	203,304
5,386	3,356	362,064	190,327
6,400	1,724	355,633	184,936
7,415	0,675	352,766	182,158
8,429	0,307	351,225	180,902
9,444	0,499	350,140	180,557
10,459	0,362	349,379	179,985
11,473	0,368	348,894	179,725
12,488	0,551	348,425	179,687
13,502	0,629	348,065	179,579
14,517	0,450	347,401	179,007
15,531	0,102	346,874	178,305
16,546	0,052	346,262	177,914
17,561	0,083	345,818	177,707
18,575	0,210	345,372	177,613
19,590	0,022	345,149	177,259
20,604	0,063	344,850	177,138
21,619	-0,048	344,258	176,687
22,634	0,052	344,000	176,658
23,648	0,066	343,610	176,458
24,663	0,202	343,208	176,397
25,677	0,157	343,050	176,247
26,692	0,002	342,813	175,926
27,707	0,132	342,297	175,798
28,721	0,028	342,016	175,517
29,736	0,055	341,762	175,402
30,750	-0,053	341,347	175,047
31,765	-0,003	341,232	175,031
32,780	-0,124	341,027	174,769
33,794	0,022	340,608	174,709
34,809	0,059	340,215	174,535
35,823	0,087	339,926	174,404
36,838	-0,086	339,720	174,081
37,853	-0,132	339,409	173,853
38,867	-0,061	339,136	173,779
39,882	-0,137	338,907	173,558
40,896	0,020	338,617	173,577
41,911	0,007	338,317	173,392
42,926	-0,108	337,987	173,075
43,940	-0,102	337,696	172,918
44,955	-0,243	337,521	172,649
45,969	-0,090	337,096	172,593
46,984	-0,173	336,942	172,402
47,999	-0,535	336,595	171,793
49,013	-0,622	336,296	171,525
50,028	-0,814	336,009	171,141
51,042	-0,697	335,694	171,100
52,057	-0,710	335,437	170,939
53,071	-0,764	335,111	170,696
54,086	-0,674	334,991	170,723
55,101	-0,566	334,700	170,683
56,115	-0,291	334,556	170,909
57,130	-0,095	334,504	171,092
58,144	0,246	334,300	171,363
59,159	0,245	333,972	171,179
60,174	0,098	333,851	170,933
61,188	0,271	333,443	170,906
62,203	0,172	333,235	170,671
63,217	0,093	332,993	170,442
64,232	0,108	332,822	170,357
65,247	0,293	332,450	170,362
66,261	0,195	332,120	170,066
67,276	0,039	331,789	169,705
68,290	-0,244	331,561	169,251
69,305	-0,247	331,152	169,024
70,320	-0,229	331,031	168,968
71,334	-0,056	330,833	169,048
72,349	0,237	330,737	169,315
73,363	0,178	330,545	169,135
74,378	0,245	330,187	169,012
75,393	0,221	329,926	168,836
76,407	0,087	329,705	168,557
77,422	0,173	329,445	168,506
78,436	0,240	329,022	168,349
79,451	0,198	329,039	168,296
80,466	0,113	328,590	167,956
81,480	-0,034	328,196	167,575
82,495	-0,082	327,928	167,369
83,509	0,068	327,631	167,370
84,524	-0,259	327,396	166,871
85,539	-0,306	327,167	166,685
86,553	-0,355	326,926	166,493
87,568	-0,189	326,710	166,554
88,582	-0,287	326,679	166,414
89,597	-0,230	326,271	166,255
90,611	-0,040	326,176	166,403
91,626	0,107	325,913	166,417
92,641	0,147	325,691	166,334
93,655	0,011	325,499	166,070
94,670	-0,169	325,265	165,736
95,684	-0,078	325,006	165,691
96,699	-0,099	324,721	165,507
97,714	-0,162	324,446	165,282
98,728	-0,173	324,141	165,100
99,743	-0,213	323,903	164,920
100,757	-0,324	323,702	164,681
101,772	-0,164	323,431	164,704
102,787	-0,220	323,319	164,571
103,801	-0,108	323,158	164,597
104,816	0,075	322,861	164,633
105,830	0,084	322,685	164,538
106,845	0,115	322,641	164,535
107,860	0,032	322,378	164,295
108,874	-0,012	322,044	164,063
109,889	0,096	321,672	163,976
110,903	0,061	321,550	163,861
111,918	-0,063	321,322	163,595
112,933	-0,028	321,123	163,517
113,947	0,049	320,731	163,387
114,962	0,188	320,568	163,441
115,976	0,183	320,452	163,363
116,991	0,016	320,189	163,032
118,006	0,067	319,985	162,968
119,020	0,123	319,814	162,928
120,035	0,158	319,724	162,906
121,049	0,160	319,511	162,785
122,064	0,076	319,251	162,547
123,079	0,051	318,961	162,357
124,093	-0,023	318,836	162,199
125,108	-0,061	318,378	161,910
126,122	-0,163	318,011	161,599
127,137	-0,509	317,752	161,078
128,151	-0,502	317,580	160,984
129,166	-0,308	317,403	161,089
130,181	-0,289	317,194	160,990
131,195	-0,371	316,900	160,738
132,210	-0,121	316,598	160,840
133,224	0,119	316,548	161,058
134,239	0,114	316,455	160,992
135,254	0,110	316,144	160,814
136,268	0,013	315,861	160,552
137,283	-0,266	315,607	160,109
138,297	-0,340	315,228	159,823
139,312	-0,297	315,054	159,767
140,327	0,134	314,827	160,099
141,341	0,253	314,818	160,208
142,356	0,408	314,689	160,293
143,370	0,409	314,616	160,243
144,385	0,256	314,402	159,956
145,400	0,219	314,004	159,699
146,414	0,447	313,710	159,779
147,429	0,457	313,592	159,716
148,443	0,527	313,486	159,722
149,458	0,436	313,230	159,480
150,473	0,478	313,009	159,397
151,487	0,262	312,684	158,989
152,502	0,274	312,517	158,903
153,516	0,450	312,307	158,968
154,531	0,494	312,118	158,904
155,546	0,364	311,964	158,675
156,560	0,180	311,758	158,361
157,575	0,183	311,432	158,184
158,589	0,292	311,263	158,199
159,604	0,258	311,178	158,106
160,619	0,342	310,698	157,936
161,633	0,362	310,609	157,898
162,648	0,179	310,539	157,656
163,662	0,423	310,315	157,785
164,677	0,547	310,027	157,755
165,692	0,456	309,734	157,496
166,706	0,441	309,732	157,465
167,721	0,553	309,408	157,404
168,735	0,362	309,249	157,108
169,750	0,583	309,113	157,257
170,764	0,661	309,006	157,270
171,779	0,581	308,717	157,026
172,794	0,571	308,499	156,890
173,808	0,365	308,297	156,558
174,823	0,044	307,778	155,946
175,837	-0,199	307,750	155,665
176,852	0,248	307,767	156,126
177,867	0,684	307,575	156,469
178,881	0,574	307,464	156,284
179,896	0,694	307,016	156,167
180,910	0,592	306,802	155,938
181,925	0,576	306,552	155,780
182,940	0,691	306,543	155,881
183,954	0,572	306,346	155,644
184,969	0,465	306,080	155,384
185,983	0,380	305,802	155,141
186,998	0,394	305,612	155,045
188,013	0,469	305,303	154,952
189,027	0,503	305,175	154,908
190,042	0,500	305,161	154,885
191,056	0,428	305,025	154,727
192,071	0,728	304,784	154,900
193,086	0,732	304,549	154,771
194,100	0,819	304,361	154,751
195,115	0,625	303,904	154,305
196,129	0,619	303,756	154,211
197,144	0,694	303,539	154,164
198,159	0,678	303,390	154,058
199,173	0,780	303,176	154,040
200,188	0,915	302,950	154,050
201,202	0,561	302,819	153,608
202,217	-0,035	302,305	152,723
203,232	-0,039	302,090	152,598
204,246	0,267	301,941	152,821
205,261	0,601	301,794	153,073
206,275	0,537	301,856	153,026
207,290	0,552	301,519	152,857
208,304	0,605	301,282	152,777
209,319	0,623	301,166	152,723
210,334	0,780	300,889	152,728
211,348	0,511	300,691	152,341
212,363	0,650	300,431	152,336
213,377	0,629	300,426	152,299
214,392	0,788	300,072	152,267
215,407	0,432	299,827	151,769
216,421	0,220	299,640	151,446
217,436	0,189	299,424	151,292
218,450	0,385	299,333	151,432
219,465	0,533	299,170	151,484
220,480	0,641	298,873	151,429
221,494	0,414	298,917	151,210
222,509	0,375	298,580	150,986
223,523	0,651	298,463	151,191
224,538	0,612	298,320	151,065
225,553	0,635	298,084	150,956
226,567	0,757	297,794	150,918
227,582	0,773	297,839	150,944
228,596	0,676	297,650	150,738
229,611	0,788	297,359	150,689
230,626	0,808	297,130	150,579
231,640	0,283	296,872	149,909
232,655	-0,107	296,432	149,285
233,669	-0,149	296,181	149,103
234,684	-0,176	296,062	149,002
235,699	-0,063	295,943	149,042
236,713	0,058	295,764	149,059
237,728	0,228	295,662	149,164
238,742	0,266	295,481	149,096
239,757	0,679	295,295	149,401
240,772	0,796	295,035	149,372
241,786	0,673	295,035	149,236
242,801	0,292	294,771	148,712
243,815	0,199	294,616	148,528
244,830	0,422	294,327	148,590
245,844	0,313	294,068	148,338
246,859	0,249	293,927	148,190
247,874	0,219	293,651	148,009
248,888	0,409	293,540	148,126
249,903	0,462	293,534	148,163
250,917	0,537	293,300	148,106
251,932	0,954	293,302	148,505
252,947	1,534	293,327	149,076
253,961	1,769	293,159	149,209
254,976	2,129	293,229	149,586
255,990	3,349	293,458	150,892
257,005	3,867	293,678	151,503
258,020	4,520	293,693	152,140
259,034	4,388	293,508	151,901
260,049	4,186	293,301	151,582
261,063	4,125	292,907	151,304
262,078	4,227	293,006	151,443
263,093	5,011	292,845	152,115
264,107	4,949	292,639	151,934
265,122	4,954	292,516	151,861
266,136	5,160	292,478	152,030
267,151	5,100	292,192	151,809
268,166	4,925	291,997	151,523
269,180	4,794	291,663	151,208
270,195	4,744	291,545	151,085
271,209	4,884	291,210	151,034
272,224	4,662	291,117	150,756
273,239	4,545	290,950	150,542
274,253	4,642	290,733	150,510
275,268	5,298	290,784	151,163
276,282	4,988	290,456	150,677
277,297	5,065	290,326	150,671
278,312	5,347	290,104	150,816
279,326	5,012	289,819	150,330
280,341	4,886	289,687	150,126
281,355	4,817	289,479	149,938
282,370	4,611	289,239	149,601
283,384	4,563	289,064	149,450
284,399	4,845	288,950	149,650
285,414	4,911	288,828	149,638
286,428	4,739	288,385	149,229
287,443	4,510	288,281	148,941
288,457	4,439	287,951	148,689
289,472	4,452	287,921	148,672
290,487	4,608	287,592	148,640
291,501	4,360	287,359	148,268
292,516	4,275	287,244	148,114
293,530	4,066	287,116	147,834
294,545	4,468	287,024	148,159
295,560	4,609	286,638	148,081
296,574	4,376	286,427	147,737
297,589	4,471	286,329	147,763
298,603	4,955	286,381	148,240
299,618	4,943	286,269	148,157
300,633	4,589	285,905	147,618
301,647	4,512	285,813	147,484
302,662	4,671	285,579	147,502
303,676	4,511	285,285	147,184
304,691	4,291	285,084	146,857
305,706	4,224	284,742	146,604
306,720	4,100	284,654	146,428
307,735	4,014	284,466	146,236
308,749	4,422	284,203	146,476
309,764	4,502	284,166	146,519
310,779	4,232	283,890	146,109
311,793	4,113	283,667	145,868
312,808	4,173	283,495	145,823
313,822	4,305	283,408	145,891
314,837	4,154	283,177	145,615
315,852	3,902	283,060	145,305
316,866	4,008	282,977	145,349
317,881	4,280	282,582	145,389
318,895	4,337	282,308	145,289
319,910	3,948	282,168	144,838
320,925	4,073	281,839	144,773
321,939	4,170	281,940	144,904
322,954	4,400	281,780	145,025
323,968	4,432	281,606	144,952
324,983	4,439	281,453	144,867
325,997	4,560	281,419	144,951
327,012	4,466	281,234	144,755
328,027	4,473	281,080	144,668
329,041	4,422	280,690	144,407
330,056	4,511	280,631	144,447
331,070	4,418	280,529	144,295
332,085	4,316	280,277	144,057
333,100	4,394	280,049	144,000
334,114	4,313	279,800	143,784
335,129	4,251	279,577	143,599
336,143	4,397	279,594	143,731
337,158	4,687	279,401	143,888
338,173	4,394	279,180	143,489
339,187	4,199	278,930	143,167
340,202	4,288	278,802	143,170
341,216	4,458	278,675	143,251
342,231	4,468	278,592	143,204
343,246	4,465	278,301	143,039
344,260	4,389	278,133	142,870
345,275	4,635	278,022	143,028
346,289	4,854	277,959	143,185
347,304	4,818	277,745	143,028
348,319	4,516	277,472	142,597
349,333	4,560	277,311	142,541
350,348	4,704	277,226	142,618
351,362	4,901	276,986	142,664
352,377	4,690	276,814	142,368
353,392	4,760	276,685	142,353
354,406	4,728	276,465	142,198
355,421	191,995	1335,811	1415,993
356,435	155,228	1465,004	1416,161
