DTS Sentinel unit serial number:	SN410029Multiplexer serial number:	ORYXHardware model number:	OX2-SRSoftware version number:	ORYX F/W v4,00 Oryx Data Collector v3.7.2.0data status	okinstallation	B4 Nyhavnadifferential loss correction	single-endedforward channel	channel 2reverse channel	N/Adate	2023/12/18time	19:20:13forward acquisition time	300,00reverse acquisition time	0,00gamma	499,1914k internal	0,3124k external	0,3124temperature offset calibration	1,0000default loss term (dB/km)	0,3820temperature slope calibration	1,0000multiplexer offset coefficient	1,0000multiplexer slope coefficient	1,0000fibre end	0,00T internal ref (°C)	21,87T ext. ref 1 (°C)	6,93T ext. ref 2 (°C)	6,97length (m)	temperature (°C)	Stokes	anti-Stokes-744,400	-200,000	-0,000	-0,170
-743,385	-170,478	-0,310	-0,008
-742,371	85,033	-0,004	0,004
-741,356	385,804	-0,135	0,209
-740,342	-4,340	0,053	0,027
-739,327	237,477	-0,217	0,268
-738,312	93,168	-0,103	-0,087
-737,298	-117,707	-0,242	-0,032
-736,283	322,151	-0,055	-0,079
-735,269	800,000	-0,097	0,229
-734,254	596,459	0,072	-0,134
-733,239	-66,381	-0,258	-0,076
-732,225	-200,000	0,023	-0,121
-731,210	-200,000	-0,031	0,171
-730,196	231,302	0,051	0,062
-729,181	800,000	0,112	0,270
-728,167	16,879	0,043	0,025
-727,152	376,221	0,044	-0,067
-726,137	635,750	0,050	0,095
-725,123	-35,410	-0,086	0,035
-724,108	-200,000	0,000	-0,037
-723,094	83,872	-0,124	-0,101
-722,079	-26,249	-0,176	-0,077
-721,064	-200,000	0,005	0,029
-720,050	285,179	-0,018	0,024
-719,035	-200,000	-0,026	-0,117
-718,021	-2,422	-0,157	0,082
-717,006	800,000	-0,065	-0,148
-715,991	-48,524	-0,111	0,039
-714,977	666,341	0,066	0,127
-713,962	5,743	-0,058	-0,032
-712,948	-143,143	0,063	0,004
-711,933	800,000	-0,008	-0,021
-710,918	-148,220	-0,145	0,009
-709,904	-114,989	-0,133	0,019
-708,889	-96,666	-0,187	-0,036
-707,875	140,332	-0,047	-0,046
-706,860	-127,264	-0,024	0,003
-705,845	-145,940	-0,121	0,008
-704,831	-173,258	0,034	0,001
-703,816	800,000	-0,021	0,047
-702,802	473,879	0,022	-0,037
-701,787	-4,739	0,041	-0,021
-700,772	13,733	-0,051	-0,029
-699,758	-200,000	-0,020	-0,091
-698,743	-200,000	0,000	-0,095
-697,729	257,661	0,150	0,193
-696,714	452,303	0,087	0,143
-695,699	-200,000	-0,005	0,061
-694,685	-150,870	-0,103	-0,006
-693,670	-93,992	-0,032	-0,006
-692,656	800,000	-0,044	-0,134
-691,641	407,109	0,041	-0,064
-690,627	800,000	0,033	0,090
-689,612	611,716	-0,033	0,061
-688,597	-200,000	0,002	0,044
-687,583	155,902	-0,148	0,152
-686,568	-200,000	0,057	-0,190
-685,554	-143,645	-0,067	0,005
-684,539	800,000	-0,023	0,071
-683,524	127,043	0,156	-0,147
-682,510	800,000	-0,070	0,155
-681,495	-140,599	-0,122	-0,009
-680,481	-200,000	0,003	-0,160
-679,466	-200,000	0,024	-0,091
-678,451	351,801	-0,088	-0,130
-677,437	-200,000	-0,026	-0,094
-676,422	110,500	-0,103	0,092
-675,408	493,931	-0,057	0,098
-674,393	-183,423	-0,086	-0,001
-673,378	-67,996	-0,069	-0,020
-672,364	-38,581	-0,024	-0,010
-671,349	58,692	-0,038	-0,028
-670,335	180,425	0,096	-0,105
-669,320	172,892	-0,065	0,070
-668,305	-200,000	0,020	0,111
-667,291	-77,205	0,055	-0,014
-666,276	-42,299	-0,172	-0,065
-665,262	-66,129	0,122	0,036
-664,247	291,104	-0,071	0,096
-663,232	121,747	-0,082	-0,076
-662,218	23,241	-0,067	-0,041
-661,203	-121,437	-0,066	0,008
-660,189	-200,000	0,014	-0,064
-659,174	3,380	-0,061	-0,033
-658,159	685,781	-0,033	0,064
-657,145	800,000	-0,013	-0,038
-656,130	-114,071	0,097	0,014
-655,116	14,678	0,046	0,026
-654,101	-117,192	-0,153	-0,020
-653,086	800,000	-0,019	-0,046
-652,072	-151,493	-0,175	-0,010
-651,057	-200,000	0,010	-0,044
-650,043	-82,396	-0,284	-0,068
-649,028	-200,000	-0,038	-0,133
-648,014	46,929	0,090	0,062
-646,999	428,558	0,039	0,063
-645,984	800,000	-0,038	-0,113
-644,970	-200,000	-0,025	-0,095
-643,955	310,856	-0,089	-0,124
-642,941	800,000	0,004	0,009
-641,926	-110,593	-0,046	0,007
-640,911	-143,424	0,100	0,007
-639,897	66,965	0,035	0,026
-638,882	-85,699	0,088	-0,020
-637,868	169,233	-0,025	-0,026
-636,853	166,144	-0,028	-0,029
-635,838	34,803	-0,022	0,015
-634,824	-77,050	0,071	0,018
-633,809	-150,112	-0,139	0,008
-632,795	-82,079	0,023	-0,006
-631,780	-93,793	0,054	-0,011
-630,765	800,000	-0,063	0,193
-629,751	-149,824	-0,098	0,006
-628,736	51,781	-0,084	0,059
-627,722	-81,809	0,146	0,035
-626,707	-55,550	0,040	-0,013
-625,692	-150,142	0,084	0,005
-624,678	-200,000	0,030	-0,162
-623,663	-200,000	-0,004	-0,035
-622,649	114,229	-0,005	-0,005
-621,634	-200,000	-0,001	-0,013
-620,619	-90,552	0,102	0,022
-619,605	-85,966	-0,088	-0,020
-618,590	171,403	-0,022	0,024
-617,576	-200,000	0,000	-0,016
-616,561	346,291	-0,032	0,046
-615,546	112,686	-0,086	-0,077
-614,532	-200,000	0,027	-0,167
-613,517	-187,139	-0,066	-0,001
-612,503	-200,000	-0,010	-0,040
-611,488	-200,000	0,035	-0,125
-610,474	-200,000	0,000	0,046
-609,459	-19,819	0,029	0,013
-608,444	-82,532	-0,164	-0,039
-607,430	102,246	-0,025	-0,022
-606,415	-196,881	-0,114	0,001
-605,401	-143,664	-0,097	-0,007
-604,386	-179,882	-0,077	-0,001
-603,371	-200,000	-0,019	0,097
-602,357	-64,594	0,052	-0,016
-601,342	473,814	-0,014	0,024
-600,328	34,259	0,061	-0,040
-599,313	-200,000	0,004	0,033
-598,298	-200,000	-0,012	0,076
-597,284	800,000	0,026	0,056
-596,269	11,586	-0,098	0,056
-595,255	440,227	-0,072	0,116
-594,240	59,042	0,080	0,059
-593,225	-142,277	-0,099	0,007
-592,211	-93,807	-0,059	0,012
-591,196	141,086	0,031	0,031
-590,182	364,930	0,097	-0,145
-589,167	-18,481	0,053	0,025
-588,152	-101,633	-0,150	0,027
-587,138	-96,092	0,118	0,023
-586,123	134,463	-0,024	0,023
-585,109	-137,221	-0,156	0,013
-584,094	115,903	-0,109	-0,099
-583,079	-34,670	0,026	-0,010
-582,065	800,000	0,066	0,215
-581,050	-200,000	-0,006	0,150
-580,036	71,479	-0,042	0,032
-579,021	230,387	-0,061	-0,074
-578,006	800,000	-0,036	0,107
-576,992	-200,000	-0,010	0,125
-575,977	-62,343	-0,038	-0,012
-574,963	92,081	0,118	0,098
-573,948	228,882	0,055	0,067
-572,934	-122,368	-0,043	-0,005
-571,919	-200,000	-0,016	-0,097
-570,904	-200,000	0,032	-0,120
-569,890	-200,000	0,010	-0,118
-568,875	20,147	0,038	0,023
-567,861	611,370	0,040	0,075
-566,846	-200,000	0,003	0,053
-565,831	-200,000	-0,035	0,142
-564,817	270,662	0,086	-0,112
-563,802	-200,000	0,016	-0,185
-562,788	800,000	0,014	-0,034
-561,773	-12,111	0,142	0,069
-560,758	107,348	-0,073	0,064
-559,744	-130,874	0,034	-0,003
-558,729	-22,777	-0,062	0,028
-557,715	8,652	0,032	-0,018
-556,700	-200,000	-0,028	-0,111
-555,685	255,838	0,040	0,051
-554,671	-184,900	0,227	-0,003
-553,656	765,677	0,092	0,185
-552,642	-73,305	-0,047	-0,013
-551,627	-36,078	-0,122	-0,048
-550,612	-200,000	-0,043	-0,199
-549,598	-31,139	-0,090	-0,037
-548,583	800,000	-0,095	-0,201
-547,569	74,722	-0,042	-0,033
-546,554	236,653	0,082	-0,101
-545,539	80,934	-0,050	-0,040
-544,525	-200,000	0,006	-0,113
-543,510	147,479	-0,051	0,050
-542,496	800,000	-0,059	-0,147
-541,481	-16,813	-0,044	0,020
-540,466	-200,000	0,008	-0,029
-539,452	800,000	-0,016	0,043
-538,437	35,032	-0,122	0,079
-537,423	-74,089	-0,102	0,027
-536,408	-200,000	-0,018	-0,072
-535,393	321,424	0,083	-0,117
-534,379	93,718	0,042	-0,035
-533,364	-153,835	-0,032	0,002
-532,350	-200,000	-0,001	0,019
-531,335	-53,559	0,115	-0,039
-530,321	800,000	-0,003	0,010
-529,306	188,946	0,074	0,082
-528,291	-104,685	-0,028	-0,005
-527,277	49,655	-0,019	0,013
-526,262	-27,326	-0,127	-0,055
-525,248	463,940	0,024	-0,039
-524,233	305,135	0,032	-0,044
-523,218	-116,632	0,076	0,010
-522,204	800,000	0,029	0,069
-521,189	-108,302	-0,107	-0,017
-520,175	-126,233	-0,100	0,011
-519,160	-86,046	-0,155	0,035
-518,145	-200,000	0,035	0,205
-517,131	194,234	-0,040	-0,044
-516,116	-102,560	0,075	0,013
-515,102	30,201	-0,090	0,057
-514,087	148,036	0,058	-0,058
-513,072	-200,000	-0,047	-0,230
-512,058	-34,540	-0,039	-0,016
-511,043	-116,694	-0,073	-0,010
-510,029	-147,456	0,123	-0,008
-509,014	299,951	0,077	-0,106
-507,999	-200,000	-0,005	0,046
-506,985	800,000	-0,039	-0,121
-505,970	800,000	-0,022	-0,072
-504,956	-51,659	0,107	-0,037
-503,941	182,691	0,064	0,069
-502,926	399,608	0,103	0,160
-501,912	149,498	0,054	0,055
-500,897	-131,325	-0,081	-0,008
-499,883	60,014	0,087	-0,063
-498,868	-5,992	0,026	0,013
-497,853	-200,000	0,001	-0,013
-496,839	642,045	0,060	0,114
-495,824	-200,000	-0,007	0,047
-494,810	264,703	-0,056	-0,072
-493,795	341,982	-0,060	-0,086
-492,781	-8,660	0,072	0,035
-491,766	-113,470	-0,046	0,007
-490,751	91,776	-0,100	0,083
-489,737	-200,000	-0,014	-0,174
-488,722	-45,563	0,089	-0,033
-487,708	-169,734	0,017	-0,000
-486,693	35,925	0,050	0,032
-485,678	44,242	0,097	-0,065
-484,664	-68,601	-0,077	0,022
-483,649	-200,000	-0,010	-0,157
-482,635	-145,124	0,061	-0,004
-481,620	580,310	0,050	-0,090
-480,605	-9,566	0,068	-0,033
-479,591	18,079	-0,116	-0,068
-478,576	43,821	-0,065	0,044
-477,562	-65,794	0,043	-0,013
-476,547	10,105	0,121	-0,067
-475,532	800,000	0,082	-0,192
-474,518	198,168	-0,043	-0,049
-473,503	553,448	-0,050	0,089
-472,489	-32,361	0,093	-0,038
-471,474	-96,982	0,108	0,021
-470,459	-90,893	0,048	0,010
-469,445	-37,618	-0,108	0,042
-468,430	-71,593	-0,106	0,029
-467,416	196,191	0,020	-0,023
-466,401	-200,000	0,009	-0,091
-465,386	51,492	0,111	-0,077
-464,372	143,045	0,071	0,069
-463,357	-16,690	0,090	-0,042
-462,343	-200,000	-0,040	0,159
-461,328	148,993	-0,102	-0,101
-460,313	-73,854	0,031	0,008
-459,299	-60,178	0,138	0,043
-458,284	-100,807	0,099	0,018
-457,270	26,223	0,039	0,024
-456,255	-200,000	-0,027	0,095
-455,241	800,000	0,025	-0,079
-454,226	-110,951	-0,136	0,020
-453,211	-200,000	-0,000	0,040
-452,197	562,731	-0,024	0,043
-451,182	-200,000	0,031	0,127
-450,168	3,346	-0,077	-0,041
-449,153	800,000	0,021	0,057
-448,138	-133,145	-0,072	-0,007
-447,124	-61,974	-0,047	0,014
-446,109	-15,570	0,050	-0,023
-445,095	800,000	-0,038	-0,079
-444,080	-1,456	-0,070	0,036
-443,065	-200,000	0,023	0,122
-442,051	-3,457	-0,106	0,054
-441,036	-91,795	0,095	-0,020
-440,022	103,912	-0,087	0,075
-439,007	800,000	0,014	-0,041
-437,992	57,133	0,171	0,122
-436,978	800,000	0,075	0,196
-435,963	-68,244	0,056	-0,016
-434,949	-95,923	0,054	0,010
-433,934	-200,000	-0,006	-0,035
-432,919	391,462	0,043	0,066
-431,905	800,000	-0,020	0,053
-430,890	514,016	0,064	0,110
-429,876	312,779	-0,033	0,045
-428,861	-200,000	0,013	0,050
-427,846	800,000	0,040	0,105
-426,832	-115,009	0,106	0,015
-425,817	222,293	-0,033	-0,039
-424,803	296,726	0,081	-0,110
-423,788	193,974	0,082	-0,092
-422,773	653,126	0,068	0,128
-421,759	800,000	-0,070	0,162
-420,744	-32,929	-0,058	0,024
-419,730	320,647	0,062	-0,087
-418,715	263,470	-0,056	-0,072
-417,701	-200,000	-0,012	-0,058
-416,686	-5,887	-0,018	0,009
-415,671	-161,073	-0,123	0,005
-414,657	47,187	0,106	0,073
-413,642	176,326	0,089	0,095
-412,628	-156,294	-0,062	-0,003
-411,613	138,687	-0,008	0,008
-410,598	-53,770	-0,136	0,045
-409,584	525,324	-0,052	-0,091
-408,569	800,000	0,026	-0,055
-407,555	-93,451	-0,121	-0,024
-406,540	162,807	-0,038	-0,039
-405,525	177,761	0,051	0,055
-404,511	135,535	-0,079	-0,076
-403,496	-96,757	-0,034	-0,007
-402,482	-86,991	0,162	-0,036
-401,467	285,943	0,034	-0,046
-400,452	645,901	-0,087	0,164
-399,438	-200,000	-0,016	0,128
-398,423	-84,280	-0,022	0,005
-397,409	-95,204	-0,041	0,008
-396,394	149,328	-0,063	0,063
-395,379	-44,903	-0,122	-0,045
-394,365	-16,556	-0,037	0,017
-393,350	7,752	0,025	-0,014
-392,336	-142,131	-0,189	-0,014
-391,321	532,651	-0,068	-0,119
-390,306	242,885	0,063	0,078
-389,292	-200,000	-0,011	0,077
-388,277	-200,000	-0,005	-0,142
-387,263	800,000	-0,013	0,037
-386,248	643,674	-0,031	-0,058
-385,233	-118,629	-0,074	0,009
-384,219	788,869	0,056	0,114
-383,204	-98,740	0,073	-0,014
-382,190	212,137	-0,061	-0,071
-381,175	800,000	-0,029	-0,075
-380,160	85,508	0,028	-0,022
-379,146	195,042	-0,091	-0,102
-378,131	-121,570	0,102	-0,012
-377,117	24,297	0,055	0,034
-376,102	-34,731	-0,109	-0,044
-375,088	6,120	-0,077	-0,042
-374,073	-200,000	0,001	-0,182
-373,058	-137,564	0,059	0,005
-372,044	199,393	-0,088	0,100
-371,029	-200,000	0,020	0,073
-370,015	-200,000	0,027	-0,126
-369,000	94,815	-0,098	0,082
-367,985	-118,420	0,075	0,010
-366,971	21,091	-0,033	-0,020
-365,956	255,501	0,016	-0,021
-364,942	-177,314	0,146	-0,003
-363,927	-200,000	0,026	0,084
-362,912	190,894	0,013	-0,014
-361,898	800,000	-0,021	0,064
-360,883	582,214	-0,038	-0,068
-359,869	-200,000	0,001	0,047
-358,854	-200,000	-0,013	0,087
-357,839	99,728	-0,038	0,033
-356,825	-28,940	0,045	0,019
-355,810	654,502	0,007	0,014
-354,796	11,906	0,160	-0,090
-353,781	9,784	-0,030	0,017
-352,766	404,541	-0,026	-0,040
-351,752	-200,000	0,045	0,164
-350,737	-200,000	-0,021	-0,071
-349,723	-200,000	-0,003	0,087
-348,708	-200,000	0,002	-0,050
-347,693	4,614	-0,042	-0,022
-346,679	-170,625	-0,013	0,000
-345,664	800,000	0,004	-0,011
-344,650	463,630	0,027	-0,044
-343,635	-41,235	0,143	-0,054
-342,620	800,000	-0,005	-0,013
-341,606	-11,208	-0,043	0,021
-340,591	800,000	-0,048	0,109
-339,577	800,000	-0,003	0,008
-338,562	-128,688	-0,047	0,005
-337,548	800,000	-0,017	-0,039
-336,533	-135,826	0,142	-0,012
-335,518	20,503	0,013	-0,007
-334,504	-200,000	0,019	0,000
-333,489	146,930	0,046	-0,046
-332,475	-3,911	-0,019	-0,010
-331,460	132,469	-0,074	-0,070
-330,445	505,253	-0,060	-0,102
-329,431	-200,000	0,032	-0,120
-328,416	-103,884	-0,115	-0,019
-327,402	-200,000	0,004	0,017
-326,387	13,362	-0,062	-0,035
-325,372	284,044	-0,081	0,107
-324,358	724,552	-0,032	-0,063
-323,343	-33,560	0,076	0,030
-322,329	404,675	0,056	-0,087
-321,314	-67,584	0,140	0,040
-320,299	800,000	-0,051	0,118
-319,285	-200,000	-0,017	0,172
-318,270	-80,363	-0,116	-0,028
-317,256	-200,000	-0,001	-0,084
-316,241	-124,641	0,116	0,013
-315,226	-57,516	0,096	-0,031
-314,212	-19,724	-0,039	0,017
-313,197	23,272	-0,076	-0,045
-312,183	58,028	-0,011	0,008
-311,168	-42,726	-0,069	-0,026
-310,153	-200,000	0,017	0,087
-309,139	502,519	0,015	-0,025
-308,124	-95,889	0,093	0,018
-307,110	800,000	-0,068	-0,182
-306,095	87,620	-0,044	-0,035
-305,080	-126,388	-0,087	-0,009
-304,066	42,950	0,093	-0,062
-303,051	-200,000	-0,019	-0,101
-302,037	-1,260	0,047	-0,024
-301,022	-4,490	-0,104	0,053
-300,008	-64,370	0,158	0,047
-298,993	-91,221	0,063	-0,013
-297,978	-139,016	-0,101	-0,008
-296,964	-107,839	-0,101	0,016
-295,949	61,040	-0,098	-0,071
-294,935	75,241	-0,095	-0,073
-293,920	800,000	-0,055	0,120
-292,905	108,589	-0,036	0,032
-291,891	-200,000	0,001	0,015
-290,876	-200,000	0,007	0,030
-289,862	586,094	-0,034	-0,061
-288,847	416,202	-0,068	-0,106
-287,832	-200,000	-0,031	0,112
-286,818	112,635	0,100	0,089
-285,803	-113,347	0,134	0,019
-284,789	-200,000	0,025	0,117
-283,774	-200,000	-0,019	0,078
-282,759	546,006	0,012	0,021
-281,745	-200,000	-0,015	-0,103
-280,730	-77,103	-0,139	-0,035
-279,716	-200,000	0,008	-0,035
-278,701	-73,800	0,047	-0,012
-277,686	-73,776	0,126	0,033
-276,672	-62,702	-0,056	-0,017
-275,657	-186,081	-0,020	0,000
-274,643	468,435	0,022	-0,036
-273,628	296,234	0,056	-0,076
-272,613	-143,416	-0,088	-0,006
-271,599	161,859	0,054	-0,055
-270,584	-200,000	0,012	0,117
-269,570	-96,216	0,183	-0,035
-268,555	84,693	-0,100	0,080
-267,540	-200,000	-0,010	-0,031
-266,526	-146,514	-0,038	0,002
-265,511	5,469	0,025	-0,013
-264,497	445,386	0,055	0,089
-263,482	-200,000	-0,008	0,170
-262,467	441,937	0,104	0,166
-261,453	-6,179	-0,061	-0,030
-260,438	-200,000	0,006	0,052
-259,424	-46,559	-0,079	0,028
-258,409	153,137	-0,062	0,062
-257,395	356,561	0,080	0,117
-256,380	57,829	0,025	0,018
-255,365	124,822	0,077	-0,071
-254,351	-85,513	0,083	0,019
-253,336	152,015	-0,081	0,081
-252,322	21,688	-0,105	0,062
-251,307	800,000	-0,004	0,011
-250,292	-59,235	0,035	-0,011
-249,278	-17,156	0,114	-0,052
-248,263	-200,000	-0,017	0,056
-247,249	152,612	0,053	-0,053
-246,234	-23,934	0,092	-0,040
-245,219	-133,076	0,094	0,009
-244,205	-14,497	-0,083	0,039
-243,190	513,914	-0,035	-0,060
-242,176	-4,545	0,074	0,037
-241,161	129,124	0,044	0,041
-240,146	-200,000	0,024	-0,099
-239,132	150,936	-0,086	-0,085
-238,117	-200,000	0,017	-0,133
-237,103	-200,000	-0,009	0,035
-236,088	8,764	0,050	0,027
-235,073	58,332	-0,083	0,059
-234,059	-200,000	-0,010	0,042
-233,044	129,986	0,059	0,055
-232,030	-200,000	-0,051	0,181
-231,015	-132,263	-0,161	0,015
-230,000	79,486	0,086	0,068
-228,986	-200,000	-0,043	0,166
-227,971	-97,263	0,209	-0,039
-226,957	-200,000	0,008	-0,053
-225,942	800,000	-0,071	0,147
-224,927	-200,000	0,035	0,175
-223,913	182,032	-0,091	-0,098
-222,898	800,000	0,042	-0,087
-221,884	207,910	0,044	0,051
-220,869	183,809	-0,111	-0,120
-219,855	167,083	-0,068	0,071
-218,840	38,279	0,155	0,101
-217,825	20,045	0,070	-0,041
-216,811	-16,688	0,119	0,055
-215,796	-97,541	-0,052	-0,010
-214,782	333,011	-0,037	-0,052
-213,767	704,936	-0,034	0,066
-212,752	140,607	-0,035	0,034
-211,738	47,617	0,105	0,072
-210,723	-200,000	-0,010	-0,067
-209,709	-200,000	-0,002	-0,026
-208,694	-106,130	-0,046	-0,007
-207,679	800,000	-0,028	-0,088
-206,665	-108,198	0,214	0,033
-205,650	89,691	0,080	0,065
-204,636	62,957	-0,070	-0,051
-203,621	159,201	0,099	0,101
-202,606	-200,000	-0,015	0,102
-201,592	160,994	-0,062	-0,064
-200,577	79,976	-0,078	-0,061
-199,563	174,401	-0,067	-0,071
-198,548	800,000	0,040	0,097
-197,533	-94,708	-0,084	-0,017
-196,519	548,413	-0,063	-0,110
-195,504	350,724	0,071	-0,103
-194,490	465,844	0,003	0,005
-193,475	2,935	-0,045	0,024
-192,460	165,436	0,073	0,075
-191,446	110,967	-0,038	0,033
-190,431	-188,923	-0,114	-0,001
-189,417	-15,273	-0,125	0,058
-188,402	-200,000	0,023	0,092
-187,387	800,000	-0,031	-0,094
-186,373	-200,000	0,014	-0,151
-185,358	170,719	0,088	0,092
-184,344	-135,598	0,099	-0,008
-183,329	-200,000	0,027	0,120
-182,315	35,060	-0,026	-0,016
-181,300	-161,116	-0,078	0,003
-180,285	456,754	0,052	-0,084
-179,271	-81,521	-0,034	0,008
-178,256	-150,313	0,037	-0,002
-177,242	19,162	0,056	0,033
-176,227	-200,000	0,007	-0,113
-175,212	-48,746	0,089	0,031
-174,198	92,583	0,106	-0,087
-173,183	72,463	-0,127	0,096
-172,169	-112,423	0,133	-0,019
-171,154	-200,000	0,001	0,029
-170,139	37,588	0,046	0,030
-169,125	602,788	0,082	-0,149
-168,110	-200,000	0,001	0,086
-167,096	-127,840	-0,075	0,008
-166,081	-200,000	0,002	-0,009
-165,066	-200,000	0,025	-0,138
-164,052	81,995	-0,091	-0,072
-163,037	800,000	-0,086	0,181
-162,023	26,325	0,029	-0,018
-161,008	-5,138	0,074	0,037
-159,993	10,268	0,044	0,024
-158,979	91,555	-0,036	-0,030
-157,964	77,630	-0,046	-0,036
-156,950	-200,000	0,002	-0,096
-155,935	91,558	-0,073	-0,060
-154,920	28,814	0,093	-0,057
-153,906	422,866	0,063	-0,098
-152,891	129,536	0,070	-0,065
-151,877	-9,171	-0,072	0,035
-150,862	45,237	0,085	-0,057
-149,847	-125,876	-0,032	-0,003
-148,833	253,390	0,036	0,044
-147,818	-200,000	-0,042	0,136
-146,804	-200,000	-0,011	-0,091
-145,789	-200,000	0,025	0,101
-144,775	-100,871	-0,096	-0,017
-143,760	800,000	-0,029	-0,082
-142,745	-22,603	-0,076	-0,033
-141,731	25,361	-0,091	-0,055
-140,716	-200,000	0,027	0,101
-139,702	800,000	-0,030	0,084
-138,687	201,597	0,108	0,122
-137,672	-200,000	0,002	0,142
-136,658	-133,748	-0,179	0,016
-135,643	-121,544	-0,120	0,014
-134,629	31,648	-0,041	0,026
-133,614	146,817	-0,126	0,123
-132,599	-122,159	0,104	-0,012
-131,585	-73,391	-0,034	-0,009
-130,570	800,000	-0,050	0,109
-129,556	731,395	-0,077	0,150
-128,541	800,000	0,042	-0,109
-127,526	535,136	0,019	0,032
-126,512	-200,000	0,016	0,052
-125,497	120,928	0,057	0,052
-124,483	-86,809	0,034	-0,008
-123,468	800,000	0,047	-0,120
-122,453	-65,852	-0,101	-0,029
-121,439	-200,000	0,008	0,058
-120,424	-16,949	-0,169	0,077
-119,410	-200,000	0,009	0,196
-118,395	598,664	0,083	0,151
-117,380	-200,000	-0,019	-0,110
-116,366	-94,606	-0,014	0,003
-115,351	-80,094	-0,109	0,026
-114,337	-109,851	-0,109	0,016
-113,322	-37,178	-0,074	0,029
-112,307	167,662	-0,102	-0,106
-111,293	-27,132	-0,108	0,046
-110,278	151,019	0,080	0,079
-109,264	211,766	-0,056	-0,064
-108,249	-118,323	-0,052	0,007
-107,234	60,914	-0,076	0,055
-106,220	-200,000	-0,001	-0,034
-105,205	89,139	-0,086	0,069
-104,191	-200,000	0,009	0,086
-103,176	-74,805	0,071	-0,018
-102,162	-42,659	-0,007	-0,003
-101,147	704,242	-0,047	-0,090
-100,132	280,490	-0,104	-0,136
-99,118	-53,961	-0,197	-0,065
-98,103	291,383	-0,045	-0,060
-97,089	-200,000	-0,017	-0,128
-96,074	-200,000	0,015	0,084
-95,059	-66,059	-0,010	0,003
-94,045	-2,913	-0,098	0,050
-93,030	-200,000	0,004	-0,082
-92,016	0,478	0,026	-0,013
-91,001	800,000	-0,035	-0,088
-89,986	-41,160	0,118	-0,044
-88,972	522,228	0,077	0,132
-87,957	-45,231	-0,092	0,033
-86,943	-200,000	0,005	-0,022
-85,928	800,000	0,026	-0,054
-84,913	-5,506	0,103	-0,051
-83,899	-131,469	0,127	-0,012
-82,884	-50,011	-0,058	-0,020
-81,870	-200,000	-0,063	0,229
-80,855	-1,392	0,052	0,027
-79,840	-56,077	0,023	-0,007
-78,826	800,000	-0,016	-0,049
-77,811	-200,000	-0,022	0,081
-76,797	-200,000	0,009	0,138
-75,782	-200,000	-0,015	0,086
-74,767	89,519	-0,065	0,053
-73,753	452,990	0,026	0,042
-72,738	176,892	0,063	-0,067
-71,724	800,000	-0,043	0,111
-70,709	-29,690	-0,065	0,027
-69,694	-59,551	-0,064	0,020
-68,680	-200,000	0,015	0,257
-67,665	366,814	-0,126	0,185
-66,651	-118,853	0,112	0,014
-65,636	480,590	-0,047	-0,078
-64,622	51,326	0,088	-0,061
-63,607	-200,000	-0,031	-0,120
-62,592	800,000	-0,040	-0,093
-61,578	-96,666	0,027	-0,005
-60,563	-157,099	0,020	-0,001
-59,549	800,000	-0,049	0,126
-58,534	-133,015	-1,373	-0,125
-57,519	742,682	-0,773	-1,516
-56,505	-200,000	-0,804	-4,314
-55,490	-77,835	0,497	-0,124
-54,476	800,000	4,960	11,684
-53,461	-200,000	13,912	254,227
-52,446	-200,000	693,659	2263,001
-51,432	600,329	1624,124	2937,353
-50,417	117,764	1633,491	1458,974
-49,403	73,483	1287,735	976,996
-48,388	37,435	1023,604	657,039
-47,373	23,934	981,886	585,842
-46,359	23,216	971,440	577,231
-45,344	22,122	967,186	571,107
-44,330	22,039	965,745	569,961
-43,315	21,914	964,245	568,646
-42,300	21,866	963,202	567,853
-41,286	21,907	962,046	567,283
-40,271	21,931	961,203	566,840
-39,257	21,847	960,392	566,065
-38,242	21,854	959,583	565,590
-37,227	21,886	958,638	565,115
-36,213	21,885	957,714	564,542
-35,198	21,831	956,851	563,839
-34,184	21,882	956,321	563,669
-33,169	21,872	955,280	563,001
-32,154	21,944	954,437	562,713
-31,140	21,902	953,551	562,033
-30,125	21,959	952,747	561,719
-29,111	21,971	951,721	561,132
-28,096	21,870	951,217	560,488
-27,082	21,905	950,568	560,194
-26,067	21,954	949,804	559,880
-25,052	21,984	948,880	559,411
-24,038	21,927	948,316	558,871
-23,023	21,932	947,644	558,470
-22,009	21,952	946,981	558,122
-20,994	21,965	946,436	557,819
-19,979	21,910	945,895	557,302
-18,965	21,916	945,183	556,879
-17,950	21,929	944,450	556,468
-16,936	21,874	943,785	555,878
-15,921	21,804	943,099	555,231
-14,906	21,859	942,172	554,836
-13,892	21,824	941,693	554,422
-12,877	21,804	941,239	554,069
-11,863	21,744	940,697	553,538
-10,848	21,780	940,218	553,348
-9,833	21,925	939,543	553,389
-8,819	21,859	939,047	552,864
-7,804	21,812	938,279	552,240
-6,790	21,776	937,741	551,788
-5,775	21,782	937,268	551,507
-4,760	21,798	936,557	551,116
-3,746	21,761	935,813	550,541
-2,731	21,690	934,929	549,774
-1,717	21,625	934,463	549,274
-0,702	21,616	933,723	548,790
0,313	21,417	933,146	548,650
1,327	23,881	930,937	555,051
2,342	31,463	809,212	503,042
3,356	26,213	510,137	308,112
4,371	1,811	375,061	195,350
5,386	-1,193	358,070	182,782
6,400	-2,204	352,053	178,468
7,415	-2,376	349,431	176,915
8,429	-2,401	348,064	176,178
9,444	-2,359	347,200	175,775
10,459	-2,276	346,489	175,499
11,473	-2,099	345,777	175,333
12,488	-2,231	345,238	174,888
13,502	-2,352	344,702	174,456
14,517	-2,371	344,200	174,164
15,531	-2,321	343,919	174,065
16,546	-2,245	343,498	173,926
17,561	-2,122	343,021	173,816
18,575	-2,089	342,656	173,654
19,590	-2,148	342,199	173,337
20,604	-2,188	342,024	173,185
21,619	-2,180	341,677	173,004
22,634	-2,001	341,083	172,899
23,648	-2,117	340,747	172,577
24,663	-2,101	340,490	172,450
25,677	-2,181	340,141	172,164
26,692	-2,048	339,914	172,190
27,707	-2,127	339,527	171,886
28,721	-2,085	339,263	171,786
29,736	-2,184	338,950	171,496
30,750	-2,018	338,525	171,460
31,765	-2,195	338,372	171,160
32,780	-2,110	337,922	171,017
33,794	-2,265	337,888	170,803
34,809	-2,109	337,617	170,832
35,823	-2,088	337,250	170,656
36,838	-2,089	336,894	170,460
37,853	-2,070	336,645	170,340
38,867	-2,013	336,378	170,256
39,882	-2,010	336,061	170,084
40,896	-2,047	335,888	169,939
41,911	-2,079	335,626	169,754
42,926	-2,188	335,309	169,453
43,940	-1,968	335,032	169,551
44,955	-2,119	334,736	169,213
45,969	-2,075	334,594	169,176
46,984	-2,130	334,372	168,986
47,999	-2,056	334,003	168,868
49,013	-2,091	333,857	168,740
50,028	-2,088	333,530	168,563
51,042	-2,182	333,157	168,252
52,057	-2,263	333,028	168,079
53,071	-2,257	332,699	167,905
54,086	-2,229	332,501	167,822
55,101	-2,216	332,243	167,692
56,115	-2,265	332,132	167,565
57,130	-2,215	331,714	167,395
58,144	-2,073	331,489	167,429
59,159	-2,169	331,117	167,117
60,174	-2,217	330,717	166,846
61,188	-2,221	330,582	166,758
62,203	-1,951	330,272	166,893
63,217	-2,070	330,171	166,692
64,232	-2,181	329,957	166,444
65,247	-2,245	329,635	166,194
66,261	-2,092	329,307	166,187
67,276	-2,145	329,155	166,036
68,290	-2,155	328,733	165,796
69,305	-2,263	328,624	165,604
70,320	-2,151	328,274	165,540
71,334	-2,002	327,901	165,505
72,349	-2,076	327,573	165,241
73,363	-2,240	327,685	165,099
74,378	-2,107	327,148	164,962
75,393	-2,048	326,891	164,884
76,407	-2,174	326,812	164,689
77,422	-2,096	326,634	164,672
78,436	-2,170	326,318	164,415
79,451	-2,041	326,112	164,440
80,466	-2,029	325,624	164,193
81,480	-2,180	325,627	164,012
82,495	-2,001	325,332	164,047
83,509	-2,107	324,991	163,744
84,524	-1,845	324,720	163,883
85,539	-2,058	324,595	163,569
86,553	-2,025	324,413	163,500
87,568	-2,056	324,049	163,267
88,582	-2,019	323,877	163,207
89,597	-2,102	323,570	162,946
90,611	-2,129	323,443	162,837
91,626	-2,275	323,208	162,543
92,641	-2,184	323,045	162,548
93,655	-2,025	322,658	162,513
94,670	-2,157	322,427	162,237
95,684	-2,279	322,363	162,056
96,699	-2,213	321,987	161,925
97,714	-2,088	321,715	161,911
98,728	-1,956	321,518	161,943
99,743	-1,989	321,280	161,772
100,757	-2,109	321,106	161,538
101,772	-1,935	320,644	161,483
102,787	-2,231	320,604	161,124
103,801	-2,153	320,263	161,023
104,816	-2,131	320,202	161,002
105,830	-2,061	319,968	160,947
106,845	-2,005	319,671	160,844
107,860	-2,004	319,244	160,616
108,874	-2,110	319,271	160,499
109,889	-2,075	319,053	160,414
110,903	-2,106	318,718	160,198
111,918	-2,211	318,467	159,943
112,933	-2,177	318,283	159,873
113,947	-2,112	318,105	159,840
114,962	-1,948	317,747	159,824
115,976	-2,173	317,578	159,481
116,991	-2,126	317,313	159,384
118,006	-2,042	317,184	159,396
119,020	-2,029	317,006	159,307
120,035	-2,229	316,966	159,056
121,049	-2,001	316,656	159,132
122,064	-2,033	316,434	158,973
123,079	-2,298	316,293	158,601
124,093	-2,221	315,914	158,480
125,108	-2,125	315,617	158,420
126,122	-2,076	315,422	158,361
127,137	-2,222	315,313	158,135
128,151	-2,230	315,089	157,999
129,166	-2,046	314,663	157,970
130,181	-2,066	314,477	157,840
131,195	-2,147	314,294	157,648
132,210	-2,099	313,964	157,519
133,224	-2,011	313,777	157,506
134,239	-2,161	313,554	157,220
135,254	-2,173	313,355	157,094
136,268	-2,082	312,999	156,997
137,283	-2,116	312,870	156,883
138,297	-2,101	312,617	156,757
139,312	-2,332	312,364	156,372
140,327	-2,150	312,182	156,460
141,341	-2,040	312,087	156,516
142,356	-2,099	311,917	156,353
143,370	-1,968	311,642	156,340
144,385	-1,997	311,347	156,148
145,400	-1,946	311,126	156,077
146,414	-1,957	310,831	155,904
147,429	-2,079	310,666	155,678
148,443	-2,085	310,565	155,607
149,458	-2,053	310,257	155,473
150,473	-2,037	310,105	155,399
151,487	-2,046	309,806	155,227
152,502	-2,050	309,623	155,116
153,516	-2,121	309,375	154,903
154,531	-1,979	309,059	154,881
155,546	-2,091	308,959	154,699
156,560	-1,988	308,719	154,673
157,575	-2,018	308,511	154,524
158,589	-2,094	308,327	154,338
159,604	-2,173	308,295	154,226
160,619	-1,986	307,982	154,251
161,633	-2,062	307,688	154,011
162,648	-1,997	307,531	153,986
163,662	-2,004	307,333	153,867
164,677	-2,182	307,198	153,600
165,692	-2,093	307,036	153,598
166,706	-2,012	306,616	153,457
167,721	-1,952	306,401	153,399
168,735	-1,908	306,274	153,368
169,750	-1,869	305,992	153,253
170,764	-2,105	305,825	152,911
171,779	-2,007	305,798	152,985
172,794	-2,122	305,546	152,727
173,808	-2,021	305,414	152,751
174,823	-2,076	305,255	152,601
175,837	-2,006	304,871	152,469
176,852	-2,232	304,793	152,181
177,867	-2,170	304,457	152,065
178,881	-2,089	304,284	152,049
179,896	-2,094	304,044	151,910
180,910	-1,933	303,829	151,955
181,925	-2,044	303,600	151,712
182,940	-2,035	303,384	151,600
183,954	-1,948	303,249	151,608
184,969	-1,972	303,001	151,446
185,983	-1,938	302,923	151,429
186,998	-1,965	302,620	151,236
188,013	-1,964	302,423	151,125
189,027	-2,016	302,331	151,012
190,042	-1,926	301,946	150,899
191,056	-2,041	301,867	150,728
192,071	-2,079	301,598	150,541
193,086	-2,037	301,062	150,304
194,100	-2,170	301,090	150,168
195,115	-1,929	300,786	150,249
196,129	-1,948	300,703	150,175
197,144	-1,888	300,326	150,034
198,159	-2,244	300,261	149,626
199,173	-2,079	300,165	149,732
200,188	-2,088	299,736	149,496
201,202	-2,174	299,705	149,380
202,217	-1,981	299,471	149,446
203,232	-2,114	299,206	149,166
204,246	-1,997	298,963	149,150
205,261	-2,072	298,853	149,006
206,275	-1,840	298,539	149,070
207,290	-1,845	298,418	148,992
208,304	-2,073	298,465	148,771
209,319	-2,013	298,053	148,613
210,334	-2,061	297,977	148,514
211,348	-1,960	297,640	148,434
212,363	-1,876	297,404	148,388
213,377	-1,973	297,228	148,189
214,392	-2,070	297,138	148,034
215,407	-2,089	296,971	147,918
216,421	-1,997	296,629	147,827
217,436	-1,940	296,291	147,703
218,450	-2,117	296,343	147,538
219,465	-2,162	296,157	147,387
220,480	-2,003	295,913	147,411
221,494	-2,029	295,723	147,278
222,509	-2,004	295,563	147,210
223,523	-1,947	295,303	147,124
224,538	-2,056	295,133	146,917
225,553	-1,993	295,039	146,921
226,567	-1,875	294,771	146,892
227,582	-1,994	294,602	146,676
228,596	-1,965	294,546	146,664
229,611	-1,903	294,211	146,546
230,626	-2,118	294,075	146,251
231,640	-2,122	293,851	146,123
232,655	-2,127	293,718	146,038
233,669	-2,056	293,347	145,911
234,684	-2,112	293,308	145,823
235,699	-2,087	292,945	145,655
236,713	-2,010	292,913	145,702
237,728	-2,058	292,698	145,534
238,742	-2,123	292,517	145,367
239,757	-2,016	292,245	145,324
240,772	-2,020	292,030	145,201
241,786	-2,036	291,728	145,022
242,801	-2,250	291,768	144,818
243,815	-2,110	291,586	144,852
244,830	-2,201	291,271	144,594
245,844	-1,993	290,927	144,614
246,859	-2,201	290,858	144,363
247,874	-1,994	290,610	144,430
248,888	-2,184	290,438	144,146
249,903	-2,213	290,232	144,002
250,917	-2,220	290,179	143,956
251,932	-2,290	289,956	143,764
252,947	-2,360	289,597	143,505
253,961	-2,685	289,290	143,023
254,976	-2,945	288,904	142,566
255,990	-3,174	288,628	142,194
257,005	-2,331	288,945	143,159
258,020	-0,269	289,697	145,532
259,034	1,372	290,044	147,295
260,049	1,991	290,172	147,951
261,063	2,302	290,147	148,228
262,078	2,605	289,926	148,397
263,093	2,753	289,982	148,557
264,107	2,999	290,050	148,818
265,122	3,264	289,784	148,926
266,136	3,388	289,613	148,946
267,151	3,294	289,546	148,806
268,166	3,160	289,373	148,574
269,180	3,381	289,023	148,596
270,195	3,312	288,710	148,355
271,209	3,104	288,707	148,139
272,224	3,167	288,582	148,122
273,239	3,190	288,172	147,921
274,253	2,967	287,901	147,553
275,268	2,862	287,725	147,348
276,282	2,961	287,564	147,348
277,297	3,284	287,247	147,484
278,312	3,128	287,193	147,293
279,326	3,081	287,251	147,264
280,341	3,026	286,989	147,063
281,355	3,067	286,684	146,934
282,370	3,154	286,510	146,915
283,384	2,904	286,506	146,660
284,399	3,073	285,946	146,522
285,414	2,873	285,955	146,321
286,428	2,901	285,872	146,293
287,443	2,815	285,534	146,024
288,457	3,042	285,101	146,006
289,472	2,862	285,073	145,808
290,487	2,761	284,898	145,609
291,501	2,804	284,664	145,517
292,516	2,679	284,529	145,315
293,530	2,675	284,374	145,220
294,545	3,000	284,107	145,380
295,560	2,886	283,925	145,166
296,574	2,656	283,751	144,845
297,589	2,749	283,507	144,796
298,603	2,741	283,304	144,672
299,618	2,778	283,245	144,664
300,633	2,821	283,100	144,618
301,647	3,046	282,877	144,704
302,662	2,892	282,772	144,492
303,676	3,133	282,582	144,610
304,691	3,172	282,503	144,593
305,706	3,179	282,185	144,424
306,720	3,173	282,042	144,333
307,735	3,097	281,955	144,203
308,749	3,138	281,686	144,091
309,764	3,247	281,481	144,077
310,779	3,074	281,419	143,869
311,793	2,908	281,222	143,599
312,808	2,886	280,861	143,382
313,822	2,987	280,811	143,438
314,837	3,167	280,601	143,487
315,852	3,072	280,390	143,277
316,866	2,828	280,285	142,982
317,881	3,214	280,031	143,201
318,895	3,117	279,906	143,033
319,910	2,876	279,646	142,663
320,925	2,804	279,505	142,510
321,939	2,965	279,418	142,604
322,954	3,106	279,196	142,609
323,968	3,256	279,000	142,636
324,983	3,121	278,831	142,411
325,997	3,199	278,637	142,372
327,012	3,249	278,367	142,269
328,027	3,179	278,269	142,140
329,041	3,231	278,147	142,114
330,056	3,297	277,913	142,043
331,070	3,185	277,775	141,856
332,085	3,186	277,639	141,775
333,100	3,344	277,372	141,772
334,114	3,362	277,121	141,647
335,129	3,046	277,140	141,352
336,143	3,194	276,950	141,379
337,158	3,312	276,636	141,315
338,173	3,248	276,639	141,245
339,187	3,322	276,307	141,132
340,202	3,130	276,186	140,881
341,216	3,076	276,000	140,723
342,231	2,972	275,928	140,578
343,246	3,158	275,776	140,659
344,260	3,128	275,494	140,475
345,275	3,122	275,277	140,347
346,289	3,325	275,032	140,395
347,304	3,231	274,864	140,211
348,319	3,178	274,723	140,077
349,333	3,289	274,594	140,101
350,348	3,241	274,506	140,000
351,362	3,188	274,291	139,829
352,377	3,202	274,052	139,708
353,392	3,176	273,932	139,611
354,406	3,218	273,806	139,572
355,421	192,316	1350,261	1433,574
356,435	155,326	1481,516	1433,712
