DTS Sentinel unit serial number:	SN410029Multiplexer serial number:	ORYXHardware model number:	OX2-SRSoftware version number:	ORYX F/W v4,00 Oryx Data Collector v3.7.2.0data status	okinstallation	B4 Nyhavnadifferential loss correction	single-endedforward channel	channel 2reverse channel	N/Adate	2023/12/16time	07:15:13forward acquisition time	300,00reverse acquisition time	0,00gamma	499,1914k internal	0,3127k external	0,3127temperature offset calibration	1,0000default loss term (dB/km)	0,3820temperature slope calibration	1,0000multiplexer offset coefficient	1,0000multiplexer slope coefficient	1,0000fibre end	0,00T internal ref (°C)	22,33T ext. ref 1 (°C)	7,50T ext. ref 2 (°C)	7,69length (m)	temperature (°C)	Stokes	anti-Stokes-744,400	618,204	0,060	-0,112
-743,385	13,092	-0,207	0,119
-742,371	-17,107	0,069	-0,032
-741,356	662,198	-0,070	0,135
-740,342	-200,000	0,011	0,070
-739,327	-84,961	-0,086	-0,020
-738,312	242,168	0,092	-0,115
-737,298	42,402	-0,270	0,182
-736,283	163,150	0,110	0,115
-735,269	-178,470	-0,139	0,002
-734,254	-32,503	0,014	0,006
-733,239	-121,110	-0,307	-0,038
-732,225	-200,000	0,008	-0,125
-731,210	13,739	-0,114	-0,066
-730,196	687,523	-0,047	-0,093
-729,181	122,981	0,047	-0,044
-728,167	-200,000	-0,012	0,164
-727,152	171,564	0,016	0,018
-726,137	-171,172	-0,063	0,002
-725,123	119,029	-0,022	-0,021
-724,108	-200,000	-0,074	-0,260
-723,094	234,379	-0,094	-0,116
-722,079	741,338	-0,038	-0,076
-721,064	92,325	-0,057	0,048
-720,050	-200,000	0,032	0,136
-719,035	-200,000	-0,005	0,052
-718,021	800,000	0,027	-0,088
-717,006	-15,258	-0,082	-0,039
-715,991	-147,700	-0,123	-0,008
-714,977	11,187	-0,028	0,016
-713,962	385,700	-0,042	-0,064
-712,948	665,866	0,080	-0,154
-711,933	706,464	0,018	-0,035
-710,918	250,245	0,034	-0,043
-709,904	800,000	-0,045	-0,146
-708,889	-157,696	-0,053	-0,002
-707,875	-51,258	-0,157	-0,054
-706,860	100,270	-0,048	0,041
-705,845	-150,612	-0,056	-0,003
-704,831	-200,000	-0,021	0,105
-703,816	49,999	0,104	0,073
-702,802	800,000	-0,032	-0,084
-701,787	800,000	0,050	-0,148
-700,772	-15,712	-0,055	-0,026
-699,758	-61,797	0,052	0,016
-698,743	-200,000	0,015	0,109
-697,729	800,000	-0,006	0,017
-696,714	800,000	-0,024	-0,049
-695,699	800,000	0,015	-0,048
-694,685	-121,594	0,106	0,013
-693,670	159,092	-0,015	0,016
-692,656	462,059	0,063	0,105
-691,641	-98,490	-0,116	0,022
-690,627	-200,000	0,018	0,128
-689,612	-200,000	0,007	0,070
-688,597	800,000	-0,007	-0,022
-687,583	363,508	0,053	-0,080
-686,568	-200,000	-0,021	-0,119
-685,554	-160,769	0,198	-0,008
-684,539	-172,859	0,111	-0,003
-683,524	302,009	-0,031	0,043
-682,510	155,277	0,069	0,070
-681,495	800,000	0,032	-0,104
-680,481	246,660	-0,076	-0,096
-679,466	-44,988	-0,145	0,053
-678,451	38,164	0,058	0,038
-677,437	-92,532	0,090	-0,019
-676,422	-200,000	0,009	0,140
-675,408	-200,000	0,014	-0,087
-674,393	-200,000	-0,005	0,042
-673,378	330,102	0,046	0,066
-672,364	-146,723	0,099	0,006
-671,349	-200,000	0,026	-0,138
-670,335	172,458	-0,088	-0,094
-669,320	137,782	0,035	-0,034
-668,305	800,000	0,044	0,122
-667,291	-12,395	0,029	-0,014
-666,276	92,587	-0,101	-0,085
-665,262	95,264	-0,109	0,092
-664,247	113,555	-0,041	-0,037
-663,232	96,515	-0,056	-0,047
-662,218	-22,867	0,023	0,010
-661,203	-98,196	0,096	0,018
-660,189	-29,455	-0,083	-0,035
-659,174	-24,209	-0,127	-0,056
-658,159	578,606	0,052	0,096
-657,145	-200,000	0,001	-0,060
-656,130	-200,000	-0,024	0,102
-655,116	-164,380	0,108	0,004
-654,101	34,634	0,047	-0,030
-653,086	-200,000	-0,013	0,066
-652,072	-113,604	-0,089	-0,013
-651,057	800,000	-0,064	-0,193
-650,043	-103,380	-0,072	0,012
-649,028	-55,846	0,079	0,026
-648,014	295,806	0,078	-0,106
-646,999	-200,000	-0,014	0,078
-645,984	187,667	-0,113	-0,125
-644,970	22,099	-0,126	-0,076
-643,955	426,618	-0,032	-0,051
-642,941	228,630	-0,103	-0,125
-641,926	245,276	0,003	0,004
-640,911	-109,853	0,124	0,019
-639,897	800,000	0,063	0,141
-638,882	-174,756	-0,091	0,002
-637,868	47,043	-0,059	-0,041
-636,853	152,687	-0,034	-0,034
-635,838	16,969	-0,034	-0,020
-634,824	-1,254	0,078	-0,041
-633,809	90,902	0,117	-0,098
-632,795	172,118	-0,051	0,055
-631,780	-200,000	0,016	0,070
-630,765	-200,000	-0,007	-0,040
-629,751	-163,347	0,018	0,001
-628,736	278,720	-0,047	-0,063
-627,722	220,381	0,052	0,062
-626,707	-200,000	-0,001	-0,025
-625,692	98,887	0,054	-0,047
-624,678	-73,545	-0,048	-0,013
-623,663	-148,562	0,057	-0,003
-622,649	-64,132	-0,160	-0,048
-621,634	800,000	-0,032	0,072
-620,619	-127,496	0,124	-0,013
-619,605	-1,172	-0,095	-0,050
-618,590	49,936	0,131	0,092
-617,576	-87,881	-0,056	-0,012
-616,561	-200,000	0,015	0,050
-615,546	-200,000	-0,034	-0,120
-614,532	-156,637	-0,136	-0,006
-613,517	-93,363	0,066	-0,014
-612,503	-200,000	-0,001	-0,020
-611,488	-200,000	0,014	-0,075
-610,474	526,552	-0,042	-0,073
-609,459	-123,736	-0,079	-0,009
-608,444	81,256	0,093	-0,074
-607,430	-129,962	-0,049	0,005
-606,415	131,879	-0,073	-0,070
-605,401	-48,609	-0,103	0,037
-604,386	16,993	0,039	0,023
-603,371	72,705	0,022	0,017
-602,357	247,304	-0,046	0,058
-601,342	-200,000	0,000	0,087
-600,328	66,563	-0,011	0,008
-599,313	354,285	-0,064	0,094
-598,298	794,029	0,012	0,024
-597,284	-70,399	-0,103	-0,029
-596,269	-200,000	-0,046	0,163
-595,255	800,000	-0,052	0,153
-594,240	800,000	-0,012	-0,030
-593,225	245,152	0,022	0,027
-592,211	106,610	-0,028	-0,025
-591,196	75,037	-0,049	0,039
-590,182	-200,000	-0,003	0,079
-589,167	187,034	-0,066	0,073
-588,152	-200,000	0,010	-0,039
-587,138	2,224	-0,066	-0,035
-586,123	312,846	-0,065	-0,091
-585,109	-37,913	-0,196	-0,077
-584,094	163,909	0,080	0,084
-583,079	-185,734	0,152	-0,002
-582,065	499,239	-0,107	0,183
-581,050	800,000	0,051	0,112
-580,036	800,000	0,041	-0,098
-579,021	316,481	-0,086	-0,121
-578,006	-88,243	0,058	0,013
-576,992	-200,000	-0,027	-0,172
-575,977	-200,000	0,013	-0,087
-574,963	-111,910	-0,137	0,020
-573,948	-158,304	0,049	0,002
-572,934	-200,000	-0,001	0,133
-571,919	303,008	-0,079	0,108
-570,904	-131,433	-0,016	0,002
-569,890	-200,000	-0,053	-0,194
-568,875	800,000	0,004	-0,010
-567,861	741,253	-0,030	-0,060
-566,846	-112,277	-0,061	-0,009
-565,831	-15,793	-0,054	-0,026
-564,817	112,656	-0,063	0,056
-563,802	485,869	0,043	-0,072
-562,788	613,459	-0,042	-0,079
-561,773	-68,990	0,084	0,024
-560,758	657,288	-0,046	0,088
-559,744	-200,000	0,000	0,107
-558,729	445,735	0,027	-0,043
-557,715	-102,757	-0,068	-0,012
-556,700	-200,000	0,000	-0,051
-555,685	52,484	-0,103	0,073
-554,671	-169,294	0,147	-0,004
-553,656	-63,649	0,096	-0,029
-552,642	-134,366	-0,059	-0,005
-551,627	800,000	-0,019	0,057
-550,612	34,674	-0,122	-0,079
-549,598	-119,449	-0,116	-0,015
-548,583	103,599	-0,107	-0,093
-547,569	-200,000	0,010	0,096
-546,554	-20,667	0,153	0,069
-545,539	77,626	0,055	-0,044
-544,525	327,726	-0,017	0,024
-543,510	-189,056	-0,091	0,001
-542,496	800,000	0,022	-0,052
-541,481	-200,000	0,006	-0,132
-540,466	-98,372	0,115	0,022
-539,452	96,073	0,032	0,027
-538,437	598,417	0,070	0,129
-537,423	85,686	0,163	0,133
-536,408	800,000	0,028	0,061
-535,393	-0,826	-0,111	0,058
-534,379	800,000	0,064	-0,189
-533,364	99,744	-0,120	-0,103
-532,350	-59,642	0,042	0,013
-531,335	117,208	-0,034	0,031
-530,321	-33,363	0,063	0,026
-529,306	800,000	-0,045	0,112
-528,291	-200,000	0,022	-0,105
-527,277	-54,912	0,144	-0,048
-526,262	800,000	0,057	0,125
-525,248	-34,354	-0,112	0,045
-524,233	-99,788	-0,129	0,024
-523,218	398,945	0,081	0,126
-522,204	800,000	-0,025	0,075
-521,189	277,337	-0,013	-0,018
-520,175	411,387	-0,055	0,086
-519,160	-200,000	0,029	0,131
-518,145	194,169	0,033	-0,036
-517,131	293,484	0,024	0,033
-516,116	-83,179	0,102	0,024
-515,102	-45,770	0,036	0,013
-514,087	-200,000	0,012	-0,172
-513,072	800,000	0,049	-0,152
-512,058	800,000	0,016	-0,050
-511,043	-112,254	-0,029	-0,004
-510,029	-200,000	-0,010	-0,050
-509,014	-200,000	0,009	0,076
-507,999	-11,498	-0,056	0,027
-506,985	212,018	0,063	-0,074
-505,970	-59,029	-0,165	-0,052
-504,956	800,000	-0,053	-0,117
-503,941	-93,047	0,141	0,029
-502,926	507,671	0,015	-0,025
-501,912	-200,000	0,020	0,098
-500,897	-200,000	-0,005	0,057
-499,883	800,000	0,035	0,103
-498,868	-14,097	-0,093	0,044
-497,853	-87,162	0,086	-0,019
-496,839	-101,747	-0,070	0,012
-495,824	436,658	0,060	-0,096
-494,810	432,407	-0,020	-0,032
-493,795	-200,000	0,021	0,145
-492,781	11,465	-0,073	-0,041
-491,766	-112,131	-0,037	-0,005
-490,751	-146,520	-0,079	0,005
-489,737	-51,153	0,044	-0,015
-488,722	434,942	0,082	0,131
-487,708	-110,791	-0,138	0,021
-486,693	-200,000	0,020	0,167
-485,678	-93,987	-0,050	-0,010
-484,664	-200,000	-0,030	-0,139
-483,649	-200,000	-0,004	-0,162
-482,635	-54,637	-0,059	-0,020
-481,620	-90,224	-0,102	0,022
-480,605	800,000	-0,051	0,108
-479,591	-200,000	-0,002	0,056
-478,576	73,597	0,007	0,005
-477,562	-200,000	-0,031	-0,130
-476,547	359,019	-0,023	0,034
-475,532	-200,000	-0,022	-0,162
-474,518	-32,544	0,099	0,040
-473,503	11,612	0,065	-0,037
-472,489	-200,000	-0,016	0,066
-471,474	-200,000	0,015	-0,106
-470,459	800,000	0,012	-0,024
-469,445	166,162	0,112	0,116
-468,430	-117,166	-0,116	0,015
-467,416	392,642	0,028	0,043
-466,401	-200,000	-0,012	0,229
-465,386	-200,000	-0,005	0,182
-464,372	71,877	-0,051	0,039
-463,357	-35,233	-0,047	-0,019
-462,343	141,659	0,026	-0,026
-461,328	-92,733	0,066	0,014
-460,313	-64,112	0,061	-0,018
-459,299	78,498	-0,051	0,040
-458,284	-200,000	0,013	-0,128
-457,270	-18,725	0,093	0,042
-456,255	-53,131	0,045	-0,015
-455,241	-62,324	-0,121	-0,037
-454,226	-200,000	0,032	-0,185
-453,211	171,447	0,088	-0,093
-452,197	-110,139	0,128	0,019
-451,182	800,000	-0,024	0,077
-450,168	-200,000	-0,023	0,134
-449,153	52,146	0,090	-0,063
-448,138	-10,511	-0,140	-0,068
-447,124	37,643	-0,049	-0,032
-446,109	-105,382	0,025	-0,004
-445,095	-200,000	0,011	-0,095
-444,080	45,386	0,048	-0,032
-443,065	-10,118	-0,059	-0,029
-442,051	104,136	-0,083	-0,072
-441,036	123,073	0,065	-0,060
-440,022	800,000	0,042	-0,090
-439,007	800,000	-0,026	0,079
-437,992	534,462	-0,033	-0,058
-436,978	-106,373	0,069	0,011
-435,963	-200,000	-0,005	0,025
-434,949	-200,000	-0,001	0,018
-433,934	-200,000	0,022	-0,196
-432,919	78,651	0,057	0,045
-431,905	800,000	0,040	-0,110
-430,890	-200,000	0,010	-0,105
-429,876	-200,000	-0,034	-0,188
-428,861	276,969	0,054	-0,070
-427,846	-200,000	0,018	-0,107
-426,832	800,000	-0,022	0,071
-425,817	800,000	-0,051	-0,146
-424,803	-200,000	-0,024	0,117
-423,788	-148,956	0,103	-0,006
-422,773	-146,990	0,032	-0,002
-421,759	465,435	-0,024	0,040
-420,744	135,176	0,027	-0,026
-419,730	800,000	0,014	0,033
-418,715	800,000	-0,075	-0,156
-417,701	79,684	0,080	-0,063
-416,686	-200,000	0,009	0,028
-415,671	205,926	0,069	-0,079
-414,657	-200,000	-0,007	0,176
-413,642	195,576	0,056	-0,062
-412,628	-84,013	-0,068	-0,016
-411,613	71,508	-0,142	-0,108
-410,598	-200,000	-0,006	-0,069
-409,584	96,464	0,127	-0,107
-408,569	189,290	0,066	0,073
-407,555	-200,000	0,013	0,120
-406,540	800,000	-0,022	0,058
-405,525	-135,260	0,058	0,005
-404,511	-200,000	-0,038	-0,161
-403,496	667,993	-0,076	-0,145
-402,482	-0,486	-0,053	0,028
-401,467	267,296	0,077	0,099
-400,452	-200,000	0,004	0,093
-399,438	800,000	0,050	-0,134
-398,423	-90,318	0,025	0,005
-397,409	183,150	-0,057	0,062
-396,394	692,507	0,062	-0,121
-395,379	800,000	-0,006	-0,014
-394,365	-83,024	0,141	0,033
-393,350	-200,000	-0,010	-0,051
-392,336	-105,274	0,036	0,006
-391,321	-32,411	0,154	0,063
-390,306	-61,142	0,117	0,036
-389,292	-23,230	-0,147	0,065
-388,277	-44,339	-0,098	-0,036
-387,263	800,000	-0,051	0,132
-386,248	800,000	-0,014	0,039
-385,233	100,567	-0,021	-0,018
-384,219	76,696	-0,141	0,110
-383,204	-200,000	0,000	-0,047
-382,190	-141,488	-0,101	0,007
-381,175	800,000	-0,019	0,054
-380,160	-200,000	-0,016	-0,093
-379,146	-200,000	-0,015	-0,098
-378,131	800,000	-0,031	0,101
-377,117	185,145	0,025	0,027
-376,102	465,730	-0,054	-0,088
-375,088	-82,313	-0,042	-0,010
-374,073	29,896	-0,028	-0,017
-373,058	105,532	0,066	-0,057
-372,044	10,069	0,062	-0,034
-371,029	800,000	0,018	0,038
-370,015	426,540	0,050	-0,079
-369,000	-88,540	0,124	-0,027
-367,985	-103,257	0,060	0,010
-366,971	88,030	-0,078	0,063
-365,956	-125,885	0,126	-0,014
-364,942	-50,680	0,057	0,020
-363,927	290,456	0,057	-0,076
-362,912	-41,355	0,087	-0,033
-361,898	53,617	-0,042	0,030
-360,883	800,000	-0,032	0,077
-359,869	800,000	-0,035	0,076
-358,854	217,100	0,001	-0,002
-357,839	185,764	0,056	0,061
-356,825	-200,000	0,040	0,206
-355,810	-200,000	0,004	0,130
-354,796	93,021	-0,049	0,040
-353,781	800,000	-0,038	-0,079
-352,766	800,000	0,020	-0,045
-351,752	-3,905	0,056	-0,029
-350,737	-200,000	-0,106	0,000
-349,723	-60,012	0,135	0,042
-348,708	-200,000	0,010	-0,058
-347,693	-66,120	-0,124	0,036
-346,679	395,028	-0,071	-0,109
-345,664	99,032	0,035	-0,030
-344,650	149,650	0,112	0,111
-343,635	-100,086	-0,154	-0,028
-342,620	265,864	0,067	0,086
-341,606	-162,482	-0,245	0,009
-340,591	800,000	0,030	-0,061
-339,577	-28,304	0,037	-0,016
-338,562	-124,100	0,028	0,003
-337,548	743,360	0,011	-0,023
-336,533	76,271	0,044	0,034
-335,518	-97,280	0,133	0,025
-334,504	-146,240	0,081	-0,005
-333,489	-35,496	-0,018	-0,007
-332,475	581,440	0,029	-0,053
-331,460	-9,447	-0,065	-0,032
-330,445	370,391	0,117	0,175
-329,431	715,326	-0,053	-0,103
-328,416	-45,077	-0,014	0,005
-327,402	63,541	0,077	0,057
-326,387	139,787	0,152	0,146
-325,372	500,951	0,009	-0,016
-324,358	119,739	-0,052	0,047
-323,343	603,560	0,025	0,046
-322,329	42,476	0,119	0,079
-321,314	134,368	-0,077	-0,073
-320,299	-200,000	0,010	0,163
-319,285	-103,821	-0,172	-0,029
-318,270	36,944	-0,031	-0,020
-317,256	-200,000	0,002	0,077
-316,241	325,047	-0,022	0,030
-315,226	-172,576	0,128	0,003
-314,212	-200,000	0,004	0,053
-313,197	800,000	0,013	-0,033
-312,183	800,000	0,034	-0,084
-311,168	94,252	-0,072	-0,060
-310,153	-200,000	0,008	0,086
-309,139	-119,784	-0,138	0,017
-308,124	-43,425	0,107	-0,039
-307,110	134,397	-0,163	0,155
-306,095	172,639	0,130	0,137
-305,080	-200,000	-0,004	0,051
-304,066	-150,693	-0,151	-0,008
-303,051	-62,650	-0,059	0,018
-302,037	530,860	-0,022	0,038
-301,022	378,017	0,045	-0,068
-300,008	192,272	-0,016	0,018
-298,993	122,943	0,043	0,039
-297,978	800,000	-0,058	0,136
-296,964	-200,000	0,010	0,085
-295,949	19,388	0,140	-0,082
-294,935	179,715	0,073	0,079
-293,920	398,485	0,076	-0,116
-292,905	-200,000	-0,018	0,208
-291,891	522,923	-0,055	-0,094
-290,876	800,000	-0,033	0,096
-289,862	117,413	0,034	-0,031
-288,847	190,061	0,038	-0,042
-287,832	210,835	-0,078	-0,090
-286,818	-160,417	-0,013	0,001
-285,803	-77,987	0,195	-0,049
-284,789	-200,000	-0,046	-0,162
-283,774	-200,000	-0,008	-0,067
-282,759	-200,000	-0,009	0,132
-281,745	-119,684	-0,049	-0,006
-280,730	-15,532	-0,192	-0,089
-279,716	-74,075	-0,047	-0,012
-278,701	-26,142	0,036	-0,016
-277,686	-141,703	0,194	0,014
-276,672	418,002	0,025	0,039
-275,657	-63,728	-0,196	0,058
-274,643	-27,326	-0,148	0,063
-273,628	-56,643	-0,150	-0,048
-272,613	-200,000	-0,000	-0,049
-271,599	433,792	0,003	-0,005
-270,584	800,000	0,033	-0,085
-269,570	-53,892	0,040	-0,013
-268,555	620,057	0,044	0,081
-267,540	-95,133	-0,060	-0,012
-266,526	-200,000	0,024	-0,136
-265,511	-200,000	0,028	-0,151
-264,497	124,722	-0,026	-0,024
-263,482	-200,000	0,009	0,069
-262,467	-200,000	0,024	0,164
-261,453	403,293	0,071	0,110
-260,438	-200,000	0,028	-0,108
-259,424	-154,080	-0,132	-0,006
-258,409	800,000	0,039	0,117
-257,395	-200,000	0,000	-0,001
-256,380	800,000	0,034	0,091
-255,365	800,000	-0,042	0,092
-254,351	-169,244	-0,052	0,001
-253,336	160,656	0,080	-0,081
-252,322	800,000	0,017	-0,054
-251,307	-200,000	0,024	-0,092
-250,292	-200,000	-0,055	-0,194
-249,278	205,955	0,078	-0,089
-248,263	-200,000	0,011	0,122
-247,249	589,103	0,027	0,049
-246,234	-97,166	-0,046	0,009
-245,219	-156,902	-0,177	0,008
-244,205	8,035	0,084	-0,046
-243,190	-100,231	-0,018	0,003
-242,176	-97,244	0,028	0,005
-241,161	-200,000	0,019	0,096
-240,146	800,000	0,037	0,097
-239,132	-200,000	-0,008	0,163
-238,117	566,494	0,009	0,016
-237,103	-116,849	-0,056	0,007
-236,088	-5,944	0,084	-0,042
-235,073	277,308	0,056	0,073
-234,059	172,822	-0,059	-0,062
-233,044	-22,470	-0,069	-0,030
-232,030	172,705	0,082	0,087
-231,015	-93,547	0,048	-0,010
-230,000	341,711	0,101	0,145
-228,986	389,499	-0,081	0,122
-227,971	743,999	0,039	-0,078
-226,957	121,696	-0,032	-0,029
-225,942	-200,000	-0,033	0,114
-224,927	-200,000	-0,024	0,086
-223,913	-200,000	-0,036	-0,161
-222,898	114,439	-0,100	-0,089
-221,884	-200,000	0,011	-0,081
-220,869	142,824	-0,076	0,074
-219,855	-114,836	-0,082	-0,011
-218,840	61,450	-0,114	0,083
-217,825	-200,000	0,001	-0,049
-216,811	207,373	0,060	-0,069
-215,796	-69,758	-0,127	0,035
-214,782	271,443	-0,105	-0,135
-213,767	516,085	-0,061	-0,104
-212,752	-200,000	0,000	0,004
-211,738	712,294	0,036	-0,070
-210,723	-200,000	0,013	-0,120
-209,709	-17,573	0,100	0,046
-208,694	800,000	-0,049	-0,141
-207,679	-143,853	0,077	-0,005
-206,665	-200,000	0,001	0,019
-205,650	-120,149	0,124	-0,015
-204,636	211,101	0,086	0,099
-203,621	646,486	-0,062	0,115
-202,606	36,867	-0,049	-0,031
-201,592	-47,759	0,098	0,034
-200,577	-200,000	0,000	-0,111
-199,563	-200,000	0,023	-0,138
-198,548	71,190	0,023	0,017
-197,533	242,748	0,087	0,107
-196,519	300,841	0,044	-0,060
-195,504	599,267	0,065	-0,118
-194,490	-200,000	-0,010	-0,046
-193,475	84,319	0,018	0,014
-192,460	264,044	-0,054	0,069
-191,446	4,418	-0,038	-0,020
-190,431	250,703	0,063	-0,079
-189,417	-84,527	0,078	-0,018
-188,402	800,000	0,010	-0,023
-187,387	800,000	-0,017	-0,040
-186,373	51,502	0,077	0,053
-185,358	276,010	-0,012	0,015
-184,344	112,085	0,020	-0,017
-183,329	-200,000	0,005	-0,022
-182,315	-200,000	0,013	-0,067
-181,300	133,669	-0,041	-0,038
-180,285	80,338	0,137	-0,107
-179,271	800,000	-0,035	0,074
-178,256	198,619	0,056	-0,062
-177,242	-200,000	-0,038	0,130
-176,227	-200,000	0,008	0,084
-175,212	-89,496	0,055	-0,012
-174,198	126,836	0,059	0,055
-173,183	800,000	-0,027	0,060
-172,169	-200,000	0,015	0,066
-171,154	-200,000	-0,005	0,051
-170,139	303,106	-0,033	0,045
-169,125	64,040	0,098	0,072
-168,110	8,176	-0,098	0,054
-167,096	257,309	-0,013	-0,016
-166,081	13,425	-0,055	0,031
-165,066	156,171	-0,123	-0,123
-164,052	-41,536	0,066	0,024
-163,037	-170,085	0,112	-0,003
-162,023	89,231	0,088	0,072
-161,008	-141,820	0,151	-0,011
-159,993	214,253	-0,060	0,069
-158,979	45,394	0,109	-0,073
-157,964	-200,000	-0,012	-0,148
-156,950	447,067	0,026	-0,041
-155,935	-200,000	0,010	0,089
-154,920	-68,345	0,166	0,047
-153,906	800,000	-0,034	0,092
-152,891	253,375	-0,037	0,046
-151,877	-38,463	0,136	0,052
-150,862	-70,924	-0,087	0,024
-149,847	-200,000	-0,003	-0,076
-148,833	41,590	0,094	-0,062
-147,818	507,640	0,040	0,067
-146,804	-200,000	0,011	0,056
-145,789	-200,000	-0,011	0,098
-144,775	82,414	-0,038	0,030
-143,760	-55,573	-0,100	0,033
-142,745	-200,000	-0,007	-0,066
-141,731	-159,366	0,021	-0,001
-140,716	-159,133	-0,082	0,003
-139,702	-27,781	0,123	0,052
-138,687	800,000	-0,025	0,071
-137,672	-200,000	0,008	0,095
-136,658	800,000	-0,032	0,085
-135,643	800,000	-0,060	-0,122
-134,629	171,489	-0,146	-0,153
-133,614	-200,000	0,013	0,078
-132,599	-128,399	0,071	-0,007
-131,585	238,871	-0,010	-0,013
-130,570	183,471	0,054	0,058
-129,556	-200,000	-0,003	0,139
-128,541	102,717	-0,022	0,019
-127,526	-59,179	-0,039	0,012
-126,512	800,000	-0,030	0,087
-125,497	9,202	-0,050	0,027
-124,483	417,420	0,037	0,058
-123,468	-200,000	-0,006	-0,070
-122,453	579,974	0,065	0,116
-121,439	-200,000	-0,012	0,058
-120,424	-45,819	0,029	0,010
-119,410	12,659	0,042	0,023
-118,395	-46,583	-0,091	-0,032
-117,380	29,293	0,058	0,036
-116,366	-80,957	0,171	-0,041
-115,351	-47,931	0,037	-0,013
-114,337	485,791	0,044	-0,073
-113,322	104,310	0,036	0,031
-112,307	-200,000	0,003	-0,036
-111,293	93,503	0,056	-0,046
-110,278	475,343	-0,024	0,040
-109,264	401,954	0,048	-0,074
-108,249	-14,184	0,111	-0,052
-107,234	27,118	-0,009	-0,005
-106,220	-139,542	-0,202	0,015
-105,205	335,553	0,056	-0,079
-104,191	-200,000	-0,012	0,047
-103,176	226,423	-0,038	0,044
-102,162	-142,298	-0,081	-0,006
-101,147	5,666	-0,152	-0,082
-100,132	-200,000	0,023	-0,081
-99,118	800,000	-0,033	-0,090
-98,103	-119,429	0,047	0,006
-97,089	800,000	0,074	0,188
-96,074	322,977	0,087	0,120
-95,059	-52,681	0,052	-0,017
-94,045	-27,588	-0,090	0,038
-93,030	-38,977	0,071	0,027
-92,016	-174,094	-0,077	0,002
-91,001	-200,000	-0,003	-0,077
-89,986	-200,000	0,007	0,181
-88,972	800,000	0,091	0,247
-87,957	800,000	0,054	0,137
-86,943	-200,000	0,010	-0,102
-85,928	800,000	-0,019	0,051
-84,913	187,402	-0,072	0,078
-83,899	211,918	0,043	-0,049
-82,884	150,540	0,081	0,080
-81,870	258,131	-0,040	0,050
-80,855	-200,000	0,046	0,196
-79,840	800,000	-0,003	0,008
-78,826	107,962	0,103	-0,089
-77,811	80,037	-0,043	-0,033
-76,797	-101,958	-0,024	0,004
-75,782	-200,000	-0,015	-0,061
-74,767	-102,282	0,053	0,009
-73,753	41,129	0,081	0,053
-72,738	47,620	0,029	-0,019
-71,724	88,455	-0,204	0,164
-70,709	65,044	-0,107	0,078
-69,694	800,000	-0,019	-0,054
-68,680	789,222	0,041	-0,081
-67,665	31,053	-0,018	-0,011
-66,651	244,329	0,119	0,146
-65,636	-135,161	0,062	-0,005
-64,622	-200,000	-0,019	-0,111
-63,607	-56,336	-0,087	0,028
-62,592	-26,674	-0,133	-0,056
-61,578	-51,415	0,096	-0,032
-60,563	-200,000	0,023	0,098
-59,549	800,000	0,026	0,060
-58,534	-87,126	-1,243	-0,272
-57,519	487,111	-0,897	-1,489
-56,505	-200,000	-0,757	-4,368
-55,490	26,054	0,574	-0,347
-54,476	800,000	4,917	11,477
-53,461	-200,000	13,636	251,728
-52,446	-200,000	689,352	2250,127
-51,432	591,905	1619,523	2909,997
-50,417	119,316	1631,720	1463,374
-49,403	74,267	1286,371	978,205
-48,388	38,249	1022,377	658,385
-47,373	24,352	980,286	585,713
-46,359	23,569	969,911	576,930
-45,344	22,574	965,585	571,091
-44,330	22,476	964,400	570,048
-43,315	22,376	962,751	568,725
-42,300	22,402	961,610	568,113
-41,286	22,351	960,859	567,483
-40,271	22,389	959,781	566,946
-39,257	22,318	959,066	566,271
-38,242	22,330	958,014	565,667
-37,227	22,318	957,246	565,150
-36,213	22,280	956,394	564,503
-35,198	22,310	955,375	563,976
-34,184	22,396	954,760	563,869
-33,169	22,297	954,054	563,109
-32,154	22,409	952,775	562,692
-31,140	22,414	952,003	562,231
-30,125	22,442	951,154	561,798
-29,111	22,406	950,431	561,233
-28,096	22,373	949,642	560,639
-27,082	22,375	949,079	560,290
-26,067	22,420	948,215	559,903
-25,052	22,370	947,634	559,376
-24,038	22,370	946,917	558,930
-23,023	22,354	946,354	558,526
-22,009	22,427	945,631	558,309
-20,994	22,361	945,165	557,801
-19,979	22,335	944,530	557,322
-18,965	22,384	943,951	557,116
-17,950	22,406	943,235	556,740
-16,936	22,361	942,479	556,128
-15,921	22,307	942,062	555,687
-14,906	22,270	941,115	554,991
-13,892	22,271	940,654	554,699
-12,877	22,190	939,866	553,957
-11,863	22,173	939,219	553,499
-10,848	22,264	938,713	553,466
-9,833	22,374	938,296	553,547
-8,819	22,343	937,482	552,948
-7,804	22,286	937,022	552,473
-6,790	22,290	936,259	552,016
-5,775	22,304	935,737	551,731
-4,760	22,283	935,283	551,372
-3,746	22,252	934,609	550,855
-2,731	22,130	933,829	549,990
-1,717	22,059	933,173	549,359
-0,702	22,100	932,503	549,072
0,313	21,926	931,780	548,929
1,327	24,300	929,437	554,940
2,342	31,886	807,626	502,718
3,356	27,044	507,533	307,663
4,371	3,088	372,183	195,299
5,386	0,169	354,880	182,644
6,400	-1,420	348,634	177,507
7,415	-2,108	346,012	175,337
8,429	-2,402	344,464	174,189
9,444	-2,243	343,605	173,926
10,459	-2,174	343,016	173,693
11,473	-2,262	342,451	173,289
12,488	-1,989	341,825	173,277
13,502	-1,830	341,206	173,135
14,517	-2,017	340,829	172,710
15,531	-2,178	340,170	172,171
16,546	-2,111	339,775	172,034
17,561	-2,144	339,420	171,801
18,575	-2,088	339,009	171,643
19,590	-2,175	338,683	171,362
20,604	-2,261	338,342	171,074
21,619	-2,101	337,911	171,026
22,634	-1,988	337,394	170,880
23,648	-2,293	337,336	170,481
24,663	-2,130	337,032	170,501
25,677	-1,957	336,559	170,448
26,692	-2,193	336,282	170,019
27,707	-2,149	336,086	169,956
28,721	-2,200	335,750	169,712
29,736	-2,160	335,229	169,480
30,750	-2,171	335,105	169,389
31,765	-2,172	334,710	169,173
32,780	-2,139	334,593	169,137
33,794	-2,052	334,268	169,058
34,809	-2,233	334,054	168,727
35,823	-2,011	333,576	168,724
36,838	-2,243	333,390	168,350
37,853	-2,210	333,120	168,236
38,867	-2,021	332,747	168,248
39,882	-2,191	332,418	167,874
40,896	-2,251	332,266	167,713
41,911	-2,350	332,029	167,465
42,926	-2,205	331,833	167,517
43,940	-2,288	331,414	167,196
44,955	-2,324	331,242	167,053
45,969	-2,419	330,923	166,770
46,984	-2,602	330,741	166,456
47,999	-2,664	330,425	166,211
49,013	-2,720	329,962	165,900
50,028	-2,888	329,712	165,569
51,042	-2,823	329,429	165,486
52,057	-2,866	329,166	165,291
53,071	-2,792	328,788	165,170
54,086	-2,870	328,657	165,002
55,101	-2,821	328,594	165,010
56,115	-2,647	328,342	165,065
57,130	-2,310	328,176	165,346
58,144	-2,129	328,030	165,461
59,159	-2,203	327,738	165,216
60,174	-2,019	327,368	165,221
61,188	-2,006	327,147	165,109
62,203	-2,104	327,058	164,940
63,217	-2,056	326,693	164,795
64,232	-2,001	326,453	164,721
65,247	-1,930	326,264	164,690
66,261	-1,955	325,871	164,448
67,276	-2,219	325,497	163,952
68,290	-2,443	325,293	163,584
69,305	-2,529	325,075	163,364
70,320	-2,390	324,802	163,367
71,334	-2,237	324,637	163,439
72,349	-1,946	324,268	163,563
73,363	-1,995	324,023	163,369
74,378	-2,222	323,878	163,030
75,393	-2,147	323,685	163,002
76,407	-2,159	323,457	162,859
77,422	-1,880	323,187	163,017
78,436	-2,157	322,915	162,560
79,451	-1,998	322,695	162,610
80,466	-2,259	322,437	162,177
81,480	-2,277	321,910	161,878
82,495	-2,464	321,762	161,584
83,509	-2,247	321,354	161,603
84,524	-2,535	321,314	161,251
85,539	-2,453	321,102	161,221
86,553	-2,459	320,758	161,027
87,568	-2,389	320,519	160,970
88,582	-2,416	320,321	160,826
89,597	-2,524	320,173	160,619
90,611	-2,252	319,933	160,782
91,626	-2,293	319,865	160,688
92,641	-2,172	319,479	160,612
93,655	-2,190	319,289	160,483
94,670	-2,323	319,076	160,216
95,684	-2,311	318,841	160,097
96,699	-2,303	318,582	159,961
97,714	-2,357	318,277	159,736
98,728	-2,341	318,076	159,638
99,743	-2,409	317,787	159,405
100,757	-2,482	317,445	159,140
101,772	-2,512	317,342	159,041
102,787	-2,373	317,099	159,056
103,801	-2,387	316,958	158,956
104,816	-2,301	316,847	158,980
105,830	-2,223	316,624	158,937
106,845	-2,212	316,437	158,841
107,860	-2,209	316,123	158,673
108,874	-2,351	315,862	158,374
109,889	-2,296	315,470	158,223
110,903	-2,152	315,340	158,298
111,918	-2,431	315,156	157,892
112,933	-2,272	314,914	157,928
113,947	-2,185	314,707	157,904
114,962	-2,126	314,478	157,838
115,976	-2,062	314,203	157,754
116,991	-2,315	314,102	157,418
118,006	-2,238	313,827	157,348
119,020	-2,176	313,675	157,325
120,035	-2,235	313,486	157,153
121,049	-2,075	313,332	157,233
122,064	-2,135	313,151	157,064
123,079	-2,287	312,747	156,685
124,093	-2,280	312,575	156,593
125,108	-2,391	312,391	156,368
126,122	-2,545	311,946	155,967
127,137	-2,482	311,812	155,954
128,151	-2,719	311,669	155,617
129,166	-2,403	311,236	155,721
130,181	-2,493	311,134	155,562
131,195	-2,617	310,841	155,270
132,210	-2,270	310,635	155,520
133,224	-2,079	310,447	155,614
134,239	-2,112	310,270	155,477
135,254	-2,228	310,120	155,265
136,268	-2,066	309,742	155,233
137,283	-2,270	309,438	154,852
138,297	-2,541	309,177	154,422
139,312	-2,499	308,975	154,352
140,327	-2,281	308,850	154,504
141,341	-2,113	308,725	154,605
142,356	-1,824	308,682	154,873
143,370	-1,735	308,462	154,842
144,385	-1,948	308,297	154,522
145,400	-1,923	307,888	154,329
146,414	-2,063	307,714	154,083
147,429	-1,761	307,376	154,215
148,443	-2,006	307,321	153,917
149,458	-1,904	307,302	154,001
150,473	-1,885	306,912	153,811
151,487	-1,997	306,656	153,553
152,502	-1,996	306,615	153,519
153,516	-1,839	306,157	153,440
154,531	-2,114	306,120	153,121
155,546	-1,963	305,903	153,156
156,560	-1,991	305,648	152,986
157,575	-2,080	305,374	152,742
158,589	-2,049	305,000	152,574
159,604	-1,993	304,999	152,618
160,619	-1,959	304,716	152,498
161,633	-1,922	304,622	152,476
162,648	-2,018	304,397	152,251
163,662	-1,934	304,255	152,252
164,677	-1,973	304,005	152,073
165,692	-2,012	303,821	151,928
166,706	-1,865	303,544	151,927
167,721	-2,024	303,420	151,688
168,735	-1,901	303,164	151,673
169,750	-1,704	303,029	151,794
170,764	-1,775	302,914	151,650
171,779	-1,776	302,794	151,576
172,794	-1,731	302,473	151,447
173,808	-1,722	302,212	151,312
174,823	-2,202	301,911	150,657
175,837	-2,386	301,568	150,283
176,852	-1,997	301,412	150,590
177,867	-1,960	301,567	150,692
178,881	-1,854	301,382	150,694
179,896	-1,851	301,182	150,584
180,910	-1,814	300,942	150,489
181,925	-1,703	300,638	150,436
182,940	-1,797	300,537	150,276
183,954	-1,703	300,287	150,233
184,969	-1,816	300,014	149,969
185,983	-1,941	299,897	149,770
186,998	-1,940	299,713	149,665
188,013	-1,689	299,407	149,755
189,027	-1,798	299,135	149,494
190,042	-1,691	298,960	149,502
191,056	-1,735	298,903	149,416
192,071	-1,694	298,812	149,399
193,086	-1,601	298,499	149,322
194,100	-1,695	298,369	149,149
195,115	-1,706	298,131	149,006
196,129	-1,669	297,758	148,844
197,144	-1,744	297,667	148,709
198,159	-1,735	297,445	148,594
199,173	-1,653	297,266	148,574
200,188	-1,918	297,215	148,269
201,202	-1,881	296,757	148,064
202,217	-2,164	296,272	147,525
203,232	-2,336	296,299	147,352
204,246	-2,101	295,979	147,415
205,261	-1,786	295,960	147,709
206,275	-1,986	296,040	147,535
207,290	-1,803	295,648	147,510
208,304	-1,633	295,381	147,533
209,319	-1,766	295,276	147,334
210,334	-1,701	294,990	147,243
211,348	-1,748	294,797	147,087
212,363	-1,709	294,550	146,990
213,377	-1,858	294,446	146,776
214,392	-1,839	294,264	146,692
215,407	-1,935	293,953	146,428
216,421	-2,106	293,714	146,126
217,436	-2,039	293,468	146,057
218,450	-2,028	293,221	145,932
219,465	-2,010	293,167	145,911
220,480	-1,827	292,879	145,935
221,494	-1,943	292,824	145,779
222,509	-1,884	292,661	145,744
223,523	-1,891	292,577	145,682
224,538	-1,766	292,339	145,674
225,553	-1,706	292,049	145,576
226,567	-1,840	291,885	145,349
227,582	-1,710	291,764	145,404
228,596	-1,681	291,699	145,388
229,611	-1,662	291,445	145,266
230,626	-1,786	291,219	145,019
231,640	-2,117	290,925	144,534
232,655	-2,452	290,540	144,002
233,669	-2,472	290,429	143,914
234,684	-2,396	290,154	143,839
235,699	-2,346	290,018	143,808
236,713	-2,347	289,896	143,734
237,728	-2,283	289,725	143,699
238,742	-2,035	289,607	143,870
239,757	-1,858	289,466	143,960
240,772	-1,844	289,328	143,892
241,786	-1,930	289,027	143,645
242,801	-2,110	288,884	143,387
243,815	-2,082	288,652	143,286
244,830	-1,969	288,337	143,227
245,844	-2,126	288,167	142,976
246,859	-2,062	288,048	142,967
247,874	-2,338	288,043	142,683
248,888	-2,072	287,557	142,688
249,903	-1,873	287,571	142,876
250,917	-1,913	287,428	142,753
251,932	-1,679	287,266	142,886
252,947	-1,342	287,398	143,265
253,961	-1,677	286,960	142,710
254,976	-0,724	287,330	143,804
255,990	1,929	288,119	146,756
257,005	2,880	288,339	147,777
258,020	4,019	288,628	149,015
259,034	4,020	288,484	148,928
260,049	4,025	288,214	148,780
261,063	3,911	288,142	148,619
262,078	3,816	288,134	148,511
263,093	4,554	288,109	149,197
264,107	4,779	287,755	149,217
265,122	4,748	287,649	149,119
266,136	4,952	287,447	149,198
267,151	4,699	287,275	148,852
268,166	4,564	287,013	148,573
269,180	4,518	286,907	148,461
270,195	4,695	286,775	148,549
271,209	4,699	286,457	148,374
272,224	4,432	286,335	148,042
273,239	4,503	286,088	147,969
274,253	4,473	285,859	147,808
275,268	4,791	285,792	148,065
276,282	4,915	285,635	148,090
277,297	4,603	285,351	147,631
278,312	4,710	285,287	147,687
279,326	4,819	285,182	147,724
280,341	4,615	284,954	147,398
281,355	4,602	284,598	147,187
282,370	4,675	284,378	147,131
283,384	4,409	284,273	146,810
284,399	4,505	284,137	146,818
285,414	4,594	283,853	146,743
286,428	4,344	283,565	146,344
287,443	4,084	283,378	145,988
288,457	4,211	283,210	146,009
289,472	4,130	282,949	145,784
290,487	4,188	282,875	145,787
291,501	4,144	282,585	145,584
292,516	3,825	282,265	145,104
293,530	3,987	282,111	145,165
294,545	4,053	282,317	145,321
295,560	4,192	282,155	145,355
296,574	4,076	281,782	145,041
297,589	4,175	281,629	145,043
298,603	4,659	281,561	145,451
299,618	4,590	281,366	145,272
300,633	4,434	281,104	144,977
301,647	4,431	281,025	144,921
302,662	4,481	280,768	144,821
303,676	4,150	280,595	144,409
304,691	4,001	280,243	144,076
305,706	3,822	279,976	143,758
306,720	3,850	279,990	143,779
307,735	3,823	279,734	143,609
308,749	4,183	279,626	143,877
309,764	4,316	279,485	143,916
310,779	4,031	279,185	143,483
311,793	4,026	278,957	143,348
312,808	3,791	278,891	143,083
313,822	4,134	278,594	143,237
314,837	3,863	278,474	142,911
315,852	3,742	278,157	142,622
316,866	3,801	278,038	142,604
317,881	4,034	277,879	142,725
318,895	3,984	277,756	142,603
319,910	3,847	277,406	142,284
320,925	3,741	277,231	142,083
321,939	3,943	277,210	142,247
322,954	3,924	277,125	142,173
323,968	4,143	276,934	142,265
324,983	4,311	276,820	142,349
325,997	4,165	276,644	142,111
327,012	4,449	276,417	142,243
328,027	4,172	276,264	141,897
329,041	4,115	275,996	141,693
330,056	4,192	276,032	141,770
331,070	4,197	275,840	141,664
332,085	3,931	275,548	141,257
333,100	4,208	275,376	141,410
334,114	4,014	275,153	141,105
335,129	3,885	274,848	140,818
336,143	4,140	274,889	141,060
337,158	4,426	274,726	141,225
338,173	4,463	274,398	141,079
339,187	4,063	274,330	140,665
340,202	4,224	274,120	140,692
341,216	4,283	273,982	140,662
342,231	4,201	273,843	140,504
343,246	4,122	273,676	140,333
344,260	3,925	273,518	140,061
345,275	4,177	273,460	140,248
346,289	4,406	273,378	140,402
347,304	4,591	273,089	140,409
348,319	4,253	272,863	139,973
349,333	4,040	272,639	139,653
350,348	4,431	272,599	139,974
351,362	4,492	272,441	139,936
352,377	4,421	272,125	139,696
353,392	4,510	272,065	139,734
354,406	4,615	271,903	139,733
355,421	191,233	1330,976	1408,226
356,435	154,472	1460,097	1408,353
