DTS Sentinel unit serial number:	SN410029Multiplexer serial number:	ORYXHardware model number:	OX2-SRSoftware version number:	ORYX F/W v4,00 Oryx Data Collector v3.7.2.0data status	okinstallation	B4 Nyhavnadifferential loss correction	single-endedforward channel	channel 2reverse channel	N/Adate	2023/12/15time	15:45:13forward acquisition time	300,00reverse acquisition time	0,00gamma	499,1914k internal	0,3151k external	0,3151temperature offset calibration	1,0000default loss term (dB/km)	0,3820temperature slope calibration	1,0000multiplexer offset coefficient	1,0000multiplexer slope coefficient	1,0000fibre end	0,00T internal ref (°C)	16,71T ext. ref 1 (°C)	2,98T ext. ref 2 (°C)	3,08length (m)	temperature (°C)	Stokes	anti-Stokes-744,400	67,452	0,058	0,044
-743,385	-194,490	-0,373	0,002
-742,371	278,797	0,124	0,164
-741,356	-176,901	-0,256	-0,005
-740,342	26,975	0,123	0,076
-739,327	-161,288	-0,242	-0,009
-738,312	-149,734	0,126	-0,007
-737,298	-163,252	-0,419	0,015
-736,283	-162,140	0,138	0,005
-735,269	-76,007	-0,236	0,061
-734,254	388,945	0,031	0,047
-733,239	-109,781	-0,486	-0,075
-732,225	-104,916	0,142	0,024
-731,210	-62,506	0,024	0,007
-730,196	800,000	0,013	-0,033
-729,181	-91,630	-0,094	0,020
-728,167	689,783	0,048	-0,093
-727,152	-96,459	0,060	-0,012
-726,137	443,419	0,058	-0,095
-725,123	800,000	-0,043	0,133
-724,108	800,000	0,010	0,033
-723,094	800,000	-0,047	-0,107
-722,079	319,227	0,033	-0,046
-721,064	397,365	0,047	0,073
-720,050	757,588	-0,057	-0,114
-719,035	-94,989	0,055	-0,011
-718,021	800,000	-0,044	0,093
-717,006	-200,000	0,001	0,010
-715,991	-200,000	-0,026	-0,110
-714,977	-117,211	-0,058	0,008
-713,962	800,000	0,034	-0,101
-712,948	-84,538	-0,121	-0,028
-711,933	-186,117	0,014	0,000
-710,918	64,252	0,032	-0,024
-709,904	-200,000	-0,028	-0,246
-708,889	519,761	0,109	-0,190
-707,875	163,729	0,022	0,023
-706,860	-200,000	-0,010	-0,051
-705,845	-200,000	-0,011	0,039
-704,831	-89,573	0,077	0,017
-703,816	-88,992	-0,045	-0,010
-702,802	800,000	-0,061	-0,141
-701,787	585,331	-0,089	-0,162
-700,772	125,116	0,058	-0,054
-699,758	-200,000	-0,006	-0,048
-698,743	800,000	0,067	0,193
-697,729	-8,408	-0,047	0,023
-696,714	653,531	-0,031	-0,060
-695,699	358,597	0,076	-0,112
-694,685	-2,479	0,104	-0,053
-693,670	77,148	-0,128	-0,100
-692,656	-200,000	0,003	-0,116
-691,641	190,070	-0,095	-0,105
-690,627	598,522	0,023	0,042
-689,612	232,105	-0,092	0,111
-688,597	73,754	-0,127	-0,098
-687,583	34,581	-0,123	0,079
-686,568	800,000	-0,009	0,021
-685,554	164,376	-0,038	-0,039
-684,539	-190,143	0,044	-0,000
-683,524	800,000	0,059	0,155
-682,510	510,475	-0,039	0,068
-681,495	35,434	0,051	0,033
-680,481	-178,099	-0,150	0,003
-679,466	-200,000	0,017	-0,066
-678,451	462,858	-0,025	0,041
-677,437	-198,470	-0,088	0,000
-676,422	-83,924	0,075	0,017
-675,408	79,483	0,119	0,094
-674,393	119,580	-0,176	-0,160
-673,378	-157,157	-0,052	0,002
-672,364	800,000	-0,017	-0,038
-671,349	-200,000	0,029	-0,195
-670,335	-200,000	-0,005	-0,050
-669,320	115,607	-0,066	-0,060
-668,305	128,054	-0,042	0,039
-667,291	-200,000	0,014	0,068
-666,276	800,000	-0,033	-0,078
-665,262	317,419	-0,035	-0,049
-664,247	800,000	-0,036	-0,076
-663,232	-60,060	0,085	-0,027
-662,218	-57,149	-0,208	0,067
-661,203	23,931	0,065	0,039
-660,189	35,347	0,049	-0,032
-659,174	-200,000	-0,016	-0,093
-658,159	48,346	0,113	-0,078
-657,145	800,000	-0,104	-0,218
-656,130	53,820	0,041	0,029
-655,116	154,972	-0,063	0,064
-654,101	11,062	0,088	0,049
-653,086	-200,000	-0,015	-0,054
-652,072	506,422	-0,049	-0,085
-651,057	-200,000	-0,025	-0,150
-650,043	-45,082	-0,092	-0,033
-649,028	-126,518	-0,080	0,009
-648,014	-200,000	0,009	-0,052
-646,999	-130,039	0,049	0,005
-645,984	152,187	0,030	-0,030
-644,970	175,082	-0,125	0,133
-643,955	-200,000	0,006	-0,026
-642,941	800,000	-0,049	-0,127
-641,926	700,807	0,020	0,039
-640,911	-200,000	0,008	0,129
-639,897	211,213	0,060	0,070
-638,882	-112,952	-0,073	0,011
-637,868	92,220	-0,074	0,061
-636,853	-200,000	0,001	0,063
-635,838	480,904	0,051	0,085
-634,824	113,469	-0,046	0,041
-633,809	800,000	0,062	-0,134
-632,795	800,000	-0,058	0,129
-631,780	10,309	0,040	-0,023
-630,765	-86,945	-0,120	-0,027
-629,751	-75,283	-0,056	-0,015
-628,736	35,796	-0,094	-0,061
-627,722	-5,782	-0,036	0,018
-626,707	-200,000	0,001	0,049
-625,692	800,000	-0,050	0,117
-624,678	3,911	0,007	0,003
-623,663	-9,859	-0,095	0,046
-622,649	-108,780	-0,186	-0,029
-621,634	163,596	0,020	-0,020
-620,619	-154,711	-0,125	-0,006
-619,605	800,000	-0,037	0,083
-618,590	-31,056	0,045	-0,018
-617,576	-49,387	-0,045	0,016
-616,561	-200,000	-0,036	0,118
-615,546	800,000	-0,044	-0,112
-614,532	213,712	-0,110	-0,128
-613,517	-111,398	0,078	0,012
-612,503	-200,000	-0,013	-0,126
-611,488	-73,790	0,058	0,015
-610,474	-200,000	0,035	-0,222
-609,459	-200,000	-0,009	0,077
-608,444	-92,721	0,103	-0,021
-607,430	14,751	-0,108	-0,062
-606,415	211,163	-0,083	0,096
-605,401	231,317	-0,045	0,054
-604,386	-151,590	0,092	0,005
-603,371	-34,239	0,097	0,039
-602,357	-200,000	0,031	-0,151
-601,342	346,220	-0,034	0,049
-600,328	311,468	-0,139	-0,191
-599,313	-85,068	-0,033	0,007
-598,298	800,000	-0,050	-0,127
-597,284	-200,000	0,003	-0,077
-596,269	164,879	-0,046	-0,047
-595,255	800,000	0,029	0,072
-594,240	268,337	0,070	-0,090
-593,225	-27,850	-0,167	-0,071
-592,211	800,000	0,050	0,138
-591,196	-200,000	-0,014	0,083
-590,182	646,099	0,082	-0,154
-589,167	-200,000	0,003	-0,018
-588,152	-161,514	0,050	0,002
-587,138	-200,000	0,002	0,007
-586,123	53,059	-0,080	-0,056
-585,109	-36,632	0,080	-0,031
-584,094	413,528	0,067	-0,105
-583,079	-13,985	-0,091	-0,043
-582,065	14,685	0,092	0,053
-581,050	-30,568	0,144	0,060
-580,036	800,000	0,040	-0,111
-579,021	189,745	-0,111	0,123
-578,006	-200,000	0,006	-0,102
-576,992	800,000	0,012	-0,034
-575,977	-44,487	-0,023	-0,008
-574,963	800,000	0,025	0,080
-573,948	338,565	0,095	0,135
-572,934	-200,000	-0,002	-0,011
-571,919	137,629	-0,243	-0,233
-570,904	-113,190	-0,095	-0,014
-569,890	321,925	0,059	-0,083
-568,875	24,575	0,050	-0,030
-567,861	-121,278	0,161	0,019
-566,846	168,090	0,044	-0,046
-565,831	87,413	0,082	-0,066
-564,817	-200,000	-0,019	-0,105
-563,802	800,000	-0,067	-0,206
-562,788	317,241	-0,057	-0,080
-561,773	232,819	-0,105	0,127
-560,758	316,283	0,078	0,108
-559,744	245,752	0,031	0,039
-558,729	153,679	0,016	0,016
-557,715	228,066	-0,051	-0,061
-556,700	800,000	-0,040	-0,091
-555,685	-200,000	0,014	0,092
-554,671	596,372	0,023	-0,042
-553,656	150,975	-0,055	-0,055
-552,642	-200,000	0,023	0,079
-551,627	461,730	-0,013	-0,022
-550,612	305,694	0,054	0,074
-549,598	109,868	-0,081	0,071
-548,583	341,983	-0,030	-0,044
-547,569	62,615	0,064	0,047
-546,554	47,191	-0,036	-0,024
-545,539	-26,772	0,072	-0,031
-544,525	104,025	-0,095	-0,082
-543,510	-200,000	0,042	-0,147
-542,496	-200,000	-0,005	-0,059
-541,481	-200,000	0,006	0,029
-540,466	128,183	0,030	-0,028
-539,452	800,000	-0,037	0,093
-538,437	73,084	0,081	0,062
-537,423	-200,000	-0,002	0,068
-536,408	-200,000	0,011	0,160
-535,393	-81,884	-0,045	-0,011
-534,379	-200,000	-0,002	-0,027
-533,364	295,949	-0,038	-0,051
-532,350	-37,810	-0,068	-0,026
-531,335	219,648	-0,049	-0,057
-530,321	-200,000	0,015	-0,052
-529,306	-98,855	-0,131	0,024
-528,291	800,000	-0,132	-0,281
-527,277	-74,212	-0,035	-0,009
-526,262	785,020	-0,015	0,030
-525,248	-200,000	0,001	-0,031
-524,233	108,570	0,046	-0,040
-523,218	331,733	0,012	0,017
-522,204	-49,967	-0,072	0,025
-521,189	800,000	-0,081	-0,171
-520,175	260,069	0,011	-0,015
-519,160	-107,564	-0,089	-0,014
-518,145	77,501	0,086	0,067
-517,131	-131,247	0,081	-0,008
-516,116	605,606	0,047	-0,085
-515,102	-131,238	-0,121	0,012
-514,087	-200,000	0,004	0,021
-513,072	81,623	-0,091	0,072
-512,058	-127,677	0,156	-0,016
-511,043	410,205	0,049	0,076
-510,029	-103,145	-0,123	0,021
-509,014	65,867	0,049	0,037
-507,999	-113,172	0,155	0,022
-506,985	-200,000	0,010	-0,118
-505,970	-54,182	0,028	-0,009
-504,956	106,535	-0,050	0,044
-503,941	-74,048	0,117	-0,031
-502,926	-200,000	-0,008	0,044
-501,912	80,315	-0,096	-0,076
-500,897	-115,978	0,057	-0,008
-499,883	-54,867	0,078	-0,026
-498,868	-200,000	0,003	-0,015
-497,853	-93,686	-0,082	0,016
-496,839	-111,993	0,116	0,017
-495,824	-200,000	-0,013	-0,122
-494,810	-72,847	0,030	0,008
-493,795	-25,213	0,077	-0,033
-492,781	-200,000	-0,001	0,084
-491,766	-47,226	0,068	0,024
-490,751	800,000	-0,058	-0,125
-489,737	-200,000	0,001	-0,060
-488,722	-200,000	-0,013	-0,046
-487,708	210,264	0,013	-0,014
-486,693	82,163	0,019	0,015
-485,678	48,100	-0,095	-0,065
-484,664	-169,669	-0,153	-0,004
-483,649	601,279	-0,037	0,068
-482,635	-200,000	-0,010	-0,047
-481,620	487,753	0,044	0,073
-480,605	356,359	0,020	-0,030
-479,591	800,000	0,008	0,022
-478,576	117,379	-0,065	-0,059
-477,562	800,000	-0,017	-0,055
-476,547	4,510	-0,036	0,019
-475,532	-200,000	-0,012	0,143
-474,518	-80,745	0,079	0,019
-473,503	452,630	0,039	0,063
-472,489	45,074	-0,041	0,028
-471,474	-41,518	0,139	-0,052
-470,459	-200,000	-0,008	-0,072
-469,445	-104,981	-0,060	0,010
-468,430	66,447	-0,070	-0,052
-467,416	61,006	-0,103	0,075
-466,401	-116,871	0,087	-0,012
-465,386	-33,497	-0,093	0,037
-464,372	159,748	-0,074	0,075
-463,357	-200,000	-0,016	0,084
-462,343	80,690	-0,096	0,076
-461,328	-200,000	0,013	-0,073
-460,313	182,666	0,061	0,066
-459,299	-107,947	-0,155	0,024
-458,284	-200,000	-0,011	-0,093
-457,270	53,909	-0,065	-0,046
-456,255	-93,124	-0,109	0,022
-455,241	-200,000	-0,168	0,000
-454,226	-68,982	0,088	-0,024
-453,211	-200,000	-0,012	-0,090
-452,197	800,000	-0,026	0,064
-451,182	116,612	0,081	0,073
-450,168	28,269	-0,026	0,016
-449,153	34,921	0,066	0,042
-448,138	97,794	-0,057	-0,047
-447,124	-200,000	-0,008	-0,067
-446,109	800,000	0,040	-0,110
-445,095	77,724	-0,081	0,063
-444,080	74,902	0,170	0,130
-443,065	800,000	0,079	0,173
-442,051	-27,762	-0,155	0,065
-441,036	122,899	0,030	-0,027
-440,022	800,000	0,044	-0,114
-439,007	57,764	0,133	0,095
-437,992	284,394	0,055	-0,072
-436,978	163,376	0,031	0,032
-435,963	740,090	-0,113	0,223
-434,949	95,944	-0,078	0,065
-433,934	-200,000	0,001	0,178
-432,919	16,835	-0,084	-0,048
-431,905	98,916	-0,032	0,027
-430,890	525,047	-0,030	0,052
-429,876	800,000	0,024	0,074
-428,861	-200,000	-0,021	0,130
-427,846	604,322	-0,011	-0,020
-426,832	-22,637	-0,102	0,045
-425,817	-180,682	-0,025	0,000
-424,803	107,738	-0,095	-0,083
-423,788	72,032	-0,032	0,024
-422,773	448,500	0,095	0,153
-421,759	32,525	0,031	-0,020
-420,744	76,665	0,102	0,078
-419,730	-156,316	-0,070	0,003
-418,715	154,708	0,085	-0,086
-417,701	-55,720	0,196	-0,063
-416,686	-145,392	-0,137	-0,009
-415,671	22,004	-0,049	-0,029
-414,657	-200,000	0,001	0,050
-413,642	-136,207	-0,029	-0,002
-412,628	268,415	-0,065	-0,083
-411,613	51,814	-0,088	-0,061
-410,598	259,234	0,044	-0,056
-409,584	184,076	0,047	-0,051
-408,569	26,500	-0,048	0,029
-407,555	242,163	0,071	0,087
-406,540	-0,866	-0,049	-0,025
-405,525	800,000	0,024	-0,062
-404,511	387,761	-0,009	0,014
-403,496	-200,000	-0,006	-0,066
-402,482	-41,145	0,059	0,022
-401,467	83,534	0,025	0,020
-400,452	213,491	-0,039	-0,045
-399,438	16,508	0,160	0,092
-398,423	-200,000	0,009	-0,072
-397,409	-77,093	-0,179	-0,045
-396,394	709,534	-0,047	0,091
-395,379	107,300	-0,053	0,046
-394,365	-61,514	-0,087	0,026
-393,350	-25,884	-0,055	-0,024
-392,336	330,896	0,067	-0,094
-391,321	233,483	0,064	0,077
-390,306	-97,776	-0,132	-0,025
-389,292	170,251	-0,041	0,043
-388,277	5,763	-0,073	0,039
-387,263	121,424	-0,036	0,032
-386,248	218,566	0,031	0,036
-385,233	-200,000	-0,009	0,087
-384,219	-200,000	0,009	0,034
-383,204	800,000	-0,033	-0,100
-382,190	-200,000	0,022	-0,117
-381,175	445,574	-0,026	0,041
-380,160	-200,000	-0,022	-0,170
-379,146	263,667	0,067	-0,085
-378,131	-200,000	0,011	-0,055
-377,117	-200,000	0,012	0,094
-376,102	-200,000	-0,003	-0,088
-375,088	-57,029	-0,196	0,063
-374,073	-163,572	-0,069	0,002
-373,058	486,704	-0,078	-0,130
-372,044	-74,937	0,072	-0,019
-371,029	-105,627	-0,134	0,022
-370,015	-44,869	0,043	-0,015
-369,000	800,000	0,044	-0,100
-367,985	-64,919	-0,045	-0,013
-366,971	800,000	0,035	0,082
-365,956	-200,000	0,010	0,126
-364,942	-200,000	0,010	0,052
-363,927	-5,291	-0,096	-0,048
-362,912	-192,931	0,079	-0,001
-361,898	-56,176	-0,023	-0,007
-360,883	-78,108	-0,095	-0,024
-359,869	-200,000	-0,039	-0,126
-358,854	127,544	0,107	0,099
-357,839	-132,185	0,156	0,015
-356,825	-44,940	0,063	0,023
-355,810	-200,000	0,017	0,114
-354,796	16,463	-0,152	-0,087
-353,781	-87,401	0,135	0,030
-352,766	-45,235	-0,093	-0,033
-351,752	-200,000	0,011	-0,061
-350,737	-58,438	0,128	0,040
-349,723	320,112	0,021	0,029
-348,708	-200,000	0,030	0,098
-347,693	800,000	0,019	-0,057
-346,679	258,751	0,086	-0,109
-345,664	160,315	0,066	-0,067
-344,650	-200,000	0,013	-0,063
-343,635	-17,418	0,090	-0,041
-342,620	-200,000	-0,001	0,142
-341,606	9,360	0,021	0,011
-340,591	186,539	-0,034	0,037
-339,577	-27,080	0,058	0,024
-338,562	-200,000	-0,005	-0,033
-337,548	800,000	-0,036	0,092
-336,533	-200,000	0,021	0,071
-335,518	378,301	0,077	0,115
-334,504	280,618	-0,066	-0,086
-333,489	-200,000	0,004	0,041
-332,475	-200,000	0,001	0,070
-331,460	1,887	-0,091	0,048
-330,445	260,758	-0,050	0,063
-329,431	102,283	0,032	0,027
-328,416	-127,588	0,103	-0,011
-327,402	124,874	0,009	0,008
-326,387	-200,000	0,017	0,084
-325,372	800,000	0,054	-0,161
-324,358	-200,000	0,019	-0,091
-323,343	589,344	-0,037	-0,067
-322,329	-88,904	0,103	0,022
-321,314	-171,863	-0,043	-0,001
-320,299	-100,806	0,157	0,028
-319,285	-18,944	-0,158	-0,071
-318,270	-200,000	0,003	0,055
-317,256	757,789	-0,040	0,079
-316,241	800,000	-0,044	-0,125
-315,226	-200,000	0,000	-0,051
-314,212	-33,769	0,083	-0,033
-313,197	333,312	0,041	-0,058
-312,183	800,000	0,041	-0,088
-311,168	-28,094	-0,074	-0,031
-310,153	-52,772	0,138	0,046
-309,139	-125,574	0,063	-0,007
-308,124	-200,000	0,037	0,154
-307,110	209,545	0,082	-0,093
-306,095	-129,816	0,214	0,021
-305,080	50,318	-0,057	-0,039
-304,066	564,580	0,013	-0,024
-303,051	355,932	0,054	-0,079
-302,037	232,816	0,040	0,048
-301,022	149,324	0,064	-0,063
-300,008	105,453	-0,076	0,065
-298,993	-109,655	0,120	0,018
-297,978	528,683	0,010	-0,018
-296,964	-200,000	-0,022	0,107
-295,949	453,577	-0,072	-0,116
-294,935	268,314	0,029	0,036
-293,920	252,031	-0,124	0,153
-292,905	-75,056	0,216	-0,056
-291,891	455,415	0,042	-0,068
-290,876	-24,883	-0,074	0,032
-289,862	508,919	-0,028	-0,048
-288,847	82,849	-0,083	-0,066
-287,832	379,548	0,034	0,050
-286,818	339,897	-0,063	0,089
-285,803	-171,199	0,080	-0,002
-284,789	177,180	0,137	0,144
-283,774	8,585	0,034	0,019
-282,759	-40,387	-0,047	-0,018
-281,745	-169,144	0,083	0,002
-280,730	800,000	-0,031	-0,092
-279,716	-37,046	0,036	-0,014
-278,701	-124,698	0,136	-0,015
-277,686	264,883	0,062	-0,078
-276,672	549,119	0,038	0,067
-275,657	35,783	0,075	0,048
-274,643	-200,000	-0,019	-0,081
-273,628	-200,000	-0,018	0,060
-272,613	800,000	0,024	0,049
-271,599	-53,190	-0,042	-0,014
-270,584	34,244	0,128	0,081
-269,570	-27,048	-0,042	0,018
-268,555	-97,068	0,165	0,031
-267,540	-39,569	-0,088	-0,033
-266,526	-154,086	-0,118	0,006
-265,511	-69,952	0,122	-0,033
-264,497	748,667	0,050	-0,098
-263,482	278,406	0,036	-0,047
-262,467	800,000	0,049	0,098
-261,453	10,993	0,070	0,039
-260,438	192,583	-0,032	-0,035
-259,424	-146,768	-0,133	-0,008
-258,409	110,918	-0,043	-0,038
-257,395	-200,000	0,017	-0,148
-256,380	100,242	0,110	0,092
-255,365	190,591	-0,059	0,064
-254,351	128,486	-0,101	0,093
-253,336	-200,000	0,022	0,081
-252,322	-200,000	0,010	0,054
-251,307	363,882	-0,062	-0,090
-250,292	800,000	-0,049	0,105
-249,278	-200,000	0,055	0,232
-248,263	-141,356	0,051	-0,004
-247,249	-172,335	0,132	-0,003
-246,234	40,025	0,036	0,023
-245,219	800,000	-0,043	-0,114
-244,205	-2,433	-0,092	-0,047
-243,190	-164,290	-0,148	-0,005
-242,176	315,552	0,027	0,037
-241,161	-200,000	0,002	-0,074
-240,146	15,926	-0,111	0,063
-239,132	241,662	-0,088	0,106
-238,117	-149,412	-0,143	0,008
-237,103	-200,000	-0,011	0,051
-236,088	-148,190	-0,033	0,002
-235,073	91,016	0,115	-0,094
-234,059	-200,000	0,041	-0,135
-233,044	111,461	0,086	0,075
-232,030	-84,628	-0,098	-0,022
-231,015	-200,000	0,013	0,097
-230,000	111,252	-0,049	-0,043
-228,986	-5,493	-0,219	-0,108
-227,971	-200,000	-0,008	0,075
-226,957	478,481	0,092	0,151
-225,942	96,456	0,074	-0,061
-224,927	-102,121	-0,143	-0,025
-223,913	78,051	-0,039	0,030
-222,898	-200,000	0,020	0,073
-221,884	-93,481	-0,169	-0,034
-220,869	80,130	0,088	0,069
-219,855	234,386	0,087	-0,104
-218,840	800,000	0,063	-0,137
-217,825	16,913	-0,033	0,019
-216,811	-200,000	-0,011	0,098
-215,796	-200,000	-0,011	-0,071
-214,782	176,272	0,083	0,087
-213,767	-200,000	-0,027	0,125
-212,752	206,865	0,066	0,074
-211,738	800,000	-0,050	0,104
-210,723	428,215	0,043	0,067
-209,709	-113,746	0,167	-0,023
-208,694	-90,812	-0,063	-0,013
-207,679	-200,000	-0,013	-0,043
-206,665	800,000	0,043	0,112
-205,650	8,629	-0,102	-0,055
-204,636	-200,000	-0,009	-0,074
-203,621	-30,535	-0,180	0,073
-202,606	206,985	0,012	0,013
-201,592	52,417	-0,126	-0,087
-200,577	-113,394	-0,055	-0,008
-199,563	356,984	0,054	0,079
-198,548	45,452	0,136	-0,091
-197,533	-132,033	0,129	-0,012
-196,519	35,317	0,040	-0,025
-195,504	-200,000	0,038	0,218
-194,490	-200,000	-0,004	0,092
-193,475	-98,763	-0,099	-0,018
-192,460	-104,621	0,097	0,016
-191,446	33,804	0,082	0,052
-190,431	-200,000	0,004	-0,080
-189,417	-147,612	0,180	0,011
-188,402	-200,000	0,019	-0,081
-187,387	-74,350	-0,117	0,030
-186,373	-166,426	-0,028	-0,001
-185,358	-200,000	0,025	-0,113
-184,344	-200,000	-0,000	-0,098
-183,329	-23,082	0,202	0,088
-182,315	-49,058	0,171	-0,059
-181,300	430,370	0,034	-0,053
-180,285	762,840	0,020	0,039
-179,271	74,683	-0,141	-0,107
-178,256	800,000	0,020	0,046
-177,242	102,212	0,089	0,075
-176,227	800,000	-0,043	0,133
-175,212	550,418	0,031	-0,054
-174,198	-200,000	-0,003	0,051
-173,183	136,253	0,082	-0,077
-172,169	-200,000	0,012	-0,148
-171,154	-200,000	-0,045	-0,151
-170,139	129,936	0,057	0,053
-169,125	167,764	-0,047	-0,048
-168,110	-30,226	0,080	-0,033
-167,096	163,091	0,068	0,069
-166,081	-122,664	0,063	-0,007
-165,066	800,000	0,079	-0,176
-164,052	293,143	-0,022	0,030
-163,037	109,326	0,073	-0,063
-162,023	213,931	0,101	0,116
-161,008	373,439	0,014	-0,021
-159,993	-200,000	-0,045	0,000
-158,979	315,180	-0,041	0,056
-157,964	-200,000	-0,023	0,108
-156,950	-200,000	0,027	0,152
-155,935	536,153	0,036	0,061
-154,920	-1,010	-0,044	-0,022
-153,906	-117,205	0,147	0,019
-152,891	-16,314	-0,059	0,027
-151,877	563,485	0,054	-0,094
-150,862	266,804	0,048	-0,060
-149,847	-200,000	-0,014	-0,116
-148,833	-73,872	-0,060	0,016
-147,818	-200,000	0,009	-0,074
-146,804	-200,000	0,006	-0,066
-145,789	-118,774	0,157	-0,020
-144,775	-189,230	0,146	-0,001
-143,760	-17,376	-0,117	-0,053
-142,745	-75,410	-0,113	-0,029
-141,731	-147,447	-0,066	-0,004
-140,716	-45,127	-0,040	0,014
-139,702	-152,081	0,133	-0,007
-138,687	-57,298	0,142	0,045
-137,672	-200,000	0,013	0,086
-136,658	-155,005	-0,187	0,009
-135,643	409,219	-0,035	-0,054
-134,629	-133,513	-0,084	-0,007
-133,614	120,068	0,138	-0,124
-132,599	127,441	0,049	0,045
-131,585	-200,000	0,017	0,058
-130,570	296,896	0,086	-0,115
-129,556	-11,566	-0,147	-0,070
-128,541	800,000	-0,062	-0,163
-127,526	62,646	-0,064	-0,046
-126,512	24,049	0,121	-0,072
-125,497	800,000	0,017	0,035
-124,483	-10,785	0,061	-0,029
-123,468	212,448	-0,046	0,052
-122,453	-98,072	-0,017	-0,003
-121,439	-100,571	-0,074	0,013
-120,424	205,092	0,048	0,054
-119,410	-200,000	-0,021	0,074
-118,395	800,000	-0,060	0,121
-117,380	43,670	0,038	-0,025
-116,366	-200,000	-0,021	-0,099
-115,351	713,482	-0,021	0,041
-114,337	800,000	-0,022	0,050
-113,322	263,063	-0,119	-0,149
-112,307	-83,817	0,137	-0,031
-111,293	171,447	-0,020	0,021
-110,278	-200,000	-0,006	0,053
-109,264	-29,205	0,031	0,013
-108,249	367,021	-0,050	-0,073
-107,234	253,909	-0,034	-0,042
-106,220	245,920	0,055	0,067
-105,205	227,979	-0,105	-0,124
-104,191	138,835	0,135	0,128
-103,176	11,009	0,118	0,065
-102,162	-149,894	-0,106	-0,006
-101,147	-200,000	-0,016	-0,120
-100,132	-200,000	-0,027	-0,102
-99,118	-200,000	-0,003	-0,115
-98,103	-200,000	-0,031	0,101
-97,089	-200,000	0,015	0,062
-96,074	-27,839	0,130	-0,054
-95,059	-200,000	-0,026	0,099
-94,045	19,800	0,018	0,011
-93,030	214,973	-0,074	-0,084
-92,016	110,343	0,083	0,072
-91,001	58,914	0,107	-0,076
-89,986	419,903	0,035	0,054
-88,972	-200,000	0,008	0,042
-87,957	-200,000	0,021	0,068
-86,943	-200,000	-0,015	0,103
-85,928	470,258	0,067	-0,109
-84,913	35,209	-0,055	-0,035
-83,899	104,104	0,038	0,032
-82,884	144,343	-0,054	-0,051
-81,870	-200,000	-0,003	0,097
-80,855	352,227	0,031	-0,044
-79,840	-45,497	-0,124	0,044
-78,826	52,741	0,036	0,025
-77,811	-200,000	0,009	0,140
-76,797	-104,649	-0,028	0,005
-75,782	-200,000	0,006	0,055
-74,767	-200,000	0,026	0,099
-73,753	165,903	-0,026	0,026
-72,738	-72,076	0,081	-0,022
-71,724	167,450	0,089	-0,091
-70,709	800,000	-0,055	-0,142
-69,694	800,000	0,036	0,090
-68,680	-154,551	-0,132	-0,006
-67,665	196,428	0,089	0,097
-66,651	800,000	0,057	0,136
-65,636	177,340	-0,026	0,027
-64,622	800,000	-0,031	0,065
-63,607	139,104	0,048	-0,045
-62,592	76,904	0,061	-0,047
-61,578	800,000	-0,033	0,091
-60,563	365,035	-0,049	0,071
-59,549	-200,000	-0,005	-0,090
-58,534	-24,225	-1,800	-0,769
-57,519	800,000	-0,418	-1,053
-56,505	-200,000	-1,250	-4,784
-55,490	9,782	0,812	0,442
-54,476	800,000	5,221	11,748
-53,461	-200,000	16,902	272,688
-52,446	800,000	716,269	2189,738
-51,432	540,155	1629,941	2801,418
-50,417	114,896	1625,015	1425,349
-49,403	79,766	1285,659	992,110
-48,388	34,340	1031,802	646,042
-47,373	20,750	994,256	577,491
-46,359	19,358	982,488	566,040
-45,344	17,039	978,339	555,993
-44,330	17,195	977,044	555,746
-43,315	16,824	975,199	553,457
-42,300	16,771	974,075	552,624
-41,286	16,782	973,051	552,056
-40,271	16,729	972,091	551,315
-39,257	16,730	971,379	550,892
-38,242	16,774	970,471	550,499
-37,227	16,774	969,783	550,089
-36,213	16,806	968,794	549,610
-35,198	16,786	967,876	549,001
-34,184	16,775	967,347	548,644
-33,169	16,681	966,287	547,717
-32,154	16,835	965,271	547,620
-31,140	16,768	964,467	546,922
-30,125	16,746	963,810	546,459
-29,111	16,718	962,887	545,821
-28,096	16,754	962,134	545,488
-27,082	16,789	961,446	545,190
-26,067	16,807	960,634	544,766
-25,052	16,800	959,902	544,307
-24,038	16,683	959,399	543,624
-23,023	16,715	958,586	543,243
-22,009	16,747	957,904	542,941
-20,994	16,731	957,378	542,568
-19,979	16,735	956,784	542,223
-18,965	16,741	956,070	541,817
-17,950	16,733	955,399	541,390
-16,936	16,691	954,800	540,893
-15,921	16,678	954,031	540,392
-14,906	16,581	953,221	539,602
-13,892	16,601	952,698	539,348
-12,877	16,632	951,991	539,028
-11,863	16,566	951,510	538,523
-10,848	16,555	951,129	538,250
-9,833	16,724	950,232	538,262
-8,819	16,719	949,640	537,888
-7,804	16,653	949,200	537,406
-6,790	16,564	948,619	536,773
-5,775	16,675	947,847	536,668
-4,760	16,666	947,251	536,280
-3,746	16,580	946,792	535,727
-2,731	16,465	946,005	534,892
-1,717	16,441	945,141	534,308
-0,702	16,470	944,580	534,060
0,313	16,301	943,942	533,971
1,327	18,844	941,758	540,747
2,342	25,850	814,395	486,684
3,356	19,959	518,775	299,765
4,371	-1,933	391,097	196,945
5,386	-4,522	374,762	185,384
6,400	-5,650	368,288	180,744
7,415	-6,347	365,586	178,530
8,429	-6,658	363,938	177,321
9,444	-6,733	362,811	176,663
10,459	-6,823	362,090	176,184
11,473	-6,980	361,442	175,660
12,488	-7,005	360,745	175,274
13,502	-7,362	360,111	174,510
14,517	-7,368	359,556	174,219
15,531	-7,597	358,856	173,583
16,546	-7,704	358,374	173,203
17,561	-7,712	357,939	172,967
18,575	-7,522	357,441	172,944
19,590	-7,910	357,082	172,280
20,604	-7,630	356,714	172,430
21,619	-7,735	356,358	172,113
22,634	-7,816	355,991	171,822
23,648	-7,772	355,569	171,657
24,663	-7,639	355,402	171,723
25,677	-7,777	355,037	171,364
26,692	-7,758	354,740	171,227
27,707	-7,815	354,331	170,946
28,721	-7,732	353,940	170,842
29,736	-7,786	353,624	170,609
30,750	-7,974	353,380	170,249
31,765	-7,820	353,067	170,269
32,780	-7,736	352,664	170,162
33,794	-7,781	352,349	169,939
34,809	-7,765	352,099	169,823
35,823	-7,964	351,779	169,415
36,838	-7,837	351,527	169,430
37,853	-8,028	351,350	169,100
38,867	-7,925	350,980	169,031
39,882	-7,952	350,659	168,829
40,896	-7,869	350,291	168,737
41,911	-7,839	349,917	168,577
42,926	-8,004	349,768	168,292
43,940	-7,996	349,418	168,119
44,955	-8,165	349,063	167,732
45,969	-8,165	348,678	167,532
46,984	-8,207	348,524	167,392
47,999	-8,296	348,261	167,145
49,013	-8,296	347,971	166,992
50,028	-8,268	347,552	166,810
51,042	-8,244	347,354	166,727
52,057	-8,291	347,228	166,597
53,071	-8,192	346,704	166,447
54,086	-8,330	346,551	166,195
55,101	-8,151	346,108	166,180
56,115	-8,150	346,103	166,165
57,130	-7,755	345,891	166,513
58,144	-7,724	345,696	166,441
59,159	-7,588	345,336	166,414
60,174	-7,552	345,104	166,329
61,188	-7,615	344,842	166,114
62,203	-7,688	344,551	165,874
63,217	-7,802	344,169	165,541
64,232	-7,745	344,067	165,544
65,247	-7,482	343,807	165,712
66,261	-7,538	343,384	165,428
67,276	-7,793	342,975	164,917
68,290	-8,012	342,699	164,514
69,305	-7,931	342,554	164,525
70,320	-8,043	342,276	164,246
71,334	-7,870	342,049	164,324
72,349	-7,584	341,935	164,588
73,363	-7,428	341,528	164,559
74,378	-7,454	341,125	164,321
75,393	-7,721	340,987	163,929
76,407	-7,720	340,776	163,814
77,422	-7,657	340,367	163,675
78,436	-7,703	340,152	163,504
79,451	-7,562	339,898	163,531
80,466	-7,810	339,560	163,067
81,480	-7,962	339,178	162,693
82,495	-7,984	338,902	162,521
83,509	-7,960	338,739	162,456
84,524	-8,058	338,387	162,160
85,539	-8,135	338,213	161,974
86,553	-8,134	337,682	161,706
87,568	-8,066	337,545	161,704
88,582	-8,099	337,438	161,601
89,597	-8,034	337,154	161,525
90,611	-8,010	336,966	161,448
91,626	-7,812	336,789	161,576
92,641	-7,729	336,443	161,490
93,655	-7,946	336,178	161,100
94,670	-8,010	335,973	160,914
95,684	-7,955	335,790	160,875
96,699	-7,920	335,370	160,700
97,714	-8,124	335,313	160,425
98,728	-8,114	334,881	160,215
99,743	-8,200	334,601	159,970
100,757	-8,184	334,350	159,854
101,772	-8,206	334,218	159,752
102,787	-8,236	333,944	159,572
103,801	-8,006	333,863	159,780
104,816	-7,890	333,401	159,676
105,830	-7,836	333,325	159,686
106,845	-7,687	333,104	159,735
107,860	-7,823	332,822	159,432
108,874	-7,824	332,497	159,261
109,889	-7,949	332,453	159,084
110,903	-7,985	332,123	158,872
111,918	-7,923	331,823	158,784
112,933	-7,975	331,499	158,556
113,947	-7,833	331,297	158,605
114,962	-7,859	331,081	158,458
115,976	-7,794	331,008	158,483
116,991	-7,893	330,610	158,166
118,006	-7,888	330,393	158,055
119,020	-8,001	330,330	157,883
120,035	-7,851	330,131	157,942
121,049	-7,700	329,864	157,969
122,064	-7,826	329,641	157,708
123,079	-7,884	329,352	157,490
124,093	-7,912	329,050	157,301
125,108	-8,037	328,776	157,016
126,122	-8,148	328,557	156,774
127,137	-8,228	328,251	156,525
128,151	-8,193	327,959	156,411
129,166	-8,047	327,735	156,452
130,181	-8,090	327,474	156,266
131,195	-8,160	327,321	156,101
132,210	-7,852	326,915	156,235
133,224	-7,990	326,903	156,062
134,239	-7,838	326,654	156,097
135,254	-7,582	326,380	156,236
136,268	-7,883	326,083	155,748
137,283	-8,024	325,765	155,427
138,297	-8,050	325,515	155,265
139,312	-8,034	325,269	155,151
140,327	-7,770	325,198	155,394
141,341	-7,513	325,217	155,672
142,356	-7,379	324,803	155,608
143,370	-7,267	324,680	155,657
144,385	-7,396	324,467	155,400
145,400	-7,492	324,206	155,155
146,414	-7,422	323,933	155,088
147,429	-7,368	323,723	155,033
148,443	-7,517	323,538	154,768
149,458	-7,493	323,323	154,678
150,473	-7,476	323,042	154,548
151,487	-7,480	322,765	154,397
152,502	-7,405	322,507	154,341
153,516	-7,501	322,382	154,163
154,531	-7,394	322,068	154,115
155,546	-7,425	321,821	153,950
156,560	-7,639	321,722	153,657
157,575	-7,854	321,434	153,271
158,589	-7,572	321,150	153,429
159,604	-7,446	320,978	153,470
160,619	-7,203	320,807	153,638
161,633	-7,428	320,719	153,337
162,648	-7,439	320,451	153,184
163,662	-7,485	320,209	153,005
164,677	-7,780	319,929	152,538
165,692	-7,493	319,723	152,737
166,706	-7,229	319,495	152,899
167,721	-7,367	319,522	152,749
168,735	-7,313	319,278	152,677
169,750	-7,462	319,217	152,473
170,764	-7,281	318,801	152,456
171,779	-7,366	318,664	152,285
172,794	-7,283	318,384	152,227
173,808	-7,512	318,040	151,804
174,823	-7,851	317,643	151,236
175,837	-7,946	317,502	151,055
176,852	-7,596	317,367	151,352
177,867	-7,399	317,355	151,544
178,881	-7,406	317,185	151,441
179,896	-7,049	316,698	151,577
180,910	-7,229	316,635	151,341
181,925	-7,228	316,409	151,221
182,940	-7,085	316,174	151,247
183,954	-7,279	316,039	150,963
184,969	-7,259	315,902	150,905
185,983	-7,269	315,785	150,825
186,998	-7,187	315,436	150,732
188,013	-7,205	315,212	150,593
189,027	-7,189	314,961	150,476
190,042	-7,169	314,874	150,442
191,056	-7,034	314,690	150,483
192,071	-7,028	314,453	150,364
193,086	-7,161	314,260	150,117
194,100	-7,100	314,054	150,070
195,115	-7,190	313,777	149,829
196,129	-7,219	313,569	149,685
197,144	-7,059	313,249	149,688
198,159	-7,057	312,941	149,531
199,173	-7,110	312,763	149,376
200,188	-6,946	312,758	149,533
201,202	-7,395	312,400	148,875
202,217	-7,939	312,019	148,109
203,232	-7,734	311,474	148,052
204,246	-7,491	311,655	148,380
205,261	-7,272	311,573	148,558
206,275	-7,062	311,286	148,628
207,290	-7,129	311,045	148,429
208,304	-7,325	310,961	148,171
209,319	-7,127	310,675	148,228
210,334	-7,125	310,451	148,111
211,348	-7,364	310,266	147,760
212,363	-7,169	310,023	147,834
213,377	-7,220	309,942	147,728
214,392	-7,226	309,602	147,548
215,407	-7,543	309,168	146,998
216,421	-7,687	309,058	146,782
217,436	-7,650	308,776	146,674
218,450	-7,789	308,645	146,454
219,465	-7,621	308,511	146,552
220,480	-7,314	308,316	146,764
221,494	-7,432	307,917	146,439
222,509	-7,494	307,850	146,330
223,523	-7,291	307,653	146,434
224,538	-7,242	307,654	146,472
225,553	-7,107	307,439	146,496
226,567	-7,118	307,220	146,367
227,582	-7,037	307,050	146,357
228,596	-7,137	306,811	146,126
229,611	-7,156	306,814	146,096
230,626	-7,216	306,368	145,808
231,640	-7,675	305,846	145,076
232,655	-7,745	305,655	144,900
233,669	-7,956	305,522	144,607
234,684	-7,660	305,241	144,765
235,699	-7,850	305,263	144,567
236,713	-7,734	305,088	144,590
237,728	-7,654	304,863	144,553
238,742	-7,397	304,628	144,692
239,757	-7,469	304,518	144,553
240,772	-7,370	304,344	144,559
241,786	-7,467	304,114	144,338
242,801	-7,524	303,824	144,128
243,815	-7,590	303,755	144,015
244,830	-7,354	303,570	144,155
245,844	-7,533	303,348	143,855
246,859	-7,484	303,022	143,738
247,874	-7,421	302,854	143,709
248,888	-7,477	302,764	143,596
249,903	-7,268	302,523	143,681
250,917	-7,178	302,451	143,725
251,932	-6,865	302,552	144,078
252,947	-6,230	302,512	144,690
253,961	-6,000	302,211	144,767
254,976	-5,950	302,204	144,801
255,990	-5,780	302,230	144,973
257,005	-4,663	302,694	146,315
258,020	-1,839	303,442	149,528
259,034	-0,954	303,666	150,523
260,049	-0,306	303,678	151,173
261,063	0,124	303,739	151,626
262,078	0,249	303,668	151,704
263,093	0,338	303,407	151,649
264,107	0,517	303,202	151,715
265,122	0,491	303,160	151,653
266,136	0,588	302,789	151,552
267,151	0,692	302,622	151,560
268,166	0,650	302,499	151,442
269,180	0,576	302,393	151,302
270,195	0,480	302,126	151,058
271,209	0,380	301,922	150,842
272,224	0,523	301,790	150,907
273,239	0,628	301,527	150,867
274,253	0,770	301,338	150,902
275,268	0,735	301,050	150,709
276,282	0,776	300,858	150,640
277,297	0,700	300,819	150,531
278,312	0,427	300,677	150,174
279,326	0,480	300,367	150,058
280,341	0,551	300,238	150,052
281,355	0,653	300,052	150,047
282,370	0,609	299,887	149,907
283,384	0,537	299,632	149,694
284,399	0,533	299,368	149,545
285,414	0,388	299,183	149,295
286,428	0,493	299,006	149,298
287,443	0,425	298,952	149,190
288,457	0,557	298,620	149,142
289,472	0,479	298,493	148,988
290,487	0,448	298,264	148,830
291,501	0,505	298,006	148,744
292,516	0,393	297,933	148,583
293,530	0,362	297,705	148,426
294,545	0,481	297,409	148,383
295,560	0,507	297,305	148,343
296,574	0,505	297,171	148,261
297,589	0,376	297,018	148,044
298,603	0,326	296,825	147,885
299,618	0,569	296,567	147,984
300,633	0,533	296,479	147,891
301,647	0,625	296,083	147,770
302,662	0,511	296,002	147,605
303,676	0,265	295,926	147,311
304,691	0,536	295,457	147,331
305,706	0,486	295,364	147,223
306,720	0,486	295,191	147,123
307,735	0,543	294,974	147,058
308,749	0,424	294,895	146,889
309,764	0,438	294,663	146,773
310,779	0,761	294,387	146,938
311,793	0,481	294,231	146,575
312,808	0,374	294,054	146,368
313,822	0,282	293,824	146,151
314,837	0,533	293,496	146,219
315,852	0,569	293,524	146,256
316,866	0,611	293,171	146,107
317,881	0,422	293,182	145,916
318,895	0,512	292,931	145,866
319,910	0,478	292,629	145,669
320,925	0,579	292,663	145,771
321,939	0,626	292,287	145,617
322,954	0,459	292,096	145,346
323,968	0,439	291,878	145,206
324,983	0,570	291,789	145,276
325,997	0,673	291,511	145,224
327,012	0,553	291,253	144,966
328,027	0,467	291,116	144,802
329,041	0,550	290,955	144,789
330,056	0,579	290,864	144,759
331,070	0,573	290,610	144,613
332,085	0,450	290,406	144,381
333,100	0,562	290,108	144,328
334,114	0,552	289,979	144,241
335,129	0,623	289,828	144,222
336,143	0,517	289,720	144,053
337,158	0,382	289,571	143,836
338,173	0,497	289,349	143,823
339,187	0,716	289,258	143,975
340,202	0,657	288,939	143,747
341,216	0,497	288,839	143,532
342,231	0,584	288,709	143,537
343,246	0,533	288,486	143,365
344,260	0,716	288,242	143,406
345,275	0,671	288,093	143,276
346,289	0,667	287,852	143,139
347,304	0,679	287,694	143,060
348,319	0,642	287,598	142,964
349,333	0,851	287,238	142,971
350,348	0,666	287,008	142,667
351,362	0,636	286,872	142,559
352,377	0,616	286,824	142,504
353,392	0,771	286,638	142,546
354,406	0,749	286,529	142,458
355,421	193,285	1326,281	1399,068
356,435	156,691	1452,949	1399,087
