DTS Sentinel unit serial number:	SN410029Multiplexer serial number:	ORYXHardware model number:	OX2-SRSoftware version number:	ORYX F/W v4,00 Oryx Data Collector v3.7.2.0data status	okinstallation	B4 Nyhavnadifferential loss correction	single-endedforward channel	channel 2reverse channel	N/Adate	2023/12/16time	01:35:13forward acquisition time	300,00reverse acquisition time	0,00gamma	499,1914k internal	0,3129k external	0,3129temperature offset calibration	1,0000default loss term (dB/km)	0,3820temperature slope calibration	1,0000multiplexer offset coefficient	1,0000multiplexer slope coefficient	1,0000fibre end	0,00T internal ref (°C)	21,92T ext. ref 1 (°C)	7,06T ext. ref 2 (°C)	7,23length (m)	temperature (°C)	Stokes	anti-Stokes-744,400	783,664	0,032	-0,065
-743,385	-166,185	-0,202	0,006
-742,371	-87,795	-0,086	-0,019
-741,356	-71,325	-0,173	0,048
-740,342	800,000	0,010	-0,030
-739,327	104,390	-0,195	0,171
-738,312	-14,186	0,157	-0,075
-737,298	-109,801	-0,294	-0,045
-736,283	-200,000	-0,001	-0,196
-735,269	104,644	-0,160	0,140
-734,254	92,709	0,062	0,052
-733,239	-150,951	-0,534	-0,029
-732,225	-200,000	0,013	-0,169
-731,210	-142,942	0,082	0,006
-730,196	301,626	-0,031	0,043
-729,181	170,859	-0,100	-0,107
-728,167	-73,242	-0,093	-0,025
-727,152	12,594	-0,044	0,025
-726,137	-32,164	-0,164	-0,068
-725,123	800,000	0,023	-0,062
-724,108	201,463	-0,061	-0,070
-723,094	-59,852	-0,031	-0,010
-722,079	-60,145	-0,131	-0,041
-721,064	800,000	-0,019	0,043
-720,050	-46,871	-0,057	-0,021
-719,035	-108,416	-0,134	-0,021
-718,021	-62,197	-0,122	-0,038
-717,006	186,976	-0,055	-0,061
-715,991	247,919	-0,101	-0,127
-714,977	-200,000	0,007	-0,046
-713,962	323,969	-0,102	-0,145
-712,948	-29,876	-0,073	-0,031
-711,933	-75,364	0,156	-0,041
-710,918	-200,000	-0,027	-0,100
-709,904	15,125	0,027	-0,015
-708,889	-200,000	-0,009	-0,096
-707,875	-200,000	-0,000	-0,064
-706,860	-54,402	-0,118	-0,039
-705,845	-59,658	-0,081	0,026
-704,831	-36,507	0,180	-0,072
-703,816	274,970	-0,013	-0,018
-702,802	-200,000	-0,009	-0,032
-701,787	800,000	0,060	-0,184
-700,772	-141,114	-0,046	-0,003
-699,758	208,895	-0,040	0,046
-698,743	-200,000	-0,023	0,095
-697,729	-181,033	-0,045	-0,001
-696,714	27,800	-0,067	-0,042
-695,699	201,108	0,039	-0,044
-694,685	-113,487	-0,093	0,013
-693,670	-200,000	0,008	0,120
-692,656	-200,000	0,034	0,117
-691,641	-24,767	0,131	0,057
-690,627	422,594	0,034	0,054
-689,612	-200,000	0,004	-0,105
-688,597	196,413	0,033	0,037
-687,583	800,000	0,053	-0,130
-686,568	161,051	-0,101	-0,105
-685,554	-200,000	-0,005	-0,177
-684,539	-200,000	0,017	-0,100
-683,524	37,628	0,108	0,071
-682,510	-2,603	0,049	-0,026
-681,495	388,986	0,014	-0,022
-680,481	-90,902	-0,119	-0,025
-679,466	-36,192	0,005	0,002
-678,451	540,782	-0,016	-0,029
-677,437	146,828	0,032	0,032
-676,422	800,000	0,054	0,125
-675,408	-98,943	-0,087	-0,016
-674,393	800,000	0,024	0,055
-673,378	-200,000	-0,005	-0,097
-672,364	-99,847	-0,033	-0,006
-671,349	-90,908	-0,059	-0,012
-670,335	81,623	0,032	-0,026
-669,320	363,221	-0,011	0,017
-668,305	214,174	-0,040	-0,048
-667,291	40,780	-0,144	-0,096
-666,276	141,392	-0,031	-0,031
-665,262	26,410	-0,066	-0,041
-664,247	800,000	-0,064	-0,148
-663,232	130,233	-0,131	-0,125
-662,218	800,000	0,043	0,089
-661,203	-88,876	-0,083	-0,018
-660,189	-200,000	0,005	-0,022
-659,174	800,000	-0,024	-0,068
-658,159	-200,000	-0,032	0,111
-657,145	641,642	0,040	-0,075
-656,130	34,928	-0,015	-0,010
-655,116	-111,606	-0,104	-0,015
-654,101	-200,000	0,013	0,100
-653,086	-200,000	-0,011	0,164
-652,072	-38,488	-0,140	-0,054
-651,057	234,165	-0,102	-0,124
-650,043	105,528	0,045	0,040
-649,028	395,528	0,035	0,055
-648,014	-200,000	0,006	0,107
-646,999	-200,000	0,001	0,028
-645,984	-200,000	0,024	-0,118
-644,970	73,887	0,020	-0,016
-643,955	21,349	-0,100	-0,060
-642,941	-174,518	-0,083	0,002
-641,926	800,000	-0,019	-0,059
-640,911	-69,524	0,101	0,028
-639,897	-200,000	0,018	0,184
-638,882	-200,000	-0,004	0,143
-637,868	247,753	0,101	0,127
-636,853	-188,356	-0,073	-0,001
-635,838	-200,000	-0,011	-0,049
-634,824	-65,309	-0,069	0,020
-633,809	201,886	-0,004	-0,004
-632,795	456,872	-0,066	-0,109
-631,780	161,399	-0,060	0,063
-630,765	-200,000	0,039	-0,128
-629,751	-200,000	-0,033	-0,124
-628,736	511,327	-0,035	-0,061
-627,722	-200,000	0,012	-0,112
-626,707	144,327	0,033	-0,033
-625,692	800,000	0,029	0,067
-624,678	800,000	0,019	-0,044
-623,663	203,765	-0,039	-0,044
-622,649	800,000	0,047	-0,120
-621,634	689,164	-0,033	0,065
-620,619	-70,447	-0,052	0,014
-619,605	200,377	-0,070	-0,080
-618,590	-141,462	-0,073	-0,005
-617,576	-157,763	0,095	-0,004
-616,561	800,000	0,028	0,078
-615,546	111,137	-0,018	-0,016
-614,532	800,000	-0,033	-0,074
-613,517	-40,962	0,078	-0,030
-612,503	173,837	0,024	-0,026
-611,488	-200,000	-0,011	0,086
-610,474	800,000	0,050	-0,109
-609,459	0,660	-0,050	-0,027
-608,444	-127,005	-0,134	-0,014
-607,430	800,000	-0,025	-0,071
-606,415	-200,000	-0,001	0,025
-605,401	513,817	0,070	0,121
-604,386	1,219	0,084	0,045
-603,371	-200,000	0,020	0,103
-602,357	-72,529	0,067	-0,018
-601,342	-200,000	0,014	-0,049
-600,328	609,305	-0,023	-0,043
-599,313	489,360	0,073	0,124
-598,298	-70,350	-0,109	-0,030
-597,284	-15,749	-0,029	-0,013
-596,269	-130,083	-0,100	-0,010
-595,255	800,000	0,052	0,161
-594,240	320,927	-0,182	-0,256
-593,225	-200,000	-0,018	-0,089
-592,211	28,420	-0,093	-0,058
-591,196	-200,000	0,013	0,082
-590,182	800,000	0,018	-0,043
-589,167	198,512	0,147	0,167
-588,152	800,000	-0,083	0,198
-587,138	309,781	-0,076	-0,105
-586,123	67,188	-0,171	-0,129
-585,109	800,000	0,038	-0,110
-584,094	238,168	0,056	-0,069
-583,079	-200,000	0,004	0,110
-582,065	406,006	-0,023	-0,037
-581,050	-121,626	0,224	-0,027
-580,036	209,954	-0,039	0,045
-579,021	-200,000	0,013	-0,079
-578,006	-36,577	-0,039	-0,015
-576,992	229,905	0,038	0,045
-575,977	-124,302	-0,098	-0,011
-574,963	-3,276	0,030	-0,015
-573,948	69,978	-0,099	-0,075
-572,934	145,386	0,041	-0,041
-571,919	-200,000	-0,008	-0,037
-570,904	800,000	-0,033	-0,089
-569,890	261,854	0,069	0,088
-568,875	232,613	0,048	-0,058
-567,861	113,941	-0,057	0,051
-566,846	68,615	-0,100	0,076
-565,831	-58,100	-0,085	0,027
-564,817	441,493	-0,070	0,113
-563,802	-200,000	-0,015	-0,077
-562,788	-200,000	-0,018	-0,136
-561,773	-200,000	-0,001	-0,011
-560,758	192,691	-0,052	-0,058
-559,744	-200,000	0,025	0,120
-558,729	118,459	-0,066	0,061
-557,715	-132,965	-0,081	-0,007
-556,700	454,003	-0,033	-0,054
-555,685	82,369	0,086	-0,069
-554,671	-110,228	-0,047	0,007
-553,656	325,666	0,049	-0,070
-552,642	302,062	0,049	0,067
-551,627	-200,000	-0,007	-0,027
-550,612	-200,000	-0,007	0,028
-549,598	-200,000	0,002	0,044
-548,583	625,845	-0,033	-0,062
-547,569	404,490	-0,051	-0,079
-546,554	71,950	0,078	0,059
-545,539	66,985	0,163	0,122
-544,525	32,116	0,087	-0,055
-543,510	441,035	-0,064	-0,103
-542,496	-90,287	-0,084	0,018
-541,481	89,758	-0,082	0,067
-540,466	-168,315	-0,220	0,006
-539,452	-122,876	0,101	0,012
-538,437	586,909	0,103	0,188
-537,423	211,851	0,075	0,088
-536,408	800,000	0,042	-0,108
-535,393	-118,018	-0,159	0,021
-534,379	545,408	-0,049	0,087
-533,364	608,376	-0,030	-0,055
-532,350	-26,129	0,066	-0,029
-531,335	36,887	0,085	-0,056
-530,321	216,652	0,034	0,040
-529,306	60,464	-0,061	0,045
-528,291	-200,000	0,016	-0,098
-527,277	-200,000	-0,010	-0,070
-526,262	92,840	0,016	-0,013
-525,248	348,613	0,025	0,036
-524,233	588,408	0,057	0,104
-523,218	100,198	0,109	0,094
-522,204	-131,611	0,122	0,012
-521,189	800,000	0,044	-0,097
-520,175	800,000	0,022	-0,049
-519,160	81,219	-0,068	0,054
-518,145	222,302	0,076	0,090
-517,131	113,914	0,078	0,070
-516,116	-155,205	0,069	-0,003
-515,102	261,765	-0,076	-0,097
-514,087	11,672	-0,011	-0,006
-513,072	222,189	-0,057	-0,068
-512,058	-200,000	0,035	-0,124
-511,043	541,204	-0,010	-0,018
-510,029	-53,184	-0,084	0,028
-509,014	-9,683	0,022	-0,011
-507,999	-200,000	0,003	0,012
-506,985	94,566	0,062	-0,052
-505,970	-92,301	-0,045	-0,009
-504,956	800,000	0,073	-0,188
-503,941	537,139	0,068	-0,119
-502,926	-21,333	0,131	0,059
-501,912	-200,000	0,026	0,136
-500,897	800,000	-0,030	0,079
-499,883	-200,000	-0,005	-0,039
-498,868	-200,000	-0,023	-0,112
-497,853	244,484	0,111	-0,137
-496,839	75,108	-0,043	0,034
-495,824	-40,414	-0,060	0,023
-494,810	-183,482	0,053	-0,001
-493,795	11,684	-0,185	0,104
-492,781	-62,249	0,055	-0,017
-491,766	-110,592	-0,220	-0,033
-490,751	-200,000	0,008	-0,075
-489,737	231,014	-0,079	-0,095
-488,722	-200,000	0,023	0,123
-487,708	0,385	-0,066	-0,035
-486,693	-200,000	-0,007	0,090
-485,678	280,485	-0,067	-0,089
-484,664	128,581	-0,029	-0,027
-483,649	-200,000	-0,024	-0,086
-482,635	-97,862	-0,017	0,003
-481,620	-200,000	-0,010	-0,049
-480,605	512,832	-0,056	0,096
-479,591	32,019	-0,066	0,042
-478,576	-41,189	-0,099	-0,037
-477,562	446,373	0,024	0,038
-476,547	-79,267	0,047	-0,012
-475,532	388,645	-0,024	0,037
-474,518	1,156	0,115	0,061
-473,503	-59,080	0,064	-0,020
-472,489	214,050	0,054	0,063
-471,474	-76,230	-0,086	0,022
-470,459	146,028	0,104	0,103
-469,445	482,483	-0,020	0,033
-468,430	-200,000	-0,029	-0,094
-467,416	-200,000	-0,004	0,022
-466,401	160,678	-0,073	0,075
-465,386	-200,000	-0,010	0,000
-464,372	-13,144	-0,133	0,063
-463,357	800,000	-0,050	0,136
-462,343	476,422	-0,058	0,096
-461,328	-54,042	-0,080	-0,027
-460,313	39,810	-0,027	0,018
-459,299	-97,578	0,101	0,019
-458,284	-145,499	0,045	0,003
-457,270	-200,000	0,005	0,067
-456,255	-105,015	-0,098	-0,016
-455,241	-146,066	-0,110	-0,007
-454,226	800,000	0,019	-0,057
-453,211	65,693	0,058	0,043
-452,197	60,593	-0,081	-0,059
-451,182	-110,774	0,178	-0,027
-450,168	-200,000	0,005	-0,051
-449,153	180,118	0,010	0,010
-448,138	800,000	-0,057	-0,124
-447,124	-150,752	0,106	-0,006
-446,109	-200,000	0,021	0,093
-445,095	-200,000	-0,011	0,055
-444,080	-200,000	0,001	-0,016
-443,065	188,578	0,117	-0,129
-442,051	-200,000	-0,011	0,053
-441,036	-70,594	-0,056	-0,015
-440,022	-17,324	-0,098	-0,045
-439,007	-91,621	0,156	-0,032
-437,992	550,040	0,053	-0,093
-436,978	349,266	0,023	0,033
-435,963	-200,000	0,024	0,179
-434,949	285,198	-0,060	-0,080
-433,934	-21,999	-0,125	-0,055
-432,919	800,000	-0,032	0,065
-431,905	-200,000	0,008	-0,029
-430,890	-149,727	0,042	-0,002
-429,876	250,920	0,073	-0,091
-428,861	-106,132	0,057	0,009
-427,846	92,254	-0,113	0,094
-426,832	-200,000	-0,005	0,063
-425,817	197,360	-0,138	-0,155
-424,803	18,329	-0,035	-0,021
-423,788	15,623	0,144	0,083
-422,773	92,909	0,098	0,081
-421,759	800,000	-0,022	0,046
-420,744	800,000	-0,030	0,068
-419,730	143,579	0,070	0,069
-418,715	152,252	-0,157	-0,157
-417,701	-3,797	-0,091	0,046
-416,686	-61,542	0,027	0,008
-415,671	-0,019	0,076	0,040
-414,657	313,738	0,044	0,061
-413,642	132,885	-0,085	0,081
-412,628	701,591	-0,035	-0,068
-411,613	-200,000	0,005	0,051
-410,598	17,879	-0,085	0,050
-409,584	-133,136	0,079	-0,007
-408,569	-200,000	0,001	0,011
-407,555	800,000	0,063	-0,155
-406,540	64,283	0,106	0,078
-405,525	-200,000	-0,008	-0,091
-404,511	-88,295	-0,085	-0,019
-403,496	42,917	-0,048	-0,032
-402,482	88,332	0,031	0,025
-401,467	212,234	0,063	0,074
-400,452	-200,000	-0,026	0,160
-399,438	-63,670	0,075	0,023
-398,423	800,000	0,030	-0,076
-397,409	-200,000	-0,010	-0,035
-396,394	-200,000	0,004	0,069
-395,379	315,136	0,046	-0,064
-394,365	-126,815	0,267	0,029
-393,350	-200,000	0,026	-0,170
-392,336	282,680	0,023	0,031
-391,321	277,125	0,029	-0,038
-390,306	-15,514	-0,124	-0,058
-389,292	31,267	0,080	-0,050
-388,277	-200,000	0,005	-0,139
-387,263	800,000	-0,066	0,162
-386,248	-127,995	0,182	0,019
-385,233	457,654	0,017	-0,029
-384,219	599,811	-0,081	-0,148
-383,204	800,000	-0,019	0,055
-382,190	596,605	-0,045	-0,082
-381,175	145,104	0,069	0,068
-380,160	-50,371	0,046	-0,016
-379,146	2,252	0,054	-0,029
-378,131	-61,105	-0,013	0,004
-377,117	-40,813	0,046	-0,017
-376,102	89,185	0,124	-0,101
-375,088	-200,000	0,017	-0,081
-374,073	472,890	-0,025	-0,042
-373,058	-43,407	0,028	0,010
-372,044	7,589	0,065	0,036
-371,029	101,457	-0,049	0,042
-370,015	-200,000	0,027	0,122
-369,000	57,441	-0,083	0,060
-367,985	-17,457	0,082	0,037
-366,971	57,698	0,015	-0,011
-365,956	-94,585	-0,054	-0,011
-364,942	186,976	0,083	0,091
-363,927	54,986	0,142	-0,101
-362,912	-8,422	-0,102	0,050
-361,898	-89,159	0,057	-0,012
-360,883	800,000	0,037	-0,093
-359,869	180,570	-0,064	-0,069
-358,854	-13,156	-0,024	-0,011
-357,839	800,000	-0,047	0,122
-356,825	-99,989	0,102	0,018
-355,810	564,902	-0,052	-0,093
-354,796	120,161	-0,094	0,085
-353,781	-161,341	-0,073	-0,003
-352,766	-71,333	-0,077	0,021
-351,752	16,086	-0,100	0,058
-350,737	-200,000	-0,007	-0,109
-349,723	490,435	0,052	-0,088
-348,708	-162,387	0,027	0,001
-347,693	800,000	-0,058	-0,124
-346,679	104,004	-0,042	0,036
-345,664	800,000	-0,038	0,111
-344,650	148,568	0,161	0,159
-343,635	-65,832	-0,049	-0,014
-342,620	13,650	0,051	0,029
-341,606	-100,362	-0,029	0,005
-340,591	-200,000	0,000	-0,034
-339,577	-32,071	0,088	0,036
-338,562	90,496	0,032	0,026
-337,548	-4,011	0,044	0,022
-336,533	-127,891	0,079	-0,008
-335,518	308,935	0,076	-0,105
-334,504	265,563	0,054	-0,069
-333,489	-200,000	0,006	0,054
-332,475	-93,260	-0,094	0,019
-331,460	213,115	-0,038	0,044
-330,445	-15,091	0,052	0,024
-329,431	-200,000	0,014	0,126
-328,416	653,887	0,058	0,109
-327,402	-200,000	-0,001	0,072
-326,387	90,751	-0,049	-0,040
-325,372	-48,399	-0,101	0,035
-324,358	61,848	-0,093	0,067
-323,343	-200,000	0,002	0,064
-322,329	458,354	0,053	0,087
-321,314	405,761	0,071	0,109
-320,299	-200,000	0,020	0,074
-319,285	-47,169	-0,049	-0,017
-318,270	800,000	0,041	0,096
-317,256	153,938	-0,078	-0,078
-316,241	800,000	0,017	-0,054
-315,226	-200,000	0,009	-0,082
-314,212	200,419	0,134	0,151
-313,197	-200,000	-0,028	0,093
-312,183	-200,000	0,022	-0,199
-311,168	12,615	-0,063	-0,036
-310,153	-26,672	-0,074	-0,032
-309,139	800,000	0,001	0,004
-308,124	800,000	-0,008	-0,022
-307,110	-200,000	-0,018	-0,092
-306,095	16,374	-0,041	0,023
-305,080	41,476	0,099	0,065
-304,066	-200,000	-0,001	-0,038
-303,051	107,712	-0,049	-0,043
-302,037	108,321	0,064	0,056
-301,022	800,000	-0,057	0,177
-300,008	-62,185	-0,026	0,008
-298,993	800,000	0,036	0,082
-297,978	-94,306	0,246	0,049
-296,964	-120,230	-0,059	0,007
-295,949	-200,000	-0,010	0,101
-294,935	800,000	0,019	0,041
-293,920	-151,577	-0,016	0,001
-292,905	-200,000	0,013	-0,046
-291,891	170,067	-0,128	0,134
-290,876	87,194	0,148	-0,120
-289,862	800,000	0,029	-0,089
-288,847	-63,454	0,086	0,026
-287,832	-36,405	0,035	0,014
-286,818	-129,355	0,124	0,012
-285,803	-20,829	-0,101	0,045
-284,789	800,000	0,041	0,105
-283,774	-84,704	-0,021	-0,005
-282,759	-42,813	0,045	-0,017
-281,745	-200,000	0,000	-0,143
-280,730	-49,488	-0,046	0,016
-279,716	-200,000	-0,011	-0,073
-278,701	800,000	0,054	0,128
-277,686	-200,000	0,000	0,077
-276,672	15,392	-0,063	-0,036
-275,657	-200,000	0,002	-0,160
-274,643	199,530	-0,139	-0,156
-273,628	-78,699	0,178	-0,044
-272,613	800,000	-0,027	-0,060
-271,599	152,921	-0,102	-0,102
-270,584	-131,098	0,144	0,014
-269,570	348,277	0,012	0,017
-268,555	156,871	-0,084	-0,085
-267,540	-79,442	-0,128	-0,031
-266,526	251,798	-0,051	-0,063
-265,511	-200,000	-0,009	0,083
-264,497	-200,000	0,022	-0,083
-263,482	36,598	0,134	0,086
-262,467	-164,570	0,073	0,002
-261,453	-55,247	-0,082	-0,027
-260,438	36,289	-0,101	-0,065
-259,424	367,435	0,029	0,043
-258,409	290,538	0,039	-0,052
-257,395	800,000	-0,025	0,067
-256,380	346,527	-0,060	0,087
-255,365	-200,000	0,028	0,161
-254,351	-172,478	0,058	-0,001
-253,336	-200,000	0,007	-0,051
-252,322	57,165	-0,166	-0,118
-251,307	75,750	-0,041	-0,032
-250,292	-200,000	-0,017	0,177
-249,278	-67,595	0,099	-0,028
-248,263	312,888	-0,023	-0,032
-247,249	99,590	0,043	-0,037
-246,234	-200,000	-0,002	0,057
-245,219	95,594	-0,165	0,137
-244,205	137,675	0,095	0,091
-243,190	4,075	-0,080	-0,042
-242,176	14,914	0,152	0,087
-241,161	-200,000	-0,004	0,075
-240,146	-88,157	-0,114	0,025
-239,132	800,000	0,016	0,052
-238,117	153,049	-0,078	-0,078
-237,103	800,000	0,067	-0,164
-236,088	690,193	-0,056	-0,107
-235,073	800,000	0,037	-0,076
-234,059	-37,985	0,057	-0,022
-233,044	-200,000	0,011	0,038
-232,030	406,041	-0,025	-0,039
-231,015	31,573	-0,052	0,033
-230,000	-200,000	0,016	0,125
-228,986	525,394	0,044	-0,076
-227,971	590,709	0,081	0,146
-226,957	182,483	0,100	0,107
-225,942	235,337	0,067	-0,081
-224,927	-200,000	-0,010	-0,091
-223,913	-53,204	-0,152	0,051
-222,898	-81,858	0,073	0,017
-221,884	-43,774	-0,049	0,018
-220,869	-128,050	0,043	0,004
-219,855	-101,330	0,123	-0,022
-218,840	-198,952	-0,053	0,000
-217,825	226,567	-0,029	0,034
-216,811	110,115	-0,118	0,103
-215,796	246,425	-0,033	-0,040
-214,782	167,519	-0,069	0,071
-213,767	-81,752	-0,050	-0,012
-212,752	800,000	-0,008	-0,021
-211,738	800,000	-0,014	0,028
-210,723	-200,000	0,011	0,060
-209,709	800,000	0,030	-0,081
-208,694	-200,000	-0,012	-0,065
-207,679	390,746	-0,056	-0,086
-206,665	422,428	-0,047	0,074
-205,650	-19,131	0,056	0,025
-204,636	-91,954	0,112	0,023
-203,621	-200,000	-0,002	0,029
-202,606	229,598	-0,050	0,060
-201,592	-115,751	-0,051	-0,007
-200,577	-200,000	0,015	-0,066
-199,563	515,452	-0,061	-0,105
-198,548	800,000	-0,027	0,069
-197,533	524,037	0,108	-0,186
-196,519	262,116	0,041	-0,051
-195,504	173,021	-0,098	-0,103
-194,490	-94,775	-0,052	-0,010
-193,475	-69,171	-0,051	-0,014
-192,460	36,250	0,143	0,092
-191,446	15,666	0,128	0,073
-190,431	609,504	-0,013	-0,024
-189,417	128,435	0,077	0,072
-188,402	-200,000	0,019	0,063
-187,387	-200,000	-0,019	0,068
-186,373	20,932	0,173	-0,102
-185,358	800,000	0,025	-0,053
-184,344	-146,680	0,047	0,003
-183,329	-52,669	-0,108	-0,036
-182,315	-63,042	0,068	0,020
-181,300	-101,028	-0,042	-0,007
-180,285	-16,276	-0,160	-0,074
-179,271	5,673	-0,080	-0,043
-178,256	-10,077	0,088	0,042
-177,242	-101,878	-0,038	0,007
-176,227	-125,269	0,074	-0,008
-175,212	800,000	-0,020	-0,048
-174,198	-68,204	-0,134	-0,038
-173,183	139,213	-0,072	-0,068
-172,169	143,669	-0,049	-0,047
-171,154	-200,000	-0,024	-0,104
-170,139	-98,921	0,058	-0,011
-169,125	104,033	-0,035	-0,030
-168,110	37,951	0,079	0,051
-167,096	800,000	-0,044	0,134
-166,081	800,000	-0,003	-0,009
-165,066	245,095	0,066	0,080
-164,052	18,916	0,064	-0,037
-163,037	-123,314	-0,085	0,010
-162,023	12,078	0,059	0,033
-161,008	-200,000	0,008	0,091
-159,993	78,650	0,064	-0,050
-158,979	-200,000	-0,042	-0,145
-157,964	-200,000	-0,033	-0,127
-156,950	105,699	0,066	0,057
-155,935	-200,000	-0,014	0,131
-154,920	146,120	-0,051	0,050
-153,906	800,000	0,019	0,042
-152,891	-200,000	-0,005	-0,059
-151,877	800,000	-0,062	-0,125
-150,862	-200,000	0,028	-0,125
-149,847	800,000	0,051	-0,127
-148,833	-200,000	0,000	-0,060
-147,818	-103,957	0,145	-0,024
-146,804	-200,000	-0,034	0,134
-145,789	-200,000	-0,010	-0,050
-144,775	-172,695	-0,049	-0,001
-143,760	108,064	0,019	-0,016
-142,745	-80,655	-0,126	0,030
-141,731	-61,016	0,087	-0,026
-140,716	-200,000	-0,008	-0,055
-139,702	-119,838	0,205	0,025
-138,687	-69,577	-0,073	-0,020
-137,672	-200,000	0,004	0,075
-136,658	16,653	-0,065	-0,037
-135,643	-100,562	-0,058	-0,010
-134,629	-114,195	0,008	-0,001
-133,614	129,206	0,083	-0,077
-132,599	777,995	0,039	0,078
-131,585	-49,758	0,055	0,019
-130,570	583,436	-0,104	0,186
-129,556	-200,000	0,011	-0,126
-128,541	12,527	-0,033	-0,018
-127,526	24,017	0,068	0,040
-126,512	-123,989	0,048	-0,005
-125,497	-200,000	-0,043	-0,145
-124,483	23,756	0,056	0,033
-123,468	225,103	0,039	0,046
-122,453	800,000	-0,035	0,101
-121,439	-128,151	0,045	0,005
-120,424	-200,000	-0,030	-0,185
-119,410	-200,000	0,011	-0,037
-118,395	72,138	0,046	-0,035
-117,380	568,552	0,028	0,050
-116,366	800,000	-0,014	-0,045
-115,351	101,331	-0,043	-0,036
-114,337	593,039	-0,012	-0,022
-113,322	-88,456	-0,068	0,015
-112,307	-25,776	0,094	0,040
-111,293	120,340	0,105	0,094
-110,278	-200,000	-0,017	-0,160
-109,264	448,056	0,102	-0,163
-108,249	-27,021	0,085	-0,036
-107,234	-56,123	-0,111	-0,036
-106,220	-34,375	-0,066	-0,026
-105,205	-79,820	0,060	-0,014
-104,191	-200,000	-0,005	-0,053
-103,176	797,308	0,057	-0,115
-102,162	-72,508	-0,064	-0,017
-101,147	-200,000	-0,028	-0,099
-100,132	323,265	-0,076	-0,106
-99,118	-17,380	-0,142	-0,065
-98,103	164,733	0,102	-0,105
-97,089	46,728	0,029	0,019
-96,074	-200,000	0,001	0,023
-95,059	46,730	-0,027	0,018
-94,045	52,144	-0,045	-0,031
-93,030	-200,000	-0,032	-0,129
-92,016	675,041	0,013	-0,024
-91,001	-46,232	0,026	0,009
-89,986	78,018	-0,033	0,025
-88,972	400,949	-0,066	0,100
-87,957	89,261	0,121	0,098
-86,943	-30,876	0,073	0,030
-85,928	-48,990	-0,178	0,061
-84,913	64,093	0,119	0,087
-83,899	418,869	-0,061	-0,095
-82,884	800,000	-0,053	0,155
-81,870	-200,000	-0,023	0,118
-80,855	-200,000	0,007	0,092
-79,840	40,917	0,065	-0,042
-78,826	-107,245	-0,025	0,004
-77,811	-200,000	0,021	0,104
-76,797	-200,000	0,002	0,045
-75,782	-95,172	0,039	0,008
-74,767	-89,952	0,117	0,025
-73,753	-167,426	0,076	-0,002
-72,738	-200,000	-0,009	0,051
-71,724	800,000	0,014	-0,043
-70,709	-136,797	-0,071	-0,006
-69,694	-200,000	-0,039	-0,146
-68,680	90,038	-0,087	0,070
-67,665	-63,684	0,012	0,004
-66,651	-200,000	0,008	0,093
-65,636	-114,283	-0,195	0,027
-64,622	373,751	0,041	-0,061
-63,607	-200,000	-0,012	-0,112
-62,592	-49,121	0,014	0,005
-61,578	196,558	-0,043	-0,048
-60,563	-52,946	0,033	0,011
-59,549	800,000	0,015	-0,030
-58,534	-130,069	-1,288	-0,126
-57,519	484,563	-0,864	-1,431
-56,505	-200,000	-0,780	-4,246
-55,490	-51,659	0,700	-0,235
-54,476	800,000	4,800	11,386
-53,461	-200,000	14,063	251,475
-52,446	-200,000	693,252	2237,056
-51,432	580,795	1621,628	2890,195
-50,417	117,632	1630,049	1452,983
-49,403	73,927	1284,466	974,781
-48,388	37,766	1021,490	655,773
-47,373	23,997	979,816	583,896
-46,359	23,212	969,328	575,059
-45,344	22,135	965,037	568,983
-44,330	22,127	963,536	568,049
-43,315	21,986	962,135	566,743
-42,300	21,992	961,200	566,189
-41,286	21,983	960,152	565,521
-40,271	21,871	959,393	564,688
-39,257	22,004	958,275	564,440
-38,242	21,953	957,403	563,739
-37,227	21,984	956,414	563,232
-36,213	21,874	955,766	562,475
-35,198	21,937	954,685	562,019
-34,184	21,879	954,164	561,504
-33,169	21,880	953,245	560,944
-32,154	21,962	952,271	560,611
-31,140	21,957	951,345	560,029
-30,125	22,027	950,657	559,826
-29,111	21,999	949,685	559,141
-28,096	21,960	949,111	558,656
-27,082	21,962	948,493	558,275
-26,067	21,915	947,649	557,607
-25,052	21,952	946,959	557,296
-24,038	21,943	946,384	556,907
-23,023	21,899	945,828	556,417
-22,009	22,019	944,921	556,246
-20,994	21,962	944,540	555,817
-19,979	22,013	943,771	555,505
-18,965	22,054	943,134	555,237
-17,950	21,948	942,503	554,508
-16,936	21,909	941,732	553,909
-15,921	21,906	941,240	553,586
-14,906	21,890	940,534	553,098
-13,892	21,811	939,850	552,425
-12,877	21,792	939,143	551,926
-11,863	21,831	938,447	551,621
-10,848	21,761	938,177	551,216
-9,833	21,908	937,586	551,312
-8,819	21,881	937,042	550,886
-7,804	21,864	936,361	550,410
-6,790	21,830	935,738	549,915
-5,775	21,820	935,159	549,522
-4,760	21,837	934,475	549,151
-3,746	21,836	934,039	548,869
-2,731	21,668	933,168	547,808
-1,717	21,669	932,349	547,309
-0,702	21,693	931,735	547,000
0,313	21,443	931,210	546,733
1,327	23,939	928,803	553,090
2,342	31,698	806,884	501,439
3,356	26,929	507,502	307,258
4,371	2,769	372,667	195,023
5,386	-0,183	355,525	182,433
6,400	-1,649	349,196	177,407
7,415	-2,578	346,351	174,840
8,429	-2,742	344,832	173,862
9,444	-2,908	344,157	173,310
10,459	-2,787	343,300	173,006
11,473	-2,748	342,622	172,695
12,488	-2,620	342,244	172,640
13,502	-2,553	341,776	172,467
14,517	-2,437	340,963	172,178
15,531	-2,599	340,234	171,605
16,546	-2,856	340,068	171,205
17,561	-2,851	339,509	170,914
18,575	-2,763	339,232	170,862
19,590	-2,909	338,902	170,511
20,604	-2,814	338,565	170,437
21,619	-2,924	338,125	170,071
22,634	-2,820	337,773	170,001
23,648	-2,893	337,412	169,719
24,663	-3,002	337,159	169,450
25,677	-2,750	336,935	169,614
26,692	-2,905	336,569	169,235
27,707	-2,974	336,322	169,017
28,721	-2,838	335,794	168,894
29,736	-3,008	335,525	168,546
30,750	-2,909	335,306	168,535
31,765	-2,830	334,889	168,402
32,780	-2,863	334,615	168,211
33,794	-2,917	334,443	168,048
34,809	-2,854	334,152	167,959
35,823	-2,973	333,828	167,644
36,838	-2,947	333,547	167,519
37,853	-3,128	333,365	167,205
38,867	-2,901	332,977	167,255
39,882	-2,908	332,729	167,108
40,896	-3,018	332,455	166,829
41,911	-3,007	332,268	166,733
42,926	-3,027	331,952	166,537
43,940	-2,901	331,512	166,444
44,955	-3,024	331,422	166,245
45,969	-3,011	331,145	166,106
46,984	-3,306	330,827	165,597
47,999	-3,291	330,570	165,470
49,013	-3,519	330,315	165,069
50,028	-3,461	329,925	164,925
51,042	-3,378	329,537	164,811
52,057	-3,516	329,454	164,598
53,071	-3,533	329,164	164,420
54,086	-3,484	328,835	164,296
55,101	-3,388	328,659	164,301
56,115	-3,296	328,436	164,279
57,130	-2,989	328,447	164,616
58,144	-2,803	328,035	164,603
59,159	-2,816	327,818	164,465
60,174	-2,917	327,787	164,322
61,188	-2,862	327,456	164,202
62,203	-2,803	326,992	164,021
63,217	-2,979	326,950	163,789
64,232	-2,910	326,607	163,679
65,247	-2,747	326,472	163,780
66,261	-2,769	326,027	163,517
67,276	-2,974	325,917	163,219
68,290	-3,093	325,469	162,847
69,305	-3,179	325,240	162,622
70,320	-3,115	324,835	162,476
71,334	-2,979	324,846	162,619
72,349	-2,758	324,578	162,715
73,363	-2,727	324,358	162,625
74,378	-2,653	323,887	162,456
75,393	-2,778	323,854	162,287
76,407	-2,911	323,563	161,979
77,422	-2,895	323,247	161,825
78,436	-2,896	323,106	161,738
79,451	-2,691	322,857	161,826
80,466	-2,853	322,471	161,439
81,480	-3,168	322,236	160,959
82,495	-3,109	321,946	160,865
83,509	-3,103	321,778	160,774
84,524	-3,030	321,556	160,729
85,539	-3,107	321,161	160,432
86,553	-3,173	320,958	160,244
87,568	-3,165	320,751	160,135
88,582	-3,164	320,516	160,005
89,597	-3,049	320,325	160,021
90,611	-3,018	320,134	159,945
91,626	-2,937	320,026	159,966
92,641	-2,866	319,646	159,839
93,655	-3,031	319,616	159,630
94,670	-3,091	319,188	159,336
95,684	-3,110	319,017	159,216
96,699	-3,012	318,744	159,173
97,714	-3,022	318,433	158,992
98,728	-3,098	318,263	158,810
99,743	-3,306	318,032	158,455
100,757	-3,325	317,802	158,306
101,772	-3,146	317,535	158,353
102,787	-3,165	317,314	158,208
103,801	-3,137	317,018	158,076
104,816	-3,024	316,798	158,075
105,830	-2,855	316,666	158,178
106,845	-2,944	316,536	158,002
107,860	-2,836	316,292	157,982
108,874	-2,806	315,895	157,802
109,889	-3,029	315,861	157,531
110,903	-2,986	315,468	157,368
111,918	-3,060	315,340	157,210
112,933	-3,089	315,064	157,028
113,947	-2,809	314,897	157,231
114,962	-2,915	314,655	156,982
115,976	-2,969	314,404	156,785
116,991	-3,120	314,267	156,542
118,006	-2,993	313,962	156,510
119,020	-2,947	313,911	156,521
120,035	-2,963	313,794	156,431
121,049	-2,760	313,369	156,422
122,064	-2,902	313,152	156,149
123,079	-2,874	312,892	156,035
124,093	-2,990	312,687	155,795
125,108	-3,094	312,459	155,557
126,122	-3,135	312,142	155,342
127,137	-3,393	312,113	155,039
128,151	-3,237	311,761	155,016
129,166	-3,115	311,580	155,042
130,181	-3,087	311,219	154,878
131,195	-3,052	310,900	154,742
132,210	-3,096	310,900	154,682
133,224	-2,920	310,626	154,719
134,239	-2,911	310,521	154,662
135,254	-2,962	310,254	154,461
136,268	-3,007	310,108	154,327
137,283	-3,308	309,756	153,821
138,297	-3,220	309,402	153,723
139,312	-3,261	309,287	153,610
140,327	-2,881	309,089	153,898
141,341	-2,742	308,954	153,963
142,356	-2,798	308,944	153,885
143,370	-2,599	308,642	153,930
144,385	-2,680	308,430	153,725
145,400	-2,706	308,262	153,601
146,414	-2,687	308,085	153,518
147,429	-2,577	307,580	153,368
148,443	-2,602	307,553	153,315
149,458	-2,694	307,290	153,074
150,473	-2,548	307,009	153,072
151,487	-2,794	307,037	152,817
152,502	-2,827	306,680	152,591
153,516	-2,579	306,501	152,747
154,531	-2,463	306,232	152,720
155,546	-2,620	306,081	152,467
156,560	-2,910	305,828	152,026
157,575	-2,863	305,523	151,910
158,589	-2,854	305,250	151,770
159,604	-2,614	305,063	151,913
160,619	-2,667	304,874	151,749
161,633	-2,684	304,766	151,665
162,648	-2,733	304,656	151,546
163,662	-2,670	304,329	151,435
164,677	-2,755	304,208	151,273
165,692	-2,673	303,904	151,194
166,706	-2,693	303,962	151,188
167,721	-2,617	303,635	151,090
168,735	-2,689	303,393	150,881
169,750	-2,613	303,329	150,915
170,764	-2,701	303,190	150,742
171,779	-2,540	303,005	150,802
172,794	-2,562	302,654	150,591
173,808	-2,708	302,522	150,363
174,823	-2,982	302,064	149,840
175,837	-3,155	301,841	149,539
176,852	-2,981	301,948	149,757
177,867	-2,592	301,541	149,940
178,881	-2,589	301,505	149,912
179,896	-2,677	301,371	149,741
180,910	-2,614	301,017	149,617
181,925	-2,486	300,877	149,664
182,940	-2,513	300,674	149,523
183,954	-2,599	300,451	149,311
184,969	-2,669	300,392	149,197
185,983	-2,656	300,135	149,070
186,998	-2,702	299,828	148,857
188,013	-2,572	299,684	148,904
189,027	-2,537	299,425	148,797
190,042	-2,678	299,208	148,533
191,056	-2,388	299,025	148,723
192,071	-2,383	298,946	148,675
193,086	-2,508	298,734	148,430
194,100	-2,487	298,434	148,289
195,115	-2,584	298,172	148,048
196,129	-2,564	298,068	148,004
197,144	-2,411	297,714	147,968
198,159	-2,346	297,502	147,915
199,173	-2,430	297,348	147,741
200,188	-2,481	297,246	147,626
201,202	-2,696	296,986	147,267
202,217	-3,183	296,561	146,555
203,232	-3,010	296,355	146,613
204,246	-2,678	296,178	146,846
205,261	-2,642	296,084	146,822
206,275	-2,544	295,929	146,830
207,290	-2,471	295,772	146,812
208,304	-2,664	295,511	146,477
209,319	-2,612	295,495	146,508
210,334	-2,659	295,149	146,275
211,348	-2,328	294,815	146,427
212,363	-2,474	294,714	146,219
213,377	-2,524	294,502	146,051
214,392	-2,561	294,382	145,941
215,407	-2,778	294,129	145,587
216,421	-2,759	293,894	145,477
217,436	-2,702	293,672	145,411
218,450	-2,750	293,409	145,219
219,465	-2,906	293,285	144,990
220,480	-2,715	293,194	145,121
221,494	-2,834	293,186	144,987
222,509	-2,867	292,821	144,761
223,523	-2,501	292,595	144,998
224,538	-2,693	292,578	144,788
225,553	-2,456	292,255	144,848
226,567	-2,525	292,060	144,671
227,582	-2,701	291,962	144,436
228,596	-2,443	291,836	144,615
229,611	-2,555	291,728	144,438
230,626	-2,607	291,435	144,229
231,640	-2,964	291,107	143,703
232,655	-3,056	290,664	143,382
233,669	-3,030	290,511	143,319
234,684	-2,847	290,399	143,430
235,699	-2,859	290,133	143,274
236,713	-3,099	290,097	143,009
237,728	-2,695	289,872	143,280
238,742	-2,691	289,772	143,222
239,757	-2,690	289,629	143,139
240,772	-2,706	289,399	142,997
241,786	-2,636	289,251	142,979
242,801	-2,854	288,993	142,626
243,815	-2,831	288,887	142,584
244,830	-2,593	288,597	142,660
245,844	-2,820	288,387	142,323
246,859	-2,826	288,356	142,289
247,874	-2,833	288,011	142,099
248,888	-2,679	287,917	142,190
249,903	-2,551	287,806	142,246
250,917	-2,498	287,602	142,183
251,932	-2,509	287,577	142,148
252,947	-1,816	287,476	142,756
253,961	-2,289	287,201	142,150
254,976	-1,289	287,647	143,326
255,990	1,341	288,453	146,266
257,005	2,522	288,634	147,489
258,020	3,819	288,913	148,875
259,034	3,784	288,790	148,765
260,049	3,462	288,537	148,310
261,063	3,334	288,200	148,000
262,078	3,598	288,288	148,287
263,093	4,379	288,238	149,002
264,107	4,206	288,169	148,786
265,122	4,344	288,059	148,849
266,136	4,520	287,857	148,902
267,151	4,269	287,650	148,539
268,166	4,401	287,464	148,558
269,180	4,323	287,055	148,258
270,195	4,353	286,843	148,164
271,209	4,346	286,704	148,072
272,224	4,286	286,542	147,918
273,239	3,940	286,280	147,437
274,253	3,763	286,343	147,288
275,268	4,435	286,248	147,869
276,282	4,432	285,862	147,654
277,297	4,650	285,733	147,782
278,312	4,762	285,679	147,848
279,326	4,537	285,423	147,488
280,341	4,490	285,052	147,238
281,355	4,025	284,887	146,697
282,370	4,160	284,685	146,708
283,384	4,066	284,598	146,560
284,399	4,064	284,210	146,345
285,414	4,045	284,151	146,284
286,428	4,053	283,929	146,165
287,443	3,887	283,659	145,855
288,457	3,742	283,431	145,588
289,472	3,822	283,220	145,542
290,487	3,929	283,031	145,533
291,501	3,532	282,893	145,073
292,516	3,356	282,750	144,820
293,530	3,355	282,496	144,676
294,545	3,801	282,493	145,084
295,560	3,999	282,336	145,177
296,574	3,682	282,096	144,742
297,589	3,887	282,082	144,914
298,603	4,257	281,793	145,102
299,618	4,245	281,737	145,049
300,633	4,119	281,481	144,785
301,647	4,024	281,230	144,554
302,662	4,082	281,191	144,576
303,676	3,894	280,820	144,196
304,691	3,586	280,398	143,677
305,706	3,573	280,334	143,620
306,720	3,477	280,063	143,378
307,735	3,498	279,982	143,344
308,749	3,806	279,792	143,522
309,764	3,773	279,717	143,440
310,779	3,533	279,403	143,041
311,793	3,444	279,199	142,842
312,808	3,576	279,241	142,974
313,822	3,530	278,957	142,772
314,837	3,468	278,653	142,547
315,852	3,157	278,656	142,246
316,866	3,428	278,464	142,387
317,881	3,415	278,299	142,278
318,895	3,441	278,082	142,179
319,910	3,355	277,770	141,926
320,925	3,319	277,555	141,771
321,939	3,591	277,428	141,945
322,954	3,679	277,360	141,979
323,968	3,538	277,241	141,775
324,983	3,695	276,999	141,783
325,997	3,738	276,803	141,710
327,012	3,928	276,871	141,908
328,027	3,799	276,518	141,596
329,041	3,647	276,390	141,377
330,056	3,674	276,318	141,352
331,070	3,476	276,090	141,041
332,085	3,569	275,752	140,942
333,100	3,849	275,566	141,091
334,114	3,644	275,431	140,821
335,129	3,346	275,272	140,454
336,143	3,637	275,215	140,679
337,158	4,050	275,072	140,972
338,173	4,080	274,698	140,795
339,187	3,556	274,598	140,252
340,202	3,737	274,446	140,327
341,216	3,809	274,329	140,321
342,231	3,726	274,044	140,087
343,246	3,615	273,855	139,877
344,260	3,717	273,671	139,863
345,275	3,887	273,732	140,037
346,289	4,158	273,591	140,198
347,304	4,101	273,464	140,069
348,319	3,979	273,013	139,715
349,333	3,855	272,882	139,523
350,348	4,270	272,717	139,802
351,362	4,105	272,659	139,611
352,377	4,106	272,451	139,493
353,392	4,053	272,384	139,398
354,406	4,117	272,154	139,326
355,421	192,348	1330,189	1410,147
356,435	155,427	1459,170	1410,252
