DTS Sentinel unit serial number:	SN410029Multiplexer serial number:	ORYXHardware model number:	OX2-SRSoftware version number:	ORYX F/W v4,00 Oryx Data Collector v3.7.2.0data status	okinstallation	B4 Nyhavnadifferential loss correction	single-endedforward channel	channel 2reverse channel	N/Adate	2023/12/18time	17:45:13forward acquisition time	300,00reverse acquisition time	0,00gamma	499,1914k internal	0,3125k external	0,3125temperature offset calibration	1,0000default loss term (dB/km)	0,3820temperature slope calibration	1,0000multiplexer offset coefficient	1,0000multiplexer slope coefficient	1,0000fibre end	0,00T internal ref (°C)	21,80T ext. ref 1 (°C)	7,20T ext. ref 2 (°C)	7,25length (m)	temperature (°C)	Stokes	anti-Stokes-744,400	161,028	-0,073	-0,076
-743,385	-62,266	-0,187	0,058
-742,371	-6,465	0,088	-0,044
-741,356	-68,695	-0,260	0,075
-740,342	-200,000	0,004	0,082
-739,327	-3,330	-0,236	0,122
-738,312	-15,300	-0,136	0,064
-737,298	-107,932	-0,257	0,041
-736,283	-152,572	0,087	0,005
-735,269	-132,927	-0,300	-0,028
-734,254	-59,979	-0,071	-0,023
-733,239	-146,662	-0,382	-0,024
-732,225	-88,120	0,043	0,009
-731,210	800,000	0,005	0,015
-730,196	8,580	0,120	-0,067
-729,181	88,910	-0,061	-0,051
-728,167	343,175	-0,059	0,086
-727,152	61,752	-0,043	0,032
-726,137	327,326	-0,079	-0,113
-725,123	191,377	-0,042	-0,047
-724,108	204,790	-0,084	-0,097
-723,094	-200,000	-0,003	-0,077
-722,079	-200,000	-0,044	-0,173
-721,064	-141,842	-0,068	0,005
-720,050	13,552	-0,063	-0,036
-719,035	-200,000	-0,011	0,062
-718,021	800,000	0,021	0,057
-717,006	-7,127	-0,100	0,050
-715,991	-200,000	0,008	-0,063
-714,977	-200,000	0,021	-0,176
-713,962	-200,000	0,018	-0,106
-712,948	-18,288	0,033	-0,015
-711,933	-169,096	0,088	0,002
-710,918	740,700	0,017	0,035
-709,904	356,919	-0,059	0,088
-708,889	202,908	-0,058	0,067
-707,875	165,305	-0,135	-0,143
-706,860	-150,463	-0,066	-0,004
-705,845	288,704	-0,068	0,092
-704,831	482,531	0,067	-0,114
-703,816	-200,000	0,019	-0,086
-702,802	175,188	-0,036	0,039
-701,787	800,000	-0,052	-0,149
-700,772	800,000	-0,080	-0,189
-699,758	651,125	-0,023	-0,045
-698,743	800,000	0,055	0,119
-697,729	380,162	0,032	0,048
-696,714	-200,000	-0,046	0,166
-695,699	800,000	-0,069	0,158
-694,685	20,739	-0,108	0,065
-693,670	-36,179	0,017	-0,007
-692,656	-200,000	-0,013	0,051
-691,641	90,907	-0,076	0,064
-690,627	800,000	0,052	0,111
-689,612	-143,009	-0,068	-0,005
-688,597	-32,491	-0,131	-0,054
-687,583	208,356	-0,070	-0,082
-686,568	92,934	-0,040	-0,034
-685,554	21,874	-0,089	-0,054
-684,539	800,000	0,009	0,023
-683,524	-154,575	-0,082	0,004
-682,510	-40,974	0,030	-0,011
-681,495	-176,002	-0,175	0,003
-680,481	318,999	-0,035	-0,049
-679,466	753,529	0,028	0,057
-678,451	56,176	-0,149	-0,107
-677,437	604,895	0,024	0,044
-676,422	-200,000	0,009	-0,080
-675,408	-200,000	-0,016	0,107
-674,393	39,681	-0,139	0,093
-673,378	-200,000	-0,018	-0,119
-672,364	-142,383	-0,195	-0,014
-671,349	-200,000	0,005	0,079
-670,335	-130,833	-0,093	-0,009
-669,320	158,839	0,038	0,039
-668,305	-12,701	0,158	0,076
-667,291	-38,432	-0,037	-0,015
-666,276	-147,718	-0,193	-0,012
-665,262	147,447	-0,062	-0,062
-664,247	800,000	0,044	-0,111
-663,232	3,188	-0,032	0,017
-662,218	-200,000	-0,022	0,113
-661,203	14,258	0,048	0,028
-660,189	-11,129	-0,112	0,055
-659,174	61,393	-0,109	0,081
-658,159	59,473	-0,066	-0,049
-657,145	800,000	-0,068	-0,157
-656,130	-200,000	-0,000	0,016
-655,116	204,665	-0,072	0,084
-654,101	504,476	0,101	0,175
-653,086	659,672	0,038	0,073
-652,072	-200,000	0,018	0,119
-651,057	-97,861	-0,057	0,011
-650,043	528,590	-0,071	-0,125
-649,028	113,106	0,055	-0,050
-648,014	-200,000	-0,002	0,054
-646,999	-200,000	-0,001	-0,136
-645,984	-31,104	0,030	0,012
-644,970	275,835	-0,045	0,059
-643,955	90,245	0,064	-0,053
-642,941	722,975	-0,042	-0,084
-641,926	800,000	0,011	0,024
-640,911	-66,961	0,181	0,053
-639,897	-200,000	-0,001	0,080
-638,882	165,509	-0,123	0,129
-637,868	-124,626	-0,132	0,015
-636,853	-51,998	-0,084	-0,029
-635,838	-200,000	0,009	-0,097
-634,824	154,422	-0,028	0,028
-633,809	800,000	0,053	0,116
-632,795	13,496	0,061	0,035
-631,780	0,833	-0,089	0,047
-630,765	544,954	0,043	-0,077
-629,751	-200,000	0,021	0,130
-628,736	-91,647	-0,106	-0,022
-627,722	-200,000	-0,011	-0,074
-626,707	800,000	-0,050	0,142
-625,692	-65,141	0,077	0,023
-624,678	800,000	-0,018	0,042
-623,663	-200,000	-0,015	-0,120
-622,649	140,579	-0,099	-0,097
-621,634	-68,039	-0,105	-0,030
-620,619	-50,258	0,173	-0,060
-619,605	260,949	0,026	-0,034
-618,590	197,135	-0,062	-0,071
-617,576	46,973	0,092	0,063
-616,561	182,261	0,109	-0,120
-615,546	-175,408	0,117	-0,002
-614,532	66,632	0,025	-0,019
-613,517	-200,000	-0,001	-0,089
-612,503	-66,590	0,096	-0,028
-611,488	150,696	0,033	-0,034
-610,474	800,000	-0,053	-0,112
-609,459	-200,000	-0,012	0,086
-608,444	800,000	-0,071	0,151
-607,430	-85,310	-0,138	0,032
-606,415	-88,335	-0,068	-0,015
-605,401	-118,487	0,251	-0,033
-604,386	119,994	-0,065	-0,059
-603,371	800,000	0,015	0,034
-602,357	-98,614	-0,132	-0,025
-601,342	-200,000	0,005	0,114
-600,328	49,807	-0,085	-0,060
-599,313	92,728	0,054	-0,045
-598,298	800,000	0,032	-0,093
-597,284	-159,541	-0,124	0,005
-596,269	400,650	0,031	0,049
-595,255	-94,275	-0,069	0,014
-594,240	84,220	-0,069	-0,056
-593,225	800,000	0,049	-0,154
-592,211	-130,605	0,050	-0,005
-591,196	376,559	-0,014	-0,021
-590,182	800,000	0,017	0,046
-589,167	800,000	0,028	0,063
-588,152	160,699	0,097	-0,100
-587,138	-200,000	0,008	-0,027
-586,123	800,000	0,071	-0,150
-585,109	57,987	0,014	0,010
-584,094	53,401	-0,096	-0,068
-583,079	39,843	-0,080	-0,053
-582,065	-200,000	0,000	-0,058
-581,050	800,000	0,048	-0,104
-580,036	-28,625	-0,049	-0,021
-579,021	-200,000	0,010	-0,109
-578,006	-12,366	-0,119	-0,057
-576,992	-200,000	-0,041	-0,186
-575,977	-200,000	-0,017	0,088
-574,963	639,721	0,048	0,092
-573,948	-123,072	-0,117	0,014
-572,934	800,000	0,022	-0,059
-571,919	800,000	-0,026	0,072
-570,904	-11,192	-0,015	0,008
-569,890	-200,000	-0,043	0,147
-568,875	-200,000	-0,023	0,305
-567,861	-200,000	0,042	0,137
-566,846	420,366	-0,037	0,059
-565,831	457,676	0,068	-0,112
-564,817	800,000	-0,030	-0,072
-563,802	800,000	-0,027	0,072
-562,788	-200,000	-0,005	-0,052
-561,773	281,113	-0,056	0,074
-560,758	-186,453	0,037	-0,000
-559,744	-77,996	-0,076	0,019
-558,729	-32,329	-0,076	0,031
-557,715	-90,732	-0,068	-0,014
-556,700	126,847	0,042	-0,040
-555,685	-24,300	0,026	0,011
-554,671	-73,373	-0,077	-0,021
-553,656	85,367	0,072	-0,059
-552,642	800,000	-0,027	-0,066
-551,627	-200,000	-0,007	0,151
-550,612	757,497	0,031	-0,063
-549,598	-200,000	0,018	-0,130
-548,583	-65,031	-0,067	0,020
-547,569	36,495	0,030	0,019
-546,554	-127,842	0,051	-0,005
-545,539	-12,122	-0,090	-0,043
-544,525	-100,417	0,052	0,009
-543,510	-69,662	-0,038	0,011
-542,496	800,000	0,050	-0,151
-541,481	17,054	0,054	0,032
-540,466	252,629	0,106	-0,134
-539,452	227,133	-0,088	-0,106
-538,437	-200,000	0,020	0,115
-537,423	9,532	0,066	0,037
-536,408	-44,883	-0,059	-0,021
-535,393	631,249	0,076	-0,144
-534,379	123,520	-0,106	0,098
-533,364	376,149	0,023	-0,035
-532,350	-77,874	0,135	0,034
-531,335	215,879	-0,037	0,043
-530,321	367,943	-0,082	-0,122
-529,306	-200,000	-0,020	-0,103
-528,291	-102,914	0,071	-0,012
-527,277	313,931	0,032	-0,044
-526,262	-29,202	-0,115	-0,049
-525,248	-56,318	0,201	0,065
-524,233	-200,000	-0,007	0,229
-523,218	-200,000	0,038	0,201
-522,204	122,861	0,081	0,075
-521,189	498,899	-0,060	-0,102
-520,175	-39,929	-0,066	0,025
-519,160	457,083	-0,003	0,005
-518,145	34,074	0,074	-0,048
-517,131	-126,732	0,065	0,007
-516,116	800,000	0,055	0,153
-515,102	-200,000	-0,028	-0,093
-514,087	-200,000	-0,004	-0,071
-513,072	800,000	0,016	-0,048
-512,058	-200,000	-0,020	-0,071
-511,043	-200,000	-0,002	-0,040
-510,029	800,000	0,039	0,085
-509,014	-200,000	-0,029	0,145
-507,999	800,000	-0,023	-0,052
-506,985	125,232	-0,099	-0,093
-505,970	800,000	-0,063	0,133
-504,956	800,000	-0,014	-0,042
-503,941	656,542	0,053	-0,101
-502,926	2,658	-0,091	0,048
-501,912	-41,988	-0,073	-0,027
-500,897	231,668	-0,099	0,120
-499,883	-126,589	-0,187	-0,020
-498,868	800,000	-0,004	0,010
-497,853	300,494	-0,059	-0,081
-496,839	139,644	0,041	0,040
-495,824	73,961	0,135	0,104
-494,810	138,087	0,079	0,076
-493,795	-17,020	0,039	0,018
-492,781	-200,000	0,024	-0,124
-491,766	-157,557	-0,133	-0,006
-490,751	-200,000	0,002	0,043
-489,737	9,993	0,059	-0,033
-488,722	-20,876	0,107	0,048
-487,708	-200,000	0,024	0,165
-486,693	394,065	-0,023	-0,036
-485,678	-200,000	-0,009	0,074
-484,664	-200,000	-0,012	-0,173
-483,649	-73,403	-0,036	-0,010
-482,635	53,533	0,051	-0,036
-481,620	800,000	-0,025	-0,070
-480,605	-14,412	0,086	-0,041
-479,591	-33,522	-0,124	0,050
-478,576	135,783	-0,033	0,032
-477,562	131,407	-0,152	-0,144
-476,547	-200,000	0,022	-0,102
-475,532	-200,000	0,036	-0,154
-474,518	800,000	0,035	0,085
-473,503	-104,404	-0,014	0,002
-472,489	49,750	0,132	-0,091
-471,474	9,406	-0,122	-0,068
-470,459	-61,699	-0,131	-0,040
-469,445	435,613	-0,056	-0,091
-468,430	-200,000	0,020	-0,111
-467,416	784,347	-0,024	-0,049
-466,401	5,902	0,069	-0,037
-465,386	-200,000	0,020	0,078
-464,372	-86,970	-0,043	0,010
-463,357	247,749	-0,047	-0,058
-462,343	-126,515	-0,117	-0,013
-461,328	452,698	-0,067	-0,110
-460,313	-23,591	-0,086	0,038
-459,299	244,067	0,082	0,102
-458,284	-151,764	-0,059	0,003
-457,270	800,000	0,083	0,222
-456,255	-31,359	0,087	0,036
-455,241	800,000	-0,020	-0,042
-454,226	-200,000	-0,002	0,051
-453,211	-56,484	-0,083	0,027
-452,197	-200,000	-0,014	0,074
-451,182	-200,000	0,021	0,137
-450,168	-200,000	-0,026	0,138
-449,153	-138,048	0,113	-0,009
-448,138	-96,657	-0,201	0,039
-447,124	-200,000	0,002	-0,042
-446,109	685,556	0,091	0,175
-445,095	-200,000	0,037	0,177
-444,080	25,193	0,057	0,035
-443,065	348,383	0,049	0,071
-442,051	40,782	-0,030	-0,020
-441,036	161,756	0,025	0,026
-440,022	-74,898	0,126	-0,033
-439,007	-6,457	-0,058	-0,029
-437,992	81,987	0,149	0,119
-436,978	-200,000	-0,007	0,171
-435,963	-200,000	0,027	0,187
-434,949	309,657	0,027	-0,037
-433,934	-200,000	-0,009	-0,126
-432,919	-200,000	0,035	0,137
-431,905	359,581	0,041	0,060
-430,890	800,000	-0,014	0,034
-429,876	163,859	0,062	-0,064
-428,861	-96,443	-0,072	-0,014
-427,846	59,909	0,106	0,077
-426,832	237,898	-0,030	0,037
-425,817	-154,288	0,028	-0,001
-424,803	-6,033	0,040	-0,020
-423,788	590,820	-0,029	-0,052
-422,773	-153,944	0,082	-0,004
-421,759	800,000	0,007	-0,016
-420,744	-200,000	-0,015	0,136
-419,730	774,259	0,081	0,164
-418,715	-116,301	0,045	0,006
-417,701	28,174	0,056	0,035
-416,686	65,117	0,040	-0,030
-415,671	-149,738	-0,169	0,010
-414,657	59,719	-0,039	-0,029
-413,642	-132,144	-0,166	0,016
-412,628	-152,774	0,072	0,004
-411,613	277,632	0,038	0,049
-410,598	-54,413	0,141	-0,047
-409,584	12,730	-0,088	-0,050
-408,569	47,933	0,087	-0,060
-407,555	204,210	-0,024	0,028
-406,540	-109,514	-0,039	0,006
-405,525	32,421	0,119	-0,076
-404,511	800,000	-0,067	-0,145
-403,496	13,061	0,059	-0,034
-402,482	151,768	0,098	-0,099
-401,467	-200,000	0,016	-0,056
-400,452	-200,000	0,054	0,186
-399,438	-12,914	-0,141	-0,067
-398,423	-200,000	-0,003	-0,027
-397,409	-200,000	-0,004	0,104
-396,394	-64,924	0,022	-0,007
-395,379	800,000	-0,000	0,001
-394,365	32,712	0,030	-0,019
-393,350	552,169	-0,030	0,053
-392,336	-118,255	-0,075	0,010
-391,321	-200,000	-0,006	0,064
-390,306	51,892	-0,125	0,087
-389,292	63,368	-0,023	0,017
-388,277	-46,437	0,074	-0,027
-387,263	-86,393	0,089	0,020
-386,248	-200,000	-0,002	0,010
-385,233	120,308	0,015	-0,013
-384,219	-200,000	0,006	-0,134
-383,204	7,689	-0,134	-0,074
-382,190	186,809	-0,045	-0,049
-381,175	29,011	0,053	-0,033
-380,160	181,821	0,048	-0,052
-379,146	27,422	0,113	0,070
-378,131	235,531	0,081	-0,098
-377,117	235,748	0,087	0,106
-376,102	99,325	-0,041	-0,035
-375,088	2,219	-0,095	0,050
-374,073	-200,000	-0,028	-0,196
-373,058	36,246	0,119	0,077
-372,044	223,114	0,067	0,080
-371,029	-200,000	0,005	-0,017
-370,015	69,955	-0,041	-0,031
-369,000	280,613	-0,064	-0,085
-367,985	-200,000	-0,009	-0,061
-366,971	-200,000	0,001	-0,084
-365,956	-182,801	-0,030	-0,000
-364,942	-159,384	0,049	0,002
-363,927	-200,000	0,001	0,010
-362,912	532,389	-0,008	-0,014
-361,898	-135,397	-0,102	-0,009
-360,883	73,996	-0,035	0,027
-359,869	246,111	0,011	-0,013
-358,854	-123,136	0,047	0,005
-357,839	-200,000	0,012	0,103
-356,825	22,554	0,048	-0,029
-355,810	800,000	-0,029	0,089
-354,796	4,482	-0,117	-0,063
-353,781	-9,497	-0,124	0,061
-352,766	351,664	0,022	-0,032
-351,752	304,187	-0,104	0,142
-350,737	44,198	0,116	0,078
-349,723	-200,000	0,008	0,070
-348,708	-200,000	-0,013	-0,132
-347,693	800,000	-0,074	-0,221
-346,679	66,454	-0,102	-0,076
-345,664	-15,072	-0,047	-0,022
-344,650	-31,012	0,209	-0,086
-343,635	-89,657	0,265	-0,057
-342,620	-71,108	0,074	-0,020
-341,606	800,000	0,052	0,114
-340,591	-118,221	0,199	0,026
-339,577	-200,000	0,003	-0,082
-338,562	-16,148	-0,076	-0,036
-337,548	-78,630	0,113	0,028
-336,533	445,951	-0,007	-0,012
-335,518	800,000	0,007	-0,014
-334,504	-152,868	0,064	0,003
-333,489	-34,323	-0,110	-0,044
-332,475	-57,059	-0,033	-0,010
-331,460	47,908	0,095	0,065
-330,445	-200,000	0,017	0,101
-329,431	23,215	0,069	0,042
-328,416	311,162	-0,089	0,123
-327,402	-97,834	-0,082	0,015
-326,387	11,735	-0,037	0,021
-325,372	-154,824	0,112	-0,005
-324,358	-200,000	-0,018	-0,077
-323,343	40,010	0,025	-0,016
-322,329	169,895	0,098	-0,102
-321,314	725,369	0,075	0,146
-320,299	-200,000	0,037	0,147
-319,285	-84,875	-0,059	-0,014
-318,270	382,687	0,097	-0,146
-317,256	800,000	-0,094	-0,211
-316,241	28,952	-0,099	0,061
-315,226	-9,384	0,022	0,011
-314,212	800,000	0,081	0,220
-313,197	-200,000	0,003	0,138
-312,183	-200,000	-0,020	0,112
-311,168	800,000	-0,015	-0,047
-310,153	99,274	-0,027	0,023
-309,139	-124,229	0,057	0,006
-308,124	800,000	0,033	0,077
-307,110	-47,587	0,062	0,022
-306,095	396,599	0,027	0,041
-305,080	-200,000	0,010	0,086
-304,066	-14,152	-0,086	0,041
-303,051	-59,829	-0,137	0,043
-302,037	639,984	0,118	-0,222
-301,022	-5,092	0,118	0,059
-300,008	800,000	-0,022	0,050
-298,993	-53,792	-0,039	-0,013
-297,978	800,000	-0,012	0,031
-296,964	87,867	-0,046	0,037
-295,949	186,349	-0,061	-0,067
-294,935	-75,155	0,085	0,022
-293,920	130,149	0,022	-0,021
-292,905	-44,510	0,083	-0,030
-291,891	-200,000	0,005	-0,178
-290,876	-106,278	-0,118	-0,019
-289,862	638,206	-0,030	-0,057
-288,847	800,000	-0,046	-0,128
-287,832	84,921	0,028	-0,023
-286,818	-200,000	0,002	0,007
-285,803	350,945	0,077	-0,112
-284,789	800,000	-0,055	0,159
-283,774	-54,325	-0,041	0,014
-282,759	100,172	-0,079	-0,067
-281,745	340,837	0,037	-0,053
-280,730	800,000	0,035	-0,095
-279,716	-63,817	0,051	0,015
-278,701	39,162	-0,103	-0,067
-277,686	-1,485	0,116	-0,060
-276,672	29,467	0,135	0,084
-275,657	800,000	-0,054	0,131
-274,643	55,531	0,059	-0,042
-273,628	64,163	0,102	0,075
-272,613	-84,410	-0,123	-0,028
-271,599	800,000	-0,021	0,057
-270,584	65,873	0,080	0,059
-269,570	-65,304	-0,073	0,021
-268,555	34,157	-0,048	-0,030
-267,540	-200,000	0,014	-0,067
-266,526	800,000	0,033	-0,079
-265,511	-96,263	-0,058	-0,011
-264,497	355,579	0,027	-0,039
-263,482	-17,082	0,051	-0,023
-262,467	-123,100	-0,125	0,015
-261,453	-200,000	0,014	0,052
-260,438	-76,143	-0,036	-0,009
-259,424	100,189	-0,039	-0,033
-258,409	800,000	-0,032	-0,093
-257,395	144,813	0,041	0,040
-256,380	-200,000	0,015	0,073
-255,365	106,245	0,057	-0,049
-254,351	-7,208	0,046	0,023
-253,336	180,339	0,040	-0,043
-252,322	1,913	-0,064	-0,033
-251,307	-31,871	0,013	-0,005
-250,292	-17,296	-0,095	0,044
-249,278	409,361	0,050	0,078
-248,263	35,872	0,156	0,100
-247,249	152,591	-0,106	0,105
-246,234	467,724	-0,071	-0,116
-245,219	-200,000	-0,011	-0,045
-244,205	-200,000	-0,026	0,095
-243,190	-200,000	-0,008	-0,062
-242,176	-66,547	0,094	-0,027
-241,161	-65,740	0,068	0,020
-240,146	800,000	0,022	-0,059
-239,132	12,840	-0,041	-0,023
-238,117	412,079	0,072	-0,112
-237,103	141,212	-0,111	0,107
-236,088	12,255	-0,069	-0,039
-235,073	518,098	-0,054	-0,093
-234,059	-200,000	0,021	0,086
-233,044	90,026	0,058	0,047
-232,030	184,557	-0,032	0,034
-231,015	-107,661	-0,118	-0,019
-230,000	99,000	-0,069	-0,058
-228,986	-17,539	-0,082	0,038
-227,971	-130,790	0,039	-0,004
-226,957	-200,000	0,006	-0,042
-225,942	342,426	0,074	0,106
-224,927	-200,000	-0,044	-0,147
-223,913	-200,000	0,030	-0,120
-222,898	-200,000	0,017	0,117
-221,884	-81,192	-0,085	-0,020
-220,869	-88,888	0,002	-0,000
-219,855	-200,000	0,007	0,064
-218,840	-200,000	-0,010	0,079
-217,825	180,013	-0,007	-0,008
-216,811	16,311	-0,057	0,033
-215,796	172,854	-0,078	-0,082
-214,782	-200,000	0,021	-0,085
-213,767	45,794	0,094	0,063
-212,752	153,141	0,060	0,060
-211,738	70,715	-0,114	0,086
-210,723	800,000	0,022	-0,048
-209,709	710,577	-0,038	-0,074
-208,694	-60,564	0,120	0,037
-207,679	-75,875	0,086	0,022
-206,665	-200,000	-0,008	-0,087
-205,650	20,462	0,048	0,028
-204,636	-200,000	0,028	0,112
-203,621	-200,000	-0,026	0,141
-202,606	251,368	0,041	0,051
-201,592	11,355	0,026	-0,015
-200,577	-200,000	-0,023	-0,269
-199,563	-200,000	0,009	0,039
-198,548	-96,714	0,048	0,009
-197,533	-200,000	-0,005	-0,061
-196,519	-91,479	-0,064	0,013
-195,504	-13,034	0,098	-0,046
-194,490	179,568	-0,052	0,055
-193,475	-40,686	-0,143	0,054
-192,460	-200,000	0,003	0,105
-191,446	-200,000	0,014	-0,046
-190,431	800,000	0,045	0,123
-189,417	800,000	-0,011	0,029
-188,402	-200,000	-0,002	0,149
-187,387	145,716	0,046	-0,045
-186,373	214,715	0,060	-0,069
-185,358	-200,000	-0,015	-0,115
-184,344	-200,000	0,006	0,035
-183,329	131,174	0,023	0,022
-182,315	-200,000	0,032	0,130
-181,300	-44,221	0,055	0,020
-180,285	-39,602	-0,046	0,018
-179,271	-167,191	-0,024	-0,001
-178,256	-50,616	-0,040	-0,014
-177,242	-6,136	0,185	0,092
-176,227	800,000	-0,033	0,094
-175,212	-37,377	0,080	-0,031
-174,198	382,861	-0,063	-0,095
-173,183	-200,000	0,000	-0,006
-172,169	335,485	-0,038	-0,053
-171,154	53,316	-0,082	-0,057
-170,139	-200,000	-0,026	-0,089
-169,125	259,746	-0,045	-0,056
-168,110	461,577	0,057	0,093
-167,096	13,230	0,038	0,021
-166,081	-25,620	-0,139	0,059
-165,066	23,989	-0,054	0,033
-164,052	40,760	-0,095	-0,063
-163,037	800,000	0,008	0,018
-162,023	165,792	-0,040	-0,041
-161,008	564,477	0,043	0,077
-159,993	-7,421	-0,162	0,079
-158,979	355,407	0,067	0,098
-157,964	654,936	0,043	-0,081
-156,950	597,171	-0,067	-0,121
-155,935	-200,000	0,025	-0,082
-154,920	509,599	-0,014	-0,025
-153,906	12,661	0,029	0,016
-152,891	-76,997	-0,144	-0,036
-151,877	800,000	0,022	0,046
-150,862	22,957	0,012	-0,007
-149,847	800,000	-0,024	0,063
-148,833	89,015	0,078	0,063
-147,818	-100,290	0,043	0,008
-146,804	283,282	-0,104	0,137
-145,789	233,614	-0,087	0,105
-144,775	-9,646	0,078	0,038
-143,760	417,929	-0,035	-0,054
-142,745	97,682	-0,035	-0,029
-141,731	-109,895	0,064	-0,010
-140,716	80,832	-0,041	-0,032
-139,702	16,582	-0,024	-0,014
-138,687	-200,000	-0,029	0,143
-137,672	-117,924	0,020	0,003
-136,658	64,504	0,050	0,037
-135,643	294,040	0,053	-0,071
-134,629	-15,385	0,103	0,048
-133,614	369,448	0,009	0,013
-132,599	427,757	0,102	0,160
-131,585	-200,000	-0,006	0,064
-130,570	-117,127	-0,165	-0,022
-129,556	423,266	0,026	-0,041
-128,541	-200,000	-0,013	-0,045
-127,526	-200,000	0,013	-0,084
-126,512	221,142	0,033	-0,039
-125,497	-200,000	-0,013	0,083
-124,483	800,000	-0,009	0,028
-123,468	27,978	-0,086	-0,052
-122,453	-26,305	-0,154	-0,065
-121,439	172,232	0,010	0,011
-120,424	-200,000	-0,025	-0,080
-119,410	488,847	0,036	-0,060
-118,395	677,948	-0,049	0,092
-117,380	22,778	0,082	-0,049
-116,366	-122,280	0,136	-0,016
-115,351	688,196	-0,043	-0,082
-114,337	800,000	-0,021	-0,056
-113,322	56,320	0,074	0,052
-112,307	-39,938	0,028	-0,011
-111,293	800,000	0,021	-0,058
-110,278	-152,205	0,083	-0,004
-109,264	-9,822	0,082	0,040
-108,249	32,165	0,095	0,060
-107,234	56,514	0,094	-0,066
-106,220	750,942	-0,049	-0,097
-105,205	-200,000	0,012	0,102
-104,191	440,305	-0,009	-0,015
-103,176	-154,839	-0,062	0,003
-102,162	-51,280	0,056	-0,019
-101,147	-31,556	0,046	-0,019
-100,132	-38,333	-0,086	-0,033
-99,118	800,000	-0,018	0,055
-98,103	219,582	-0,116	0,136
-97,089	-60,265	0,091	0,028
-96,074	124,698	-0,012	-0,011
-95,059	-62,384	0,030	0,009
-94,045	-44,178	-0,066	0,024
-93,030	200,316	-0,050	-0,056
-92,016	-200,000	-0,026	-0,092
-91,001	-31,053	-0,047	0,019
-89,986	-200,000	0,033	0,115
-88,972	800,000	0,052	0,110
-87,957	31,064	-0,090	0,056
-86,943	546,801	0,039	0,068
-85,928	-12,050	0,029	0,014
-84,913	29,841	0,221	-0,137
-83,899	-200,000	-0,014	-0,076
-82,884	-200,000	-0,002	0,015
-81,870	-183,444	-0,092	0,001
-80,855	-98,117	-0,052	-0,010
-79,840	182,227	0,075	-0,081
-78,826	800,000	0,030	-0,080
-77,811	-200,000	-0,023	-0,091
-76,797	42,578	-0,136	-0,089
-75,782	-200,000	0,004	0,177
-74,767	-53,156	-0,050	0,017
-73,753	800,000	-0,025	0,075
-72,738	800,000	0,042	0,102
-71,724	89,484	-0,088	0,072
-70,709	85,020	0,111	0,088
-69,694	-200,000	0,011	-0,073
-68,680	-200,000	-0,022	0,098
-67,665	505,574	0,051	0,087
-66,651	-200,000	-0,009	-0,049
-65,636	-64,616	0,020	-0,006
-64,622	800,000	0,048	-0,098
-63,607	-200,000	0,009	-0,089
-62,592	-200,000	0,001	-0,014
-61,578	800,000	-0,033	-0,086
-60,563	715,152	0,110	0,212
-59,549	-200,000	0,023	0,163
-58,534	-155,347	-1,447	-0,067
-57,519	527,768	-0,836	-1,435
-56,505	-200,000	-0,884	-4,327
-55,490	-58,441	0,548	-0,172
-54,476	800,000	5,026	11,560
-53,461	-200,000	13,927	253,243
-52,446	-200,000	693,291	2260,555
-51,432	600,268	1623,791	2935,790
-50,417	117,644	1633,020	1457,560
-49,403	73,302	1286,862	975,319
-48,388	37,298	1023,199	656,123
-47,373	23,887	981,152	585,080
-46,359	23,102	970,673	576,236
-45,344	22,057	966,534	570,344
-44,330	22,030	964,996	569,326
-43,315	21,901	963,553	568,031
-42,300	21,799	962,624	567,131
-41,286	21,901	961,597	566,834
-40,271	21,861	960,804	566,214
-39,257	21,781	959,983	565,449
-38,242	21,832	958,779	564,881
-37,227	21,786	958,009	564,258
-36,213	21,758	957,132	563,628
-35,198	21,770	956,205	563,098
-34,184	21,839	955,660	562,977
-33,169	21,822	954,567	562,255
-32,154	21,896	953,762	561,997
-31,140	21,857	952,983	561,391
-30,125	21,844	952,184	560,858
-29,111	21,866	951,298	560,383
-28,096	21,840	950,693	559,922
-27,082	21,914	949,836	559,631
-26,067	21,857	949,122	559,006
-25,052	21,836	948,535	558,570
-24,038	21,842	947,856	558,168
-23,023	21,845	947,263	557,807
-22,009	21,846	946,548	557,367
-20,994	21,808	945,834	556,803
-19,979	21,834	945,157	556,466
-18,965	21,836	944,419	556,014
-17,950	21,854	943,925	555,758
-16,936	21,756	943,272	555,041
-15,921	21,798	942,528	554,713
-14,906	21,779	941,851	554,235
-13,892	21,688	941,285	553,588
-12,877	21,740	940,556	553,304
-11,863	21,705	939,892	552,780
-10,848	21,692	939,415	552,436
-9,833	21,857	938,906	552,637
-8,819	21,792	938,360	552,090
-7,804	21,734	937,674	551,480
-6,790	21,677	937,130	550,956
-5,775	21,775	936,563	550,913
-4,760	21,754	936,036	550,514
-3,746	21,747	935,317	550,049
-2,731	21,536	934,708	549,001
-1,717	21,525	933,895	548,467
-0,702	21,517	933,201	548,014
0,313	21,369	932,419	547,914
1,327	23,897	930,210	554,508
2,342	31,558	809,119	503,096
3,356	26,385	510,677	308,645
4,371	2,002	375,832	195,943
5,386	-0,951	358,845	183,423
6,400	-1,872	353,021	179,310
7,415	-1,779	350,465	178,108
8,429	-1,610	349,112	177,609
9,444	-1,556	348,223	177,206
10,459	-1,580	347,689	176,888
11,473	-1,529	346,951	176,559
12,488	-1,682	346,414	176,087
13,502	-1,616	345,671	175,772
14,517	-1,545	345,294	175,650
15,531	-1,357	344,898	175,656
16,546	-1,172	344,479	175,646
17,561	-1,318	344,167	175,298
18,575	-1,168	343,780	175,263
19,590	-1,422	343,425	174,766
20,604	-1,282	342,989	174,694
21,619	-1,227	342,598	174,544
22,634	-1,225	342,111	174,283
23,648	-1,306	341,851	174,040
24,663	-1,252	341,554	173,936
25,677	-1,414	341,434	173,670
26,692	-1,248	341,148	173,703
27,707	-1,184	340,505	173,435
28,721	-1,331	340,338	173,162
29,736	-1,325	340,134	173,050
30,750	-1,363	339,633	172,735
31,765	-1,382	339,544	172,653
32,780	-1,293	339,121	172,526
33,794	-1,283	338,923	172,422
34,809	-1,144	338,527	172,367
35,823	-1,340	338,409	172,063
36,838	-1,377	338,133	171,864
37,853	-1,438	337,816	171,617
38,867	-1,345	337,528	171,563
39,882	-1,253	337,212	171,494
40,896	-1,224	336,947	171,378
41,911	-1,309	336,736	171,156
42,926	-1,302	336,458	171,008
43,940	-1,350	336,251	170,833
44,955	-1,300	335,814	170,652
45,969	-1,329	335,715	170,554
46,984	-1,385	335,577	170,404
47,999	-1,420	335,234	170,174
49,013	-1,393	335,051	170,098
50,028	-1,299	334,657	169,991
51,042	-1,306	334,331	169,801
52,057	-1,501	334,062	169,426
53,071	-1,403	333,878	169,430
54,086	-1,505	333,597	169,155
55,101	-1,319	333,282	169,193
56,115	-1,325	333,058	169,058
57,130	-1,227	332,693	168,969
58,144	-1,352	332,573	168,751
59,159	-1,319	332,271	168,619
60,174	-1,410	332,091	168,410
61,188	-1,506	331,815	168,145
62,203	-1,395	331,714	168,206
63,217	-1,321	331,284	168,057
64,232	-1,352	330,825	167,774
65,247	-1,394	330,770	167,683
66,261	-1,267	330,545	167,698
67,276	-1,315	330,249	167,479
68,290	-1,323	329,860	167,258
69,305	-1,482	329,676	166,970
70,320	-1,282	329,524	167,103
71,334	-1,184	329,234	167,052
72,349	-1,254	328,910	166,794
73,363	-1,398	328,711	166,516
74,378	-1,457	328,370	166,262
75,393	-1,432	328,148	166,163
76,407	-1,483	328,095	166,063
77,422	-1,450	327,795	165,934
78,436	-1,354	327,482	165,869
79,451	-1,459	327,149	165,567
80,466	-1,348	326,871	165,536
81,480	-1,258	326,593	165,482
82,495	-1,308	326,320	165,273
83,509	-1,356	326,222	165,155
84,524	-1,240	326,023	165,169
85,539	-1,244	325,611	164,941
86,553	-1,109	325,564	165,052
87,568	-1,283	325,278	164,699
88,582	-1,274	324,970	164,538
89,597	-1,355	324,823	164,359
90,611	-1,368	324,642	164,238
91,626	-1,409	324,390	164,051
92,641	-1,379	324,180	163,963
93,655	-1,096	323,723	164,031
94,670	-1,341	323,627	163,697
95,684	-1,291	323,412	163,628
96,699	-1,397	323,150	163,364
97,714	-1,406	322,900	163,213
98,728	-1,373	322,771	163,170
99,743	-1,123	322,279	163,182
100,757	-1,397	322,252	162,852
101,772	-1,339	322,062	162,805
102,787	-1,300	321,694	162,648
103,801	-1,333	321,416	162,456
104,816	-1,334	321,249	162,356
105,830	-1,352	321,120	162,258
106,845	-1,266	320,883	162,217
107,860	-1,299	320,570	162,008
108,874	-1,446	320,291	161,692
109,889	-1,439	320,020	161,548
110,903	-1,539	319,841	161,334
111,918	-1,475	319,617	161,277
112,933	-1,280	319,405	161,369
113,947	-1,397	319,192	161,119
114,962	-1,313	318,924	161,061
115,976	-1,343	318,805	160,953
116,991	-1,251	318,476	160,873
118,006	-1,255	318,238	160,734
119,020	-1,367	318,194	160,576
120,035	-1,347	317,955	160,463
121,049	-1,231	317,601	160,395
122,064	-1,327	317,621	160,288
123,079	-1,305	317,319	160,144
124,093	-1,203	317,038	160,099
125,108	-1,261	316,722	159,862
126,122	-1,217	316,585	159,826
127,137	-1,233	316,352	159,677
128,151	-1,268	316,168	159,532
129,166	-1,231	315,924	159,434
130,181	-1,453	315,674	159,056
131,195	-1,327	315,519	159,099
132,210	-1,436	315,099	158,755
133,224	-1,417	314,991	158,708
134,239	-1,318	314,659	158,632
135,254	-1,275	314,305	158,486
136,268	-1,383	314,266	158,336
137,283	-1,299	313,987	158,271
138,297	-1,406	313,800	158,049
139,312	-1,403	313,564	157,919
140,327	-1,445	313,291	157,722
141,341	-1,258	313,181	157,853
142,356	-1,412	313,079	157,623
143,370	-1,399	312,738	157,451
144,385	-1,156	312,532	157,592
145,400	-1,216	312,376	157,435
146,414	-1,272	312,228	157,287
147,429	-1,427	311,923	156,955
148,443	-1,301	311,645	156,935
149,458	-1,344	311,453	156,779
150,473	-1,387	311,342	156,663
151,487	-1,366	311,113	156,556
152,502	-1,286	310,869	156,504
153,516	-1,145	310,589	156,498
154,531	-1,286	310,259	156,168
155,546	-1,243	310,081	156,110
156,560	-1,279	310,003	156,020
157,575	-1,387	309,695	155,737
158,589	-1,190	309,348	155,756
159,604	-1,224	309,271	155,667
160,619	-1,291	309,213	155,554
161,633	-1,260	309,032	155,482
162,648	-1,228	308,775	155,371
163,662	-1,143	308,384	155,250
164,677	-1,292	308,309	155,043
165,692	-1,339	308,121	154,885
166,706	-1,274	307,897	154,826
167,721	-1,197	307,813	154,851
168,735	-1,114	307,537	154,785
169,750	-1,268	307,371	154,527
170,764	-1,337	307,162	154,336
171,779	-1,295	306,955	154,262
172,794	-1,396	306,801	154,066
173,808	-1,149	306,465	154,140
174,823	-1,284	306,106	153,805
175,837	-1,349	306,006	153,674
176,852	-1,195	305,741	153,687
177,867	-1,398	305,621	153,403
178,881	-1,351	305,460	153,357
179,896	-1,349	305,328	153,279
180,910	-1,357	305,026	153,105
181,925	-1,312	304,792	153,021
182,940	-1,293	304,565	152,913
183,954	-1,345	304,401	152,763
184,969	-1,289	304,233	152,723
185,983	-1,170	304,304	152,867
186,998	-1,088	303,874	152,722
188,013	-1,204	303,718	152,512
189,027	-1,334	303,575	152,292
190,042	-1,295	303,241	152,151
191,056	-1,395	302,954	151,891
192,071	-1,311	302,748	151,860
193,086	-1,494	302,531	151,550
194,100	-1,327	302,337	151,611
195,115	-1,282	302,195	151,572
196,129	-1,232	301,876	151,449
197,144	-1,404	301,695	151,169
198,159	-1,368	301,427	151,058
199,173	-1,306	301,202	150,995
200,188	-1,464	301,037	150,738
201,202	-1,439	300,965	150,714
202,217	-1,299	300,583	150,652
203,232	-1,449	300,426	150,407
204,246	-1,381	300,316	150,408
205,261	-1,285	300,050	150,358
206,275	-1,239	299,884	150,309
207,290	-1,225	299,961	150,348
208,304	-1,071	299,542	150,281
209,319	-1,250	299,103	149,866
210,334	-1,231	299,209	149,925
211,348	-1,272	298,894	149,712
212,363	-1,244	298,715	149,638
213,377	-1,320	298,527	149,453
214,392	-1,179	298,289	149,464
215,407	-1,295	298,113	149,244
216,421	-1,339	297,836	149,049
217,436	-1,338	297,575	148,906
218,450	-1,522	297,522	148,681
219,465	-1,432	297,351	148,673
220,480	-1,313	297,123	148,665
221,494	-1,396	296,950	148,481
222,509	-1,501	296,731	148,253
223,523	-1,203	296,545	148,446
224,538	-1,411	296,395	148,149
225,553	-1,483	296,212	147,972
226,567	-1,139	295,876	148,136
227,582	-1,320	295,754	147,880
228,596	-1,270	295,664	147,872
229,611	-1,306	295,393	147,687
230,626	-1,281	295,176	147,590
231,640	-1,362	294,961	147,390
232,655	-1,422	294,854	147,263
233,669	-1,372	294,537	147,142
234,684	-1,300	294,379	147,121
235,699	-1,311	294,186	147,000
236,713	-1,337	294,083	146,910
237,728	-1,107	293,841	147,004
238,742	-1,382	293,645	146,620
239,757	-1,347	293,513	146,576
240,772	-1,431	293,171	146,309
241,786	-1,603	293,159	146,120
242,801	-1,235	292,845	146,313
243,815	-1,265	292,696	146,196
244,830	-1,455	292,612	145,954
245,844	-1,488	292,391	145,798
246,859	-1,431	291,973	145,633
247,874	-1,477	291,959	145,568
248,888	-1,347	291,661	145,534
249,903	-1,261	291,406	145,478
250,917	-1,338	291,329	145,352
251,932	-1,293	290,991	145,214
252,947	-1,735	290,558	144,551
253,961	-2,487	290,209	143,630
254,976	-3,089	289,751	142,802
255,990	-3,265	289,681	142,583
257,005	-1,871	290,132	144,156
258,020	0,535	290,955	146,909
259,034	1,761	291,311	148,276
260,049	2,549	291,130	148,942
261,063	2,730	291,200	149,142
262,078	2,933	291,082	149,267
263,093	3,130	291,040	149,424
264,107	3,389	290,869	149,577
265,122	3,478	290,768	149,598
266,136	3,666	290,665	149,715
267,151	3,639	290,408	149,543
268,166	3,578	290,262	149,395
269,180	3,866	289,924	149,488
270,195	3,640	289,785	149,183
271,209	3,491	289,651	148,956
272,224	3,479	289,408	148,806
273,239	3,574	289,112	148,732
274,253	3,321	288,981	148,407
275,268	3,319	288,803	148,300
276,282	3,388	288,538	148,218
277,297	3,494	288,326	148,198
278,312	3,515	288,180	148,130
279,326	3,528	287,972	148,022
280,341	3,647	287,832	148,052
281,355	3,425	287,773	147,795
282,370	3,185	287,430	147,373
283,384	3,345	287,218	147,407
284,399	3,518	287,048	147,472
285,414	3,176	286,904	147,056
286,428	3,358	286,644	147,084
287,443	3,022	286,505	146,677
288,457	3,154	286,197	146,634
289,472	3,164	285,966	146,512
290,487	2,959	285,951	146,294
291,501	3,088	285,747	146,300
292,516	3,029	285,539	146,125
293,530	3,055	285,384	146,057
294,545	3,155	285,084	145,986
295,560	3,168	284,864	145,873
296,574	2,784	284,755	145,438
297,589	2,916	284,497	145,419
298,603	2,993	284,422	145,441
299,618	2,895	284,353	145,300
300,633	2,956	284,134	145,233
301,647	3,176	283,887	145,302
302,662	3,133	283,817	145,213
303,676	3,193	283,679	145,186
304,691	3,525	283,330	145,309
305,706	3,514	283,280	145,260
306,720	3,503	283,068	145,128
307,735	3,580	282,985	145,146
308,749	3,617	282,740	145,041
309,764	3,620	282,502	144,910
310,779	3,352	282,381	144,581
311,793	3,264	282,147	144,366
312,808	3,247	281,983	144,253
313,822	3,208	281,836	144,129
314,837	3,163	281,739	144,024
315,852	3,352	281,438	144,034
316,866	3,353	281,214	143,908
317,881	3,473	280,984	143,890
318,895	3,165	280,949	143,570
319,910	3,345	280,580	143,538
320,925	3,312	280,323	143,363
321,939	3,377	280,336	143,417
322,954	3,277	280,208	143,245
323,968	3,483	279,997	143,318
324,983	3,407	279,931	143,200
325,997	3,635	279,745	143,305
327,012	3,404	279,594	142,999
328,027	3,442	279,439	142,943
329,041	3,439	279,206	142,808
330,056	3,584	279,123	142,887
331,070	3,633	278,729	142,718
332,085	3,576	278,519	142,546
333,100	3,525	278,379	142,414
334,114	3,537	278,337	142,390
335,129	3,273	278,062	141,992
336,143	3,347	277,909	141,970
337,158	3,639	277,627	142,084
338,173	3,399	277,617	141,844
339,187	3,274	277,347	141,578
340,202	3,456	277,301	141,710
341,216	3,504	277,030	141,603
342,231	3,329	276,820	141,322
343,246	3,555	276,589	141,399
344,260	3,388	276,550	141,213
345,275	3,583	276,280	141,242
346,289	3,728	276,069	141,255
347,304	3,411	275,943	140,887
348,319	3,501	275,842	140,905
349,333	3,414	275,694	140,737
350,348	3,659	275,285	140,740
351,362	3,588	275,226	140,632
352,377	3,576	275,076	140,533
353,392	3,564	274,862	140,400
354,406	3,478	274,782	140,267
355,421	192,436	1350,484	1433,794
356,435	155,458	1481,649	1433,941
