DTS Sentinel unit serial number:	SN410029Multiplexer serial number:	ORYXHardware model number:	OX2-SRSoftware version number:	ORYX F/W v4,00 Oryx Data Collector v3.7.2.0data status	okinstallation	B4 Nyhavnadifferential loss correction	single-endedforward channel	channel 2reverse channel	N/Adate	2023/12/16time	02:55:13forward acquisition time	300,00reverse acquisition time	0,00gamma	499,1914k internal	0,3128k external	0,3128temperature offset calibration	1,0000default loss term (dB/km)	0,3820temperature slope calibration	1,0000multiplexer offset coefficient	1,0000multiplexer slope coefficient	1,0000fibre end	0,00T internal ref (°C)	21,94T ext. ref 1 (°C)	7,07T ext. ref 2 (°C)	7,26length (m)	temperature (°C)	Stokes	anti-Stokes-744,400	20,980	0,078	-0,047
-743,385	-16,497	-0,165	0,078
-742,371	39,891	-0,070	-0,047
-741,356	46,711	-0,176	0,121
-740,342	-76,720	0,132	-0,034
-739,327	-194,569	-0,211	0,001
-738,312	185,889	0,142	-0,158
-737,298	-175,842	-0,312	0,006
-736,283	59,954	0,022	0,017
-735,269	59,460	-0,195	0,143
-734,254	255,954	0,057	0,073
-733,239	-28,815	-0,451	-0,192
-732,225	800,000	0,034	0,095
-731,210	35,070	0,077	-0,050
-730,196	800,000	-0,028	0,063
-729,181	800,000	0,031	0,080
-728,167	326,595	-0,057	-0,081
-727,152	-125,022	0,106	0,012
-726,137	800,000	-0,037	-0,109
-725,123	66,717	-0,038	0,029
-724,108	-85,557	-0,154	-0,035
-723,094	-200,000	-0,041	-0,189
-722,079	290,551	-0,141	-0,192
-721,064	8,257	-0,051	0,028
-720,050	443,374	-0,040	0,065
-719,035	437,551	0,032	-0,052
-718,021	-200,000	-0,030	-0,105
-717,006	-200,000	0,021	-0,097
-715,991	452,065	0,067	-0,110
-714,977	646,930	0,076	-0,145
-713,962	-28,448	-0,095	-0,040
-712,948	800,000	0,003	0,009
-711,933	-37,368	0,067	0,026
-710,918	59,820	0,095	-0,069
-709,904	-0,020	0,045	-0,024
-708,889	47,431	-0,140	-0,097
-707,875	79,458	-0,128	-0,102
-706,860	2,640	-0,053	-0,028
-705,845	-58,193	0,108	0,035
-704,831	366,650	0,079	-0,119
-703,816	181,845	0,088	0,096
-702,802	-5,274	-0,114	0,058
-701,787	-17,858	-0,113	0,053
-700,772	100,380	0,100	-0,086
-699,758	800,000	0,009	0,028
-698,743	16,302	0,120	0,070
-697,729	14,745	0,075	0,043
-696,714	49,094	-0,067	-0,047
-695,699	10,716	0,113	-0,064
-694,685	-200,000	0,042	-0,195
-693,670	101,551	-0,103	-0,089
-692,656	800,000	0,046	-0,148
-691,641	60,751	0,029	-0,021
-690,627	-56,731	0,023	-0,007
-689,612	320,779	-0,066	0,093
-688,597	800,000	0,052	-0,124
-687,583	-22,658	-0,075	0,034
-686,568	-35,181	0,086	0,035
-685,554	421,738	0,079	-0,126
-684,539	25,523	0,049	0,030
-683,524	-131,164	0,061	0,006
-682,510	-200,000	0,039	0,139
-681,495	104,667	-0,074	-0,065
-680,481	-73,387	0,080	-0,022
-679,466	55,707	-0,128	-0,092
-678,451	85,122	-0,118	-0,096
-677,437	-200,000	-0,002	-0,017
-676,422	154,255	0,059	0,060
-675,408	290,826	-0,016	0,022
-674,393	241,222	0,077	0,096
-673,378	-99,012	-0,240	0,045
-672,364	95,057	-0,156	-0,132
-671,349	-62,149	-0,137	-0,042
-670,335	43,351	0,044	0,030
-669,320	-68,652	-0,031	-0,009
-668,305	-116,104	-0,053	-0,007
-667,291	167,870	0,030	-0,032
-666,276	58,222	-0,056	-0,041
-665,262	800,000	0,026	-0,066
-664,247	800,000	-0,059	-0,159
-663,232	800,000	0,067	-0,143
-662,218	51,120	-0,040	0,028
-661,203	629,038	-0,009	-0,016
-660,189	-200,000	0,016	0,115
-659,174	-200,000	-0,005	-0,125
-658,159	-200,000	-0,001	-0,031
-657,145	800,000	0,012	0,032
-656,130	800,000	-0,014	0,043
-655,116	-188,168	0,142	-0,001
-654,101	157,792	-0,068	0,070
-653,086	34,202	-0,066	0,042
-652,072	8,768	-0,043	0,024
-651,057	176,730	-0,079	-0,085
-650,043	800,000	-0,023	0,067
-649,028	-200,000	0,005	-0,090
-648,014	-74,423	-0,079	-0,021
-646,999	-200,000	0,007	-0,040
-645,984	154,869	-0,069	0,071
-644,970	-48,175	0,052	0,018
-643,955	690,441	-0,065	-0,127
-642,941	4,402	-0,101	-0,055
-641,926	-177,413	0,135	0,002
-640,911	327,153	0,051	0,073
-639,897	-13,519	0,053	-0,025
-638,882	-200,000	-0,027	0,174
-637,868	800,000	0,011	0,027
-636,853	-200,000	-0,022	0,102
-635,838	-200,000	0,005	-0,051
-634,824	-37,537	-0,078	-0,031
-633,809	-83,319	0,191	-0,045
-632,795	-200,000	0,002	-0,020
-631,780	199,281	0,072	-0,082
-630,765	86,503	-0,062	-0,050
-629,751	255,083	-0,043	-0,055
-628,736	99,248	-0,108	-0,092
-627,722	-200,000	-0,023	0,114
-626,707	-44,458	-0,118	-0,044
-625,692	356,084	0,118	0,175
-624,678	-200,000	0,016	-0,127
-623,663	-38,223	0,059	-0,023
-622,649	-64,247	-0,090	-0,027
-621,634	-200,000	0,000	-0,055
-620,619	-46,824	-0,109	0,039
-619,605	800,000	-0,037	0,094
-618,590	-57,476	-0,076	-0,025
-617,576	-190,494	-0,100	0,001
-616,561	-88,094	-0,130	-0,029
-615,546	-93,303	-0,060	-0,012
-614,532	38,163	0,063	-0,041
-613,517	-50,056	-0,076	0,027
-612,503	62,866	-0,049	-0,036
-611,488	800,000	0,035	-0,084
-610,474	-91,381	0,164	-0,034
-609,459	251,798	-0,048	0,061
-608,444	121,550	-0,043	-0,040
-607,430	-200,000	0,002	-0,082
-606,415	-81,151	-0,057	0,014
-605,401	-45,573	0,025	-0,009
-604,386	-200,000	-0,024	0,094
-603,371	-116,015	0,079	0,011
-602,357	391,312	0,055	0,085
-601,342	-123,300	-0,066	-0,008
-600,328	131,899	-0,078	0,074
-599,313	-19,062	-0,062	0,028
-598,298	74,673	-0,087	-0,068
-597,284	-45,915	0,075	0,027
-596,269	87,187	0,068	-0,055
-595,255	-95,915	-0,035	0,007
-594,240	-200,000	-0,011	0,060
-593,225	28,957	-0,029	-0,018
-592,211	-200,000	0,003	-0,011
-591,196	21,283	0,091	-0,054
-590,182	365,652	-0,036	-0,053
-589,167	136,057	0,036	-0,035
-588,152	87,928	0,035	-0,029
-587,138	150,388	-0,050	-0,050
-586,123	-29,012	0,067	0,028
-585,109	212,966	0,016	-0,019
-584,094	53,446	0,100	-0,071
-583,079	-37,355	0,067	-0,026
-582,065	64,029	0,036	0,027
-581,050	10,184	0,043	0,024
-580,036	471,425	0,049	-0,082
-579,021	-200,000	-0,010	-0,082
-578,006	-200,000	-0,012	0,117
-576,992	-78,229	-0,018	0,004
-575,977	800,000	-0,082	-0,178
-574,963	800,000	0,031	-0,074
-573,948	-19,929	0,105	0,048
-572,934	-200,000	-0,015	0,100
-571,919	214,872	-0,079	-0,093
-570,904	-116,524	-0,059	-0,008
-569,890	800,000	-0,045	-0,112
-568,875	47,290	0,061	-0,042
-567,861	-200,000	0,004	0,041
-566,846	8,175	0,110	-0,061
-565,831	-29,278	-0,042	-0,018
-564,817	800,000	-0,041	-0,087
-563,802	-152,051	-0,155	0,008
-562,788	-152,288	0,126	0,007
-561,773	-0,294	-0,021	0,011
-560,758	-57,127	-0,014	0,005
-559,744	41,775	0,103	-0,069
-558,729	272,794	0,047	0,062
-557,715	384,767	-0,040	0,061
-556,700	150,850	0,025	-0,025
-555,685	-200,000	0,018	-0,069
-554,671	-58,143	0,062	0,020
-553,656	664,014	-0,019	0,036
-552,642	800,000	-0,042	-0,125
-551,627	-180,616	0,087	0,001
-550,612	800,000	0,004	0,012
-549,598	-135,195	-0,186	0,016
-548,583	800,000	-0,010	0,022
-547,569	800,000	-0,012	-0,034
-546,554	-200,000	0,012	-0,063
-545,539	-200,000	-0,010	0,073
-544,525	6,293	-0,066	0,036
-543,510	-82,287	-0,134	-0,032
-542,496	800,000	0,019	-0,062
-541,481	800,000	0,048	-0,139
-540,466	71,145	-0,052	-0,040
-539,452	-135,019	0,062	-0,005
-538,437	-56,416	0,148	0,048
-537,423	35,085	-0,104	-0,067
-536,408	-40,074	-0,019	-0,007
-535,393	-8,854	-0,035	-0,018
-534,379	439,236	-0,029	0,047
-533,364	-57,674	-0,085	0,027
-532,350	194,759	0,156	0,175
-531,335	42,963	0,063	0,042
-530,321	-200,000	-0,015	-0,125
-529,306	800,000	-0,035	0,083
-528,291	-200,000	0,022	-0,108
-527,277	101,435	0,112	-0,097
-526,262	-200,000	-0,004	-0,059
-525,248	800,000	0,022	0,054
-524,233	119,249	-0,044	0,040
-523,218	-69,586	0,037	0,010
-522,204	-134,792	-0,018	-0,002
-521,189	-48,347	-0,051	0,018
-520,175	-200,000	0,026	-0,113
-519,160	-74,527	-0,032	-0,009
-518,145	4,531	0,213	0,115
-517,131	-114,989	0,019	0,003
-516,116	800,000	-0,034	0,084
-515,102	278,160	-0,053	-0,069
-514,087	536,901	0,098	0,172
-513,072	147,913	-0,084	-0,083
-512,058	-200,000	0,002	-0,065
-511,043	-77,750	0,097	-0,025
-510,029	-92,874	-0,073	-0,015
-509,014	54,439	-0,075	-0,053
-507,999	800,000	-0,012	0,039
-506,985	67,404	0,082	-0,062
-505,970	797,328	-0,050	-0,103
-504,956	-96,369	-0,062	0,012
-503,941	800,000	0,066	-0,213
-502,926	-9,802	0,102	0,050
-501,912	104,472	-0,038	-0,033
-500,897	800,000	-0,029	-0,083
-499,883	145,752	0,013	0,013
-498,868	717,151	-0,037	0,073
-497,853	53,348	0,011	-0,008
-496,839	56,814	0,203	0,146
-495,824	-6,335	-0,007	-0,003
-494,810	134,728	-0,037	0,036
-493,795	-110,969	0,162	0,024
-492,781	-200,000	-0,016	0,108
-491,766	418,717	-0,081	-0,128
-490,751	74,363	-0,060	-0,047
-489,737	-140,948	0,058	-0,004
-488,722	103,680	0,115	-0,100
-487,708	220,793	0,053	0,063
-486,693	105,195	0,069	-0,060
-485,678	226,324	-0,133	-0,159
-484,664	-22,166	-0,077	-0,034
-483,649	484,508	-0,093	-0,156
-482,635	-117,139	-0,115	-0,015
-481,620	-19,660	0,207	0,094
-480,605	-95,703	-0,177	0,035
-479,591	800,000	-0,033	0,084
-478,576	-111,271	-0,047	0,007
-477,562	532,929	0,087	-0,153
-476,547	-200,000	-0,024	-0,205
-475,532	800,000	0,049	0,124
-474,518	-78,819	-0,149	-0,037
-473,503	-200,000	0,010	0,113
-472,489	800,000	0,018	-0,044
-471,474	-200,000	0,049	0,000
-470,459	-200,000	-0,015	-0,077
-469,445	44,949	0,123	-0,083
-468,430	-129,169	0,079	-0,008
-467,416	753,987	-0,041	-0,082
-466,401	-9,244	0,064	0,032
-465,386	-200,000	0,000	0,072
-464,372	125,908	-0,023	-0,021
-463,357	186,691	0,031	0,033
-462,343	126,176	-0,069	-0,064
-461,328	-200,000	-0,002	0,033
-460,313	145,288	-0,104	-0,103
-459,299	57,933	-0,142	-0,102
-458,284	622,928	-0,079	0,148
-457,270	532,944	0,058	-0,101
-456,255	-200,000	-0,016	0,109
-455,241	148,490	0,036	-0,036
-454,226	800,000	-0,039	-0,114
-453,211	7,835	-0,040	-0,022
-452,197	-25,719	0,028	0,012
-451,182	163,798	-0,061	0,064
-450,168	134,271	0,041	0,039
-449,153	-11,168	-0,093	-0,045
-448,138	253,751	0,020	0,025
-447,124	123,308	-0,081	0,075
-446,109	800,000	0,025	-0,057
-445,095	26,007	-0,090	-0,055
-444,080	244,599	0,061	0,075
-443,065	180,853	0,068	-0,073
-442,051	-200,000	0,004	0,051
-441,036	-1,480	-0,019	-0,010
-440,022	-132,170	0,093	0,009
-439,007	-200,000	-0,002	-0,093
-437,992	481,725	0,035	0,059
-436,978	139,887	0,048	0,046
-435,963	800,000	-0,020	-0,045
-434,949	414,993	0,031	-0,049
-433,934	112,255	0,092	0,082
-432,919	111,866	-0,158	-0,140
-431,905	43,194	-0,019	-0,013
-430,890	593,475	-0,010	0,018
-429,876	-116,650	0,117	-0,016
-428,861	-200,000	-0,003	-0,176
-427,846	-115,758	-0,106	-0,014
-426,832	-77,687	-0,041	-0,010
-425,817	254,652	-0,063	0,079
-424,803	-150,807	0,067	0,004
-423,788	800,000	-0,006	-0,016
-422,773	86,948	-0,071	0,057
-421,759	-200,000	0,012	-0,087
-420,744	161,404	-0,066	0,068
-419,730	176,793	-0,067	-0,071
-418,715	-200,000	-0,001	0,053
-417,701	-129,225	-0,031	0,003
-416,686	-200,000	0,000	0,063
-415,671	236,425	-0,004	-0,004
-414,657	217,054	-0,061	-0,071
-413,642	154,849	-0,042	0,043
-412,628	94,347	-0,039	-0,032
-411,613	-200,000	-0,007	0,035
-410,598	32,854	0,029	0,018
-409,584	254,659	0,151	0,190
-408,569	-40,601	-0,034	0,013
-407,555	-200,000	0,006	0,037
-406,540	180,203	0,046	0,050
-405,525	-200,000	-0,017	-0,084
-404,511	-200,000	-0,012	0,054
-403,496	-200,000	-0,002	0,050
-402,482	-49,663	0,056	-0,019
-401,467	-143,500	0,087	0,006
-400,452	-200,000	0,012	0,051
-399,438	586,442	0,081	0,146
-398,423	-157,513	-0,098	0,004
-397,409	-130,178	-0,075	0,007
-396,394	227,752	0,112	0,134
-395,379	-94,585	0,041	0,008
-394,365	800,000	-0,044	0,138
-393,350	-200,000	0,002	-0,019
-392,336	92,853	-0,027	0,023
-391,321	98,534	-0,067	0,056
-390,306	-40,984	-0,123	-0,046
-389,292	241,679	-0,070	0,086
-388,277	-1,855	0,055	-0,028
-387,263	-32,844	0,119	0,048
-386,248	-200,000	0,021	0,074
-385,233	5,021	-0,116	0,062
-384,219	75,888	-0,071	0,055
-383,204	273,986	0,102	-0,133
-382,190	402,672	-0,070	-0,108
-381,175	661,033	0,021	-0,039
-380,160	-167,726	0,132	-0,004
-379,146	-110,895	0,073	0,011
-378,131	-200,000	-0,026	-0,089
-377,117	-200,000	0,011	0,075
-376,102	213,535	-0,012	-0,013
-375,088	-40,856	-0,086	-0,033
-374,073	-76,153	0,143	0,037
-373,058	169,795	0,032	0,033
-372,044	31,244	0,079	0,050
-371,029	-107,132	0,063	0,010
-370,015	44,254	-0,064	-0,043
-369,000	-154,468	0,123	0,006
-367,985	100,585	0,051	-0,043
-366,971	-200,000	0,025	0,110
-365,956	51,498	0,095	-0,066
-364,942	800,000	-0,025	-0,062
-363,927	-137,805	0,070	0,006
-362,912	193,871	-0,025	0,028
-361,898	-155,644	-0,080	0,004
-360,883	-177,771	-0,082	-0,001
-359,869	800,000	0,048	0,101
-358,854	414,321	-0,040	-0,063
-357,839	504,000	0,054	0,092
-356,825	-200,000	0,027	0,204
-355,810	-133,507	0,045	-0,004
-354,796	800,000	0,007	-0,016
-353,781	755,792	-0,001	-0,002
-352,766	277,519	-0,037	-0,048
-351,752	-78,393	0,112	-0,028
-350,737	36,845	-0,008	-0,005
-349,723	-200,000	-0,004	-0,034
-348,708	-200,000	-0,010	0,217
-347,693	-46,510	0,109	-0,039
-346,679	800,000	-0,029	-0,072
-345,664	121,211	0,010	0,009
-344,650	205,695	-0,020	0,023
-343,635	519,458	-0,042	0,072
-342,620	-38,427	0,149	0,057
-341,606	800,000	0,063	0,167
-340,591	122,143	-0,104	0,095
-339,577	664,025	0,034	0,065
-338,562	-129,558	-0,177	0,018
-337,548	10,336	-0,119	0,066
-336,533	246,385	0,051	0,063
-335,518	800,000	0,039	0,108
-334,504	189,089	0,056	0,061
-333,489	-54,238	-0,015	-0,005
-332,475	-200,000	-0,000	0,003
-331,460	548,287	-0,051	-0,089
-330,445	800,000	-0,048	-0,112
-329,431	-11,929	-0,090	-0,043
-328,416	-200,000	-0,006	0,024
-327,402	-62,111	0,084	0,025
-326,387	245,297	0,022	-0,028
-325,372	123,922	-0,055	0,051
-324,358	-200,000	0,003	-0,064
-323,343	-42,071	-0,112	0,042
-322,329	471,403	0,068	0,112
-321,314	104,923	-0,075	0,065
-320,299	-171,808	0,088	-0,002
-319,285	-54,806	-0,059	0,019
-318,270	317,916	-0,019	0,027
-317,256	800,000	0,017	0,049
-316,241	-200,000	-0,007	-0,066
-315,226	42,765	0,061	-0,041
-314,212	-200,000	0,018	0,075
-313,197	179,139	-0,099	0,106
-312,183	11,385	0,121	-0,067
-311,168	110,602	0,032	0,028
-310,153	117,188	-0,151	-0,136
-309,139	573,411	-0,088	0,159
-308,124	28,396	0,026	0,016
-307,110	144,213	-0,059	-0,058
-306,095	-178,084	0,044	0,001
-305,080	8,102	0,033	-0,018
-304,066	-200,000	-0,033	-0,169
-303,051	-89,932	-0,136	0,029
-302,037	531,778	0,078	-0,136
-301,022	-43,740	-0,098	0,036
-300,008	502,997	0,047	0,079
-298,993	-200,000	-0,001	0,111
-297,978	678,348	-0,025	-0,047
-296,964	-47,163	0,100	0,035
-295,949	-200,000	0,011	0,103
-294,935	-200,000	-0,020	0,110
-293,920	-200,000	-0,028	0,127
-292,905	-136,468	0,085	-0,007
-291,891	38,826	0,051	0,033
-290,876	-200,000	-0,008	0,055
-289,862	-200,000	0,007	-0,039
-288,847	470,357	-0,042	-0,070
-287,832	800,000	0,026	-0,082
-286,818	204,983	-0,036	0,041
-285,803	-200,000	0,018	-0,069
-284,789	-81,206	-0,073	-0,018
-283,774	-48,469	-0,039	0,014
-282,759	-200,000	0,017	-0,064
-281,745	800,000	0,010	0,025
-280,730	263,569	-0,050	0,064
-279,716	800,000	-0,031	0,069
-278,701	-200,000	0,010	-0,047
-277,686	-170,327	0,168	-0,004
-276,672	-78,590	-0,004	-0,001
-275,657	-200,000	-0,005	0,045
-274,643	-118,863	-0,089	-0,011
-273,628	66,226	0,081	0,060
-272,613	-34,952	-0,040	-0,016
-271,599	-179,590	0,056	-0,001
-270,584	134,804	0,117	0,111
-269,570	283,783	0,059	0,077
-268,555	93,541	-0,044	0,037
-267,540	-15,727	-0,124	0,058
-266,526	800,000	-0,019	-0,043
-265,511	53,173	-0,042	0,029
-264,497	39,324	-0,040	-0,026
-263,482	-200,000	0,196	0,000
-262,467	-126,037	0,051	0,006
-261,453	167,184	0,056	0,058
-260,438	-57,035	0,102	-0,033
-259,424	78,938	0,045	-0,036
-258,409	-81,800	-0,074	0,018
-257,395	-45,863	0,053	0,019
-256,380	4,952	0,118	0,063
-255,365	-200,000	-0,009	0,085
-254,351	65,754	0,061	-0,045
-253,336	16,796	0,155	-0,089
-252,322	-81,792	0,061	-0,014
-251,307	800,000	-0,028	-0,059
-250,292	55,771	0,125	0,089
-249,278	63,412	-0,096	0,070
-248,263	800,000	-0,048	-0,106
-247,249	-200,000	-0,007	-0,083
-246,234	-51,569	0,107	0,036
-245,219	-200,000	0,000	-0,045
-244,205	-25,210	-0,103	-0,044
-243,190	800,000	-0,026	-0,062
-242,176	613,666	0,041	0,075
-241,161	593,404	0,021	0,038
-240,146	800,000	0,093	0,190
-239,132	-200,000	-0,008	-0,056
-238,117	197,762	-0,121	0,136
-237,103	-80,292	-0,080	-0,019
-236,088	210,382	0,039	0,045
-235,073	-96,535	0,032	-0,006
-234,059	297,242	-0,075	-0,100
-233,044	800,000	0,040	-0,117
-232,030	218,858	-0,095	-0,111
-231,015	-188,268	0,167	0,002
-230,000	72,511	-0,086	-0,065
-228,986	-200,000	-0,012	-0,064
-227,971	800,000	-0,027	-0,070
-226,957	273,657	-0,011	-0,014
-225,942	610,916	-0,037	0,067
-224,927	-69,589	0,042	-0,012
-223,913	335,264	-0,071	0,100
-222,898	-200,000	0,002	-0,013
-221,884	-200,000	0,013	-0,056
-220,869	-94,463	-0,031	0,006
-219,855	800,000	-0,003	-0,010
-218,840	800,000	0,049	0,109
-217,825	-8,311	-0,029	0,014
-216,811	113,819	0,059	0,052
-215,796	-47,852	-0,119	-0,042
-214,782	256,759	-0,032	0,040
-213,767	-125,340	0,106	0,012
-212,752	-200,000	0,013	-0,055
-211,738	-161,666	-0,112	-0,004
-210,723	-16,850	0,070	-0,032
-209,709	-112,503	-0,144	0,021
-208,694	-100,024	-0,052	-0,009
-207,679	-20,513	-0,091	0,041
-206,665	106,522	0,067	0,058
-205,650	-71,848	0,020	0,005
-204,636	800,000	0,038	0,083
-203,621	-200,000	-0,025	0,142
-202,606	-31,524	0,124	0,050
-201,592	468,757	-0,095	-0,156
-200,577	-200,000	-0,006	0,062
-199,563	-200,000	0,030	-0,169
-198,548	112,490	-0,042	-0,037
-197,533	-200,000	-0,001	0,054
-196,519	-37,841	-0,076	0,029
-195,504	21,638	0,076	0,045
-194,490	-200,000	-0,008	0,077
-193,475	-17,509	-0,077	-0,035
-192,460	366,713	0,047	-0,070
-191,446	-200,000	0,000	-0,099
-190,431	-33,457	0,114	-0,046
-189,417	157,932	0,023	-0,024
-188,402	-200,000	-0,022	-0,091
-187,387	-132,131	0,066	-0,006
-186,373	-99,150	-0,009	-0,002
-185,358	-64,537	-0,030	0,009
-184,344	-73,137	-0,145	0,038
-183,329	237,240	-0,027	0,033
-182,315	-200,000	0,005	0,111
-181,300	99,665	-0,039	0,033
-180,285	468,612	0,034	-0,056
-179,271	-126,909	0,008	-0,001
-178,256	800,000	-0,022	0,059
-177,242	720,426	-0,012	-0,023
-176,227	380,474	0,070	0,105
-175,212	117,598	-0,037	-0,033
-174,198	-200,000	-0,008	-0,049
-173,183	275,867	0,114	-0,147
-172,169	-146,071	0,073	0,005
-171,154	800,000	-0,037	0,092
-170,139	-137,676	-0,039	-0,003
-169,125	-159,758	0,097	0,004
-168,110	800,000	0,019	0,059
-167,096	321,636	-0,053	0,074
-166,081	-73,534	0,223	-0,059
-165,066	75,745	-0,037	-0,028
-164,052	-47,343	-0,080	0,028
-163,037	-200,000	0,044	0,190
-162,023	800,000	0,012	0,034
-161,008	589,222	-0,031	-0,056
-159,993	-200,000	-0,022	-0,076
-158,979	-36,375	-0,157	-0,061
-157,964	-97,250	-0,161	-0,030
-156,950	15,307	0,112	-0,064
-155,935	-179,926	-0,092	0,001
-154,920	-200,000	0,023	-0,081
-153,906	396,239	0,045	-0,068
-152,891	-200,000	-0,009	0,088
-151,877	-76,251	-0,108	0,027
-150,862	-200,000	-0,007	0,052
-149,847	-42,510	0,044	0,016
-148,833	9,957	-0,186	-0,102
-147,818	-89,289	0,189	0,040
-146,804	-200,000	0,004	0,029
-145,789	-200,000	-0,011	0,065
-144,775	-56,863	-0,076	0,024
-143,760	-0,177	0,060	0,031
-142,745	138,798	0,072	-0,069
-141,731	-200,000	0,008	0,064
-140,716	800,000	-0,029	-0,063
-139,702	-161,279	0,011	0,000
-138,687	-198,293	0,153	-0,001
-137,672	-36,753	-0,088	0,034
-136,658	-141,876	-0,067	0,005
-135,643	-200,000	-0,016	0,055
-134,629	-66,210	-0,046	0,013
-133,614	-144,126	0,069	-0,005
-132,599	-118,970	0,128	0,016
-131,585	75,205	0,034	0,026
-130,570	-102,167	-0,209	-0,036
-129,556	-89,577	0,121	-0,025
-128,541	740,189	-0,032	0,062
-127,526	238,938	0,079	0,095
-126,512	-11,554	0,148	0,071
-125,497	800,000	0,038	0,093
-124,483	-200,000	-0,008	0,108
-123,468	483,702	-0,059	0,097
-122,453	6,227	0,075	-0,040
-121,439	181,419	0,121	-0,129
-120,424	800,000	-0,023	-0,063
-119,410	24,886	-0,035	-0,021
-118,395	-72,666	0,082	-0,022
-117,380	62,201	-0,042	-0,030
-116,366	-10,010	0,095	0,045
-115,351	-200,000	-0,001	0,128
-114,337	-130,982	-0,036	0,003
-113,322	-31,590	0,154	-0,063
-112,307	-102,450	0,107	0,018
-111,293	772,406	0,095	0,189
-110,278	0,760	0,047	-0,025
-109,264	-87,511	-0,094	0,021
-108,249	519,725	0,076	0,130
-107,234	150,238	-0,098	-0,096
-106,220	-200,000	-0,021	-0,069
-105,205	509,566	0,089	-0,151
-104,191	537,983	0,033	-0,058
-103,176	-200,000	0,008	-0,183
-102,162	-200,000	-0,002	-0,008
-101,147	-200,000	-0,003	0,015
-100,132	121,741	-0,127	-0,115
-99,118	-200,000	-0,030	-0,115
-98,103	-200,000	-0,022	-0,085
-97,089	800,000	0,042	0,130
-96,074	86,770	0,105	0,084
-95,059	647,893	0,039	-0,073
-94,045	-52,521	0,015	0,005
-93,030	11,527	0,102	-0,057
-92,016	-44,302	-0,088	0,032
-91,001	390,958	-0,073	0,110
-89,986	800,000	0,057	0,130
-88,972	14,866	0,049	0,028
-87,957	-113,865	0,032	-0,005
-86,943	-200,000	0,006	-0,098
-85,928	800,000	-0,036	-0,101
-84,913	800,000	0,043	0,103
-83,899	-56,370	0,058	-0,019
-82,884	-200,000	0,003	0,086
-81,870	168,510	-0,050	0,051
-80,855	300,700	0,062	0,083
-79,840	800,000	0,048	0,139
-78,826	-55,709	-0,139	0,045
-77,811	-200,000	-0,014	0,046
-76,797	-121,527	0,106	0,013
-75,782	-90,508	0,046	0,010
-74,767	-24,887	0,132	-0,056
-73,753	-200,000	-0,026	-0,088
-72,738	462,880	-0,054	-0,089
-71,724	-85,610	-0,120	0,027
-70,709	-200,000	-0,051	-0,173
-69,694	-27,115	-0,012	0,005
-68,680	-32,735	0,031	0,013
-67,665	-99,836	0,161	0,029
-66,651	-1,447	-0,084	0,043
-65,636	321,918	-0,080	0,111
-64,622	552,148	0,097	-0,169
-63,607	-0,968	-0,044	-0,022
-62,592	-16,631	-0,058	0,026
-61,578	-200,000	0,004	-0,033
-60,563	703,501	0,029	0,056
-59,549	-193,683	0,022	0,000
-58,534	-153,089	-1,346	-0,067
-57,519	555,316	-0,766	-1,341
-56,505	-200,000	-0,899	-4,367
-55,490	-63,476	0,566	-0,167
-54,476	800,000	4,937	11,525
-53,461	-200,000	14,052	252,036
-52,446	-200,000	693,299	2241,142
-51,432	581,794	1622,424	2894,490
-50,417	117,715	1631,091	1454,760
-49,403	73,940	1285,345	975,803
-48,388	37,743	1022,083	656,279
-47,373	24,001	980,408	584,444
-46,359	23,218	969,929	575,615
-45,344	22,265	965,427	569,814
-44,330	22,127	964,189	568,612
-43,315	21,973	962,740	567,236
-42,300	22,001	961,808	566,754
-41,286	22,003	960,735	566,105
-40,271	21,935	959,793	565,306
-39,257	21,940	958,812	564,725
-38,242	21,931	957,800	564,075
-37,227	21,863	957,059	563,398
-36,213	21,947	956,146	563,110
-35,198	21,898	955,255	562,404
-34,184	21,950	954,546	562,131
-33,169	21,890	953,678	561,404
-32,154	22,041	952,710	561,297
-31,140	22,019	951,862	560,707
-30,125	22,086	951,027	560,406
-29,111	22,004	950,226	559,649
-28,096	21,981	949,584	559,174
-27,082	21,999	948,974	558,851
-26,067	21,993	948,171	558,338
-25,052	21,980	947,524	557,893
-24,038	22,003	946,801	557,519
-23,023	21,973	946,157	557,021
-22,009	22,007	945,525	556,736
-20,994	22,027	944,872	556,394
-19,979	22,015	944,340	556,021
-18,965	21,969	943,810	555,537
-17,950	22,000	942,955	555,110
-16,936	21,940	942,218	554,464
-15,921	21,901	941,734	554,034
-14,906	21,871	940,914	553,434
-13,892	21,835	940,300	552,937
-12,877	21,883	939,600	552,657
-11,863	21,841	939,120	552,217
-10,848	21,858	938,515	551,894
-9,833	21,995	937,940	551,967
-8,819	21,927	937,399	551,412
-7,804	21,875	936,785	550,865
-6,790	21,873	936,281	550,542
-5,775	21,928	935,609	550,296
-4,760	21,899	935,032	549,846
-3,746	21,884	934,370	549,387
-2,731	21,731	933,641	548,456
-1,717	21,684	933,001	547,908
-0,702	21,659	932,390	547,449
0,313	21,498	931,615	547,315
1,327	23,967	929,310	553,652
2,342	31,777	807,162	501,981
3,356	26,997	507,651	307,561
4,371	2,762	372,563	195,022
5,386	-0,212	355,472	182,426
6,400	-1,693	349,129	177,377
7,415	-2,631	346,224	174,766
8,429	-2,604	344,697	174,013
9,444	-2,861	343,838	173,259
10,459	-2,690	343,166	173,107
11,473	-2,720	342,604	172,773
12,488	-2,461	342,190	172,853
13,502	-2,411	341,604	172,601
14,517	-2,504	341,081	172,212
15,531	-2,639	340,482	171,736
16,546	-2,719	340,039	171,404
17,561	-2,698	339,630	171,206
18,575	-2,680	339,338	171,065
19,590	-2,724	338,895	170,776
20,604	-2,612	338,592	170,738
21,619	-2,705	338,111	170,372
22,634	-2,573	337,634	170,270
23,648	-2,904	337,384	169,745
24,663	-2,615	337,073	169,908
25,677	-2,604	336,810	169,773
26,692	-2,699	336,511	169,497
27,707	-2,736	336,338	169,352
28,721	-2,703	335,953	169,182
29,736	-2,758	335,632	168,942
30,750	-2,605	335,140	168,854
31,765	-2,696	334,929	168,629
32,780	-2,746	334,656	168,419
33,794	-2,751	334,498	168,318
34,809	-2,696	334,119	168,176
35,823	-2,739	333,847	167,975
36,838	-2,798	333,694	167,815
37,853	-2,788	333,317	167,622
38,867	-2,816	332,985	167,408
39,882	-2,870	332,764	167,221
40,896	-2,819	332,521	167,142
41,911	-2,712	332,128	167,051
42,926	-2,879	331,890	166,727
43,940	-2,857	331,668	166,625
44,955	-2,862	331,285	166,412
45,969	-2,952	331,126	166,215
46,984	-3,071	330,844	165,924
47,999	-3,208	330,560	165,610
49,013	-3,234	330,177	165,375
50,028	-3,336	329,802	165,057
51,042	-3,218	329,645	165,097
52,057	-3,321	329,344	164,815
53,071	-3,368	328,984	164,567
54,086	-3,318	328,907	164,570
55,101	-3,250	328,678	164,517
56,115	-3,110	328,517	164,580
57,130	-2,961	328,289	164,619
58,144	-2,712	328,048	164,764
59,159	-2,659	327,881	164,725
60,174	-2,676	327,625	164,562
61,188	-2,745	327,439	164,376
62,203	-2,561	327,067	164,382
63,217	-2,837	326,879	163,962
64,232	-2,837	326,795	163,906
65,247	-2,649	326,264	163,835
66,261	-2,668	326,043	163,689
67,276	-3,019	325,750	163,135
68,290	-2,981	325,482	163,029
69,305	-2,816	325,173	163,044
70,320	-2,988	324,890	162,696
71,334	-2,805	324,737	162,808
72,349	-2,652	324,562	162,877
73,363	-2,565	324,239	162,795
74,378	-2,598	324,113	162,681
75,393	-2,668	323,705	162,384
76,407	-2,714	323,559	162,245
77,422	-2,854	323,289	161,941
78,436	-2,635	323,111	162,080
79,451	-2,669	322,755	161,849
80,466	-2,763	322,444	161,575
81,480	-2,867	322,156	161,301
82,495	-2,944	321,902	161,075
83,509	-2,964	321,622	160,899
84,524	-2,944	321,434	160,812
85,539	-2,922	321,084	160,647
86,553	-3,147	320,835	160,261
87,568	-3,016	320,637	160,291
88,582	-3,054	320,452	160,143
89,597	-3,032	320,336	160,095
90,611	-2,883	319,928	160,040
91,626	-2,788	319,871	160,101
92,641	-2,816	319,515	159,878
93,655	-2,796	319,323	159,789
94,670	-2,827	319,078	159,619
95,684	-2,913	318,864	159,404
96,699	-2,914	318,653	159,283
97,714	-2,898	318,337	159,128
98,728	-3,110	318,127	158,779
99,743	-3,047	317,900	158,719
100,757	-3,068	317,572	158,519
101,772	-2,998	317,331	158,461
102,787	-2,957	317,167	158,409
103,801	-3,078	317,012	158,186
104,816	-2,855	316,908	158,361
105,830	-2,630	316,522	158,398
106,845	-2,743	316,408	158,205
107,860	-2,732	316,151	158,074
108,874	-2,894	315,918	157,769
109,889	-3,006	315,655	157,503
110,903	-2,960	315,300	157,361
111,918	-3,023	315,207	157,233
112,933	-2,793	314,837	157,281
113,947	-2,832	314,754	157,183
114,962	-2,753	314,534	157,145
115,976	-3,053	314,296	156,690
116,991	-2,979	314,208	156,712
118,006	-2,929	313,988	156,641
119,020	-2,924	313,769	156,524
120,035	-2,582	313,550	156,766
121,049	-2,661	313,344	156,565
122,064	-2,867	313,012	156,165
123,079	-2,945	312,944	156,034
124,093	-2,907	312,600	155,889
125,108	-2,969	312,280	155,649
126,122	-2,923	311,980	155,535
127,137	-3,008	311,797	155,340
128,151	-3,019	311,557	155,194
129,166	-2,909	311,420	155,229
130,181	-2,958	311,097	155,002
131,195	-3,054	311,013	154,845
132,210	-2,851	310,636	154,858
133,224	-2,762	310,536	154,889
134,239	-2,962	310,465	154,628
135,254	-2,781	310,159	154,653
136,268	-2,935	309,998	154,396
137,283	-3,168	309,685	153,981
138,297	-3,243	309,378	153,736
139,312	-3,064	309,234	153,838
140,327	-2,933	309,120	153,906
141,341	-2,663	308,938	154,086
142,356	-2,554	308,726	154,080
143,370	-2,524	308,606	154,038
144,385	-2,606	308,514	153,892
145,400	-2,548	308,111	153,739
146,414	-2,565	307,707	153,506
147,429	-2,494	307,660	153,543
148,443	-2,547	307,441	153,365
149,458	-2,399	307,275	153,423
150,473	-2,474	307,049	153,217
151,487	-2,721	306,871	152,857
152,502	-2,474	306,569	152,951
153,516	-2,542	306,413	152,788
154,531	-2,503	306,160	152,689
155,546	-2,414	306,003	152,690
156,560	-2,657	305,735	152,290
157,575	-2,685	305,493	152,127
158,589	-2,629	305,341	152,095
159,604	-2,534	305,119	152,070
160,619	-2,558	304,887	151,916
161,633	-2,576	304,719	151,801
162,648	-2,547	304,531	151,723
163,662	-2,583	304,282	151,548
164,677	-2,696	304,171	151,363
165,692	-2,717	304,105	151,295
166,706	-2,476	303,697	151,327
167,721	-2,585	303,448	151,077
168,735	-2,494	303,429	151,147
169,750	-2,365	303,214	151,160
170,764	-2,491	303,098	150,959
171,779	-2,507	302,956	150,858
172,794	-2,279	302,677	150,940
173,808	-2,455	302,371	150,593
174,823	-2,850	301,955	149,969
175,837	-3,055	301,849	149,692
176,852	-2,626	301,730	150,059
177,867	-2,554	301,541	150,025
178,881	-2,337	301,316	150,122
179,896	-2,378	301,189	150,003
180,910	-2,498	301,026	149,786
181,925	-2,471	300,826	149,701
182,940	-2,262	300,506	149,741
183,954	-2,469	300,495	149,512
184,969	-2,394	300,217	149,437
185,983	-2,376	299,886	149,277
186,998	-2,618	299,846	148,997
188,013	-2,555	299,740	148,995
189,027	-2,509	299,347	148,833
190,042	-2,383	299,065	148,807
191,056	-2,276	298,905	148,823
192,071	-2,369	298,773	148,650
193,086	-2,366	298,601	148,554
194,100	-2,276	298,486	148,575
195,115	-2,239	298,195	148,454
196,129	-2,463	297,869	148,053
197,144	-2,371	297,632	148,014
198,159	-2,502	297,557	147,832
199,173	-2,417	297,267	147,759
200,188	-2,212	297,059	147,849
201,202	-2,427	296,827	147,504
202,217	-2,937	296,551	146,842
203,232	-2,919	296,329	146,738
204,246	-2,662	296,182	146,909
205,261	-2,490	296,086	147,021
206,275	-2,260	295,918	147,155
207,290	-2,335	295,769	146,992
208,304	-2,677	295,703	146,605
209,319	-2,389	295,278	146,669
210,334	-2,533	295,210	146,478
211,348	-2,526	294,891	146,313
212,363	-2,465	294,664	146,248
213,377	-2,634	294,567	146,019
214,392	-2,508	294,287	145,992
215,407	-2,439	294,009	145,910
216,421	-2,776	293,834	145,476
217,436	-2,798	293,709	145,379
218,450	-2,811	293,535	145,267
219,465	-2,684	293,301	145,264
220,480	-2,656	293,358	145,307
221,494	-2,715	293,026	145,071
222,509	-2,508	292,736	145,119
223,523	-2,616	292,714	144,988
224,538	-2,587	292,657	144,976
225,553	-2,381	292,306	144,993
226,567	-2,494	292,081	144,757
227,582	-2,577	291,927	144,585
228,596	-2,305	291,784	144,770
229,611	-2,308	291,724	144,724
230,626	-2,366	291,454	144,520
231,640	-2,666	291,002	143,989
232,655	-2,920	290,786	143,619
233,669	-2,830	290,429	143,519
234,684	-2,927	290,269	143,331
235,699	-2,940	290,327	143,335
236,713	-2,700	289,922	143,357
237,728	-2,790	289,937	143,264
238,742	-2,653	289,702	143,269
239,757	-2,554	289,551	143,278
240,772	-2,431	289,283	143,253
241,786	-2,681	289,249	142,979
242,801	-2,635	289,102	142,938
243,815	-2,604	288,868	142,840
244,830	-2,718	288,631	142,599
245,844	-2,678	288,315	142,470
246,859	-2,637	288,214	142,447
247,874	-2,656	288,002	142,310
248,888	-2,486	287,800	142,364
249,903	-2,679	287,855	142,190
250,917	-2,493	287,679	142,272
251,932	-2,394	287,522	142,277
252,947	-1,760	287,574	142,904
253,961	-2,322	287,001	142,063
254,976	-1,330	287,577	143,296
255,990	1,589	288,346	146,497
257,005	2,550	288,769	147,631
258,020	3,764	289,074	148,951
259,034	3,736	288,802	148,771
260,049	3,652	288,469	148,505
261,063	3,456	288,244	148,186
262,078	3,658	288,176	148,334
263,093	4,364	288,230	149,030
264,107	4,417	288,110	149,006
265,122	4,329	287,785	148,740
266,136	4,479	287,893	148,927
267,151	4,456	287,568	148,723
268,166	4,404	287,394	148,569
269,180	4,141	287,165	148,186
270,195	4,345	287,015	148,291
271,209	4,348	286,741	148,139
272,224	4,020	286,624	147,750
273,239	3,901	286,287	147,449
274,253	4,176	286,110	147,609
275,268	4,724	286,154	148,144
276,282	4,186	285,918	147,493
277,297	4,378	285,791	147,599
278,312	4,933	285,595	148,014
279,326	4,533	285,395	147,515
280,341	4,431	285,134	147,269
281,355	4,231	284,935	146,963
282,370	4,220	284,632	146,783
283,384	4,253	284,399	146,681
284,399	4,144	284,352	146,541
285,414	4,058	284,239	146,387
286,428	3,952	283,875	146,086
287,443	3,963	283,783	146,036
288,457	3,739	283,500	145,665
289,472	3,956	283,200	145,703
290,487	3,901	283,043	145,558
291,501	3,769	282,915	145,355
292,516	3,516	282,548	144,914
293,530	3,470	282,449	144,806
294,545	3,819	282,462	145,129
295,560	3,956	282,327	145,176
296,574	3,755	282,101	144,858
297,589	4,068	281,905	145,040
298,603	4,423	281,859	145,337
299,618	4,424	281,624	145,204
300,633	4,216	281,374	144,866
301,647	4,024	281,368	144,670
302,662	4,141	281,037	144,596
303,676	3,912	280,819	144,257
304,691	3,592	280,682	143,874
305,706	3,416	280,296	143,499
306,720	3,529	280,043	143,462
307,735	3,495	279,944	143,366
308,749	3,807	279,832	143,587
309,764	4,039	279,646	143,696
310,779	3,687	279,363	143,210
311,793	3,528	279,258	142,995
312,808	3,560	279,022	142,891
313,822	3,605	278,914	142,865
314,837	3,725	278,630	142,818
315,852	3,516	278,498	142,543
316,866	3,490	278,345	142,428
317,881	3,654	278,101	142,443
318,895	3,437	277,898	142,125
319,910	3,425	277,814	142,058
320,925	3,337	277,603	141,856
321,939	3,655	277,485	142,077
322,954	3,599	277,432	141,986
323,968	3,732	277,233	141,994
324,983	3,756	277,104	141,938
325,997	3,760	277,023	141,887
327,012	3,840	276,885	141,878
328,027	3,957	276,474	141,763
329,041	3,654	276,367	141,416
330,056	3,668	276,345	141,405
331,070	3,730	275,976	141,261
332,085	3,786	275,679	141,147
333,100	3,803	275,602	141,111
334,114	3,574	275,381	140,775
335,129	3,805	275,070	140,815
336,143	3,818	275,134	140,847
337,158	3,927	275,017	140,874
338,173	3,793	274,714	140,584
339,187	3,906	274,600	140,617
340,202	3,837	274,334	140,405
341,216	3,948	274,255	140,454
342,231	3,848	274,053	140,246
343,246	3,849	273,920	140,166
344,260	3,706	273,777	139,950
345,275	3,929	273,605	140,053
346,289	4,239	273,651	140,347
347,304	4,126	273,392	140,099
348,319	3,805	273,130	139,660
349,333	3,879	272,874	139,584
350,348	4,216	272,774	139,826
351,362	4,080	272,648	139,626
352,377	3,869	272,510	139,352
353,392	4,080	272,298	139,422
354,406	4,313	272,160	139,550
355,421	191,326	1331,575	1408,728
356,435	154,551	1460,732	1408,837
