DTS Sentinel unit serial number:	SN410029Multiplexer serial number:	ORYXHardware model number:	OX2-SRSoftware version number:	ORYX F/W v4,00 Oryx Data Collector v3.7.2.0data status	okinstallation	B4 Nyhavnadifferential loss correction	single-endedforward channel	channel 2reverse channel	N/Adate	2023/12/16time	02:15:13forward acquisition time	300,00reverse acquisition time	0,00gamma	499,1914k internal	0,3128k external	0,3128temperature offset calibration	1,0000default loss term (dB/km)	0,3820temperature slope calibration	1,0000multiplexer offset coefficient	1,0000multiplexer slope coefficient	1,0000fibre end	0,00T internal ref (°C)	21,94T ext. ref 1 (°C)	7,16T ext. ref 2 (°C)	7,38length (m)	temperature (°C)	Stokes	anti-Stokes-744,400	18,762	-0,114	-0,068
-743,385	-163,314	-0,220	-0,008
-742,371	26,095	0,119	-0,073
-741,356	-32,259	-0,191	0,079
-740,342	-127,991	-0,096	-0,010
-739,327	-29,983	-0,173	0,073
-738,312	210,620	-0,033	-0,039
-737,298	-82,884	-0,219	-0,052
-736,283	219,591	0,053	-0,064
-735,269	-200,000	-0,024	0,150
-734,254	800,000	0,018	-0,060
-733,239	-8,393	-0,251	-0,125
-732,225	88,692	-0,036	-0,030
-731,210	-88,058	-0,107	0,024
-730,196	119,651	-0,099	-0,091
-729,181	-200,000	-0,006	0,135
-728,167	-49,151	0,145	0,051
-727,152	55,498	-0,045	-0,033
-726,137	273,511	-0,018	-0,023
-725,123	352,470	-0,152	-0,225
-724,108	286,414	0,054	-0,072
-723,094	198,714	-0,083	-0,095
-722,079	56,083	0,033	-0,024
-721,064	-200,000	0,050	-0,210
-720,050	271,724	-0,019	-0,026
-719,035	59,292	-0,090	0,066
-718,021	666,799	0,072	-0,139
-717,006	2,224	-0,070	-0,037
-715,991	-200,000	-0,019	-0,113
-714,977	-200,000	-0,006	0,107
-713,962	-87,174	-0,019	-0,004
-712,948	56,574	-0,054	-0,039
-711,933	328,826	0,009	0,012
-710,918	-200,000	-0,005	0,047
-709,904	-200,000	0,012	-0,179
-708,889	449,465	-0,137	-0,225
-707,875	144,952	-0,028	0,028
-706,860	365,899	-0,059	-0,088
-705,845	-39,199	-0,064	0,025
-704,831	445,195	0,047	0,077
-703,816	100,111	0,025	0,022
-702,802	-144,833	-0,059	0,004
-701,787	-200,000	-0,011	0,048
-700,772	800,000	-0,023	0,071
-699,758	-38,384	0,040	0,016
-698,743	195,387	0,064	0,072
-697,729	-4,582	0,015	0,008
-696,714	556,653	0,042	-0,076
-695,699	-200,000	0,002	-0,016
-694,685	424,646	-0,090	-0,145
-693,670	454,334	-0,049	-0,081
-692,656	-200,000	0,018	-0,109
-691,641	-200,000	0,048	-0,183
-690,627	-200,000	0,007	-0,058
-689,612	70,162	0,139	-0,106
-688,597	-200,000	0,003	0,038
-687,583	124,722	-0,041	0,038
-686,568	-88,494	-0,080	0,017
-685,554	-40,303	0,068	0,026
-684,539	344,834	0,048	0,070
-683,524	800,000	0,037	0,087
-682,510	-200,000	0,030	0,216
-681,495	-25,589	-0,084	0,037
-680,481	110,999	0,029	-0,026
-679,466	800,000	-0,026	0,065
-678,451	-79,798	0,121	0,030
-677,437	-200,000	0,016	0,085
-676,422	-200,000	-0,021	0,127
-675,408	-56,264	-0,084	0,028
-674,393	-12,007	0,112	0,054
-673,378	581,371	-0,058	-0,106
-672,364	-9,381	-0,113	-0,056
-671,349	-108,565	-0,068	-0,011
-670,335	27,070	0,038	-0,024
-669,320	69,530	0,089	0,068
-668,305	-200,000	0,030	0,194
-667,291	66,496	-0,070	0,053
-666,276	254,605	0,098	0,125
-665,262	-200,000	-0,005	-0,037
-664,247	-138,852	-0,065	-0,005
-663,232	165,914	0,056	0,059
-662,218	-200,000	0,255	0,001
-661,203	-15,950	0,034	0,016
-660,189	141,559	0,068	-0,067
-659,174	800,000	0,029	-0,076
-658,159	-200,000	0,018	-0,088
-657,145	-200,000	0,054	-0,000
-656,130	-200,000	-0,006	-0,019
-655,116	800,000	0,049	0,137
-654,101	-200,000	-0,025	0,112
-653,086	-200,000	-0,007	0,034
-652,072	-123,485	-0,033	-0,004
-651,057	791,615	0,030	-0,061
-650,043	800,000	-0,013	-0,035
-649,028	800,000	-0,002	-0,006
-648,014	-119,226	0,153	-0,020
-646,999	286,079	-0,065	0,087
-645,984	-200,000	-0,003	0,056
-644,970	40,837	0,122	-0,081
-643,955	-153,195	-0,025	0,001
-642,941	127,194	0,061	0,057
-641,926	-60,524	-0,066	0,021
-640,911	-200,000	-0,014	-0,097
-639,897	93,553	0,023	0,019
-638,882	-151,183	-0,038	-0,002
-637,868	209,426	-0,019	0,022
-636,853	-200,000	-0,011	-0,104
-635,838	-200,000	-0,021	-0,070
-634,824	185,082	-0,028	0,031
-633,809	800,000	0,034	-0,106
-632,795	88,646	-0,036	0,029
-631,780	-122,191	-0,024	-0,003
-630,765	-40,880	-0,104	0,040
-629,751	-148,026	-0,166	0,010
-628,736	97,095	-0,029	0,025
-627,722	345,623	-0,085	-0,125
-626,707	109,133	-0,005	-0,005
-625,692	-200,000	0,015	0,068
-624,678	-21,222	0,120	-0,054
-623,663	-178,516	0,110	-0,002
-622,649	-143,061	-0,063	-0,004
-621,634	-200,000	-0,012	0,058
-620,619	800,000	0,013	0,042
-619,605	-57,910	-0,069	0,022
-618,590	-200,000	0,025	0,089
-617,576	-14,315	0,071	-0,034
-616,561	9,168	0,070	-0,039
-615,546	-200,000	-0,021	-0,075
-614,532	289,467	0,043	-0,057
-613,517	-200,000	-0,012	-0,059
-612,503	502,804	-0,053	0,092
-611,488	-200,000	0,033	0,116
-610,474	-200,000	-0,022	-0,087
-609,459	511,969	-0,025	-0,043
-608,444	261,379	-0,112	-0,144
-607,430	715,270	-0,060	-0,118
-606,415	800,000	0,025	0,081
-605,401	-76,152	-0,065	0,017
-604,386	192,759	-0,036	-0,040
-603,371	10,141	0,132	0,074
-602,357	-200,000	-0,040	0,160
-601,342	-112,969	0,062	-0,009
-600,328	-200,000	-0,016	-0,136
-599,313	157,398	-0,025	0,025
-598,298	177,629	-0,129	0,140
-597,284	-43,953	-0,068	-0,025
-596,269	249,433	-0,085	0,107
-595,255	-200,000	0,009	0,054
-594,240	600,351	-0,028	0,052
-593,225	487,097	0,059	0,100
-592,211	800,000	0,037	0,086
-591,196	395,533	-0,015	-0,024
-590,182	24,364	0,070	0,043
-589,167	55,937	0,046	0,033
-588,152	400,737	0,067	0,105
-587,138	-200,000	-0,006	0,035
-586,123	756,348	0,045	0,090
-585,109	-200,000	0,009	-0,063
-584,094	11,428	-0,047	0,027
-583,079	89,794	0,049	0,041
-582,065	-29,505	-0,020	-0,008
-581,050	-80,777	-0,076	0,019
-580,036	99,244	0,046	-0,040
-579,021	509,651	0,020	0,035
-578,006	-200,000	0,014	-0,111
-576,992	-200,000	-0,021	-0,146
-575,977	175,541	0,088	0,094
-574,963	-200,000	0,049	0,243
-573,948	454,655	0,091	0,150
-572,934	228,288	-0,074	0,089
-571,919	-200,000	-0,005	0,121
-570,904	33,688	-0,051	0,033
-569,890	155,308	-0,045	0,046
-568,875	800,000	0,025	0,077
-567,861	122,119	-0,075	0,069
-566,846	144,736	0,138	0,137
-565,831	-116,880	-0,110	-0,015
-564,817	-200,000	-0,016	-0,115
-563,802	800,000	-0,026	-0,076
-562,788	-0,181	-0,111	0,058
-561,773	-200,000	-0,016	0,061
-560,758	-200,000	-0,005	0,039
-559,744	181,705	-0,057	0,062
-558,729	-200,000	0,018	-0,073
-557,715	375,874	-0,036	-0,054
-556,700	-95,404	-0,037	0,007
-555,685	-116,339	0,127	-0,017
-554,671	-200,000	0,005	0,145
-553,656	-171,108	-0,099	0,002
-552,642	800,000	0,031	0,087
-551,627	-150,005	-0,113	-0,006
-550,612	-200,000	0,009	0,114
-549,598	-200,000	0,012	-0,125
-548,583	800,000	0,077	0,160
-547,569	-200,000	0,020	-0,114
-546,554	180,723	-0,015	0,016
-545,539	630,366	-0,042	0,078
-544,525	532,143	-0,092	0,161
-543,510	-82,364	0,023	-0,006
-542,496	-60,241	0,110	0,034
-541,481	194,615	0,036	0,040
-540,466	26,651	0,084	0,052
-539,452	-200,000	0,002	-0,069
-538,437	800,000	-0,009	0,022
-537,423	47,861	0,011	-0,007
-536,408	-79,777	0,050	0,012
-535,393	-40,158	-0,121	-0,046
-534,379	-200,000	-0,009	-0,070
-533,364	10,248	0,096	-0,054
-532,350	18,928	0,080	-0,047
-531,335	-84,948	0,164	-0,038
-530,321	-94,385	-0,175	-0,035
-529,306	-200,000	-0,003	0,020
-528,291	276,136	-0,112	-0,147
-527,277	-0,298	-0,094	0,049
-526,262	-129,179	0,053	-0,005
-525,248	787,268	0,073	0,149
-524,233	20,028	-0,033	-0,020
-523,218	-200,000	0,018	0,158
-522,204	-26,273	-0,078	0,034
-521,189	249,595	-0,027	-0,034
-520,175	-104,752	-0,067	0,011
-519,160	175,879	-0,056	-0,060
-518,145	-80,700	0,169	0,041
-517,131	-82,491	0,117	0,028
-516,116	-200,000	0,014	0,091
-515,102	-113,311	-0,033	-0,005
-514,087	47,330	-0,067	-0,046
-513,072	-89,196	0,013	0,003
-512,058	-200,000	0,028	-0,101
-511,043	-127,072	0,075	-0,008
-510,029	77,732	-0,055	0,043
-509,014	-65,028	0,074	-0,022
-507,999	-200,000	0,000	-0,115
-506,985	800,000	-0,024	-0,074
-505,970	-200,000	-0,029	-0,098
-504,956	58,411	-0,129	-0,093
-503,941	-200,000	0,044	-0,165
-502,926	-176,450	0,165	0,003
-501,912	-200,000	0,003	0,042
-500,897	-200,000	0,026	-0,204
-499,883	295,789	-0,104	-0,141
-498,868	296,026	0,083	0,112
-497,853	-200,000	0,005	-0,030
-496,839	20,792	0,038	-0,023
-495,824	-3,800	-0,033	-0,017
-494,810	-200,000	-0,011	-0,041
-493,795	-200,000	-0,023	0,102
-492,781	624,120	-0,053	-0,098
-491,766	156,881	0,052	-0,053
-490,751	800,000	-0,047	-0,145
-489,737	-200,000	0,006	0,100
-488,722	118,375	0,018	-0,017
-487,708	800,000	-0,043	0,122
-486,693	-200,000	-0,011	0,101
-485,678	514,704	0,057	-0,098
-484,664	-51,487	-0,070	-0,024
-483,649	800,000	-0,014	0,040
-482,635	-21,870	0,063	0,028
-481,620	-135,562	-0,153	-0,013
-480,605	-127,996	0,075	0,008
-479,591	2,567	-0,009	-0,005
-478,576	-53,035	0,028	0,010
-477,562	-88,922	-0,078	-0,017
-476,547	27,106	0,032	0,020
-475,532	-200,000	0,014	-0,201
-474,518	-116,516	-0,085	0,011
-473,503	95,192	0,091	-0,076
-472,489	-200,000	-0,018	-0,114
-471,474	-118,937	-0,124	0,016
-470,459	800,000	0,027	0,060
-469,445	-114,638	0,104	-0,014
-468,430	-122,449	0,069	0,008
-467,416	107,008	0,168	-0,147
-466,401	5,514	0,073	0,040
-465,386	-104,554	0,072	0,012
-464,372	-123,274	0,040	0,005
-463,357	-31,397	-0,113	-0,047
-462,343	38,634	0,105	-0,069
-461,328	800,000	-0,041	-0,117
-460,313	-168,265	-0,006	-0,000
-459,299	800,000	0,045	0,138
-458,284	-200,000	-0,012	-0,145
-457,270	-200,000	0,029	0,173
-456,255	-122,161	-0,175	-0,021
-455,241	-200,000	0,006	0,069
-454,226	-200,000	-0,010	0,039
-453,211	800,000	-0,054	-0,124
-452,197	339,347	0,104	0,149
-451,182	122,350	0,037	-0,034
-450,168	-200,000	-0,002	-0,061
-449,153	-2,754	-0,058	0,030
-448,138	238,716	0,040	-0,049
-447,124	44,915	0,112	-0,076
-446,109	-133,527	0,013	0,001
-445,095	-200,000	-0,008	0,049
-444,080	32,138	-0,150	0,095
-443,065	800,000	0,015	-0,046
-442,051	-4,069	0,008	0,004
-441,036	800,000	-0,010	-0,021
-440,022	180,295	-0,072	0,078
-439,007	135,434	-0,088	-0,084
-437,992	115,720	0,050	0,045
-436,978	283,575	0,074	-0,098
-435,963	-200,000	-0,004	-0,044
-434,949	277,617	-0,069	-0,090
-433,934	453,794	-0,055	0,090
-432,919	-200,000	0,021	0,096
-431,905	-101,881	-0,081	0,014
-430,890	149,723	0,071	0,071
-429,876	-200,000	0,012	0,102
-428,861	91,987	-0,054	0,045
-427,846	-106,000	-0,074	0,012
-426,832	238,905	0,042	0,051
-425,817	122,516	0,094	-0,087
-424,803	137,023	-0,047	-0,045
-423,788	-97,707	0,111	-0,021
-422,773	10,495	0,076	0,042
-421,759	-9,836	-0,112	-0,055
-420,744	-200,000	-0,002	0,045
-419,730	-200,000	-0,007	0,060
-418,715	-200,000	-0,007	0,092
-417,701	-18,916	0,069	0,031
-416,686	-200,000	-0,001	-0,040
-415,671	-200,000	0,019	-0,071
-414,657	271,323	-0,010	-0,013
-413,642	-200,000	0,004	-0,167
-412,628	222,768	-0,072	-0,086
-411,613	283,063	0,060	-0,079
-410,598	-0,345	-0,036	0,019
-409,584	689,550	0,076	-0,147
-408,569	800,000	-0,047	0,131
-407,555	-200,000	0,005	-0,126
-406,540	51,966	-0,042	-0,029
-405,525	-11,167	0,086	-0,042
-404,511	-200,000	-0,025	-0,174
-403,496	-200,000	-0,021	-0,084
-402,482	-151,002	-0,099	-0,005
-401,467	-64,848	-0,033	-0,010
-400,452	596,358	-0,036	0,065
-399,438	-119,985	-0,013	-0,002
-398,423	-200,000	-0,006	-0,071
-397,409	100,034	-0,040	0,034
-396,394	-33,209	-0,149	0,060
-395,379	-200,000	0,011	-0,155
-394,365	493,235	-0,010	-0,017
-393,350	-200,000	-0,015	-0,087
-392,336	-31,161	-0,150	0,062
-391,321	-76,945	-0,078	0,020
-390,306	76,962	0,076	-0,059
-389,292	33,653	0,021	-0,014
-388,277	102,614	0,138	-0,118
-387,263	-169,783	0,102	-0,003
-386,248	36,783	0,110	0,071
-385,233	531,632	0,028	0,049
-384,219	102,338	0,077	-0,066
-383,204	11,064	-0,082	-0,046
-382,190	-115,713	-0,117	0,016
-381,175	-200,000	0,005	0,037
-380,160	-78,322	0,115	-0,029
-379,146	-104,082	0,215	0,036
-378,131	-200,000	0,001	0,031
-377,117	22,924	0,156	0,094
-376,102	-200,000	0,003	-0,207
-375,088	-200,000	0,033	-0,146
-374,073	226,463	-0,033	-0,039
-373,058	-89,856	-0,071	0,015
-372,044	-200,000	-0,028	0,142
-371,029	-92,300	0,060	0,012
-370,015	-200,000	0,034	0,152
-369,000	-11,246	-0,027	-0,013
-367,985	-36,523	-0,062	-0,024
-366,971	314,441	-0,122	-0,169
-365,956	-200,000	0,011	-0,081
-364,942	-200,000	0,011	0,127
-363,927	-104,597	0,119	0,020
-362,912	-60,518	-0,079	0,024
-361,898	800,000	-0,046	0,116
-360,883	800,000	0,044	-0,131
-359,869	54,355	-0,090	-0,063
-358,854	800,000	0,007	0,021
-357,839	699,864	-0,046	0,089
-356,825	132,650	0,103	0,097
-355,810	122,272	-0,015	-0,014
-354,796	96,502	-0,091	0,077
-353,781	-200,000	-0,025	-0,125
-352,766	51,346	0,069	-0,048
-351,752	214,742	0,076	-0,089
-350,737	-66,755	0,170	0,049
-349,723	-200,000	0,020	-0,094
-348,708	-38,774	0,016	-0,006
-347,693	800,000	0,039	0,083
-346,679	735,569	-0,085	0,167
-345,664	506,253	0,065	-0,112
-344,650	-11,503	0,084	0,040
-343,635	32,011	0,111	-0,070
-342,620	-200,000	0,022	-0,181
-341,606	153,532	-0,020	0,020
-340,591	-45,315	-0,129	0,047
-339,577	-144,517	0,136	0,009
-338,562	800,000	0,046	-0,118
-337,548	-200,000	-0,006	-0,038
-336,533	-200,000	-0,018	0,217
-335,518	-96,470	0,040	-0,008
-334,504	-54,675	0,089	0,029
-333,489	278,976	0,009	-0,012
-332,475	-41,917	-0,130	0,049
-331,460	702,085	-0,032	-0,062
-330,445	19,446	0,030	-0,017
-329,431	-200,000	0,010	0,051
-328,416	-200,000	0,003	-0,056
-327,402	-200,000	-0,014	-0,096
-326,387	159,887	-0,049	-0,050
-325,372	653,017	0,050	-0,094
-324,358	169,154	0,112	-0,117
-323,343	47,848	-0,081	-0,056
-322,329	-51,359	0,019	0,006
-321,314	-60,472	0,092	-0,028
-320,299	800,000	-0,041	-0,091
-319,285	-200,000	0,009	0,154
-318,270	19,458	0,029	-0,017
-317,256	-200,000	0,030	-0,120
-316,241	-200,000	0,004	0,071
-315,226	42,794	0,036	0,024
-314,212	537,695	0,027	-0,047
-313,197	-40,738	-0,188	0,071
-312,183	800,000	-0,040	0,083
-311,168	370,775	0,052	-0,077
-310,153	-116,253	-0,225	0,030
-309,139	0,480	0,034	-0,018
-308,124	225,910	-0,056	-0,067
-307,110	457,960	0,038	0,062
-306,095	-200,000	0,029	0,190
-305,080	800,000	0,020	-0,064
-304,066	-16,250	-0,109	-0,050
-303,051	800,000	-0,042	-0,110
-302,037	-68,162	0,053	-0,015
-301,022	-200,000	0,026	0,091
-300,008	-92,814	0,108	0,022
-298,993	39,562	-0,019	0,013
-297,978	-200,000	-0,018	-0,097
-296,964	-10,302	-0,029	-0,014
-295,949	297,368	-0,012	-0,016
-294,935	361,217	0,028	-0,041
-293,920	548,491	-0,073	-0,129
-292,905	98,597	0,032	-0,027
-291,891	800,000	-0,048	-0,147
-290,876	-122,631	0,098	-0,011
-289,862	207,303	-0,057	0,065
-288,847	651,486	-0,033	0,062
-287,832	175,099	0,066	-0,070
-286,818	-200,000	-0,015	0,104
-285,803	-200,000	0,013	0,099
-284,789	354,217	0,039	0,058
-283,774	-51,005	0,044	0,015
-282,759	43,611	0,027	-0,018
-281,745	800,000	0,026	-0,056
-280,730	176,692	0,065	-0,069
-279,716	800,000	0,026	-0,068
-278,701	-200,000	0,036	0,137
-277,686	800,000	-0,035	0,096
-276,672	71,888	0,043	-0,033
-275,657	800,000	-0,032	-0,068
-274,643	-44,184	-0,083	-0,030
-273,628	-80,561	-0,188	0,045
-272,613	11,681	-0,067	0,038
-271,599	79,581	-0,048	0,037
-270,584	800,000	-0,074	0,164
-269,570	-200,000	0,028	0,171
-268,555	-200,000	0,015	-0,082
-267,540	-200,000	0,013	-0,193
-266,526	202,868	0,051	0,057
-265,511	62,443	-0,087	0,064
-264,497	-200,000	-0,026	-0,112
-263,482	-9,582	-0,029	0,014
-262,467	-152,572	0,128	0,007
-261,453	-185,550	-0,135	0,001
-260,438	800,000	-0,055	-0,139
-259,424	181,402	-0,124	-0,133
-258,409	309,989	0,035	0,048
-257,395	-200,000	0,029	-0,098
-256,380	87,036	0,079	0,063
-255,365	343,518	0,036	0,052
-254,351	-200,000	0,041	-0,137
-253,336	7,641	0,031	-0,017
-252,322	531,197	-0,039	0,068
-251,307	27,823	0,005	-0,003
-250,292	-124,048	0,120	-0,014
-249,278	-200,000	0,006	0,121
-248,263	-200,000	0,000	0,130
-247,249	212,731	-0,045	0,052
-246,234	-200,000	-0,035	-0,117
-245,219	430,469	-0,029	0,045
-244,205	-57,766	-0,101	0,032
-243,190	-80,340	-0,097	0,023
-242,176	154,437	0,083	0,083
-241,161	-200,000	-0,003	-0,031
-240,146	125,355	0,023	0,021
-239,132	800,000	-0,007	0,016
-238,117	-80,700	-0,025	0,006
-237,103	-200,000	0,000	0,058
-236,088	100,056	-0,064	-0,054
-235,073	41,131	0,101	0,067
-234,059	179,472	0,074	-0,079
-233,044	548,144	0,029	0,050
-232,030	-104,200	0,103	0,017
-231,015	438,397	-0,017	0,028
-230,000	-23,895	-0,052	0,023
-228,986	180,157	0,063	-0,068
-227,971	800,000	0,013	-0,029
-226,957	-82,005	0,119	0,028
-225,942	-94,291	-0,114	-0,022
-224,927	-200,000	0,004	-0,092
-223,913	-200,000	0,004	0,122
-222,898	474,372	0,073	0,121
-221,884	454,313	-0,062	0,100
-220,869	41,623	0,042	-0,028
-219,855	19,732	0,102	-0,060
-218,840	75,770	0,110	-0,084
-217,825	133,321	-0,094	-0,089
-216,811	-200,000	0,005	-0,085
-215,796	26,585	-0,141	-0,086
-214,782	403,185	0,099	-0,152
-213,767	-36,690	0,032	-0,013
-212,752	337,771	0,018	0,025
-211,738	-200,000	0,043	0,176
-210,723	34,201	-0,024	0,015
-209,709	-200,000	0,012	-0,086
-208,694	-148,038	-0,148	-0,009
-207,679	163,108	0,074	0,076
-206,665	253,697	0,064	0,080
-205,650	-70,458	-0,123	-0,034
-204,636	-26,634	-0,004	-0,002
-203,621	-81,865	-0,109	0,026
-202,606	-200,000	-0,002	0,061
-201,592	64,149	-0,038	-0,028
-200,577	54,537	-0,046	0,033
-199,563	-1,436	0,041	-0,021
-198,548	331,042	0,062	0,087
-197,533	-10,990	0,033	-0,016
-196,519	608,012	-0,079	0,145
-195,504	16,167	-0,034	-0,020
-194,490	-13,577	-0,095	0,045
-193,475	-200,000	-0,019	-0,156
-192,460	-125,904	-0,057	-0,006
-191,446	800,000	0,027	0,076
-190,431	516,277	0,036	0,061
-189,417	116,436	0,076	0,067
-188,402	45,674	-0,085	-0,057
-187,387	-97,887	-0,075	0,014
-186,373	158,416	-0,061	-0,062
-185,358	-200,000	0,042	-0,144
-184,344	-66,170	0,030	0,009
-183,329	86,614	-0,102	0,082
-182,315	-200,000	-0,008	0,106
-181,300	-44,733	0,152	-0,055
-180,285	50,547	0,102	-0,070
-179,271	-92,270	-0,144	0,029
-178,256	-42,387	-0,129	-0,048
-177,242	-200,000	0,014	0,047
-176,227	-200,000	0,009	0,036
-175,212	800,000	0,023	-0,069
-174,198	236,699	-0,124	0,149
-173,183	-80,320	0,039	-0,009
-172,169	-60,874	-0,097	0,030
-171,154	476,173	-0,009	0,015
-170,139	-200,000	-0,008	-0,041
-169,125	420,709	0,073	0,115
-168,110	-134,382	-0,051	0,004
-167,096	127,192	0,128	0,118
-166,081	800,000	0,017	-0,046
-165,066	14,030	-0,169	-0,095
-164,052	-36,347	0,067	0,026
-163,037	-200,000	0,040	0,178
-162,023	-129,290	0,124	-0,012
-161,008	-28,399	-0,076	0,032
-159,993	-200,000	-0,015	0,077
-158,979	520,206	0,037	-0,063
-157,964	95,286	0,129	-0,107
-156,950	-200,000	-0,014	0,076
-155,935	800,000	0,068	0,162
-154,920	-200,000	-0,031	0,134
-153,906	721,071	0,039	-0,076
-152,891	-82,441	0,042	0,010
-151,877	39,533	-0,072	0,047
-150,862	-26,072	-0,029	0,012
-149,847	36,114	0,043	-0,027
-148,833	-76,141	-0,137	-0,035
-147,818	800,000	0,021	-0,061
-146,804	-148,599	-0,078	0,005
-145,789	-20,701	-0,009	-0,004
-144,775	-36,797	-0,061	-0,024
-143,760	192,224	0,116	0,128
-142,745	-150,024	-0,084	-0,005
-141,731	800,000	-0,017	0,054
-140,716	-60,546	0,108	0,033
-139,702	23,045	0,138	0,082
-138,687	-200,000	0,018	-0,071
-137,672	-61,651	0,164	0,050
-136,658	-200,000	-0,004	-0,043
-135,643	-200,000	0,006	0,043
-134,629	-200,000	0,089	-0,000
-133,614	-90,056	-0,040	0,008
-132,599	800,000	0,024	0,072
-131,585	800,000	0,051	0,158
-130,570	412,880	-0,075	-0,116
-129,556	177,768	0,040	-0,043
-128,541	-200,000	-0,002	-0,055
-127,526	130,589	0,051	-0,048
-126,512	646,877	-0,009	0,017
-125,497	800,000	0,031	0,089
-124,483	-200,000	0,010	0,046
-123,468	279,738	0,065	-0,084
-122,453	-200,000	0,017	0,130
-121,439	188,313	0,021	0,022
-120,424	176,091	-0,068	-0,072
-119,410	-41,886	0,028	0,010
-118,395	-200,000	-0,029	0,095
-117,380	-200,000	-0,037	0,147
-116,366	739,871	0,031	0,061
-115,351	125,252	-0,082	-0,075
-114,337	-34,868	-0,119	-0,047
-113,322	-112,342	0,147	-0,021
-112,307	800,000	0,031	-0,083
-111,293	-78,057	0,148	-0,037
-110,278	-82,143	-0,040	0,009
-109,264	-200,000	0,005	-0,071
-108,249	-200,000	-0,037	-0,162
-107,234	-155,906	0,108	0,005
-106,220	-200,000	-0,010	-0,055
-105,205	-200,000	0,011	-0,037
-104,191	612,876	-0,008	-0,015
-103,176	-200,000	-0,023	0,148
-102,162	96,275	0,075	0,062
-101,147	-48,508	-0,022	0,008
-100,132	723,704	-0,053	-0,102
-99,118	18,238	-0,083	-0,048
-98,103	353,111	0,003	-0,005
-97,089	7,416	0,066	0,036
-96,074	-121,355	0,039	0,005
-95,059	-0,295	0,115	0,059
-94,045	800,000	-0,019	-0,053
-93,030	8,441	-0,071	-0,038
-92,016	-200,000	-0,041	-0,159
-91,001	658,240	-0,036	0,068
-89,986	243,759	0,041	-0,051
-88,972	-55,944	0,051	0,016
-87,957	-200,000	0,005	0,063
-86,943	755,704	0,047	0,093
-85,928	13,059	-0,125	-0,070
-84,913	292,195	-0,042	0,056
-83,899	30,819	0,131	0,081
-82,884	32,826	-0,067	-0,042
-81,870	800,000	-0,038	0,101
-80,855	143,298	-0,159	0,153
-79,840	-200,000	0,036	-0,117
-78,826	427,135	-0,090	-0,141
-77,811	-91,885	-0,119	-0,024
-76,797	-172,057	0,036	0,001
-75,782	-200,000	-0,004	0,061
-74,767	9,965	0,069	-0,038
-73,753	489,290	0,021	-0,034
-72,738	-39,234	0,040	0,015
-71,724	-200,000	0,011	-0,053
-70,709	43,252	0,114	-0,075
-69,694	800,000	-0,063	-0,127
-68,680	472,065	-0,041	0,067
-67,665	710,703	-0,057	0,109
-66,651	335,702	-0,036	-0,051
-65,636	201,388	-0,204	-0,228
-64,622	-69,944	-0,098	0,027
-63,607	-200,000	0,011	-0,045
-62,592	285,434	0,078	-0,103
-61,578	800,000	-0,022	0,068
-60,563	249,518	-0,020	0,024
-59,549	-200,000	0,005	0,121
-58,534	-173,351	-1,383	0,030
-57,519	582,246	-0,831	-1,483
-56,505	-200,000	-0,804	-4,365
-55,490	-110,793	0,673	-0,099
-54,476	800,000	4,824	11,457
-53,461	-200,000	14,024	252,306
-52,446	-200,000	693,282	2239,970
-51,432	581,100	1622,012	2892,018
-50,417	117,767	1630,404	1454,208
-49,403	73,908	1285,025	975,307
-48,388	37,690	1021,895	655,894
-47,373	23,981	980,099	584,119
-46,359	23,251	969,632	575,471
-45,344	22,178	965,401	569,444
-44,330	22,185	963,896	568,558
-43,315	22,005	962,424	567,082
-42,300	22,066	961,347	566,622
-41,286	22,014	960,317	565,821
-40,271	22,004	959,250	565,141
-39,257	21,922	958,637	564,489
-38,242	21,951	957,753	564,041
-37,227	21,954	956,879	563,514
-36,213	21,984	955,814	562,960
-35,198	21,925	954,943	562,237
-34,184	21,994	954,420	562,128
-33,169	21,914	953,449	561,276
-32,154	22,054	952,313	561,036
-31,140	21,965	951,641	560,331
-30,125	21,914	951,052	559,799
-29,111	21,958	950,209	559,420
-28,096	21,996	949,388	559,038
-27,082	21,975	948,788	558,595
-26,067	21,946	948,127	558,090
-25,052	21,965	947,304	557,645
-24,038	22,019	946,563	557,357
-23,023	21,988	945,937	556,869
-22,009	21,962	945,449	556,478
-20,994	22,009	944,719	556,174
-19,979	22,036	944,055	555,849
-18,965	22,022	943,283	555,326
-17,950	22,018	942,776	554,994
-16,936	21,904	942,072	554,195
-15,921	21,868	941,535	553,744
-14,906	21,860	940,638	553,168
-13,892	21,843	940,035	552,738
-12,877	21,823	939,495	552,333
-11,863	21,899	938,696	552,083
-10,848	21,871	938,365	551,780
-9,833	21,965	937,706	551,665
-8,819	21,892	937,286	551,164
-7,804	21,848	936,560	550,578
-6,790	21,890	935,831	550,261
-5,775	21,893	935,439	550,016
-4,760	21,913	934,664	549,604
-3,746	21,837	934,184	549,059
-2,731	21,710	933,587	548,286
-1,717	21,627	932,807	547,547
-0,702	21,632	932,154	547,158
0,313	21,530	931,562	547,316
1,327	23,950	929,009	553,348
2,342	31,693	807,226	501,730
3,356	26,917	507,496	307,291
4,371	2,876	372,673	195,200
5,386	-0,177	355,486	182,453
6,400	-1,672	349,192	177,412
7,415	-2,560	346,409	174,922
8,429	-2,699	344,976	174,019
9,444	-2,814	343,955	173,351
10,459	-2,725	343,178	173,050
11,473	-2,738	342,606	172,731
12,488	-2,382	342,203	172,931
13,502	-2,479	341,652	172,524
14,517	-2,625	341,139	172,077
15,531	-2,676	340,398	171,629
16,546	-2,679	339,906	171,362
17,561	-2,769	339,633	171,103
18,575	-2,868	339,362	170,836
19,590	-2,786	338,936	170,703
20,604	-2,712	338,526	170,567
21,619	-2,899	338,223	170,181
22,634	-2,833	337,894	170,077
23,648	-2,881	337,600	169,858
24,663	-2,754	337,245	169,813
25,677	-2,682	336,632	169,572
26,692	-2,859	336,641	169,356
27,707	-2,765	336,220	169,238
28,721	-2,783	335,744	168,962
29,736	-2,681	335,366	168,875
30,750	-2,905	335,337	168,587
31,765	-2,969	335,183	168,420
32,780	-2,754	334,780	168,451
33,794	-2,811	334,443	168,201
34,809	-2,829	334,170	168,028
35,823	-2,803	333,991	167,952
36,838	-2,827	333,609	167,718
37,853	-2,913	333,313	167,456
38,867	-2,892	333,132	167,374
39,882	-2,851	332,871	167,274
40,896	-2,807	332,441	167,094
41,911	-2,806	332,011	166,864
42,926	-2,748	331,862	166,840
43,940	-2,842	331,572	166,572
44,955	-2,870	331,229	166,353
45,969	-3,003	331,051	166,098
46,984	-3,186	330,816	165,758
47,999	-3,275	330,603	165,535
49,013	-3,267	330,211	165,333
50,028	-3,338	329,929	165,097
51,042	-3,423	329,566	164,804
52,057	-3,524	329,395	164,590
53,071	-3,421	329,150	164,569
54,086	-3,388	328,983	164,509
55,101	-3,357	328,701	164,387
56,115	-3,053	328,479	164,604
57,130	-2,818	328,370	164,799
58,144	-2,837	328,087	164,622
59,159	-2,593	327,715	164,695
60,174	-2,601	327,495	164,560
61,188	-2,728	327,406	164,359
62,203	-2,748	327,049	164,142
63,217	-2,718	326,846	164,059
64,232	-2,806	326,777	163,912
65,247	-2,686	326,325	163,804
66,261	-2,736	326,094	163,617
67,276	-2,866	325,685	163,253
68,290	-3,031	325,443	162,933
69,305	-2,957	325,274	162,917
70,320	-2,861	324,787	162,765
71,334	-2,888	324,805	162,729
72,349	-2,687	324,636	162,853
73,363	-2,497	324,214	162,839
74,378	-2,637	323,922	162,521
75,393	-2,710	323,679	162,304
76,407	-2,624	323,555	162,323
77,422	-2,712	323,315	162,090
78,436	-2,635	322,956	161,981
79,451	-2,623	322,724	161,864
80,466	-2,915	322,515	161,422
81,480	-3,108	322,321	161,098
82,495	-3,063	321,879	160,913
83,509	-2,985	321,732	160,910
84,524	-3,006	321,456	160,735
85,539	-3,011	321,010	160,492
86,553	-3,024	320,881	160,399
87,568	-3,038	320,755	160,307
88,582	-2,860	320,325	160,272
89,597	-2,897	320,287	160,198
90,611	-2,824	320,021	160,131
91,626	-2,790	319,901	160,094
92,641	-2,958	319,650	159,770
93,655	-2,949	319,298	159,590
94,670	-2,853	319,188	159,626
95,684	-3,097	319,159	159,331
96,699	-3,060	318,818	159,187
97,714	-2,962	318,562	159,152
98,728	-3,090	318,213	158,823
99,743	-2,929	317,821	158,789
100,757	-3,206	317,723	158,424
101,772	-3,007	317,521	158,526
102,787	-2,993	317,257	158,394
103,801	-2,967	317,081	158,321
104,816	-2,814	316,869	158,367
105,830	-2,731	316,678	158,346
106,845	-2,914	316,481	158,037
107,860	-3,126	316,286	157,696
108,874	-2,817	315,890	157,817
109,889	-2,939	315,601	157,528
110,903	-2,840	315,427	157,534
111,918	-2,896	315,222	157,357
112,933	-2,934	314,902	157,142
113,947	-2,898	314,757	157,094
114,962	-2,922	314,669	157,011
115,976	-2,913	314,390	156,868
116,991	-2,792	314,081	156,829
118,006	-3,002	313,899	156,499
119,020	-2,865	313,717	156,540
120,035	-2,780	313,687	156,602
121,049	-2,868	313,617	156,460
122,064	-2,802	313,208	156,312
123,079	-2,853	312,820	156,050
124,093	-2,918	312,718	155,916
125,108	-3,041	312,324	155,575
126,122	-3,124	312,104	155,363
127,137	-3,063	311,717	155,222
128,151	-3,091	311,712	155,176
129,166	-3,080	311,430	155,033
130,181	-3,052	311,165	154,917
131,195	-3,328	311,155	154,606
132,210	-3,177	310,768	154,559
133,224	-2,801	310,691	154,905
134,239	-2,807	310,309	154,694
135,254	-2,805	310,278	154,667
136,268	-2,948	309,894	154,312
137,283	-3,063	309,564	154,012
138,297	-3,061	309,471	153,955
139,312	-3,097	309,265	153,800
140,327	-2,875	309,027	153,901
141,341	-2,689	308,957	154,048
142,356	-2,742	308,746	153,874
143,370	-2,565	308,697	154,022
144,385	-2,609	308,375	153,801
145,400	-2,407	308,154	153,888
146,414	-2,595	307,996	153,600
147,429	-2,579	307,732	153,470
148,443	-2,535	307,619	153,446
149,458	-2,632	307,442	153,243
150,473	-2,538	307,047	153,130
151,487	-2,656	306,873	152,908
152,502	-2,552	306,610	152,871
153,516	-2,532	306,514	152,830
154,531	-2,545	306,220	152,656
155,546	-2,627	306,205	152,550
156,560	-2,625	305,699	152,286
157,575	-2,765	305,497	152,027
158,589	-2,642	305,237	152,011
159,604	-2,629	305,042	151,914
160,619	-2,607	304,835	151,821
161,633	-2,589	304,622	151,720
162,648	-2,462	304,586	151,819
163,662	-2,540	304,367	151,616
164,677	-2,631	304,081	151,366
165,692	-2,619	304,026	151,337
166,706	-2,573	303,728	151,223
167,721	-2,653	303,522	151,025
168,735	-2,523	303,334	151,052
169,750	-2,502	303,256	151,021
170,764	-2,574	303,015	150,814
171,779	-2,328	302,793	150,942
172,794	-2,585	302,768	150,652
173,808	-2,461	302,235	150,500
174,823	-2,905	302,001	149,916
175,837	-3,073	301,930	149,695
176,852	-2,744	301,725	149,917
177,867	-2,509	301,598	150,081
178,881	-2,401	301,387	150,073
179,896	-2,442	301,297	149,973
180,910	-2,466	301,021	149,797
181,925	-2,501	300,800	149,638
182,940	-2,371	300,604	149,660
183,954	-2,290	300,466	149,660
184,969	-2,549	300,347	149,325
185,983	-2,575	299,951	149,087
186,998	-2,484	299,824	149,103
188,013	-2,598	299,610	148,868
189,027	-2,531	299,380	148,809
190,042	-2,535	299,292	148,747
191,056	-2,511	299,166	148,697
192,071	-2,392	298,886	148,664
193,086	-2,440	298,755	148,537
194,100	-2,324	298,473	148,501
195,115	-2,555	298,350	148,193
196,129	-2,425	297,946	148,110
197,144	-2,336	297,825	148,126
198,159	-2,481	297,593	147,852
199,173	-2,415	297,376	147,797
200,188	-2,384	297,247	147,752
201,202	-2,663	297,030	147,350
202,217	-2,984	296,666	146,833
203,232	-2,891	296,323	146,745
204,246	-2,692	296,335	146,936
205,261	-2,276	296,023	147,185
206,275	-2,430	295,999	147,006
207,290	-2,517	295,847	146,831
208,304	-2,378	295,508	146,788
209,319	-2,504	295,279	146,535
210,334	-2,456	295,162	146,512
211,348	-2,490	294,878	146,324
212,363	-2,448	294,600	146,215
213,377	-2,518	294,622	146,143
214,392	-2,305	294,340	146,202
215,407	-2,654	294,145	145,746
216,421	-2,572	293,767	145,626
217,436	-2,825	293,725	145,341
218,450	-2,858	293,429	145,149
219,465	-2,733	293,467	145,279
220,480	-2,629	293,112	145,193
221,494	-2,667	293,006	145,091
222,509	-2,582	292,847	145,083
223,523	-2,524	292,735	145,072
224,538	-2,433	292,485	145,025
225,553	-2,471	292,342	144,903
226,567	-2,422	292,180	144,858
227,582	-2,384	292,006	144,797
228,596	-2,486	291,898	144,630
229,611	-2,385	291,723	144,630
230,626	-2,327	291,383	144,505
231,640	-2,825	291,075	143,850
232,655	-2,875	290,692	143,600
233,669	-3,026	290,530	143,358
234,684	-2,938	290,430	143,382
235,699	-2,990	290,362	143,285
236,713	-2,853	290,058	143,256
237,728	-2,717	289,992	143,344
238,742	-2,706	289,637	143,167
239,757	-2,680	289,612	143,167
240,772	-2,657	289,464	143,104
241,786	-2,681	289,312	142,993
242,801	-2,582	288,997	142,921
243,815	-2,764	288,881	142,672
244,830	-2,590	288,599	142,690
245,844	-2,592	288,377	142,566
246,859	-2,788	288,373	142,361
247,874	-2,760	288,133	142,256
248,888	-2,700	287,885	142,179
249,903	-2,538	287,735	142,249
250,917	-2,441	287,687	142,308
251,932	-2,234	287,476	142,391
252,947	-1,938	287,658	142,756
253,961	-2,297	287,064	142,101
254,976	-1,720	287,415	142,820
255,990	1,026	288,356	145,938
257,005	2,427	288,861	147,540
258,020	3,752	289,054	148,911
259,034	3,806	288,838	148,838
260,049	3,702	288,538	148,570
261,063	3,410	288,394	148,200
262,078	3,606	288,280	148,318
263,093	4,278	288,306	148,967
264,107	4,431	288,143	149,017
265,122	4,324	288,097	148,878
266,136	4,654	287,825	149,042
267,151	4,480	287,657	148,773
268,166	4,231	287,460	148,419
269,180	4,273	287,138	148,280
270,195	4,271	287,076	148,233
271,209	4,328	286,820	148,142
272,224	4,258	286,561	147,927
273,239	4,032	286,298	147,563
274,253	4,112	286,199	147,575
275,268	4,429	286,180	147,856
276,282	4,241	285,964	147,550
277,297	4,430	285,868	147,669
278,312	4,799	285,662	147,902
279,326	4,499	285,399	147,466
280,341	4,222	285,210	147,091
281,355	4,113	284,889	146,808
282,370	4,186	284,640	146,736
283,384	3,996	284,616	146,530
284,399	4,154	284,420	146,566
285,414	4,279	284,167	146,542
286,428	4,056	284,067	146,265
287,443	3,906	283,767	145,956
288,457	3,770	283,563	145,708
289,472	3,829	283,349	145,641
290,487	3,817	283,124	145,502
291,501	3,763	282,967	145,357
292,516	3,453	282,632	144,879
293,530	3,702	282,445	145,005
294,545	3,663	282,587	145,028
295,560	4,044	282,366	145,262
296,574	3,777	282,030	144,824
297,589	3,782	282,036	144,819
298,603	4,120	282,034	145,123
299,618	4,171	281,846	145,062
300,633	4,090	281,468	144,779
301,647	4,133	281,421	144,781
302,662	4,086	281,184	144,602
303,676	3,878	280,770	144,182
304,691	3,593	280,643	143,837
305,706	3,666	280,254	143,693
306,720	3,576	280,094	143,513
307,735	3,570	279,961	143,427
308,749	3,736	279,940	143,558
309,764	3,764	279,812	143,506
310,779	3,551	279,513	143,142
311,793	3,487	279,267	142,943
312,808	3,537	279,153	142,919
313,822	3,428	278,990	142,720
314,837	3,367	278,793	142,551
315,852	3,289	278,593	142,363
316,866	3,502	278,309	142,403
317,881	3,601	278,297	142,476
318,895	3,602	277,948	142,286
319,910	3,359	277,676	141,908
320,925	3,282	277,642	141,808
321,939	3,485	277,635	141,979
322,954	3,796	277,503	142,187
323,968	3,684	277,386	142,011
324,983	3,816	277,305	142,079
325,997	3,811	276,844	141,825
327,012	3,828	276,868	141,840
328,027	4,037	276,483	141,823
329,041	3,819	276,340	141,536
330,056	3,787	276,260	141,453
331,070	3,613	275,954	141,124
332,085	3,761	275,740	141,137
333,100	3,864	275,683	141,191
334,114	3,775	275,396	140,950
335,129	3,519	275,192	140,598
336,143	3,798	275,040	140,763
337,158	4,043	275,109	141,010
338,173	3,851	274,841	140,684
339,187	3,651	274,640	140,386
340,202	3,778	274,367	140,350
341,216	3,810	274,287	140,326
342,231	3,882	274,022	140,244
343,246	3,775	274,045	140,145
344,260	3,855	273,674	140,016
345,275	3,718	273,696	139,890
346,289	4,126	273,696	140,248
347,304	4,119	273,343	140,049
348,319	3,941	273,067	139,734
349,333	3,908	272,949	139,631
350,348	3,970	272,859	139,628
351,362	4,156	272,597	139,651
352,377	4,154	272,488	139,581
353,392	3,994	272,442	139,399
354,406	4,113	272,115	139,328
355,421	191,238	1331,446	1408,126
356,435	154,478	1460,588	1408,237
