DTS Sentinel unit serial number:	SN410029Multiplexer serial number:	ORYXHardware model number:	OX2-SRSoftware version number:	ORYX F/W v4,00 Oryx Data Collector v3.7.2.0data status	okinstallation	B4 Nyhavnadifferential loss correction	single-endedforward channel	channel 2reverse channel	N/Adate	2023/12/16time	04:10:13forward acquisition time	300,00reverse acquisition time	0,00gamma	499,1914k internal	0,3128k external	0,3128temperature offset calibration	1,0000default loss term (dB/km)	0,3820temperature slope calibration	1,0000multiplexer offset coefficient	1,0000multiplexer slope coefficient	1,0000fibre end	0,00T internal ref (°C)	22,00T ext. ref 1 (°C)	7,11T ext. ref 2 (°C)	7,27length (m)	temperature (°C)	Stokes	anti-Stokes-744,400	-200,000	0,010	-0,110
-743,385	-79,486	-0,158	0,039
-742,371	-200,000	-0,002	-0,086
-741,356	162,184	-0,170	0,178
-740,342	-18,673	0,178	0,082
-739,327	-30,815	-0,289	0,121
-738,312	121,980	0,016	-0,015
-737,298	-119,046	-0,239	0,031
-736,283	-60,261	0,117	-0,037
-735,269	-34,565	-0,172	-0,070
-734,254	290,908	0,073	0,099
-733,239	-36,404	-0,419	-0,167
-732,225	-50,586	0,158	-0,055
-731,210	400,459	0,044	0,070
-730,196	-200,000	-0,025	-0,143
-729,181	-200,000	0,008	-0,084
-728,167	141,549	0,063	-0,062
-727,152	-72,440	-0,131	0,036
-726,137	-175,313	-0,054	-0,001
-725,123	184,881	-0,092	-0,102
-724,108	-103,566	-0,088	0,015
-723,094	105,636	-0,019	0,017
-722,079	-200,000	-0,137	-0,000
-721,064	-128,399	-0,073	0,008
-720,050	-200,000	0,012	-0,130
-719,035	151,411	-0,093	-0,094
-718,021	-200,000	0,025	-0,163
-717,006	190,137	0,046	-0,051
-715,991	-110,216	-0,096	-0,015
-714,977	-200,000	-0,054	-0,219
-713,962	381,179	-0,101	-0,155
-712,948	-58,150	-0,028	-0,009
-711,933	78,424	0,026	-0,021
-710,918	-200,000	-0,009	-0,092
-709,904	15,975	-0,156	-0,091
-708,889	-122,901	-0,086	0,010
-707,875	-200,000	-0,012	-0,146
-706,860	-163,784	0,046	0,002
-705,845	-75,673	-0,080	-0,021
-704,831	-200,000	-0,004	0,062
-703,816	38,503	0,065	0,043
-702,802	-5,771	-0,005	0,003
-701,787	549,056	-0,059	-0,105
-700,772	-17,591	0,172	-0,080
-699,758	800,000	0,011	-0,025
-698,743	-200,000	-0,018	-0,076
-697,729	-61,872	0,052	-0,016
-696,714	-200,000	-0,005	-0,040
-695,699	-6,294	0,109	-0,055
-694,685	-109,713	-0,140	0,022
-693,670	800,000	-0,034	-0,112
-692,656	6,662	-0,104	-0,057
-691,641	71,221	0,105	0,081
-690,627	113,342	-0,091	-0,082
-689,612	384,458	-0,076	0,117
-688,597	-11,730	0,041	0,020
-687,583	58,177	-0,143	-0,104
-686,568	-200,000	-0,010	-0,146
-685,554	242,893	0,038	-0,048
-684,539	637,718	-0,027	0,051
-683,524	-58,772	0,069	-0,022
-682,510	106,629	-0,079	0,069
-681,495	-131,322	0,180	-0,017
-680,481	-106,244	-0,038	-0,006
-679,466	-26,206	-0,071	-0,031
-678,451	247,163	-0,092	-0,115
-677,437	-200,000	-0,007	-0,216
-676,422	-200,000	0,032	0,115
-675,408	583,267	-0,057	-0,105
-674,393	-149,518	-0,115	-0,007
-673,378	-200,000	0,002	-0,125
-672,364	650,030	0,035	-0,067
-671,349	70,468	-0,103	-0,079
-670,335	-200,000	0,046	-0,180
-669,320	-200,000	-0,003	0,022
-668,305	129,896	-0,023	0,022
-667,291	-83,123	-0,059	-0,014
-666,276	400,694	-0,053	-0,082
-665,262	272,226	-0,099	-0,130
-664,247	800,000	0,032	0,068
-663,232	-200,000	-0,013	-0,082
-662,218	178,907	0,048	0,052
-661,203	-200,000	0,001	-0,040
-660,189	800,000	0,030	-0,070
-659,174	800,000	-0,042	-0,135
-658,159	-153,884	0,034	0,002
-657,145	-62,508	-0,111	-0,034
-656,130	-200,000	-0,016	-0,090
-655,116	500,530	0,027	0,047
-654,101	-72,682	0,107	0,029
-653,086	-200,000	0,006	0,104
-652,072	-127,772	0,084	0,009
-651,057	74,691	-0,111	-0,087
-650,043	-200,000	0,046	-0,163
-649,028	-167,956	0,114	0,003
-648,014	800,000	0,041	-0,113
-646,999	800,000	-0,005	0,013
-645,984	-46,585	0,081	0,029
-644,970	-200,000	-0,002	-0,102
-643,955	118,398	-0,091	0,083
-642,941	-107,287	-0,143	-0,023
-641,926	-200,000	-0,023	0,093
-640,911	-200,000	-0,006	-0,121
-639,897	-200,000	-0,016	0,117
-638,882	38,306	0,005	-0,003
-637,868	311,943	-0,059	0,083
-636,853	201,036	-0,017	-0,019
-635,838	-100,096	0,066	0,012
-634,824	800,000	0,041	-0,088
-633,809	-4,837	-0,087	-0,044
-632,795	-200,000	0,036	0,171
-631,780	92,154	0,026	0,022
-630,765	273,215	0,069	-0,091
-629,751	192,394	-0,164	0,184
-628,736	-4,766	-0,085	0,043
-627,722	800,000	0,023	0,053
-626,707	64,191	0,018	-0,014
-625,692	-200,000	0,030	0,142
-624,678	-36,635	-0,087	0,034
-623,663	221,473	0,153	-0,183
-622,649	641,819	0,050	-0,096
-621,634	-34,924	-0,168	-0,068
-620,619	250,527	0,143	-0,180
-619,605	41,973	-0,087	-0,058
-618,590	29,325	-0,061	-0,039
-617,576	175,324	-0,090	-0,097
-616,561	750,480	-0,011	-0,022
-615,546	-200,000	-0,015	-0,064
-614,532	-157,502	-0,171	0,007
-613,517	-47,634	-0,103	0,037
-612,503	-118,279	-0,065	0,008
-611,488	-89,514	-0,032	0,007
-610,474	800,000	0,038	0,090
-609,459	-200,000	-0,001	-0,120
-608,444	-200,000	0,008	-0,051
-607,430	88,816	-0,137	-0,113
-606,415	1,030	-0,073	-0,038
-605,401	-200,000	-0,017	0,063
-604,386	-200,000	0,011	0,084
-603,371	149,845	-0,084	0,084
-602,357	800,000	0,040	-0,122
-601,342	-200,000	-0,010	0,111
-600,328	-200,000	0,014	-0,067
-599,313	-200,000	-0,025	0,112
-598,298	358,993	-0,006	-0,009
-597,284	18,550	0,037	0,022
-596,269	-139,417	0,098	-0,008
-595,255	-31,219	0,066	-0,028
-594,240	-25,976	0,084	0,036
-593,225	334,730	0,014	-0,020
-592,211	223,474	-0,086	-0,103
-591,196	-129,188	0,094	-0,010
-590,182	14,566	-0,101	0,058
-589,167	273,869	0,076	-0,100
-588,152	-157,917	0,058	-0,002
-587,138	-200,000	-0,019	0,083
-586,123	-195,163	-0,101	0,001
-585,109	5,379	-0,090	-0,049
-584,094	405,831	-0,031	-0,048
-583,079	159,138	0,066	0,068
-582,065	-200,000	0,000	0,190
-581,050	338,266	-0,035	0,051
-580,036	-3,749	-0,053	0,027
-579,021	-131,714	-0,180	-0,017
-578,006	-200,000	0,021	-0,112
-576,992	104,420	-0,091	-0,080
-575,977	42,060	0,135	0,090
-574,963	52,136	-0,030	-0,021
-573,948	-200,000	0,012	-0,067
-572,934	-200,000	0,003	0,068
-571,919	38,646	-0,036	-0,024
-570,904	-137,309	-0,117	0,010
-569,890	-200,000	0,038	-0,154
-568,875	72,358	0,109	0,084
-567,861	754,129	0,046	0,092
-566,846	800,000	0,045	0,094
-565,831	162,213	0,081	-0,084
-564,817	51,257	0,084	-0,059
-563,802	-98,545	-0,057	-0,011
-562,788	-75,703	-0,057	-0,015
-561,773	-200,000	-0,004	-0,051
-560,758	101,307	0,076	0,065
-559,744	283,371	0,119	0,159
-558,729	64,782	-0,086	-0,064
-557,715	130,912	0,087	0,082
-556,700	46,959	-0,037	-0,026
-555,685	-38,516	-0,107	-0,042
-554,671	-200,000	-0,002	-0,045
-553,656	800,000	-0,069	0,168
-552,642	-200,000	0,024	-0,117
-551,627	47,850	-0,149	0,102
-550,612	-139,415	-0,026	-0,002
-549,598	123,560	-0,060	-0,055
-548,583	-200,000	-0,007	-0,040
-547,569	-122,927	0,110	0,013
-546,554	-200,000	0,007	0,101
-545,539	-200,000	0,018	0,075
-544,525	39,678	0,039	0,026
-543,510	-148,328	0,112	0,007
-542,496	91,785	0,037	-0,031
-541,481	74,391	-0,021	0,016
-540,466	800,000	0,021	0,065
-539,452	-200,000	0,014	-0,074
-538,437	161,187	0,114	0,118
-537,423	-200,000	-0,019	0,077
-536,408	-200,000	-0,039	-0,212
-535,393	-63,476	-0,150	-0,045
-534,379	666,130	0,078	-0,149
-533,364	-200,000	-0,003	-0,050
-532,350	-200,000	0,001	-0,039
-531,335	-200,000	-0,002	0,088
-530,321	-200,000	-0,003	-0,096
-529,306	-200,000	-0,007	-0,096
-528,291	-200,000	-0,001	0,005
-527,277	-200,000	-0,003	0,076
-526,262	800,000	0,042	0,107
-525,248	231,799	0,037	-0,045
-524,233	-200,000	-0,005	0,090
-523,218	-200,000	-0,007	0,072
-522,204	-200,000	-0,005	-0,066
-521,189	49,489	0,058	-0,040
-520,175	502,972	0,050	-0,085
-519,160	524,672	0,020	0,036
-518,145	-200,000	0,002	0,067
-517,131	303,142	-0,022	-0,031
-516,116	-76,980	0,168	0,043
-515,102	-147,521	0,057	0,003
-514,087	528,821	0,057	0,099
-513,072	228,916	-0,023	-0,028
-512,058	44,183	0,025	-0,017
-511,043	-200,000	-0,042	-0,150
-510,029	190,537	0,042	-0,047
-509,014	800,000	0,030	0,091
-507,999	372,614	-0,021	-0,031
-506,985	701,773	0,042	-0,082
-505,970	739,321	-0,038	0,076
-504,956	2,109	0,103	0,054
-503,941	641,698	-0,042	0,079
-502,926	531,713	-0,045	0,079
-501,912	-200,000	-0,004	0,032
-500,897	15,843	-0,082	0,048
-499,883	295,042	0,069	0,093
-498,868	-63,710	-0,095	-0,029
-497,853	-76,197	-0,119	0,031
-496,839	20,282	-0,063	-0,037
-495,824	-200,000	0,020	0,112
-494,810	-151,889	-0,092	0,005
-493,795	-16,333	0,088	0,041
-492,781	-24,947	-0,149	0,065
-491,766	-200,000	0,035	-0,158
-490,751	-116,974	0,065	0,009
-489,737	-101,365	0,026	0,005
-488,722	264,624	0,117	0,150
-487,708	-47,032	0,160	0,057
-486,693	20,226	0,108	0,064
-485,678	41,028	0,113	0,075
-484,664	288,326	-0,053	-0,071
-483,649	92,612	-0,034	0,028
-482,635	-200,000	-0,000	0,130
-481,620	-69,614	-0,089	0,025
-480,605	10,987	-0,035	-0,019
-479,591	121,624	-0,018	0,017
-478,576	-36,582	-0,085	0,034
-477,562	-59,251	-0,206	0,065
-476,547	-200,000	-0,024	-0,139
-475,532	163,500	-0,113	-0,117
-474,518	800,000	0,042	-0,128
-473,503	-196,045	0,097	-0,000
-472,489	-161,940	0,053	0,002
-471,474	306,615	0,112	0,154
-470,459	-60,425	0,083	0,026
-469,445	-138,231	-0,128	-0,010
-468,430	-200,000	-0,004	0,043
-467,416	-198,700	0,122	0,000
-466,401	67,844	-0,063	0,047
-465,386	-200,000	-0,007	-0,064
-464,372	175,746	-0,120	0,128
-463,357	145,075	-0,072	0,071
-462,343	-175,941	-0,130	0,002
-461,328	92,098	0,054	-0,045
-460,313	401,748	0,058	0,090
-459,299	800,000	0,034	-0,094
-458,284	609,486	-0,023	0,043
-457,270	157,049	0,022	0,023
-456,255	147,848	0,037	-0,037
-455,241	-200,000	-0,015	0,095
-454,226	-158,141	-0,120	0,005
-453,211	125,430	0,067	-0,062
-452,197	117,591	-0,011	0,010
-451,182	-10,965	-0,079	0,038
-450,168	419,243	0,074	0,116
-449,153	176,639	0,091	-0,098
-448,138	384,996	-0,048	-0,074
-447,124	157,966	-0,091	-0,093
-446,109	1,657	0,078	-0,041
-445,095	800,000	0,049	0,115
-444,080	-200,000	-0,005	0,085
-443,065	-35,363	0,106	0,042
-442,051	-200,000	0,001	0,084
-441,036	-32,091	0,032	0,013
-440,022	3,733	-0,056	-0,030
-439,007	-71,289	0,075	-0,021
-437,992	-18,702	0,070	-0,032
-436,978	-200,000	-0,012	0,057
-435,963	-61,442	0,110	-0,034
-434,949	70,230	-0,102	0,078
-433,934	83,687	0,060	-0,048
-432,919	538,597	0,005	0,009
-431,905	-105,204	0,064	-0,011
-430,890	0,519	0,094	-0,049
-429,876	436,397	0,038	0,060
-428,861	63,053	0,061	-0,045
-427,846	-6,392	0,072	-0,036
-426,832	-8,141	-0,077	0,038
-425,817	-200,000	0,002	-0,117
-424,803	139,028	0,043	-0,041
-423,788	800,000	-0,026	-0,074
-422,773	-200,000	0,032	-0,122
-421,759	-149,291	0,030	-0,002
-420,744	-37,498	-0,186	0,073
-419,730	504,009	-0,040	-0,069
-418,715	-200,000	0,026	-0,137
-417,701	-126,749	0,065	0,007
-416,686	-28,827	-0,024	0,010
-415,671	90,934	0,017	-0,014
-414,657	-33,416	0,110	-0,044
-413,642	362,575	0,082	-0,121
-412,628	-200,000	0,016	0,118
-411,613	141,692	0,076	0,074
-410,598	-52,533	0,041	-0,014
-409,584	58,061	-0,093	0,067
-408,569	-16,329	0,101	0,047
-407,555	183,278	-0,020	-0,022
-406,540	-200,000	-0,012	0,102
-405,525	-135,638	0,045	0,004
-404,511	5,977	-0,078	-0,042
-403,496	424,233	-0,043	0,069
-402,482	800,000	0,042	0,086
-401,467	-45,679	0,026	-0,009
-400,452	-90,874	0,083	-0,017
-399,438	-4,805	-0,098	-0,049
-398,423	-200,000	0,031	-0,112
-397,409	-200,000	-0,050	-0,258
-396,394	-190,482	0,035	-0,000
-395,379	-200,000	0,023	-0,078
-394,365	-161,579	-0,060	-0,002
-393,350	-200,000	-0,009	0,047
-392,336	32,364	0,138	0,087
-391,321	-104,258	-0,054	-0,009
-390,306	-200,000	-0,014	-0,069
-389,292	-6,926	0,063	-0,031
-388,277	-33,793	0,125	-0,050
-387,263	-61,754	-0,136	-0,041
-386,248	465,221	-0,058	0,096
-385,233	-151,387	0,096	-0,005
-384,219	-200,000	0,009	-0,079
-383,204	163,300	0,078	-0,081
-382,190	0,603	0,064	0,033
-381,175	-200,000	-0,006	-0,057
-380,160	800,000	0,045	0,142
-379,146	7,052	0,029	0,016
-378,131	185,365	-0,035	0,038
-377,117	-200,000	-0,012	-0,050
-376,102	431,200	0,036	0,058
-375,088	-200,000	0,015	-0,105
-374,073	-80,504	-0,060	-0,015
-373,058	97,566	0,109	-0,092
-372,044	106,117	0,012	0,011
-371,029	65,002	0,022	0,016
-370,015	9,548	0,023	0,013
-369,000	178,788	-0,041	0,044
-367,985	-83,536	-0,088	0,021
-366,971	-0,266	0,042	-0,022
-365,956	-91,976	0,135	0,028
-364,942	-160,223	0,139	0,005
-363,927	-57,648	0,080	-0,026
-362,912	-200,000	0,001	0,013
-361,898	94,093	-0,121	-0,101
-360,883	800,000	0,052	-0,141
-359,869	-171,421	0,124	-0,003
-358,854	268,263	0,069	0,088
-357,839	-200,000	-0,011	-0,059
-356,825	-51,892	0,116	-0,039
-355,810	-200,000	0,008	0,051
-354,796	224,631	0,009	0,011
-353,781	-6,859	-0,050	-0,025
-352,766	-200,000	0,023	-0,090
-351,752	800,000	-0,057	0,125
-350,737	-200,000	0,016	0,116
-349,723	-200,000	-0,013	0,086
-348,708	65,676	0,075	-0,056
-347,693	-13,856	-0,152	-0,072
-346,679	328,541	-0,048	0,068
-345,664	-138,276	-0,026	-0,002
-344,650	-43,212	0,020	0,007
-343,635	256,260	-0,042	0,052
-342,620	243,530	0,026	0,031
-341,606	672,468	-0,027	0,052
-340,591	-200,000	0,018	0,104
-339,577	-200,000	-0,036	-0,236
-338,562	800,000	0,045	-0,140
-337,548	80,336	0,154	-0,121
-336,533	125,226	0,084	-0,078
-335,518	-200,000	-0,012	0,065
-334,504	-107,584	-0,076	0,012
-333,489	458,530	-0,037	-0,060
-332,475	1,356	-0,088	-0,046
-331,460	648,563	-0,097	-0,183
-330,445	195,686	0,038	-0,042
-329,431	800,000	0,038	0,115
-328,416	800,000	0,030	0,063
-327,402	-76,900	-0,058	0,015
-326,387	-42,560	0,061	-0,022
-325,372	630,209	-0,061	0,114
-324,358	-68,967	-0,092	-0,026
-323,343	-200,000	0,015	0,082
-322,329	-200,000	0,011	0,048
-321,314	180,428	-0,056	0,060
-320,299	800,000	0,007	0,020
-319,285	293,034	0,063	-0,084
-318,270	-200,000	-0,031	0,107
-317,256	-72,616	-0,104	0,028
-316,241	-18,309	0,068	-0,031
-315,226	-39,796	0,154	0,059
-314,212	567,271	-0,102	0,181
-313,197	-200,000	0,036	0,131
-312,183	-50,115	-0,031	0,011
-311,168	274,264	-0,006	0,008
-310,153	544,936	0,041	-0,071
-309,139	99,589	-0,059	0,050
-308,124	288,104	-0,021	-0,028
-307,110	220,384	0,084	-0,099
-306,095	-200,000	-0,013	0,067
-305,080	-162,143	0,053	-0,002
-304,066	260,805	0,036	-0,046
-303,051	-6,243	0,085	-0,042
-302,037	17,758	-0,079	0,046
-301,022	-70,066	0,113	0,031
-300,008	137,560	0,014	0,013
-298,993	120,437	-0,127	-0,115
-297,978	-200,000	0,009	0,034
-296,964	-200,000	-0,027	-0,129
-295,949	1,829	0,028	-0,015
-294,935	173,598	-0,064	-0,067
-293,920	-200,000	-0,002	0,176
-292,905	47,300	-0,011	-0,007
-291,891	800,000	0,078	0,161
-290,876	542,406	-0,047	0,082
-289,862	-200,000	0,023	0,114
-288,847	-109,955	0,076	0,011
-287,832	441,873	0,033	-0,054
-286,818	41,829	-0,037	0,024
-285,803	666,857	0,015	-0,028
-284,789	54,088	0,069	-0,049
-283,774	41,046	-0,039	-0,026
-282,759	-148,231	0,161	-0,010
-281,745	-75,753	-0,193	0,050
-280,730	800,000	0,006	0,016
-279,716	-8,309	0,088	0,043
-278,701	124,321	0,155	0,142
-277,686	161,770	0,093	0,095
-276,672	17,137	-0,048	0,027
-275,657	284,912	-0,044	-0,058
-274,643	-144,938	-0,104	-0,007
-273,628	-115,509	-0,079	0,011
-272,613	344,164	-0,057	-0,082
-271,599	-163,054	-0,065	-0,002
-270,584	-90,394	-0,106	-0,022
-269,570	748,111	-0,036	-0,071
-268,555	-1,937	0,101	-0,052
-267,540	800,000	-0,058	-0,148
-266,526	-43,048	-0,008	0,003
-265,511	223,864	0,074	0,088
-264,497	30,883	-0,031	-0,019
-263,482	-200,000	0,005	0,076
-262,467	37,192	0,124	0,080
-261,453	246,599	0,012	0,015
-260,438	-147,887	-0,190	-0,011
-259,424	54,893	-0,094	0,066
-258,409	-200,000	0,016	-0,064
-257,395	-58,067	-0,070	-0,022
-256,380	-135,485	-0,123	-0,011
-255,365	37,801	0,039	-0,025
-254,351	-72,779	0,055	-0,015
-253,336	308,432	-0,043	0,059
-252,322	48,282	-0,067	0,046
-251,307	22,333	0,012	-0,007
-250,292	86,833	0,066	-0,053
-249,278	800,000	0,014	0,043
-248,263	368,260	0,024	-0,036
-247,249	-66,291	-0,144	-0,042
-246,234	-200,000	-0,002	0,168
-245,219	-41,109	-0,154	0,058
-244,205	800,000	-0,053	-0,142
-243,190	-3,414	-0,064	0,033
-242,176	83,061	0,008	0,006
-241,161	-101,983	-0,134	0,023
-240,146	-200,000	-0,028	0,120
-239,132	138,930	0,044	-0,042
-238,117	-149,246	-0,108	-0,006
-237,103	-200,000	-0,002	-0,028
-236,088	-120,248	0,123	-0,015
-235,073	-53,620	-0,093	-0,031
-234,059	76,704	-0,136	0,105
-233,044	800,000	0,034	0,095
-232,030	-124,832	-0,121	-0,013
-231,015	223,659	0,054	-0,064
-230,000	800,000	0,030	-0,078
-228,986	-46,769	-0,087	-0,031
-227,971	22,115	0,153	-0,091
-226,957	800,000	-0,056	0,142
-225,942	-200,000	-0,016	-0,079
-224,927	-39,792	-0,106	-0,040
-223,913	-200,000	-0,039	-0,157
-222,898	-84,977	-0,183	-0,041
-221,884	800,000	-0,024	-0,076
-220,869	344,062	0,111	0,160
-219,855	-137,950	-0,127	-0,010
-218,840	138,151	0,078	0,074
-217,825	800,000	-0,036	0,112
-216,811	-3,345	0,120	-0,061
-215,796	-2,743	-0,085	-0,043
-214,782	-200,000	0,006	-0,028
-213,767	-200,000	-0,006	0,095
-212,752	-200,000	0,013	-0,087
-211,738	353,570	0,051	-0,074
-210,723	254,200	0,022	0,028
-209,709	-200,000	-0,038	-0,126
-208,694	800,000	-0,025	-0,067
-207,679	800,000	-0,038	-0,086
-206,665	800,000	0,037	0,108
-205,650	384,522	0,068	0,102
-204,636	-200,000	0,006	0,077
-203,621	-108,456	0,120	0,019
-202,606	-200,000	-0,007	-0,038
-201,592	-14,662	-0,116	-0,054
-200,577	-200,000	-0,006	-0,102
-199,563	115,829	-0,148	-0,132
-198,548	-110,434	-0,059	-0,009
-197,533	22,125	0,081	0,048
-196,519	800,000	-0,061	0,123
-195,504	-13,840	-0,051	-0,024
-194,490	-142,766	0,238	0,017
-193,475	14,067	-0,049	-0,028
-192,460	-125,987	0,147	0,016
-191,446	104,713	-0,107	-0,092
-190,431	178,094	0,025	0,026
-189,417	-200,000	-0,050	0,218
-188,402	-118,137	0,063	0,008
-187,387	-53,485	-0,104	-0,035
-186,373	250,882	0,037	-0,046
-185,358	328,049	-0,049	0,068
-184,344	800,000	0,041	-0,125
-183,329	-200,000	0,008	-0,049
-182,315	124,519	-0,097	0,089
-181,300	395,505	0,095	0,145
-180,285	505,996	-0,081	0,138
-179,271	311,542	0,042	0,058
-178,256	-200,000	-0,029	-0,116
-177,242	-197,726	0,063	-0,000
-176,227	191,642	-0,062	0,068
-175,212	-112,743	0,135	0,019
-174,198	-0,215	-0,038	-0,020
-173,183	100,938	0,040	-0,034
-172,169	110,158	-0,068	-0,059
-171,154	800,000	-0,021	-0,053
-170,139	800,000	0,031	0,068
-169,125	-200,000	-0,006	0,028
-168,110	-200,000	0,016	0,073
-167,096	-200,000	0,013	-0,042
-166,081	-10,708	-0,054	-0,026
-165,066	308,380	0,066	-0,090
-164,052	800,000	0,020	-0,046
-163,037	800,000	-0,059	-0,122
-162,023	3,063	0,088	-0,047
-161,008	262,747	0,066	-0,083
-159,993	780,808	0,047	-0,095
-158,979	-103,765	0,142	0,024
-157,964	-200,000	-0,014	-0,053
-156,950	-200,000	-0,014	-0,098
-155,935	335,656	0,027	0,039
-154,920	97,943	0,048	0,040
-153,906	-200,000	0,001	-0,020
-152,891	800,000	-0,061	-0,144
-151,877	800,000	0,014	0,035
-150,862	-200,000	0,007	-0,215
-149,847	-40,599	0,009	0,003
-148,833	90,947	0,072	-0,059
-147,818	726,078	-0,021	0,041
-146,804	-200,000	-0,012	-0,063
-145,789	394,627	-0,062	-0,095
-144,775	244,983	-0,151	0,185
-143,760	800,000	-0,056	0,132
-142,745	752,176	-0,024	-0,047
-141,731	-85,544	0,072	-0,016
-140,716	53,801	-0,080	-0,056
-139,702	5,636	0,180	-0,096
-138,687	103,672	-0,139	-0,119
-137,672	-52,888	-0,046	-0,015
-136,658	215,229	-0,054	-0,062
-135,643	-12,959	-0,078	-0,037
-134,629	119,878	-0,066	0,060
-133,614	390,657	0,080	-0,121
-132,599	327,843	0,028	-0,039
-131,585	-200,000	-0,005	-0,021
-130,570	482,299	0,058	-0,097
-129,556	800,000	0,026	-0,068
-128,541	-194,797	-0,049	0,000
-127,526	-200,000	0,018	0,132
-126,512	-200,000	-0,035	-0,156
-125,497	290,948	0,067	0,089
-124,483	-200,000	-0,018	0,208
-123,468	-137,841	0,074	-0,006
-122,453	-91,289	-0,125	-0,026
-121,439	-200,000	-0,042	-0,137
-120,424	-200,000	0,033	-0,127
-119,410	-9,471	0,049	-0,024
-118,395	-200,000	0,045	-0,151
-117,380	165,194	0,071	0,073
-116,366	-200,000	0,009	0,032
-115,351	41,699	0,099	-0,065
-114,337	-200,000	-0,013	-0,133
-113,322	-200,000	0,040	0,145
-112,307	-7,212	-0,128	-0,063
-111,293	-200,000	0,012	0,045
-110,278	312,180	0,029	0,040
-109,264	800,000	-0,050	-0,135
-108,249	800,000	-0,083	-0,192
-107,234	800,000	-0,023	-0,059
-106,220	241,188	-0,027	-0,033
-105,205	288,636	0,072	0,095
-104,191	-200,000	-0,032	0,121
-103,176	527,661	-0,018	0,032
-102,162	-200,000	-0,004	0,046
-101,147	-14,736	0,086	-0,040
-100,132	-82,773	-0,104	0,024
-99,118	-81,055	-0,143	-0,034
-98,103	-200,000	-0,055	-0,202
-97,089	266,384	-0,064	-0,081
-96,074	-200,000	0,018	0,130
-95,059	-64,840	0,110	-0,032
-94,045	-46,733	-0,136	0,048
-93,030	-200,000	-0,022	-0,082
-92,016	-22,452	-0,177	-0,077
-91,001	497,083	-0,039	0,065
-89,986	423,669	0,063	0,099
-88,972	800,000	-0,046	0,096
-87,957	800,000	0,020	0,064
-86,943	12,824	0,112	-0,063
-85,928	296,256	0,082	-0,109
-84,913	79,797	0,079	0,061
-83,899	-30,770	-0,072	0,029
-82,884	110,099	0,080	-0,069
-81,870	800,000	0,024	-0,071
-80,855	-200,000	0,005	0,161
-79,840	-200,000	-0,047	0,153
-78,826	96,647	-0,079	-0,065
-77,811	192,077	-0,094	0,102
-76,797	-125,068	0,041	0,005
-75,782	800,000	0,009	-0,021
-74,767	436,572	0,040	0,064
-73,753	23,597	0,049	0,029
-72,738	305,098	-0,075	0,101
-71,724	519,460	-0,019	0,032
-70,709	82,234	-0,025	0,020
-69,694	-22,519	0,055	0,024
-68,680	-69,210	0,039	-0,011
-67,665	-42,549	0,026	-0,010
-66,651	62,140	-0,049	0,035
-65,636	33,499	0,030	0,019
-64,622	-200,000	0,015	-0,080
-63,607	800,000	-0,036	-0,104
-62,592	137,686	0,048	0,045
-61,578	-200,000	-0,012	0,063
-60,563	800,000	-0,014	0,041
-59,549	-171,754	0,114	0,003
-58,534	-127,706	-1,477	-0,153
-57,519	530,295	-0,833	-1,432
-56,505	-200,000	-0,917	-4,330
-55,490	-54,794	0,650	-0,211
-54,476	800,000	4,712	11,474
-53,461	-200,000	14,065	253,366
-52,446	-200,000	693,929	2243,968
-51,432	582,536	1622,875	2896,274
-50,417	117,840	1631,343	1455,333
-49,403	73,975	1285,690	976,042
-48,388	37,820	1022,421	656,646
-47,373	24,024	980,698	584,595
-46,359	23,209	970,403	575,768
-45,344	22,200	965,997	569,842
-44,330	22,218	964,378	568,923
-43,315	22,047	962,922	567,486
-42,300	22,065	961,934	566,941
-41,286	22,028	960,949	566,218
-40,271	22,031	959,932	565,605
-39,257	21,994	959,349	565,119
-38,242	22,051	958,025	564,502
-37,227	22,008	957,298	563,912
-36,213	22,034	956,204	563,329
-35,198	21,923	955,443	562,499
-34,184	21,984	955,011	562,419
-33,169	21,977	953,928	561,737
-32,154	22,075	953,129	561,559
-31,140	22,051	952,233	560,932
-30,125	22,061	951,454	560,482
-29,111	21,996	950,697	559,807
-28,096	22,061	949,865	559,503
-27,082	22,118	949,040	559,178
-26,067	22,091	948,261	558,610
-25,052	21,966	947,734	557,879
-24,038	22,055	947,021	557,720
-23,023	22,019	946,574	557,319
-22,009	22,039	945,802	556,906
-20,994	22,071	945,118	556,583
-19,979	22,099	944,454	556,260
-18,965	22,086	943,879	555,857
-17,950	22,087	943,240	555,462
-16,936	21,984	942,671	554,779
-15,921	21,970	941,963	554,295
-14,906	21,925	941,141	553,647
-13,892	21,948	940,585	553,371
-12,877	21,926	940,012	552,943
-11,863	21,895	939,129	552,302
-10,848	21,903	939,031	552,247
-9,833	21,982	938,299	552,046
-8,819	22,014	937,768	551,811
-7,804	21,937	937,066	551,134
-6,790	21,886	936,496	550,616
-5,775	21,953	935,980	550,504
-4,760	21,973	935,222	550,097
-3,746	21,906	934,747	549,586
-2,731	21,823	933,885	548,795
-1,717	21,743	933,243	548,145
-0,702	21,779	932,667	547,899
0,313	21,563	931,978	547,641
1,327	24,115	929,512	554,144
2,342	32,007	807,223	502,554
3,356	27,115	507,721	307,751
4,371	2,976	372,637	195,301
5,386	-0,193	355,534	182,451
6,400	-1,657	349,221	177,437
7,415	-2,647	346,481	174,847
8,429	-2,741	344,911	173,928
9,444	-2,756	344,011	173,441
10,459	-2,672	343,298	173,166
11,473	-2,797	342,656	172,679
12,488	-2,497	342,281	172,829
13,502	-2,304	341,553	172,671
14,517	-2,416	341,215	172,354
15,531	-2,694	340,627	171,716
16,546	-2,794	340,147	171,342
17,561	-2,695	339,759	171,246
18,575	-2,610	339,364	171,131
19,590	-2,733	338,937	170,757
20,604	-2,711	338,667	170,631
21,619	-2,655	338,038	170,365
22,634	-2,720	337,913	170,211
23,648	-2,624	337,483	170,091
24,663	-2,674	337,215	169,883
25,677	-2,800	337,005	169,615
26,692	-2,534	336,552	169,680
27,707	-2,584	336,280	169,471
28,721	-2,645	335,802	169,143
29,736	-2,710	335,645	168,974
30,750	-2,747	335,371	168,779
31,765	-2,707	334,919	168,582
32,780	-2,791	334,866	168,444
33,794	-2,612	334,496	168,449
34,809	-2,623	334,167	168,255
35,823	-2,711	333,951	168,030
36,838	-2,745	333,655	167,827
37,853	-2,778	333,224	167,559
38,867	-2,721	333,103	167,548
39,882	-2,834	332,742	167,222
40,896	-2,643	332,440	167,274
41,911	-2,793	332,215	166,974
42,926	-2,677	331,866	166,917
43,940	-2,806	331,585	166,613
44,955	-2,832	331,372	166,462
45,969	-2,820	331,069	166,308
46,984	-2,877	330,720	166,053
47,999	-3,192	330,532	165,587
49,013	-3,219	330,096	165,324
50,028	-3,230	329,893	165,195
51,042	-3,418	329,647	164,844
52,057	-3,524	329,462	164,617
53,071	-3,478	329,344	164,595
54,086	-3,370	329,101	164,580
55,101	-3,322	328,690	164,415
56,115	-2,937	328,520	164,749
57,130	-2,799	328,461	164,859
58,144	-2,591	328,009	164,852
59,159	-2,529	327,866	164,835
60,174	-2,428	327,464	164,732
61,188	-2,482	327,448	164,648
62,203	-2,583	327,092	164,341
63,217	-2,570	326,880	164,235
64,232	-2,594	326,580	164,043
65,247	-2,488	326,294	164,004
66,261	-2,532	326,134	163,858
67,276	-2,821	325,709	163,308
68,290	-2,939	325,470	163,043
69,305	-2,912	325,126	162,885
70,320	-2,910	324,914	162,768
71,334	-2,699	324,810	162,935
72,349	-2,402	324,568	163,129
73,363	-2,346	324,192	162,987
74,378	-2,474	324,017	162,744
75,393	-2,601	323,743	162,450
76,407	-2,546	323,529	162,390
77,422	-2,745	323,292	162,035
78,436	-2,511	323,089	162,178
79,451	-2,554	322,666	161,904
80,466	-2,805	322,474	161,517
81,480	-2,878	322,126	161,248
82,495	-2,908	321,929	161,101
83,509	-2,867	321,644	160,989
84,524	-2,952	321,443	160,781
85,539	-2,918	320,980	160,572
86,553	-2,994	320,857	160,413
87,568	-2,892	320,756	160,461
88,582	-2,934	320,418	160,230
89,597	-2,850	320,193	160,196
90,611	-2,885	320,004	160,049
91,626	-2,705	319,778	160,119
92,641	-2,674	319,682	160,090
93,655	-2,806	319,296	159,738
94,670	-2,828	319,134	159,619
95,684	-2,809	318,874	159,496
96,699	-2,775	318,633	159,398
97,714	-2,813	318,421	159,235
98,728	-2,963	318,156	158,926
99,743	-3,045	318,112	158,801
100,757	-2,964	317,675	158,656
101,772	-2,926	317,421	158,557
102,787	-2,871	317,216	158,500
103,801	-2,768	316,988	158,483
104,816	-2,797	316,975	158,431
105,830	-2,705	316,623	158,341
106,845	-2,703	316,450	158,242
107,860	-2,657	316,253	158,179
108,874	-2,632	315,973	158,052
109,889	-2,741	315,768	157,818
110,903	-2,669	315,293	157,643
111,918	-2,837	315,058	157,332
112,933	-2,858	314,924	157,228
113,947	-2,596	314,787	157,427
114,962	-2,655	314,586	157,249
115,976	-2,681	314,347	157,088
116,991	-2,754	314,106	156,875
118,006	-2,836	313,998	156,719
119,020	-2,768	313,736	156,648
120,035	-2,613	313,518	156,690
121,049	-2,495	313,337	156,712
122,064	-2,708	313,237	156,421
123,079	-2,739	312,890	156,200
124,093	-2,779	312,631	156,014
125,108	-2,876	312,278	155,721
126,122	-2,955	312,128	155,549
127,137	-3,108	311,745	155,181
128,151	-3,032	311,669	155,210
129,166	-2,951	311,349	155,123
130,181	-2,975	311,218	155,018
131,195	-2,960	311,092	154,957
132,210	-2,821	310,723	154,907
133,224	-2,786	310,626	154,882
134,239	-2,724	310,555	154,898
135,254	-2,644	310,214	154,799
136,268	-2,696	309,894	154,571
137,283	-2,997	309,592	154,089
138,297	-3,081	309,312	153,847
139,312	-3,038	309,142	153,794
140,327	-2,785	309,051	154,001
141,341	-2,509	308,960	154,232
142,356	-2,461	308,732	154,155
143,370	-2,328	308,452	154,141
144,385	-2,328	308,352	154,078
145,400	-2,400	308,140	153,882
146,414	-2,468	307,852	153,654
147,429	-2,373	307,668	153,647
148,443	-2,449	307,539	153,489
149,458	-2,402	307,269	153,390
150,473	-2,395	307,107	153,304
151,487	-2,560	306,843	152,985
152,502	-2,514	306,627	152,913
153,516	-2,388	306,450	152,942
154,531	-2,299	306,131	152,861
155,546	-2,446	305,909	152,584
156,560	-2,640	305,819	152,324
157,575	-2,658	305,494	152,130
158,589	-2,346	305,196	152,292
159,604	-2,555	305,097	152,012
160,619	-2,494	304,899	151,963
161,633	-2,513	304,704	151,833
162,648	-2,564	304,548	151,688
163,662	-2,397	304,335	151,741
164,677	-2,562	304,152	151,466
165,692	-2,452	304,040	151,511
166,706	-2,392	303,837	151,457
167,721	-2,448	303,533	151,235
168,735	-2,382	303,379	151,213
169,750	-2,281	303,235	151,231
170,764	-2,318	302,980	151,053
171,779	-2,328	302,822	150,950
172,794	-2,217	302,600	150,940
173,808	-2,375	302,254	150,591
174,823	-2,843	302,036	149,990
175,837	-3,043	301,872	149,691
176,852	-2,578	301,769	150,102
177,867	-2,357	301,594	150,228
178,881	-2,141	301,234	150,256
179,896	-2,251	301,141	150,084
180,910	-2,243	300,915	149,965
181,925	-2,383	300,782	149,743
182,940	-2,315	300,501	149,659
183,954	-2,272	300,462	149,670
184,969	-2,348	300,138	149,418
185,983	-2,339	299,860	149,276
186,998	-2,287	299,696	149,234
188,013	-2,464	299,515	148,951
189,027	-2,507	299,376	148,825
190,042	-2,375	299,282	148,898
191,056	-2,212	299,012	148,917
192,071	-2,113	298,772	148,883
193,086	-2,173	298,658	148,753
194,100	-2,286	298,493	148,543
195,115	-2,264	298,136	148,374
196,129	-2,346	297,859	148,140
197,144	-2,319	297,769	148,110
198,159	-2,204	297,503	148,080
199,173	-2,270	297,392	147,945
200,188	-2,281	297,216	147,833
201,202	-2,433	296,910	147,516
202,217	-2,734	296,395	146,944
203,232	-2,927	296,364	146,722
204,246	-2,691	296,124	146,827
205,261	-2,222	296,033	147,238
206,275	-2,169	295,980	147,252
207,290	-2,317	295,855	147,028
208,304	-2,438	295,679	146,806
209,319	-2,259	295,324	146,796
210,334	-2,485	295,176	146,484
211,348	-2,394	294,826	146,388
212,363	-2,487	294,601	146,170
213,377	-2,364	294,605	146,282
214,392	-2,429	294,381	146,093
215,407	-2,497	294,115	145,880
216,421	-2,604	293,836	145,623
217,436	-2,678	293,641	145,440
218,450	-2,586	293,430	145,413
219,465	-2,401	293,229	145,484
220,480	-2,395	293,168	145,447
221,494	-2,563	293,186	145,277
222,509	-2,418	292,810	145,220
223,523	-2,343	292,663	145,209
224,538	-2,258	292,493	145,196
225,553	-2,380	292,237	144,935
226,567	-2,372	292,149	144,886
227,582	-2,299	291,950	144,847
228,596	-2,174	291,713	144,839
229,611	-2,049	291,683	144,934
230,626	-2,263	291,359	144,550
231,640	-2,699	290,910	143,887
232,655	-2,663	290,608	143,760
233,669	-2,785	290,465	143,556
234,684	-2,850	290,367	143,431
235,699	-2,872	290,157	143,293
236,713	-2,663	290,060	143,437
237,728	-2,770	289,906	143,243
238,742	-2,703	289,770	143,229
239,757	-2,353	289,532	143,440
240,772	-2,476	289,388	143,237
241,786	-2,490	289,149	143,091
242,801	-2,500	288,822	142,907
243,815	-2,616	288,804	142,773
244,830	-2,425	288,572	142,831
245,844	-2,590	288,442	142,593
246,859	-2,656	288,173	142,384
247,874	-2,479	287,863	142,390
248,888	-2,677	287,912	142,209
249,903	-2,498	288,004	142,416
250,917	-2,457	287,721	142,302
251,932	-2,170	287,534	142,476
252,947	-1,660	287,593	142,986
253,961	-2,030	287,046	142,343
254,976	-0,859	287,580	143,729
255,990	1,620	288,398	146,529
257,005	2,674	288,654	147,668
258,020	3,862	289,155	149,063
259,034	4,140	288,741	149,106
260,049	3,833	288,573	148,709
261,063	3,657	288,327	148,398
262,078	3,927	288,242	148,603
263,093	4,626	288,402	149,347
264,107	4,573	288,049	149,099
265,122	4,448	288,061	148,973
266,136	4,878	287,788	149,232
267,151	4,510	287,594	148,763
268,166	4,358	287,380	148,493
269,180	4,278	287,132	148,275
270,195	4,392	286,970	148,288
271,209	4,447	286,713	148,194
272,224	4,375	286,494	148,000
273,239	4,263	286,281	147,769
274,253	4,068	286,181	147,517
275,268	4,702	286,280	148,162
276,282	4,516	285,899	147,774
277,297	4,643	285,766	147,813
278,312	4,683	285,780	147,846
279,326	4,666	285,373	147,606
280,341	4,464	285,139	147,279
281,355	4,328	284,939	147,034
282,370	4,083	284,628	146,626
283,384	4,287	284,563	146,774
284,399	4,249	284,543	146,714
285,414	4,380	284,161	146,629
286,428	4,175	283,983	146,329
287,443	4,083	283,796	146,132
288,457	3,994	283,493	145,879
289,472	4,070	283,177	145,775
290,487	4,125	283,127	145,788
291,501	3,962	282,983	145,547
292,516	3,808	282,635	145,210
293,530	3,749	282,530	145,087
294,545	4,130	282,386	145,359
295,560	4,126	282,322	145,311
296,574	3,815	282,059	144,868
297,589	3,997	281,814	144,901
298,603	4,452	281,748	145,283
299,618	4,246	281,733	145,068
300,633	4,248	281,446	144,909
301,647	4,351	281,159	144,845
302,662	4,422	280,967	144,800
303,676	4,031	280,825	144,348
304,691	3,806	280,510	143,962
305,706	3,750	280,299	143,788
306,720	3,732	280,132	143,673
307,735	3,623	280,121	143,552
308,749	3,740	279,840	143,505
309,764	3,955	279,671	143,606
310,779	3,835	279,464	143,375
311,793	3,846	279,245	143,261
312,808	3,789	279,053	143,096
313,822	3,728	278,869	142,932
314,837	3,508	278,848	142,704
315,852	3,694	278,448	142,659
316,866	3,856	278,323	142,733
317,881	3,723	278,232	142,550
318,895	3,817	277,928	142,469
319,910	3,466	277,758	142,044
320,925	3,505	277,587	141,980
321,939	3,671	277,598	142,126
322,954	3,878	277,391	142,199
323,968	3,785	277,271	142,039
324,983	3,960	277,080	142,091
325,997	4,024	276,876	142,032
327,012	4,008	276,785	141,958
328,027	4,075	276,602	141,913
329,041	4,097	276,243	141,736
330,056	4,126	276,100	141,677
331,070	4,017	275,969	141,497
332,085	3,928	275,855	141,344
333,100	4,061	275,533	141,288
334,114	3,752	275,484	140,967
335,129	3,635	275,216	140,710
336,143	3,870	275,212	140,911
337,158	4,275	275,041	141,182
338,173	4,036	274,814	140,834
339,187	4,004	274,503	140,633
340,202	3,921	274,426	140,506
341,216	3,870	274,341	140,402
342,231	3,870	274,183	140,309
343,246	3,882	273,837	140,131
344,260	3,910	273,745	140,097
345,275	4,275	273,690	140,388
346,289	4,439	273,561	140,459
347,304	4,236	273,323	140,140
348,319	4,169	273,061	139,932
349,333	3,844	272,910	139,547
350,348	4,325	272,665	139,845
351,362	4,499	272,422	139,866
352,377	4,117	272,469	139,532
353,392	3,928	272,412	139,319
354,406	4,128	272,273	139,416
355,421	192,186	1329,732	1409,336
356,435	155,296	1458,652	1409,452
