DTS Sentinel unit serial number:	SN410029Multiplexer serial number:	ORYXHardware model number:	OX2-SRSoftware version number:	ORYX F/W v4,00 Oryx Data Collector v3.7.2.0data status	okinstallation	B4 Nyhavnadifferential loss correction	single-endedforward channel	channel 2reverse channel	N/Adate	2023/12/15time	19:15:13forward acquisition time	300,00reverse acquisition time	0,00gamma	499,1914k internal	0,3138k external	0,3138temperature offset calibration	1,0000default loss term (dB/km)	0,3820temperature slope calibration	1,0000multiplexer offset coefficient	1,0000multiplexer slope coefficient	1,0000fibre end	0,00T internal ref (°C)	19,73T ext. ref 1 (°C)	5,40T ext. ref 2 (°C)	5,59length (m)	temperature (°C)	Stokes	anti-Stokes-744,400	298,377	-0,026	0,036
-743,385	-113,269	-0,209	-0,030
-742,371	-200,000	-0,014	0,077
-741,356	-69,030	-0,135	-0,038
-740,342	-200,000	-0,052	-0,185
-739,327	-16,767	-0,163	0,076
-738,312	-129,905	0,081	-0,008
-737,298	5,666	-0,323	0,176
-736,283	-71,986	-0,069	0,019
-735,269	-8,359	-0,136	0,068
-734,254	105,945	0,084	0,073
-733,239	-60,493	-0,421	-0,132
-732,225	-200,000	0,003	-0,115
-731,210	800,000	0,009	0,030
-730,196	-41,978	0,070	0,027
-729,181	236,290	-0,114	-0,140
-728,167	327,719	0,048	0,068
-727,152	-200,000	0,019	-0,081
-726,137	-94,866	0,035	0,007
-725,123	-174,874	-0,063	-0,001
-724,108	302,615	-0,114	-0,157
-723,094	-114,343	0,066	0,009
-722,079	5,937	0,035	0,019
-721,064	-82,946	-0,006	0,001
-720,050	-200,000	-0,013	0,047
-719,035	-113,969	0,100	0,014
-718,021	221,859	-0,033	0,039
-717,006	-200,000	0,018	-0,062
-715,991	217,135	-0,182	-0,215
-714,977	259,666	0,035	-0,045
-713,962	-200,000	-0,012	-0,081
-712,948	9,796	0,110	0,061
-711,933	-119,537	-0,056	-0,007
-710,918	288,356	-0,059	0,080
-709,904	-49,087	-0,040	-0,014
-708,889	-39,963	-0,145	0,056
-707,875	256,598	-0,071	-0,090
-706,860	-72,823	0,045	-0,012
-705,845	-200,000	0,015	0,148
-704,831	-128,162	-0,065	-0,007
-703,816	-84,103	0,094	-0,022
-702,802	18,252	-0,044	-0,026
-701,787	-43,548	-0,111	0,041
-700,772	800,000	-0,023	-0,049
-699,758	800,000	-0,022	-0,050
-698,743	-107,159	0,133	0,022
-697,729	137,556	0,074	0,072
-696,714	800,000	-0,042	-0,098
-695,699	-118,481	-0,081	0,011
-694,685	70,522	0,081	-0,062
-693,670	22,727	-0,033	-0,020
-692,656	-200,000	0,002	0,013
-691,641	-200,000	-0,013	0,089
-690,627	4,117	0,066	0,036
-689,612	-200,000	-0,007	0,064
-688,597	-28,579	-0,082	-0,035
-687,583	800,000	-0,027	-0,085
-686,568	59,639	-0,081	-0,059
-685,554	-68,866	-0,072	-0,020
-684,539	-20,730	-0,054	0,024
-683,524	-32,618	0,071	-0,029
-682,510	334,024	-0,088	0,126
-681,495	-200,000	-0,006	-0,102
-680,481	-75,103	-0,100	0,026
-679,466	-8,392	-0,063	0,031
-678,451	-200,000	-0,008	-0,042
-677,437	-105,316	-0,117	-0,019
-676,422	16,137	0,114	-0,066
-675,408	673,835	-0,054	0,105
-674,393	140,298	-0,064	-0,063
-673,378	-110,857	-0,162	0,024
-672,364	-55,110	-0,016	0,005
-671,349	800,000	-0,049	-0,118
-670,335	-90,946	0,046	-0,010
-669,320	-143,675	0,085	-0,006
-668,305	-200,000	-0,016	0,151
-667,291	800,000	0,091	-0,241
-666,276	800,000	0,050	-0,108
-665,262	-200,000	-0,009	0,048
-664,247	-62,617	-0,085	-0,026
-663,232	-81,412	0,097	-0,024
-662,218	800,000	-0,008	-0,022
-661,203	261,629	0,065	-0,083
-660,189	364,151	-0,042	-0,062
-659,174	-86,478	-0,104	-0,023
-658,159	-200,000	-0,008	-0,043
-657,145	-84,220	-0,087	-0,020
-656,130	800,000	0,024	0,060
-655,116	-200,000	0,110	0,000
-654,101	-14,174	-0,022	0,010
-653,086	-143,401	0,156	0,011
-652,072	41,413	0,061	0,040
-651,057	800,000	0,016	-0,043
-650,043	63,526	-0,069	0,051
-649,028	94,989	-0,023	-0,020
-648,014	443,851	-0,053	-0,086
-646,999	395,710	-0,042	-0,066
-645,984	130,740	-0,036	0,034
-644,970	458,546	0,020	0,033
-643,955	0,030	-0,117	0,061
-642,941	-200,000	0,019	-0,229
-641,926	377,427	0,048	0,072
-640,911	-200,000	-0,027	0,107
-639,897	73,485	0,103	-0,080
-638,882	-200,000	-0,029	0,122
-637,868	531,218	0,054	0,094
-636,853	-200,000	0,008	0,033
-635,838	677,946	-0,035	-0,067
-634,824	299,903	0,039	0,053
-633,809	14,055	0,105	-0,060
-632,795	642,950	-0,048	-0,092
-631,780	-200,000	-0,017	0,061
-630,765	178,628	-0,025	0,027
-629,751	389,903	-0,054	0,084
-628,736	800,000	-0,025	-0,060
-627,722	-200,000	0,016	0,094
-626,707	45,858	-0,143	-0,097
-625,692	-200,000	-0,010	0,065
-624,678	294,763	-0,051	-0,068
-623,663	-121,418	-0,100	-0,012
-622,649	-114,696	-0,074	-0,010
-621,634	-138,481	-0,039	0,003
-620,619	-187,888	-0,037	-0,000
-619,605	-200,000	0,019	-0,087
-618,590	-42,840	-0,071	0,026
-617,576	567,022	-0,028	0,050
-616,561	106,155	-0,061	-0,053
-615,546	-154,206	-0,111	0,005
-614,532	111,144	-0,080	-0,071
-613,517	793,094	0,045	-0,092
-612,503	7,204	0,066	-0,037
-611,488	57,387	-0,041	-0,029
-610,474	696,265	-0,012	0,024
-609,459	800,000	-0,013	0,037
-608,444	-200,000	0,021	0,086
-607,430	799,014	0,013	0,026
-606,415	-100,388	-0,061	-0,011
-605,401	-17,705	0,089	0,041
-604,386	-200,000	0,004	0,033
-603,371	-119,456	0,136	-0,017
-602,357	-200,000	0,007	0,055
-601,342	800,000	-0,014	0,029
-600,328	23,743	-0,108	-0,066
-599,313	-58,629	0,063	0,020
-598,298	362,613	-0,011	-0,016
-597,284	-27,978	0,071	-0,030
-596,269	69,324	0,162	0,123
-595,255	382,231	-0,067	0,101
-594,240	157,981	-0,106	-0,108
-593,225	20,565	-0,045	0,027
-592,211	-18,244	0,093	0,043
-591,196	800,000	0,033	-0,094
-590,182	405,683	0,092	-0,143
-589,167	-99,960	0,059	0,011
-588,152	-103,810	-0,094	0,016
-587,138	281,374	-0,036	0,048
-586,123	-122,141	-0,164	0,020
-585,109	17,173	-0,063	0,037
-584,094	-84,688	0,136	-0,031
-583,079	-200,000	-0,019	-0,094
-582,065	38,568	0,117	0,077
-581,050	-64,126	-0,062	-0,018
-580,036	51,870	-0,102	-0,072
-579,021	100,953	0,021	0,018
-578,006	299,903	-0,040	-0,054
-576,992	-200,000	-0,005	0,052
-575,977	41,228	0,133	-0,088
-574,963	208,086	0,088	0,101
-573,948	800,000	0,068	0,141
-572,934	800,000	0,043	-0,100
-571,919	-200,000	-0,007	-0,040
-570,904	140,770	-0,133	-0,130
-569,890	459,428	-0,043	-0,071
-568,875	-200,000	0,028	0,115
-567,861	800,000	-0,004	-0,011
-566,846	737,547	0,056	0,112
-565,831	62,241	-0,075	-0,055
-564,817	146,126	-0,103	0,102
-563,802	459,443	-0,040	-0,067
-562,788	-200,000	-0,024	-0,182
-561,773	57,480	0,046	-0,033
-560,758	368,713	0,066	0,099
-559,744	800,000	-0,017	0,037
-558,729	158,533	0,085	-0,087
-557,715	-24,552	-0,278	0,122
-556,700	57,565	-0,090	-0,065
-555,685	239,601	0,091	-0,111
-554,671	800,000	-0,055	-0,124
-553,656	147,617	0,012	0,012
-552,642	800,000	0,027	-0,062
-551,627	9,663	-0,113	-0,063
-550,612	375,670	0,103	0,155
-549,598	800,000	-0,036	-0,109
-548,583	-200,000	-0,019	-0,201
-547,569	-155,340	-0,014	-0,001
-546,554	1,918	-0,071	0,038
-545,539	800,000	0,046	0,104
-544,525	-103,386	-0,089	-0,015
-543,510	-200,000	0,002	0,028
-542,496	353,630	0,036	0,053
-541,481	-200,000	0,092	0,000
-540,466	-139,475	-0,022	-0,002
-539,452	800,000	-0,046	0,144
-538,437	-200,000	0,004	0,080
-537,423	-200,000	-0,023	0,116
-536,408	-173,482	0,125	0,003
-535,393	-200,000	-0,003	-0,015
-534,379	-200,000	-0,020	-0,074
-533,364	207,697	-0,058	-0,067
-532,350	-122,561	-0,115	-0,014
-531,335	296,804	0,044	-0,059
-530,321	88,923	0,060	-0,049
-529,306	382,206	-0,097	-0,148
-528,291	-104,384	-0,109	-0,018
-527,277	-30,218	-0,052	-0,022
-526,262	518,077	0,046	0,080
-525,248	-200,000	0,007	0,052
-524,233	372,188	-0,047	-0,070
-523,218	1,582	0,146	0,077
-522,204	-101,689	-0,103	0,018
-521,189	-23,447	-0,095	-0,042
-520,175	209,408	-0,030	-0,034
-519,160	-200,000	0,020	0,073
-518,145	-31,337	-0,041	0,017
-517,131	-200,000	-0,040	-0,144
-516,116	-121,703	0,050	0,006
-515,102	-200,000	-0,005	-0,031
-514,087	-149,111	-0,223	-0,013
-513,072	352,529	-0,080	0,117
-512,058	391,482	0,040	-0,061
-511,043	569,358	0,014	0,026
-510,029	256,559	-0,021	0,027
-509,014	248,422	0,029	0,036
-507,999	-38,719	-0,051	-0,020
-506,985	268,058	-0,070	-0,090
-505,970	46,405	-0,181	-0,123
-504,956	-107,662	-0,108	-0,017
-503,941	-200,000	0,006	0,124
-502,926	-200,000	-0,004	0,054
-501,912	7,783	0,008	0,004
-500,897	40,855	0,134	-0,089
-499,883	800,000	0,047	-0,124
-498,868	-200,000	-0,012	-0,149
-497,853	439,524	-0,111	-0,178
-496,839	-77,205	-0,050	-0,013
-495,824	210,283	-0,077	-0,089
-494,810	-200,000	-0,001	0,093
-493,795	559,278	0,007	-0,013
-492,781	-200,000	-0,027	-0,163
-491,766	88,420	-0,039	0,032
-490,751	42,052	0,026	0,017
-489,737	-119,614	-0,063	-0,008
-488,722	-107,137	-0,101	-0,016
-487,708	-200,000	0,002	0,081
-486,693	54,916	0,084	0,060
-485,678	-91,234	0,072	0,015
-484,664	594,727	-0,048	-0,087
-483,649	-200,000	0,017	-0,092
-482,635	-200,000	-0,020	-0,073
-481,620	-200,000	-0,004	0,012
-480,605	-200,000	0,017	0,101
-479,591	157,308	-0,068	0,069
-478,576	800,000	-0,033	-0,088
-477,562	330,113	-0,105	-0,148
-476,547	-200,000	0,029	-0,102
-475,532	-200,000	-0,012	-0,111
-474,518	-96,911	-0,058	-0,011
-473,503	800,000	0,047	0,109
-472,489	-170,314	-0,038	0,001
-471,474	149,248	0,086	-0,085
-470,459	800,000	0,037	0,107
-469,445	-200,000	-0,042	-0,188
-468,430	800,000	0,020	0,047
-467,416	190,871	0,082	0,091
-466,401	370,134	0,041	-0,061
-465,386	-146,146	-0,032	-0,002
-464,372	231,787	-0,058	-0,070
-463,357	61,578	0,038	0,028
-462,343	-76,988	0,123	0,031
-461,328	-70,927	0,179	-0,049
-460,313	152,257	-0,090	-0,090
-459,299	-154,980	0,085	0,004
-458,284	440,036	0,066	-0,106
-457,270	-115,605	0,103	0,014
-456,255	451,590	0,036	0,058
-455,241	-200,000	-0,009	-0,044
-454,226	800,000	-0,016	-0,034
-453,211	32,608	0,074	0,047
-452,197	800,000	-0,037	0,081
-451,182	590,408	0,006	0,010
-450,168	-127,014	0,023	0,002
-449,153	-200,000	0,004	0,028
-448,138	383,034	-0,017	-0,025
-447,124	-119,936	0,057	-0,007
-446,109	99,342	-0,081	-0,069
-445,095	-166,641	0,142	0,004
-444,080	-15,937	0,108	0,050
-443,065	259,262	0,003	0,003
-442,051	-133,959	-0,066	0,006
-441,036	800,000	-0,055	-0,163
-440,022	123,991	-0,115	-0,106
-439,007	-200,000	-0,013	-0,078
-437,992	-200,000	0,011	0,110
-436,978	-200,000	-0,016	0,064
-435,963	-200,000	0,001	-0,037
-434,949	344,048	0,016	-0,023
-433,934	548,136	-0,045	-0,080
-432,919	16,684	-0,101	-0,058
-431,905	800,000	0,045	-0,107
-430,890	800,000	0,022	0,061
-429,876	89,295	0,024	-0,020
-428,861	-179,913	-0,104	-0,002
-427,846	-29,513	0,075	0,031
-426,832	-200,000	0,004	-0,104
-425,817	55,214	-0,186	-0,131
-424,803	800,000	0,042	-0,109
-423,788	375,895	0,118	-0,177
-422,773	-30,493	0,106	-0,044
-421,759	-69,058	-0,166	0,046
-420,744	-200,000	-0,008	-0,052
-419,730	800,000	0,006	-0,020
-418,715	-124,088	-0,161	-0,018
-417,701	0,609	-0,073	-0,038
-416,686	149,430	0,134	0,133
-415,671	133,524	0,138	0,131
-414,657	193,854	0,047	0,052
-413,642	-73,821	-0,068	0,018
-412,628	30,857	-0,136	0,085
-411,613	-143,488	0,057	-0,004
-410,598	800,000	-0,032	-0,091
-409,584	-200,000	-0,016	-0,096
-408,569	800,000	0,016	-0,038
-407,555	147,708	-0,082	0,081
-406,540	-43,257	-0,056	-0,021
-405,525	-72,155	0,109	-0,029
-404,511	453,919	-0,068	-0,110
-403,496	-125,814	0,062	-0,007
-402,482	-134,823	0,045	-0,004
-401,467	-200,000	0,027	0,138
-400,452	-200,000	0,018	-0,154
-399,438	-132,719	-0,024	0,002
-398,423	339,518	0,080	0,114
-397,409	-64,483	-0,047	0,014
-396,394	-96,882	-0,091	0,017
-395,379	454,315	0,029	-0,047
-394,365	307,003	-0,145	0,198
-393,350	800,000	-0,066	0,148
-392,336	347,116	-0,018	0,026
-391,321	-63,744	0,034	0,010
-390,306	-50,497	0,076	-0,026
-389,292	342,994	0,078	-0,113
-388,277	-200,000	-0,001	-0,117
-387,263	117,848	0,087	0,079
-386,248	-200,000	0,042	0,157
-385,233	1,589	0,153	0,081
-384,219	800,000	-0,078	0,168
-383,204	-200,000	0,017	0,108
-382,190	-200,000	-0,009	-0,133
-381,175	-200,000	0,011	-0,057
-380,160	97,262	-0,091	-0,076
-379,146	5,416	0,053	-0,029
-378,131	270,912	0,102	0,131
-377,117	-111,996	0,081	-0,012
-376,102	-200,000	0,002	-0,051
-375,088	-14,556	0,110	-0,052
-374,073	32,016	0,076	-0,048
-373,058	76,411	0,130	-0,101
-372,044	-200,000	-0,003	0,035
-371,029	11,356	-0,064	-0,036
-370,015	264,203	0,035	0,045
-369,000	800,000	0,042	0,110
-367,985	-200,000	0,003	0,062
-366,971	109,037	0,041	-0,036
-365,956	179,320	0,030	-0,032
-364,942	-15,970	0,048	-0,022
-363,927	-131,869	-0,167	-0,016
-362,912	-8,873	0,123	0,060
-361,898	-200,000	-0,010	0,055
-360,883	-80,258	-0,070	0,017
-359,869	-8,012	0,053	-0,026
-358,854	-107,735	0,144	-0,023
-357,839	300,328	-0,042	0,057
-356,825	631,703	0,073	0,135
-355,810	286,693	-0,082	0,109
-354,796	-60,720	-0,100	-0,031
-353,781	800,000	0,024	0,074
-352,766	129,763	0,017	-0,016
-351,752	-3,390	0,061	0,031
-350,737	39,704	0,037	-0,024
-349,723	-72,966	0,150	0,040
-348,708	-109,389	0,133	-0,020
-347,693	-162,094	0,064	0,002
-346,679	-51,020	-0,067	-0,023
-345,664	10,372	-0,051	0,028
-344,650	-147,501	-0,057	0,003
-343,635	-140,442	-0,018	0,001
-342,620	81,715	0,042	0,033
-341,606	751,083	0,034	-0,067
-340,591	86,391	-0,035	-0,028
-339,577	-19,006	0,062	-0,028
-338,562	56,490	-0,040	0,029
-337,548	-200,000	0,007	-0,036
-336,533	45,854	-0,098	0,066
-335,518	33,271	0,081	0,051
-334,504	800,000	0,041	0,085
-333,489	-200,000	0,005	0,076
-332,475	-18,040	0,056	-0,026
-331,460	-200,000	-0,006	-0,174
-330,445	40,051	0,096	-0,063
-329,431	-199,800	-0,085	-0,000
-328,416	44,524	0,039	0,026
-327,402	-74,751	-0,029	0,008
-326,387	-200,000	0,072	0,238
-325,372	180,423	-0,083	-0,089
-324,358	-106,643	-0,071	-0,011
-323,343	150,376	0,092	0,092
-322,329	800,000	-0,037	0,114
-321,314	158,567	-0,033	-0,033
-320,299	515,141	0,017	-0,029
-319,285	-40,958	0,048	-0,018
-318,270	553,119	-0,054	-0,095
-317,256	117,531	0,106	-0,095
-316,241	94,569	0,012	0,010
-315,226	84,670	-0,123	-0,098
-314,212	39,336	0,073	0,048
-313,197	800,000	0,011	-0,025
-312,183	-200,000	0,012	0,125
-311,168	-35,467	0,034	0,013
-310,153	88,641	0,085	-0,069
-309,139	-71,664	0,004	0,001
-308,124	-131,239	0,039	-0,004
-307,110	-200,000	0,004	0,038
-306,095	-200,000	0,022	0,145
-305,080	-21,906	-0,066	0,029
-304,066	528,089	-0,019	0,033
-303,051	-200,000	-0,020	-0,074
-302,037	5,113	-0,102	-0,055
-301,022	-48,458	-0,064	0,022
-300,008	-200,000	-0,006	0,059
-298,993	227,229	0,063	-0,075
-297,978	-131,194	0,032	-0,003
-296,964	-200,000	0,029	0,104
-295,949	-189,940	-0,124	-0,001
-294,935	-103,101	0,044	-0,008
-293,920	144,602	0,084	0,081
-292,905	378,325	0,077	0,116
-291,891	153,526	0,085	0,085
-290,876	800,000	0,022	0,060
-289,862	-200,000	0,015	-0,052
-288,847	51,454	0,010	-0,007
-287,832	-200,000	0,014	-0,083
-286,818	-45,925	-0,062	-0,022
-285,803	-85,761	0,062	0,014
-284,789	179,161	0,101	0,108
-283,774	800,000	-0,026	0,075
-282,759	-86,141	-0,065	-0,015
-281,745	-200,000	0,002	0,088
-280,730	-39,899	-0,018	0,007
-279,716	-149,727	-0,109	0,006
-278,701	-200,000	0,006	-0,070
-277,686	-123,845	0,129	0,015
-276,672	-80,695	-0,087	0,021
-275,657	800,000	0,092	-0,188
-274,643	-44,956	0,024	-0,009
-273,628	610,855	0,079	0,144
-272,613	-52,725	0,059	0,020
-271,599	62,709	0,045	-0,032
-270,584	800,000	-0,018	0,040
-269,570	800,000	0,090	-0,204
-268,555	130,529	0,127	0,119
-267,540	694,099	0,007	0,014
-266,526	-144,760	0,140	0,009
-265,511	800,000	-0,016	-0,040
-264,497	-200,000	0,027	0,120
-263,482	127,562	0,086	0,080
-262,467	111,704	0,126	0,110
-261,453	-200,000	0,027	0,117
-260,438	-86,719	0,010	0,002
-259,424	-40,142	0,044	-0,017
-258,409	-200,000	-0,017	0,076
-257,395	-200,000	-0,015	0,047
-256,380	-200,000	0,017	0,080
-255,365	171,945	-0,079	0,083
-254,351	800,000	-0,049	-0,109
-253,336	106,835	-0,149	-0,129
-252,322	800,000	0,019	0,048
-251,307	-25,858	-0,082	-0,035
-250,292	-200,000	-0,010	-0,102
-249,278	42,218	0,025	0,017
-248,263	-103,566	0,087	-0,015
-247,249	141,469	-0,047	0,045
-246,234	800,000	0,034	0,101
-245,219	-170,088	-0,082	-0,002
-244,205	332,430	0,008	-0,011
-243,190	-9,409	0,017	0,008
-242,176	171,126	0,063	0,066
-241,161	-124,400	0,050	0,006
-240,146	75,338	-0,030	-0,023
-239,132	537,933	0,059	0,102
-238,117	-176,738	-0,156	0,003
-237,103	356,443	-0,056	0,082
-236,088	-200,000	-0,010	-0,053
-235,073	164,326	0,084	0,086
-234,059	-114,965	0,064	0,009
-233,044	-200,000	0,019	0,072
-232,030	49,587	0,050	-0,034
-231,015	132,352	0,060	-0,056
-230,000	-200,000	-0,004	-0,089
-228,986	-200,000	0,021	0,132
-227,971	800,000	0,010	-0,030
-226,957	-172,057	0,126	0,003
-225,942	-70,194	0,029	0,008
-224,927	55,874	-0,059	0,042
-223,913	-45,406	0,079	0,028
-222,898	-37,785	-0,031	-0,012
-221,884	-47,602	0,073	-0,026
-220,869	99,372	0,096	-0,081
-219,855	-200,000	0,014	0,064
-218,840	407,677	0,045	0,070
-217,825	-104,966	-0,079	0,013
-216,811	-164,557	-0,101	-0,003
-215,796	-200,000	-0,006	0,047
-214,782	23,938	-0,076	-0,045
-213,767	-48,110	0,121	-0,042
-212,752	67,537	-0,055	0,041
-211,738	239,614	0,014	0,017
-210,723	379,945	-0,095	0,141
-209,709	39,464	-0,059	0,038
-208,694	705,580	-0,029	0,056
-207,679	-34,549	-0,055	0,022
-206,665	18,393	0,065	-0,038
-205,650	-85,902	0,050	-0,011
-204,636	800,000	-0,027	0,062
-203,621	-200,000	0,046	-0,195
-202,606	162,348	-0,104	-0,106
-201,592	-141,109	0,009	-0,001
-200,577	800,000	-0,018	-0,037
-199,563	-200,000	0,014	0,094
-198,548	3,961	0,149	0,079
-197,533	-45,587	-0,056	-0,020
-196,519	155,569	-0,054	0,054
-195,504	-49,947	-0,085	-0,029
-194,490	84,622	-0,064	0,051
-193,475	-120,779	-0,091	-0,011
-192,460	-200,000	0,015	-0,058
-191,446	800,000	0,045	0,105
-190,431	335,297	0,026	-0,037
-189,417	517,333	0,054	0,093
-188,402	-128,632	-0,115	-0,012
-187,387	-200,000	-0,013	0,050
-186,373	37,049	-0,056	0,036
-185,358	-200,000	-0,056	-0,216
-184,344	-200,000	-0,001	-0,180
-183,329	532,376	-0,031	0,054
-182,315	-40,084	0,172	-0,065
-181,300	397,204	0,048	-0,073
-180,285	800,000	-0,027	0,074
-179,271	91,207	-0,008	0,007
-178,256	800,000	0,077	-0,169
-177,242	-148,197	0,055	-0,003
-176,227	-200,000	-0,023	0,160
-175,212	69,168	-0,035	0,026
-174,198	16,600	0,174	0,099
-173,183	-200,000	-0,028	-0,123
-172,169	198,213	-0,134	-0,149
-171,154	-15,501	-0,052	0,024
-170,139	-200,000	0,004	-0,026
-169,125	130,089	0,041	0,038
-168,110	199,743	0,087	0,097
-167,096	800,000	0,033	0,069
-166,081	66,562	-0,083	-0,061
-165,066	-200,000	-0,002	-0,020
-164,052	375,369	-0,047	0,069
-163,037	800,000	-0,009	0,019
-162,023	-16,619	-0,053	-0,024
-161,008	26,705	-0,066	0,040
-159,993	257,141	-0,052	0,065
-158,979	97,352	-0,085	0,070
-157,964	115,294	-0,059	0,052
-156,950	38,328	-0,016	-0,010
-155,935	-200,000	-0,013	0,095
-154,920	-93,324	0,127	0,025
-153,906	122,358	0,106	-0,096
-152,891	261,775	-0,107	0,135
-151,877	265,212	0,084	0,106
-150,862	180,428	-0,080	-0,085
-149,847	-100,138	0,093	-0,017
-148,833	-200,000	0,008	0,092
-147,818	-200,000	-0,036	-0,157
-146,804	101,333	0,058	0,049
-145,789	800,000	-0,014	-0,042
-144,775	76,287	0,128	0,098
-143,760	248,131	0,066	-0,081
-142,745	-123,079	-0,075	0,009
-141,731	58,779	-0,081	0,057
-140,716	85,771	0,150	0,120
-139,702	-200,000	-0,000	0,065
-138,687	-143,486	0,235	0,016
-137,672	-200,000	-0,023	-0,080
-136,658	174,270	-0,034	-0,036
-135,643	216,554	-0,024	-0,028
-134,629	-126,704	-0,004	0,000
-133,614	-200,000	-0,031	0,132
-132,599	-73,555	-0,075	0,020
-131,585	124,777	0,030	-0,027
-130,570	-61,354	-0,071	-0,022
-129,556	80,921	-0,105	-0,082
-128,541	141,564	0,084	0,080
-127,526	800,000	0,057	-0,141
-126,512	76,420	-0,057	-0,044
-125,497	-104,869	0,086	0,014
-124,483	800,000	-0,045	-0,106
-123,468	-153,249	0,024	-0,001
-122,453	343,474	-0,115	-0,164
-121,439	-78,179	0,157	-0,039
-120,424	198,772	0,045	-0,049
-119,410	506,057	0,047	-0,079
-118,395	715,535	0,033	0,064
-117,380	-200,000	0,005	0,032
-116,366	66,294	-0,091	0,067
-115,351	161,798	-0,026	0,026
-114,337	-57,089	-0,109	0,035
-113,322	800,000	-0,034	-0,103
-112,307	-200,000	-0,012	0,085
-111,293	304,383	0,025	0,033
-110,278	82,443	-0,012	0,010
-109,264	800,000	-0,034	-0,074
-108,249	800,000	0,011	-0,036
-107,234	-200,000	0,019	-0,156
-106,220	-200,000	0,002	0,065
-105,205	145,438	0,081	0,078
-104,191	178,774	0,086	0,091
-103,176	224,324	-0,094	0,110
-102,162	175,707	-0,067	0,071
-101,147	-200,000	-0,130	0,000
-100,132	800,000	-0,061	-0,133
-99,118	-200,000	0,009	0,096
-98,103	85,025	0,132	-0,104
-97,089	-200,000	0,003	-0,029
-96,074	-200,000	0,009	0,094
-95,059	-116,883	0,109	-0,014
-94,045	-19,257	-0,024	0,011
-93,030	522,807	0,042	-0,071
-92,016	-200,000	-0,020	-0,177
-91,001	-200,000	0,008	0,070
-89,986	-87,150	-0,023	-0,005
-88,972	60,321	0,031	0,022
-87,957	800,000	-0,031	-0,072
-86,943	126,484	-0,062	-0,056
-85,928	800,000	0,032	-0,089
-84,913	221,045	-0,049	-0,057
-83,899	-115,649	-0,213	-0,029
-82,884	-200,000	0,098	0,000
-81,870	699,520	-0,030	0,058
-80,855	82,426	-0,086	0,068
-79,840	-200,000	0,044	-0,151
-78,826	800,000	-0,011	0,035
-77,811	64,207	-0,056	0,041
-76,797	-200,000	-0,018	-0,063
-75,782	96,620	0,051	0,042
-74,767	513,929	-0,017	-0,029
-73,753	-116,643	-0,081	0,011
-72,738	800,000	0,028	-0,077
-71,724	-140,817	-0,024	0,002
-70,709	-72,177	0,075	0,020
-69,694	7,453	-0,158	-0,085
-68,680	787,751	-0,046	0,093
-67,665	635,679	-0,066	0,122
-66,651	84,506	0,086	0,068
-65,636	561,768	-0,023	-0,041
-64,622	79,988	-0,163	-0,127
-63,607	-19,064	0,101	-0,045
-62,592	-200,000	-0,006	-0,031
-61,578	-200,000	0,001	-0,008
-60,563	-103,048	-0,098	0,017
-59,549	-169,113	-0,046	0,001
-58,534	-88,505	-1,586	-0,339
-57,519	800,000	-0,653	-1,336
-56,505	-200,000	-1,011	-4,563
-55,490	-109,671	0,610	0,092
-54,476	800,000	4,998	11,669
-53,461	-200,000	15,099	262,513
-52,446	800,000	697,492	2206,400
-51,432	559,562	1617,541	2832,018
-50,417	120,583	1624,918	1458,099
-49,403	81,478	1281,247	999,664
-48,388	37,721	1021,618	653,798
-47,373	22,422	982,058	578,334
-46,359	21,479	970,995	568,714
-45,344	20,047	966,665	561,490
-44,330	20,032	965,718	560,867
-43,315	19,809	964,190	559,235
-42,300	19,809	962,929	558,478
-41,286	19,835	961,940	557,969
-40,271	19,761	961,165	557,255
-39,257	19,767	960,202	556,695
-38,242	19,761	959,433	556,207
-37,227	19,788	958,556	555,766
-36,213	19,711	957,790	555,050
-35,198	19,770	956,619	554,541
-34,184	19,840	956,043	554,411
-33,169	19,787	954,929	553,571
-32,154	19,830	954,054	553,179
-31,140	19,797	953,241	552,580
-30,125	19,775	952,507	552,062
-29,111	19,810	951,689	551,678
-28,096	19,809	950,922	551,209
-27,082	19,747	950,403	550,689
-26,067	19,819	949,409	550,322
-25,052	19,734	948,884	549,722
-24,038	19,760	948,227	549,404
-23,023	19,696	947,547	548,781
-22,009	19,838	946,699	548,723
-20,994	19,770	946,358	548,285
-19,979	19,783	945,682	547,913
-18,965	19,812	944,998	547,591
-17,950	19,729	944,627	547,087
-16,936	19,709	943,725	546,479
-15,921	19,664	943,080	545,942
-14,906	19,691	942,217	545,508
-13,892	19,674	941,702	545,132
-12,877	19,695	940,994	544,769
-11,863	19,654	940,449	544,302
-10,848	19,577	940,097	543,830
-9,833	19,737	939,500	543,970
-8,819	19,709	938,884	543,504
-7,804	19,651	938,279	542,949
-6,790	19,594	937,643	542,379
-5,775	19,641	937,272	542,292
-4,760	19,692	936,371	541,911
-3,746	19,625	935,854	541,379
-2,731	19,462	935,364	540,559
-1,717	19,499	934,352	540,069
-0,702	19,534	933,801	539,840
0,313	19,350	933,264	539,765
1,327	21,763	931,016	545,987
2,342	29,104	806,071	492,510
3,356	23,932	506,756	300,826
4,371	1,057	373,885	192,902
5,386	-1,795	357,158	180,764
6,400	-2,967	350,950	176,194
7,415	-3,841	348,105	173,706
8,429	-3,969	346,564	172,768
9,444	-4,213	345,730	172,048
10,459	-4,171	345,006	171,722
11,473	-4,122	344,377	171,452
12,488	-3,927	343,905	171,431
13,502	-4,111	343,416	170,955
14,517	-4,163	342,688	170,517
15,531	-4,356	341,874	169,870
16,546	-4,537	341,491	169,453
17,561	-4,540	341,264	169,321
18,575	-4,538	340,748	169,053
19,590	-4,716	340,426	168,670
20,604	-4,566	340,086	168,661
21,619	-4,661	339,711	168,349
22,634	-4,613	339,316	168,195
23,648	-4,665	339,009	167,968
24,663	-4,653	338,639	167,783
25,677	-4,577	338,244	167,661
26,692	-4,709	338,152	167,447
27,707	-4,650	337,682	167,267
28,721	-4,659	337,272	167,038
29,736	-4,702	336,976	166,828
30,750	-4,609	336,612	166,740
31,765	-4,688	336,388	166,523
32,780	-4,701	336,122	166,361
33,794	-4,693	335,882	166,237
34,809	-4,615	335,517	166,131
35,823	-4,687	335,341	165,947
36,838	-4,641	334,978	165,805
37,853	-4,773	334,734	165,517
38,867	-4,806	334,397	165,299
39,882	-4,736	334,058	165,197
40,896	-4,725	333,858	165,095
41,911	-4,745	333,512	164,887
42,926	-4,764	333,297	164,744
43,940	-4,780	332,831	164,481
44,955	-4,816	332,712	164,366
45,969	-4,710	332,438	164,337
46,984	-4,988	332,023	163,801
47,999	-5,094	331,745	163,529
49,013	-5,197	331,665	163,359
50,028	-5,258	331,202	163,046
51,042	-5,255	331,051	162,961
52,057	-5,164	330,651	162,853
53,071	-5,211	330,586	162,752
54,086	-5,220	330,368	162,621
55,101	-5,194	329,934	162,421
56,115	-5,002	329,859	162,587
57,130	-4,553	329,665	162,983
58,144	-4,466	329,446	162,959
59,159	-4,452	329,222	162,849
60,174	-4,513	328,954	162,633
61,188	-4,435	328,732	162,597
62,203	-4,541	328,348	162,274
63,217	-4,620	328,290	162,141
64,232	-4,619	327,979	161,975
65,247	-4,395	327,785	162,116
66,261	-4,394	327,292	161,858
67,276	-4,728	327,052	161,351
68,290	-4,772	326,686	161,108
69,305	-4,742	326,646	161,107
70,320	-4,787	326,105	160,776
71,334	-4,679	326,069	160,864
72,349	-4,426	325,884	161,041
73,363	-4,299	325,673	161,063
74,378	-4,421	325,402	160,778
75,393	-4,476	324,933	160,472
76,407	-4,549	324,856	160,338
77,422	-4,543	324,602	160,206
78,436	-4,483	324,388	160,152
79,451	-4,692	324,161	159,794
80,466	-4,617	323,852	159,711
81,480	-4,773	323,430	159,316
82,495	-4,765	323,106	159,151
83,509	-4,760	322,999	159,089
84,524	-4,843	322,638	158,806
85,539	-4,946	322,407	158,565
86,553	-4,892	322,226	158,521
87,568	-4,952	322,011	158,335
88,582	-4,772	321,650	158,342
89,597	-4,725	321,406	158,259
90,611	-4,726	321,338	158,210
91,626	-4,751	321,102	158,052
92,641	-4,531	320,826	158,143
93,655	-4,656	320,602	157,882
94,670	-4,712	320,274	157,645
95,684	-4,717	320,144	157,561
96,699	-4,699	319,800	157,398
97,714	-4,669	319,532	157,285
98,728	-4,972	319,429	156,890
99,743	-4,944	319,123	156,757
100,757	-4,818	319,021	156,829
101,772	-4,902	318,851	156,640
102,787	-4,768	318,528	156,613
103,801	-4,759	318,247	156,471
104,816	-4,671	318,081	156,470
105,830	-4,641	317,895	156,397
106,845	-4,539	317,623	156,360
107,860	-4,643	317,528	156,187
108,874	-4,522	317,140	156,113
109,889	-4,538	316,806	155,917
110,903	-4,803	316,735	155,582
111,918	-4,659	316,400	155,559
112,933	-4,646	316,162	155,442
113,947	-4,681	316,030	155,326
114,962	-4,635	315,742	155,220
115,976	-4,402	315,460	155,318
116,991	-4,616	315,396	155,043
118,006	-4,661	315,051	154,811
119,020	-4,668	315,009	154,769
120,035	-4,406	314,771	154,919
121,049	-4,512	314,641	154,728
122,064	-4,520	314,283	154,529
123,079	-4,494	313,946	154,378
124,093	-4,742	313,939	154,096
125,108	-4,812	313,539	153,810
126,122	-4,880	313,152	153,535
127,137	-4,927	312,918	153,357
128,151	-4,892	312,847	153,345
129,166	-4,627	312,433	153,409
130,181	-4,723	312,309	153,233
131,195	-4,850	312,173	153,018
132,210	-4,884	311,951	152,859
133,224	-4,689	311,834	152,995
134,239	-4,521	311,606	153,048
135,254	-4,547	311,208	152,811
136,268	-4,584	311,054	152,683
137,283	-4,603	310,780	152,514
138,297	-4,947	310,506	152,004
139,312	-4,849	310,163	151,925
140,327	-4,528	310,130	152,234
141,341	-4,349	310,050	152,369
142,356	-4,356	309,882	152,266
143,370	-4,194	309,515	152,243
144,385	-4,171	309,404	152,198
145,400	-4,302	308,992	151,844
146,414	-4,314	308,969	151,807
147,429	-4,319	308,687	151,650
148,443	-4,283	308,565	151,615
149,458	-4,302	308,323	151,462
150,473	-4,336	308,180	151,343
151,487	-4,296	307,707	151,139
152,502	-4,380	307,792	151,079
153,516	-4,311	307,519	151,004
154,531	-4,310	307,321	150,894
155,546	-4,338	307,107	150,746
156,560	-4,513	306,906	150,452
157,575	-4,545	306,673	150,291
158,589	-4,245	306,348	150,430
159,604	-4,267	306,139	150,291
160,619	-4,308	305,964	150,149
161,633	-4,451	305,769	149,892
162,648	-4,348	305,686	149,945
163,662	-4,166	305,363	149,961
164,677	-4,232	305,116	149,758
165,692	-4,286	305,025	149,644
166,706	-4,272	304,854	149,561
167,721	-4,323	304,706	149,423
168,735	-4,359	304,519	149,281
169,750	-4,122	304,304	149,407
170,764	-4,172	304,117	149,250
171,779	-4,156	303,883	149,138
172,794	-4,220	303,754	148,996
173,808	-4,294	303,304	148,685
174,823	-4,681	303,091	148,172
175,837	-4,861	302,963	147,911
176,852	-4,414	302,861	148,305
177,867	-4,205	302,710	148,433
178,881	-4,215	302,405	148,260
179,896	-4,183	302,193	148,176
180,910	-4,258	302,080	148,030
181,925	-4,307	301,868	147,863
182,940	-4,239	301,722	147,848
183,954	-4,215	301,404	147,703
184,969	-4,256	301,333	147,613
185,983	-4,268	301,101	147,475
186,998	-4,247	300,894	147,381
188,013	-4,100	300,534	147,341
189,027	-4,149	300,401	147,213
190,042	-4,053	300,163	147,181
191,056	-4,027	300,128	147,177
192,071	-4,020	299,831	147,025
193,086	-3,924	299,545	146,969
194,100	-4,117	299,470	146,723
195,115	-4,141	299,235	146,571
196,129	-3,968	298,953	146,595
197,144	-3,978	298,807	146,500
198,159	-4,013	298,586	146,343
199,173	-3,988	298,269	146,200
200,188	-3,918	298,219	146,233
201,202	-4,026	298,024	146,016
202,217	-4,556	297,574	145,250
203,232	-4,606	297,280	145,042
204,246	-4,411	297,131	145,153
205,261	-3,962	297,121	145,585
206,275	-4,111	296,877	145,303
207,290	-3,949	296,648	145,340
208,304	-4,115	296,485	145,081
209,319	-4,232	296,441	144,931
210,334	-4,207	296,167	144,808
211,348	-4,184	296,073	144,772
212,363	-4,219	295,794	144,588
213,377	-3,939	295,477	144,699
214,392	-4,192	295,463	144,427
215,407	-4,333	294,967	144,032
216,421	-4,547	294,858	143,753
217,436	-4,489	294,758	143,749
218,450	-4,469	294,600	143,679
219,465	-4,156	294,357	143,858
220,480	-4,300	294,232	143,641
221,494	-4,311	293,862	143,438
222,509	-4,293	293,845	143,434
223,523	-4,116	293,655	143,503
224,538	-4,213	293,566	143,351
225,553	-3,981	293,307	143,441
226,567	-4,140	293,078	143,160
227,582	-4,119	293,041	143,150
228,596	-4,010	292,645	143,051
229,611	-3,909	292,663	143,147
230,626	-4,180	292,431	142,754
231,640	-4,324	292,053	142,415
232,655	-4,702	291,757	141,886
233,669	-4,620	291,482	141,820
234,684	-4,722	291,296	141,616
235,699	-4,635	291,145	141,616
236,713	-4,554	291,189	141,704
237,728	-4,374	290,957	141,755
238,742	-4,110	290,664	141,858
239,757	-4,161	290,548	141,739
240,772	-4,142	290,393	141,668
241,786	-4,446	290,230	141,280
242,801	-4,335	289,888	141,209
243,815	-4,440	289,896	141,098
244,830	-4,094	289,505	141,233
245,844	-4,284	289,441	141,003
246,859	-4,383	289,322	140,837
247,874	-4,359	289,028	140,704
248,888	-4,420	288,862	140,552
249,903	-4,160	288,733	140,728
250,917	-4,024	288,489	140,729
251,932	-4,020	288,597	140,773
252,947	-3,031	288,609	141,726
253,961	-3,351	288,339	141,271
254,976	-2,163	288,797	142,635
255,990	-0,029	289,301	144,941
257,005	0,118	289,426	145,134
258,020	1,681	289,882	146,868
259,034	2,560	289,982	147,759
260,049	2,350	289,625	147,359
261,063	2,129	289,457	147,048
262,078	2,439	289,418	147,315
263,093	3,154	289,474	148,022
264,107	3,031	289,179	147,739
265,122	3,320	289,087	147,958
266,136	3,280	289,002	147,863
267,151	3,153	288,618	147,531
268,166	2,998	288,367	147,240
269,180	3,092	288,066	147,163
270,195	3,093	288,025	147,130
271,209	2,961	287,899	146,926
272,224	3,046	287,614	146,849
273,239	2,783	287,448	146,499
274,253	2,763	287,246	146,364
275,268	3,093	287,113	146,599
276,282	3,232	286,974	146,648
277,297	2,810	286,694	146,088
278,312	3,100	286,709	146,361
279,326	3,170	286,535	146,326
280,341	3,053	286,443	146,153
281,355	3,031	286,149	145,970
282,370	3,039	285,941	145,858
283,384	2,964	285,610	145,604
284,399	3,203	285,517	145,772
285,414	3,128	285,366	145,610
286,428	3,017	285,216	145,415
287,443	2,907	284,646	145,007
288,457	2,599	284,490	144,623
289,472	2,652	284,404	144,616
290,487	2,705	284,313	144,607
291,501	2,588	284,096	144,373
292,516	2,464	283,820	144,103
293,530	2,423	283,700	143,990
294,545	2,727	283,556	144,191
295,560	2,813	283,348	144,155
296,574	2,521	283,204	143,792
297,589	2,790	283,057	143,959
298,603	2,924	282,992	144,039
299,618	2,834	282,836	143,862
300,633	2,905	282,648	143,821
301,647	2,970	282,354	143,719
302,662	2,763	282,276	143,472
303,676	2,641	281,962	143,185
304,691	2,417	281,672	142,815
305,706	2,230	281,334	142,456
306,720	2,040	281,127	142,160
307,735	2,241	280,930	142,236
308,749	2,632	280,867	142,557
309,764	2,540	280,761	142,404
310,779	2,382	280,449	142,086
311,793	2,242	280,203	141,818
312,808	2,160	280,088	141,671
313,822	2,368	279,866	141,740
314,837	2,315	279,788	141,637
315,852	2,270	279,458	141,416
316,866	2,244	279,355	141,327
317,881	2,290	279,029	141,193
318,895	2,314	278,874	141,124
319,910	2,128	278,737	140,869
320,925	2,296	278,388	140,837
321,939	2,490	278,390	141,004
322,954	2,473	278,432	140,997
323,968	2,489	278,184	140,874
324,983	2,522	278,100	140,849
325,997	2,541	277,863	140,734
327,012	2,499	277,653	140,577
328,027	2,541	277,551	140,552
329,041	2,437	277,377	140,355
330,056	2,502	277,214	140,320
331,070	2,285	276,987	139,992
332,085	2,355	276,786	139,942
333,100	2,454	276,524	139,889
334,114	2,504	276,412	139,866
335,129	2,207	276,130	139,438
336,143	2,420	276,091	139,601
337,158	2,719	276,047	139,841
338,173	2,583	275,703	139,529
339,187	2,433	275,463	139,258
340,202	2,535	275,393	139,304
341,216	2,591	275,137	139,213
342,231	2,556	274,930	139,064
343,246	2,564	274,781	138,983
344,260	2,435	274,594	138,759
345,275	2,562	274,679	138,905
346,289	2,829	274,543	139,067
347,304	2,915	274,318	139,019
348,319	2,607	274,007	138,569
349,333	2,531	273,965	138,467
350,348	2,888	273,778	138,684
351,362	2,926	273,598	138,615
352,377	2,886	273,450	138,491
353,392	2,773	273,310	138,305
354,406	2,858	273,149	138,288
355,421	191,500	1329,017	1402,069
356,435	154,747	1457,700	1402,144
