DTS Sentinel unit serial number:	SN410029Multiplexer serial number:	ORYXHardware model number:	OX2-SRSoftware version number:	ORYX F/W v4,00 Oryx Data Collector v3.7.2.0data status	okinstallation	B4 Nyhavnadifferential loss correction	single-endedforward channel	channel 2reverse channel	N/Adate	2023/12/19time	06:35:13forward acquisition time	300,00reverse acquisition time	0,00gamma	499,1914k internal	0,3127k external	0,3127temperature offset calibration	1,0000default loss term (dB/km)	0,3820temperature slope calibration	1,0000multiplexer offset coefficient	1,0000multiplexer slope coefficient	1,0000fibre end	0,00T internal ref (°C)	21,19T ext. ref 1 (°C)	6,50T ext. ref 2 (°C)	6,65length (m)	temperature (°C)	Stokes	anti-Stokes-744,400	53,757	0,048	-0,035
-743,385	-12,881	-0,143	-0,069
-742,371	-121,510	0,159	0,019
-741,356	-30,759	-0,227	0,095
-740,342	-200,000	-0,022	-0,217
-739,327	-138,926	-0,310	0,025
-738,312	212,053	0,073	-0,086
-737,298	-65,549	-0,187	-0,055
-736,283	-154,297	0,017	0,001
-735,269	-87,557	-0,249	0,056
-734,254	800,000	-0,032	0,068
-733,239	-133,128	-0,459	-0,043
-732,225	800,000	0,025	-0,066
-731,210	-200,000	0,001	-0,071
-730,196	-43,157	0,122	-0,046
-729,181	-52,886	-0,140	-0,048
-728,167	-143,083	-0,159	-0,011
-727,152	-135,608	0,061	0,005
-726,137	-200,000	0,001	-0,047
-725,123	391,193	-0,008	-0,013
-724,108	800,000	-0,091	-0,220
-723,094	589,516	0,063	-0,117
-722,079	314,839	-0,048	-0,067
-721,064	262,394	-0,086	-0,111
-720,050	-200,000	-0,206	0,000
-719,035	-127,204	0,033	0,004
-718,021	-83,361	-0,059	-0,014
-717,006	-200,000	-0,014	-0,073
-715,991	442,571	-0,060	-0,098
-714,977	-118,299	0,083	-0,011
-713,962	-133,966	0,075	-0,007
-712,948	67,868	0,037	0,028
-711,933	420,863	-0,042	0,067
-710,918	613,465	-0,080	-0,149
-709,904	-2,638	-0,146	-0,076
-708,889	-200,000	-0,022	-0,174
-707,875	-115,611	-0,122	0,017
-706,860	800,000	-0,058	-0,183
-705,845	-110,258	0,075	0,012
-704,831	-200,000	-0,017	-0,126
-703,816	-200,000	0,012	0,075
-702,802	39,829	-0,138	-0,092
-701,787	405,231	-0,065	-0,102
-700,772	-58,362	0,091	0,029
-699,758	154,897	0,100	-0,102
-698,743	285,445	-0,021	-0,029
-697,729	-126,484	0,040	0,004
-696,714	-200,000	-0,014	-0,080
-695,699	16,842	-0,107	-0,063
-694,685	94,767	-0,063	-0,053
-693,670	-122,540	-0,113	0,013
-692,656	-200,000	0,016	0,119
-691,641	-96,993	0,050	-0,010
-690,627	-87,743	0,065	0,014
-689,612	-200,000	0,002	-0,030
-688,597	81,614	-0,096	-0,077
-687,583	365,526	-0,050	-0,076
-686,568	-200,000	-0,036	-0,143
-685,554	304,763	0,044	-0,060
-684,539	74,802	0,056	-0,044
-683,524	-13,290	0,079	0,038
-682,510	10,122	0,171	0,097
-681,495	-83,883	-0,069	-0,016
-680,481	138,168	-0,076	-0,074
-679,466	-89,532	-0,136	0,029
-678,451	312,905	-0,021	0,029
-677,437	243,225	-0,008	0,010
-676,422	164,760	0,022	-0,023
-675,408	-24,576	0,019	0,008
-674,393	-153,093	-0,061	0,003
-673,378	-54,390	-0,101	0,034
-672,364	-18,265	-0,075	-0,035
-671,349	-163,960	0,109	-0,004
-670,335	704,843	0,024	-0,046
-669,320	-200,000	-0,014	0,049
-668,305	-127,311	0,084	0,009
-667,291	23,957	-0,135	-0,083
-666,276	-169,774	0,103	-0,003
-665,262	-110,572	-0,189	0,029
-664,247	87,893	-0,049	-0,040
-663,232	125,228	-0,045	0,042
-662,218	800,000	0,042	-0,108
-661,203	-115,390	-0,051	0,007
-660,189	10,228	-0,025	-0,014
-659,174	-171,665	-0,229	0,005
-658,159	-29,993	-0,082	-0,035
-657,145	-171,190	-0,105	0,003
-656,130	-121,607	0,042	-0,005
-655,116	-118,188	0,054	-0,007
-654,101	-115,303	0,108	-0,015
-653,086	800,000	-0,053	-0,130
-652,072	166,276	-0,104	0,109
-651,057	-200,000	-0,020	0,091
-650,043	800,000	-0,030	-0,093
-649,028	-200,000	0,013	-0,094
-648,014	672,814	-0,043	0,083
-646,999	-66,539	0,063	-0,018
-645,984	800,000	0,025	0,058
-644,970	-8,677	-0,121	0,060
-643,955	34,677	-0,158	-0,102
-642,941	-200,000	0,011	0,054
-641,926	626,579	-0,031	-0,058
-640,911	12,085	0,046	-0,026
-639,897	-61,560	0,020	-0,006
-638,882	-200,000	-0,001	-0,101
-637,868	-3,386	-0,097	0,050
-636,853	406,225	0,076	-0,120
-635,838	14,694	-0,171	-0,099
-634,824	22,438	-0,096	0,058
-633,809	-108,389	-0,118	0,019
-632,795	-122,785	-0,099	0,012
-631,780	328,083	0,117	0,166
-630,765	-148,506	-0,136	-0,008
-629,751	800,000	-0,056	-0,118
-628,736	88,090	-0,114	-0,093
-627,722	592,759	-0,065	0,120
-626,707	800,000	0,042	0,089
-625,692	-200,000	0,003	-0,033
-624,678	100,746	0,043	-0,037
-623,663	366,883	0,089	0,133
-622,649	800,000	-0,045	-0,124
-621,634	347,172	-0,072	-0,106
-620,619	-13,366	-0,113	0,054
-619,605	-200,000	0,017	0,081
-618,590	800,000	0,018	0,050
-617,576	7,483	-0,105	-0,058
-616,561	-34,738	-0,111	0,045
-615,546	18,943	0,043	-0,025
-614,532	81,800	-0,128	-0,102
-613,517	-200,000	0,008	0,053
-612,503	70,649	0,086	0,066
-611,488	212,994	0,010	0,012
-610,474	800,000	-0,021	-0,064
-609,459	-12,179	0,034	0,017
-608,444	800,000	-0,064	0,142
-607,430	-68,898	-0,064	0,018
-606,415	800,000	-0,055	-0,114
-605,401	20,197	0,120	-0,072
-604,386	800,000	0,045	0,139
-603,371	99,491	-0,017	-0,015
-602,357	-173,986	0,096	0,002
-601,342	-98,401	-0,102	-0,019
-600,328	-5,866	-0,071	-0,036
-599,313	-105,082	-0,097	-0,016
-598,298	85,680	-0,057	-0,046
-597,284	459,927	0,049	0,082
-596,269	-200,000	-0,096	-0,000
-595,255	260,146	-0,028	-0,035
-594,240	-105,640	-0,131	-0,022
-593,225	800,000	0,012	0,037
-592,211	522,316	0,031	-0,054
-591,196	-67,867	0,087	-0,025
-590,182	148,592	-0,095	-0,095
-589,167	134,541	0,013	0,013
-588,152	59,052	0,048	0,035
-587,138	-65,869	0,130	0,038
-586,123	-200,000	0,001	0,101
-585,109	-92,410	-0,180	0,037
-584,094	-66,926	0,061	-0,018
-583,079	145,039	0,056	-0,055
-582,065	206,208	-0,070	0,081
-581,050	-200,000	-0,035	0,134
-580,036	59,322	0,065	-0,047
-579,021	315,969	0,046	-0,064
-578,006	100,502	0,057	-0,049
-576,992	-200,000	-0,003	-0,092
-575,977	-200,000	-0,015	0,081
-574,963	-92,194	-0,109	0,023
-573,948	-200,000	-0,061	-0,000
-572,934	800,000	-0,051	-0,125
-571,919	-200,000	0,017	0,077
-570,904	36,027	-0,092	-0,060
-569,890	320,743	-0,048	-0,068
-568,875	-87,444	0,021	0,005
-567,861	-200,000	-0,002	-0,102
-566,846	800,000	0,023	-0,070
-565,831	-101,280	-0,092	0,017
-564,817	-3,930	0,064	0,033
-563,802	764,038	-0,024	-0,048
-562,788	800,000	-0,006	0,012
-561,773	800,000	-0,034	-0,088
-560,758	-99,818	-0,095	0,017
-559,744	800,000	0,046	0,111
-558,729	4,908	0,076	0,041
-557,715	-200,000	-0,054	0,198
-556,700	800,000	-0,048	-0,110
-555,685	289,586	-0,102	-0,138
-554,671	12,659	-0,121	0,069
-553,656	108,027	-0,109	-0,096
-552,642	251,554	0,049	-0,062
-551,627	122,776	0,135	-0,125
-550,612	-88,598	-0,088	0,019
-549,598	511,481	-0,034	-0,059
-548,583	102,463	-0,006	0,005
-547,569	313,671	0,014	0,019
-546,554	800,000	-0,054	-0,114
-545,539	-56,540	0,116	-0,038
-544,525	-200,000	0,002	-0,019
-543,510	121,611	0,026	-0,024
-542,496	-200,000	0,029	-0,112
-541,481	-61,268	-0,117	0,036
-540,466	244,676	-0,039	0,048
-539,452	-134,397	-0,076	0,007
-538,437	-200,000	0,006	0,067
-537,423	-53,373	0,013	-0,004
-536,408	175,423	-0,074	0,079
-535,393	-117,714	-0,062	0,008
-534,379	522,563	-0,030	-0,052
-533,364	800,000	0,020	0,044
-532,350	417,980	0,029	-0,046
-531,335	6,627	0,126	-0,069
-530,321	-42,435	0,084	0,031
-529,306	220,621	-0,022	0,026
-528,291	-200,000	0,119	0,000
-527,277	-17,328	-0,119	-0,055
-526,262	-200,000	-0,028	0,124
-525,248	800,000	0,028	0,089
-524,233	-80,033	0,132	0,033
-523,218	-200,000	-0,013	-0,094
-522,204	-200,000	0,019	0,071
-521,189	70,056	-0,123	-0,094
-520,175	-200,000	-0,030	-0,159
-519,160	-23,797	0,121	0,053
-518,145	95,962	-0,100	-0,084
-517,131	73,581	0,048	0,037
-516,116	52,473	0,006	0,004
-515,102	6,776	0,077	-0,042
-514,087	-200,000	-0,023	0,081
-513,072	-53,945	-0,077	-0,026
-512,058	-75,104	-0,013	-0,003
-511,043	800,000	0,045	-0,108
-510,029	257,029	0,059	0,076
-509,014	282,861	0,084	0,111
-507,999	674,623	0,045	0,087
-506,985	-14,579	-0,043	0,020
-505,970	800,000	-0,064	0,144
-504,956	-149,588	-0,098	0,006
-503,941	-75,742	-0,114	0,030
-502,926	531,657	0,034	0,060
-501,912	-113,806	0,096	0,014
-500,897	77,426	0,042	0,033
-499,883	335,712	-0,069	-0,098
-498,868	-49,552	-0,092	0,032
-497,853	-200,000	0,014	-0,126
-496,839	-200,000	0,006	-0,058
-495,824	123,776	0,029	0,027
-494,810	-200,000	-0,008	0,057
-493,795	-17,587	-0,105	0,049
-492,781	-200,000	0,017	-0,159
-491,766	444,864	0,083	0,135
-490,751	-19,598	0,065	-0,030
-489,737	-42,560	0,128	0,048
-488,722	800,000	0,055	0,113
-487,708	486,040	0,023	-0,040
-486,693	800,000	-0,024	-0,061
-485,678	-53,586	0,058	-0,020
-484,664	-54,390	-0,070	0,023
-483,649	-101,543	-0,071	0,013
-482,635	16,626	0,120	-0,070
-481,620	-36,786	-0,033	0,013
-480,605	-1,319	-0,104	0,054
-479,591	123,677	0,043	0,040
-478,576	220,013	0,032	-0,038
-477,562	-47,910	-0,152	0,054
-476,547	254,945	-0,121	0,154
-475,532	76,555	-0,078	-0,061
-474,518	-70,127	0,174	0,048
-473,503	-93,523	0,144	0,029
-472,489	667,982	0,027	-0,052
-471,474	-200,000	0,002	-0,023
-470,459	-200,000	0,026	-0,087
-469,445	-132,674	-0,086	-0,008
-468,430	84,192	0,110	0,088
-467,416	289,865	-0,038	0,051
-466,401	800,000	-0,031	-0,082
-465,386	-6,919	0,089	-0,045
-464,372	27,001	-0,048	0,029
-463,357	-200,000	-0,007	-0,114
-462,343	722,063	-0,053	-0,105
-461,328	-18,673	-0,078	0,036
-460,313	411,004	0,015	-0,023
-459,299	271,287	0,018	-0,024
-458,284	172,475	0,051	-0,054
-457,270	-200,000	-0,002	-0,045
-456,255	800,000	-0,019	0,042
-455,241	19,028	-0,109	-0,064
-454,226	227,737	-0,063	-0,076
-453,211	206,450	0,108	0,124
-452,197	-1,172	-0,084	0,044
-451,182	20,353	0,120	-0,071
-450,168	320,756	0,079	0,111
-449,153	-107,891	-0,107	-0,017
-448,138	-200,000	-0,002	0,017
-447,124	134,922	-0,069	-0,066
-446,109	98,525	0,082	-0,070
-445,095	372,034	-0,105	0,157
-444,080	800,000	-0,046	0,126
-443,065	800,000	-0,075	0,189
-442,051	800,000	-0,016	0,042
-441,036	584,260	-0,072	-0,131
-440,022	100,644	-0,078	-0,066
-439,007	-146,001	0,036	0,002
-437,992	800,000	-0,018	-0,051
-436,978	264,148	0,089	-0,115
-435,963	102,312	0,142	-0,122
-434,949	602,752	0,013	0,024
-433,934	99,082	0,065	-0,056
-432,919	-136,614	0,049	-0,004
-431,905	398,595	-0,094	-0,146
-430,890	4,424	-0,013	0,007
-429,876	41,945	0,078	-0,052
-428,861	205,463	0,067	0,077
-427,846	-117,662	0,175	0,023
-426,832	-200,000	0,051	-0,220
-425,817	93,811	0,051	0,042
-424,803	68,456	0,112	-0,084
-423,788	-200,000	0,033	-0,132
-422,773	381,771	0,029	-0,043
-421,759	800,000	0,025	-0,051
-420,744	-200,000	-0,013	0,056
-419,730	-200,000	0,016	0,064
-418,715	217,279	-0,116	0,136
-417,701	-200,000	0,095	0,000
-416,686	-35,403	-0,024	0,010
-415,671	167,999	0,052	0,054
-414,657	-51,138	-0,071	0,024
-413,642	230,081	0,082	-0,099
-412,628	261,084	-0,072	-0,092
-411,613	-133,594	0,055	0,005
-410,598	-103,849	-0,139	-0,024
-409,584	-94,806	0,092	-0,018
-408,569	-200,000	-0,017	0,196
-407,555	800,000	0,044	0,140
-406,540	315,529	0,017	0,024
-405,525	24,732	0,042	0,026
-404,511	-23,344	-0,082	0,036
-403,496	-200,000	-0,006	-0,115
-402,482	-127,740	0,061	0,006
-401,467	800,000	0,059	0,152
-400,452	-118,141	0,156	0,020
-399,438	14,631	-0,068	0,039
-398,423	105,925	-0,109	-0,095
-397,409	-43,811	0,044	0,016
-396,394	-112,328	-0,107	0,016
-395,379	-200,000	-0,008	0,075
-394,365	140,189	0,081	0,078
-393,350	-184,794	0,229	-0,003
-392,336	800,000	0,012	0,033
-391,321	-88,771	-0,095	0,020
-390,306	-200,000	-0,015	-0,099
-389,292	51,628	-0,097	-0,068
-388,277	-35,417	0,049	0,020
-387,263	291,073	0,050	-0,067
-386,248	91,510	0,185	0,152
-385,233	706,287	0,059	0,115
-384,219	-64,990	0,113	0,033
-383,204	-124,466	-0,085	-0,010
-382,190	-187,724	-0,127	0,001
-381,175	183,278	-0,061	0,066
-380,160	27,462	0,078	-0,048
-379,146	157,009	0,094	0,095
-378,131	-143,125	-0,122	-0,009
-377,117	-2,803	0,023	-0,012
-376,102	234,597	-0,040	0,049
-375,088	29,409	-0,034	0,021
-374,073	118,031	-0,101	-0,091
-373,058	-65,729	-0,090	-0,026
-372,044	-16,298	-0,060	0,028
-371,029	288,267	0,043	-0,057
-370,015	-173,107	0,137	-0,003
-369,000	32,623	0,086	0,055
-367,985	-40,609	-0,020	-0,007
-366,971	-200,000	-0,018	0,064
-365,956	-200,000	0,022	0,089
-364,942	-126,297	0,181	-0,020
-363,927	-200,000	0,102	-0,000
-362,912	128,034	-0,033	-0,031
-361,898	17,083	0,116	0,067
-360,883	-49,272	-0,186	-0,065
-359,869	-106,901	-0,026	-0,004
-358,854	157,846	-0,054	-0,055
-357,839	-200,000	0,001	0,027
-356,825	40,496	0,064	0,043
-355,810	800,000	-0,026	-0,055
-354,796	-71,192	-0,063	0,017
-353,781	605,445	0,027	0,050
-352,766	800,000	-0,027	-0,086
-351,752	136,907	0,068	-0,065
-350,737	-140,542	-0,101	-0,008
-349,723	661,516	0,067	0,128
-348,708	35,344	-0,121	0,078
-347,693	-50,235	-0,131	-0,045
-346,679	150,511	-0,084	0,084
-345,664	-102,315	0,075	0,013
-344,650	800,000	-0,006	0,014
-343,635	-91,996	0,054	0,011
-342,620	-200,000	-0,028	0,110
-341,606	-124,025	-0,177	-0,020
-340,591	320,907	0,044	-0,061
-339,577	264,746	0,039	-0,050
-338,562	800,000	-0,050	0,152
-337,548	800,000	0,031	-0,097
-336,533	-200,000	-0,019	0,088
-335,518	-86,952	0,054	-0,012
-334,504	50,933	-0,069	0,048
-333,489	89,611	-0,080	0,065
-332,475	334,421	0,040	0,057
-331,460	209,843	0,086	-0,099
-330,445	97,953	0,021	-0,018
-329,431	12,656	0,122	-0,069
-328,416	800,000	0,036	0,084
-327,402	500,029	-0,061	0,104
-326,387	800,000	-0,072	0,158
-325,372	-200,000	0,033	0,158
-324,358	53,623	-0,108	-0,076
-323,343	-196,371	-0,113	0,001
-322,329	-21,161	0,047	0,021
-321,314	-144,683	0,084	-0,006
-320,299	682,373	0,041	0,078
-319,285	257,939	0,017	0,022
-318,270	-106,785	-0,042	0,007
-317,256	800,000	-0,040	-0,120
-316,241	68,981	-0,114	-0,085
-315,226	4,963	0,093	0,050
-314,212	-95,171	0,045	0,009
-313,197	17,003	0,166	0,096
-312,183	-200,000	0,012	0,145
-311,168	-8,509	0,021	0,010
-310,153	-87,874	-0,160	-0,035
-309,139	-36,277	-0,059	-0,023
-308,124	-26,728	0,048	-0,020
-307,110	-200,000	0,015	0,061
-306,095	462,865	0,059	0,096
-305,080	592,029	-0,020	0,037
-304,066	188,959	0,024	-0,027
-303,051	-100,802	0,096	-0,017
-302,037	446,297	0,064	-0,103
-301,022	-200,000	0,009	-0,048
-300,008	169,782	-0,067	0,070
-298,993	800,000	0,015	-0,043
-297,978	585,872	0,030	-0,054
-296,964	-107,991	-0,051	-0,008
-295,949	800,000	0,043	-0,094
-294,935	-200,000	-0,020	-0,118
-293,920	-27,201	0,078	-0,033
-292,905	-29,449	0,181	0,075
-291,891	287,070	0,086	0,114
-290,876	800,000	-0,019	0,051
-289,862	-155,500	0,072	-0,003
-288,847	-142,415	-0,031	0,002
-287,832	312,883	0,053	-0,074
-286,818	-200,000	0,020	0,080
-285,803	181,492	0,012	0,013
-284,789	297,780	0,029	-0,039
-283,774	-38,166	-0,100	-0,039
-282,759	-11,141	0,165	0,079
-281,745	-84,246	-0,078	0,018
-280,730	732,621	-0,082	-0,161
-279,716	-32,400	-0,054	0,022
-278,701	-134,551	-0,107	-0,009
-277,686	-200,000	-0,001	-0,113
-276,672	-123,994	0,094	0,011
-275,657	-200,000	0,001	0,077
-274,643	800,000	-0,045	-0,101
-273,628	248,701	-0,068	-0,084
-272,613	-41,427	0,136	0,051
-271,599	20,672	-0,031	-0,019
-270,584	-56,154	-0,063	-0,020
-269,570	-61,344	-0,069	-0,021
-268,555	-64,615	0,088	0,026
-267,540	96,345	0,084	-0,070
-266,526	-200,000	0,005	-0,067
-265,511	-200,000	0,025	-0,098
-264,497	-200,000	0,032	-0,116
-263,482	-10,589	-0,082	-0,040
-262,467	-167,689	-0,061	-0,002
-261,453	-29,741	-0,110	-0,046
-260,438	-147,375	-0,088	-0,005
-259,424	-23,623	0,042	-0,018
-258,409	115,692	-0,014	0,013
-257,395	27,767	0,047	0,029
-256,380	-200,000	0,001	-0,081
-255,365	-154,611	0,140	-0,007
-254,351	5,181	-0,041	0,022
-253,336	-80,592	0,093	-0,022
-252,322	411,001	0,065	-0,101
-251,307	85,632	-0,060	-0,048
-250,292	-36,675	0,020	0,008
-249,278	747,926	-0,017	0,033
-248,263	-200,000	0,034	-0,116
-247,249	-200,000	-0,001	-0,014
-246,234	-17,261	0,021	0,009
-245,219	800,000	-0,026	0,055
-244,205	800,000	0,047	-0,128
-243,190	79,188	-0,120	0,094
-242,176	-47,916	0,055	-0,019
-241,161	59,738	0,088	0,063
-240,146	-200,000	0,002	0,044
-239,132	10,909	0,048	0,026
-238,117	175,627	0,047	-0,050
-237,103	36,583	-0,116	-0,075
-236,088	-200,000	0,010	-0,164
-235,073	-122,040	0,108	0,013
-234,059	-200,000	-0,011	0,077
-233,044	800,000	0,046	0,102
-232,030	-200,000	0,015	0,138
-231,015	800,000	-0,013	-0,039
-230,000	682,596	-0,046	-0,089
-228,986	800,000	-0,063	-0,154
-227,971	-50,567	0,087	0,030
-226,957	220,348	0,081	0,095
-225,942	-15,022	-0,029	-0,013
-224,927	376,739	0,017	-0,025
-223,913	10,120	-0,079	-0,044
-222,898	800,000	-0,027	-0,086
-221,884	-200,000	0,016	0,060
-220,869	-70,085	0,049	-0,013
-219,855	630,988	0,007	-0,012
-218,840	103,261	0,038	-0,033
-217,825	-2,708	-0,077	0,039
-216,811	800,000	-0,026	0,058
-215,796	91,713	-0,064	-0,052
-214,782	800,000	0,050	0,105
-213,767	-121,330	0,043	0,005
-212,752	-51,989	0,119	-0,040
-211,738	-200,000	-0,024	-0,128
-210,723	800,000	-0,027	0,070
-209,709	800,000	0,049	0,151
-208,694	-9,946	-0,038	0,019
-207,679	-77,666	-0,072	0,018
-206,665	268,328	-0,074	0,095
-205,650	4,118	0,059	0,032
-204,636	-121,492	0,127	0,015
-203,621	800,000	-0,012	-0,034
-202,606	99,639	0,081	0,068
-201,592	49,463	-0,183	0,125
-200,577	310,721	0,081	0,111
-199,563	-26,206	-0,120	0,051
-198,548	129,385	-0,077	0,071
-197,533	800,000	-0,025	-0,054
-196,519	-200,000	0,011	-0,058
-195,504	43,823	-0,106	-0,071
-194,490	-200,000	-0,009	-0,131
-193,475	4,244	0,086	0,046
-192,460	109,657	0,087	0,076
-191,446	-132,001	0,057	0,005
-190,431	-54,169	0,208	0,068
-189,417	-200,000	0,005	0,137
-188,402	264,160	0,054	-0,068
-187,387	21,684	0,161	0,095
-186,373	-69,128	0,008	-0,002
-185,358	800,000	0,042	-0,112
-184,344	-200,000	-0,014	0,063
-183,329	-200,000	0,018	0,063
-182,315	-117,381	0,029	-0,004
-181,300	800,000	0,044	-0,138
-180,285	133,754	-0,055	0,051
-179,271	-200,000	0,008	0,070
-178,256	-78,336	-0,122	-0,030
-177,242	522,621	-0,048	0,082
-176,227	-200,000	0,003	0,064
-175,212	-200,000	0,029	-0,097
-174,198	-200,000	0,022	0,090
-173,183	-184,271	0,082	-0,001
-172,169	-200,000	-0,003	0,021
-171,154	-125,143	-0,080	-0,009
-170,139	-121,627	0,132	0,016
-169,125	-118,770	-0,026	-0,003
-168,110	142,024	0,021	0,020
-167,096	310,972	-0,062	-0,084
-166,081	-96,421	0,079	0,015
-165,066	676,987	0,024	0,045
-164,052	-200,000	-0,016	-0,127
-163,037	-37,598	0,122	0,047
-162,023	-200,000	-0,015	-0,104
-161,008	-200,000	0,003	-0,080
-159,993	-109,298	-0,142	-0,022
-158,979	132,601	0,035	0,033
-157,964	47,409	0,048	0,032
-156,950	-200,000	0,008	-0,072
-155,935	-200,000	-0,016	-0,108
-154,920	800,000	-0,020	-0,042
-153,906	-200,000	0,004	0,050
-152,891	-58,449	0,168	0,053
-151,877	422,714	-0,044	0,068
-150,862	586,587	-0,014	-0,025
-149,847	131,051	-0,098	-0,091
-148,833	6,087	0,069	0,037
-147,818	665,593	0,045	0,085
-146,804	133,174	0,045	0,042
-145,789	90,356	0,049	-0,040
-144,775	800,000	-0,075	-0,199
-143,760	800,000	-0,114	-0,237
-142,745	-50,540	-0,057	0,019
-141,731	800,000	-0,008	0,021
-140,716	322,388	0,062	-0,086
-139,702	-116,508	-0,066	0,009
-138,687	800,000	-0,029	-0,087
-137,672	-200,000	0,056	-0,187
-136,658	-56,243	0,067	-0,022
-135,643	800,000	-0,012	0,030
-134,629	-200,000	-0,009	-0,033
-133,614	-164,417	0,037	-0,001
-132,599	10,908	-0,045	-0,025
-131,585	-200,000	-0,010	0,105
-130,570	350,884	0,008	-0,011
-129,556	-146,219	-0,036	0,002
-128,541	-200,000	-0,002	-0,145
-127,526	-125,938	-0,124	-0,013
-126,512	-200,000	-0,070	0,000
-125,497	-200,000	-0,016	0,092
-124,483	-83,960	0,149	-0,034
-123,468	800,000	-0,065	-0,186
-122,453	-200,000	-0,019	-0,143
-121,439	168,850	-0,027	0,028
-120,424	-200,000	-0,002	0,050
-119,410	-200,000	-0,003	-0,043
-118,395	-160,439	0,042	-0,002
-117,380	-134,610	0,067	0,006
-116,366	-28,654	0,033	0,014
-115,351	-200,000	-0,017	-0,077
-114,337	-96,285	-0,090	0,017
-113,322	-138,650	-0,076	0,006
-112,307	149,297	0,073	0,072
-111,293	-200,000	-0,024	0,118
-110,278	335,448	-0,040	-0,056
-109,264	-200,000	-0,044	0,153
-108,249	800,000	-0,050	0,157
-107,234	282,775	0,047	0,061
-106,220	35,083	0,133	-0,084
-105,205	-200,000	-0,007	-0,052
-104,191	-200,000	0,017	0,149
-103,176	398,209	-0,081	0,124
-102,162	-14,434	0,141	0,066
-101,147	-33,834	-0,155	0,062
-100,132	800,000	0,025	-0,079
-99,118	-15,808	-0,098	0,045
-98,103	-200,000	0,040	-0,148
-97,089	50,330	-0,144	0,098
-96,074	-45,388	0,071	-0,025
-95,059	135,825	0,067	0,063
-94,045	-200,000	-0,008	-0,093
-93,030	-156,148	-0,110	0,005
-92,016	245,202	-0,089	-0,109
-91,001	3,114	0,057	0,030
-89,986	84,510	0,039	0,031
-88,972	-43,928	-0,073	0,026
-87,957	-31,404	0,083	-0,034
-86,943	-87,246	-0,110	0,024
-85,928	85,174	-0,047	-0,037
-84,913	207,115	0,068	-0,077
-83,899	9,655	0,038	-0,021
-82,884	800,000	0,018	0,039
-81,870	-200,000	0,002	0,157
-80,855	-200,000	0,011	0,054
-79,840	-112,821	-0,145	-0,021
-78,826	422,833	0,038	-0,060
-77,811	-120,313	-0,027	-0,003
-76,797	118,416	-0,041	0,037
-75,782	-200,000	-0,002	-0,031
-74,767	235,019	-0,048	0,057
-73,753	281,163	0,056	0,073
-72,738	185,402	0,066	0,071
-71,724	598,369	0,063	0,114
-70,709	-47,098	0,076	-0,027
-69,694	-200,000	-0,012	0,136
-68,680	-39,832	-0,091	0,034
-67,665	-10,995	0,098	-0,047
-66,651	119,271	0,090	0,081
-65,636	-200,000	-0,002	-0,057
-64,622	501,318	0,059	-0,100
-63,607	800,000	-0,052	-0,143
-62,592	-200,000	0,002	0,082
-61,578	-39,463	0,095	0,036
-60,563	78,818	-0,035	0,027
-59,549	-200,000	0,033	0,129
-58,534	-133,242	-1,406	-0,127
-57,519	652,474	-0,781	-1,458
-56,505	-200,000	-0,887	-4,417
-55,490	-33,494	0,596	-0,237
-54,476	800,000	4,926	11,710
-53,461	-200,000	14,413	260,474
-52,446	-200,000	695,793	2275,497
-51,432	602,222	1622,758	2935,785
-50,417	117,837	1631,533	1456,221
-49,403	75,314	1284,910	981,348
-48,388	37,270	1022,431	655,117
-47,373	23,417	981,482	583,347
-46,359	22,616	970,683	574,280
-45,344	21,430	966,389	567,846
-44,330	21,405	964,958	566,902
-43,315	21,300	963,478	565,666
-42,300	21,234	962,417	564,808
-41,286	21,282	961,351	564,317
-40,271	21,183	960,453	563,445
-39,257	21,220	959,360	562,901
-38,242	21,230	958,553	562,437
-37,227	21,256	957,620	561,952
-36,213	21,167	956,894	561,216
-35,198	21,123	956,095	560,583
-34,184	21,231	955,309	560,447
-33,169	21,179	954,305	559,670
-32,154	21,270	953,462	559,448
-31,140	21,267	952,428	558,808
-30,125	21,278	951,920	558,523
-29,111	21,228	950,926	557,758
-28,096	21,258	950,303	557,465
-27,082	21,260	949,596	557,034
-26,067	21,227	948,758	556,414
-25,052	21,165	948,036	555,770
-24,038	21,204	947,477	555,545
-23,023	21,226	946,685	555,129
-22,009	21,207	946,172	554,748
-20,994	21,286	945,479	554,570
-19,979	21,222	945,105	554,125
-18,965	21,212	944,409	553,662
-17,950	21,235	943,970	553,458
-16,936	21,194	942,922	552,689
-15,921	21,117	942,417	552,126
-14,906	21,079	941,543	551,473
-13,892	21,161	940,962	551,372
-12,877	21,037	940,399	550,624
-11,863	21,107	939,695	550,413
-10,848	21,126	939,223	550,176
-9,833	21,236	938,707	550,200
-8,819	21,196	938,137	549,717
-7,804	21,091	937,361	548,907
-6,790	21,080	937,003	548,641
-5,775	21,152	936,315	548,443
-4,760	21,146	935,636	548,007
-3,746	21,065	935,072	547,398
-2,731	20,964	934,526	546,739
-1,717	20,879	933,710	545,971
-0,702	20,907	933,126	545,695
0,313	20,764	932,227	545,545
1,327	23,287	929,952	552,088
2,342	30,971	807,228	500,014
3,356	25,843	508,298	306,084
4,371	1,447	374,389	194,351
5,386	-1,646	357,452	181,739
6,400	-2,986	351,488	177,070
7,415	-3,695	348,594	174,744
8,429	-3,838	347,096	173,806
9,444	-3,810	346,118	173,335
10,459	-3,810	345,487	173,003
11,473	-3,776	344,977	172,773
12,488	-3,647	344,370	172,607
13,502	-3,847	343,829	172,083
14,517	-3,664	343,283	172,011
15,531	-3,718	342,870	171,725
16,546	-3,746	342,344	171,413
17,561	-3,864	341,948	171,060
18,575	-3,712	341,479	170,990
19,590	-3,800	341,151	170,707
20,604	-3,760	340,844	170,584
21,619	-3,718	340,417	170,406
22,634	-3,623	340,092	170,339
23,648	-3,893	339,810	169,866
24,663	-3,771	339,458	169,818
25,677	-3,727	339,085	169,668
26,692	-3,664	338,800	169,583
27,707	-3,606	338,533	169,502
28,721	-3,689	338,156	169,201
29,736	-3,825	337,859	168,879
30,750	-3,895	337,775	168,741
31,765	-3,747	337,248	168,634
32,780	-3,829	337,022	168,411
33,794	-3,613	336,836	168,554
34,809	-3,636	336,311	168,249
35,823	-3,764	336,260	168,061
36,838	-3,697	335,873	167,930
37,853	-3,908	335,578	167,524
38,867	-3,850	335,383	167,478
39,882	-3,729	335,005	167,414
40,896	-3,618	334,624	167,336
41,911	-3,717	334,525	167,158
42,926	-3,745	334,328	167,012
43,940	-3,680	333,903	166,860
44,955	-3,704	333,667	166,699
45,969	-3,718	333,515	166,593
46,984	-3,797	333,248	166,354
47,999	-3,691	333,097	166,385
49,013	-3,592	332,698	166,284
50,028	-3,720	332,507	166,027
51,042	-3,642	332,133	165,916
52,057	-3,800	332,069	165,688
53,071	-3,713	331,688	165,582
54,086	-3,679	331,475	165,500
55,101	-3,683	331,208	165,347
56,115	-3,645	330,889	165,217
57,130	-3,698	330,780	165,087
58,144	-3,755	330,440	164,838
59,159	-3,729	330,098	164,683
60,174	-3,712	329,762	164,519
61,188	-3,723	329,580	164,402
62,203	-3,744	329,261	164,204
63,217	-3,724	329,168	164,166
64,232	-3,761	328,918	163,984
65,247	-3,763	328,629	163,823
66,261	-3,888	328,407	163,557
67,276	-3,904	328,179	163,411
68,290	-3,654	327,708	163,443
69,305	-3,685	327,492	163,286
70,320	-3,633	327,370	163,269
71,334	-3,638	327,051	163,089
72,349	-3,660	326,722	162,886
73,363	-3,725	326,359	162,619
74,378	-3,677	326,200	162,578
75,393	-3,683	326,041	162,478
76,407	-3,761	325,805	162,258
77,422	-3,759	325,637	162,162
78,436	-3,651	325,274	162,087
79,451	-3,899	325,068	161,695
80,466	-3,659	324,820	161,824
81,480	-3,804	324,483	161,480
82,495	-3,658	324,228	161,501
83,509	-3,692	323,990	161,330
84,524	-3,657	323,708	161,214
85,539	-3,648	323,498	161,106
86,553	-3,763	323,331	160,881
87,568	-3,733	323,067	160,768
88,582	-3,645	322,796	160,715
89,597	-3,697	322,591	160,542
90,611	-3,586	322,203	160,457
91,626	-3,692	322,157	160,303
92,641	-3,775	321,802	160,021
93,655	-3,656	321,553	160,014
94,670	-3,769	321,223	159,712
95,684	-3,637	321,097	159,779
96,699	-3,651	320,931	159,667
97,714	-3,727	320,677	159,442
98,728	-3,681	320,445	159,364
99,743	-3,447	320,111	159,439
100,757	-3,624	319,884	159,119
101,772	-3,771	319,681	158,843
102,787	-3,707	319,347	158,733
103,801	-3,734	319,129	158,581
104,816	-3,681	319,061	158,590
105,830	-3,771	318,753	158,325
106,845	-3,704	318,470	158,243
107,860	-3,697	318,271	158,138
108,874	-3,711	318,141	158,044
109,889	-3,702	317,849	157,895
110,903	-3,637	317,633	157,844
111,918	-3,688	317,424	157,671
112,933	-3,518	316,997	157,629
113,947	-3,715	316,949	157,378
114,962	-3,641	316,661	157,300
115,976	-3,702	316,426	157,104
116,991	-3,583	316,138	157,075
118,006	-3,590	316,087	157,028
119,020	-3,778	316,003	156,769
120,035	-3,670	315,607	156,675
121,049	-3,598	315,450	156,661
122,064	-3,649	315,195	156,466
123,079	-3,771	315,037	156,242
124,093	-3,758	314,849	156,149
125,108	-3,608	314,496	156,121
126,122	-3,552	314,180	156,010
127,137	-3,701	314,046	155,770
128,151	-3,771	313,893	155,605
129,166	-3,640	313,577	155,575
130,181	-3,741	313,458	155,394
131,195	-3,659	313,018	155,250
132,210	-3,616	312,807	155,177
133,224	-3,616	312,618	155,070
134,239	-3,661	312,321	154,860
135,254	-3,528	312,202	154,929
136,268	-3,698	311,897	154,583
137,283	-3,550	311,633	154,595
138,297	-3,472	311,397	154,547
139,312	-3,642	311,180	154,246
140,327	-3,623	311,105	154,214
141,341	-3,598	310,855	154,104
142,356	-3,540	310,572	154,012
143,370	-3,625	310,520	153,882
144,385	-3,720	310,176	153,598
145,400	-3,516	309,943	153,683
146,414	-3,637	309,842	153,492
147,429	-3,716	309,670	153,310
148,443	-3,725	309,326	153,117
149,458	-3,699	309,148	153,042
150,473	-3,638	309,036	153,037
151,487	-3,536	308,622	152,926
152,502	-3,646	308,512	152,742
153,516	-3,569	308,173	152,641
154,531	-3,574	308,094	152,583
155,546	-3,572	307,725	152,389
156,560	-3,576	307,673	152,346
157,575	-3,571	307,406	152,205
158,589	-3,598	307,193	152,058
159,604	-3,591	306,990	151,950
160,619	-3,633	306,600	151,701
161,633	-3,555	306,408	151,673
162,648	-3,442	306,274	151,711
163,662	-3,450	306,146	151,625
164,677	-3,543	306,057	151,471
165,692	-3,557	305,782	151,308
166,706	-3,464	305,445	151,224
167,721	-3,697	305,319	150,906
168,735	-3,509	305,165	151,011
169,750	-3,579	304,985	150,836
170,764	-3,609	304,776	150,688
171,779	-3,372	304,528	150,797
172,794	-3,485	304,438	150,622
173,808	-3,513	304,028	150,378
174,823	-3,430	303,935	150,404
175,837	-3,582	303,736	150,135
176,852	-3,400	303,410	150,148
177,867	-3,663	303,350	149,834
178,881	-3,579	303,070	149,769
179,896	-3,602	302,929	149,662
180,910	-3,583	302,723	149,567
181,925	-3,562	302,582	149,505
182,940	-3,625	302,179	149,227
183,954	-3,658	302,089	149,136
184,969	-3,485	301,851	149,183
185,983	-3,551	301,850	149,102
186,998	-3,368	301,364	149,035
188,013	-3,613	301,383	148,780
189,027	-3,473	301,027	148,735
190,042	-3,398	300,630	148,602
191,056	-3,549	300,567	148,404
192,071	-3,499	300,434	148,375
193,086	-3,537	300,220	148,218
194,100	-3,405	299,952	148,207
195,115	-3,645	299,863	147,905
196,129	-3,606	299,595	147,800
197,144	-3,506	299,287	147,736
198,159	-3,537	299,134	147,616
199,173	-3,416	298,806	147,563
200,188	-3,565	298,722	147,359
201,202	-3,607	298,470	147,178
202,217	-3,475	298,409	147,268
203,232	-3,615	298,059	146,941
204,246	-3,513	297,906	146,955
205,261	-3,615	297,751	146,763
206,275	-3,570	297,389	146,617
207,290	-3,576	297,266	146,537
208,304	-3,476	297,173	146,579
209,319	-3,429	296,872	146,465
210,334	-3,470	296,662	146,307
211,348	-3,497	296,413	146,143
212,363	-3,440	296,296	146,130
213,377	-3,382	296,018	146,038
214,392	-3,425	295,803	145,876
215,407	-3,521	295,702	145,717
216,421	-3,481	295,587	145,687
217,436	-3,585	295,310	145,433
218,450	-3,612	295,096	145,289
219,465	-3,441	294,796	145,299
220,480	-3,592	294,721	145,098
221,494	-3,624	294,589	144,988
222,509	-3,453	294,291	144,999
223,523	-3,564	294,099	144,781
224,538	-3,501	293,941	144,753
225,553	-3,471	293,692	144,648
226,567	-3,631	293,620	144,440
227,582	-3,437	293,379	144,500
228,596	-3,461	293,211	144,381
229,611	-3,480	292,959	144,226
230,626	-3,485	292,796	144,127
231,640	-3,398	292,435	144,023
232,655	-3,362	292,320	143,989
233,669	-3,528	291,998	143,655
234,684	-3,514	291,945	143,628
235,699	-3,264	291,722	143,753
236,713	-3,353	291,660	143,622
237,728	-3,437	291,246	143,322
238,742	-3,582	291,221	143,154
239,757	-3,380	290,887	143,176
240,772	-3,492	290,869	143,045
241,786	-3,433	290,631	142,973
242,801	-3,361	290,608	143,019
243,815	-3,443	290,271	142,761
244,830	-3,453	290,224	142,715
245,844	-3,380	289,927	142,627
246,859	-3,561	289,683	142,317
247,874	-3,275	289,521	142,504
248,888	-3,472	289,405	142,242
249,903	-3,566	289,131	142,004
250,917	-3,350	288,988	142,131
251,932	-3,445	288,726	141,896
252,947	-3,602	288,648	141,693
253,961	-3,571	288,336	141,557
254,976	-3,202	288,225	141,849
255,990	-3,268	288,035	141,679
257,005	-2,885	288,292	142,165
258,020	-1,016	288,921	144,281
259,034	0,164	289,013	145,462
260,049	0,632	289,024	145,909
261,063	1,212	288,999	146,447
262,078	1,515	288,951	146,704
263,093	1,895	288,908	147,037
264,107	2,170	288,845	147,258
265,122	2,141	288,715	147,151
266,136	2,164	288,490	147,045
267,151	2,220	288,387	147,035
268,166	2,417	288,204	147,118
269,180	2,349	288,041	146,956
270,195	2,174	288,011	146,759
271,209	2,330	287,655	146,715
272,224	2,331	287,458	146,602
273,239	2,364	287,171	146,474
274,253	2,336	286,907	146,300
275,268	2,212	286,766	146,096
276,282	2,223	286,514	145,965
277,297	2,174	286,464	145,879
278,312	2,195	286,230	145,767
279,326	2,310	285,956	145,725
280,341	2,135	285,872	145,501
281,355	2,269	285,697	145,528
282,370	2,167	285,445	145,288
283,384	2,044	285,286	145,077
284,399	2,159	285,162	145,111
285,414	2,125	284,904	144,934
286,428	2,144	284,820	144,897
287,443	2,099	284,518	144,688
288,457	2,242	284,216	144,657
289,472	2,086	284,138	144,457
290,487	1,953	283,971	144,231
291,501	2,050	283,799	144,224
292,516	2,111	283,504	144,119
293,530	1,972	283,461	143,953
294,545	1,985	283,262	143,851
295,560	2,034	283,022	143,762
296,574	2,066	282,694	143,614
297,589	1,976	282,573	143,453
298,603	1,979	282,466	143,389
299,618	1,918	282,355	143,263
300,633	2,120	282,199	143,361
301,647	2,126	282,036	143,272
302,662	2,176	281,839	143,206
303,676	2,291	281,584	143,172
304,691	2,120	281,431	142,920
305,706	2,273	281,220	142,944
306,720	2,135	281,153	142,767
307,735	2,262	280,920	142,757
308,749	2,312	280,753	142,706
309,764	2,246	280,548	142,527
310,779	2,243	280,393	142,432
311,793	2,218	280,196	142,296
312,808	2,094	280,037	142,086
313,822	2,020	279,924	141,947
314,837	2,233	279,594	141,966
315,852	2,232	279,420	141,865
316,866	2,214	279,214	141,730
317,881	2,202	278,957	141,576
318,895	2,081	278,843	141,393
319,910	2,309	278,680	141,510
320,925	2,158	278,571	141,302
321,939	2,272	278,391	141,304
322,954	2,130	278,351	141,139
323,968	2,306	278,092	141,158
324,983	2,381	277,915	141,126
325,997	2,196	277,752	140,859
327,012	2,306	277,505	140,822
328,027	2,154	277,415	140,624
329,041	2,292	277,166	140,612
330,056	2,375	276,986	140,585
331,070	2,143	276,903	140,316
332,085	2,382	276,576	140,358
333,100	2,245	276,477	140,169
334,114	2,227	276,276	140,039
335,129	2,194	276,116	139,914
336,143	2,370	275,935	139,973
337,158	2,432	275,743	139,919
338,173	2,395	275,633	139,817
339,187	2,240	275,354	139,521
340,202	2,254	275,367	139,528
341,216	2,153	275,070	139,272
342,231	2,297	274,831	139,271
343,246	2,413	274,715	139,306
344,260	2,335	274,457	139,091
345,275	2,531	274,279	139,167
346,289	2,411	274,258	139,035
347,304	2,405	274,034	138,904
348,319	2,251	273,848	138,657
349,333	2,594	273,576	138,819
350,348	2,197	273,446	138,379
351,362	2,383	273,167	138,395
352,377	2,269	273,100	138,245
353,392	2,462	272,871	138,292
354,406	2,218	272,738	137,990
355,421	191,344	1348,023	1426,666
356,435	154,480	1479,130	1426,779
