DTS Sentinel unit serial number:	SN410029Multiplexer serial number:	ORYXHardware model number:	OX2-SRSoftware version number:	ORYX F/W v4,00 Oryx Data Collector v3.7.2.0data status	okinstallation	B4 Nyhavnadifferential loss correction	single-endedforward channel	channel 2reverse channel	N/Adate	2023/12/19time	03:30:13forward acquisition time	300,00reverse acquisition time	0,00gamma	499,1914k internal	0,3126k external	0,3126temperature offset calibration	1,0000default loss term (dB/km)	0,3820temperature slope calibration	1,0000multiplexer offset coefficient	1,0000multiplexer slope coefficient	1,0000fibre end	0,00T internal ref (°C)	21,11T ext. ref 1 (°C)	5,68T ext. ref 2 (°C)	5,62length (m)	temperature (°C)	Stokes	anti-Stokes-744,400	-135,836	0,147	0,013
-743,385	-35,728	-0,294	0,118
-742,371	-200,000	0,019	-0,134
-741,356	13,163	-0,177	0,102
-740,342	-200,000	0,004	0,017
-739,327	77,817	-0,135	0,107
-738,312	-116,448	0,145	-0,020
-737,298	-46,302	-0,191	-0,070
-736,283	240,474	0,125	-0,156
-735,269	268,313	-0,111	0,145
-734,254	226,606	-0,049	0,059
-733,239	-85,379	-0,441	-0,102
-732,225	66,734	0,070	-0,053
-731,210	-200,000	0,012	0,095
-730,196	-29,632	0,053	-0,022
-729,181	46,238	-0,099	-0,068
-728,167	-69,488	0,123	-0,035
-727,152	438,049	0,059	-0,096
-726,137	16,547	-0,132	-0,077
-725,123	-58,989	-0,113	0,036
-724,108	-14,808	-0,109	-0,052
-723,094	134,178	-0,109	-0,105
-722,079	-200,000	-0,038	-0,145
-721,064	-5,094	0,047	0,024
-720,050	-73,456	-0,049	-0,013
-719,035	18,041	-0,085	-0,050
-718,021	-63,548	-0,137	-0,041
-717,006	277,244	0,072	-0,095
-715,991	97,103	-0,129	-0,110
-714,977	-101,188	-0,028	-0,005
-713,962	-80,478	-0,007	-0,002
-712,948	97,699	0,078	-0,066
-711,933	128,156	-0,036	0,034
-710,918	184,428	-0,046	0,051
-709,904	-75,481	-0,104	0,027
-708,889	-151,713	-0,139	-0,008
-707,875	-200,000	0,010	-0,175
-706,860	56,167	0,045	-0,033
-705,845	-22,466	0,090	-0,040
-704,831	-131,691	0,039	0,004
-703,816	130,446	-0,045	0,043
-702,802	46,918	0,043	-0,029
-701,787	-200,000	0,032	-0,135
-700,772	400,744	-0,035	-0,055
-699,758	255,204	0,025	0,032
-698,743	-85,407	0,025	-0,006
-697,729	-57,777	0,123	0,040
-696,714	290,099	-0,018	0,024
-695,699	-200,000	-0,006	0,048
-694,685	-104,326	-0,086	-0,015
-693,670	61,569	-0,025	-0,018
-692,656	101,257	0,074	-0,064
-691,641	223,230	-0,023	-0,027
-690,627	800,000	-0,010	0,026
-689,612	800,000	-0,024	-0,072
-688,597	236,767	-0,072	0,089
-687,583	800,000	-0,032	-0,083
-686,568	54,648	0,075	-0,054
-685,554	173,371	0,039	-0,042
-684,539	64,097	0,070	-0,052
-683,524	294,844	0,104	-0,142
-682,510	21,644	-0,077	0,046
-681,495	81,132	-0,071	0,057
-680,481	800,000	-0,011	0,034
-679,466	-200,000	-0,024	-0,113
-678,451	231,860	-0,061	0,074
-677,437	387,615	0,047	-0,073
-676,422	28,327	0,048	0,030
-675,408	280,801	-0,066	0,087
-674,393	373,133	-0,052	0,079
-673,378	214,100	-0,108	-0,127
-672,364	-69,544	-0,053	0,015
-671,349	-200,000	0,002	0,010
-670,335	-12,005	0,053	-0,026
-669,320	-200,000	-0,009	-0,052
-668,305	-200,000	0,014	-0,097
-667,291	594,980	-0,030	-0,055
-666,276	70,939	-0,055	-0,042
-665,262	800,000	-0,064	-0,141
-664,247	-75,081	-0,033	0,009
-663,232	-200,000	0,009	-0,060
-662,218	-50,096	0,079	-0,027
-661,203	32,670	-0,094	-0,060
-660,189	128,701	0,071	0,068
-659,174	152,498	-0,076	-0,077
-658,159	29,599	0,042	-0,026
-657,145	37,155	-0,073	-0,048
-656,130	597,373	0,026	0,047
-655,116	-140,155	-0,048	0,004
-654,101	-30,680	-0,026	-0,011
-653,086	-85,273	0,145	0,033
-652,072	800,000	0,020	-0,051
-651,057	-200,000	-0,002	-0,007
-650,043	-200,000	-0,030	-0,103
-649,028	70,732	0,097	0,075
-648,014	-154,606	-0,052	-0,003
-646,999	-200,000	0,019	0,117
-645,984	-96,474	0,050	0,010
-644,970	565,671	-0,036	0,066
-643,955	-79,476	0,064	-0,016
-642,941	394,552	-0,045	-0,070
-641,926	800,000	0,011	0,030
-640,911	259,937	-0,052	0,067
-639,897	-91,716	0,065	0,014
-638,882	-200,000	0,006	0,033
-637,868	-200,000	-0,003	0,084
-636,853	12,365	-0,200	-0,114
-635,838	-99,752	0,031	-0,006
-634,824	800,000	-0,044	-0,116
-633,809	-200,000	0,020	0,118
-632,795	279,181	0,046	0,061
-631,780	-87,092	-0,231	0,052
-630,765	-200,000	-0,013	-0,054
-629,751	55,065	-0,021	0,015
-628,736	-50,392	-0,097	-0,034
-627,722	534,881	0,036	0,063
-626,707	7,807	0,127	0,070
-625,692	-200,000	-0,006	-0,040
-624,678	50,260	0,069	0,048
-623,663	800,000	-0,051	-0,144
-622,649	81,872	0,020	0,016
-621,634	53,115	0,051	-0,036
-620,619	800,000	-0,064	-0,176
-619,605	800,000	0,041	-0,128
-618,590	43,482	0,087	0,059
-617,576	9,100	-0,095	-0,053
-616,561	118,278	0,062	-0,057
-615,546	-200,000	0,010	-0,085
-614,532	-200,000	0,016	-0,094
-613,517	510,220	0,048	-0,084
-612,503	-35,663	0,176	-0,070
-611,488	-90,715	-0,076	-0,016
-610,474	703,878	0,028	0,055
-609,459	493,694	-0,068	0,116
-608,444	-26,304	-0,040	-0,017
-607,430	-200,000	0,011	-0,070
-606,415	419,088	-0,031	-0,049
-605,401	-83,822	-0,079	0,019
-604,386	167,174	-0,105	0,111
-603,371	-200,000	-0,004	0,042
-602,357	242,333	-0,111	-0,138
-601,342	-61,821	0,160	-0,049
-600,328	270,875	0,037	-0,048
-599,313	-200,000	0,012	-0,104
-598,298	-106,170	-0,102	-0,017
-597,284	-200,000	0,008	-0,181
-596,269	-131,981	0,058	0,006
-595,255	674,864	-0,042	-0,081
-594,240	800,000	0,040	-0,099
-593,225	-200,000	-0,034	0,127
-592,211	800,000	-0,056	-0,155
-591,196	-200,000	-0,002	-0,112
-590,182	-61,097	-0,108	0,033
-589,167	-80,582	-0,021	-0,005
-588,152	94,948	-0,100	0,084
-587,138	800,000	0,052	-0,114
-586,123	800,000	0,028	-0,064
-585,109	-117,298	-0,148	-0,020
-584,094	-200,000	0,002	0,007
-583,079	154,188	0,018	-0,018
-582,065	-17,238	0,059	-0,027
-581,050	290,180	0,047	-0,064
-580,036	-47,723	-0,043	-0,015
-579,021	-200,000	0,017	-0,092
-578,006	73,635	-0,143	-0,110
-576,992	65,946	-0,028	-0,021
-575,977	262,593	0,094	0,121
-574,963	-57,362	-0,056	0,018
-573,948	800,000	0,046	-0,115
-572,934	-12,469	0,069	0,033
-571,919	-71,806	-0,155	-0,042
-570,904	-200,000	-0,002	-0,014
-569,890	280,367	-0,064	-0,085
-568,875	3,861	0,056	0,030
-567,861	-49,454	0,026	-0,009
-566,846	-88,265	0,123	-0,027
-565,831	800,000	-0,030	0,096
-564,817	800,000	-0,029	-0,091
-563,802	-200,000	-0,001	0,069
-562,788	21,660	0,031	0,019
-561,773	184,401	-0,061	-0,066
-560,758	800,000	0,026	0,067
-559,744	-200,000	0,006	0,040
-558,729	92,546	0,066	0,055
-557,715	-134,675	0,057	0,005
-556,700	-113,190	-0,045	-0,007
-555,685	-9,600	0,052	-0,025
-554,671	-31,371	-0,069	-0,029
-553,656	-200,000	-0,003	0,151
-552,642	600,233	0,015	-0,027
-551,627	-174,192	0,093	0,002
-550,612	-200,000	0,014	0,105
-549,598	75,968	-0,089	0,069
-548,583	-119,455	-0,030	-0,004
-547,569	336,978	-0,098	-0,141
-546,554	800,000	-0,013	0,038
-545,539	-200,000	-0,005	-0,038
-544,525	422,651	-0,077	0,122
-543,510	20,024	-0,127	-0,075
-542,496	-79,039	0,037	0,009
-541,481	29,947	0,057	-0,036
-540,466	-200,000	0,001	-0,052
-539,452	115,764	0,076	-0,068
-538,437	148,660	-0,069	-0,069
-537,423	-200,000	0,048	0,193
-536,408	-56,836	-0,047	-0,015
-535,393	-39,162	-0,134	0,052
-534,379	-200,000	0,023	-0,108
-533,364	51,527	0,085	-0,060
-532,350	800,000	0,027	0,060
-531,335	-28,248	-0,149	0,063
-530,321	-91,405	0,027	0,006
-529,306	762,252	-0,037	0,075
-528,291	138,417	-0,070	0,068
-527,277	172,398	-0,050	0,053
-526,262	-94,101	-0,174	-0,035
-525,248	-200,000	0,002	0,012
-524,233	32,759	0,149	-0,095
-523,218	141,628	0,042	0,041
-522,204	-27,163	-0,027	0,012
-521,189	-52,284	-0,050	0,017
-520,175	-200,000	-0,001	-0,009
-519,160	62,634	-0,072	-0,053
-518,145	473,456	0,031	0,052
-517,131	459,837	-0,062	0,102
-516,116	-33,350	-0,034	-0,014
-515,102	-37,878	-0,057	0,022
-514,087	-44,168	-0,146	-0,054
-513,072	745,855	-0,009	0,018
-512,058	722,609	-0,070	-0,138
-511,043	185,333	-0,040	-0,044
-510,029	-6,458	0,124	0,062
-509,014	-60,193	0,035	0,011
-507,999	-45,841	0,060	0,022
-506,985	195,740	-0,108	-0,122
-505,970	-52,338	-0,018	0,006
-504,956	8,176	-0,099	-0,055
-503,941	-200,000	0,007	0,141
-502,926	-58,939	0,067	-0,021
-501,912	-76,554	0,073	-0,019
-500,897	46,324	-0,053	0,036
-499,883	-200,000	0,007	0,051
-498,868	86,160	-0,065	-0,053
-497,853	332,534	-0,059	-0,084
-496,839	115,570	0,055	-0,050
-495,824	-93,134	0,185	-0,038
-494,810	180,753	0,121	0,132
-493,795	42,154	0,068	0,045
-492,781	800,000	-0,030	-0,076
-491,766	-200,000	0,003	0,106
-490,751	-200,000	-0,033	-0,167
-489,737	-98,349	0,090	-0,017
-488,722	800,000	0,017	0,053
-487,708	8,775	-0,113	0,063
-486,693	119,871	0,068	0,062
-485,678	175,086	-0,054	-0,058
-484,664	188,620	0,043	-0,048
-483,649	-200,000	-0,007	-0,052
-482,635	-50,911	-0,062	-0,021
-481,620	-181,490	-0,127	-0,002
-480,605	-63,839	0,200	0,060
-479,591	-66,109	-0,145	-0,042
-478,576	237,294	0,060	0,073
-477,562	-31,748	-0,096	-0,039
-476,547	-171,467	-0,135	0,003
-475,532	78,301	0,142	0,112
-474,518	-130,299	-0,095	-0,009
-473,503	800,000	-0,029	0,077
-472,489	-200,000	-0,003	-0,017
-471,474	-113,705	0,097	0,014
-470,459	-200,000	-0,024	-0,097
-469,445	-180,888	0,159	0,002
-468,430	63,505	0,110	0,081
-467,416	-88,020	-0,054	-0,012
-466,401	110,274	-0,039	-0,035
-465,386	-124,393	0,159	0,018
-464,372	-200,000	0,006	0,087
-463,357	420,110	-0,026	0,041
-462,343	355,351	-0,079	-0,117
-461,328	8,867	-0,160	-0,089
-460,313	-18,293	0,141	0,065
-459,299	548,656	0,091	0,161
-458,284	-153,908	0,171	0,008
-457,270	103,413	0,035	0,030
-456,255	-51,885	-0,118	-0,040
-455,241	355,722	-0,035	-0,052
-454,226	-200,000	-0,004	0,076
-453,211	106,708	0,048	-0,042
-452,197	64,951	0,100	0,074
-451,182	-200,000	-0,002	0,127
-450,168	-200,000	0,022	0,082
-449,153	800,000	-0,014	-0,034
-448,138	-200,000	0,024	-0,084
-447,124	230,854	0,083	0,100
-446,109	800,000	-0,022	-0,070
-445,095	-200,000	0,001	0,041
-444,080	370,976	0,082	0,122
-443,065	-200,000	-0,022	-0,113
-442,051	-200,000	0,014	-0,091
-441,036	17,429	-0,045	-0,026
-440,022	-39,596	-0,122	0,047
-439,007	0,292	0,133	0,070
-437,992	427,661	-0,054	0,085
-436,978	281,374	0,069	-0,091
-435,963	-90,790	0,096	0,020
-434,949	-200,000	-0,004	0,137
-433,934	-141,693	-0,141	0,010
-432,919	-95,653	0,135	0,026
-431,905	100,149	-0,066	-0,056
-430,890	-70,047	-0,139	0,039
-429,876	261,318	-0,057	0,072
-428,861	-200,000	0,005	0,028
-427,846	-200,000	-0,004	0,112
-426,832	158,481	0,048	0,049
-425,817	3,334	-0,068	0,036
-424,803	40,416	0,103	-0,068
-423,788	800,000	-0,035	-0,091
-422,773	-200,000	0,006	-0,020
-421,759	-144,184	0,133	0,009
-420,744	-28,295	-0,045	-0,019
-419,730	800,000	-0,067	-0,198
-418,715	458,046	-0,104	-0,170
-417,701	-200,000	-0,010	0,054
-416,686	243,518	0,034	0,042
-415,671	-138,534	0,163	0,013
-414,657	800,000	0,030	-0,064
-413,642	-162,285	-0,033	-0,001
-412,628	104,319	-0,033	-0,028
-411,613	-200,000	0,020	-0,091
-410,598	369,500	-0,116	-0,174
-409,584	33,805	0,093	-0,059
-408,569	-19,397	0,115	-0,052
-407,555	361,034	0,064	0,094
-406,540	-6,156	0,155	0,078
-405,525	589,675	-0,009	0,017
-404,511	-200,000	-0,022	0,158
-403,496	2,644	-0,117	-0,062
-402,482	24,751	0,087	0,053
-401,467	-200,000	-0,043	0,157
-400,452	22,691	0,008	-0,005
-399,438	-155,342	-0,028	0,001
-398,423	-96,696	-0,106	0,020
-397,409	370,360	0,035	-0,052
-396,394	174,111	-0,033	0,035
-395,379	-200,000	-0,001	-0,018
-394,365	769,633	-0,034	0,069
-393,350	-142,342	0,118	-0,008
-392,336	-105,387	-0,036	0,006
-391,321	161,192	0,030	-0,030
-390,306	105,974	-0,021	-0,018
-389,292	800,000	-0,024	-0,061
-388,277	721,601	-0,053	-0,104
-387,263	317,430	0,041	-0,057
-386,248	800,000	-0,041	-0,102
-385,233	-200,000	0,018	0,067
-384,219	-124,468	0,036	0,004
-383,204	-140,590	0,037	-0,003
-382,190	-163,043	-0,017	0,001
-381,175	-18,037	0,129	0,059
-380,160	376,715	0,046	0,070
-379,146	81,456	0,099	-0,079
-378,131	800,000	0,036	0,082
-377,117	800,000	0,029	0,069
-376,102	-96,233	-0,075	-0,014
-375,088	345,500	-0,009	-0,013
-374,073	-69,859	-0,057	0,016
-373,058	-7,908	0,086	0,042
-372,044	342,737	0,122	0,175
-371,029	-13,847	-0,093	-0,044
-370,015	-111,632	0,029	0,004
-369,000	-200,000	-0,004	0,031
-367,985	74,818	-0,041	0,032
-366,971	-86,203	0,051	0,011
-365,956	-200,000	-0,006	0,096
-364,942	-200,000	-0,047	0,190
-363,927	800,000	-0,035	0,110
-362,912	-26,172	0,076	0,033
-361,898	-27,274	-0,082	-0,035
-360,883	-82,713	-0,229	0,054
-359,869	800,000	0,044	0,132
-358,854	-62,449	0,017	0,005
-357,839	-174,933	-0,099	0,002
-356,825	-55,028	0,179	0,059
-355,810	-200,000	-0,002	0,027
-354,796	100,380	0,092	-0,078
-353,781	-159,277	0,066	-0,003
-352,766	205,448	0,091	-0,103
-351,752	104,826	0,078	-0,068
-350,737	-44,245	0,108	-0,040
-349,723	-119,561	0,059	-0,007
-348,708	78,109	0,007	0,006
-347,693	339,916	-0,037	-0,054
-346,679	-200,000	0,010	-0,142
-345,664	-200,000	-0,010	0,130
-344,650	169,344	-0,064	0,067
-343,635	-29,144	0,020	-0,008
-342,620	-139,014	0,051	-0,004
-341,606	136,236	-0,081	0,077
-340,591	-82,780	-0,140	-0,033
-339,577	25,810	0,116	-0,071
-338,562	136,427	0,016	-0,015
-337,548	-200,000	0,006	0,196
-336,533	800,000	-0,046	0,144
-335,518	-112,756	0,072	0,010
-334,504	477,345	0,035	0,058
-333,489	65,887	0,153	-0,114
-332,475	-79,999	-0,188	-0,046
-331,460	-76,706	-0,097	0,025
-330,445	229,608	-0,032	0,039
-329,431	-200,000	-0,006	0,024
-328,416	-46,495	0,037	0,013
-327,402	-168,380	-0,049	0,001
-326,387	-200,000	0,035	0,247
-325,372	-131,613	-0,127	0,012
-324,358	-200,000	-0,003	-0,097
-323,343	163,793	-0,112	-0,116
-322,329	800,000	0,036	0,089
-321,314	134,081	0,065	-0,061
-320,299	635,058	0,061	0,113
-319,285	208,881	-0,131	0,150
-318,270	99,848	-0,071	-0,060
-317,256	318,654	-0,066	-0,092
-316,241	800,000	-0,078	-0,173
-315,226	12,664	0,062	0,035
-314,212	177,627	0,085	0,090
-313,197	-4,102	0,011	-0,006
-312,183	637,907	0,038	0,071
-311,168	-200,000	0,031	-0,110
-310,153	-27,215	-0,180	-0,076
-309,139	-200,000	0,005	-0,073
-308,124	-167,976	0,116	0,003
-307,110	-200,000	0,013	-0,160
-306,095	-79,882	-0,115	0,028
-305,080	390,853	-0,072	0,110
-304,066	800,000	-0,004	0,010
-303,051	-123,163	-0,110	0,013
-302,037	114,969	0,084	0,075
-301,022	-200,000	-0,015	-0,112
-300,008	334,588	0,054	0,077
-298,993	75,150	0,091	0,070
-297,978	800,000	0,035	-0,079
-296,964	-200,000	-0,022	0,096
-295,949	466,012	0,061	-0,100
-294,935	800,000	0,077	0,172
-293,920	800,000	-0,036	-0,079
-292,905	-35,742	0,090	0,035
-291,891	-200,000	-0,001	-0,065
-290,876	800,000	0,020	-0,043
-289,862	-81,609	0,062	-0,015
-288,847	-200,000	0,009	-0,049
-287,832	-145,038	-0,061	-0,004
-286,818	800,000	0,047	0,116
-285,803	-86,198	-0,025	-0,005
-284,789	133,326	0,053	-0,050
-283,774	800,000	0,060	0,132
-282,759	13,453	0,073	0,041
-281,745	-49,268	0,020	0,007
-280,730	800,000	0,018	-0,041
-279,716	268,204	0,038	0,048
-278,701	-48,718	0,024	-0,008
-277,686	-66,338	0,123	0,036
-276,672	-14,329	-0,051	-0,024
-275,657	-76,048	0,146	-0,037
-274,643	-34,365	0,027	-0,011
-273,628	492,141	0,079	-0,133
-272,613	274,720	-0,050	-0,065
-271,599	119,884	-0,073	0,067
-270,584	-200,000	-0,024	-0,114
-269,570	186,954	-0,054	0,059
-268,555	38,690	-0,086	-0,056
-267,540	-60,897	0,046	-0,014
-266,526	-64,071	-0,116	0,034
-265,511	10,970	0,055	-0,031
-264,497	-42,951	-0,061	0,022
-263,482	378,933	-0,059	0,089
-262,467	-200,000	-0,010	0,080
-261,453	-114,108	-0,119	0,017
-260,438	800,000	-0,035	-0,078
-259,424	30,063	-0,058	-0,036
-258,409	42,104	-0,041	0,027
-257,395	350,343	0,011	-0,016
-256,380	-55,697	0,146	-0,048
-255,365	-130,082	-0,092	0,009
-254,351	-129,986	-0,125	-0,012
-253,336	11,966	-0,102	-0,057
-252,322	128,161	0,042	-0,039
-251,307	-20,069	-0,064	0,029
-250,292	86,294	0,103	-0,083
-249,278	371,528	0,087	0,129
-248,263	41,573	0,121	0,080
-247,249	-200,000	0,017	0,070
-246,234	-44,326	0,046	0,017
-245,219	86,563	-0,063	-0,051
-244,205	128,176	-0,072	-0,067
-243,190	276,143	0,050	0,065
-242,176	165,139	0,059	0,061
-241,161	-61,297	0,112	-0,034
-240,146	20,403	-0,018	0,010
-239,132	800,000	-0,086	-0,203
-238,117	-200,000	-0,009	-0,141
-237,103	320,853	0,059	-0,082
-236,088	735,126	-0,049	-0,096
-235,073	-200,000	-0,002	-0,052
-234,059	223,481	-0,069	0,082
-233,044	226,719	-0,021	-0,025
-232,030	-86,624	0,061	-0,014
-231,015	-106,751	-0,198	-0,032
-230,000	331,574	-0,087	-0,122
-228,986	373,133	0,049	-0,073
-227,971	259,342	-0,034	-0,043
-226,957	800,000	0,023	0,050
-225,942	272,025	-0,014	0,018
-224,927	800,000	0,001	0,003
-223,913	-50,915	0,079	-0,027
-222,898	93,349	-0,099	-0,082
-221,884	800,000	-0,073	-0,165
-220,869	19,299	0,174	0,102
-219,855	800,000	0,088	0,254
-218,840	-64,680	-0,106	0,031
-217,825	-74,565	0,030	0,008
-216,811	-200,000	-0,007	0,027
-215,796	-200,000	0,004	-0,115
-214,782	-200,000	-0,012	-0,097
-213,767	800,000	0,011	0,034
-212,752	-162,690	0,123	-0,004
-211,738	238,673	0,035	-0,043
-210,723	184,129	-0,071	-0,077
-209,709	-10,863	0,100	0,048
-208,694	-56,017	-0,076	0,025
-207,679	800,000	0,026	-0,077
-206,665	-25,419	-0,095	0,041
-205,650	-165,291	-0,046	0,001
-204,636	-109,172	0,047	-0,007
-203,621	-200,000	0,002	0,006
-202,606	800,000	-0,038	-0,104
-201,592	620,441	-0,075	-0,138
-200,577	639,407	-0,075	-0,140
-199,563	-200,000	0,015	-0,050
-198,548	-61,934	0,117	0,036
-197,533	-7,113	0,192	0,094
-196,519	800,000	0,020	0,042
-195,504	599,544	0,047	-0,085
-194,490	800,000	-0,053	-0,136
-193,475	138,788	0,047	0,045
-192,460	214,850	0,085	-0,098
-191,446	-58,823	0,031	-0,010
-190,431	800,000	0,042	0,091
-189,417	800,000	0,010	0,028
-188,402	-200,000	0,010	0,250
-187,387	-154,881	-0,102	-0,005
-186,373	-73,524	0,070	0,018
-185,358	331,582	-0,040	0,056
-184,344	15,903	-0,019	0,011
-183,329	13,642	0,021	-0,012
-182,315	28,530	0,053	0,032
-181,300	-114,465	-0,132	0,018
-180,285	258,740	-0,035	0,044
-179,271	-200,000	-0,004	0,043
-178,256	764,929	0,026	-0,052
-177,242	23,465	0,039	0,023
-176,227	158,169	0,065	-0,066
-175,212	-70,812	0,060	0,016
-174,198	-200,000	-0,032	0,107
-173,183	292,500	-0,054	-0,072
-172,169	306,267	-0,034	-0,046
-171,154	-200,000	-0,019	0,116
-170,139	-200,000	0,027	0,156
-169,125	-52,170	-0,091	-0,030
-168,110	-104,198	0,045	0,008
-167,096	364,485	-0,111	0,164
-166,081	-100,639	0,160	0,029
-165,066	-38,798	-0,089	0,034
-164,052	204,430	-0,016	-0,018
-163,037	408,286	-0,085	0,132
-162,023	560,439	0,055	-0,098
-161,008	800,000	0,020	0,064
-159,993	9,432	0,094	0,052
-158,979	-19,578	-0,052	-0,023
-157,964	-200,000	0,006	-0,031
-156,950	39,348	0,005	0,003
-155,935	-124,609	-0,027	0,003
-154,920	-164,153	0,093	0,003
-153,906	333,778	-0,072	0,102
-152,891	-50,550	0,039	0,013
-151,877	800,000	0,072	-0,197
-150,862	120,312	-0,042	-0,038
-149,847	-135,635	0,028	-0,002
-148,833	-200,000	0,023	-0,088
-147,818	69,846	-0,047	0,035
-146,804	-126,239	0,048	0,005
-145,789	397,264	0,021	0,033
-144,775	-200,000	0,017	-0,086
-143,760	191,002	-0,034	-0,037
-142,745	70,201	-0,122	-0,092
-141,731	-200,000	0,007	-0,124
-140,716	340,484	0,075	-0,107
-139,702	313,553	0,049	-0,068
-138,687	45,991	0,059	-0,040
-137,672	-70,407	-0,094	-0,026
-136,658	-200,000	-0,001	0,021
-135,643	-167,190	-0,134	-0,004
-134,629	-68,576	0,088	0,025
-133,614	-18,846	0,086	-0,039
-132,599	-93,611	0,079	-0,016
-131,585	162,572	-0,115	0,117
-130,570	-200,000	-0,002	-0,012
-129,556	-177,738	0,082	0,001
-128,541	203,384	0,036	0,040
-127,526	-200,000	-0,002	-0,029
-126,512	-39,226	0,025	0,010
-125,497	137,998	0,051	0,049
-124,483	218,924	-0,019	-0,023
-123,468	514,586	0,042	-0,072
-122,453	-59,623	-0,024	-0,007
-121,439	204,385	0,038	-0,042
-120,424	800,000	0,021	-0,048
-119,410	321,808	0,060	-0,083
-118,395	5,853	0,105	-0,056
-117,380	800,000	0,043	-0,094
-116,366	127,836	0,107	-0,099
-115,351	-200,000	0,009	-0,060
-114,337	-200,000	0,010	0,107
-113,322	-160,037	-0,034	0,001
-112,307	-34,762	0,182	-0,072
-111,293	6,356	0,055	0,030
-110,278	642,639	0,060	0,112
-109,264	800,000	0,034	0,098
-108,249	-200,000	0,040	-0,175
-107,234	34,201	-0,053	-0,033
-106,220	800,000	0,041	-0,088
-105,205	800,000	-0,048	0,107
-104,191	151,563	0,037	0,037
-103,176	-200,000	-0,004	0,043
-102,162	48,034	-0,126	0,085
-101,147	443,760	0,042	-0,067
-100,132	47,386	-0,109	-0,074
-99,118	99,153	-0,090	-0,075
-98,103	-200,000	0,014	0,050
-97,089	-85,403	0,119	0,027
-96,074	-12,425	-0,018	0,009
-95,059	-176,139	-0,092	-0,002
-94,045	511,030	-0,018	0,030
-93,030	290,948	-0,053	-0,070
-92,016	-8,787	-0,033	0,016
-91,001	-200,000	-0,038	-0,133
-89,986	-52,928	-0,086	-0,029
-88,972	-200,000	0,048	0,164
-87,957	800,000	0,041	-0,118
-86,943	194,507	0,056	-0,061
-85,928	-200,000	0,003	-0,111
-84,913	95,714	0,042	-0,035
-83,899	-47,229	-0,146	-0,051
-82,884	-200,000	0,022	0,159
-81,870	230,999	0,059	0,070
-80,855	138,568	-0,057	0,054
-79,840	-200,000	0,023	0,103
-78,826	-2,210	0,067	-0,034
-77,811	-73,876	0,063	0,016
-76,797	800,000	-0,021	-0,056
-75,782	485,861	-0,080	0,133
-74,767	165,377	-0,058	-0,060
-73,753	-130,740	0,069	0,007
-72,738	574,097	0,041	-0,073
-71,724	-67,496	-0,108	-0,031
-70,709	421,531	0,048	0,074
-69,694	357,061	-0,124	0,180
-68,680	79,393	-0,036	-0,028
-67,665	-200,000	0,016	0,191
-66,651	-50,187	0,067	0,023
-65,636	800,000	-0,053	0,166
-64,622	444,988	-0,042	-0,067
-63,607	640,363	-0,035	0,064
-62,592	800,000	0,038	-0,086
-61,578	-52,410	0,065	0,022
-60,563	800,000	0,057	0,146
-59,549	-200,000	0,011	-0,044
-58,534	-92,846	-1,340	-0,269
-57,519	586,739	-0,903	-1,619
-56,505	-200,000	-0,835	-4,325
-55,490	-41,370	0,581	-0,216
-54,476	800,000	4,852	11,760
-53,461	-200,000	14,534	260,758
-52,446	-200,000	695,548	2277,821
-51,432	604,410	1622,119	2939,645
-50,417	118,201	1631,049	1457,932
-49,403	75,761	1284,486	983,108
-48,388	37,314	1022,162	655,281
-47,373	23,351	981,295	583,183
-46,359	22,501	970,673	574,063
-45,344	21,347	966,319	567,696
-44,330	21,302	964,867	566,675
-43,315	21,226	963,320	565,496
-42,300	21,195	962,330	564,791
-41,286	21,172	961,176	564,017
-40,271	21,124	960,345	563,351
-39,257	21,171	959,340	562,892
-38,242	21,108	958,551	562,203
-37,227	21,120	957,783	561,769
-36,213	21,147	956,669	561,181
-35,198	21,057	955,696	560,297
-34,184	21,164	955,211	560,334
-33,169	21,125	954,265	559,632
-32,154	21,178	953,303	559,218
-31,140	21,200	952,272	558,660
-30,125	21,209	951,707	558,334
-29,111	21,108	951,118	557,642
-28,096	21,102	950,105	557,007
-27,082	21,127	949,553	556,741
-26,067	21,176	948,454	556,232
-25,052	21,128	948,101	555,850
-24,038	21,127	947,324	555,368
-23,023	21,166	946,623	555,061
-22,009	21,220	945,908	554,793
-20,994	21,181	945,425	554,363
-19,979	21,253	944,722	554,157
-18,965	21,139	944,165	553,445
-17,950	21,130	943,637	553,086
-16,936	21,131	942,865	552,616
-15,921	21,061	942,223	551,992
-14,906	21,035	941,547	551,493
-13,892	21,044	940,940	551,143
-12,877	21,016	940,196	550,597
-11,863	20,983	939,823	550,253
-10,848	21,027	939,074	549,931
-9,833	21,158	938,587	550,039
-8,819	21,084	938,001	549,440
-7,804	21,075	937,353	549,010
-6,790	20,965	936,865	548,354
-5,775	21,073	936,163	548,263
-4,760	21,035	935,641	547,815
-3,746	21,038	934,780	547,299
-2,731	20,839	934,414	546,434
-1,717	20,864	933,494	545,956
-0,702	20,904	932,888	545,704
0,313	20,645	932,302	545,369
1,327	23,213	929,930	552,002
2,342	30,741	807,209	499,524
3,356	25,006	508,228	304,698
4,371	0,341	373,883	192,722
5,386	-2,542	356,918	180,418
6,400	-3,366	350,980	176,404
7,415	-3,991	348,699	174,490
8,429	-3,803	347,421	174,061
9,444	-3,772	346,235	173,488
10,459	-3,796	345,760	173,206
11,473	-3,781	345,158	172,907
12,488	-3,878	344,462	172,427
13,502	-4,052	344,077	172,014
14,517	-3,772	343,370	171,975
15,531	-3,720	342,993	171,834
16,546	-3,735	342,687	171,647
17,561	-3,687	342,140	171,414
18,575	-3,625	341,776	171,290
19,590	-3,594	341,359	171,102
20,604	-3,523	340,852	170,915
21,619	-3,659	340,669	170,649
22,634	-3,758	340,286	170,326
23,648	-3,794	339,927	170,089
24,663	-3,741	339,673	170,009
25,677	-3,742	339,349	169,830
26,692	-3,614	338,978	169,779
27,707	-3,616	338,567	169,555
28,721	-3,589	338,306	169,441
29,736	-3,615	337,915	169,199
30,750	-3,836	337,850	168,895
31,765	-3,639	337,588	168,978
32,780	-3,720	337,173	168,661
33,794	-3,556	336,966	168,732
34,809	-3,833	336,821	168,325
35,823	-3,719	336,361	168,211
36,838	-3,781	336,122	168,005
37,853	-3,719	335,801	167,901
38,867	-3,706	335,415	167,709
39,882	-3,589	335,175	167,708
40,896	-3,560	334,857	167,568
41,911	-3,750	334,641	167,226
42,926	-3,752	334,414	167,095
43,940	-3,844	334,284	166,909
44,955	-3,593	333,762	166,922
45,969	-3,705	333,550	166,672
46,984	-3,641	333,423	166,668
47,999	-3,622	333,155	166,541
49,013	-3,695	332,969	166,349
50,028	-3,645	332,615	166,215
51,042	-3,800	332,421	165,926
52,057	-3,676	332,211	165,948
53,071	-3,720	331,809	165,683
54,086	-3,516	331,559	165,775
55,101	-3,610	331,393	165,570
56,115	-3,646	331,104	165,370
57,130	-3,722	330,989	165,211
58,144	-3,758	330,492	164,908
59,159	-3,753	330,206	164,756
60,174	-3,809	330,228	164,688
61,188	-3,660	329,694	164,576
62,203	-3,703	329,444	164,389
63,217	-3,691	329,437	164,384
64,232	-3,772	328,945	164,032
65,247	-3,710	328,772	164,001
66,261	-3,713	328,575	163,885
67,276	-3,729	328,279	163,705
68,290	-3,669	328,030	163,634
69,305	-3,597	327,688	163,529
70,320	-3,642	327,430	163,335
71,334	-3,697	327,079	163,084
72,349	-3,832	326,893	162,826
73,363	-3,749	326,642	162,779
74,378	-3,616	326,333	162,759
75,393	-3,651	325,980	162,530
76,407	-3,724	325,857	162,372
77,422	-3,705	325,650	162,275
78,436	-3,651	325,370	162,182
79,451	-3,726	325,107	161,953
80,466	-3,733	324,887	161,821
81,480	-3,661	324,525	161,706
82,495	-3,759	324,342	161,492
83,509	-3,565	324,228	161,636
84,524	-3,534	323,819	161,452
85,539	-3,542	323,591	161,316
86,553	-3,596	323,450	161,171
87,568	-3,601	323,338	161,094
88,582	-3,683	322,887	160,765
89,597	-3,552	322,591	160,748
90,611	-3,639	322,434	160,560
91,626	-3,676	322,233	160,404
92,641	-3,773	322,009	160,172
93,655	-3,730	321,740	160,071
94,670	-3,534	321,584	160,195
95,684	-3,709	321,271	159,832
96,699	-3,658	321,029	159,754
97,714	-3,575	320,783	159,708
98,728	-3,573	320,555	159,583
99,743	-3,559	320,366	159,490
100,757	-3,721	320,035	159,133
101,772	-3,609	319,726	159,087
102,787	-3,677	319,510	158,892
103,801	-3,721	319,319	158,735
104,816	-3,661	319,263	158,759
105,830	-3,669	318,892	158,551
106,845	-3,501	318,642	158,595
107,860	-3,607	318,375	158,333
108,874	-3,675	318,223	158,169
109,889	-3,769	317,943	157,914
110,903	-3,580	317,652	157,960
111,918	-3,562	317,455	157,868
112,933	-3,705	317,318	157,630
113,947	-3,718	317,082	157,486
114,962	-3,569	316,693	157,439
115,976	-3,738	316,595	157,194
116,991	-3,672	316,326	157,118
118,006	-3,659	316,117	157,013
119,020	-3,668	315,948	156,906
120,035	-3,754	315,864	156,757
121,049	-3,770	315,746	156,667
122,064	-3,714	315,311	156,498
123,079	-3,639	315,134	156,477
124,093	-3,707	314,715	156,182
125,108	-3,553	314,541	156,247
126,122	-3,704	314,493	156,047
127,137	-3,576	314,201	156,026
128,151	-3,536	313,981	155,945
129,166	-3,588	313,713	155,742
130,181	-3,581	313,461	155,611
131,195	-3,680	313,247	155,385
132,210	-3,591	313,047	155,367
133,224	-3,747	312,904	155,116
134,239	-3,529	312,604	155,186
135,254	-3,613	312,136	154,850
136,268	-3,535	311,901	154,803
137,283	-3,481	311,798	154,794
138,297	-3,671	311,697	154,529
139,312	-3,713	311,366	154,307
140,327	-3,607	311,256	154,351
141,341	-3,679	311,078	154,173
142,356	-3,727	310,763	153,952
143,370	-3,552	310,445	153,966
144,385	-3,628	310,321	153,810
145,400	-3,638	310,095	153,674
146,414	-3,625	310,000	153,627
147,429	-3,552	309,749	153,565
148,443	-3,771	309,571	153,233
149,458	-3,722	309,274	153,124
150,473	-3,612	309,090	153,135
151,487	-3,814	308,901	152,815
152,502	-3,621	308,639	152,875
153,516	-3,483	308,255	152,815
154,531	-3,751	308,190	152,489
155,546	-3,534	307,915	152,566
156,560	-3,456	307,618	152,488
157,575	-3,682	307,555	152,205
158,589	-3,645	307,264	152,087
159,604	-3,584	306,943	151,978
160,619	-3,561	306,656	151,847
161,633	-3,547	306,709	151,874
162,648	-3,534	306,595	151,817
163,662	-3,494	306,283	151,691
164,677	-3,658	306,102	151,418
165,692	-3,490	305,743	151,401
166,706	-3,440	305,733	151,434
167,721	-3,529	305,394	151,160
168,735	-3,721	305,363	150,932
169,750	-3,673	305,015	150,796
170,764	-3,510	304,836	150,863
171,779	-3,725	304,690	150,555
172,794	-3,493	304,372	150,625
173,808	-3,409	304,175	150,601
174,823	-3,508	303,975	150,386
175,837	-3,682	303,807	150,110
176,852	-3,651	303,583	150,018
177,867	-3,573	303,388	149,988
178,881	-3,618	303,071	149,772
179,896	-3,547	302,938	149,766
180,910	-3,571	302,756	149,638
181,925	-3,537	302,595	149,580
182,940	-3,622	302,389	149,378
183,954	-3,601	302,216	149,300
184,969	-3,394	302,004	149,395
185,983	-3,561	301,891	149,154
186,998	-3,614	301,638	148,962
188,013	-3,503	301,342	148,916
189,027	-3,417	301,116	148,878
190,042	-3,650	300,898	148,520
191,056	-3,499	300,768	148,596
192,071	-3,792	300,513	148,158
193,086	-3,673	300,195	148,110
194,100	-3,529	299,933	148,113
195,115	-3,359	299,749	148,182
196,129	-3,514	299,708	147,991
197,144	-3,701	299,336	147,605
198,159	-3,617	299,084	147,552
199,173	-3,472	298,865	147,579
200,188	-3,524	298,728	147,445
201,202	-3,672	298,545	147,191
202,217	-3,559	298,460	147,251
203,232	-3,595	298,101	147,024
204,246	-3,489	297,884	147,011
205,261	-3,483	297,730	146,928
206,275	-3,560	297,512	146,729
207,290	-3,388	297,255	146,763
208,304	-3,409	297,179	146,691
209,319	-3,344	296,886	146,599
210,334	-3,588	296,750	146,273
211,348	-3,406	296,468	146,303
212,363	-3,430	296,242	146,155
213,377	-3,342	296,074	146,147
214,392	-3,643	295,843	145,719
215,407	-3,576	295,744	145,725
216,421	-3,448	295,515	145,727
217,436	-3,636	295,301	145,420
218,450	-3,576	295,140	145,388
219,465	-3,870	294,971	144,998
220,480	-3,557	294,657	145,143
221,494	-3,573	294,526	145,049
222,509	-3,559	294,326	144,952
223,523	-3,557	294,097	144,828
224,538	-3,710	294,025	144,628
225,553	-3,554	293,792	144,655
226,567	-3,560	293,599	144,542
227,582	-3,500	293,330	144,456
228,596	-3,601	293,241	144,299
229,611	-3,773	293,174	144,082
230,626	-3,530	292,814	144,133
231,640	-3,609	292,741	144,006
232,655	-3,500	292,543	144,003
233,669	-3,419	292,252	143,928
234,684	-3,620	292,123	143,653
235,699	-3,437	291,820	143,672
236,713	-3,453	291,679	143,573
237,728	-3,397	291,501	143,528
238,742	-3,463	291,209	143,307
239,757	-3,659	291,023	143,010
240,772	-3,750	290,871	142,833
241,786	-3,583	290,641	142,871
242,801	-3,541	290,417	142,789
243,815	-3,658	290,403	142,655
244,830	-3,358	290,073	142,774
245,844	-3,464	289,923	142,584
246,859	-3,703	289,808	142,281
247,874	-3,580	289,572	142,273
248,888	-3,547	289,363	142,189
249,903	-3,615	289,127	141,994
250,917	-3,550	288,895	141,931
251,932	-3,637	288,773	141,774
252,947	-3,963	288,519	141,319
253,961	-4,307	287,995	140,715
254,976	-4,804	287,641	140,048
255,990	-4,606	287,700	140,256
257,005	-3,190	288,143	141,835
258,020	-0,890	288,921	144,445
259,034	0,399	289,197	145,824
260,049	1,078	289,186	146,466
261,063	1,425	289,165	146,780
262,078	1,692	289,021	146,953
263,093	1,814	289,020	147,058
264,107	2,116	288,950	147,302
265,122	2,171	288,808	147,270
266,136	2,363	288,517	147,294
267,151	2,414	288,462	147,302
268,166	2,428	288,101	147,119
269,180	2,277	288,244	147,032
270,195	2,460	287,719	146,928
271,209	2,616	287,528	146,968
272,224	2,448	287,533	146,795
273,239	2,332	287,234	146,517
274,253	2,402	287,133	146,520
275,268	2,188	286,869	146,167
276,282	2,232	286,737	146,129
277,297	2,245	286,461	145,987
278,312	2,220	286,325	145,882
279,326	2,385	286,140	145,932
280,341	2,217	285,986	145,679
281,355	2,227	285,753	145,558
282,370	2,334	285,441	145,488
283,384	2,205	285,251	145,255
284,399	2,081	285,210	145,102
285,414	2,140	285,034	145,056
286,428	2,029	284,931	144,885
287,443	2,090	284,550	144,737
288,457	2,145	284,326	144,663
289,472	2,151	284,124	144,552
290,487	1,912	284,042	144,270
291,501	2,080	283,885	144,337
292,516	2,023	283,535	144,092
293,530	2,108	283,480	144,133
294,545	2,094	283,234	143,981
295,560	2,032	283,127	143,855
296,574	1,958	282,950	143,682
297,589	2,077	282,695	143,653
298,603	1,997	282,472	143,450
299,618	2,122	282,253	143,445
300,633	1,983	282,316	143,333
301,647	2,084	281,992	143,251
302,662	2,289	281,843	143,356
303,676	2,210	281,869	143,281
304,691	2,352	281,542	143,236
305,706	2,390	281,304	143,138
306,720	2,305	281,213	142,999
307,735	2,258	281,025	142,847
308,749	2,420	280,727	142,834
309,764	2,294	280,515	142,596
310,779	2,361	280,406	142,590
311,793	2,240	280,349	142,435
312,808	2,288	280,056	142,318
313,822	2,142	280,040	142,161
314,837	2,173	279,793	142,052
315,852	2,210	279,455	141,902
316,866	2,345	279,419	141,997
317,881	2,374	279,204	141,902
318,895	2,196	278,945	141,592
319,910	2,083	278,830	141,416
320,925	2,177	278,614	141,382
321,939	2,204	278,456	141,314
322,954	2,135	278,329	141,172
323,968	2,375	278,096	141,265
324,983	2,320	277,946	141,125
325,997	2,306	277,792	141,021
327,012	2,296	277,627	140,915
328,027	2,395	277,414	140,886
329,041	2,184	277,338	140,640
330,056	2,270	276,986	140,528
331,070	2,431	276,885	140,613
332,085	2,397	276,758	140,505
333,100	2,375	276,482	140,332
334,114	2,415	276,235	140,232
335,129	2,149	276,169	139,940
336,143	2,312	275,954	139,969
337,158	2,444	275,695	139,946
338,173	2,528	275,469	139,896
339,187	2,321	275,428	139,673
340,202	2,396	275,272	139,650
341,216	2,348	275,121	139,517
342,231	2,205	274,963	139,293
343,246	2,353	274,786	139,327
344,260	2,413	274,685	139,318
345,275	2,396	274,512	139,203
346,289	2,580	274,262	139,232
347,304	2,553	274,043	139,083
348,319	2,292	273,930	138,775
349,333	2,342	273,779	138,732
350,348	2,296	273,598	138,586
351,362	2,367	273,345	138,510
352,377	2,467	273,246	138,538
353,392	2,422	273,093	138,407
354,406	2,480	272,928	138,364
355,421	191,579	1349,279	1429,179
356,435	154,684	1480,505	1429,310
