DTS Sentinel unit serial number:	SN410029Multiplexer serial number:	ORYXHardware model number:	OX2-SRSoftware version number:	ORYX F/W v4,00 Oryx Data Collector v3.7.2.0data status	okinstallation	B4 Nyhavnadifferential loss correction	single-endedforward channel	channel 2reverse channel	N/Adate	2023/12/16time	01:10:13forward acquisition time	300,00reverse acquisition time	0,00gamma	499,1914k internal	0,3128k external	0,3128temperature offset calibration	1,0000default loss term (dB/km)	0,3820temperature slope calibration	1,0000multiplexer offset coefficient	1,0000multiplexer slope coefficient	1,0000fibre end	0,00T internal ref (°C)	21,92T ext. ref 1 (°C)	6,99T ext. ref 2 (°C)	7,18length (m)	temperature (°C)	Stokes	anti-Stokes-744,400	800,000	-0,034	-0,080
-743,385	-144,006	-0,232	-0,016
-742,371	1,999	0,115	0,061
-741,356	59,510	-0,250	0,183
-740,342	-75,789	0,043	0,011
-739,327	477,190	-0,113	0,190
-738,312	800,000	0,045	-0,109
-737,298	159,216	-0,192	0,199
-736,283	176,855	0,058	-0,063
-735,269	24,420	-0,272	0,167
-734,254	-2,490	-0,066	-0,034
-733,239	-13,861	-0,432	-0,207
-732,225	-115,867	-0,009	0,001
-731,210	3,938	0,037	-0,020
-730,196	-126,567	0,139	-0,015
-729,181	-200,000	-0,027	0,120
-728,167	800,000	-0,007	0,015
-727,152	-200,000	0,015	-0,103
-726,137	-200,000	0,025	-0,114
-725,123	391,862	-0,030	-0,047
-724,108	-183,111	-0,110	-0,001
-723,094	1,136	-0,194	0,103
-722,079	85,430	0,072	-0,059
-721,064	-28,989	0,064	-0,027
-720,050	146,378	0,055	0,055
-719,035	47,190	0,037	0,026
-718,021	41,086	-0,102	-0,068
-717,006	71,859	0,035	-0,027
-715,991	-108,830	-0,285	-0,045
-714,977	800,000	0,028	-0,092
-713,962	65,271	-0,068	-0,051
-712,948	-33,801	0,064	-0,026
-711,933	328,547	-0,044	0,063
-710,918	-65,548	-0,041	0,012
-709,904	800,000	0,027	-0,063
-708,889	31,721	-0,054	0,035
-707,875	-29,986	-0,088	0,037
-706,860	800,000	-0,034	-0,109
-705,845	-200,000	0,026	0,096
-704,831	-29,226	-0,070	-0,029
-703,816	36,560	0,059	-0,038
-702,802	769,141	-0,006	0,013
-701,787	438,265	0,036	-0,058
-700,772	-200,000	0,057	0,202
-699,758	-200,000	-0,026	-0,095
-698,743	-130,241	0,052	-0,005
-697,729	173,123	-0,065	0,070
-696,714	75,815	-0,070	0,055
-695,699	114,486	-0,031	-0,028
-694,685	-116,023	-0,180	0,025
-693,670	-91,893	-0,042	-0,009
-692,656	342,287	-0,067	-0,098
-691,641	-59,471	0,084	-0,027
-690,627	645,946	-0,017	-0,033
-689,612	800,000	0,011	-0,036
-688,597	800,000	0,025	0,062
-687,583	-200,000	0,018	-0,100
-686,568	52,860	-0,076	0,054
-685,554	145,771	0,060	-0,060
-684,539	-200,000	0,006	-0,024
-683,524	52,080	0,011	-0,008
-682,510	-200,000	0,010	-0,064
-681,495	-125,855	-0,058	0,006
-680,481	-200,000	-0,013	-0,088
-679,466	551,225	-0,021	-0,037
-678,451	104,717	0,042	0,037
-677,437	-147,685	-0,047	0,003
-676,422	26,551	-0,051	-0,032
-675,408	-165,497	-0,088	0,003
-674,393	800,000	-0,026	-0,071
-673,378	-200,000	-0,027	-0,104
-672,364	12,503	-0,059	-0,033
-671,349	800,000	0,020	-0,053
-670,335	-141,296	-0,028	0,002
-669,320	63,076	-0,032	-0,023
-668,305	-200,000	0,000	-0,069
-667,291	72,215	-0,111	-0,085
-666,276	311,931	0,103	-0,144
-665,262	-5,860	-0,051	-0,026
-664,247	-81,601	-0,040	-0,010
-663,232	-62,667	-0,080	0,025
-662,218	-200,000	-0,005	-0,098
-661,203	800,000	-0,023	0,071
-660,189	54,457	-0,069	0,049
-659,174	-200,000	0,009	-0,091
-658,159	800,000	0,067	-0,167
-657,145	-12,116	-0,061	-0,029
-656,130	-45,020	-0,111	-0,041
-655,116	-74,598	0,144	-0,038
-654,101	-200,000	-0,015	0,080
-653,086	-200,000	-0,013	0,071
-652,072	374,701	0,015	0,023
-651,057	105,271	-0,150	-0,131
-650,043	248,412	-0,067	-0,084
-649,028	-57,825	-0,163	-0,052
-648,014	282,861	-0,051	-0,069
-646,999	15,400	-0,066	-0,038
-645,984	94,960	-0,099	-0,084
-644,970	-200,000	-0,001	-0,048
-643,955	31,052	0,039	0,025
-642,941	-136,866	-0,072	0,006
-641,926	800,000	0,068	-0,174
-640,911	183,530	-0,023	0,025
-639,897	800,000	-0,021	0,059
-638,882	-140,320	0,085	0,006
-637,868	-200,000	-0,010	-0,035
-636,853	-200,000	-0,018	-0,080
-635,838	-84,726	-0,108	0,025
-634,824	800,000	-0,034	-0,110
-633,809	-79,171	-0,054	0,014
-632,795	338,839	-0,025	0,036
-631,780	-8,412	-0,075	0,037
-630,765	-144,441	0,064	0,004
-629,751	-54,817	-0,130	-0,043
-628,736	-200,000	-0,022	-0,107
-627,722	220,403	0,078	0,093
-626,707	347,670	0,086	0,126
-625,692	-200,000	0,035	0,130
-624,678	800,000	-0,035	-0,074
-623,663	452,468	-0,021	0,034
-622,649	77,299	-0,057	-0,045
-621,634	-47,822	-0,063	0,022
-620,619	800,000	-0,054	-0,127
-619,605	-200,000	-0,011	-0,043
-618,590	51,074	0,059	-0,041
-617,576	-113,211	-0,070	0,010
-616,561	-19,004	-0,114	0,052
-615,546	265,512	-0,050	-0,065
-614,532	352,665	0,100	-0,148
-613,517	333,368	-0,048	-0,069
-612,503	544,744	-0,027	0,047
-611,488	10,558	0,044	-0,025
-610,474	329,406	0,062	-0,089
-609,459	-16,740	-0,079	0,037
-608,444	-43,852	-0,129	-0,048
-607,430	77,196	-0,102	-0,080
-606,415	145,504	-0,018	-0,018
-605,401	800,000	0,045	0,105
-604,386	-200,000	0,014	-0,150
-603,371	-112,421	-0,047	-0,007
-602,357	800,000	0,027	0,088
-601,342	398,450	-0,106	-0,165
-600,328	800,000	0,060	-0,144
-599,313	504,696	0,070	0,121
-598,298	503,575	-0,012	-0,020
-597,284	-64,900	-0,092	-0,027
-596,269	-65,840	0,095	0,028
-595,255	-59,988	-0,056	0,018
-594,240	160,311	0,067	0,070
-593,225	-79,373	0,019	-0,005
-592,211	328,638	0,068	0,097
-591,196	373,016	-0,056	-0,085
-590,182	256,038	-0,031	-0,040
-589,167	589,677	-0,038	0,069
-588,152	-142,155	-0,045	0,003
-587,138	800,000	-0,034	0,103
-586,123	53,418	0,114	-0,081
-585,109	588,917	-0,059	-0,107
-584,094	235,711	0,032	-0,039
-583,079	-200,000	-0,002	-0,057
-582,065	800,000	0,032	-0,095
-581,050	-200,000	-0,019	0,135
-580,036	-200,000	-0,031	-0,136
-579,021	-45,818	-0,086	-0,031
-578,006	2,232	0,065	0,034
-576,992	110,343	-0,140	-0,124
-575,977	800,000	-0,011	-0,033
-574,963	-29,720	0,113	-0,047
-573,948	-20,164	0,022	0,010
-572,934	-200,000	0,021	-0,121
-571,919	216,631	0,056	0,066
-570,904	424,489	-0,043	-0,068
-569,890	271,109	-0,107	-0,140
-568,875	-200,000	0,002	0,094
-567,861	800,000	0,052	0,155
-566,846	55,943	0,062	0,044
-565,831	62,303	-0,057	-0,042
-564,817	-100,375	0,100	0,018
-563,802	-179,140	-0,161	-0,003
-562,788	-122,958	-0,082	-0,010
-561,773	-200,000	-0,041	-0,148
-560,758	-85,391	0,107	-0,024
-559,744	81,359	0,131	-0,104
-558,729	-105,397	-0,056	0,009
-557,715	-200,000	0,003	-0,088
-556,700	93,266	0,033	0,028
-555,685	-85,078	-0,031	0,007
-554,671	-13,279	-0,094	0,045
-553,656	-126,939	0,061	-0,007
-552,642	70,049	-0,051	-0,039
-551,627	-200,000	-0,010	-0,080
-550,612	-155,358	-0,055	-0,003
-549,598	-11,489	0,041	-0,020
-548,583	-120,971	0,062	0,008
-547,569	394,018	-0,051	-0,079
-546,554	-200,000	-0,005	0,067
-545,539	-200,000	0,014	-0,118
-544,525	-118,041	0,092	0,012
-543,510	-200,000	0,000	0,067
-542,496	800,000	0,024	-0,063
-541,481	74,829	0,106	0,082
-540,466	27,991	0,106	0,066
-539,452	-130,661	-0,047	-0,005
-538,437	1,443	0,192	-0,102
-537,423	-77,581	-0,119	-0,030
-536,408	-200,000	0,006	0,024
-535,393	800,000	0,022	0,047
-534,379	-12,038	0,109	0,052
-533,364	-37,070	0,047	-0,018
-532,350	800,000	-0,062	0,154
-531,335	-26,425	0,045	0,019
-530,321	-64,922	0,111	-0,033
-529,306	202,111	-0,056	-0,064
-528,291	348,092	0,093	-0,136
-527,277	-140,309	-0,092	-0,007
-526,262	59,790	-0,015	-0,011
-525,248	170,239	-0,109	0,115
-524,233	-4,821	0,055	0,028
-523,218	-200,000	-0,010	-0,084
-522,204	465,976	-0,111	0,185
-521,189	776,041	-0,023	-0,047
-520,175	-200,000	-0,019	0,070
-519,160	-119,243	0,087	0,011
-518,145	681,340	0,056	0,108
-517,131	-104,958	-0,092	0,015
-516,116	-197,263	0,118	-0,001
-515,102	-200,000	-0,015	0,117
-514,087	-30,321	0,041	0,017
-513,072	181,649	-0,060	0,066
-512,058	-200,000	-0,013	-0,091
-511,043	-200,000	-0,020	-0,162
-510,029	-49,081	0,076	0,027
-509,014	87,677	0,120	0,098
-507,999	-200,000	0,016	0,078
-506,985	355,312	-0,068	-0,100
-505,970	53,027	-0,050	-0,035
-504,956	-200,000	-0,014	-0,152
-503,941	800,000	0,033	0,090
-502,926	-20,135	0,106	-0,048
-501,912	614,780	0,068	0,127
-500,897	362,763	0,032	-0,048
-499,883	178,009	-0,092	-0,099
-498,868	92,823	-0,023	-0,019
-497,853	-200,000	-0,032	-0,106
-496,839	7,525	0,119	-0,066
-495,824	-200,000	0,002	-0,025
-494,810	-200,000	0,005	0,035
-493,795	-200,000	-0,013	-0,060
-492,781	106,326	-0,082	-0,072
-491,766	759,448	0,002	0,005
-490,751	-200,000	-0,009	-0,032
-489,737	-138,126	0,096	0,008
-488,722	800,000	-0,044	0,120
-487,708	-157,408	0,067	-0,003
-486,693	-200,000	-0,021	-0,085
-485,678	-200,000	0,017	-0,095
-484,664	-114,031	-0,061	-0,009
-483,649	800,000	0,044	-0,098
-482,635	-134,363	-0,029	-0,003
-481,620	-55,190	-0,105	0,035
-480,605	-200,000	0,034	-0,145
-479,591	336,767	0,054	0,078
-478,576	-200,000	-0,031	-0,146
-477,562	40,776	0,078	-0,052
-476,547	800,000	0,059	-0,165
-475,532	-32,681	0,047	0,019
-474,518	-200,000	0,012	-0,060
-473,503	800,000	-0,020	0,054
-472,489	520,799	0,032	-0,055
-471,474	-200,000	-0,000	0,038
-470,459	-45,321	-0,127	-0,046
-469,445	-95,631	0,082	0,016
-468,430	-200,000	-0,010	0,083
-467,416	-152,408	-0,004	0,000
-466,401	-21,612	0,110	0,049
-465,386	149,967	0,090	0,090
-464,372	-200,000	-0,036	-0,135
-463,357	800,000	-0,027	-0,067
-462,343	800,000	-0,025	0,054
-461,328	45,119	0,045	-0,030
-460,313	-151,473	-0,002	0,000
-459,299	36,816	-0,021	0,013
-458,284	183,906	0,132	0,144
-457,270	252,496	-0,061	0,077
-456,255	-71,590	-0,155	0,042
-455,241	-200,000	-0,010	-0,064
-454,226	360,195	-0,042	0,062
-453,211	2,709	0,104	0,055
-452,197	545,392	-0,034	-0,059
-451,182	-200,000	-0,002	0,017
-450,168	-61,565	0,080	0,025
-449,153	-121,162	-0,146	0,018
-448,138	3,257	-0,050	0,027
-447,124	-53,009	-0,034	-0,011
-446,109	56,220	-0,078	0,056
-445,095	75,347	0,036	0,028
-444,080	-200,000	-0,006	0,104
-443,065	14,106	-0,034	-0,019
-442,051	-200,000	-0,024	0,094
-441,036	-200,000	0,027	-0,095
-440,022	67,016	-0,052	-0,039
-439,007	-200,000	0,031	-0,102
-437,992	104,606	-0,080	0,070
-436,978	132,118	0,088	0,083
-435,963	-6,410	-0,103	0,051
-434,949	-18,027	-0,036	-0,016
-433,934	-130,620	0,075	-0,007
-432,919	-200,000	-0,019	0,068
-431,905	-200,000	0,019	0,080
-430,890	-200,000	0,036	-0,139
-429,876	-200,000	0,003	-0,028
-428,861	-200,000	-0,016	-0,089
-427,846	297,808	-0,041	-0,056
-426,832	800,000	-0,039	-0,123
-425,817	-200,000	-0,011	0,068
-424,803	800,000	-0,075	0,155
-423,788	213,246	-0,063	-0,073
-422,773	503,632	0,085	0,144
-421,759	300,373	0,087	0,118
-420,744	-200,000	0,004	-0,041
-419,730	123,842	-0,045	-0,042
-418,715	692,218	-0,007	-0,013
-417,701	-200,000	0,043	0,169
-416,686	-41,922	0,017	0,006
-415,671	505,476	-0,047	0,081
-414,657	23,053	0,053	0,032
-413,642	362,591	-0,030	0,045
-412,628	57,430	0,064	-0,046
-411,613	-58,411	-0,148	-0,047
-410,598	-40,210	0,082	-0,031
-409,584	-200,000	-0,015	0,111
-408,569	91,723	-0,027	-0,022
-407,555	43,743	0,100	-0,067
-406,540	8,989	-0,105	0,058
-405,525	-90,360	0,100	-0,021
-404,511	65,747	0,016	-0,012
-403,496	800,000	0,010	0,023
-402,482	800,000	-0,035	-0,076
-401,467	800,000	-0,057	-0,119
-400,452	-200,000	0,003	0,033
-399,438	78,918	0,033	-0,026
-398,423	341,689	0,076	-0,110
-397,409	-47,190	-0,074	0,026
-396,394	-29,978	-0,106	-0,044
-395,379	161,542	0,048	0,049
-394,365	-200,000	-0,008	0,078
-393,350	-200,000	0,001	0,086
-392,336	-117,813	-0,037	-0,005
-391,321	-200,000	-0,011	-0,075
-390,306	212,278	-0,105	-0,121
-389,292	-200,000	0,004	0,017
-388,277	-35,982	-0,110	0,043
-387,263	-200,000	0,042	0,138
-386,248	595,001	0,038	-0,070
-385,233	166,889	0,088	0,092
-384,219	-110,842	-0,059	-0,009
-383,204	-200,000	-0,004	-0,027
-382,190	134,752	0,096	0,091
-381,175	800,000	0,030	-0,068
-380,160	-130,196	0,067	0,007
-379,146	-46,292	0,057	0,020
-378,131	164,170	0,135	0,140
-377,117	-163,889	-0,013	-0,000
-376,102	-200,000	0,007	0,063
-375,088	-1,587	0,080	-0,041
-374,073	298,848	-0,043	-0,058
-373,058	-200,000	-0,001	0,003
-372,044	800,000	0,021	-0,059
-371,029	800,000	0,014	-0,033
-370,015	-200,000	0,022	-0,076
-369,000	298,233	-0,086	-0,116
-367,985	192,967	-0,112	-0,125
-366,971	419,708	0,021	-0,034
-365,956	472,205	-0,020	-0,033
-364,942	-200,000	0,022	0,081
-363,927	250,725	-0,036	0,044
-362,912	-200,000	0,013	0,057
-361,898	170,504	-0,100	-0,105
-360,883	-164,715	0,044	-0,001
-359,869	71,866	0,121	0,092
-358,854	-7,442	-0,115	0,057
-357,839	-68,533	0,016	0,005
-356,825	197,297	0,129	0,144
-355,810	233,870	0,029	-0,035
-354,796	-200,000	-0,024	0,111
-353,781	26,667	0,103	0,063
-352,766	-200,000	0,008	-0,139
-351,752	-200,000	0,009	-0,122
-350,737	30,516	0,023	-0,014
-349,723	-28,825	-0,040	0,017
-348,708	-200,000	0,000	-0,074
-347,693	520,549	0,014	-0,024
-346,679	-126,800	0,146	-0,016
-345,664	8,307	-0,075	-0,041
-344,650	-64,608	-0,120	-0,036
-343,635	-200,000	0,001	0,081
-342,620	-44,117	0,101	-0,037
-341,606	-79,190	-0,144	0,036
-340,591	28,436	0,037	-0,023
-339,577	7,339	-0,029	-0,016
-338,562	-200,000	0,012	0,046
-337,548	800,000	0,048	0,142
-336,533	130,762	-0,037	0,035
-335,518	-135,256	0,120	0,010
-334,504	225,321	0,129	0,153
-333,489	-200,000	0,008	-0,034
-332,475	-200,000	-0,037	-0,163
-331,460	-161,367	-0,212	-0,008
-330,445	-38,931	-0,027	-0,010
-329,431	24,718	-0,034	0,021
-328,416	540,259	-0,019	-0,033
-327,402	119,088	0,141	0,128
-326,387	15,138	-0,026	0,015
-325,372	41,191	-0,152	-0,100
-324,358	-200,000	0,043	-0,246
-323,343	-200,000	-0,022	-0,126
-322,329	-17,015	0,085	0,039
-321,314	800,000	-0,028	0,072
-320,299	-47,695	0,160	-0,057
-319,285	609,194	-0,014	0,027
-318,270	-200,000	0,032	-0,119
-317,256	-87,582	-0,114	-0,025
-316,241	-200,000	-0,011	0,090
-315,226	800,000	0,030	0,089
-314,212	-200,000	0,015	0,068
-313,197	-40,764	0,101	0,038
-312,183	229,907	-0,041	-0,049
-311,168	70,958	-0,059	0,045
-310,153	-23,051	-0,205	-0,090
-309,139	800,000	-0,080	-0,187
-308,124	180,965	0,072	0,077
-307,110	-200,000	0,018	-0,081
-306,095	800,000	-0,022	0,069
-305,080	-29,777	0,094	-0,039
-304,066	253,390	-0,020	0,025
-303,051	-69,683	-0,104	0,029
-302,037	-124,078	-0,100	-0,011
-301,022	800,000	0,042	-0,088
-300,008	-14,780	-0,049	-0,023
-298,993	800,000	-0,006	-0,014
-297,978	-58,242	-0,061	0,019
-296,964	-6,893	0,068	-0,034
-295,949	-117,549	-0,084	0,011
-294,935	-72,915	-0,081	-0,022
-293,920	140,167	-0,047	-0,046
-292,905	-200,000	0,003	0,032
-291,891	-200,000	-0,027	0,214
-290,876	174,600	0,017	0,018
-289,862	88,087	0,122	0,099
-288,847	73,372	-0,066	0,050
-287,832	41,669	-0,088	-0,058
-286,818	-126,556	0,056	0,006
-285,803	175,283	-0,064	-0,068
-284,789	81,680	0,058	0,046
-283,774	-200,000	0,010	0,140
-282,759	-200,000	-0,006	0,078
-281,745	16,734	-0,171	-0,099
-280,730	194,873	-0,063	-0,070
-279,716	-15,842	0,084	0,039
-278,701	-63,572	-0,049	0,015
-277,686	170,188	0,050	0,052
-276,672	111,095	-0,033	-0,029
-275,657	77,966	-0,028	0,021
-274,643	61,535	0,097	0,071
-273,628	-184,035	0,028	-0,000
-272,613	-189,175	-0,076	-0,001
-271,599	800,000	0,040	0,118
-270,584	58,189	0,056	0,040
-269,570	179,205	0,064	0,068
-268,555	-82,277	-0,086	0,020
-267,540	-62,168	-0,090	0,027
-266,526	594,805	0,028	0,051
-265,511	-84,800	-0,061	0,014
-264,497	-106,703	0,150	0,024
-263,482	-101,861	0,115	0,020
-262,467	372,582	0,092	0,137
-261,453	649,453	-0,040	0,074
-260,438	-71,802	-0,108	0,029
-259,424	167,141	0,045	-0,047
-258,409	-34,957	0,121	0,048
-257,395	-78,442	-0,030	0,008
-256,380	-84,683	0,050	0,011
-255,365	-180,074	0,106	0,002
-254,351	192,664	0,045	0,049
-253,336	157,233	0,118	-0,120
-252,322	54,549	0,025	-0,018
-251,307	800,000	-0,041	0,099
-250,292	-200,000	-0,001	0,017
-249,278	800,000	-0,018	0,048
-248,263	94,866	0,138	-0,114
-247,249	-200,000	0,007	0,135
-246,234	57,236	-0,050	0,036
-245,219	95,034	-0,096	0,080
-244,205	-74,374	-0,047	0,012
-243,190	-92,889	-0,022	-0,004
-242,176	-200,000	0,011	-0,114
-241,161	-200,000	0,017	0,115
-240,146	800,000	-0,043	0,091
-239,132	230,975	0,024	0,029
-238,117	134,085	0,067	-0,064
-237,103	297,374	-0,018	0,024
-236,088	68,969	0,015	0,011
-235,073	-9,087	0,074	0,036
-234,059	-162,806	0,148	0,005
-233,044	-19,682	-0,082	-0,037
-232,030	-200,000	0,010	-0,143
-231,015	-45,064	-0,041	0,015
-230,000	75,434	0,109	0,084
-228,986	800,000	0,009	0,027
-227,971	323,885	-0,017	-0,024
-226,957	97,193	0,101	0,085
-225,942	236,372	0,069	-0,084
-224,927	119,479	0,067	0,061
-223,913	-200,000	-0,007	-0,049
-222,898	-146,600	-0,102	-0,006
-221,884	114,602	-0,052	-0,047
-220,869	28,017	0,176	0,108
-219,855	-43,068	0,140	-0,052
-218,840	2,139	-0,092	-0,048
-217,825	106,648	0,051	-0,044
-216,811	301,139	-0,043	-0,058
-215,796	-200,000	0,009	-0,094
-214,782	-200,000	0,006	-0,055
-213,767	118,260	-0,064	0,058
-212,752	-51,969	0,135	0,045
-211,738	317,468	0,015	0,021
-210,723	323,190	0,051	-0,071
-209,709	-67,358	0,072	0,021
-208,694	800,000	-0,040	-0,108
-207,679	343,897	0,030	-0,044
-206,665	34,326	0,078	0,049
-205,650	-200,000	-0,029	0,105
-204,636	165,288	0,037	0,038
-203,621	-200,000	-0,018	0,102
-202,606	-124,506	-0,198	0,022
-201,592	293,705	0,050	-0,067
-200,577	787,606	0,025	-0,049
-199,563	-200,000	0,010	-0,118
-198,548	153,619	-0,045	0,045
-197,533	125,108	-0,070	0,064
-196,519	800,000	0,043	-0,126
-195,504	-200,000	-0,004	-0,055
-194,490	-109,435	-0,085	0,013
-193,475	145,855	-0,061	0,060
-192,460	-200,000	0,001	0,098
-191,446	800,000	-0,036	-0,090
-190,431	-41,115	0,228	0,085
-189,417	-200,000	0,020	0,127
-188,402	31,311	0,096	-0,060
-187,387	-191,350	-0,181	0,001
-186,373	116,770	-0,008	0,007
-185,358	135,208	-0,022	0,021
-184,344	164,285	0,063	-0,064
-183,329	-136,899	0,122	0,010
-182,315	-200,000	-0,007	-0,084
-181,300	36,742	-0,125	0,080
-180,285	800,000	-0,021	-0,053
-179,271	458,540	-0,065	-0,106
-178,256	539,837	0,045	0,079
-177,242	-64,926	-0,076	-0,022
-176,227	107,436	-0,022	0,019
-175,212	57,157	-0,045	-0,032
-174,198	800,000	-0,009	0,023
-173,183	108,800	-0,126	0,109
-172,169	591,126	-0,058	0,105
-171,154	-200,000	0,001	0,081
-170,139	117,443	-0,103	0,093
-169,125	9,139	0,106	0,058
-168,110	-200,000	-0,005	0,070
-167,096	-200,000	0,025	0,144
-166,081	-200,000	0,002	0,253
-165,066	-200,000	0,006	0,039
-164,052	-83,677	0,079	0,018
-163,037	-147,851	-0,056	-0,003
-162,023	-200,000	0,014	0,114
-161,008	117,247	0,129	0,116
-159,993	365,861	0,109	0,160
-158,979	800,000	0,071	-0,153
-157,964	-200,000	0,019	-0,088
-156,950	-200,000	-0,003	-0,068
-155,935	-200,000	0,013	0,114
-154,920	-152,541	0,044	0,002
-153,906	771,272	-0,046	-0,091
-152,891	-10,177	-0,100	0,048
-151,877	800,000	-0,047	-0,111
-150,862	800,000	-0,056	-0,136
-149,847	-46,408	-0,070	0,025
-148,833	92,930	-0,065	-0,053
-147,818	800,000	-0,031	0,075
-146,804	-143,940	-0,074	-0,005
-145,789	800,000	0,049	0,155
-144,775	-200,000	-0,013	0,149
-143,760	-92,836	0,077	-0,015
-142,745	259,577	-0,061	-0,076
-141,731	-190,669	0,084	0,001
-140,716	-7,513	-0,077	-0,038
-139,702	800,000	-0,023	0,063
-138,687	45,803	0,139	0,093
-137,672	-92,531	-0,057	-0,011
-136,658	8,911	-0,143	-0,078
-135,643	159,973	0,076	0,077
-134,629	49,895	-0,106	-0,073
-133,614	-200,000	-0,018	-0,082
-132,599	-116,635	0,039	-0,005
-131,585	-106,460	-0,038	-0,006
-130,570	-200,000	0,042	0,138
-129,556	570,927	-0,038	-0,067
-128,541	215,866	-0,012	-0,014
-127,526	-147,543	0,063	-0,004
-126,512	-172,151	0,113	0,003
-125,497	179,030	0,043	0,046
-124,483	126,633	0,058	0,053
-123,468	127,682	-0,144	-0,133
-122,453	248,264	-0,071	-0,087
-121,439	118,781	0,076	-0,068
-120,424	371,626	0,040	0,058
-119,410	-8,540	-0,111	0,054
-118,395	52,401	0,067	-0,046
-117,380	-52,923	-0,149	-0,049
-116,366	-95,957	-0,033	0,006
-115,351	257,883	-0,049	0,061
-114,337	587,347	-0,084	-0,151
-113,322	41,716	0,035	-0,023
-112,307	-82,098	-0,045	-0,011
-111,293	40,455	0,082	0,054
-110,278	-8,673	0,193	0,094
-109,264	800,000	0,033	0,067
-108,249	241,117	-0,024	0,029
-107,234	-114,389	-0,151	0,021
-106,220	-200,000	-0,025	0,083
-105,205	-143,324	0,109	-0,007
-104,191	-200,000	-0,009	0,000
-103,176	-200,000	-0,012	0,057
-102,162	800,000	0,032	0,098
-101,147	-30,982	-0,035	-0,014
-100,132	243,520	-0,040	-0,049
-99,118	-57,898	0,174	-0,055
-98,103	-48,916	-0,052	-0,018
-97,089	-175,027	0,119	0,002
-96,074	348,015	-0,061	-0,087
-95,059	-200,000	0,019	0,063
-94,045	27,103	-0,132	-0,080
-93,030	800,000	-0,060	-0,131
-92,016	-200,000	-0,003	0,016
-91,001	601,923	-0,058	-0,105
-89,986	288,746	0,110	-0,145
-88,972	672,840	-0,036	0,068
-87,957	54,418	-0,101	-0,070
-86,943	800,000	-0,057	0,135
-85,928	-200,000	0,032	0,183
-84,913	-30,739	-0,014	0,006
-83,899	113,566	0,022	-0,019
-82,884	268,656	-0,043	0,055
-81,870	-200,000	0,001	0,020
-80,855	-200,000	0,006	0,039
-79,840	53,148	-0,058	-0,040
-78,826	32,217	0,106	-0,066
-77,811	-107,697	0,066	0,010
-76,797	800,000	-0,015	-0,038
-75,782	585,843	-0,061	-0,109
-74,767	175,842	-0,086	0,091
-73,753	800,000	-0,022	-0,049
-72,738	-112,755	-0,046	0,007
-71,724	479,724	-0,058	-0,096
-70,709	249,304	-0,079	-0,098
-69,694	-200,000	-0,023	0,136
-68,680	-147,211	0,093	-0,006
-67,665	120,146	0,082	0,074
-66,651	53,962	0,093	0,065
-65,636	-83,604	-0,082	-0,019
-64,622	364,361	-0,014	0,020
-63,607	-37,961	-0,064	0,024
-62,592	365,090	0,073	-0,107
-61,578	-200,000	-0,004	-0,038
-60,563	13,112	-0,087	-0,049
-59,549	-200,000	0,014	0,174
-58,534	-200,000	-1,524	0,003
-57,519	588,155	-0,774	-1,387
-56,505	-200,000	-0,782	-4,415
-55,490	-103,215	0,456	-0,077
-54,476	800,000	4,889	11,432
-53,461	-200,000	13,974	251,069
-52,446	-200,000	693,257	2236,399
-51,432	580,265	1621,670	2889,322
-50,417	117,560	1630,141	1452,775
-49,403	74,023	1284,455	975,194
-48,388	37,713	1021,707	655,754
-47,373	23,971	979,898	583,878
-46,359	23,168	969,509	575,042
-45,344	22,183	964,958	569,112
-44,330	22,119	963,576	568,067
-43,315	21,999	962,107	566,790
-42,300	21,961	961,140	566,072
-41,286	21,983	960,090	565,505
-40,271	22,029	959,037	565,009
-39,257	21,945	958,233	564,244
-38,242	21,943	957,336	563,685
-37,227	21,938	956,495	563,153
-36,213	21,920	955,628	562,560
-35,198	21,887	954,787	561,938
-34,184	21,929	954,170	561,688
-33,169	21,887	953,171	560,941
-32,154	21,933	952,407	560,619
-31,140	21,991	951,471	560,232
-30,125	21,976	950,700	559,706
-29,111	21,998	949,679	559,153
-28,096	21,928	949,126	558,582
-27,082	21,978	948,412	558,300
-26,067	21,958	947,686	557,785
-25,052	21,944	947,062	557,351
-24,038	21,939	946,433	556,943
-23,023	21,933	945,768	556,510
-22,009	21,983	945,076	556,241
-20,994	21,984	944,479	555,872
-19,979	21,906	943,801	555,200
-18,965	21,954	943,236	554,998
-17,950	22,000	942,588	554,742
-16,936	21,990	941,626	554,122
-15,921	21,920	941,177	553,616
-14,906	21,850	940,381	552,900
-13,892	21,804	939,885	552,443
-12,877	21,892	939,153	552,268
-11,863	21,804	938,607	551,647
-10,848	21,818	938,142	551,396
-9,833	21,906	937,674	551,378
-8,819	21,931	937,136	551,118
-7,804	21,876	936,423	550,504
-6,790	21,833	935,640	549,887
-5,775	21,918	935,014	549,764
-4,760	21,836	934,428	549,141
-3,746	21,878	933,766	548,860
-2,731	21,621	933,220	547,711
-1,717	21,643	932,615	547,401
-0,702	21,680	931,944	547,104
0,313	21,455	931,189	546,779
1,327	23,965	928,701	553,131
2,342	31,659	806,764	501,278
3,356	26,807	507,446	307,027
4,371	2,743	372,572	194,947
5,386	-0,314	355,575	182,303
6,400	-1,699	349,239	177,376
7,415	-2,804	346,512	174,657
8,429	-2,980	345,017	173,679
9,444	-2,944	344,095	173,242
10,459	-2,806	343,275	172,978
11,473	-2,808	342,705	172,672
12,488	-2,503	342,138	172,730
13,502	-2,597	341,739	172,403
14,517	-2,732	341,191	171,952
15,531	-3,053	340,475	171,200
16,546	-2,999	340,067	171,043
17,561	-2,986	339,843	170,930
18,575	-2,916	339,183	170,665
19,590	-2,828	338,785	170,552
20,604	-2,836	338,518	170,392
21,619	-3,085	338,249	169,952
22,634	-2,916	337,738	169,877
23,648	-2,957	337,424	169,656
24,663	-2,931	337,208	169,562
25,677	-3,015	336,869	169,279
26,692	-3,164	336,454	168,884
27,707	-2,766	336,100	169,151
28,721	-2,923	335,780	168,794
29,736	-3,078	335,638	168,529
30,750	-3,075	335,414	168,404
31,765	-2,979	335,029	168,307
32,780	-3,080	334,676	167,998
33,794	-2,977	334,450	167,988
34,809	-2,994	334,246	167,852
35,823	-2,997	333,738	167,578
36,838	-3,132	333,631	167,355
37,853	-3,163	333,192	167,083
38,867	-3,064	333,019	167,095
39,882	-3,057	332,791	166,974
40,896	-2,973	332,415	166,866
41,911	-3,107	332,134	166,557
42,926	-3,038	331,861	166,484
43,940	-3,157	331,533	166,170
44,955	-3,148	331,286	166,041
45,969	-3,290	331,185	165,814
46,984	-3,184	330,809	165,731
47,999	-3,310	330,511	165,425
49,013	-3,427	330,256	165,150
50,028	-3,564	329,970	164,836
51,042	-3,487	329,668	164,759
52,057	-3,503	329,329	164,556
53,071	-3,582	329,256	164,417
54,086	-3,379	328,947	164,476
55,101	-3,332	328,857	164,469
56,115	-3,387	328,621	164,274
57,130	-3,050	328,274	164,466
58,144	-2,923	328,149	164,531
59,159	-2,845	327,762	164,411
60,174	-2,888	327,530	164,230
61,188	-3,062	327,470	163,992
62,203	-3,011	327,098	163,848
63,217	-2,990	326,996	163,806
64,232	-2,874	326,501	163,673
65,247	-2,659	326,347	163,821
66,261	-2,870	326,071	163,432
67,276	-2,948	325,714	163,151
68,290	-3,248	325,404	162,647
69,305	-3,136	325,247	162,679
70,320	-3,233	325,112	162,489
71,334	-3,114	324,746	162,424
72,349	-2,979	324,754	162,564
73,363	-2,968	324,361	162,365
74,378	-3,051	323,955	162,055
75,393	-2,923	323,625	162,017
76,407	-3,013	323,533	161,857
77,422	-3,059	323,378	161,714
78,436	-3,013	323,096	161,609
79,451	-2,896	322,780	161,566
80,466	-3,015	322,505	161,283
81,480	-3,037	322,061	161,022
82,495	-3,166	321,995	160,833
83,509	-3,141	321,814	160,756
84,524	-3,208	321,497	160,510
85,539	-3,287	321,266	160,292
86,553	-3,330	321,009	160,103
87,568	-3,185	320,824	160,155
88,582	-3,191	320,605	160,025
89,597	-3,208	320,213	159,797
90,611	-3,092	320,113	159,860
91,626	-3,104	319,938	159,745
92,641	-3,140	319,738	159,592
93,655	-3,120	319,392	159,426
94,670	-3,168	319,299	159,313
95,684	-3,131	318,879	159,129
96,699	-3,043	318,729	159,136
97,714	-3,141	318,532	158,918
98,728	-3,199	318,290	158,720
99,743	-3,386	317,892	158,304
100,757	-3,279	317,653	158,287
101,772	-3,281	317,586	158,237
102,787	-3,304	317,405	158,108
103,801	-3,099	317,017	158,123
104,816	-3,214	316,896	157,923
105,830	-3,117	316,819	157,976
106,845	-2,983	316,480	157,938
107,860	-2,887	316,182	157,878
108,874	-3,007	315,924	157,606
109,889	-3,121	315,747	157,381
110,903	-3,064	315,465	157,288
111,918	-3,244	315,416	157,055
112,933	-3,054	315,053	157,065
113,947	-2,991	314,845	157,014
114,962	-2,960	314,693	156,959
115,976	-3,001	314,492	156,800
116,991	-3,105	314,357	156,607
118,006	-3,105	313,945	156,388
119,020	-3,012	313,759	156,381
120,035	-3,012	313,562	156,269
121,049	-3,052	313,485	156,174
122,064	-3,068	313,182	155,992
123,079	-3,041	312,802	155,818
124,093	-3,208	312,625	155,538
125,108	-3,013	312,401	155,620
126,122	-3,219	312,153	155,263
127,137	-3,338	311,956	155,025
128,151	-3,244	311,664	154,966
129,166	-2,978	311,465	155,135
130,181	-3,175	311,183	154,772
131,195	-3,295	311,007	154,544
132,210	-3,105	310,909	154,683
133,224	-3,056	310,509	154,521
134,239	-2,893	310,445	154,647
135,254	-3,111	310,299	154,331
136,268	-3,038	309,950	154,220
137,283	-3,289	309,632	153,785
138,297	-3,187	309,285	153,706
139,312	-3,438	309,330	153,450
140,327	-2,942	308,983	153,786
141,341	-2,849	308,921	153,839
142,356	-2,792	308,814	153,832
143,370	-2,686	308,651	153,848
144,385	-2,642	308,452	153,782
145,400	-2,911	308,360	153,439
146,414	-2,780	308,070	153,420
147,429	-2,733	307,777	153,309
148,443	-2,661	307,589	153,277
149,458	-2,671	307,276	153,096
150,473	-2,667	307,150	153,024
151,487	-2,721	306,795	152,778
152,502	-2,800	306,691	152,630
153,516	-2,563	306,377	152,707
154,531	-2,683	306,264	152,512
155,546	-2,847	306,027	152,210
156,560	-2,774	305,752	152,135
157,575	-2,855	305,533	151,928
158,589	-2,856	305,223	151,760
159,604	-2,890	305,033	151,616
160,619	-2,705	304,807	151,682
161,633	-2,891	304,799	151,472
162,648	-2,843	304,620	151,420
163,662	-2,858	304,449	151,305
164,677	-2,881	304,232	151,160
165,692	-2,868	304,059	151,074
166,706	-2,823	303,828	150,993
167,721	-2,790	303,480	150,840
168,735	-2,620	303,279	150,901
169,750	-2,749	303,204	150,718
170,764	-2,589	303,113	150,824
171,779	-2,693	303,059	150,676
172,794	-2,525	302,611	150,613
173,808	-2,710	302,305	150,258
174,823	-3,219	302,106	149,624
175,837	-3,270	301,757	149,385
176,852	-2,754	301,683	149,863
177,867	-2,724	301,670	149,875
178,881	-2,674	301,479	149,816
179,896	-2,708	301,202	149,631
180,910	-2,558	301,124	149,732
181,925	-2,575	300,925	149,603
182,940	-2,595	300,637	149,426
183,954	-2,608	300,446	149,304
184,969	-2,777	300,290	149,042
185,983	-2,688	299,956	148,953
186,998	-2,849	299,936	148,766
188,013	-2,788	299,792	148,744
189,027	-2,737	299,367	148,571
190,042	-2,541	299,220	148,683
191,056	-2,703	299,106	148,449
192,071	-2,657	298,930	148,395
193,086	-2,584	298,729	148,357
194,100	-2,542	298,524	148,284
195,115	-2,541	298,168	148,095
196,129	-2,691	297,947	147,820
197,144	-2,470	297,694	147,905
198,159	-2,540	297,440	147,694
199,173	-2,614	297,371	147,573
200,188	-2,442	297,184	147,639
201,202	-2,786	296,919	147,149
202,217	-2,891	296,429	146,787
203,232	-3,160	296,190	146,386
204,246	-2,963	296,196	146,575
205,261	-2,646	296,066	146,814
206,275	-2,442	295,867	146,907
207,290	-2,674	295,736	146,596
208,304	-2,626	295,502	146,515
209,319	-2,625	295,279	146,392
210,334	-2,678	294,980	146,178
211,348	-2,640	294,942	146,184
212,363	-2,643	294,710	146,054
213,377	-2,587	294,538	146,011
214,392	-2,678	294,445	145,861
215,407	-3,005	294,192	145,397
216,421	-2,866	293,871	145,364
217,436	-2,890	293,619	145,203
218,450	-2,756	293,443	145,236
219,465	-2,800	293,184	145,051
220,480	-2,838	293,161	144,989
221,494	-2,754	292,979	144,969
222,509	-2,815	292,728	144,772
223,523	-2,809	292,575	144,689
224,538	-2,783	292,530	144,680
225,553	-2,600	292,268	144,718
226,567	-2,600	292,138	144,640
227,582	-2,655	292,000	144,505
228,596	-2,628	291,772	144,406
229,611	-2,609	291,618	144,336
230,626	-2,783	291,498	144,092
231,640	-2,923	291,130	143,760
232,655	-3,038	290,727	143,435
233,669	-3,120	290,533	143,246
234,684	-3,110	290,386	143,171
235,699	-3,027	290,331	143,212
236,713	-2,907	290,130	143,217
237,728	-2,969	290,031	143,095
238,742	-2,975	289,779	142,952
239,757	-2,832	289,687	143,034
240,772	-2,685	289,442	143,044
241,786	-2,754	289,196	142,842
242,801	-2,976	289,023	142,527
243,815	-2,907	288,891	142,517
244,830	-2,758	288,633	142,522
245,844	-2,798	288,489	142,399
246,859	-2,926	288,378	142,208
247,874	-2,879	287,975	142,042
248,888	-2,805	287,923	142,075
249,903	-2,551	287,729	142,213
250,917	-2,664	287,747	142,099
251,932	-2,565	287,678	142,149
252,947	-1,770	287,513	142,824
253,961	-2,361	287,185	142,077
254,976	-1,502	287,667	143,135
255,990	1,358	288,514	146,318
257,005	2,260	288,665	147,256
258,020	3,674	289,140	148,857
259,034	3,709	288,853	148,730
260,049	3,555	288,565	148,419
261,063	3,379	288,245	148,071
262,078	3,707	288,235	148,370
263,093	4,330	288,292	148,988
264,107	4,227	288,220	148,839
265,122	4,318	288,040	148,820
266,136	4,578	287,878	148,973
267,151	4,315	287,541	148,532
268,166	4,000	287,444	148,166
269,180	4,088	287,067	148,043
270,195	4,303	286,926	148,164
271,209	4,310	286,777	148,080
272,224	3,899	286,694	147,629
273,239	3,757	286,378	147,317
274,253	3,756	286,205	147,215
275,268	4,500	286,271	147,948
276,282	4,365	286,067	147,700
277,297	4,294	285,825	147,495
278,312	4,892	285,761	148,020
279,326	4,356	285,482	147,350
280,341	4,239	285,207	147,084
281,355	4,264	284,990	146,982
282,370	4,077	284,705	146,644
283,384	4,037	284,556	146,516
284,399	3,947	284,475	146,376
285,414	4,129	284,234	146,412
286,428	4,008	284,038	146,183
287,443	3,759	283,805	145,814
288,457	3,710	283,564	145,630
289,472	3,753	283,408	145,578
290,487	3,673	283,190	145,378
291,501	3,536	282,873	145,072
292,516	3,430	282,588	144,813
293,530	3,476	282,537	144,817
294,545	3,708	282,524	145,016
295,560	3,905	282,375	145,113
296,574	3,763	282,072	144,810
297,589	3,802	281,994	144,795
298,603	4,270	281,822	145,134
299,618	4,204	281,681	144,986
300,633	4,055	281,515	144,748
301,647	3,912	281,286	144,483
302,662	3,948	281,190	144,455
303,676	3,974	280,854	144,293
304,691	3,627	280,503	143,774
305,706	3,438	280,367	143,516
306,720	3,366	280,103	143,300
307,735	3,573	279,933	143,394
308,749	3,520	279,950	143,341
309,764	3,680	279,811	143,406
310,779	3,495	279,482	143,051
311,793	3,555	279,187	142,944
312,808	3,495	279,141	142,852
313,822	3,709	278,887	142,908
314,837	3,299	278,833	142,487
315,852	3,185	278,616	142,257
316,866	3,382	278,453	142,344
317,881	3,556	278,257	142,393
318,895	3,548	277,959	142,220
319,910	3,267	277,748	141,839
320,925	3,353	277,641	141,851
321,939	3,489	277,470	141,877
322,954	3,502	277,411	141,846
323,968	3,655	277,267	141,901
324,983	3,738	277,124	141,892
325,997	3,725	276,933	141,770
327,012	3,704	276,982	141,763
328,027	3,643	276,553	141,474
329,041	3,636	276,400	141,377
330,056	3,762	276,243	141,400
331,070	3,524	276,058	141,074
332,085	3,553	275,786	140,949
333,100	3,691	275,665	141,001
334,114	3,820	275,310	140,925
335,129	3,445	275,122	140,472
336,143	3,572	275,247	140,640
337,158	3,856	275,050	140,787
338,173	3,825	274,776	140,606
339,187	3,580	274,639	140,299
340,202	3,874	274,339	140,402
341,216	3,798	274,319	140,310
342,231	3,723	274,067	140,100
343,246	3,422	274,065	139,812
344,260	3,558	273,703	139,739
345,275	3,842	273,591	139,928
346,289	3,955	273,476	139,960
347,304	4,038	273,200	139,881
348,319	3,794	273,136	139,615
349,333	3,713	272,840	139,377
350,348	4,047	272,768	139,631
351,362	4,035	272,633	139,539
352,377	3,939	272,426	139,333
353,392	3,975	272,431	139,355
354,406	3,969	272,300	139,271
355,421	191,013	1331,619	1407,366
356,435	154,291	1460,764	1407,479
