DTS Sentinel unit serial number:	SN410029Multiplexer serial number:	ORYXHardware model number:	OX2-SRSoftware version number:	ORYX F/W v4,00 Oryx Data Collector v3.7.2.0data status	okinstallation	B4 Nyhavnadifferential loss correction	single-endedforward channel	channel 2reverse channel	N/Adate	2023/12/16time	05:15:13forward acquisition time	300,00reverse acquisition time	0,00gamma	499,1914k internal	0,3127k external	0,3127temperature offset calibration	1,0000default loss term (dB/km)	0,3820temperature slope calibration	1,0000multiplexer offset coefficient	1,0000multiplexer slope coefficient	1,0000fibre end	0,00T internal ref (°C)	22,11T ext. ref 1 (°C)	7,35T ext. ref 2 (°C)	7,53length (m)	temperature (°C)	Stokes	anti-Stokes-744,400	199,536	-0,004	-0,004
-743,385	20,367	-0,268	0,161
-742,371	-98,523	0,076	0,014
-741,356	29,733	-0,216	0,137
-740,342	178,264	-0,038	0,041
-739,327	-49,391	-0,175	0,062
-738,312	191,569	0,060	0,067
-737,298	-48,024	-0,294	0,105
-736,283	-61,065	0,083	-0,026
-735,269	31,571	-0,158	0,101
-734,254	-12,007	0,028	-0,013
-733,239	-66,019	-0,361	-0,107
-732,225	-118,507	0,066	-0,009
-731,210	273,579	0,054	0,071
-730,196	-200,000	0,005	-0,039
-729,181	-200,000	0,005	0,071
-728,167	-200,000	0,015	-0,061
-727,152	-46,003	-0,015	0,005
-726,137	-200,000	-0,002	0,060
-725,123	241,282	-0,130	-0,162
-724,108	-200,000	-0,027	-0,100
-723,094	-25,044	-0,081	0,035
-722,079	-200,000	0,008	-0,055
-721,064	13,080	0,099	0,057
-720,050	263,381	-0,097	-0,125
-719,035	-200,000	-0,005	-0,030
-718,021	26,474	-0,076	0,047
-717,006	-101,500	-0,168	0,030
-715,991	281,900	0,100	-0,134
-714,977	783,765	0,107	-0,218
-713,962	225,767	0,029	0,034
-712,948	-200,000	-0,016	-0,093
-711,933	-200,000	-0,045	0,151
-710,918	800,000	-0,030	-0,096
-709,904	495,562	0,023	-0,040
-708,889	23,766	-0,121	-0,074
-707,875	42,863	-0,049	-0,033
-706,860	313,786	-0,026	0,036
-705,845	800,000	-0,058	-0,139
-704,831	-114,303	0,045	-0,006
-703,816	40,382	0,057	-0,038
-702,802	-200,000	0,000	0,040
-701,787	-123,827	-0,169	0,020
-700,772	-200,000	0,001	-0,030
-699,758	160,786	-0,079	-0,082
-698,743	-145,808	0,087	0,006
-697,729	16,060	-0,124	0,073
-696,714	677,716	-0,023	0,044
-695,699	-43,935	0,039	-0,014
-694,685	682,100	-0,075	-0,145
-693,670	-55,851	0,047	-0,016
-692,656	800,000	0,113	0,269
-691,641	746,030	-0,071	0,144
-690,627	-120,719	0,038	0,005
-689,612	193,596	0,095	-0,107
-688,597	800,000	-0,029	-0,087
-687,583	217,485	0,024	-0,029
-686,568	-200,000	-0,007	-0,037
-685,554	-173,654	-0,127	-0,003
-684,539	800,000	-0,072	-0,159
-683,524	330,970	0,018	0,026
-682,510	419,085	0,057	-0,091
-681,495	-116,119	-0,216	-0,029
-680,481	-23,326	-0,063	0,028
-679,466	-200,000	0,020	0,094
-678,451	42,977	-0,034	0,023
-677,437	-200,000	-0,044	0,259
-676,422	202,672	0,065	0,075
-675,408	-75,132	-0,030	0,008
-674,393	-97,410	0,039	0,008
-673,378	38,918	-0,100	-0,066
-672,364	-11,258	-0,058	0,028
-671,349	741,291	0,035	0,071
-670,335	800,000	-0,031	0,098
-669,320	-154,119	0,145	-0,007
-668,305	344,641	0,084	0,123
-667,291	-200,000	-0,012	0,095
-666,276	-0,954	-0,122	0,064
-665,262	-126,819	0,103	-0,011
-664,247	121,908	-0,070	-0,065
-663,232	-200,000	0,007	-0,074
-662,218	176,304	0,072	-0,077
-661,203	-116,479	0,019	-0,003
-660,189	800,000	-0,040	-0,097
-659,174	105,757	-0,093	-0,082
-658,159	-200,000	0,014	0,055
-657,145	-200,000	-0,041	-0,138
-656,130	92,905	-0,061	0,051
-655,116	-106,781	0,067	-0,011
-654,101	-200,000	-0,007	0,042
-653,086	-101,296	-0,079	0,014
-652,072	132,606	0,064	-0,061
-651,057	26,784	-0,148	-0,092
-650,043	-24,917	-0,038	-0,017
-649,028	-200,000	-0,094	0,000
-648,014	-27,135	0,082	0,035
-646,999	800,000	-0,034	-0,072
-645,984	-73,548	0,036	0,010
-644,970	11,334	-0,135	-0,077
-643,955	800,000	-0,062	-0,128
-642,941	-200,000	-0,016	0,073
-641,926	19,252	-0,012	-0,007
-640,911	-151,965	-0,172	-0,009
-639,897	144,849	-0,045	0,044
-638,882	-21,120	0,027	0,012
-637,868	-46,593	0,096	0,035
-636,853	-200,000	0,002	-0,144
-635,838	108,465	-0,012	0,010
-634,824	167,220	-0,110	-0,115
-633,809	800,000	0,033	0,098
-632,795	-101,978	-0,183	-0,032
-631,780	91,293	0,050	-0,041
-630,765	-185,452	-0,065	-0,001
-629,751	49,782	-0,022	0,015
-628,736	800,000	-0,046	0,121
-627,722	-200,000	-0,025	0,098
-626,707	-200,000	0,001	-0,051
-625,692	-36,000	0,065	-0,026
-624,678	-200,000	-0,002	-0,043
-623,663	-200,000	0,014	0,157
-622,649	-200,000	-0,032	-0,124
-621,634	-200,000	0,021	-0,150
-620,619	275,289	0,016	-0,021
-619,605	289,244	0,015	0,020
-618,590	-200,000	-0,003	0,088
-617,576	-43,729	0,039	-0,015
-616,561	-200,000	0,009	0,168
-615,546	698,174	0,079	0,155
-614,532	-84,676	-0,042	-0,010
-613,517	225,647	0,063	0,076
-612,503	800,000	-0,060	-0,173
-611,488	-26,045	0,132	0,057
-610,474	492,277	0,023	0,039
-609,459	-200,000	-0,000	0,033
-608,444	-200,000	-0,002	-0,042
-607,430	-81,629	-0,052	-0,012
-606,415	630,255	0,082	-0,155
-605,401	8,191	0,101	0,056
-604,386	115,326	0,053	0,048
-603,371	-85,677	-0,045	0,010
-602,357	-200,000	-0,012	-0,080
-601,342	-11,809	-0,052	-0,025
-600,328	68,154	-0,016	0,012
-599,313	55,128	0,031	0,022
-598,298	42,985	-0,071	-0,048
-597,284	-200,000	0,023	0,119
-596,269	800,000	0,052	0,147
-595,255	380,358	-0,068	0,103
-594,240	-200,000	-0,012	-0,085
-593,225	-25,888	-0,078	-0,034
-592,211	-101,886	-0,065	0,011
-591,196	233,950	0,051	0,062
-590,182	-73,504	0,006	0,002
-589,167	737,043	0,049	0,098
-588,152	-6,157	-0,152	0,077
-587,138	-163,847	-0,015	0,001
-586,123	62,499	-0,054	-0,040
-585,109	125,840	0,131	0,123
-584,094	-29,882	-0,053	-0,022
-583,079	-36,532	-0,111	0,044
-582,065	111,198	0,074	-0,066
-581,050	233,631	-0,047	0,057
-580,036	114,233	0,022	0,020
-579,021	272,535	-0,124	-0,162
-578,006	130,719	-0,109	-0,103
-576,992	-24,973	-0,071	0,031
-575,977	263,895	-0,013	-0,016
-574,963	-66,885	0,036	-0,010
-573,948	-119,992	0,138	0,017
-572,934	142,330	-0,100	-0,098
-571,919	800,000	-0,042	-0,128
-570,904	246,785	0,012	-0,015
-569,890	-41,555	0,089	0,034
-568,875	478,166	0,081	0,137
-567,861	-39,412	0,041	-0,016
-566,846	-144,211	-0,092	0,006
-565,831	213,192	0,046	0,054
-564,817	800,000	-0,025	-0,072
-563,802	-66,965	0,012	-0,004
-562,788	-200,000	-0,003	0,081
-561,773	-200,000	0,010	0,041
-560,758	123,052	0,069	-0,064
-559,744	-1,372	-0,094	-0,049
-558,729	132,826	0,037	-0,035
-557,715	371,502	0,045	-0,068
-556,700	-176,826	0,032	-0,001
-555,685	-98,711	-0,119	-0,022
-554,671	-79,521	0,050	0,012
-553,656	214,965	0,058	0,068
-552,642	-200,000	-0,040	0,146
-551,627	800,000	-0,020	0,063
-550,612	-44,025	-0,034	-0,013
-549,598	800,000	-0,028	-0,070
-548,583	-93,332	0,129	-0,026
-547,569	465,243	-0,010	-0,017
-546,554	390,057	-0,040	-0,062
-545,539	19,759	0,011	-0,007
-544,525	-200,000	-0,008	-0,159
-543,510	-87,816	-0,056	0,012
-542,496	-200,000	-0,025	0,118
-541,481	-162,609	-0,080	0,003
-540,466	-200,000	0,018	-0,130
-539,452	126,867	-0,056	0,052
-538,437	41,018	-0,006	-0,004
-537,423	-93,302	-0,019	-0,004
-536,408	-200,000	-0,029	-0,095
-535,393	182,325	-0,051	-0,055
-534,379	260,757	-0,082	0,105
-533,364	26,639	0,071	-0,044
-532,350	-86,291	-0,139	-0,031
-531,335	-200,000	0,019	-0,175
-530,321	800,000	0,051	0,106
-529,306	79,837	-0,102	0,081
-528,291	278,539	0,028	-0,037
-527,277	212,782	-0,204	-0,237
-526,262	107,419	0,038	0,034
-525,248	-51,364	0,246	0,084
-524,233	61,893	0,028	-0,021
-523,218	-194,040	0,103	-0,001
-522,204	-200,000	0,007	0,062
-521,189	223,518	-0,088	-0,105
-520,175	80,017	0,085	-0,068
-519,160	-200,000	0,006	0,128
-518,145	800,000	-0,088	0,212
-517,131	395,926	0,014	0,022
-516,116	173,102	0,013	-0,013
-515,102	800,000	0,016	-0,044
-514,087	-117,979	0,064	0,008
-513,072	-88,490	-0,086	-0,019
-512,058	108,897	-0,077	-0,068
-511,043	-200,000	-0,008	-0,108
-510,029	-11,446	0,149	0,072
-509,014	800,000	0,026	0,057
-507,999	100,843	0,026	-0,022
-506,985	-200,000	0,000	0,066
-505,970	-200,000	-0,002	-0,036
-504,956	-8,171	-0,039	0,019
-503,941	83,032	0,071	0,057
-502,926	644,382	-0,061	0,116
-501,912	800,000	0,031	0,083
-500,897	-175,414	-0,047	-0,001
-499,883	-200,000	-0,018	-0,097
-498,868	491,879	-0,060	-0,102
-497,853	-5,652	0,080	0,040
-496,839	-171,880	-0,035	-0,001
-495,824	-200,000	-0,026	0,133
-494,810	-166,494	0,017	-0,001
-493,795	79,240	-0,006	-0,004
-492,781	141,873	-0,066	-0,065
-491,766	-4,239	-0,118	-0,060
-490,751	-110,133	-0,097	-0,015
-489,737	63,567	0,024	0,018
-488,722	800,000	-0,030	0,095
-487,708	72,873	-0,121	-0,093
-486,693	-154,321	0,105	0,005
-485,678	800,000	-0,018	0,053
-484,664	225,386	0,053	-0,063
-483,649	523,215	-0,040	-0,069
-482,635	305,327	0,043	0,059
-481,620	-91,454	-0,028	0,006
-480,605	379,249	0,034	-0,052
-479,591	30,088	0,066	-0,041
-478,576	-5,990	0,107	0,054
-477,562	-200,000	-0,005	-0,075
-476,547	148,602	0,024	-0,024
-475,532	375,484	0,033	-0,050
-474,518	336,656	-0,019	0,028
-473,503	90,707	0,109	0,090
-472,489	-200,000	0,022	0,089
-471,474	-200,000	0,007	-0,070
-470,459	800,000	0,040	-0,085
-469,445	216,437	-0,080	0,094
-468,430	-94,626	0,105	-0,021
-467,416	-108,675	0,107	-0,017
-466,401	-22,843	0,116	-0,051
-465,386	-37,107	-0,084	0,033
-464,372	-200,000	-0,005	-0,046
-463,357	3,584	-0,064	-0,034
-462,343	197,907	-0,123	0,138
-461,328	-24,460	-0,082	0,036
-460,313	320,714	0,086	0,120
-459,299	375,846	0,014	0,021
-458,284	-200,000	-0,003	-0,010
-457,270	800,000	-0,023	-0,059
-456,255	800,000	0,046	-0,103
-455,241	-103,375	0,138	0,024
-454,226	-8,173	-0,042	0,021
-453,211	-142,952	0,073	-0,005
-452,197	800,000	0,025	0,065
-451,182	-200,000	-0,001	0,140
-450,168	122,489	0,131	-0,120
-449,153	34,045	0,097	0,062
-448,138	596,098	-0,027	-0,050
-447,124	-10,762	0,087	0,042
-446,109	6,043	0,098	-0,053
-445,095	-81,243	0,022	0,005
-444,080	-200,000	0,036	0,123
-443,065	307,042	0,022	0,030
-442,051	-200,000	0,010	-0,035
-441,036	800,000	-0,048	-0,147
-440,022	-200,000	0,004	-0,109
-439,007	10,874	0,030	0,017
-437,992	598,154	0,045	0,083
-436,978	196,158	0,097	0,109
-435,963	-109,792	0,113	-0,017
-434,949	165,074	-0,059	0,061
-433,934	-200,000	-0,007	-0,084
-432,919	-62,827	-0,100	-0,030
-431,905	-200,000	0,000	-0,109
-430,890	168,793	0,113	-0,118
-429,876	-200,000	0,023	-0,122
-428,861	-31,323	0,046	0,019
-427,846	161,512	-0,022	0,022
-426,832	679,343	0,023	-0,044
-425,817	98,971	-0,084	0,072
-424,803	491,332	-0,059	-0,100
-423,788	456,114	-0,038	0,062
-422,773	-200,000	0,011	-0,043
-421,759	494,685	-0,034	0,058
-420,744	800,000	-0,027	0,077
-419,730	382,802	0,028	-0,043
-418,715	674,881	-0,083	-0,159
-417,701	112,128	0,079	0,071
-416,686	-81,811	-0,038	-0,009
-415,671	315,346	-0,043	0,059
-414,657	-96,378	0,093	0,018
-413,642	-200,000	-0,015	-0,089
-412,628	50,858	0,035	-0,024
-411,613	91,854	0,059	0,048
-410,598	41,605	-0,047	-0,031
-409,584	-200,000	-0,002	-0,008
-408,569	77,663	0,086	0,067
-407,555	-22,515	0,011	-0,005
-406,540	239,607	-0,058	0,071
-405,525	-76,636	-0,000	0,000
-404,511	800,000	-0,030	0,083
-403,496	800,000	-0,073	0,160
-402,482	-115,512	-0,131	-0,018
-401,467	800,000	-0,011	0,027
-400,452	228,947	0,154	-0,185
-399,438	800,000	-0,026	-0,064
-398,423	-68,481	-0,098	-0,028
-397,409	63,427	-0,070	-0,051
-396,394	-31,825	0,025	0,010
-395,379	-61,243	0,088	0,027
-394,365	-200,000	-0,008	-0,097
-393,350	-200,000	0,021	0,073
-392,336	-145,539	-0,047	-0,003
-391,321	15,116	-0,039	-0,022
-390,306	132,938	0,059	-0,056
-389,292	27,878	-0,087	-0,054
-388,277	-200,000	0,004	-0,129
-387,263	55,757	-0,072	0,051
-386,248	-200,000	0,007	-0,059
-385,233	-200,000	0,042	-0,181
-384,219	123,772	-0,090	0,083
-383,204	-80,141	-0,076	-0,019
-382,190	800,000	0,023	-0,053
-381,175	-116,382	-0,115	0,015
-380,160	-95,633	0,067	0,013
-379,146	311,187	-0,015	-0,021
-378,131	723,617	-0,055	0,108
-377,117	-121,031	0,179	-0,022
-376,102	132,344	0,006	0,006
-375,088	-200,000	-0,015	-0,082
-374,073	-200,000	-0,030	-0,212
-373,058	-87,091	0,099	-0,022
-372,044	-200,000	-0,001	-0,034
-371,029	-124,710	-0,059	-0,007
-370,015	-200,000	-0,010	-0,053
-369,000	83,797	-0,106	-0,085
-367,985	-104,941	0,119	-0,020
-366,971	485,095	0,061	-0,103
-365,956	800,000	-0,031	-0,076
-364,942	-55,264	0,034	0,011
-363,927	216,767	-0,058	-0,067
-362,912	-142,843	-0,204	-0,014
-361,898	-60,973	0,119	-0,037
-360,883	24,851	-0,160	0,097
-359,869	-134,170	-0,065	-0,006
-358,854	-15,476	0,077	0,036
-357,839	-200,000	0,036	0,169
-356,825	132,267	0,101	0,095
-355,810	59,353	0,105	0,076
-354,796	-200,000	-0,030	0,100
-353,781	82,572	-0,133	0,106
-352,766	-94,186	0,036	0,007
-351,752	146,401	0,040	-0,039
-350,737	428,767	0,042	0,067
-349,723	-200,000	-0,008	0,089
-348,708	-200,000	-0,006	0,088
-347,693	60,765	0,063	0,046
-346,679	330,156	-0,081	-0,115
-345,664	800,000	-0,046	-0,114
-344,650	321,504	-0,044	-0,062
-343,635	-132,634	0,092	-0,009
-342,620	-175,211	0,058	-0,001
-341,606	-24,788	-0,038	0,016
-340,591	92,873	0,082	-0,068
-339,577	207,036	-0,091	-0,104
-338,562	-155,609	-0,139	-0,006
-337,548	-9,717	-0,043	0,021
-336,533	-200,000	0,017	-0,066
-335,518	-79,359	0,057	0,014
-334,504	88,751	0,036	0,029
-333,489	-57,346	-0,057	0,018
-332,475	-200,000	0,047	-0,183
-331,460	7,564	0,028	-0,015
-330,445	164,536	-0,016	0,016
-329,431	149,949	0,074	0,074
-328,416	800,000	0,061	0,130
-327,402	-200,000	0,002	-0,099
-326,387	-27,823	-0,096	-0,040
-325,372	227,129	-0,098	-0,117
-324,358	82,745	0,073	-0,058
-323,343	-50,170	-0,098	0,034
-322,329	-19,366	-0,060	0,027
-321,314	800,000	0,028	0,064
-320,299	800,000	0,062	0,169
-319,285	-85,995	-0,042	-0,009
-318,270	240,002	-0,061	0,075
-317,256	124,377	-0,101	-0,093
-316,241	191,644	-0,061	0,067
-315,226	-200,000	0,000	0,219
-314,212	117,736	0,082	0,074
-313,197	144,668	-0,009	-0,009
-312,183	34,083	-0,082	-0,052
-311,168	520,103	-0,050	-0,086
-310,153	-200,000	0,000	0,023
-309,139	-3,632	-0,090	-0,045
-308,124	3,410	0,115	0,061
-307,110	224,224	-0,037	-0,044
-306,095	-200,000	-0,025	0,085
-305,080	-146,255	-0,117	-0,007
-304,066	-178,856	-0,076	0,001
-303,051	127,214	0,070	-0,065
-302,037	-200,000	-0,019	0,067
-301,022	-200,000	0,004	0,067
-300,008	-40,068	-0,039	0,015
-298,993	-190,424	0,116	-0,001
-297,978	-161,764	0,085	-0,003
-296,964	-154,078	0,158	-0,008
-295,949	109,134	-0,025	-0,022
-294,935	-1,427	-0,074	-0,038
-293,920	-124,246	-0,109	-0,012
-292,905	-122,160	0,116	0,014
-291,891	504,745	0,058	0,098
-290,876	800,000	0,046	0,143
-289,862	659,830	0,028	-0,053
-288,847	-200,000	0,005	-0,073
-287,832	-200,000	-0,001	-0,003
-286,818	581,708	0,011	0,020
-285,803	-200,000	-0,006	0,048
-284,789	98,454	-0,040	0,034
-283,774	-200,000	0,023	0,150
-282,759	-200,000	-0,013	0,103
-281,745	-200,000	0,000	0,029
-280,730	618,838	0,041	-0,076
-279,716	-200,000	0,008	-0,097
-278,701	88,294	0,104	-0,084
-277,686	-48,892	-0,116	0,040
-276,672	176,321	0,092	-0,098
-275,657	643,028	0,037	-0,068
-274,643	-28,070	0,109	-0,046
-273,628	-40,167	-0,058	-0,022
-272,613	800,000	-0,037	0,103
-271,599	3,240	-0,022	0,012
-270,584	157,544	0,021	-0,022
-269,570	210,544	-0,096	0,110
-268,555	522,873	0,022	-0,038
-267,540	-0,088	0,117	0,061
-266,526	354,503	0,037	-0,054
-265,511	350,745	0,015	-0,022
-264,497	-200,000	-0,025	0,118
-263,482	-98,704	0,048	0,009
-262,467	64,936	-0,014	0,010
-261,453	448,911	-0,069	-0,112
-260,438	0,820	0,085	-0,044
-259,424	-18,649	0,041	-0,019
-258,409	-200,000	0,001	0,160
-257,395	-113,364	0,164	-0,023
-256,380	-57,054	-0,093	0,030
-255,365	42,243	0,200	0,133
-254,351	-87,830	0,135	-0,029
-253,336	-200,000	-0,008	-0,075
-252,322	352,329	-0,051	-0,074
-251,307	-46,487	0,029	0,010
-250,292	-19,306	-0,075	-0,034
-249,278	-39,059	0,080	-0,031
-248,263	-200,000	-0,025	0,100
-247,249	800,000	-0,038	0,099
-246,234	-162,116	-0,098	0,004
-245,219	-30,601	-0,153	-0,063
-244,205	-200,000	0,013	-0,092
-243,190	93,686	0,034	0,028
-242,176	393,213	-0,058	-0,088
-241,161	-83,364	0,100	-0,023
-240,146	103,268	-0,032	-0,027
-239,132	-122,288	-0,098	0,012
-238,117	800,000	-0,055	-0,118
-237,103	-64,456	-0,070	0,021
-236,088	346,097	0,052	0,074
-235,073	-87,659	0,117	0,026
-234,059	22,875	0,029	0,017
-233,044	-80,024	0,089	0,022
-232,030	-200,000	-0,046	-0,164
-231,015	-200,000	-0,010	0,125
-230,000	736,738	0,097	-0,190
-228,986	-165,549	0,084	0,003
-227,971	74,462	-0,029	0,022
-226,957	800,000	0,022	0,048
-225,942	-126,412	-0,204	-0,022
-224,927	-200,000	0,031	0,107
-223,913	-200,000	0,006	0,108
-222,898	98,704	0,089	-0,075
-221,884	-200,000	-0,023	0,103
-220,869	224,073	0,050	0,059
-219,855	-200,000	0,019	-0,138
-218,840	800,000	0,025	-0,054
-217,825	-26,209	0,098	-0,042
-216,811	-17,473	-0,085	0,039
-215,796	245,176	-0,028	-0,035
-214,782	468,519	0,114	-0,187
-213,767	-35,871	0,030	-0,012
-212,752	-0,922	0,178	-0,092
-211,738	800,000	0,051	-0,117
-210,723	328,632	0,122	-0,171
-209,709	-120,584	0,052	-0,006
-208,694	-200,000	-0,050	-0,180
-207,679	800,000	-0,072	-0,186
-206,665	-69,052	-0,046	0,013
-205,650	93,975	0,108	0,089
-204,636	2,639	0,199	0,105
-203,621	-49,776	0,049	0,017
-202,606	28,853	-0,140	0,086
-201,592	-79,691	-0,084	0,020
-200,577	-28,639	-0,062	0,026
-199,563	263,986	0,061	0,078
-198,548	-36,130	0,108	-0,042
-197,533	113,150	0,052	-0,046
-196,519	-200,000	0,045	0,230
-195,504	286,333	-0,044	-0,057
-194,490	-109,943	-0,042	0,006
-193,475	-114,427	-0,166	-0,023
-192,460	800,000	-0,009	-0,020
-191,446	262,057	0,099	0,125
-190,431	-200,000	0,023	0,078
-189,417	16,845	0,038	0,022
-188,402	-200,000	0,032	0,226
-187,387	-141,577	-0,131	0,009
-186,373	-200,000	-0,022	0,180
-185,358	-53,630	-0,091	0,030
-184,344	282,592	0,057	-0,074
-183,329	-200,000	0,006	0,093
-182,315	800,000	-0,014	0,034
-181,300	68,872	-0,109	-0,081
-180,285	127,835	0,134	-0,124
-179,271	-200,000	-0,001	0,056
-178,256	-121,871	-0,201	-0,024
-177,242	159,159	0,023	0,023
-176,227	-200,000	-0,001	0,106
-175,212	149,652	-0,029	0,028
-174,198	-200,000	0,012	0,043
-173,183	-54,110	-0,069	0,023
-172,169	70,824	0,061	0,046
-171,154	-32,089	-0,093	-0,038
-170,139	301,206	0,111	0,149
-169,125	800,000	0,016	-0,038
-168,110	361,475	0,056	0,082
-167,096	800,000	-0,063	0,157
-166,081	206,466	0,027	0,031
-165,066	136,298	-0,055	-0,052
-164,052	52,267	0,065	-0,045
-163,037	-200,000	-0,027	0,098
-162,023	520,188	-0,053	0,092
-161,008	-77,041	0,088	-0,022
-159,993	-200,000	-0,022	0,111
-158,979	434,785	-0,026	0,041
-157,964	800,000	-0,050	-0,145
-156,950	-68,594	-0,137	-0,038
-155,935	800,000	0,032	-0,096
-154,920	-49,785	0,039	-0,013
-153,906	-200,000	0,011	-0,073
-152,891	1,359	-0,098	-0,051
-151,877	-26,152	-0,122	0,052
-150,862	-200,000	0,011	-0,111
-149,847	-79,080	0,119	0,029
-148,833	55,130	-0,073	-0,052
-147,818	-200,000	0,022	0,095
-146,804	52,588	0,078	0,054
-145,789	-120,786	0,111	0,013
-144,775	-200,000	-0,021	0,123
-143,760	351,888	-0,064	-0,093
-142,745	800,000	-0,008	-0,023
-141,731	292,873	0,051	0,068
-140,716	10,012	0,106	-0,059
-139,702	800,000	-0,043	0,109
-138,687	-53,583	0,024	0,008
-137,672	41,922	-0,098	-0,064
-136,658	9,122	-0,177	0,097
-135,643	800,000	0,033	-0,084
-134,629	38,158	0,072	0,046
-133,614	-200,000	0,010	-0,102
-132,599	-200,000	-0,008	0,041
-131,585	-200,000	-0,001	0,173
-130,570	-22,262	0,103	0,045
-129,556	-136,378	0,120	-0,010
-128,541	-17,885	-0,212	-0,096
-127,526	70,720	0,057	-0,043
-126,512	215,343	-0,037	0,043
-125,497	85,291	0,117	0,093
-124,483	176,093	-0,078	0,083
-123,468	11,864	0,071	0,039
-122,453	145,278	-0,011	-0,011
-121,439	93,812	-0,049	-0,041
-120,424	193,895	0,070	-0,077
-119,410	71,208	0,110	-0,083
-118,395	800,000	-0,047	0,126
-117,380	-8,528	-0,036	-0,017
-116,366	-38,895	-0,077	0,029
-115,351	18,823	-0,067	-0,039
-114,337	-200,000	-0,012	-0,058
-113,322	-64,079	0,064	-0,019
-112,307	-152,449	0,072	-0,004
-111,293	392,126	-0,027	-0,041
-110,278	-200,000	-0,010	-0,112
-109,264	-200,000	0,043	0,154
-108,249	800,000	-0,045	-0,127
-107,234	57,117	0,051	0,036
-106,220	156,937	-0,082	-0,082
-105,205	800,000	0,048	-0,129
-104,191	128,751	0,015	-0,014
-103,176	-39,315	0,067	-0,025
-102,162	800,000	-0,040	-0,096
-101,147	-99,071	0,024	0,004
-100,132	73,248	-0,051	-0,039
-99,118	800,000	0,023	-0,053
-98,103	800,000	0,034	0,103
-97,089	-59,016	0,036	-0,011
-96,074	-12,847	0,046	0,021
-95,059	-200,000	0,003	-0,057
-94,045	581,586	0,034	0,061
-93,030	706,866	-0,064	-0,123
-92,016	469,187	0,020	0,033
-91,001	-133,245	0,103	-0,009
-89,986	778,359	0,017	0,034
-88,972	-200,000	0,008	0,189
-87,957	-117,140	0,113	-0,015
-86,943	-200,000	-0,022	0,146
-85,928	41,629	-0,112	0,073
-84,913	1,972	-0,080	0,042
-83,899	-200,000	-0,005	0,084
-82,884	122,546	0,116	0,106
-81,870	-117,771	0,008	0,001
-80,855	-31,583	0,076	0,031
-79,840	304,282	-0,052	0,069
-78,826	-200,000	0,009	0,126
-77,811	-5,394	-0,168	-0,083
-76,797	-104,802	-0,025	0,004
-75,782	170,076	0,063	-0,066
-74,767	-200,000	0,046	0,213
-73,753	-200,000	-0,016	-0,060
-72,738	10,306	0,086	-0,047
-71,724	-200,000	-0,013	-0,087
-70,709	55,189	0,087	-0,061
-69,694	-24,932	0,013	0,005
-68,680	-115,308	0,069	0,009
-67,665	111,869	0,107	0,093
-66,651	-118,354	0,067	0,009
-65,636	-24,797	-0,061	-0,026
-64,622	222,178	0,042	-0,050
-63,607	497,933	0,032	0,054
-62,592	-66,586	0,052	0,015
-61,578	20,324	-0,081	-0,047
-60,563	-84,368	-0,082	0,019
-59,549	-200,000	0,013	0,100
-58,534	-128,056	-1,299	-0,133
-57,519	433,041	-0,861	-1,359
-56,505	-200,000	-0,943	-4,426
-55,490	15,785	0,514	-0,292
-54,476	800,000	4,835	11,499
-53,461	-200,000	13,785	251,852
-52,446	-200,000	691,613	2244,198
-51,432	586,008	1621,304	2900,865
-50,417	118,392	1631,356	1458,251
-49,403	73,846	1285,908	975,874
-48,388	37,924	1022,163	656,961
-47,373	24,113	980,462	584,863
-46,359	23,371	969,978	576,160
-45,344	22,303	965,708	570,118
-44,330	22,340	964,046	569,235
-43,315	22,221	962,745	568,059
-42,300	22,185	961,672	567,287
-41,286	22,148	960,812	566,638
-40,271	22,147	959,903	566,073
-39,257	22,089	958,886	565,263
-38,242	22,132	957,789	564,733
-37,227	22,101	957,123	564,219
-36,213	22,150	956,012	563,699
-35,198	22,085	955,385	563,098
-34,184	22,082	954,795	562,719
-33,169	22,101	953,681	562,100
-32,154	22,208	952,869	561,944
-31,140	22,185	951,821	561,229
-30,125	22,179	951,093	560,760
-29,111	22,122	950,418	560,157
-28,096	22,096	949,716	559,636
-27,082	22,157	949,109	559,451
-26,067	22,167	948,125	558,881
-25,052	22,097	947,629	558,343
-24,038	22,094	946,875	557,866
-23,023	22,157	946,010	557,537
-22,009	22,180	945,379	557,216
-20,994	22,214	944,981	557,067
-19,979	22,176	944,372	556,565
-18,965	22,165	943,695	556,111
-17,950	22,186	943,154	555,835
-16,936	22,073	942,289	554,944
-15,921	22,106	941,676	554,666
-14,906	22,057	940,885	554,021
-13,892	22,063	940,453	553,767
-12,877	21,973	939,881	553,121
-11,863	21,999	939,117	552,731
-10,848	22,048	938,597	552,561
-9,833	22,140	937,998	552,476
-8,819	22,124	937,421	552,063
-7,804	22,051	936,929	551,522
-6,790	22,063	936,269	551,149
-5,775	22,066	935,552	550,714
-4,760	22,024	935,031	550,254
-3,746	22,020	934,487	549,897
-2,731	21,881	933,850	549,063
-1,717	21,825	933,150	548,456
-0,702	21,838	932,301	547,976
0,313	21,724	931,709	548,095
1,327	24,301	929,224	554,662
2,342	32,042	807,543	502,944
3,356	27,218	508,185	308,269
4,371	3,043	373,103	195,669
5,386	0,077	355,920	183,014
6,400	-1,432	349,821	178,047
7,415	-2,368	346,925	175,439
8,429	-2,473	345,492	174,574
9,444	-2,616	344,628	173,953
10,459	-2,525	343,838	173,647
11,473	-2,457	343,127	173,352
12,488	-2,346	342,714	173,259
13,502	-2,199	342,194	173,153
14,517	-2,230	341,667	172,835
15,531	-2,513	341,077	172,189
16,546	-2,479	340,597	171,971
17,561	-2,603	340,082	171,551
18,575	-2,488	339,646	171,449
19,590	-2,624	339,342	171,122
20,604	-2,446	339,197	171,242
21,619	-2,647	338,649	170,715
22,634	-2,520	338,309	170,676
23,648	-2,612	337,963	170,380
24,663	-2,526	337,567	170,264
25,677	-2,699	337,408	169,969
26,692	-2,544	337,016	169,936
27,707	-2,626	336,917	169,776
28,721	-2,537	336,489	169,648
29,736	-2,419	336,139	169,593
30,750	-2,605	335,847	169,216
31,765	-2,635	335,553	169,018
32,780	-2,534	335,256	168,969
33,794	-2,477	334,885	168,832
34,809	-2,447	334,612	168,715
35,823	-2,593	334,385	168,417
36,838	-2,689	334,168	168,183
37,853	-2,713	333,863	167,987
38,867	-2,516	333,526	168,028
39,882	-2,663	333,207	167,684
40,896	-2,623	332,978	167,600
41,911	-2,635	332,756	167,459
42,926	-2,646	332,338	167,221
43,940	-2,731	332,161	167,020
44,955	-2,738	331,846	166,839
45,969	-2,758	331,548	166,652
46,984	-2,840	331,121	166,329
47,999	-3,143	330,993	165,906
49,013	-3,182	330,697	165,698
50,028	-3,193	330,284	165,464
51,042	-3,286	330,049	165,226
52,057	-3,297	329,817	165,084
53,071	-3,090	329,492	165,140
54,086	-3,302	329,486	164,882
55,101	-3,082	329,133	164,940
56,115	-2,886	328,979	165,069
57,130	-2,743	328,948	165,199
58,144	-2,555	328,556	165,200
59,159	-2,565	328,438	165,115
60,174	-2,328	328,075	165,184
61,188	-2,416	327,791	164,927
62,203	-2,592	327,744	164,691
63,217	-2,544	327,343	164,528
64,232	-2,449	326,858	164,377
65,247	-2,354	326,815	164,447
66,261	-2,387	326,592	164,283
67,276	-2,589	325,989	163,740
68,290	-2,822	325,951	163,446
69,305	-2,641	325,515	163,415
70,320	-2,889	325,392	163,062
71,334	-2,554	325,036	163,242
72,349	-2,419	325,047	163,383
73,363	-2,459	324,794	163,197
74,378	-2,431	324,575	163,103
75,393	-2,414	324,240	162,939
76,407	-2,562	324,005	162,642
77,422	-2,533	323,852	162,583
78,436	-2,361	323,538	162,602
79,451	-2,500	323,299	162,314
80,466	-2,624	322,955	161,988
81,480	-2,620	322,650	161,826
82,495	-2,711	322,453	161,613
83,509	-2,558	322,148	161,614
84,524	-2,794	321,878	161,204
85,539	-2,753	321,587	161,089
86,553	-2,828	321,247	160,822
87,568	-2,881	321,037	160,644
88,582	-2,854	320,879	160,580
89,597	-2,821	320,674	160,499
90,611	-2,675	320,437	160,527
91,626	-2,468	320,410	160,726
92,641	-2,459	320,117	160,574
93,655	-2,502	319,859	160,384
94,670	-2,655	319,503	160,023
95,684	-2,648	319,333	159,932
96,699	-2,628	318,997	159,771
97,714	-2,706	318,792	159,569
98,728	-2,749	318,540	159,382
99,743	-2,770	318,250	159,200
100,757	-2,824	318,059	159,032
101,772	-2,730	317,955	159,067
102,787	-2,654	317,686	159,000
103,801	-2,814	317,587	158,763
104,816	-2,727	317,292	158,696
105,830	-2,414	317,057	158,903
106,845	-2,454	316,952	158,793
107,860	-2,566	316,584	158,474
108,874	-2,705	316,559	158,297
109,889	-2,668	316,090	158,089
110,903	-2,747	316,026	157,957
111,918	-2,720	315,775	157,847
112,933	-2,767	315,491	157,640
113,947	-2,491	315,266	157,811
114,962	-2,516	315,044	157,659
115,976	-2,638	314,902	157,442
116,991	-2,534	314,430	157,303
118,006	-2,619	314,397	157,182
119,020	-2,704	314,279	157,018
120,035	-2,442	314,092	157,190
121,049	-2,569	313,946	156,967
122,064	-2,482	313,569	156,859
123,079	-2,434	313,202	156,712
124,093	-2,586	313,142	156,506
125,108	-2,792	312,807	156,104
126,122	-2,844	312,540	155,902
127,137	-2,906	312,250	155,677
128,151	-2,912	312,003	155,535
129,166	-2,825	311,811	155,518
130,181	-2,923	311,566	155,277
131,195	-2,832	311,283	155,219
132,210	-2,680	311,133	155,291
133,224	-2,491	310,893	155,358
134,239	-2,663	310,899	155,164
135,254	-2,531	310,715	155,199
136,268	-2,593	310,357	154,940
137,283	-2,805	310,104	154,577
138,297	-2,914	309,713	154,253
139,312	-2,925	309,507	154,125
140,327	-2,554	309,427	154,462
141,341	-2,523	309,288	154,412
142,356	-2,346	309,195	154,538
143,370	-2,283	309,042	154,514
144,385	-2,153	308,915	154,573
145,400	-2,200	308,607	154,355
146,414	-2,460	308,457	153,994
147,429	-2,286	308,137	154,003
148,443	-2,195	308,032	154,032
149,458	-2,275	307,560	153,698
150,473	-2,248	307,538	153,702
151,487	-2,217	307,191	153,547
152,502	-2,095	306,979	153,556
153,516	-2,196	306,768	153,330
154,531	-2,150	306,662	153,312
155,546	-2,243	306,401	153,071
156,560	-2,341	306,151	152,830
157,575	-2,414	305,890	152,610
158,589	-2,388	305,722	152,540
159,604	-2,490	305,620	152,370
160,619	-2,387	305,315	152,310
161,633	-2,480	305,116	152,102
162,648	-2,260	304,926	152,221
163,662	-2,254	304,709	152,106
164,677	-2,363	304,572	151,910
165,692	-2,428	304,455	151,772
166,706	-2,171	304,173	151,883
167,721	-2,505	303,985	151,431
168,735	-2,367	303,851	151,492
169,750	-2,222	303,587	151,497
170,764	-2,197	303,400	151,416
171,779	-2,105	303,147	151,371
172,794	-2,135	303,193	151,350
173,808	-2,336	302,766	150,916
174,823	-2,732	302,422	150,325
175,837	-2,720	302,011	150,120
176,852	-2,424	302,204	150,506
177,867	-2,136	302,031	150,701
178,881	-2,105	301,794	150,601
179,896	-2,144	301,713	150,508
180,910	-2,055	301,478	150,468
181,925	-2,067	301,236	150,322
182,940	-2,030	300,902	150,179
183,954	-2,191	300,854	149,977
184,969	-2,440	300,642	149,604
185,983	-2,162	300,353	149,730
186,998	-2,246	300,231	149,571
188,013	-2,181	299,884	149,452
189,027	-2,197	299,757	149,357
190,042	-2,403	299,641	149,078
191,056	-2,148	299,464	149,235
192,071	-2,177	299,402	149,161
193,086	-2,004	298,983	149,114
194,100	-1,944	298,807	149,074
195,115	-2,106	298,643	148,815
196,129	-2,155	298,276	148,570
197,144	-2,094	298,076	148,519
198,159	-2,059	297,842	148,424
199,173	-2,168	297,872	148,316
200,188	-1,948	297,561	148,369
201,202	-2,355	297,302	147,817
202,217	-2,699	296,769	147,193
203,232	-2,806	296,657	147,017
204,246	-2,232	296,475	147,490
205,261	-2,128	296,585	147,635
206,275	-2,145	296,343	147,485
207,290	-2,060	296,281	147,526
208,304	-2,092	295,871	147,278
209,319	-2,113	295,792	147,203
210,334	-2,157	295,580	147,040
211,348	-2,227	295,218	146,778
212,363	-2,186	295,152	146,773
213,377	-1,940	294,820	146,840
214,392	-2,069	294,722	146,650
215,407	-2,306	294,417	146,248
216,421	-2,521	294,165	145,896
217,436	-2,332	293,969	145,974
218,450	-2,400	293,870	145,844
219,465	-2,407	293,729	145,755
220,480	-2,254	293,443	145,751
221,494	-2,331	293,299	145,591
222,509	-2,451	293,192	145,405
223,523	-2,259	293,081	145,528
224,538	-2,029	292,873	145,639
225,553	-2,152	292,727	145,432
226,567	-2,033	292,418	145,384
227,582	-1,897	292,221	145,406
228,596	-2,015	292,103	145,218
229,611	-1,886	291,980	145,271
230,626	-2,124	291,699	144,884
231,640	-2,462	291,345	144,363
232,655	-2,806	291,163	143,922
233,669	-2,703	290,896	143,879
234,684	-2,782	290,749	143,715
235,699	-2,597	290,575	143,797
236,713	-2,623	290,368	143,657
237,728	-2,552	290,190	143,626
238,742	-2,442	290,093	143,672
239,757	-2,402	289,932	143,619
240,772	-2,428	289,873	143,552
241,786	-2,207	289,591	143,615
242,801	-2,360	289,329	143,323
243,815	-2,505	289,235	143,123
244,830	-2,267	288,912	143,182
245,844	-2,353	288,772	143,015
246,859	-2,348	288,590	142,918
247,874	-2,555	288,521	142,670
248,888	-2,681	288,326	142,438
249,903	-2,174	288,046	142,779
250,917	-2,161	287,956	142,734
251,932	-2,136	287,945	142,740
252,947	-1,436	287,882	143,375
253,961	-1,791	287,519	142,838
254,976	-0,660	288,097	144,208
255,990	1,622	288,742	146,735
257,005	2,716	288,843	147,834
258,020	4,002	289,082	149,191
259,034	4,090	289,028	149,234
260,049	3,863	288,987	148,980
261,063	3,749	288,570	148,641
262,078	3,765	288,627	148,673
263,093	4,660	288,510	149,465
264,107	4,649	288,441	149,406
265,122	4,525	288,227	149,162
266,136	4,762	288,089	149,305
267,151	4,684	287,863	149,100
268,166	4,312	287,676	148,631
269,180	4,207	287,527	148,440
270,195	4,266	287,325	148,379
271,209	4,400	287,061	148,358
272,224	4,487	286,717	148,251
273,239	4,095	286,618	147,810
274,253	4,204	286,409	147,794
275,268	4,880	286,345	148,395
276,282	4,558	286,229	148,014
277,297	4,581	286,057	147,934
278,312	4,818	286,016	148,126
279,326	4,606	285,605	147,697
280,341	4,701	285,311	147,623
281,355	4,309	285,185	147,171
282,370	4,126	285,076	146,927
283,384	4,333	284,807	146,972
284,399	4,151	284,772	146,767
285,414	4,334	284,437	146,756
286,428	4,080	284,319	146,441
287,443	4,154	283,839	146,251
288,457	4,217	283,696	146,223
289,472	4,010	283,599	145,964
290,487	4,032	283,405	145,872
291,501	3,996	283,176	145,707
292,516	3,772	282,834	145,306
293,530	3,835	282,640	145,253
294,545	4,002	282,860	145,511
295,560	4,178	282,620	145,541
296,574	4,003	282,235	145,165
297,589	3,991	282,233	145,139
298,603	4,560	282,260	145,676
299,618	4,465	282,014	145,447
300,633	4,290	281,710	145,113
301,647	4,225	281,556	144,959
302,662	4,254	281,252	144,817
303,676	4,191	281,073	144,653
304,691	3,959	280,802	144,283
305,706	3,853	280,582	144,058
306,720	3,716	280,398	143,823
307,735	3,768	280,306	143,811
308,749	4,056	280,272	144,051
309,764	4,017	280,086	143,905
310,779	3,875	279,894	143,661
311,793	3,748	279,636	143,397
312,808	3,694	279,355	143,190
313,822	3,803	279,118	143,158
314,837	3,766	279,000	143,050
315,852	3,497	278,908	142,739
316,866	3,708	278,546	142,738
317,881	3,901	278,401	142,830
318,895	3,895	278,251	142,734
319,910	3,619	278,059	142,368
320,925	3,549	277,694	142,103
321,939	3,699	277,783	142,275
322,954	3,980	277,572	142,414
323,968	3,850	277,463	142,225
324,983	4,027	277,363	142,325
325,997	4,185	277,244	142,397
327,012	4,133	277,048	142,236
328,027	4,207	276,707	142,117
329,041	4,030	276,551	141,860
330,056	4,013	276,461	141,786
331,070	4,241	276,189	141,844
332,085	3,853	276,126	141,442
333,100	3,919	275,938	141,393
334,114	4,069	275,648	141,370
335,129	3,871	275,405	141,051
336,143	3,860	275,444	141,048
337,158	4,087	275,329	141,185
338,173	4,075	275,029	141,008
339,187	3,805	274,825	140,643
340,202	3,947	274,629	140,660
341,216	4,036	274,532	140,679
342,231	3,959	274,386	140,522
343,246	3,886	274,199	140,347
344,260	3,964	273,976	140,291
345,275	4,178	273,881	140,426
346,289	4,448	273,873	140,655
347,304	4,303	273,610	140,375
348,319	4,159	273,370	140,109
349,333	3,978	273,208	139,848
350,348	4,256	273,140	140,053
351,362	4,253	273,010	139,972
352,377	4,183	272,722	139,748
353,392	4,152	272,532	139,610
354,406	4,226	272,472	139,634
355,421	192,068	1329,598	1409,088
356,435	155,202	1458,479	1409,197
