DTS Sentinel unit serial number:	SN410029Multiplexer serial number:	ORYXHardware model number:	OX2-SRSoftware version number:	ORYX F/W v4,00 Oryx Data Collector v3.7.2.0data status	okinstallation	B4 Nyhavnadifferential loss correction	single-endedforward channel	channel 2reverse channel	N/Adate	2023/12/15time	17:15:13forward acquisition time	300,00reverse acquisition time	0,00gamma	499,1914k internal	0,3142k external	0,3142temperature offset calibration	1,0000default loss term (dB/km)	0,3820temperature slope calibration	1,0000multiplexer offset coefficient	1,0000multiplexer slope coefficient	1,0000fibre end	0,00T internal ref (°C)	18,17T ext. ref 1 (°C)	3,92T ext. ref 2 (°C)	4,03length (m)	temperature (°C)	Stokes	anti-Stokes-744,400	-8,736	-0,057	0,028
-743,385	-30,210	-0,154	0,064
-742,371	-153,343	0,255	0,013
-741,356	-57,863	-0,286	-0,092
-740,342	-150,851	0,108	-0,006
-739,327	-98,587	-0,249	0,047
-738,312	-18,807	0,049	0,023
-737,298	75,279	-0,257	0,201
-736,283	153,693	0,055	0,056
-735,269	-133,697	-0,196	0,018
-734,254	88,786	0,076	-0,063
-733,239	-42,451	-0,365	-0,137
-732,225	337,756	0,120	0,174
-731,210	129,103	-0,141	-0,134
-730,196	218,404	-0,142	-0,169
-729,181	-200,000	0,051	0,177
-728,167	-200,000	0,015	-0,144
-727,152	514,569	-0,023	0,040
-726,137	-73,382	-0,075	-0,020
-725,123	71,521	-0,010	0,008
-724,108	121,288	-0,050	0,046
-723,094	800,000	0,043	-0,120
-722,079	-200,000	-0,024	-0,087
-721,064	77,384	-0,052	-0,041
-720,050	-107,574	0,074	-0,012
-719,035	-200,000	0,003	0,029
-718,021	262,153	-0,060	-0,078
-717,006	800,000	-0,060	-0,126
-715,991	299,422	-0,063	-0,086
-714,977	649,432	-0,058	0,111
-713,962	717,964	-0,030	-0,059
-712,948	-108,044	0,201	0,032
-711,933	197,646	-0,029	0,032
-710,918	-177,516	-0,093	0,002
-709,904	-120,484	-0,085	-0,011
-708,889	334,883	0,047	0,068
-707,875	142,064	-0,018	-0,017
-706,860	90,345	0,075	0,062
-705,845	-81,677	0,060	-0,014
-704,831	800,000	-0,017	-0,039
-703,816	713,676	-0,035	0,070
-702,802	1,508	-0,105	-0,055
-701,787	108,466	0,086	-0,076
-700,772	-81,039	-0,074	-0,018
-699,758	800,000	0,017	0,044
-698,743	764,617	0,040	0,081
-697,729	28,571	-0,043	-0,027
-696,714	77,292	-0,036	0,028
-695,699	237,344	0,040	0,049
-694,685	70,927	-0,064	0,049
-693,670	800,000	-0,026	-0,058
-692,656	-200,000	-0,011	-0,141
-691,641	437,716	-0,105	0,170
-690,627	272,207	-0,080	0,104
-689,612	42,891	0,106	-0,071
-688,597	32,076	-0,128	-0,081
-687,583	-200,000	-0,060	-0,202
-686,568	236,366	-0,006	0,007
-685,554	339,734	0,029	0,042
-684,539	-69,652	0,069	0,019
-683,524	166,742	0,013	-0,014
-682,510	-22,468	0,026	0,012
-681,495	-200,000	-0,004	-0,035
-680,481	651,833	-0,046	-0,088
-679,466	136,825	-0,060	0,058
-678,451	267,056	0,006	0,008
-677,437	386,619	-0,040	-0,061
-676,422	-45,193	-0,117	-0,043
-675,408	-200,000	-0,002	0,196
-674,393	-200,000	0,016	-0,113
-673,378	225,713	-0,036	-0,044
-672,364	150,760	-0,053	-0,053
-671,349	800,000	0,040	-0,086
-670,335	800,000	0,014	-0,032
-669,320	-200,000	-0,013	-0,122
-668,305	-131,840	0,101	0,010
-667,291	33,826	-0,099	0,063
-666,276	76,623	-0,051	0,040
-665,262	-151,537	-0,185	-0,010
-664,247	44,710	-0,099	-0,067
-663,232	746,275	-0,074	0,148
-662,218	800,000	0,024	0,066
-661,203	4,617	0,109	0,059
-660,189	-157,368	-0,123	-0,005
-659,174	39,203	0,056	0,037
-658,159	-200,000	0,005	-0,194
-657,145	-40,723	-0,071	-0,027
-656,130	158,225	0,115	0,118
-655,116	14,325	0,206	0,118
-654,101	-164,462	-0,071	-0,002
-653,086	-200,000	-0,012	-0,085
-652,072	29,628	-0,096	-0,060
-651,057	27,682	-0,098	-0,061
-650,043	28,308	-0,119	-0,074
-649,028	107,903	0,078	-0,069
-648,014	61,059	-0,102	0,075
-646,999	-37,431	0,153	0,060
-645,984	-108,007	-0,141	0,022
-644,970	-51,089	-0,070	-0,024
-643,955	16,176	-0,029	0,017
-642,941	167,965	-0,038	0,040
-641,926	-63,617	0,028	0,008
-640,911	23,929	-0,119	0,072
-639,897	-120,717	0,084	0,010
-638,882	-48,281	0,058	-0,020
-637,868	86,593	0,078	-0,063
-636,853	-159,770	-0,068	0,003
-635,838	115,702	0,012	0,010
-634,824	800,000	0,040	0,087
-633,809	-200,000	-0,036	0,206
-632,795	-200,000	-0,008	0,058
-631,780	19,886	0,113	0,067
-630,765	426,215	-0,078	-0,125
-629,751	82,661	-0,065	-0,052
-628,736	125,840	0,052	0,049
-627,722	5,563	-0,137	-0,074
-626,707	-88,642	-0,068	-0,015
-625,692	513,283	0,075	0,130
-624,678	-45,363	-0,036	-0,013
-623,663	211,680	0,041	-0,048
-622,649	-182,971	-0,042	0,001
-621,634	100,356	-0,107	0,092
-620,619	-58,933	0,082	0,026
-619,605	-200,000	0,032	-0,114
-618,590	-200,000	-0,007	0,030
-617,576	-129,874	0,059	-0,006
-616,561	-200,000	0,023	-0,137
-615,546	-26,607	-0,210	-0,090
-614,532	-200,000	-0,029	0,128
-613,517	-52,356	-0,215	-0,073
-612,503	-200,000	-0,014	0,109
-611,488	122,079	0,072	-0,066
-610,474	27,399	-0,122	-0,075
-609,459	-93,312	-0,060	0,012
-608,444	92,184	0,022	0,018
-607,430	-200,000	0,014	-0,081
-606,415	800,000	-0,032	-0,094
-605,401	190,559	0,032	-0,035
-604,386	-43,954	0,074	-0,027
-603,371	800,000	0,025	-0,056
-602,357	-200,000	-0,015	-0,048
-601,342	291,502	-0,077	-0,104
-600,328	19,854	-0,090	0,053
-599,313	800,000	0,028	0,075
-598,298	-43,722	0,137	-0,051
-597,284	800,000	0,071	-0,155
-596,269	-187,764	-0,092	-0,001
-595,255	163,594	0,045	0,047
-594,240	333,530	0,054	-0,078
-593,225	-0,975	0,022	-0,011
-592,211	800,000	-0,017	-0,045
-591,196	60,438	-0,142	0,103
-590,182	509,508	0,039	-0,067
-589,167	-200,000	-0,021	0,111
-588,152	-41,364	0,124	0,047
-587,138	-200,000	0,008	-0,108
-586,123	-200,000	0,002	0,009
-585,109	-20,493	-0,128	0,058
-584,094	-63,399	0,070	0,021
-583,079	-52,788	0,085	-0,029
-582,065	72,159	-0,049	0,038
-581,050	292,418	0,029	0,039
-580,036	-63,356	-0,138	0,042
-579,021	129,154	-0,033	-0,031
-578,006	-200,000	-0,012	0,083
-576,992	800,000	-0,055	-0,144
-575,977	337,092	0,042	-0,060
-574,963	-200,000	0,043	0,217
-573,948	85,141	0,135	0,109
-572,934	69,706	0,142	0,108
-571,919	-200,000	-0,016	-0,112
-570,904	-63,584	0,016	0,005
-569,890	-200,000	-0,006	-0,046
-568,875	-200,000	0,022	-0,100
-567,861	-111,586	0,058	0,009
-566,846	121,367	0,135	0,124
-565,831	120,000	0,057	-0,052
-564,817	669,999	-0,040	-0,077
-563,802	-82,803	-0,054	0,013
-562,788	113,836	-0,094	-0,084
-561,773	193,263	0,131	-0,146
-560,758	82,108	0,003	0,002
-559,744	2,787	-0,015	0,008
-558,729	504,377	-0,061	0,105
-557,715	-5,119	0,049	-0,025
-556,700	565,783	-0,024	0,042
-555,685	-16,074	0,136	-0,063
-554,671	316,985	0,098	-0,136
-553,656	-71,223	-0,036	-0,010
-552,642	-61,975	-0,109	0,033
-551,627	400,414	-0,102	0,158
-550,612	3,141	0,058	0,031
-549,598	-103,475	-0,144	-0,025
-548,583	-69,179	-0,100	-0,028
-547,569	-24,849	-0,128	-0,056
-546,554	264,222	-0,058	0,075
-545,539	667,686	-0,057	0,109
-544,525	800,000	0,077	0,170
-543,510	-200,000	-0,010	0,054
-542,496	-200,000	-0,018	-0,113
-541,481	75,569	0,039	0,030
-540,466	-200,000	0,014	0,141
-539,452	163,014	-0,039	0,040
-538,437	773,677	-0,048	0,096
-537,423	-200,000	0,017	0,055
-536,408	41,622	0,160	0,106
-535,393	-98,365	-0,050	0,009
-534,379	154,003	-0,145	-0,146
-533,364	-21,814	-0,191	-0,085
-532,350	-200,000	0,025	-0,094
-531,335	-170,485	-0,052	-0,001
-530,321	409,360	-0,058	-0,090
-529,306	532,855	0,032	-0,055
-528,291	-46,742	-0,094	-0,034
-527,277	543,659	0,032	-0,057
-526,262	800,000	0,087	0,202
-525,248	-96,606	-0,096	0,018
-524,233	-47,932	0,041	0,014
-523,218	307,860	-0,027	0,037
-522,204	800,000	-0,016	-0,038
-521,189	-200,000	0,022	-0,143
-520,175	-73,948	-0,111	0,029
-519,160	800,000	-0,019	-0,041
-518,145	-54,549	0,054	-0,018
-517,131	-200,000	-0,001	0,048
-516,116	234,859	0,033	-0,041
-515,102	-200,000	-0,011	-0,069
-514,087	41,357	-0,071	0,047
-513,072	-200,000	0,006	-0,039
-512,058	800,000	0,021	-0,050
-511,043	800,000	-0,042	-0,130
-510,029	800,000	-0,026	-0,062
-509,014	-200,000	-0,028	0,127
-507,999	-200,000	0,007	-0,038
-506,985	272,064	0,031	0,040
-505,970	-143,967	-0,084	-0,006
-504,956	-200,000	-0,020	0,159
-503,941	-65,440	0,081	-0,024
-502,926	-100,073	0,032	-0,006
-501,912	-1,926	0,123	-0,063
-500,897	-179,427	0,096	0,002
-499,883	-200,000	-0,001	0,098
-498,868	384,700	-0,038	-0,057
-497,853	-200,000	-0,009	-0,038
-496,839	23,321	0,133	-0,080
-495,824	-57,964	0,107	0,034
-494,810	-200,000	-0,036	-0,122
-493,795	-200,000	-0,017	-0,099
-492,781	-91,255	-0,005	-0,001
-491,766	-50,782	-0,077	0,027
-490,751	36,320	0,048	-0,031
-489,737	-70,208	0,134	-0,037
-488,722	692,855	0,037	-0,071
-487,708	-57,410	0,064	-0,020
-486,693	800,000	0,037	-0,082
-485,678	332,343	-0,096	-0,136
-484,664	-200,000	0,014	-0,096
-483,649	-200,000	0,007	0,114
-482,635	800,000	-0,039	-0,109
-481,620	800,000	0,024	0,078
-480,605	-200,000	-0,017	0,113
-479,591	37,591	0,046	-0,030
-478,576	800,000	0,025	-0,059
-477,562	34,043	-0,092	-0,059
-476,547	-200,000	-0,003	0,027
-475,532	293,277	0,065	-0,087
-474,518	-200,000	-0,014	0,057
-473,503	3,092	-0,036	0,019
-472,489	50,898	0,029	-0,020
-471,474	711,566	-0,066	0,128
-470,459	324,550	-0,033	0,046
-469,445	-63,209	-0,037	-0,011
-468,430	296,936	0,074	-0,100
-467,416	-200,000	0,000	-0,033
-466,401	-12,093	-0,057	-0,027
-465,386	31,504	-0,050	0,032
-464,372	-200,000	0,002	0,062
-463,357	-200,000	-0,039	-0,156
-462,343	348,448	0,057	0,082
-461,328	800,000	-0,027	-0,083
-460,313	34,479	0,119	0,076
-459,299	155,436	0,082	-0,083
-458,284	800,000	0,033	-0,077
-457,270	-200,000	-0,027	-0,149
-456,255	-30,315	-0,049	-0,020
-455,241	-200,000	0,035	-0,121
-454,226	232,830	0,053	0,064
-453,211	-200,000	-0,006	0,023
-452,197	800,000	-0,016	0,049
-451,182	-200,000	0,002	0,078
-450,168	467,570	-0,025	0,042
-449,153	199,932	0,018	0,020
-448,138	800,000	-0,039	0,089
-447,124	317,893	-0,029	0,040
-446,109	751,066	0,032	0,063
-445,095	800,000	0,068	0,172
-444,080	-200,000	0,002	0,023
-443,065	-200,000	0,002	-0,029
-442,051	-90,176	0,056	0,012
-441,036	800,000	0,035	-0,079
-440,022	5,031	0,116	-0,062
-439,007	341,500	-0,030	0,043
-437,992	51,450	0,048	-0,033
-436,978	40,880	0,098	0,064
-435,963	-33,653	0,103	-0,041
-434,949	800,000	-0,011	-0,032
-433,934	-27,495	-0,031	-0,013
-432,919	273,502	0,058	-0,076
-431,905	-47,734	-0,026	-0,009
-430,890	-200,000	-0,011	0,070
-429,876	143,616	0,128	0,125
-428,861	469,616	-0,086	0,142
-427,846	65,158	-0,099	0,073
-426,832	11,313	0,070	0,039
-425,817	103,146	0,085	0,073
-424,803	162,137	0,066	-0,068
-423,788	-90,559	-0,007	0,001
-422,773	180,796	0,065	0,070
-421,759	205,407	-0,023	-0,027
-420,744	-48,395	0,052	0,018
-419,730	123,070	-0,105	-0,096
-418,715	800,000	0,022	0,052
-417,701	-33,232	-0,079	-0,032
-416,686	12,408	-0,122	-0,069
-415,671	-200,000	0,005	-0,064
-414,657	16,235	0,073	0,042
-413,642	-200,000	-0,012	-0,077
-412,628	-200,000	0,012	0,058
-411,613	-31,832	0,069	-0,028
-410,598	229,129	0,173	-0,207
-409,584	41,102	0,035	0,023
-408,569	-200,000	-0,026	0,090
-407,555	114,525	-0,079	0,070
-406,540	707,923	0,081	0,157
-405,525	-200,000	-0,001	-0,077
-404,511	74,776	-0,064	0,049
-403,496	-200,000	-0,023	0,079
-402,482	-200,000	-0,015	0,071
-401,467	-171,963	0,153	-0,004
-400,452	-200,000	-0,003	-0,095
-399,438	-200,000	0,003	0,044
-398,423	-200,000	0,014	-0,057
-397,409	800,000	-0,045	-0,141
-396,394	-9,527	-0,186	-0,090
-395,379	-200,000	0,045	-0,175
-394,365	-42,044	0,079	-0,029
-393,350	-83,483	0,047	-0,011
-392,336	75,215	-0,020	0,015
-391,321	-200,000	-0,004	0,070
-390,306	-4,912	-0,036	-0,018
-389,292	-72,459	-0,074	-0,020
-388,277	-56,113	0,136	-0,044
-387,263	-200,000	0,016	0,075
-386,248	-111,934	0,045	0,007
-385,233	-61,077	-0,123	-0,038
-384,219	195,047	0,061	-0,067
-383,204	3,521	-0,141	-0,075
-382,190	653,113	-0,097	-0,182
-381,175	-106,436	-0,094	-0,015
-380,160	375,421	0,021	0,032
-379,146	538,309	-0,040	-0,070
-378,131	-71,456	-0,041	-0,011
-377,117	-200,000	-0,029	0,092
-376,102	233,272	-0,048	-0,058
-375,088	-200,000	-0,011	-0,116
-374,073	421,603	-0,100	-0,157
-373,058	404,248	0,045	0,069
-372,044	-168,899	0,148	-0,004
-371,029	-200,000	0,008	0,077
-370,015	800,000	0,070	0,150
-369,000	-21,610	-0,179	0,079
-367,985	-26,281	0,114	-0,048
-366,971	-111,890	-0,093	0,013
-365,956	800,000	0,038	-0,104
-364,942	132,609	0,184	-0,173
-363,927	-200,000	-0,002	-0,022
-362,912	-11,228	-0,021	0,010
-361,898	-200,000	-0,044	0,187
-360,883	182,382	-0,092	-0,099
-359,869	800,000	0,033	-0,098
-358,854	41,269	-0,040	0,027
-357,839	-200,000	-0,047	0,199
-356,825	800,000	-0,034	0,070
-355,810	-67,504	-0,062	-0,018
-354,796	-200,000	-0,022	-0,101
-353,781	20,456	0,033	0,020
-352,766	800,000	0,050	0,139
-351,752	-200,000	-0,019	0,135
-350,737	15,597	0,037	0,021
-349,723	156,504	-0,126	-0,127
-348,708	-42,525	-0,109	0,040
-347,693	-53,415	0,039	-0,013
-346,679	747,944	-0,066	-0,131
-345,664	-200,000	0,010	-0,115
-344,650	-200,000	0,001	-0,104
-343,635	-200,000	0,005	0,139
-342,620	-87,654	-0,078	0,017
-341,606	183,159	-0,031	-0,033
-340,591	243,829	-0,037	0,046
-339,577	-200,000	-0,013	-0,089
-338,562	687,820	-0,019	-0,037
-337,548	-63,865	-0,104	-0,031
-336,533	800,000	0,029	0,083
-335,518	-200,000	0,025	0,097
-334,504	-21,297	0,101	0,045
-333,489	129,300	-0,045	-0,042
-332,475	-200,000	-0,004	0,054
-331,460	103,222	-0,064	-0,055
-330,445	340,031	0,034	-0,049
-329,431	-134,237	0,067	0,006
-328,416	-196,534	0,295	0,001
-327,402	148,400	0,060	0,059
-326,387	252,472	0,106	-0,132
-325,372	30,624	0,061	0,038
-324,358	-200,000	-0,003	-0,037
-323,343	-52,546	0,135	-0,045
-322,329	-200,000	-0,015	0,076
-321,314	-73,623	0,044	0,012
-320,299	263,382	0,020	0,025
-319,285	-113,541	-0,024	-0,003
-318,270	-46,656	0,026	0,009
-317,256	580,251	-0,066	-0,118
-316,241	800,000	0,042	-0,103
-315,226	125,057	0,050	0,045
-314,212	373,933	-0,060	0,089
-313,197	98,034	0,074	0,062
-312,183	116,434	0,108	0,097
-311,168	-121,381	-0,019	-0,002
-310,153	-200,000	0,002	-0,110
-309,139	800,000	-0,016	-0,041
-308,124	-49,106	-0,036	-0,012
-307,110	165,150	0,052	-0,053
-306,095	102,249	-0,046	0,039
-305,080	-200,000	0,008	0,086
-304,066	215,631	0,072	0,083
-303,051	376,760	-0,038	0,056
-302,037	54,119	0,054	-0,037
-301,022	35,566	0,073	0,047
-300,008	-200,000	0,012	0,080
-298,993	12,822	-0,086	-0,048
-297,978	-200,000	-0,009	0,033
-296,964	638,841	-0,002	0,004
-295,949	-85,028	-0,228	-0,052
-294,935	123,079	0,045	0,041
-293,920	147,990	0,043	0,043
-292,905	162,430	0,112	0,114
-291,891	-106,936	-0,148	-0,024
-290,876	800,000	-0,016	0,051
-289,862	-200,000	0,004	0,040
-288,847	800,000	-0,035	0,082
-287,832	-200,000	-0,002	-0,084
-286,818	771,147	0,035	-0,069
-285,803	-48,876	0,087	-0,030
-284,789	800,000	0,043	-0,089
-283,774	-177,627	0,087	-0,002
-282,759	800,000	0,019	0,051
-281,745	800,000	-0,043	0,110
-280,730	-51,039	-0,048	0,016
-279,716	-10,720	-0,029	0,014
-278,701	-200,000	-0,001	-0,031
-277,686	-200,000	-0,032	0,141
-276,672	172,241	-0,031	-0,032
-275,657	-200,000	0,026	0,091
-274,643	-200,000	0,001	0,072
-273,628	-83,008	0,031	-0,007
-272,613	-159,665	0,098	-0,004
-271,599	515,919	0,046	-0,078
-270,584	800,000	0,008	0,017
-269,570	78,143	0,032	0,025
-268,555	-55,375	0,042	-0,013
-267,540	-200,000	0,004	-0,076
-266,526	-107,148	0,043	-0,007
-265,511	72,290	-0,079	0,059
-264,497	381,918	0,089	0,133
-263,482	-96,365	0,136	0,026
-262,467	-113,188	0,028	0,004
-261,453	-81,941	0,052	0,012
-260,438	-200,000	-0,016	0,132
-259,424	151,484	0,094	0,093
-258,409	800,000	-0,015	-0,039
-257,395	76,391	-0,052	0,040
-256,380	-86,093	0,020	0,005
-255,365	-84,418	0,116	0,026
-254,351	-200,000	-0,019	0,099
-253,336	76,490	-0,165	-0,127
-252,322	322,262	0,020	-0,028
-251,307	341,071	0,043	-0,061
-250,292	226,937	0,033	-0,039
-249,278	-130,268	-0,165	-0,016
-248,263	49,266	0,052	0,035
-247,249	-200,000	0,017	0,137
-246,234	-200,000	-0,005	0,064
-245,219	-200,000	0,003	-0,059
-244,205	-184,942	-0,124	-0,001
-243,190	652,336	0,048	-0,091
-242,176	800,000	0,018	0,041
-241,161	-49,849	-0,074	0,025
-240,146	-200,000	0,035	0,131
-239,132	154,328	-0,096	0,096
-238,117	-25,288	-0,109	-0,047
-237,103	96,081	-0,092	0,076
-236,088	63,603	0,071	-0,051
-235,073	-6,790	-0,028	-0,014
-234,059	426,111	-0,072	0,113
-233,044	91,465	0,008	0,007
-232,030	-85,461	-0,047	-0,010
-231,015	-21,700	-0,104	-0,046
-230,000	-21,762	-0,160	0,070
-228,986	800,000	0,037	-0,075
-227,971	-200,000	0,010	-0,039
-226,957	-200,000	-0,011	-0,045
-225,942	44,125	0,142	0,095
-224,927	188,723	0,068	0,074
-223,913	-200,000	0,025	-0,088
-222,898	289,904	0,061	-0,081
-221,884	800,000	0,046	-0,097
-220,869	-139,294	-0,031	0,002
-219,855	-200,000	0,011	0,106
-218,840	109,640	0,112	0,097
-217,825	16,602	-0,018	-0,010
-216,811	136,752	0,063	-0,059
-215,796	-200,000	-0,033	-0,116
-214,782	800,000	0,045	-0,104
-213,767	197,903	0,136	-0,151
-212,752	-84,305	-0,066	0,015
-211,738	-13,232	0,043	0,020
-210,723	-200,000	-0,010	0,184
-209,709	61,003	-0,054	-0,039
-208,694	-200,000	0,002	-0,046
-207,679	42,126	-0,034	-0,022
-206,665	800,000	0,036	0,113
-205,650	279,726	0,063	0,082
-204,636	158,958	-0,048	0,049
-203,621	-200,000	-0,009	0,039
-202,606	-200,000	-0,014	0,088
-201,592	-111,247	-0,076	0,011
-200,577	38,661	-0,073	-0,047
-199,563	375,139	-0,037	0,055
-198,548	800,000	-0,031	0,094
-197,533	-179,962	0,134	-0,002
-196,519	412,959	-0,015	-0,023
-195,504	-90,814	0,016	-0,003
-194,490	800,000	-0,020	-0,063
-193,475	98,551	0,005	-0,004
-192,460	-90,158	-0,054	-0,011
-191,446	-41,631	0,091	0,034
-190,431	432,152	0,063	0,099
-189,417	-200,000	0,020	-0,073
-188,402	52,443	-0,144	0,099
-187,387	-77,517	-0,128	-0,032
-186,373	249,495	0,043	-0,053
-185,358	-200,000	-0,007	-0,035
-184,344	147,716	0,087	-0,085
-183,329	-153,734	-0,105	-0,005
-182,315	70,294	0,145	0,109
-181,300	-43,438	-0,103	0,037
-180,285	-200,000	0,001	0,011
-179,271	-200,000	-0,014	0,080
-178,256	276,387	-0,028	-0,036
-177,242	-125,641	-0,052	-0,006
-176,227	375,659	-0,024	-0,036
-175,212	-200,000	0,004	-0,083
-174,198	-200,000	0,011	0,039
-173,183	767,876	-0,067	-0,133
-172,169	124,144	-0,075	-0,068
-171,154	-200,000	0,012	-0,123
-170,139	-133,831	0,123	-0,011
-169,125	80,058	-0,098	0,076
-168,110	-200,000	0,023	0,079
-167,096	-117,269	-0,037	-0,005
-166,081	-200,000	0,007	0,071
-165,066	42,290	-0,024	-0,016
-164,052	117,082	-0,073	0,065
-163,037	36,569	0,039	0,025
-162,023	345,610	-0,032	0,045
-161,008	800,000	0,046	-0,111
-159,993	157,304	0,077	-0,077
-158,979	328,027	-0,034	0,047
-157,964	800,000	0,051	-0,139
-156,950	-78,096	-0,135	-0,033
-155,935	15,863	0,056	0,032
-154,920	-23,282	-0,047	-0,020
-153,906	800,000	0,015	-0,039
-152,891	800,000	0,027	0,073
-151,877	-39,993	-0,095	0,036
-150,862	-200,000	-0,022	-0,139
-149,847	-200,000	-0,021	-0,178
-148,833	-200,000	0,011	0,053
-147,818	279,503	0,092	-0,119
-146,804	-64,263	-0,119	-0,035
-145,789	252,148	0,049	0,061
-144,775	-49,891	-0,105	0,036
-143,760	-140,363	0,138	0,010
-142,745	118,796	-0,066	-0,059
-141,731	-200,000	-0,014	-0,053
-140,716	-200,000	0,012	-0,044
-139,702	179,911	-0,046	-0,048
-138,687	45,428	0,069	-0,046
-137,672	-200,000	-0,007	-0,086
-136,658	-120,119	-0,140	-0,017
-135,643	800,000	0,056	0,123
-134,629	-59,143	0,061	-0,019
-133,614	800,000	-0,057	-0,128
-132,599	-145,303	0,133	0,009
-131,585	79,262	0,081	0,062
-130,570	21,369	-0,106	0,062
-129,556	800,000	-0,024	-0,051
-128,541	75,641	-0,137	-0,105
-127,526	307,120	0,026	-0,035
-126,512	151,915	0,015	-0,015
-125,497	248,131	-0,050	-0,061
-124,483	-26,371	0,071	0,030
-123,468	-15,989	-0,086	-0,039
-122,453	657,420	0,060	-0,112
-121,439	-200,000	-0,020	-0,068
-120,424	800,000	0,086	-0,178
-119,410	-200,000	-0,003	-0,076
-118,395	-129,883	0,160	-0,016
-117,380	-200,000	0,022	-0,077
-116,366	-200,000	-0,022	-0,139
-115,351	-200,000	0,001	0,052
-114,337	-105,955	0,062	-0,010
-113,322	800,000	-0,008	0,016
-112,307	-200,000	0,007	0,134
-111,293	-151,535	0,051	0,003
-110,278	27,733	0,079	-0,048
-109,264	800,000	-0,032	0,073
-108,249	625,984	0,048	0,088
-107,234	55,820	-0,070	0,049
-106,220	-200,000	0,026	-0,117
-105,205	11,747	0,075	-0,041
-104,191	20,550	0,064	-0,037
-103,176	-200,000	0,013	-0,049
-102,162	67,099	0,072	0,053
-101,147	139,299	-0,143	-0,136
-100,132	-14,773	-0,104	0,048
-99,118	-200,000	0,025	0,170
-98,103	625,863	-0,036	0,066
-97,089	-10,865	0,126	-0,060
-96,074	-200,000	-0,031	0,227
-95,059	-103,038	0,037	-0,006
-94,045	358,768	0,089	-0,129
-93,030	203,152	-0,046	-0,051
-92,016	97,431	0,017	0,014
-91,001	-200,000	-0,020	-0,086
-89,986	708,823	0,108	0,207
-88,972	-200,000	0,014	0,109
-87,957	-119,411	0,085	-0,011
-86,943	-200,000	-0,008	-0,028
-85,928	8,736	-0,232	0,126
-84,913	102,603	-0,065	-0,055
-83,899	-200,000	0,018	-0,148
-82,884	800,000	-0,059	-0,143
-81,870	-72,050	-0,061	-0,016
-80,855	-111,801	0,093	-0,013
-79,840	-200,000	0,012	-0,086
-78,826	214,216	-0,094	0,108
-77,811	-200,000	-0,054	-0,178
-76,797	115,863	0,042	-0,037
-75,782	80,972	0,017	-0,014
-74,767	-200,000	-0,030	0,103
-73,753	-119,471	-0,022	-0,003
-72,738	294,670	0,028	0,037
-71,724	-30,862	-0,069	0,028
-70,709	-41,697	0,146	-0,054
-69,694	12,010	-0,068	0,037
-68,680	-151,527	0,115	-0,006
-67,665	-61,232	-0,168	0,051
-66,651	800,000	0,016	0,042
-65,636	800,000	0,080	0,213
-64,622	800,000	0,014	0,031
-63,607	800,000	0,063	-0,141
-62,592	-200,000	0,004	-0,051
-61,578	800,000	-0,008	0,019
-60,563	-90,873	0,047	0,010
-59,549	328,772	-0,101	0,141
-58,534	-35,877	-1,656	-0,643
-57,519	754,810	-0,590	-1,156
-56,505	-200,000	-1,123	-4,769
-55,490	-135,060	0,643	-0,055
-54,476	800,000	5,067	11,534
-53,461	-200,000	16,164	278,802
-52,446	-200,000	704,472	2251,010
-51,432	573,796	1618,294	2858,115
-50,417	125,012	1619,682	1472,031
-49,403	87,765	1280,826	1022,747
-48,388	37,751	1026,205	655,939
-47,373	21,624	988,411	578,628
-46,359	20,378	976,769	567,695
-45,344	18,465	972,646	559,004
-44,330	18,619	971,519	558,838
-43,315	18,315	969,928	556,906
-42,300	18,220	968,576	555,797
-41,286	18,213	967,693	555,246
-40,271	18,218	966,886	554,778
-39,257	18,207	966,022	554,225
-38,242	18,223	965,152	553,754
-37,227	18,236	964,482	553,390
-36,213	18,249	963,502	552,849
-35,198	18,171	962,417	551,951
-34,184	18,190	961,838	551,660
-33,169	18,185	960,931	551,101
-32,154	18,253	960,154	550,854
-31,140	18,239	959,117	550,193
-30,125	18,258	958,629	549,950
-29,111	18,218	957,761	549,303
-28,096	18,199	957,164	548,877
-27,082	18,240	956,364	548,527
-26,067	18,219	955,545	547,970
-25,052	18,221	954,896	547,582
-24,038	18,196	954,245	547,106
-23,023	18,184	953,493	546,615
-22,009	18,247	952,771	546,382
-20,994	18,220	952,149	545,917
-19,979	18,193	951,551	545,464
-18,965	18,233	950,814	545,150
-17,950	18,200	950,244	544,694
-16,936	18,147	949,725	544,206
-15,921	18,135	949,072	543,773
-14,906	18,079	948,383	543,176
-13,892	18,057	947,697	542,692
-12,877	18,000	947,163	542,183
-11,863	18,000	946,422	541,737
-10,848	18,069	945,963	541,671
-9,833	18,192	945,291	541,658
-8,819	18,151	944,753	541,198
-7,804	18,105	944,084	540,646
-6,790	18,052	943,486	540,116
-5,775	18,118	943,036	540,044
-4,760	18,121	942,305	539,615
-3,746	18,105	941,544	539,107
-2,731	17,953	941,074	538,334
-1,717	17,911	940,353	537,768
-0,702	17,896	939,659	537,301
0,313	17,672	939,158	537,118
1,327	20,226	936,956	543,875
2,342	27,302	810,323	489,557
3,356	21,736	513,385	300,559
4,371	-0,667	383,908	195,537
5,386	-3,029	367,188	184,032
6,400	-3,952	360,932	179,739
7,415	-4,835	358,063	177,210
8,429	-5,331	356,673	175,898
9,444	-5,331	355,738	175,422
10,459	-5,499	355,021	174,848
11,473	-5,430	354,275	174,549
12,488	-5,222	353,883	174,593
13,502	-5,327	353,180	174,104
14,517	-5,672	352,777	173,472
15,531	-5,851	351,964	172,840
16,546	-6,098	351,636	172,365
17,561	-6,071	351,109	172,124
18,575	-5,928	350,700	172,081
19,590	-6,096	350,272	171,653
20,604	-5,993	349,895	171,578
21,619	-6,190	349,395	171,081
22,634	-5,999	349,144	171,171
23,648	-6,104	348,688	170,807
24,663	-6,070	348,326	170,654
25,677	-5,989	348,077	170,614
26,692	-6,187	347,769	170,212
27,707	-5,986	347,446	170,278
28,721	-6,032	347,194	170,085
29,736	-6,309	346,943	169,617
30,750	-6,037	346,413	169,666
31,765	-6,060	346,237	169,537
32,780	-6,123	346,034	169,347
33,794	-6,250	345,835	169,085
34,809	-6,220	345,397	168,892
35,823	-6,089	345,047	168,860
36,838	-6,167	344,828	168,646
37,853	-6,166	344,342	168,394
38,867	-6,069	344,057	168,354
39,882	-6,103	343,973	168,258
40,896	-6,327	343,620	167,807
41,911	-6,217	343,385	167,807
42,926	-6,322	343,118	167,537
43,940	-6,430	342,762	167,222
44,955	-6,267	342,380	167,211
45,969	-6,246	342,139	167,104
46,984	-6,540	341,900	166,628
47,999	-6,559	341,588	166,439
49,013	-6,771	341,189	165,982
50,028	-6,842	340,884	165,736
51,042	-6,796	340,629	165,651
52,057	-6,802	340,429	165,532
53,071	-6,842	340,215	165,367
54,086	-6,760	339,904	165,296
55,101	-6,750	339,750	165,218
56,115	-6,681	339,582	165,202
57,130	-6,098	339,422	165,786
58,144	-5,914	339,179	165,866
59,159	-5,600	338,842	166,050
60,174	-5,948	338,627	165,527
61,188	-5,897	338,433	165,476
62,203	-5,997	338,166	165,216
63,217	-5,926	337,827	165,117
64,232	-5,912	337,486	164,952
65,247	-5,715	337,349	165,097
66,261	-5,812	337,063	164,831
67,276	-6,138	336,667	164,247
68,290	-6,356	336,290	163,798
69,305	-6,314	336,141	163,760
70,320	-6,317	335,712	163,532
71,334	-6,354	335,659	163,449
72,349	-5,958	335,513	163,817
73,363	-5,701	335,166	163,928
74,378	-5,890	334,920	163,577
75,393	-5,813	334,573	163,481
76,407	-5,932	334,461	163,275
77,422	-6,079	334,078	162,906
78,436	-5,889	333,738	162,942
79,451	-6,026	333,701	162,754
80,466	-6,161	333,269	162,375
81,480	-6,131	332,823	162,177
82,495	-6,467	332,659	161,702
83,509	-6,272	332,336	161,751
84,524	-6,299	332,165	161,623
85,539	-6,499	331,887	161,247
86,553	-6,612	331,625	160,978
87,568	-6,361	331,336	161,107
88,582	-6,406	331,178	160,964
89,597	-6,462	330,977	160,789
90,611	-6,220	330,804	160,964
91,626	-6,058	330,681	161,072
92,641	-6,227	330,524	160,791
93,655	-6,209	329,989	160,536
94,670	-6,433	329,959	160,255
95,684	-6,264	329,529	160,223
96,699	-6,279	329,384	160,121
97,714	-6,250	328,945	159,926
98,728	-6,502	328,754	159,536
99,743	-6,610	328,517	159,286
100,757	-6,602	328,266	159,159
101,772	-6,466	328,148	159,240
102,787	-6,242	327,697	159,257
103,801	-6,314	327,700	159,164
104,816	-6,067	327,481	159,319
105,830	-6,122	327,335	159,172
106,845	-6,109	327,023	159,020
107,860	-5,934	326,748	159,067
108,874	-6,189	326,561	158,678
109,889	-6,082	326,249	158,631
110,903	-6,183	326,014	158,391
111,918	-6,349	325,754	158,066
112,933	-6,082	325,646	158,296
113,947	-6,229	325,453	158,026
114,962	-6,107	325,091	157,970
115,976	-6,137	325,072	157,913
116,991	-6,206	324,652	157,619
118,006	-6,164	324,386	157,523
119,020	-6,188	324,234	157,408
120,035	-6,042	324,207	157,542
121,049	-6,131	324,057	157,357
122,064	-6,023	323,721	157,299
123,079	-5,800	323,123	157,239
124,093	-6,087	323,011	156,855
125,108	-6,246	322,722	156,527
126,122	-6,574	322,433	156,014
127,137	-6,596	322,163	155,845
128,151	-6,449	321,997	155,911
129,166	-6,362	321,809	155,902
130,181	-6,346	321,478	155,745
131,195	-6,508	321,336	155,486
132,210	-6,343	321,096	155,535
133,224	-6,086	320,958	155,735
134,239	-5,948	320,836	155,812
135,254	-5,925	320,463	155,641
136,268	-6,116	320,253	155,318
137,283	-6,442	319,835	154,747
138,297	-6,504	319,636	154,571
139,312	-6,287	319,327	154,642
140,327	-6,005	319,205	154,876
141,341	-5,683	319,249	155,231
142,356	-5,772	319,154	155,075
143,370	-5,663	319,011	155,110
144,385	-5,669	318,677	154,927
145,400	-5,794	318,323	154,606
146,414	-5,755	318,183	154,566
147,429	-5,616	317,887	154,559
148,443	-5,755	317,679	154,294
149,458	-5,768	317,608	154,231
150,473	-5,531	317,230	154,289
151,487	-5,837	317,047	153,857
152,502	-5,622	316,732	153,922
153,516	-5,619	316,456	153,777
154,531	-5,708	316,392	153,637
155,546	-5,684	316,121	153,517
156,560	-5,793	315,936	153,297
157,575	-5,884	315,661	153,053
158,589	-5,808	315,360	152,974
159,604	-5,513	315,140	153,169
160,619	-5,634	315,088	153,001
161,633	-5,732	314,918	152,800
162,648	-5,726	314,604	152,641
163,662	-5,772	314,525	152,540
164,677	-5,641	314,232	152,523
165,692	-5,740	314,077	152,330
166,706	-5,660	313,873	152,302
167,721	-5,616	313,821	152,310
168,735	-5,513	313,510	152,254
169,750	-5,584	313,317	152,072
170,764	-5,605	313,105	151,933
171,779	-5,500	313,007	151,983
172,794	-5,523	312,687	151,790
173,808	-5,663	312,314	151,448
174,823	-6,182	311,936	150,703
175,837	-6,220	311,717	150,543
176,852	-5,780	311,679	150,976
177,867	-5,557	311,659	151,188
178,881	-5,523	311,424	151,095
179,896	-5,305	311,231	151,218
180,910	-5,492	310,933	150,863
181,925	-5,519	310,701	150,710
182,940	-5,582	310,759	150,657
183,954	-5,547	310,413	150,513
184,969	-5,517	310,136	150,396
185,983	-5,407	309,966	150,416
186,998	-5,504	309,731	150,187
188,013	-5,368	309,526	150,217
189,027	-5,442	309,413	150,071
190,042	-5,511	309,154	149,859
191,056	-5,250	308,979	150,034
192,071	-5,199	308,773	149,974
193,086	-5,382	308,597	149,684
194,100	-5,254	308,272	149,646
195,115	-5,389	308,211	149,463
196,129	-5,315	307,832	149,343
197,144	-5,236	307,512	149,256
198,159	-5,253	307,438	149,189
199,173	-5,381	307,161	148,909
200,188	-5,308	307,176	148,979
201,202	-5,452	306,640	148,556
202,217	-5,898	306,153	147,846
203,232	-6,082	305,940	147,541
204,246	-5,697	306,067	147,986
205,261	-5,549	305,978	148,083
206,275	-5,569	305,725	147,926
207,290	-5,344	305,468	148,021
208,304	-5,438	305,362	147,860
209,319	-5,552	305,136	147,620
210,334	-5,385	304,852	147,640
211,348	-5,393	304,665	147,529
212,363	-5,372	304,501	147,458
213,377	-5,494	304,333	147,237
214,392	-5,510	304,105	147,098
215,407	-5,753	303,836	146,707
216,421	-5,701	303,489	146,579
217,436	-5,682	303,272	146,480
218,450	-5,618	303,153	146,475
219,465	-5,499	303,024	146,521
220,480	-5,685	302,922	146,269
221,494	-5,490	302,682	146,339
222,509	-5,520	302,338	146,129
223,523	-5,487	302,246	146,105
224,538	-5,261	302,016	146,210
225,553	-5,208	301,959	146,224
226,567	-5,506	301,818	145,840
227,582	-5,330	301,711	145,953
228,596	-5,303	301,547	145,889
229,611	-5,446	301,430	145,674
230,626	-5,451	300,986	145,442
231,640	-5,822	300,520	144,828
232,655	-6,091	300,155	144,367
233,669	-6,339	300,150	144,101
234,684	-6,002	299,744	144,234
235,699	-6,015	299,668	144,171
236,713	-5,869	299,651	144,297
237,728	-5,914	299,448	144,141
238,742	-5,810	299,263	144,144
239,757	-5,485	299,091	144,376
240,772	-5,552	298,928	144,217
241,786	-5,521	298,766	144,157
242,801	-5,709	298,509	143,831
243,815	-5,779	298,369	143,681
244,830	-5,778	298,201	143,588
245,844	-5,711	297,888	143,491
246,859	-5,754	297,649	143,321
247,874	-5,678	297,577	143,349
248,888	-5,751	297,357	143,158
249,903	-5,438	297,270	143,415
250,917	-5,463	297,245	143,366
251,932	-5,078	297,236	143,733
252,947	-4,239	297,344	144,610
253,961	-4,129	297,085	144,581
254,976	-3,043	297,503	145,855
255,990	-1,910	297,567	147,004
257,005	-2,202	297,469	146,652
258,020	-0,094	298,053	149,031
259,034	0,390	298,055	149,501
260,049	0,459	297,815	149,437
261,063	0,442	297,724	149,361
262,078	0,809	297,763	149,732
263,093	1,253	297,645	150,102
264,107	1,216	297,482	149,970
265,122	1,039	297,361	149,719
266,136	1,431	297,161	149,995
267,151	1,298	296,902	149,718
268,166	1,102	296,687	149,402
269,180	1,066	296,465	149,242
270,195	1,093	296,260	149,151
271,209	1,272	296,116	149,243
272,224	1,025	295,831	148,842
273,239	0,964	295,709	148,707
274,253	1,323	295,533	148,959
275,268	1,482	295,614	149,143
276,282	1,164	295,334	148,676
277,297	0,921	294,986	148,248
278,312	0,992	294,820	148,221
279,326	1,281	294,699	148,431
280,341	1,310	294,467	148,330
281,355	1,076	294,378	148,042
282,370	1,070	294,084	147,875
283,384	1,092	293,940	147,811
284,399	1,276	293,729	147,872
285,414	1,147	293,599	147,667
286,428	1,189	293,431	147,610
287,443	1,146	293,210	147,444
288,457	1,197	292,840	147,295
289,472	1,083	292,773	147,136
290,487	1,095	292,428	146,962
291,501	0,718	292,188	146,461
292,516	0,895	292,053	146,552
293,530	0,738	292,016	146,368
294,545	1,089	291,675	146,525
295,560	1,433	291,474	146,746
296,574	1,100	291,467	146,405
297,589	1,319	291,254	146,498
298,603	1,459	291,081	146,534
299,618	1,388	290,934	146,378
300,633	1,026	290,638	145,865
301,647	1,161	290,530	145,929
302,662	1,151	290,354	145,818
303,676	1,056	290,000	145,534
304,691	0,931	289,739	145,271
305,706	0,813	289,526	145,037
306,720	0,826	289,231	144,889
307,735	0,836	289,133	144,836
308,749	1,003	289,053	144,944
309,764	0,982	288,877	144,822
310,779	0,925	288,595	144,613
311,793	0,852	288,267	144,366
312,808	0,721	288,374	144,282
313,822	0,770	288,013	144,135
314,837	0,650	287,752	143,876
315,852	0,694	287,538	143,799
316,866	0,753	287,536	143,842
317,881	0,817	287,279	143,761
318,895	0,731	287,040	143,546
319,910	0,723	286,913	143,462
320,925	0,788	286,745	143,428
321,939	0,960	286,489	143,451
322,954	0,776	286,497	143,267
323,968	0,688	286,316	143,079
324,983	1,004	286,054	143,237
325,997	0,859	285,825	142,971
327,012	0,695	285,715	142,748
328,027	0,794	285,426	142,685
329,041	0,846	285,358	142,687
330,056	0,799	285,142	142,521
331,070	0,901	284,905	142,487
332,085	1,018	284,681	142,473
333,100	0,861	284,510	142,226
334,114	0,769	284,323	142,033
335,129	0,639	284,134	141,804
336,143	0,909	284,157	142,057
337,158	1,112	283,884	142,099
338,173	0,937	283,764	141,862
339,187	0,953	283,538	141,751
340,202	1,005	283,291	141,664
341,216	0,868	283,254	141,504
342,231	1,002	282,947	141,464
343,246	0,997	282,754	141,351
344,260	0,825	282,621	141,110
345,275	0,882	282,678	141,179
346,289	1,172	282,432	141,315
347,304	1,177	282,049	141,116
348,319	0,917	281,852	140,761
349,333	0,894	281,777	140,690
350,348	1,110	281,654	140,818
351,362	1,312	281,361	140,847
352,377	1,137	281,188	140,585
353,392	1,259	281,103	140,644
354,406	1,377	281,033	140,706
355,421	191,978	1327,783	1400,400
356,435	155,401	1455,327	1400,442
