DTS Sentinel unit serial number:	SN410029Multiplexer serial number:	ORYXHardware model number:	OX2-SRSoftware version number:	ORYX F/W v4,00 Oryx Data Collector v3.7.2.0data status	okinstallation	B4 Nyhavnadifferential loss correction	single-endedforward channel	channel 2reverse channel	N/Adate	2023/12/15time	16:10:13forward acquisition time	300,00reverse acquisition time	0,00gamma	499,1914k internal	0,3147k external	0,3147temperature offset calibration	1,0000default loss term (dB/km)	0,3820temperature slope calibration	1,0000multiplexer offset coefficient	1,0000multiplexer slope coefficient	1,0000fibre end	0,00T internal ref (°C)	17,13T ext. ref 1 (°C)	3,04T ext. ref 2 (°C)	3,15length (m)	temperature (°C)	Stokes	anti-Stokes-744,400	-200,000	0,009	-0,078
-743,385	-120,674	-0,181	0,022
-742,371	-103,035	0,167	-0,029
-741,356	-2,434	-0,343	0,177
-740,342	-61,534	0,087	0,027
-739,327	-110,619	-0,304	0,046
-738,312	-158,300	0,104	0,004
-737,298	-12,913	-0,362	-0,173
-736,283	189,992	0,059	0,066
-735,269	-173,926	-0,323	0,007
-734,254	36,334	-0,079	0,051
-733,239	-27,830	-0,384	-0,164
-732,225	-25,738	0,179	0,078
-731,210	800,000	-0,038	0,090
-730,196	-7,821	-0,048	-0,024
-729,181	-66,604	-0,102	-0,030
-728,167	-51,240	0,108	-0,037
-727,152	-66,097	-0,039	0,012
-726,137	800,000	0,058	-0,179
-725,123	-200,000	0,033	-0,120
-724,108	800,000	-0,065	-0,168
-723,094	-41,382	-0,096	0,036
-722,079	548,449	-0,041	0,073
-721,064	800,000	-0,037	0,100
-720,050	284,981	-0,067	-0,090
-719,035	-51,008	-0,070	-0,024
-718,021	-129,656	-0,122	-0,012
-717,006	273,962	-0,026	0,034
-715,991	-103,337	-0,083	0,014
-714,977	177,519	0,095	0,103
-713,962	382,452	-0,048	-0,073
-712,948	-200,000	0,006	0,089
-711,933	-2,277	0,020	0,010
-710,918	-200,000	0,004	0,032
-709,904	800,000	0,041	0,084
-708,889	800,000	0,026	0,055
-707,875	265,291	-0,130	-0,168
-706,860	-200,000	-0,004	-0,015
-705,845	524,388	0,033	-0,058
-704,831	-200,000	-0,008	0,090
-703,816	-61,222	-0,053	-0,016
-702,802	104,790	0,096	0,084
-701,787	-147,157	0,040	0,002
-700,772	-15,977	0,179	-0,084
-699,758	189,532	0,064	-0,071
-698,743	213,226	-0,011	-0,013
-697,729	-200,000	-0,014	0,170
-696,714	-88,691	-0,035	0,008
-695,699	32,273	0,137	-0,087
-694,685	-149,433	-0,116	0,007
-693,670	264,864	0,064	-0,083
-692,656	691,174	0,057	0,111
-691,641	-73,758	-0,076	-0,020
-690,627	-200,000	0,018	0,097
-689,612	-186,312	0,134	0,001
-688,597	136,690	-0,045	0,044
-687,583	610,414	-0,047	0,088
-686,568	256,282	0,015	0,019
-685,554	174,267	-0,093	-0,100
-684,539	-2,456	-0,038	0,020
-683,524	800,000	-0,051	0,110
-682,510	31,110	0,091	-0,058
-681,495	84,745	-0,051	0,041
-680,481	-58,565	-0,058	0,018
-679,466	-35,032	-0,132	-0,053
-678,451	395,680	-0,089	0,137
-677,437	132,548	0,134	0,127
-676,422	-4,726	-0,048	-0,024
-675,408	132,156	-0,029	0,028
-674,393	211,410	-0,076	0,089
-673,378	-200,000	-0,007	-0,157
-672,364	800,000	-0,032	-0,103
-671,349	147,877	-0,052	-0,052
-670,335	105,818	-0,042	0,037
-669,320	-108,584	0,030	-0,005
-668,305	-200,000	0,021	-0,175
-667,291	311,422	-0,028	-0,038
-666,276	-69,561	0,039	-0,011
-665,262	-200,000	-0,034	-0,175
-664,247	-85,684	-0,070	-0,016
-663,232	145,966	0,068	-0,067
-662,218	331,353	-0,057	0,081
-661,203	-67,286	0,130	-0,037
-660,189	-200,000	0,010	-0,047
-659,174	800,000	0,025	-0,054
-658,159	-200,000	-0,011	-0,098
-657,145	-108,408	0,077	-0,012
-656,130	-200,000	0,016	-0,156
-655,116	152,261	-0,072	0,073
-654,101	-200,000	0,014	0,147
-653,086	-200,000	-0,007	-0,036
-652,072	-200,000	-0,057	-0,245
-651,057	118,258	-0,049	-0,045
-650,043	-200,000	0,037	-0,160
-649,028	600,628	-0,051	-0,094
-648,014	-135,989	-0,057	0,005
-646,999	800,000	0,021	-0,064
-645,984	-200,000	0,030	0,117
-644,970	-200,000	0,006	-0,054
-643,955	-200,000	-0,005	-0,027
-642,941	-26,940	-0,126	0,054
-641,926	441,953	0,044	0,071
-640,911	800,000	-0,065	0,139
-639,897	-200,000	-0,023	0,136
-638,882	58,676	-0,097	-0,070
-637,868	800,000	0,035	-0,079
-636,853	60,029	-0,099	-0,072
-635,838	-40,968	0,113	0,043
-634,824	800,000	0,024	-0,055
-633,809	18,069	-0,058	-0,034
-632,795	435,349	0,053	0,085
-631,780	376,753	0,039	0,059
-630,765	-14,395	-0,137	-0,065
-629,751	245,573	-0,137	-0,170
-628,736	-200,000	0,000	-0,005
-627,722	-0,907	-0,019	0,010
-626,707	-118,779	0,038	0,005
-625,692	431,710	-0,042	0,068
-624,678	-101,492	-0,142	-0,025
-623,663	-22,642	-0,146	-0,065
-622,649	77,158	-0,157	0,123
-621,634	-80,840	-0,174	0,042
-620,619	-119,299	0,101	-0,013
-619,605	293,071	-0,051	0,069
-618,590	-200,000	-0,020	-0,119
-617,576	800,000	-0,027	0,085
-616,561	10,309	0,068	0,038
-615,546	-21,892	-0,071	0,032
-614,532	-200,000	-0,037	-0,157
-613,517	-155,374	0,057	0,003
-612,503	431,259	-0,042	0,066
-611,488	-24,442	0,179	0,078
-610,474	48,886	0,112	0,077
-609,459	-200,000	0,006	0,029
-608,444	-200,000	-0,010	-0,138
-607,430	-95,693	-0,033	0,006
-606,415	360,309	-0,055	-0,081
-605,401	15,696	0,079	-0,045
-604,386	229,967	0,038	0,046
-603,371	252,365	0,082	0,103
-602,357	-200,000	-0,004	0,052
-601,342	-93,447	-0,176	-0,036
-600,328	73,946	0,062	0,048
-599,313	-49,687	-0,012	0,004
-598,298	-17,759	0,046	-0,021
-597,284	-51,101	0,057	-0,020
-596,269	68,028	0,129	0,097
-595,255	-37,639	-0,105	-0,041
-594,240	16,735	-0,101	-0,058
-593,225	-181,642	-0,123	0,002
-592,211	531,600	0,015	-0,026
-591,196	268,888	-0,032	-0,041
-590,182	51,258	0,154	0,107
-589,167	367,694	0,089	0,133
-588,152	800,000	-0,031	-0,066
-587,138	-200,000	0,036	0,116
-586,123	154,722	0,054	-0,055
-585,109	-200,000	-0,005	-0,066
-584,094	658,393	0,003	-0,006
-583,079	-43,176	0,039	-0,014
-582,065	183,144	0,030	0,033
-581,050	466,250	0,019	-0,031
-580,036	323,164	-0,075	0,106
-579,021	44,315	-0,047	0,031
-578,006	27,386	0,039	-0,024
-576,992	181,731	0,074	-0,080
-575,977	403,461	0,010	-0,015
-574,963	638,699	0,025	-0,046
-573,948	-84,656	0,057	0,013
-572,934	-64,369	-0,065	0,019
-571,919	-200,000	-0,003	-0,156
-570,904	-55,575	0,138	-0,045
-569,890	557,163	-0,051	0,090
-568,875	-200,000	-0,042	0,149
-567,861	-200,000	0,037	0,166
-566,846	2,725	-0,085	0,045
-565,831	-20,708	0,158	0,071
-564,817	52,371	-0,042	-0,029
-563,802	800,000	-0,031	-0,077
-562,788	43,548	0,039	0,026
-561,773	-151,218	0,054	-0,003
-560,758	36,095	-0,036	-0,023
-559,744	-32,756	-0,079	0,032
-558,729	666,923	-0,047	0,090
-557,715	-48,620	-0,088	0,031
-556,700	-95,432	-0,031	0,006
-555,685	800,000	0,045	0,099
-554,671	-102,667	-0,064	-0,011
-553,656	-143,194	-0,136	0,009
-552,642	481,623	-0,023	-0,038
-551,627	105,488	0,027	0,023
-550,612	440,022	0,042	-0,068
-549,598	-36,844	-0,110	-0,043
-548,583	-138,481	-0,045	0,004
-547,569	-114,438	-0,074	0,010
-546,554	-121,114	0,103	0,013
-545,539	127,746	-0,036	-0,034
-544,525	553,840	0,031	0,054
-543,510	-200,000	0,009	-0,076
-542,496	78,954	0,011	0,008
-541,481	744,073	0,035	-0,069
-540,466	146,047	-0,012	-0,012
-539,452	-94,672	0,095	-0,019
-538,437	800,000	-0,040	-0,085
-537,423	383,182	0,050	-0,075
-536,408	197,364	-0,066	-0,074
-535,393	-200,000	0,008	-0,061
-534,379	-92,511	0,052	-0,011
-533,364	355,340	-0,036	-0,053
-532,350	-23,455	0,096	-0,042
-531,335	285,588	-0,011	-0,014
-530,321	-118,443	0,044	0,006
-529,306	-200,000	-0,031	-0,110
-528,291	-200,000	-0,015	-0,134
-527,277	17,641	0,071	0,041
-526,262	800,000	0,014	0,036
-525,248	-63,461	-0,115	0,034
-524,233	-80,743	0,112	0,027
-523,218	800,000	-0,012	0,031
-522,204	-133,161	-0,164	0,015
-521,189	-69,502	0,130	-0,036
-520,175	402,867	0,051	-0,079
-519,160	130,986	-0,025	-0,023
-518,145	277,963	-0,053	-0,069
-517,131	-120,908	0,027	0,003
-516,116	800,000	-0,041	0,126
-515,102	-138,200	-0,098	0,008
-514,087	556,685	0,041	-0,073
-513,072	-62,315	-0,059	0,018
-512,058	800,000	0,042	0,090
-511,043	132,837	0,147	0,139
-510,029	107,359	-0,052	0,045
-509,014	521,640	0,053	-0,092
-507,999	647,941	0,032	-0,061
-506,985	-200,000	-0,026	-0,092
-505,970	18,682	-0,157	-0,092
-504,956	166,744	-0,063	-0,066
-503,941	164,546	-0,032	-0,033
-502,926	618,453	0,017	-0,032
-501,912	-200,000	0,031	0,109
-500,897	-200,000	-0,034	0,112
-499,883	800,000	-0,036	0,107
-498,868	101,362	-0,049	-0,042
-497,853	-200,000	0,001	0,011
-496,839	-130,318	0,020	0,002
-495,824	34,818	-0,008	-0,005
-494,810	-200,000	0,023	0,112
-493,795	-200,000	0,022	0,097
-492,781	-200,000	0,011	0,043
-491,766	222,440	0,012	-0,014
-490,751	-161,026	0,026	-0,001
-489,737	7,003	0,114	-0,062
-488,722	76,310	0,062	-0,048
-487,708	98,349	0,055	0,046
-486,693	-4,755	-0,117	0,059
-485,678	-107,717	-0,115	-0,018
-484,664	-0,463	0,015	0,008
-483,649	800,000	-0,024	-0,052
-482,635	-200,000	0,009	0,156
-481,620	165,311	-0,071	-0,073
-480,605	260,234	-0,092	-0,116
-479,591	261,350	-0,049	0,062
-478,576	-142,983	-0,074	-0,005
-477,562	182,573	0,077	0,083
-476,547	300,933	-0,031	0,041
-475,532	1,553	0,072	0,038
-474,518	800,000	-0,014	0,039
-473,503	-118,072	0,015	0,002
-472,489	-200,000	0,005	0,139
-471,474	-141,195	-0,136	0,010
-470,459	310,068	-0,055	0,075
-469,445	-96,450	0,103	0,020
-468,430	474,768	0,040	-0,067
-467,416	424,517	0,057	-0,089
-466,401	21,369	0,036	0,021
-465,386	-91,683	0,107	-0,022
-464,372	-115,522	0,051	0,007
-463,357	30,092	-0,064	0,040
-462,343	436,794	-0,048	-0,077
-461,328	74,862	0,056	-0,043
-460,313	-68,851	0,072	0,020
-459,299	791,415	-0,016	0,033
-458,284	149,346	0,165	0,163
-457,270	46,868	-0,053	0,036
-456,255	-24,813	-0,069	0,030
-455,241	45,821	0,109	-0,073
-454,226	-47,414	0,063	-0,022
-453,211	114,801	-0,099	-0,088
-452,197	-200,000	-0,017	0,095
-451,182	-26,126	0,184	-0,079
-450,168	-41,937	0,056	-0,021
-449,153	149,185	0,056	-0,055
-448,138	800,000	0,046	-0,147
-447,124	-200,000	-0,026	-0,103
-446,109	-200,000	-0,002	0,023
-445,095	121,100	-0,068	0,062
-444,080	-200,000	-0,006	0,062
-443,065	-200,000	0,005	0,079
-442,051	-107,189	-0,144	0,023
-441,036	-120,286	-0,150	-0,018
-440,022	97,381	-0,192	-0,161
-439,007	126,313	0,091	-0,084
-437,992	-173,157	0,202	0,004
-436,978	-63,448	0,091	-0,027
-435,963	-91,487	0,019	0,004
-434,949	-200,000	-0,012	-0,069
-433,934	136,945	0,052	-0,050
-432,919	50,359	-0,062	-0,043
-431,905	34,341	-0,053	-0,034
-430,890	800,000	0,017	-0,053
-429,876	800,000	-0,029	0,063
-428,861	-68,752	0,121	0,034
-427,846	800,000	-0,059	0,159
-426,832	-200,000	-0,009	0,057
-425,817	-42,119	-0,095	0,035
-424,803	800,000	0,020	0,045
-423,788	800,000	-0,026	0,052
-422,773	-200,000	-0,010	0,081
-421,759	800,000	0,041	-0,085
-420,744	613,893	0,079	0,144
-419,730	92,597	-0,072	-0,060
-418,715	134,577	-0,021	0,020
-417,701	596,374	-0,012	0,022
-416,686	800,000	0,025	-0,058
-415,671	107,871	0,056	0,049
-414,657	327,935	-0,036	-0,050
-413,642	61,369	0,028	-0,020
-412,628	-127,010	-0,052	-0,006
-411,613	200,154	0,061	-0,068
-410,598	-200,000	-0,013	-0,095
-409,584	-35,566	0,052	0,021
-408,569	158,262	0,069	0,070
-407,555	127,034	0,061	-0,056
-406,540	-28,133	-0,031	0,013
-405,525	-108,607	0,055	-0,009
-404,511	-159,121	-0,080	-0,003
-403,496	78,685	0,023	-0,018
-402,482	83,105	-0,118	-0,093
-401,467	-200,000	0,004	0,051
-400,452	-19,274	0,170	-0,077
-399,438	-1,104	0,083	0,043
-398,423	70,478	-0,028	-0,021
-397,409	-82,912	0,073	0,017
-396,394	-13,464	0,071	0,033
-395,379	427,283	0,068	-0,108
-394,365	23,274	-0,081	0,048
-393,350	556,796	0,008	0,013
-392,336	-62,330	0,106	-0,032
-391,321	517,799	0,078	0,134
-390,306	123,042	-0,056	0,051
-389,292	-200,000	0,045	-0,178
-388,277	98,585	0,122	0,102
-387,263	-167,448	0,166	-0,005
-386,248	7,041	0,052	0,028
-385,233	568,876	0,035	-0,063
-384,219	-200,000	-0,026	-0,149
-383,204	-140,874	-0,124	0,009
-382,190	800,000	0,011	-0,033
-381,175	-65,750	-0,135	-0,039
-380,160	80,204	0,084	-0,066
-379,146	800,000	0,014	-0,034
-378,131	17,665	0,074	0,043
-377,117	-200,000	-0,012	0,132
-376,102	209,990	-0,034	-0,038
-375,088	83,458	0,044	-0,035
-374,073	149,888	0,071	-0,070
-373,058	-22,469	-0,066	0,029
-372,044	-200,000	-0,015	0,093
-371,029	71,095	0,133	0,101
-370,015	-200,000	0,048	0,000
-369,000	-45,316	0,079	0,028
-367,985	800,000	-0,033	-0,092
-366,971	656,970	0,051	0,097
-365,956	-200,000	0,009	0,102
-364,942	20,985	-0,085	-0,050
-363,927	-88,772	0,166	-0,036
-362,912	-126,369	-0,072	0,008
-361,898	-88,283	0,062	-0,013
-360,883	-200,000	-0,026	-0,103
-359,869	-200,000	-0,012	-0,066
-358,854	800,000	-0,032	-0,092
-357,839	800,000	0,075	0,184
-356,825	-200,000	0,010	0,166
-355,810	362,621	-0,027	-0,039
-354,796	-143,089	0,045	-0,003
-353,781	60,753	0,076	-0,055
-352,766	218,787	-0,062	0,072
-351,752	364,685	0,006	-0,009
-350,737	183,589	-0,097	0,105
-349,723	95,300	0,141	0,117
-348,708	-1,448	0,063	0,032
-347,693	17,859	-0,144	-0,083
-346,679	-200,000	-0,006	-0,049
-345,664	109,404	-0,070	-0,061
-344,650	6,615	0,086	-0,046
-343,635	121,333	-0,113	0,102
-342,620	-125,868	0,149	-0,016
-341,606	-200,000	0,045	-0,190
-340,591	-38,146	-0,022	0,009
-339,577	79,186	-0,126	-0,098
-338,562	800,000	-0,039	-0,092
-337,548	565,028	0,073	0,130
-336,533	-16,866	0,044	0,020
-335,518	-200,000	0,001	0,061
-334,504	159,460	-0,082	0,083
-333,489	-200,000	0,002	0,139
-332,475	-130,811	-0,053	-0,005
-331,460	-200,000	-0,005	-0,100
-330,445	-137,052	0,083	-0,007
-329,431	-200,000	-0,013	0,078
-328,416	800,000	0,007	0,020
-327,402	210,782	0,015	0,018
-326,387	298,497	-0,060	0,080
-325,372	-182,987	-0,069	-0,001
-324,358	-118,307	0,069	0,009
-323,343	68,303	0,148	-0,111
-322,329	50,150	0,036	0,025
-321,314	800,000	0,010	0,028
-320,299	269,263	0,072	-0,093
-319,285	-27,630	-0,084	-0,035
-318,270	-126,868	-0,098	-0,010
-317,256	230,972	-0,058	0,069
-316,241	800,000	0,062	-0,128
-315,226	-200,000	0,002	-0,013
-314,212	83,029	0,075	0,059
-313,197	-200,000	0,026	-0,100
-312,183	273,117	0,035	-0,045
-311,168	202,461	0,049	-0,055
-310,153	800,000	-0,051	-0,154
-309,139	800,000	-0,047	-0,113
-308,124	-145,558	0,089	-0,006
-307,110	-200,000	-0,012	0,139
-306,095	-49,428	0,090	-0,031
-305,080	-119,493	0,128	0,016
-304,066	-200,000	0,015	0,116
-303,051	-52,464	-0,062	0,021
-302,037	800,000	0,086	-0,180
-301,022	-75,217	0,056	0,015
-300,008	-200,000	-0,010	0,074
-298,993	509,531	-0,076	0,128
-297,978	41,674	-0,037	-0,025
-296,964	-200,000	-0,020	0,080
-295,949	-6,577	-0,035	-0,017
-294,935	-111,354	-0,156	-0,023
-293,920	44,606	0,052	0,035
-292,905	800,000	0,050	-0,154
-291,891	404,842	-0,075	-0,115
-290,876	-200,000	0,005	0,057
-289,862	-0,789	-0,144	0,074
-288,847	-167,327	0,234	-0,007
-287,832	-200,000	0,004	-0,021
-286,818	-200,000	-0,025	0,119
-285,803	-116,850	-0,086	0,011
-284,789	169,765	-0,060	0,063
-283,774	-175,694	0,266	-0,005
-282,759	14,539	0,029	0,017
-281,745	272,169	-0,063	-0,081
-280,730	42,478	-0,042	-0,028
-279,716	-113,177	0,037	0,005
-278,701	-106,963	0,091	-0,014
-277,686	-121,595	-0,147	0,017
-276,672	-200,000	0,015	-0,058
-275,657	165,155	-0,038	0,040
-274,643	120,076	-0,059	-0,053
-273,628	-200,000	-0,002	-0,174
-272,613	387,574	0,044	0,066
-271,599	800,000	0,044	0,113
-270,584	-160,009	0,108	0,004
-269,570	-109,444	0,154	0,023
-268,555	-149,645	-0,163	-0,009
-267,540	-200,000	-0,011	0,067
-266,526	-200,000	-0,017	-0,064
-265,511	-200,000	-0,011	-0,061
-264,497	800,000	-0,045	-0,137
-263,482	-120,979	-0,055	0,007
-262,467	165,377	-0,025	-0,026
-261,453	-200,000	-0,004	0,036
-260,438	-127,226	-0,212	-0,022
-259,424	-200,000	0,022	0,100
-258,409	407,266	-0,047	-0,072
-257,395	-200,000	-0,024	-0,098
-256,380	-1,572	0,082	-0,042
-255,365	170,197	-0,103	-0,107
-254,351	-178,302	0,116	0,002
-253,336	476,274	-0,015	-0,025
-252,322	-159,943	-0,072	-0,003
-251,307	800,000	-0,062	-0,135
-250,292	314,505	0,010	-0,014
-249,278	-200,000	0,018	0,065
-248,263	800,000	0,023	0,073
-247,249	59,655	-0,072	-0,052
-246,234	22,906	0,117	-0,069
-245,219	800,000	-0,032	0,096
-244,205	44,872	-0,056	0,037
-243,190	-85,564	0,087	-0,019
-242,176	349,842	0,027	-0,039
-241,161	-200,000	-0,016	-0,055
-240,146	-200,000	-0,016	-0,061
-239,132	-200,000	0,027	-0,095
-238,117	169,438	-0,048	-0,050
-237,103	67,045	-0,144	-0,106
-236,088	185,796	-0,014	0,015
-235,073	-153,675	0,176	-0,009
-234,059	43,338	0,052	0,034
-233,044	-200,000	0,034	0,146
-232,030	47,496	0,101	0,068
-231,015	-200,000	0,019	-0,097
-230,000	-66,518	-0,147	0,042
-228,986	-35,374	-0,202	-0,079
-227,971	122,831	0,102	-0,092
-226,957	726,665	0,082	0,159
-225,942	122,607	0,026	-0,023
-224,927	351,911	-0,125	0,180
-223,913	279,446	-0,015	0,019
-222,898	175,784	0,101	0,106
-221,884	-139,683	0,139	-0,011
-220,869	71,262	-0,004	-0,003
-219,855	-200,000	0,026	-0,140
-218,840	800,000	-0,038	0,091
-217,825	-75,428	-0,063	0,016
-216,811	-134,108	0,029	-0,003
-215,796	800,000	-0,037	-0,108
-214,782	-200,000	0,000	-0,114
-213,767	101,829	-0,065	-0,055
-212,752	155,285	-0,118	0,118
-211,738	-6,320	0,084	0,041
-210,723	-173,474	-0,086	-0,002
-209,709	-147,260	-0,048	0,003
-208,694	-200,000	-0,025	-0,097
-207,679	800,000	-0,030	-0,065
-206,665	-200,000	-0,008	-0,150
-205,650	800,000	-0,050	0,113
-204,636	355,509	0,013	0,019
-203,621	800,000	-0,025	0,075
-202,606	800,000	0,032	0,071
-201,592	550,903	-0,102	-0,178
-200,577	-200,000	-0,011	-0,072
-199,563	-200,000	0,058	0,191
-198,548	-200,000	-0,005	-0,113
-197,533	44,036	0,016	0,010
-196,519	444,449	0,090	0,143
-195,504	-126,819	-0,043	0,005
-194,490	575,609	-0,043	-0,077
-193,475	-59,673	-0,206	-0,064
-192,460	800,000	-0,012	-0,036
-191,446	-52,470	0,059	-0,020
-190,431	293,649	0,101	0,134
-189,417	-70,805	-0,107	0,029
-188,402	-200,000	-0,002	0,080
-187,387	-69,230	-0,108	0,030
-186,373	162,037	0,105	-0,106
-185,358	86,499	0,036	-0,029
-184,344	-200,000	-0,036	0,120
-183,329	136,772	0,020	-0,019
-182,315	-200,000	0,019	-0,063
-181,300	690,698	0,036	-0,069
-180,285	-87,690	-0,133	-0,029
-179,271	743,869	-0,026	0,051
-178,256	47,644	-0,108	0,073
-177,242	-85,497	0,069	-0,015
-176,227	800,000	-0,047	0,141
-175,212	13,340	0,019	0,010
-174,198	-200,000	0,015	0,212
-173,183	294,622	-0,062	0,083
-172,169	-98,286	0,069	-0,013
-171,154	-70,016	-0,115	0,032
-170,139	-200,000	-0,011	0,055
-169,125	166,804	0,112	-0,115
-168,110	-200,000	-0,006	0,029
-167,096	680,755	0,073	0,138
-166,081	200,685	-0,048	-0,054
-165,066	-48,510	0,097	0,034
-164,052	-19,458	0,071	-0,032
-163,037	127,977	-0,129	0,119
-162,023	-200,000	0,037	0,123
-161,008	-38,995	0,085	0,032
-159,993	-200,000	0,059	-0,214
-158,979	18,875	-0,126	-0,073
-157,964	-4,565	-0,121	-0,060
-156,950	689,386	0,031	0,059
-155,935	-200,000	0,005	-0,042
-154,920	102,419	0,011	0,010
-153,906	54,467	-0,014	-0,010
-152,891	800,000	0,047	0,107
-151,877	-85,802	0,075	0,017
-150,862	739,124	-0,029	0,057
-149,847	-103,345	-0,061	-0,010
-148,833	800,000	0,037	0,082
-147,818	-200,000	-0,002	0,090
-146,804	62,367	-0,093	-0,067
-145,789	-200,000	-0,014	-0,101
-144,775	-200,000	0,034	-0,164
-143,760	-39,378	-0,149	-0,056
-142,745	-70,182	-0,061	0,017
-141,731	400,957	0,043	0,065
-140,716	101,612	-0,051	-0,043
-139,702	14,785	-0,052	0,029
-138,687	718,270	-0,020	-0,039
-137,672	7,615	0,067	-0,036
-136,658	303,551	-0,069	-0,093
-135,643	29,886	-0,050	-0,031
-134,629	-200,000	-0,004	-0,087
-133,614	-200,000	0,024	0,086
-132,599	146,607	0,031	0,030
-131,585	146,591	0,077	0,074
-130,570	57,622	0,080	0,056
-129,556	11,932	-0,085	-0,047
-128,541	-2,596	-0,082	0,042
-127,526	33,368	-0,168	-0,105
-126,512	217,714	0,046	0,053
-125,497	-95,367	0,006	0,001
-124,483	434,514	-0,071	-0,111
-123,468	87,576	-0,101	0,081
-122,453	589,919	-0,012	-0,021
-121,439	-177,818	-0,108	0,002
-120,424	15,294	0,032	-0,018
-119,410	-87,041	-0,116	0,025
-118,395	-200,000	0,037	0,224
-117,380	195,194	0,022	0,025
-116,366	-70,024	-0,082	0,022
-115,351	22,191	-0,064	0,037
-114,337	-14,476	-0,149	0,069
-113,322	-200,000	0,020	0,145
-112,307	-26,662	0,030	-0,013
-111,293	-77,224	0,097	-0,024
-110,278	-200,000	-0,027	-0,129
-109,264	751,651	0,031	-0,061
-108,249	800,000	-0,020	-0,054
-107,234	4,548	0,037	0,020
-106,220	800,000	-0,019	-0,045
-105,205	24,448	0,070	0,042
-104,191	800,000	0,021	0,061
-103,176	-60,902	0,177	-0,054
-102,162	-194,766	-0,102	-0,001
-101,147	800,000	-0,057	-0,127
-100,132	230,156	-0,071	-0,084
-99,118	8,666	0,056	-0,030
-98,103	-200,000	-0,004	-0,014
-97,089	800,000	0,038	0,079
-96,074	-200,000	0,017	-0,061
-95,059	183,424	0,095	0,102
-94,045	633,432	0,039	-0,072
-93,030	99,734	0,075	-0,063
-92,016	228,696	0,069	0,081
-91,001	-38,965	-0,109	-0,041
-89,986	613,739	-0,019	0,034
-88,972	110,198	0,066	-0,057
-87,957	14,577	0,141	-0,079
-86,943	43,723	0,069	-0,045
-85,928	800,000	0,029	-0,072
-84,913	-30,439	-0,069	-0,028
-83,899	-200,000	0,031	-0,099
-82,884	293,301	0,016	0,022
-81,870	283,598	0,081	0,105
-80,855	-200,000	0,027	0,090
-79,840	-55,481	0,139	-0,045
-78,826	19,262	0,011	0,006
-77,811	45,946	-0,093	-0,062
-76,797	-200,000	0,040	0,240
-75,782	800,000	-0,071	0,176
-74,767	792,506	0,097	0,193
-73,753	136,005	-0,058	-0,055
-72,738	-200,000	-0,009	0,044
-71,724	-19,317	-0,086	0,038
-70,709	-200,000	-0,013	-0,095
-69,694	-25,826	-0,088	0,037
-68,680	-115,788	0,147	-0,020
-67,665	-200,000	-0,011	-0,060
-66,651	-69,980	0,074	-0,020
-65,636	34,171	-0,082	0,051
-64,622	51,468	-0,037	0,025
-63,607	-200,000	-0,007	-0,053
-62,592	-48,363	0,061	0,021
-61,578	-34,222	0,065	0,025
-60,563	-200,000	-0,004	0,029
-59,549	800,000	-0,028	0,068
-58,534	-30,604	-1,792	-0,728
-57,519	800,000	-0,416	-1,080
-56,505	-200,000	-1,139	-4,757
-55,490	-22,092	0,765	0,333
-54,476	800,000	5,103	11,751
-53,461	-200,000	16,620	272,153
-52,446	800,000	713,963	2202,188
-51,432	547,150	1626,746	2814,059
-50,417	116,478	1622,246	1432,135
-49,403	80,265	1283,246	993,449
-48,388	34,949	1030,370	648,018
-47,373	20,807	993,027	577,678
-46,359	19,586	981,103	566,690
-45,344	17,510	976,923	557,422
-44,330	17,659	975,524	557,090
-43,315	17,203	974,067	554,738
-42,300	17,169	973,052	554,029
-41,286	17,121	972,114	553,315
-40,271	17,134	971,074	552,744
-39,257	17,225	970,159	552,497
-38,242	17,248	969,156	551,980
-37,227	17,222	968,492	551,495
-36,213	17,140	967,747	550,782
-35,198	17,174	966,756	550,305
-34,184	17,174	966,228	549,984
-33,169	17,108	965,264	549,199
-32,154	17,229	964,158	548,943
-31,140	17,205	963,330	548,371
-30,125	17,201	962,626	547,933
-29,111	17,251	961,673	547,534
-28,096	17,168	961,089	546,909
-27,082	17,175	960,381	546,508
-26,067	17,149	959,553	545,930
-25,052	17,178	958,736	545,538
-24,038	17,162	958,377	545,259
-23,023	17,184	957,424	544,767
-22,009	17,202	956,826	544,465
-20,994	17,183	956,348	544,108
-19,979	17,157	955,461	543,498
-18,965	17,180	954,852	543,204
-17,950	17,128	954,438	542,780
-16,936	17,088	953,732	542,227
-15,921	17,101	952,921	541,789
-14,906	16,980	952,371	541,066
-13,892	17,056	951,639	540,871
-12,877	16,998	950,938	540,265
-11,863	16,972	950,313	539,806
-10,848	16,997	949,811	539,579
-9,833	17,106	949,194	539,557
-8,819	17,147	948,525	539,285
-7,804	17,091	947,969	538,769
-6,790	17,060	947,383	538,317
-5,775	17,088	946,906	538,112
-4,760	17,031	946,220	537,520
-3,746	17,055	945,569	537,204
-2,731	16,964	944,822	536,470
-1,717	16,879	944,063	535,746
-0,702	16,892	943,413	535,400
0,313	16,690	942,975	535,318
1,327	19,164	940,447	541,672
2,342	25,952	813,608	487,091
3,356	20,109	517,674	299,758
4,371	-1,627	389,712	196,898
5,386	-4,006	373,140	185,470
6,400	-5,151	366,966	180,945
7,415	-6,120	364,366	178,436
8,429	-6,388	362,491	177,169
9,444	-6,460	361,528	176,594
10,459	-6,563	360,744	176,067
11,473	-6,655	360,103	175,626
12,488	-6,593	359,626	175,454
13,502	-6,599	358,979	175,115
14,517	-6,989	358,379	174,328
15,531	-7,129	357,744	173,831
16,546	-7,252	357,137	173,370
17,561	-7,225	356,704	173,178
18,575	-7,339	356,372	172,862
19,590	-7,301	355,763	172,598
20,604	-7,307	355,588	172,490
21,619	-7,326	355,177	172,252
22,634	-7,468	354,659	171,813
23,648	-7,521	354,447	171,630
24,663	-7,270	353,978	171,692
25,677	-7,445	353,761	171,361
26,692	-7,392	353,404	171,236
27,707	-7,420	352,993	170,988
28,721	-7,387	352,736	170,888
29,736	-7,518	352,389	170,546
30,750	-7,509	352,058	170,382
31,765	-7,513	351,877	170,274
32,780	-7,554	351,487	170,022
33,794	-7,408	351,335	170,109
34,809	-7,435	350,900	169,850
35,823	-7,439	350,587	169,679
36,838	-7,611	350,194	169,267
37,853	-7,481	349,995	169,311
38,867	-7,432	349,650	169,189
39,882	-7,630	349,497	168,862
40,896	-7,548	349,124	168,765
41,911	-7,598	348,756	168,512
42,926	-7,617	348,446	168,325
43,940	-7,626	348,164	168,163
44,955	-7,612	347,971	168,072
45,969	-7,726	347,607	167,744
46,984	-7,821	347,296	167,466
47,999	-7,986	346,962	167,095
49,013	-7,932	346,653	166,996
50,028	-7,872	346,432	166,946
51,042	-7,921	346,088	166,706
52,057	-7,906	345,826	166,583
53,071	-7,985	345,603	166,368
54,086	-7,955	345,235	166,211
55,101	-7,857	344,899	166,149
56,115	-7,864	344,902	166,128
57,130	-7,455	344,671	166,483
58,144	-7,273	344,557	166,628
59,159	-7,182	344,278	166,586
60,174	-7,225	344,044	166,407
61,188	-7,188	343,731	166,284
62,203	-7,292	343,417	165,996
63,217	-7,329	343,129	165,798
64,232	-7,273	342,870	165,724
65,247	-7,031	342,684	165,902
66,261	-7,188	342,456	165,593
67,276	-7,586	341,846	164,819
68,290	-7,606	341,442	164,586
69,305	-7,578	341,378	164,573
70,320	-7,776	341,103	164,196
71,334	-7,598	340,847	164,265
72,349	-7,166	340,718	164,690
73,363	-7,131	340,537	164,628
74,378	-7,186	340,203	164,388
75,393	-7,237	339,868	164,154
76,407	-7,326	339,442	163,830
77,422	-7,364	339,326	163,715
78,436	-7,264	339,191	163,751
79,451	-7,120	338,850	163,738
80,466	-7,483	338,345	163,060
81,480	-7,617	338,077	162,763
82,495	-7,613	337,821	162,629
83,509	-7,718	337,501	162,340
84,524	-7,759	337,336	162,199
85,539	-7,731	337,099	162,103
86,553	-7,772	336,715	161,856
87,568	-7,734	336,573	161,818
88,582	-7,908	336,442	161,540
89,597	-7,782	336,046	161,480
90,611	-7,689	335,977	161,540
91,626	-7,581	335,783	161,555
92,641	-7,568	335,479	161,409
93,655	-7,580	335,063	161,181
94,670	-7,622	334,751	160,969
95,684	-7,759	334,712	160,780
96,699	-7,541	334,380	160,854
97,714	-7,582	334,116	160,666
98,728	-7,572	333,803	160,512
99,743	-7,912	333,673	160,050
100,757	-7,814	333,211	159,925
101,772	-7,767	333,056	159,890
102,787	-7,751	332,870	159,804
103,801	-7,643	332,589	159,777
104,816	-7,480	332,364	159,839
105,830	-7,508	332,136	159,684
106,845	-7,231	331,916	159,876
107,860	-7,421	331,783	159,584
108,874	-7,603	331,571	159,262
109,889	-7,606	331,211	159,071
110,903	-7,655	331,045	158,922
111,918	-7,559	330,877	158,936
112,933	-7,682	330,574	158,637
113,947	-7,575	330,464	158,691
114,962	-7,392	330,093	158,704
115,976	-7,396	329,845	158,566
116,991	-7,577	329,612	158,238
118,006	-7,497	329,343	158,183
119,020	-7,451	329,154	158,130
120,035	-7,506	329,127	158,042
121,049	-7,369	328,900	158,072
122,064	-7,484	328,576	157,773
123,079	-7,305	328,218	157,787
124,093	-7,809	328,064	157,137
125,108	-7,819	327,762	156,968
126,122	-7,997	327,429	156,596
127,137	-7,846	327,084	156,585
128,151	-7,701	326,988	156,685
129,166	-7,696	326,618	156,500
130,181	-7,734	326,447	156,362
131,195	-7,728	326,190	156,231
132,210	-7,788	326,010	156,065
133,224	-7,421	325,813	156,363
134,239	-7,430	325,640	156,256
135,254	-7,402	325,399	156,158
136,268	-7,609	325,144	155,792
137,283	-7,642	324,630	155,496
138,297	-7,716	324,578	155,375
139,312	-7,771	324,350	155,192
140,327	-7,399	324,245	155,537
141,341	-7,129	324,103	155,752
142,356	-6,983	324,116	155,905
143,370	-6,770	323,746	155,946
144,385	-6,964	323,447	155,576
145,400	-6,980	323,267	155,458
146,414	-7,126	323,067	155,188
147,429	-7,059	322,781	155,110
148,443	-7,073	322,520	154,955
149,458	-7,116	322,461	154,867
150,473	-7,187	322,268	154,682
151,487	-7,020	321,843	154,646
152,502	-6,989	321,669	154,583
153,516	-6,959	321,533	154,537
154,531	-7,009	321,361	154,386
155,546	-7,030	320,903	154,129
156,560	-7,118	320,651	153,898
157,575	-7,211	320,500	153,712
158,589	-7,174	320,332	153,658
159,604	-7,044	320,074	153,661
160,619	-6,990	319,902	153,623
161,633	-6,921	319,613	153,545
162,648	-6,955	319,551	153,465
163,662	-7,031	319,245	153,223
164,677	-7,138	318,957	152,954
165,692	-7,078	318,867	152,963
166,706	-6,935	318,553	152,953
167,721	-7,006	318,525	152,849
168,735	-6,801	318,177	152,889
169,750	-6,731	318,112	152,919
170,764	-7,005	317,823	152,472
171,779	-6,797	317,704	152,626
172,794	-6,786	317,590	152,568
173,808	-7,217	317,213	151,911
174,823	-7,491	316,774	151,394
175,837	-7,664	316,476	151,053
176,852	-7,175	316,608	151,627
177,867	-6,887	316,323	151,784
178,881	-6,704	316,253	151,933
179,896	-6,893	315,943	151,568
180,910	-6,890	315,759	151,470
181,925	-6,863	315,631	151,423
182,940	-6,802	315,231	151,283
183,954	-6,847	315,137	151,176
184,969	-6,852	315,029	151,107
185,983	-6,849	314,690	150,933
186,998	-6,910	314,479	150,754
188,013	-6,758	314,389	150,858
189,027	-6,702	314,162	150,796
190,042	-6,707	313,801	150,603
191,056	-6,560	313,869	150,778
192,071	-6,712	313,494	150,424
193,086	-6,539	313,290	150,495
194,100	-6,710	313,084	150,203
195,115	-6,634	312,793	150,130
196,129	-6,590	312,601	150,071
197,144	-6,561	312,384	149,984
198,159	-6,582	312,286	149,901
199,173	-6,629	311,907	149,656
200,188	-6,349	311,743	149,858
201,202	-6,842	311,456	149,190
202,217	-7,429	311,056	148,369
203,232	-7,585	310,747	148,045
204,246	-6,999	310,693	148,620
205,261	-6,632	310,495	148,897
206,275	-6,866	310,395	148,590
207,290	-6,681	310,267	148,709
208,304	-6,646	309,930	148,571
209,319	-6,838	309,870	148,328
210,334	-6,773	309,677	148,291
211,348	-6,607	309,355	148,296
212,363	-6,622	309,092	148,141
213,377	-6,816	309,161	147,959
214,392	-6,853	308,831	147,749
215,407	-7,141	308,503	147,280
216,421	-7,153	308,047	147,037
217,436	-7,244	307,797	146,810
218,450	-7,365	307,775	146,661
219,465	-7,170	307,721	146,824
220,480	-6,939	307,444	146,918
221,494	-6,957	307,083	146,714
222,509	-7,122	307,041	146,510
223,523	-7,058	307,010	146,548
224,538	-6,774	306,866	146,760
225,553	-6,762	306,656	146,658
226,567	-6,619	306,367	146,654
227,582	-6,446	306,254	146,766
228,596	-6,700	306,145	146,439
229,611	-6,559	305,919	146,462
230,626	-6,719	305,564	146,116
231,640	-7,113	305,191	145,520
232,655	-7,501	304,679	144,865
233,669	-7,469	304,593	144,844
234,684	-7,493	304,332	144,683
235,699	-7,502	304,219	144,606
236,713	-7,271	304,044	144,746
237,728	-7,267	303,968	144,701
238,742	-7,075	303,836	144,822
239,757	-7,017	303,751	144,828
240,772	-6,995	303,416	144,678
241,786	-6,929	303,171	144,615
242,801	-7,181	303,025	144,277
243,815	-7,182	302,692	144,103
244,830	-6,872	302,589	144,356
245,844	-7,145	302,391	143,972
246,859	-7,286	302,197	143,724
247,874	-7,026	301,924	143,845
248,888	-7,100	301,744	143,671
249,903	-6,786	301,749	143,979
250,917	-6,850	301,689	143,872
251,932	-6,404	301,544	144,242
252,947	-5,573	301,868	145,225
253,961	-5,212	301,653	145,474
254,976	-4,329	301,794	146,423
255,990	-3,698	301,913	147,106
257,005	-3,728	301,922	147,066
258,020	-1,547	302,534	149,561
259,034	-0,811	302,761	150,405
260,049	-0,334	302,747	150,866
261,063	0,234	302,772	151,441
262,078	0,249	302,628	151,370
263,093	0,331	302,434	151,342
264,107	0,493	302,152	151,351
265,122	0,467	302,082	151,276
266,136	0,523	301,868	151,212
267,151	0,585	301,712	151,183
268,166	0,553	301,612	151,088
269,180	0,553	301,387	150,961
270,195	0,416	301,240	150,737
271,209	0,503	300,886	150,633
272,224	0,592	300,753	150,642
273,239	0,550	300,554	150,487
274,253	0,690	300,510	150,592
275,268	0,561	300,041	150,214
276,282	0,470	300,060	150,120
277,297	0,606	299,822	150,123
278,312	0,612	299,598	150,004
279,326	0,504	299,448	149,807
280,341	0,563	299,175	149,716
281,355	0,469	299,084	149,563
282,370	0,642	298,751	149,556
283,384	0,501	298,622	149,338
284,399	0,398	298,320	149,070
285,414	0,455	298,098	149,003
286,428	0,500	297,990	148,980
287,443	0,500	297,898	148,921
288,457	0,689	297,455	148,874
289,472	0,417	297,455	148,591
290,487	0,515	297,111	148,502
291,501	0,387	297,160	148,388
292,516	0,525	296,778	148,320
293,530	0,470	296,621	148,173
294,545	0,602	296,475	148,218
295,560	0,499	296,238	147,985
296,574	0,543	296,059	147,926
297,589	0,448	295,913	147,746
298,603	0,600	295,614	147,732
299,618	0,358	295,508	147,429
300,633	0,483	295,335	147,452
301,647	0,467	295,138	147,325
302,662	0,488	295,010	147,268
303,676	0,566	294,642	147,148
304,691	0,520	294,517	147,028
305,706	0,474	294,457	146,939
306,720	0,477	294,167	146,784
307,735	0,503	293,939	146,683
308,749	0,381	293,897	146,529
309,764	0,421	293,655	146,436
310,779	0,547	293,429	146,432
311,793	0,559	293,109	146,271
312,808	0,499	292,984	146,138
313,822	0,521	292,748	146,028
314,837	0,473	292,627	145,908
315,852	0,607	292,275	145,849
316,866	0,491	292,253	145,713
317,881	0,500	292,078	145,622
318,895	0,655	291,859	145,650
319,910	0,507	291,640	145,384
320,925	0,495	291,487	145,283
321,939	0,571	291,237	145,219
322,954	0,457	291,189	145,071
323,968	0,482	291,082	145,030
324,983	0,420	290,814	144,824
325,997	0,502	290,510	144,738
327,012	0,615	290,503	144,831
328,027	0,452	290,284	144,552
329,041	0,489	290,087	144,476
330,056	0,604	289,861	144,461
331,070	0,702	289,575	144,401
332,085	0,701	289,434	144,316
333,100	0,512	289,240	144,025
334,114	0,718	289,015	144,098
335,129	0,545	288,890	143,857
336,143	0,596	288,736	143,816
337,158	0,747	288,435	143,798
338,173	0,639	288,306	143,617
339,187	0,613	288,139	143,497
340,202	0,727	287,960	143,503
341,216	0,631	287,714	143,277
342,231	0,439	287,521	142,984
343,246	0,524	287,407	142,996
344,260	0,689	287,300	143,087
345,275	0,751	286,982	142,975
346,289	0,670	286,786	142,788
347,304	0,527	286,794	142,643
348,319	0,653	286,516	142,612
349,333	0,786	286,212	142,573
350,348	0,738	286,231	142,525
351,362	0,696	286,032	142,373
352,377	0,576	285,908	142,185
353,392	0,817	285,668	142,282
354,406	0,707	285,536	142,099
355,421	191,971	1327,268	1397,601
356,435	155,538	1454,177	1397,621
