DTS Sentinel unit serial number:	SN410029Multiplexer serial number:	ORYXHardware model number:	OX2-SRSoftware version number:	ORYX F/W v4,00 Oryx Data Collector v3.7.2.0data status	okinstallation	B4 Nyhavnadifferential loss correction	single-endedforward channel	channel 2reverse channel	N/Adate	2023/12/15time	18:05:13forward acquisition time	300,00reverse acquisition time	0,00gamma	499,1914k internal	0,3140k external	0,3140temperature offset calibration	1,0000default loss term (dB/km)	0,3820temperature slope calibration	1,0000multiplexer offset coefficient	1,0000multiplexer slope coefficient	1,0000fibre end	0,00T internal ref (°C)	18,89T ext. ref 1 (°C)	4,75T ext. ref 2 (°C)	4,86length (m)	temperature (°C)	Stokes	anti-Stokes-744,400	51,419	0,148	0,104
-743,385	-156,752	-0,305	0,014
-742,371	800,000	0,047	-0,114
-741,356	-47,322	-0,194	0,070
-740,342	331,907	0,039	0,055
-739,327	-28,845	-0,227	0,096
-738,312	-161,018	0,125	-0,005
-737,298	-134,401	-0,195	-0,018
-736,283	800,000	-0,060	-0,138
-735,269	61,244	-0,166	0,122
-734,254	-141,977	0,202	-0,015
-733,239	-121,715	-0,474	-0,057
-732,225	21,439	0,101	-0,061
-731,210	-200,000	0,035	0,126
-730,196	124,677	-0,039	-0,036
-729,181	-200,000	-0,017	-0,099
-728,167	-200,000	-0,024	-0,133
-727,152	-64,282	-0,045	-0,014
-726,137	500,864	-0,033	-0,057
-725,123	121,803	-0,094	0,087
-724,108	156,096	-0,066	-0,068
-723,094	800,000	0,014	-0,031
-722,079	-39,265	-0,125	-0,048
-721,064	23,643	0,122	0,074
-720,050	800,000	0,012	-0,037
-719,035	-200,000	-0,001	-0,027
-718,021	-15,754	-0,165	-0,078
-717,006	-200,000	-0,028	-0,168
-715,991	84,079	-0,126	0,102
-714,977	-26,077	0,133	0,058
-713,962	173,502	-0,076	-0,081
-712,948	252,728	-0,045	-0,057
-711,933	800,000	0,040	0,113
-710,918	-100,830	-0,028	-0,005
-709,904	-25,794	-0,095	0,041
-708,889	-200,000	0,008	0,084
-707,875	-78,540	-0,096	-0,024
-706,860	-200,000	0,025	-0,118
-705,845	-133,768	-0,087	-0,008
-704,831	-167,708	-0,063	0,002
-703,816	-14,210	-0,074	0,035
-702,802	-83,850	-0,134	0,031
-701,787	-83,898	-0,081	-0,019
-700,772	295,945	0,034	-0,047
-699,758	-46,718	0,114	-0,041
-698,743	-35,150	0,076	-0,031
-697,729	-103,296	0,152	0,026
-696,714	250,947	-0,140	0,177
-695,699	-104,419	-0,138	-0,023
-694,685	52,941	-0,125	0,088
-693,670	14,843	0,067	-0,039
-692,656	618,393	0,040	0,074
-691,641	-73,603	0,148	0,040
-690,627	99,142	-0,076	-0,065
-689,612	-24,847	-0,036	-0,016
-688,597	37,111	-0,048	-0,031
-687,583	-200,000	-0,022	-0,079
-686,568	45,375	-0,129	-0,088
-685,554	-200,000	0,016	-0,073
-684,539	-200,000	0,005	-0,129
-683,524	-200,000	0,034	0,134
-682,510	-123,079	-0,099	0,012
-681,495	-169,200	-0,048	0,001
-680,481	-78,014	-0,181	0,046
-679,466	-65,095	-0,100	-0,029
-678,451	-61,851	0,105	0,032
-677,437	-109,536	-0,128	-0,020
-676,422	800,000	-0,009	0,022
-675,408	71,235	0,047	0,036
-674,393	-114,210	0,123	0,017
-673,378	149,315	-0,056	-0,056
-672,364	-200,000	-0,052	-0,222
-671,349	214,593	0,064	-0,075
-670,335	-5,579	0,255	0,129
-669,320	-200,000	-0,020	0,105
-668,305	166,684	0,014	-0,014
-667,291	10,869	0,037	-0,021
-666,276	127,338	-0,068	-0,064
-665,262	92,726	-0,124	-0,103
-664,247	800,000	-0,016	-0,043
-663,232	800,000	0,036	0,076
-662,218	-200,000	-0,009	0,045
-661,203	226,538	0,026	0,032
-660,189	113,390	0,023	-0,020
-659,174	-200,000	0,008	-0,115
-658,159	627,122	-0,104	-0,195
-657,145	-92,211	-0,104	0,021
-656,130	470,710	-0,073	-0,121
-655,116	800,000	-0,044	-0,090
-654,101	-21,696	-0,122	0,055
-653,086	-99,192	-0,142	-0,026
-652,072	340,085	0,042	-0,060
-651,057	-27,378	-0,101	0,043
-650,043	-66,654	0,060	0,018
-649,028	-200,000	0,010	-0,069
-648,014	220,000	-0,042	-0,050
-646,999	-200,000	0,009	0,107
-645,984	-85,719	0,153	-0,035
-644,970	-200,000	-0,017	-0,062
-643,955	-49,062	-0,118	0,042
-642,941	6,035	-0,062	-0,034
-641,926	-200,000	0,004	0,016
-640,911	-34,899	0,061	-0,024
-639,897	39,729	0,049	0,032
-638,882	-102,640	0,113	0,020
-637,868	390,088	0,023	-0,036
-636,853	-200,000	0,012	-0,077
-635,838	-150,150	-0,051	0,003
-634,824	156,650	-0,008	0,008
-633,809	-200,000	0,014	0,132
-632,795	800,000	0,021	-0,048
-631,780	184,960	0,067	0,074
-630,765	96,258	-0,057	-0,048
-629,751	-45,199	-0,078	0,029
-628,736	-36,685	-0,146	-0,058
-627,722	-34,073	0,023	-0,009
-626,707	240,426	0,055	0,068
-625,692	-84,344	0,148	-0,034
-624,678	-139,068	-0,053	0,004
-623,663	159,580	0,040	-0,041
-622,649	-173,763	0,030	0,001
-621,634	-200,000	0,041	-0,164
-620,619	-123,088	0,046	0,005
-619,605	111,907	0,035	-0,032
-618,590	-167,143	0,033	0,001
-617,576	-200,000	0,004	0,050
-616,561	562,446	0,020	-0,036
-615,546	148,670	0,047	0,047
-614,532	-65,753	-0,030	-0,009
-613,517	-181,675	-0,040	-0,001
-612,503	-200,000	-0,033	-0,111
-611,488	-200,000	0,008	0,142
-610,474	-71,110	-0,106	-0,029
-609,459	-29,346	-0,105	-0,044
-608,444	183,823	-0,055	-0,060
-607,430	-74,751	-0,079	-0,021
-606,415	-200,000	0,010	-0,047
-605,401	314,295	0,034	-0,047
-604,386	487,365	0,068	0,115
-603,371	-53,704	0,195	0,065
-602,357	-85,248	-0,076	0,017
-601,342	-200,000	-0,029	-0,096
-600,328	143,307	-0,114	-0,111
-599,313	-23,428	0,067	0,030
-598,298	-200,000	-0,012	-0,081
-597,284	137,014	0,066	0,063
-596,269	-200,000	-0,006	-0,056
-595,255	-30,140	0,114	-0,048
-594,240	800,000	0,021	0,048
-593,225	800,000	0,041	0,129
-592,211	-200,000	0,024	-0,114
-591,196	-40,730	0,049	-0,019
-590,182	211,085	0,023	-0,027
-589,167	-200,000	-0,008	-0,037
-588,152	671,437	-0,058	0,110
-587,138	-128,920	0,127	0,013
-586,123	778,722	-0,042	-0,086
-585,109	-200,000	0,010	-0,189
-584,094	377,841	0,010	0,014
-583,079	800,000	-0,027	0,084
-582,065	214,383	0,023	-0,027
-581,050	125,584	-0,031	0,029
-580,036	-136,995	-0,122	-0,010
-579,021	134,607	0,062	0,059
-578,006	70,188	-0,029	0,022
-576,992	-200,000	-0,027	0,121
-575,977	-14,193	0,022	0,010
-574,963	273,463	0,057	-0,074
-573,948	-137,585	0,141	0,012
-572,934	-41,498	-0,118	0,044
-571,919	-69,020	0,135	0,038
-570,904	63,679	-0,042	0,031
-569,890	193,457	-0,099	0,110
-568,875	-200,000	-0,014	0,068
-567,861	-200,000	-0,021	-0,089
-566,846	800,000	-0,022	-0,068
-565,831	-107,437	-0,063	-0,010
-564,817	17,633	0,097	-0,057
-563,802	38,469	-0,106	-0,069
-562,788	-200,000	-0,010	-0,217
-561,773	476,166	0,021	0,035
-560,758	-200,000	-0,001	-0,041
-559,744	165,881	0,032	-0,033
-558,729	258,500	0,090	-0,114
-557,715	-87,654	0,051	0,011
-556,700	-57,938	0,030	0,010
-555,685	-28,461	-0,067	0,028
-554,671	-21,024	-0,163	-0,073
-553,656	509,671	-0,017	-0,030
-552,642	-20,955	-0,126	0,057
-551,627	38,015	0,048	-0,031
-550,612	-52,045	-0,030	0,010
-549,598	256,283	-0,040	-0,050
-548,583	8,862	-0,061	0,034
-547,569	-62,208	0,099	-0,030
-546,554	-92,891	0,065	-0,013
-545,539	214,732	0,093	-0,109
-544,525	800,000	0,065	0,160
-543,510	65,757	-0,027	0,020
-542,496	-200,000	-0,007	0,023
-541,481	-8,415	0,055	-0,027
-540,466	-200,000	-0,006	-0,048
-539,452	-200,000	0,007	-0,061
-538,437	-164,087	0,125	0,004
-537,423	37,547	-0,030	0,020
-536,408	124,017	-0,102	-0,094
-535,393	-200,000	0,001	-0,132
-534,379	-141,941	-0,091	0,007
-533,364	766,094	0,024	-0,049
-532,350	-200,000	-0,004	0,115
-531,335	-200,000	0,002	0,025
-530,321	137,314	0,052	0,050
-529,306	800,000	-0,075	-0,161
-528,291	-200,000	-0,016	0,055
-527,277	104,213	-0,107	-0,093
-526,262	119,608	-0,095	-0,087
-525,248	201,957	0,138	-0,157
-524,233	763,696	0,018	0,036
-523,218	-200,000	0,019	0,120
-522,204	-74,525	0,068	0,018
-521,189	178,382	0,079	-0,085
-520,175	43,231	-0,027	0,018
-519,160	-200,000	-0,014	0,088
-518,145	-200,000	0,008	0,038
-517,131	800,000	0,032	0,073
-516,116	-200,000	0,029	0,203
-515,102	367,400	0,035	-0,052
-514,087	-40,160	-0,101	-0,038
-513,072	-200,000	-0,007	-0,146
-512,058	-47,327	0,124	-0,044
-511,043	800,000	-0,069	0,148
-510,029	121,633	0,094	0,086
-509,014	-36,451	0,080	0,032
-507,999	800,000	0,029	-0,066
-506,985	16,638	0,105	-0,061
-505,970	-97,407	-0,047	-0,009
-504,956	-200,000	-0,028	-0,248
-503,941	272,971	0,108	-0,141
-502,926	170,437	0,058	0,061
-501,912	-17,082	-0,117	0,054
-500,897	-100,298	-0,075	0,014
-499,883	1,857	-0,080	-0,042
-498,868	-97,632	0,038	-0,007
-497,853	414,586	-0,097	0,152
-496,839	-200,000	0,001	-0,033
-495,824	456,350	0,039	0,064
-494,810	-42,933	-0,163	0,060
-493,795	-200,000	0,004	-0,016
-492,781	196,937	-0,137	-0,153
-491,766	120,282	-0,088	0,080
-490,751	-200,000	-0,014	0,084
-489,737	77,144	0,015	-0,011
-488,722	-200,000	-0,004	0,083
-487,708	22,012	0,061	0,036
-486,693	523,792	-0,024	-0,042
-485,678	-154,747	0,082	-0,004
-484,664	40,648	-0,070	-0,046
-483,649	378,512	0,024	0,036
-482,635	23,699	-0,049	0,030
-481,620	-200,000	0,003	0,012
-480,605	-79,499	-0,082	-0,020
-479,591	-92,221	0,070	0,014
-478,576	48,275	0,038	-0,026
-477,562	120,843	0,059	0,054
-476,547	800,000	-0,022	0,047
-475,532	161,524	0,104	-0,107
-474,518	-18,141	0,105	0,048
-473,503	201,892	0,098	0,111
-472,489	69,588	0,038	0,029
-471,474	10,013	0,110	-0,061
-470,459	330,804	0,035	0,049
-469,445	1,858	-0,019	0,010
-468,430	94,104	-0,026	-0,021
-467,416	325,042	0,071	0,099
-466,401	-140,002	0,091	0,007
-465,386	800,000	-0,061	0,132
-464,372	-32,883	-0,098	-0,040
-463,357	-78,808	-0,032	-0,008
-462,343	3,499	-0,161	-0,086
-461,328	-44,397	0,074	-0,027
-460,313	-183,188	0,155	-0,002
-459,299	120,749	0,078	0,071
-458,284	-200,000	0,040	-0,151
-457,270	-200,000	0,006	-0,084
-456,255	-200,000	-0,036	0,000
-455,241	-200,000	-0,012	-0,219
-454,226	-100,433	0,041	-0,007
-453,211	140,560	-0,103	0,100
-452,197	-200,000	0,004	-0,072
-451,182	-200,000	-0,040	0,161
-450,168	-200,000	0,001	0,146
-449,153	800,000	-0,062	0,129
-448,138	-200,000	-0,000	-0,008
-447,124	-28,810	-0,082	-0,034
-446,109	-124,190	-0,029	-0,003
-445,095	-7,625	0,073	-0,036
-444,080	15,526	-0,116	0,066
-443,065	-25,285	0,106	0,046
-442,051	-8,766	-0,074	-0,036
-441,036	723,468	-0,038	-0,074
-440,022	245,099	-0,072	0,088
-439,007	800,000	0,036	-0,092
-437,992	-95,302	-0,119	0,023
-436,978	270,590	0,054	0,070
-435,963	-154,926	-0,066	-0,003
-434,949	203,768	-0,041	0,046
-433,934	-10,122	0,072	-0,035
-432,919	-200,000	-0,025	-0,112
-431,905	-35,626	-0,125	0,049
-430,890	-52,434	0,087	0,029
-429,876	107,290	0,061	0,053
-428,861	328,992	0,091	0,129
-427,846	658,416	0,018	0,035
-426,832	-83,477	-0,025	0,006
-425,817	36,525	-0,066	0,043
-424,803	174,764	-0,043	-0,046
-423,788	321,525	0,028	0,039
-422,773	447,749	0,044	0,071
-421,759	-200,000	-0,007	0,071
-420,744	-200,000	0,009	0,076
-419,730	-200,000	-0,011	0,060
-418,715	100,500	-0,036	0,031
-417,701	295,942	-0,037	0,050
-416,686	-200,000	0,002	0,015
-415,671	210,471	-0,074	-0,085
-414,657	-200,000	0,007	-0,043
-413,642	800,000	-0,010	-0,026
-412,628	-65,969	-0,065	0,019
-411,613	-60,477	-0,073	0,023
-410,598	800,000	-0,016	0,046
-409,584	800,000	-0,030	0,093
-408,569	-88,521	0,036	0,008
-407,555	-200,000	0,008	0,038
-406,540	32,228	0,094	-0,060
-405,525	-200,000	-0,010	0,114
-404,511	-200,000	0,006	0,031
-403,496	-200,000	-0,004	-0,095
-402,482	-115,024	0,166	0,023
-401,467	415,947	-0,011	-0,017
-400,452	503,894	0,040	-0,068
-399,438	-90,814	-0,145	0,030
-398,423	-200,000	0,000	0,056
-397,409	128,713	0,020	-0,019
-396,394	103,006	-0,113	-0,097
-395,379	154,662	0,091	-0,091
-394,365	86,880	0,044	-0,035
-393,350	116,066	0,025	-0,023
-392,336	-200,000	0,019	-0,076
-391,321	598,280	0,093	0,170
-390,306	800,000	-0,037	-0,080
-389,292	704,992	-0,071	-0,137
-388,277	45,253	-0,110	-0,074
-387,263	631,813	0,059	0,109
-386,248	-134,541	0,024	-0,002
-385,233	-200,000	0,017	0,064
-384,219	-19,182	-0,136	-0,061
-383,204	85,289	-0,038	-0,030
-382,190	-111,501	0,041	-0,006
-381,175	92,657	-0,051	-0,042
-380,160	-77,466	0,083	0,021
-379,146	151,330	0,137	0,137
-378,131	-5,657	-0,044	-0,022
-377,117	72,693	-0,010	-0,007
-376,102	116,608	0,062	0,055
-375,088	-94,828	-0,088	-0,017
-374,073	-200,000	0,029	-0,096
-373,058	82,373	0,103	0,082
-372,044	800,000	0,023	0,051
-371,029	-200,000	0,020	0,078
-370,015	64,335	-0,077	0,056
-369,000	-57,573	0,085	-0,027
-367,985	800,000	-0,064	-0,131
-366,971	37,136	0,081	-0,053
-365,956	695,714	-0,023	-0,045
-364,942	800,000	0,021	-0,063
-363,927	-70,912	0,173	0,047
-362,912	205,620	0,024	-0,027
-361,898	-82,808	0,053	-0,012
-360,883	453,300	0,059	-0,096
-359,869	20,605	0,067	-0,040
-358,854	-200,000	0,024	0,082
-357,839	549,503	0,041	0,073
-356,825	117,277	0,030	0,027
-355,810	494,658	0,075	-0,127
-354,796	769,240	-0,060	-0,119
-353,781	222,444	-0,035	-0,042
-352,766	-48,409	0,002	0,001
-351,752	-200,000	-0,022	-0,171
-350,737	-148,457	-0,041	-0,002
-349,723	-76,522	0,047	-0,012
-348,708	340,521	-0,044	0,063
-347,693	154,583	0,075	-0,075
-346,679	-200,000	0,003	-0,052
-345,664	616,239	0,041	-0,075
-344,650	800,000	0,021	0,045
-343,635	-4,038	0,187	-0,094
-342,620	800,000	0,007	-0,020
-341,606	-200,000	-0,007	0,082
-340,591	-200,000	-0,014	0,061
-339,577	86,501	0,027	-0,022
-338,562	-120,175	-0,212	0,026
-337,548	103,421	0,039	-0,033
-336,533	800,000	-0,022	0,063
-335,518	-96,006	0,011	-0,002
-334,504	-96,891	-0,121	-0,023
-333,489	-24,167	-0,046	0,020
-332,475	-11,992	-0,108	0,052
-331,460	800,000	-0,028	-0,076
-330,445	19,568	-0,074	-0,043
-329,431	800,000	0,038	0,119
-328,416	435,578	0,094	0,149
-327,402	-12,293	-0,097	-0,046
-326,387	-200,000	-0,014	0,227
-325,372	-128,599	-0,074	-0,008
-324,358	-60,895	-0,038	-0,012
-323,343	-88,575	0,058	0,012
-322,329	-200,000	0,008	0,110
-321,314	59,486	-0,036	-0,026
-320,299	426,613	0,068	0,107
-319,285	-200,000	0,009	-0,033
-318,270	-35,519	0,113	-0,045
-317,256	33,004	0,075	-0,047
-316,241	338,458	0,065	0,092
-315,226	-48,429	-0,152	-0,053
-314,212	-200,000	-0,036	0,131
-313,197	90,812	-0,092	-0,075
-312,183	800,000	0,036	-0,099
-311,168	-200,000	0,000	0,127
-310,153	-15,749	-0,150	-0,069
-309,139	-108,698	0,059	0,009
-308,124	-133,984	0,099	0,009
-307,110	61,062	0,070	-0,051
-306,095	-138,927	0,158	0,012
-305,080	372,225	0,033	-0,049
-304,066	73,227	0,087	0,066
-303,051	-2,852	0,010	-0,005
-302,037	-134,481	0,117	0,010
-301,022	26,487	-0,062	-0,037
-300,008	-53,449	0,029	-0,010
-298,993	534,500	-0,057	-0,099
-297,978	800,000	0,045	0,104
-296,964	-90,919	-0,066	-0,014
-295,949	-65,336	-0,095	0,028
-294,935	50,731	-0,078	-0,054
-293,920	800,000	-0,020	-0,048
-292,905	398,976	0,042	0,065
-291,891	-48,091	0,179	-0,063
-290,876	-200,000	0,039	0,163
-289,862	125,037	0,065	0,060
-288,847	-200,000	0,010	-0,042
-287,832	-34,283	-0,098	0,039
-286,818	800,000	-0,015	0,042
-285,803	300,351	-0,037	0,049
-284,789	-200,000	0,005	-0,016
-283,774	557,506	0,077	0,137
-282,759	328,538	0,012	0,017
-281,745	-71,692	-0,166	0,045
-280,730	-72,194	-0,029	-0,008
-279,716	800,000	-0,026	-0,059
-278,701	-200,000	-0,004	-0,037
-277,686	-73,368	0,170	0,045
-276,672	-11,687	-0,033	0,016
-275,657	209,188	0,032	-0,037
-274,643	-200,000	0,051	-0,192
-273,628	-21,274	-0,069	0,031
-272,613	-20,117	0,034	-0,015
-271,599	515,920	-0,064	-0,109
-270,584	77,011	0,026	-0,020
-269,570	-200,000	0,008	0,163
-268,555	-21,619	0,107	0,047
-267,540	-159,795	-0,124	-0,005
-266,526	-59,558	-0,020	0,006
-265,511	-70,390	-0,016	0,004
-264,497	381,673	-0,022	0,033
-263,482	-97,540	-0,032	0,006
-262,467	203,810	-0,015	0,017
-261,453	109,289	0,045	0,039
-260,438	-93,452	-0,065	0,013
-259,424	24,931	-0,079	0,047
-258,409	800,000	0,025	0,055
-257,395	303,565	-0,037	-0,051
-256,380	800,000	-0,026	-0,067
-255,365	630,514	0,034	0,064
-254,351	-37,345	-0,081	0,031
-253,336	64,490	0,088	-0,064
-252,322	142,909	-0,102	-0,098
-251,307	-19,218	0,034	0,015
-250,292	-200,000	0,010	-0,087
-249,278	-120,297	0,084	0,010
-248,263	-200,000	-0,002	0,084
-247,249	-63,124	0,026	0,008
-246,234	59,834	-0,109	-0,078
-245,219	-200,000	-0,012	-0,061
-244,205	800,000	-0,035	0,083
-243,190	119,945	-0,085	-0,076
-242,176	-184,628	-0,030	-0,000
-241,161	18,976	-0,048	-0,028
-240,146	242,134	-0,025	-0,030
-239,132	-105,828	0,035	-0,006
-238,117	-52,937	-0,211	-0,070
-237,103	800,000	-0,053	0,107
-236,088	111,729	0,088	-0,077
-235,073	14,869	0,066	-0,038
-234,059	-37,240	-0,099	0,038
-233,044	-27,689	0,082	0,034
-232,030	-82,688	-0,137	-0,032
-231,015	305,907	-0,074	-0,100
-230,000	-125,721	-0,195	-0,021
-228,986	2,242	-0,067	0,035
-227,971	800,000	-0,019	0,051
-226,957	-139,450	-0,009	-0,001
-225,942	-200,000	0,027	0,214
-224,927	167,085	-0,039	0,040
-223,913	-112,067	0,038	-0,006
-222,898	211,531	-0,026	-0,030
-221,884	-69,329	0,055	0,015
-220,869	-191,680	0,014	0,000
-219,855	-38,688	-0,085	-0,032
-218,840	264,173	0,093	0,118
-217,825	-160,363	-0,126	0,005
-216,811	131,488	-0,103	-0,096
-215,796	-160,599	-0,126	-0,005
-214,782	64,913	-0,082	-0,060
-213,767	-71,069	0,073	0,020
-212,752	-67,847	0,078	-0,022
-211,738	770,225	-0,007	-0,014
-210,723	-200,000	0,008	-0,101
-209,709	800,000	-0,037	-0,101
-208,694	26,294	-0,023	0,014
-207,679	-200,000	0,020	-0,064
-206,665	-99,706	0,184	0,033
-205,650	-200,000	-0,025	0,180
-204,636	444,715	0,028	0,044
-203,621	-192,449	-0,046	0,000
-202,606	-23,780	-0,087	-0,038
-201,592	595,258	0,039	-0,070
-200,577	739,499	0,029	0,056
-199,563	366,568	0,028	-0,041
-198,548	-200,000	-0,001	-0,035
-197,533	288,545	-0,051	0,068
-196,519	-122,011	0,041	-0,005
-195,504	-200,000	0,002	0,228
-194,490	-200,000	-0,012	0,083
-193,475	-1,486	0,047	0,024
-192,460	-72,529	0,104	0,028
-191,446	-200,000	0,001	-0,066
-190,431	219,871	-0,031	0,036
-189,417	-200,000	0,005	-0,118
-188,402	-130,094	0,133	-0,013
-187,387	-88,647	-0,134	-0,029
-186,373	-200,000	0,004	-0,172
-185,358	-200,000	-0,018	-0,098
-184,344	-200,000	-0,008	0,045
-183,329	-200,000	0,028	0,134
-182,315	208,388	0,097	0,110
-181,300	800,000	-0,012	0,032
-180,285	-200,000	0,013	0,073
-179,271	-200,000	0,013	0,097
-178,256	-4,648	-0,069	0,035
-177,242	239,939	0,013	0,016
-176,227	-70,870	0,078	0,021
-175,212	-67,521	0,031	-0,009
-174,198	-166,222	0,061	-0,002
-173,183	258,076	-0,133	-0,166
-172,169	510,989	-0,091	0,154
-171,154	-200,000	0,002	-0,065
-170,139	-200,000	-0,085	-0,287
-169,125	197,858	0,104	0,115
-168,110	-200,000	-0,000	-0,009
-167,096	-81,870	-0,089	-0,021
-166,081	-200,000	-0,016	0,153
-165,066	-200,000	-0,035	-0,112
-164,052	-200,000	0,005	-0,153
-163,037	170,774	0,098	0,102
-162,023	-72,850	0,090	0,024
-161,008	111,148	-0,092	0,080
-159,993	-131,665	0,106	0,010
-158,979	-60,680	-0,238	0,073
-157,964	800,000	0,020	-0,047
-156,950	-88,926	0,057	-0,012
-155,935	-67,684	0,196	-0,055
-154,920	49,070	-0,153	0,104
-153,906	-29,136	0,015	-0,006
-152,891	175,881	0,062	0,065
-151,877	-41,312	0,095	0,035
-150,862	-200,000	0,020	-0,094
-149,847	266,750	0,097	-0,124
-148,833	800,000	-0,045	-0,134
-147,818	-200,000	0,030	0,211
-146,804	-79,524	0,127	-0,031
-145,789	344,188	0,025	-0,035
-144,775	109,512	-0,042	-0,037
-143,760	122,921	0,076	-0,069
-142,745	247,155	0,032	-0,040
-141,731	260,386	-0,024	0,030
-140,716	-200,000	0,003	0,169
-139,702	-200,000	0,019	0,126
-138,687	128,226	-0,102	0,094
-137,672	-139,758	-0,116	-0,009
-136,658	164,689	0,058	0,059
-135,643	-200,000	-0,005	-0,021
-134,629	-150,147	0,045	0,002
-133,614	103,982	0,110	-0,093
-132,599	-73,965	0,071	0,019
-131,585	347,506	0,105	0,150
-130,570	-200,000	0,007	0,128
-129,556	-200,000	-0,009	-0,072
-128,541	483,778	-0,042	-0,069
-127,526	116,077	-0,040	-0,036
-126,512	-200,000	-0,008	0,070
-125,497	654,541	-0,059	0,110
-124,483	-34,153	-0,030	-0,012
-123,468	460,332	-0,040	-0,065
-122,453	454,841	0,015	-0,023
-121,439	800,000	-0,028	-0,075
-120,424	-29,279	0,076	-0,031
-119,410	-200,000	-0,001	-0,031
-118,395	-101,448	-0,113	-0,020
-117,380	-105,984	-0,026	0,004
-116,366	-79,756	-0,091	0,022
-115,351	1,809	-0,138	0,072
-114,337	215,556	0,076	-0,087
-113,322	-200,000	0,032	0,131
-112,307	-200,000	-0,030	-0,118
-111,293	373,127	-0,039	-0,057
-110,278	-1,252	-0,026	-0,013
-109,264	800,000	0,022	0,053
-108,249	-111,090	0,031	0,005
-107,234	143,211	-0,094	0,090
-106,220	255,679	-0,058	0,072
-105,205	-200,000	-0,018	-0,079
-104,191	787,547	0,056	0,111
-103,176	-200,000	-0,036	0,119
-102,162	800,000	-0,017	0,053
-101,147	81,157	-0,109	-0,085
-100,132	350,205	0,007	0,010
-99,118	173,680	-0,024	-0,025
-98,103	363,594	0,031	0,045
-97,089	30,368	0,093	0,057
-96,074	-30,444	0,097	-0,039
-95,059	331,403	-0,017	0,024
-94,045	800,000	-0,011	-0,035
-93,030	161,088	-0,138	-0,139
-92,016	-80,978	-0,021	0,005
-91,001	-129,942	0,173	0,017
-89,986	-180,110	-0,219	-0,003
-88,972	-46,895	0,077	-0,027
-87,957	-200,000	-0,016	0,055
-86,943	-139,008	-0,052	-0,004
-85,928	-200,000	0,029	-0,146
-84,913	-200,000	-0,036	-0,190
-83,899	156,325	0,098	0,098
-82,884	-37,108	-0,040	0,015
-81,870	-53,625	-0,059	-0,019
-80,855	-200,000	0,033	0,121
-79,840	800,000	-0,025	-0,072
-78,826	238,206	-0,048	-0,058
-77,811	-168,080	-0,110	-0,003
-76,797	-17,145	0,085	0,039
-75,782	61,660	0,071	0,051
-74,767	-200,000	0,029	0,171
-73,753	-200,000	0,013	-0,074
-72,738	283,113	0,034	0,044
-71,724	-200,000	-0,017	0,063
-70,709	166,600	-0,068	0,070
-69,694	475,602	-0,076	-0,125
-68,680	48,431	0,075	0,051
-67,665	800,000	0,029	0,079
-66,651	92,604	-0,062	-0,051
-65,636	-200,000	-0,000	-0,092
-64,622	-200,000	-0,007	0,048
-63,607	72,783	0,041	0,031
-62,592	-200,000	-0,012	-0,133
-61,578	800,000	0,022	-0,068
-60,563	-200,000	0,005	0,084
-59,549	-200,000	-0,001	0,123
-58,534	-63,974	-1,637	-0,480
-57,519	800,000	-0,456	-1,203
-56,505	-200,000	-1,145	-4,802
-55,490	-97,960	0,712	0,131
-54,476	800,000	4,879	11,642
-53,461	-200,000	15,653	275,894
-52,446	-200,000	700,939	2252,885
-51,432	575,224	1616,904	2859,856
-50,417	122,348	1620,850	1461,397
-49,403	82,867	1280,350	1003,573
-48,388	37,203	1023,935	652,946
-47,373	21,887	985,644	578,156
-46,359	20,826	974,408	568,061
-45,344	19,145	970,182	560,080
-44,330	19,263	968,780	559,634
-43,315	18,988	967,105	557,748
-42,300	18,872	966,322	556,894
-41,286	18,945	964,900	556,290
-40,271	18,876	964,165	555,621
-39,257	18,935	963,356	555,323
-38,242	18,952	962,482	554,854
-37,227	19,001	961,813	554,604
-36,213	18,972	960,873	553,946
-35,198	18,883	960,014	553,142
-34,184	18,909	959,303	552,794
-33,169	18,905	958,369	552,222
-32,154	18,976	957,447	551,895
-31,140	18,948	956,720	551,364
-30,125	18,914	955,999	550,818
-29,111	18,933	955,260	550,433
-28,096	18,960	954,402	550,004
-27,082	18,906	953,822	549,474
-26,067	18,893	952,931	548,896
-25,052	18,926	952,301	548,616
-24,038	18,934	951,548	548,188
-23,023	18,958	950,799	547,812
-22,009	18,969	950,205	547,484
-20,994	19,010	949,584	547,234
-19,979	18,907	949,232	546,680
-18,965	18,863	948,629	546,169
-17,950	18,974	947,672	545,951
-16,936	18,859	947,181	545,281
-15,921	18,817	946,410	544,682
-14,906	18,776	945,841	544,202
-13,892	18,852	945,126	544,009
-12,877	18,751	944,622	543,378
-11,863	18,752	943,956	542,977
-10,848	18,791	943,361	542,735
-9,833	18,888	942,674	542,626
-8,819	18,849	942,237	542,230
-7,804	18,759	941,624	541,570
-6,790	18,835	940,808	541,321
-5,775	18,878	940,273	541,128
-4,760	18,843	939,702	540,667
-3,746	18,821	939,111	540,235
-2,731	18,652	938,522	539,341
-1,717	18,665	937,724	538,901
-0,702	18,635	936,894	538,308
0,313	18,467	936,539	538,388
1,327	20,917	934,265	544,745
2,342	28,076	808,172	490,580
3,356	22,684	510,418	300,590
4,371	0,254	379,694	194,681
5,386	-2,372	363,093	182,886
6,400	-3,576	356,807	178,230
7,415	-4,308	353,943	175,894
8,429	-4,585	352,429	174,791
9,444	-4,553	351,322	174,265
10,459	-4,664	350,776	173,846
11,473	-4,731	350,214	173,471
12,488	-4,572	349,556	173,320
13,502	-4,579	348,902	172,972
14,517	-4,715	348,407	172,549
15,531	-5,134	347,826	171,745
16,546	-5,112	347,309	171,501
17,561	-5,277	346,817	171,046
18,575	-5,152	346,521	171,033
19,590	-5,311	346,087	170,615
20,604	-5,214	345,779	170,564
21,619	-5,251	345,203	170,221
22,634	-5,291	344,924	170,021
23,648	-5,309	344,607	169,828
24,663	-5,260	344,239	169,689
25,677	-5,451	344,046	169,353
26,692	-5,428	343,700	169,195
27,707	-5,237	343,315	169,216
28,721	-5,271	342,916	168,963
29,736	-5,300	342,574	168,746
30,750	-5,244	342,412	168,717
31,765	-5,441	342,095	168,315
32,780	-5,333	341,887	168,324
33,794	-5,200	341,529	168,288
34,809	-5,326	341,218	167,972
35,823	-5,365	340,960	167,785
36,838	-5,361	340,765	167,679
37,853	-5,451	340,358	167,359
38,867	-5,447	340,044	167,194
39,882	-5,355	339,768	167,150
40,896	-5,455	339,661	166,967
41,911	-5,466	339,316	166,769
42,926	-5,581	338,873	166,403
43,940	-5,420	338,523	166,403
44,955	-5,493	338,322	166,205
45,969	-5,600	338,137	165,975
46,984	-5,594	337,731	165,769
47,999	-5,804	337,429	165,362
49,013	-5,826	337,144	165,184
50,028	-5,788	336,717	165,003
51,042	-5,981	336,622	164,720
52,057	-6,025	336,219	164,457
53,071	-5,914	336,041	164,483
54,086	-6,002	335,711	164,205
55,101	-6,037	335,660	164,126
56,115	-5,769	335,458	164,320
57,130	-5,279	335,234	164,757
58,144	-5,018	335,053	164,953
59,159	-5,075	334,690	164,694
60,174	-5,001	334,502	164,671
61,188	-5,100	334,304	164,446
62,203	-5,304	334,251	164,172
63,217	-5,219	333,814	164,040
64,232	-5,270	333,599	163,861
65,247	-4,984	333,381	164,065
66,261	-5,104	332,932	163,693
67,276	-5,475	332,610	163,099
68,290	-5,639	332,439	162,814
69,305	-5,479	332,093	162,811
70,320	-5,600	331,915	162,573
71,334	-5,494	331,574	162,511
72,349	-4,995	331,408	162,980
73,363	-5,065	331,285	162,826
74,378	-5,162	330,989	162,556
75,393	-5,254	330,593	162,244
76,407	-5,316	330,476	162,102
77,422	-5,214	330,193	162,063
78,436	-5,089	329,909	162,050
79,451	-5,279	329,769	161,753
80,466	-5,489	329,412	161,327
81,480	-5,400	328,877	161,151
82,495	-5,495	328,578	160,884
83,509	-5,369	328,437	160,942
84,524	-5,379	328,108	160,754
85,539	-5,596	327,888	160,390
86,553	-5,629	327,691	160,242
87,568	-5,667	327,546	160,115
88,582	-5,489	327,178	160,120
89,597	-5,638	327,046	159,874
90,611	-5,319	326,884	160,136
91,626	-5,274	326,749	160,106
92,641	-5,448	326,540	159,796
93,655	-5,401	326,069	159,604
94,670	-5,469	325,917	159,439
95,684	-5,330	325,616	159,432
96,699	-5,413	325,478	159,258
97,714	-5,545	325,144	158,934
98,728	-5,548	324,768	158,733
99,743	-5,598	324,576	158,570
100,757	-5,687	324,235	158,290
101,772	-5,643	324,115	158,267
102,787	-5,611	323,941	158,202
103,801	-5,446	323,648	158,227
104,816	-5,415	323,571	158,209
105,830	-5,353	323,414	158,186
106,845	-5,177	323,147	158,236
107,860	-5,293	322,945	157,995
108,874	-5,258	322,529	157,816
109,889	-5,341	322,224	157,562
110,903	-5,347	321,996	157,430
111,918	-5,400	321,893	157,307
112,933	-5,422	321,728	157,188
113,947	-5,264	321,509	157,241
114,962	-5,230	321,193	157,109
115,976	-5,386	321,041	156,850
116,991	-5,361	320,687	156,691
118,006	-5,364	320,578	156,621
119,020	-5,326	320,312	156,517
120,035	-5,304	320,303	156,524
121,049	-5,189	320,001	156,486
122,064	-5,260	319,713	156,255
123,079	-5,276	319,518	156,128
124,093	-5,332	319,282	155,938
125,108	-5,517	319,046	155,608
126,122	-5,609	318,517	155,237
127,137	-5,699	318,214	154,978
128,151	-5,618	318,205	155,048
129,166	-5,563	317,960	154,973
130,181	-5,543	317,741	154,874
131,195	-5,621	317,589	154,702
132,210	-5,221	317,154	154,908
133,224	-5,277	317,082	154,799
134,239	-5,145	316,956	154,865
135,254	-5,093	316,673	154,769
136,268	-5,325	316,340	154,343
137,283	-5,466	316,106	154,064
138,297	-5,595	315,837	153,781
139,312	-5,580	315,628	153,682
140,327	-5,197	315,513	154,022
141,341	-4,977	315,295	154,137
142,356	-4,911	315,167	154,131
143,370	-4,945	315,076	154,037
144,385	-4,955	314,835	153,894
145,400	-5,035	314,569	153,665
146,414	-5,036	314,362	153,550
147,429	-4,943	314,075	153,495
148,443	-4,872	313,887	153,466
149,458	-4,899	313,701	153,332
150,473	-5,000	313,523	153,124
151,487	-5,036	313,304	152,965
152,502	-5,003	313,098	152,886
153,516	-4,972	312,711	152,716
154,531	-4,866	312,467	152,696
155,546	-4,915	312,312	152,554
156,560	-4,928	311,975	152,363
157,575	-5,110	311,823	152,082
158,589	-5,004	311,585	152,064
159,604	-4,932	311,495	152,083
160,619	-5,090	311,298	151,807
161,633	-4,877	311,059	151,900
162,648	-4,856	310,808	151,787
163,662	-5,010	310,658	151,538
164,677	-4,914	310,454	151,526
165,692	-4,978	310,229	151,334
166,706	-5,058	310,163	151,205
167,721	-4,927	309,805	151,155
168,735	-4,763	309,777	151,300
169,750	-4,820	309,562	151,121
170,764	-4,663	309,328	151,158
171,779	-4,702	309,069	150,977
172,794	-4,879	308,957	150,724
173,808	-4,913	308,525	150,464
174,823	-5,309	308,155	149,858
175,837	-5,587	308,181	149,567
176,852	-5,121	308,072	149,986
177,867	-4,767	307,929	150,272
178,881	-4,751	307,620	150,124
179,896	-4,723	307,570	150,116
180,910	-4,784	307,288	149,902
181,925	-4,838	307,092	149,736
182,940	-4,924	306,860	149,521
183,954	-4,795	306,606	149,517
184,969	-4,906	306,542	149,358
185,983	-4,659	306,199	149,433
186,998	-4,800	306,083	149,217
188,013	-4,712	305,938	149,225
189,027	-4,790	305,692	149,010
190,042	-4,716	305,453	148,957
191,056	-4,581	305,314	149,015
192,071	-4,666	304,956	148,739
193,086	-4,447	304,852	148,901
194,100	-4,557	304,732	148,716
195,115	-4,705	304,335	148,356
196,129	-4,616	304,120	148,330
197,144	-4,638	304,031	148,251
198,159	-4,592	303,793	148,169
199,173	-4,618	303,503	147,987
200,188	-4,570	303,420	147,983
201,202	-4,851	303,156	147,554
202,217	-5,205	302,568	146,892
203,232	-5,350	302,458	146,678
204,246	-4,903	302,314	147,052
205,261	-4,680	302,270	147,244
206,275	-4,778	301,960	146,980
207,290	-4,640	301,892	147,075
208,304	-4,799	301,702	146,807
209,319	-4,755	301,434	146,708
210,334	-4,830	301,178	146,494
211,348	-4,847	301,025	146,390
212,363	-4,745	300,820	146,380
213,377	-4,752	300,643	146,274
214,392	-4,617	300,352	146,256
215,407	-5,002	300,407	145,880
216,421	-4,992	300,004	145,681
217,436	-4,968	299,716	145,553
218,450	-4,979	299,617	145,481
219,465	-4,857	299,537	145,552
220,480	-4,836	299,217	145,405
221,494	-4,735	299,003	145,389
222,509	-4,769	298,890	145,287
223,523	-4,767	298,646	145,158
224,538	-4,686	298,468	145,139
225,553	-4,843	298,456	144,964
226,567	-4,710	298,258	144,987
227,582	-4,663	298,076	144,933
228,596	-4,704	297,836	144,763
229,611	-4,507	297,575	144,820
230,626	-4,807	297,380	144,413
231,640	-5,010	296,952	143,988
232,655	-5,161	296,564	143,637
233,669	-5,290	296,502	143,466
234,684	-5,306	296,400	143,387
235,699	-5,090	296,190	143,488
236,713	-5,215	296,128	143,321
237,728	-5,097	295,932	143,330
238,742	-4,957	295,633	143,313
239,757	-4,848	295,518	143,352
240,772	-4,884	295,432	143,261
241,786	-4,898	295,201	143,123
242,801	-5,007	294,976	142,893
243,815	-4,959	294,846	142,865
244,830	-4,883	294,649	142,832
245,844	-5,013	294,373	142,556
246,859	-4,830	294,156	142,620
247,874	-4,974	293,963	142,371
248,888	-5,059	293,919	142,253
249,903	-4,647	293,662	142,523
250,917	-4,555	293,588	142,565
251,932	-4,555	293,569	142,543
252,947	-3,698	293,749	143,463
253,961	-3,758	293,306	143,175
254,976	-3,126	293,596	143,927
255,990	-1,097	294,145	146,185
257,005	-0,797	294,130	146,460
258,020	0,976	294,850	148,556
259,034	1,716	294,794	149,245
260,049	1,602	294,673	149,057
261,063	1,478	294,282	148,724
262,078	1,777	294,366	149,048
263,093	2,271	294,486	149,582
264,107	2,447	294,147	149,569
265,122	2,576	293,967	149,591
266,136	2,822	293,792	149,730
267,151	2,514	293,648	149,341
268,166	2,365	293,266	148,988
269,180	2,354	293,117	148,888
270,195	2,343	292,970	148,789
271,209	2,364	292,863	148,742
272,224	2,185	292,690	148,467
273,239	2,113	292,316	148,193
274,253	2,018	292,145	148,001
275,268	2,437	292,023	148,333
276,282	2,453	291,926	148,287
277,297	2,109	291,571	147,759
278,312	2,282	291,434	147,844
279,326	2,505	291,294	147,977
280,341	2,654	291,146	148,033
281,355	2,486	291,000	147,783
282,370	2,472	290,810	147,659
283,384	2,423	290,621	147,503
284,399	2,557	290,404	147,509
285,414	2,604	290,177	147,426
286,428	2,354	289,993	147,077
287,443	2,234	289,835	146,869
288,457	2,208	289,580	146,701
289,472	2,028	289,321	146,383
290,487	1,963	289,145	146,219
291,501	1,930	288,980	146,090
292,516	1,873	288,623	145,842
293,530	1,831	288,525	145,738
294,545	2,135	288,473	145,992
295,560	2,188	288,343	145,964
296,574	2,243	288,056	145,858
297,589	2,095	287,916	145,632
298,603	2,311	287,872	145,805
299,618	2,382	287,691	145,769
300,633	2,408	287,424	145,644
301,647	2,421	287,223	145,542
302,662	2,579	287,018	145,576
303,676	2,160	286,819	145,062
304,691	1,905	286,524	144,657
305,706	1,698	286,181	144,273
306,720	1,581	286,022	144,069
307,735	1,394	285,792	143,761
308,749	1,875	285,748	144,185
309,764	1,847	285,595	144,069
310,779	1,754	285,361	143,849
311,793	1,638	284,988	143,538
312,808	1,579	284,878	143,414
313,822	1,629	284,748	143,383
314,837	1,570	284,528	143,204
315,852	1,386	284,278	142,890
316,866	1,535	284,136	142,948
317,881	1,616	283,910	142,898
318,895	1,745	283,643	142,872
319,910	1,483	283,498	142,539
320,925	1,395	283,384	142,387
321,939	1,731	283,338	142,667
322,954	1,778	283,168	142,613
323,968	1,976	283,014	142,710
324,983	1,987	282,767	142,582
325,997	1,814	282,622	142,334
327,012	2,068	282,314	142,405
328,027	1,813	282,134	142,062
329,041	1,568	282,042	141,773
330,056	1,862	281,890	141,960
331,070	1,793	281,723	141,798
332,085	1,735	281,438	141,588
333,100	1,553	281,420	141,396
334,114	1,699	281,118	141,368
335,129	1,676	280,837	141,192
336,143	1,900	280,724	141,332
337,158	2,164	280,737	141,572
338,173	2,103	280,321	141,293
339,187	1,805	280,155	140,920
340,202	1,817	280,081	140,881
341,216	1,929	279,898	140,881
342,231	1,764	279,939	140,735
343,246	1,796	279,634	140,599
344,260	1,885	279,409	140,556
345,275	2,115	279,341	140,722
346,289	2,235	279,264	140,782
347,304	2,322	278,890	140,661
348,319	2,090	278,664	140,320
349,333	2,029	278,557	140,198
350,348	2,349	278,290	140,347
351,362	2,239	278,187	140,181
352,377	2,161	278,127	140,066
353,392	2,340	278,050	140,180
354,406	2,295	277,904	140,052
355,421	192,089	1327,661	1401,295
356,435	155,397	1455,593	1401,350
