DTS Sentinel unit serial number:	SN410029Multiplexer serial number:	ORYXHardware model number:	OX2-SRSoftware version number:	ORYX F/W v4,00 Oryx Data Collector v3.7.2.0data status	okinstallation	B4 Nyhavnadifferential loss correction	single-endedforward channel	channel 2reverse channel	N/Adate	2023/12/16time	05:10:13forward acquisition time	300,00reverse acquisition time	0,00gamma	499,1914k internal	0,3127k external	0,3127temperature offset calibration	1,0000default loss term (dB/km)	0,3820temperature slope calibration	1,0000multiplexer offset coefficient	1,0000multiplexer slope coefficient	1,0000fibre end	0,00T internal ref (°C)	22,07T ext. ref 1 (°C)	7,31T ext. ref 2 (°C)	7,46length (m)	temperature (°C)	Stokes	anti-Stokes-744,400	-111,036	0,144	-0,022
-743,385	-134,918	-0,178	0,016
-742,371	257,487	0,071	0,091
-741,356	-75,729	-0,221	0,058
-740,342	342,559	0,044	-0,064
-739,327	-6,612	-0,308	0,155
-738,312	-141,668	0,108	0,008
-737,298	-11,917	-0,133	0,065
-736,283	103,072	0,058	0,050
-735,269	-196,957	-0,105	0,000
-734,254	-6,189	0,073	0,037
-733,239	-71,912	-0,348	-0,096
-732,225	-49,626	0,146	-0,051
-731,210	53,145	0,136	0,097
-730,196	356,310	-0,038	0,056
-729,181	257,430	0,025	-0,032
-728,167	311,777	0,082	-0,115
-727,152	-41,349	-0,110	-0,042
-726,137	-51,600	0,034	-0,012
-725,123	-200,000	0,001	-0,183
-724,108	-7,546	-0,120	-0,060
-723,094	-200,000	-0,018	-0,130
-722,079	-200,000	-0,012	-0,155
-721,064	-19,991	-0,129	-0,059
-720,050	180,377	-0,061	0,067
-719,035	30,876	-0,119	-0,076
-718,021	800,000	0,037	-0,115
-717,006	800,000	-0,018	-0,052
-715,991	89,460	-0,057	-0,047
-714,977	101,944	0,058	0,050
-713,962	800,000	-0,062	-0,155
-712,948	-200,000	0,009	0,140
-711,933	-116,973	0,056	-0,008
-710,918	-103,262	0,130	-0,023
-709,904	432,473	0,029	-0,046
-708,889	-37,834	-0,149	-0,059
-707,875	9,005	0,020	0,011
-706,860	-7,364	-0,054	-0,027
-705,845	-200,000	0,000	-0,056
-704,831	-200,000	0,009	-0,053
-703,816	109,468	-0,093	-0,083
-702,802	-151,471	-0,029	0,002
-701,787	-1,307	0,022	-0,011
-700,772	325,767	0,016	0,023
-699,758	-200,000	0,010	0,044
-698,743	-9,644	-0,109	0,054
-697,729	-200,000	-0,015	-0,050
-696,714	-200,000	-0,006	-0,093
-695,699	-58,942	0,016	0,005
-694,685	-163,333	-0,085	0,003
-693,670	123,856	-0,006	0,005
-692,656	600,918	-0,066	0,122
-691,641	-200,000	-0,005	-0,027
-690,627	-38,809	-0,041	0,016
-689,612	800,000	-0,058	0,138
-688,597	800,000	-0,010	-0,032
-687,583	112,817	0,135	-0,122
-686,568	49,538	0,089	0,062
-685,554	310,373	-0,052	-0,073
-684,539	91,243	0,096	-0,080
-683,524	117,948	0,045	0,041
-682,510	-200,000	-0,017	-0,074
-681,495	-200,000	-0,038	-0,165
-680,481	-200,000	-0,006	-0,171
-679,466	504,337	0,018	0,032
-678,451	-69,562	-0,108	0,031
-677,437	159,765	0,027	0,028
-676,422	800,000	-0,024	-0,057
-675,408	257,293	0,034	0,044
-674,393	161,648	0,012	-0,013
-673,378	627,287	0,038	-0,071
-672,364	-200,000	-0,004	0,065
-671,349	438,531	0,080	-0,130
-670,335	-74,077	-0,107	-0,029
-669,320	118,119	0,079	0,073
-668,305	-85,048	-0,128	-0,029
-667,291	-16,088	0,073	0,034
-666,276	-163,242	0,150	-0,005
-665,262	93,267	-0,043	-0,036
-664,247	-76,053	-0,098	-0,026
-663,232	-200,000	-0,000	0,129
-662,218	55,709	0,071	0,051
-661,203	5,004	-0,148	0,080
-660,189	755,172	0,045	0,091
-659,174	-200,000	-0,021	-0,145
-658,159	177,477	0,099	-0,108
-657,145	800,000	-0,012	-0,032
-656,130	293,300	0,066	0,089
-655,116	800,000	0,041	0,132
-654,101	800,000	0,061	-0,162
-653,086	-43,494	-0,133	-0,050
-652,072	-166,910	-0,118	0,004
-651,057	800,000	0,016	-0,053
-650,043	247,541	-0,068	-0,085
-649,028	800,000	-0,038	0,109
-648,014	92,390	-0,037	-0,031
-646,999	304,543	0,074	0,103
-645,984	800,000	0,014	0,036
-644,970	-200,000	-0,008	0,041
-643,955	204,161	-0,064	-0,074
-642,941	192,801	-0,117	-0,131
-641,926	155,122	0,035	0,036
-640,911	-200,000	0,010	-0,151
-639,897	486,933	-0,035	-0,059
-638,882	196,716	0,062	0,070
-637,868	800,000	-0,036	0,076
-636,853	297,890	-0,066	-0,090
-635,838	-41,465	-0,078	-0,030
-634,824	-200,000	-0,006	0,019
-633,809	57,129	0,030	-0,021
-632,795	1,063	0,095	0,050
-631,780	107,525	0,075	0,066
-630,765	-200,000	0,008	-0,036
-629,751	68,591	-0,099	0,076
-628,736	715,583	-0,044	-0,087
-627,722	-65,550	0,048	-0,014
-626,707	596,682	0,054	0,099
-625,692	388,477	-0,051	-0,078
-624,678	40,069	0,048	0,032
-623,663	634,551	-0,045	0,085
-622,649	-130,102	-0,089	-0,009
-621,634	176,965	-0,055	-0,059
-620,619	-7,320	0,081	-0,040
-619,605	-146,935	-0,168	-0,011
-618,590	-118,015	-0,044	-0,006
-617,576	-63,251	0,063	-0,019
-616,561	-51,840	0,072	0,025
-615,546	-200,000	-0,006	0,079
-614,532	-200,000	-0,004	0,092
-613,517	315,735	0,014	0,020
-612,503	800,000	0,021	-0,046
-611,488	-2,927	0,011	0,006
-610,474	-124,920	0,152	0,017
-609,459	303,947	-0,090	0,123
-608,444	356,396	0,068	-0,100
-607,430	579,216	-0,083	-0,151
-606,415	17,628	0,089	-0,052
-605,401	-93,180	0,026	0,005
-604,386	422,335	0,059	-0,095
-603,371	-104,563	-0,053	-0,009
-602,357	-200,000	0,012	0,137
-601,342	800,000	-0,032	-0,068
-600,328	-200,000	-0,027	-0,142
-599,313	-9,023	-0,063	-0,031
-598,298	-101,704	0,050	0,009
-597,284	507,136	0,024	0,041
-596,269	-200,000	-0,002	0,021
-595,255	666,111	-0,009	-0,018
-594,240	-200,000	-0,004	-0,066
-593,225	-6,692	-0,055	0,028
-592,211	183,728	-0,089	-0,098
-591,196	372,190	-0,018	-0,027
-590,182	8,145	0,034	0,019
-589,167	241,807	-0,078	-0,097
-588,152	-200,000	-0,001	0,059
-587,138	-82,154	-0,084	0,020
-586,123	330,621	-0,034	0,048
-585,109	-128,604	-0,114	-0,012
-584,094	307,356	-0,021	0,029
-583,079	800,000	-0,034	0,104
-582,065	-98,901	-0,036	0,007
-581,050	-200,000	-0,008	0,044
-580,036	-19,261	-0,093	0,042
-579,021	-200,000	-0,006	0,061
-578,006	-200,000	0,013	-0,054
-576,992	-38,144	-0,074	-0,029
-575,977	231,530	0,062	0,076
-574,963	-77,080	-0,041	0,010
-573,948	35,201	-0,063	0,041
-572,934	-200,000	0,013	0,094
-571,919	-142,719	-0,072	0,005
-570,904	-200,000	0,039	-0,149
-569,890	-200,000	-0,034	-0,125
-568,875	147,479	-0,078	0,077
-567,861	-200,000	-0,005	-0,082
-566,846	3,949	0,021	-0,011
-565,831	74,614	0,072	-0,056
-564,817	-141,345	0,081	-0,006
-563,802	134,676	-0,033	0,032
-562,788	123,998	-0,046	-0,043
-561,773	-200,000	-0,003	-0,114
-560,758	572,448	0,022	-0,039
-559,744	-59,097	-0,066	0,021
-558,729	701,397	-0,026	-0,051
-557,715	391,520	-0,029	-0,044
-556,700	76,518	0,058	-0,045
-555,685	-71,995	0,078	0,021
-554,671	-3,005	-0,121	-0,062
-553,656	82,325	-0,082	-0,066
-552,642	800,000	-0,016	-0,047
-551,627	646,038	0,013	0,025
-550,612	210,377	-0,069	-0,080
-549,598	-152,940	-0,169	0,009
-548,583	10,899	-0,093	0,052
-547,569	263,459	0,041	0,053
-546,554	583,001	-0,047	0,086
-545,539	800,000	-0,035	0,079
-544,525	-200,000	-0,019	0,207
-543,510	-200,000	-0,031	0,141
-542,496	-200,000	0,004	0,080
-541,481	8,731	-0,018	0,010
-540,466	-80,702	0,127	0,031
-539,452	-47,735	0,042	-0,015
-538,437	-200,000	0,000	-0,131
-537,423	70,633	0,095	0,073
-536,408	-200,000	-0,026	0,084
-535,393	365,830	-0,066	-0,098
-534,379	35,666	0,151	-0,098
-533,364	-49,855	-0,046	0,016
-532,350	143,366	-0,069	-0,068
-531,335	800,000	0,070	0,157
-530,321	460,862	0,039	0,065
-529,306	358,797	0,059	-0,088
-528,291	231,701	-0,061	-0,073
-527,277	800,000	-0,010	-0,026
-526,262	302,818	0,048	-0,066
-525,248	800,000	0,078	0,162
-524,233	114,539	-0,112	-0,101
-523,218	234,183	-0,058	0,071
-522,204	-94,987	-0,092	0,018
-521,189	29,916	-0,116	-0,073
-520,175	-91,065	-0,104	0,022
-519,160	-200,000	-0,016	-0,114
-518,145	-131,987	0,018	-0,002
-517,131	30,025	0,126	-0,079
-516,116	49,523	0,156	-0,108
-515,102	-111,709	-0,121	-0,018
-514,087	800,000	0,014	-0,031
-513,072	800,000	-0,048	-0,124
-512,058	-82,910	-0,033	0,008
-511,043	-31,100	-0,112	-0,046
-510,029	32,379	0,199	0,126
-509,014	253,070	-0,089	0,113
-507,999	-185,821	-0,126	0,001
-506,985	-200,000	-0,007	0,045
-505,970	339,109	0,022	-0,031
-504,956	214,414	0,077	-0,090
-503,941	-200,000	-0,017	0,077
-502,926	235,454	0,044	0,054
-501,912	331,145	0,136	0,195
-500,897	-200,000	-0,003	0,071
-499,883	28,941	-0,088	-0,055
-498,868	168,187	0,024	-0,026
-497,853	173,986	-0,112	-0,119
-496,839	-73,379	0,095	0,025
-495,824	-200,000	0,033	-0,113
-494,810	-46,548	0,102	0,037
-493,795	248,387	0,037	0,046
-492,781	-200,000	-0,019	0,080
-491,766	-28,173	-0,066	0,028
-490,751	-200,000	0,007	-0,055
-489,737	0,111	-0,102	-0,053
-488,722	-200,000	-0,004	-0,063
-487,708	-111,859	0,101	-0,015
-486,693	-200,000	0,008	-0,039
-485,678	-200,000	0,025	0,151
-484,664	800,000	0,050	-0,161
-483,649	97,143	0,013	-0,011
-482,635	119,286	0,083	0,075
-481,620	-80,354	-0,058	-0,014
-480,605	379,536	-0,025	0,038
-479,591	-15,502	-0,140	0,065
-478,576	376,520	-0,044	-0,067
-477,562	-200,000	-0,003	0,042
-476,547	-158,813	-0,049	-0,002
-475,532	159,049	-0,041	0,042
-474,518	-69,484	0,115	-0,032
-473,503	-200,000	0,028	0,149
-472,489	800,000	0,055	0,129
-471,474	-73,801	-0,039	0,010
-470,459	-200,000	0,033	-0,179
-469,445	800,000	0,054	-0,118
-468,430	-150,837	0,026	0,001
-467,416	242,540	-0,052	-0,065
-466,401	800,000	-0,026	-0,072
-465,386	9,155	0,022	0,012
-464,372	179,435	-0,047	-0,051
-463,357	-173,322	0,150	-0,003
-462,343	-200,000	-0,021	0,086
-461,328	-52,185	-0,125	0,042
-460,313	800,000	-0,011	0,023
-459,299	-7,793	0,047	-0,023
-458,284	55,943	0,096	-0,068
-457,270	32,579	0,062	0,039
-456,255	387,564	0,051	-0,078
-455,241	-200,000	0,004	0,063
-454,226	728,219	-0,034	-0,068
-453,211	-200,000	0,003	-0,099
-452,197	27,118	0,034	-0,021
-451,182	-200,000	0,007	-0,068
-450,168	19,250	-0,073	0,043
-449,153	-200,000	-0,003	0,068
-448,138	-200,000	-0,019	0,064
-447,124	-200,000	0,018	-0,098
-446,109	-74,188	-0,017	-0,005
-445,095	-200,000	0,032	-0,106
-444,080	-200,000	0,003	0,036
-443,065	-58,137	-0,064	-0,020
-442,051	-74,506	0,055	0,014
-441,036	61,827	0,101	-0,074
-440,022	-150,483	0,193	0,011
-439,007	-200,000	-0,030	-0,102
-437,992	-200,000	-0,000	0,170
-436,978	118,191	0,107	0,097
-435,963	-200,000	-0,001	0,038
-434,949	-200,000	0,011	-0,149
-433,934	-200,000	0,003	0,132
-432,919	263,661	-0,053	-0,069
-431,905	143,730	-0,019	0,019
-430,890	65,631	0,065	0,048
-429,876	61,012	-0,073	-0,053
-428,861	37,325	0,154	-0,100
-427,846	800,000	-0,044	-0,108
-426,832	69,139	-0,040	0,031
-425,817	-200,000	0,002	-0,060
-424,803	34,662	-0,099	0,063
-423,788	58,032	0,094	-0,068
-422,773	-200,000	0,015	0,107
-421,759	-200,000	0,016	-0,091
-420,744	111,362	0,039	0,035
-419,730	140,536	-0,118	-0,115
-418,715	764,359	-0,075	-0,151
-417,701	-200,000	0,025	0,092
-416,686	-80,046	-0,045	0,011
-415,671	45,759	0,075	0,051
-414,657	-200,000	0,014	0,077
-413,642	35,945	0,062	0,040
-412,628	-200,000	0,004	0,129
-411,613	163,441	-0,067	-0,070
-410,598	220,796	-0,033	0,039
-409,584	10,817	0,038	-0,021
-408,569	73,414	0,080	0,062
-407,555	341,539	-0,084	-0,121
-406,540	800,000	-0,052	0,121
-405,525	-200,000	0,008	-0,057
-404,511	800,000	-0,044	-0,113
-403,496	-104,872	-0,055	0,009
-402,482	-200,000	-0,027	-0,139
-401,467	474,332	-0,026	0,043
-400,452	-200,000	-0,011	0,167
-399,438	-108,490	0,068	0,011
-398,423	-200,000	-0,015	-0,173
-397,409	-85,770	0,030	-0,007
-396,394	-132,426	0,154	0,014
-395,379	-184,067	-0,164	0,002
-394,365	-76,409	0,076	-0,019
-393,350	800,000	0,038	0,107
-392,336	305,976	0,028	-0,038
-391,321	-161,857	-0,115	-0,004
-390,306	-36,749	0,058	-0,023
-389,292	800,000	-0,034	-0,075
-388,277	182,926	-0,014	-0,016
-387,263	85,861	-0,099	0,080
-386,248	-12,096	0,092	0,044
-385,233	23,018	-0,107	-0,064
-384,219	335,853	0,088	-0,126
-383,204	-60,632	-0,058	0,018
-382,190	-127,801	0,114	0,012
-381,175	372,245	-0,033	-0,049
-380,160	699,294	-0,026	-0,051
-379,146	800,000	0,016	0,034
-378,131	-178,394	0,055	0,001
-377,117	-71,901	0,101	-0,027
-376,102	90,592	0,013	-0,011
-375,088	720,361	0,041	-0,080
-374,073	230,885	0,089	-0,108
-373,058	-135,689	-0,032	0,003
-372,044	-14,345	-0,140	0,066
-371,029	751,997	0,056	0,111
-370,015	-200,000	0,006	-0,046
-369,000	662,682	0,037	-0,070
-367,985	116,715	-0,109	0,098
-366,971	-200,000	0,005	-0,060
-365,956	800,000	0,071	-0,174
-364,942	-200,000	-0,004	-0,093
-363,927	-114,016	-0,023	0,003
-362,912	28,776	-0,068	0,042
-361,898	162,012	0,060	0,061
-360,883	-86,707	-0,067	-0,015
-359,869	-39,286	-0,101	-0,039
-358,854	-2,412	0,076	-0,039
-357,839	2,985	-0,052	-0,027
-356,825	-137,634	0,103	-0,008
-355,810	-22,292	0,035	-0,015
-354,796	63,618	0,020	0,015
-353,781	422,586	-0,025	-0,040
-352,766	43,610	-0,059	-0,039
-351,752	-200,000	0,022	0,079
-350,737	-115,370	0,142	0,019
-349,723	-13,698	-0,058	-0,027
-348,708	629,531	-0,065	0,121
-347,693	-1,717	-0,051	-0,026
-346,679	-32,666	-0,066	-0,027
-345,664	800,000	0,044	-0,131
-344,650	6,562	0,134	-0,073
-343,635	780,479	0,035	0,070
-342,620	145,788	-0,072	0,071
-341,606	800,000	0,015	0,044
-340,591	800,000	-0,048	0,131
-339,577	800,000	0,035	0,111
-338,562	-36,789	0,021	-0,008
-337,548	181,047	0,040	-0,043
-336,533	-200,000	-0,016	-0,068
-335,518	800,000	0,023	-0,068
-334,504	-112,436	-0,037	-0,005
-333,489	357,567	-0,071	-0,103
-332,475	278,962	-0,019	-0,025
-331,460	-15,613	-0,121	-0,056
-330,445	36,781	-0,075	0,048
-329,431	-200,000	-0,014	0,063
-328,416	-19,188	0,084	0,038
-327,402	-200,000	0,016	0,091
-326,387	-160,144	-0,014	0,001
-325,372	-200,000	0,027	-0,223
-324,358	-200,000	-0,018	0,064
-323,343	383,880	0,040	-0,061
-322,329	-200,000	-0,012	0,085
-321,314	-200,000	-0,008	0,035
-320,299	800,000	-0,044	0,095
-319,285	239,514	0,075	0,091
-318,270	-6,554	-0,061	0,030
-317,256	-200,000	-0,011	-0,063
-316,241	317,181	0,031	-0,043
-315,226	75,387	0,079	0,061
-314,212	100,331	0,057	0,048
-313,197	-200,000	-0,008	0,063
-312,183	-200,000	0,002	0,089
-311,168	-200,000	0,007	-0,135
-310,153	800,000	-0,040	-0,088
-309,139	-146,363	0,044	-0,003
-308,124	800,000	-0,012	-0,026
-307,110	398,048	0,021	-0,033
-306,095	654,103	-0,024	0,045
-305,080	455,163	0,014	0,022
-304,066	666,215	-0,016	-0,031
-303,051	147,856	-0,073	-0,072
-302,037	493,942	-0,029	-0,049
-301,022	235,354	-0,046	-0,056
-300,008	-90,455	0,079	-0,017
-298,993	-3,472	0,089	0,045
-297,978	-22,966	-0,131	-0,058
-296,964	800,000	-0,038	-0,079
-295,949	-200,000	-0,018	0,083
-294,935	-128,592	-0,061	-0,006
-293,920	64,753	0,057	0,042
-292,905	-26,986	-0,064	0,027
-291,891	-200,000	0,020	0,121
-290,876	249,322	0,110	0,137
-289,862	800,000	0,040	0,108
-288,847	-200,000	-0,026	-0,116
-287,832	800,000	-0,048	-0,119
-286,818	284,511	0,015	-0,020
-285,803	625,335	-0,078	-0,144
-284,789	-67,665	0,094	0,027
-283,774	-195,473	0,019	0,000
-282,759	573,898	-0,035	-0,063
-281,745	23,389	-0,062	-0,037
-280,730	252,924	0,069	-0,087
-279,716	-29,910	-0,060	0,025
-278,701	800,000	0,062	0,126
-277,686	-8,365	0,114	0,056
-276,672	49,166	0,095	0,065
-275,657	-200,000	0,008	0,064
-274,643	181,685	0,021	0,022
-273,628	90,422	-0,129	-0,106
-272,613	49,737	-0,050	0,035
-271,599	-200,000	0,017	0,087
-270,584	8,819	-0,052	0,029
-269,570	-73,434	-0,102	0,027
-268,555	94,702	0,052	0,044
-267,540	1,791	0,091	-0,048
-266,526	32,131	0,054	-0,034
-265,511	496,520	-0,024	0,041
-264,497	-18,720	0,182	0,083
-263,482	800,000	0,003	-0,008
-262,467	-200,000	0,005	0,069
-261,453	-151,111	0,084	-0,005
-260,438	137,952	0,067	-0,065
-259,424	18,205	-0,046	0,026
-258,409	-200,000	0,000	0,012
-257,395	800,000	-0,025	0,055
-256,380	107,106	0,020	0,017
-255,365	81,091	0,046	0,036
-254,351	800,000	0,015	-0,036
-253,336	-108,325	0,047	0,007
-252,322	-112,857	-0,074	0,011
-251,307	-200,000	0,015	-0,113
-250,292	-86,712	-0,125	0,028
-249,278	-74,106	-0,047	0,012
-248,263	-21,628	0,091	0,040
-247,249	800,000	-0,022	-0,055
-246,234	441,132	-0,042	-0,067
-245,219	-200,000	-0,007	-0,038
-244,205	-200,000	-0,011	0,071
-243,190	57,112	0,037	-0,026
-242,176	-200,000	0,017	-0,112
-241,161	398,290	0,058	0,089
-240,146	676,593	-0,056	0,106
-239,132	-200,000	0,026	-0,085
-238,117	767,310	0,045	-0,090
-237,103	800,000	0,032	-0,074
-236,088	-200,000	-0,010	0,035
-235,073	105,614	-0,038	0,033
-234,059	-200,000	-0,012	0,114
-233,044	473,768	-0,068	0,112
-232,030	322,726	-0,037	0,052
-231,015	79,198	-0,130	0,102
-230,000	659,725	0,115	-0,216
-228,986	800,000	-0,025	-0,051
-227,971	-56,829	-0,046	0,015
-226,957	-200,000	-0,003	0,095
-225,942	-170,078	0,083	0,002
-224,927	-200,000	0,016	0,070
-223,913	-31,206	-0,038	-0,015
-222,898	130,920	0,106	0,099
-221,884	-200,000	-0,025	0,101
-220,869	144,139	0,059	0,057
-219,855	231,992	0,112	0,134
-218,840	-200,000	0,008	0,030
-217,825	-84,938	-0,030	-0,007
-216,811	256,943	0,049	-0,062
-215,796	800,000	-0,032	0,075
-214,782	-200,000	-0,024	0,178
-213,767	800,000	0,052	0,143
-212,752	32,331	0,107	0,067
-211,738	-200,000	-0,008	-0,030
-210,723	758,091	0,013	-0,027
-209,709	-25,969	0,062	-0,027
-208,694	186,232	-0,164	-0,178
-207,679	-124,070	-0,036	-0,004
-206,665	88,336	-0,022	-0,018
-205,650	50,845	0,129	0,089
-204,636	-200,000	-0,007	0,157
-203,621	-91,498	0,105	0,022
-202,606	-113,131	-0,094	-0,013
-201,592	-200,000	-0,024	-0,135
-200,577	-4,099	0,095	0,048
-199,563	173,789	0,077	0,081
-198,548	516,835	-0,056	0,096
-197,533	301,132	0,007	0,010
-196,519	350,159	0,067	0,097
-195,504	-88,595	-0,068	-0,015
-194,490	-200,000	-0,030	-0,139
-193,475	-163,023	-0,064	0,002
-192,460	107,273	0,081	0,070
-191,446	800,000	0,019	-0,038
-190,431	-200,000	0,011	-0,051
-189,417	-160,129	0,060	0,002
-188,402	-58,201	-0,045	0,014
-187,387	-110,322	0,057	0,008
-186,373	-200,000	-0,027	-0,097
-185,358	-200,000	0,012	0,059
-184,344	-63,108	0,146	0,044
-183,329	-200,000	0,033	0,196
-182,315	549,927	0,034	0,059
-181,300	-78,991	-0,048	-0,012
-180,285	800,000	0,055	-0,144
-179,271	800,000	-0,016	0,032
-178,256	800,000	0,006	0,017
-177,242	268,724	-0,037	0,047
-176,227	-200,000	0,001	0,176
-175,212	800,000	0,038	-0,107
-174,198	-200,000	-0,005	0,029
-173,183	-4,515	-0,074	-0,037
-172,169	-200,000	0,000	-0,135
-171,154	387,278	0,036	-0,055
-170,139	-200,000	0,016	-0,092
-169,125	-92,833	-0,039	-0,008
-168,110	20,280	0,011	-0,006
-167,096	-147,044	0,054	0,003
-166,081	181,396	0,058	0,062
-165,066	26,478	0,123	-0,075
-164,052	800,000	0,042	-0,119
-163,037	200,213	-0,033	0,037
-162,023	-40,251	-0,054	0,021
-161,008	297,214	-0,094	0,126
-159,993	800,000	-0,046	-0,115
-158,979	-192,253	-0,104	-0,001
-157,964	615,193	0,035	-0,065
-156,950	-200,000	0,013	0,066
-155,935	-105,115	0,017	0,003
-154,920	800,000	0,061	0,170
-153,906	716,811	-0,023	0,045
-152,891	286,628	0,013	-0,017
-151,877	211,372	0,048	-0,055
-150,862	42,692	-0,070	0,046
-149,847	-82,526	-0,085	-0,020
-148,833	800,000	0,049	0,131
-147,818	275,937	0,061	0,078
-146,804	244,826	0,024	0,029
-145,789	716,860	0,069	0,134
-144,775	103,005	-0,037	0,031
-143,760	-23,196	-0,072	-0,031
-142,745	-25,193	0,079	0,034
-141,731	402,798	0,019	0,029
-140,716	763,709	0,008	-0,017
-139,702	702,594	-0,052	-0,100
-138,687	-157,880	-0,086	0,004
-137,672	3,207	0,079	0,041
-136,658	-200,000	-0,010	-0,046
-135,643	159,250	-0,106	0,107
-134,629	800,000	-0,018	0,057
-133,614	-78,626	0,054	-0,013
-132,599	-48,347	0,126	0,044
-131,585	249,900	0,145	0,180
-130,570	-96,640	0,132	-0,025
-129,556	-31,425	-0,004	-0,002
-128,541	-135,614	-0,077	-0,007
-127,526	346,813	0,042	-0,061
-126,512	-200,000	-0,002	-0,045
-125,497	131,625	0,120	0,112
-124,483	76,225	0,059	-0,046
-123,468	-200,000	0,002	-0,054
-122,453	-24,110	-0,100	-0,043
-121,439	68,912	0,058	-0,044
-120,424	156,981	0,119	-0,120
-119,410	-83,365	0,099	-0,023
-118,395	87,415	-0,123	0,099
-117,380	-88,672	0,067	0,014
-116,366	-21,657	0,033	0,015
-115,351	-112,841	-0,078	0,011
-114,337	800,000	0,030	0,091
-113,322	800,000	-0,011	0,027
-112,307	-167,580	-0,059	-0,002
-111,293	636,391	0,064	0,119
-110,278	-200,000	-0,010	0,049
-109,264	49,514	0,055	0,038
-108,249	45,084	-0,092	0,061
-107,234	-200,000	0,031	-0,131
-106,220	520,426	0,061	-0,104
-105,205	416,727	-0,015	0,024
-104,191	-200,000	0,012	0,090
-103,176	208,030	0,083	0,094
-102,162	-200,000	-0,019	0,180
-101,147	-49,788	-0,094	-0,032
-100,132	446,114	-0,037	-0,059
-99,118	68,744	-0,011	0,008
-98,103	400,894	-0,036	0,054
-97,089	-200,000	-0,027	0,143
-96,074	-105,103	0,140	-0,023
-95,059	0,764	0,110	0,057
-94,045	-200,000	0,017	0,106
-93,030	-200,000	-0,086	0,000
-92,016	-200,000	0,019	-0,191
-91,001	800,000	-0,030	0,070
-89,986	800,000	0,013	0,036
-88,972	-18,513	0,058	-0,026
-87,957	-200,000	-0,026	0,124
-86,943	159,219	0,051	0,052
-85,928	-163,301	-0,113	0,004
-84,913	-16,423	0,109	0,050
-83,899	431,848	-0,042	-0,066
-82,884	-93,611	-0,065	0,013
-81,870	203,381	0,033	0,037
-80,855	-200,000	-0,024	0,114
-79,840	800,000	-0,017	-0,041
-78,826	-200,000	-0,006	-0,038
-77,811	230,080	0,018	0,022
-76,797	58,940	0,115	-0,082
-75,782	420,330	-0,022	-0,034
-74,767	-200,000	0,006	0,041
-73,753	128,952	0,060	0,055
-72,738	14,946	-0,048	0,027
-71,724	237,631	0,071	-0,085
-70,709	800,000	-0,030	-0,094
-69,694	800,000	0,031	-0,085
-68,680	-8,141	0,031	-0,015
-67,665	-200,000	-0,011	-0,070
-66,651	132,632	-0,053	0,049
-65,636	-200,000	0,003	-0,027
-64,622	93,231	0,014	-0,012
-63,607	0,711	-0,056	0,029
-62,592	800,000	0,065	-0,165
-61,578	800,000	0,039	-0,099
-60,563	0,427	0,092	-0,047
-59,549	431,022	0,064	0,101
-58,534	-112,379	-1,228	-0,176
-57,519	467,284	-0,892	-1,455
-56,505	-200,000	-0,775	-4,227
-55,490	-131,751	0,664	-0,062
-54,476	800,000	4,856	11,526
-53,461	-200,000	13,818	251,554
-52,446	-200,000	691,276	2243,327
-51,432	586,062	1620,900	2900,570
-50,417	118,425	1631,256	1458,480
-49,403	73,842	1285,859	975,928
-48,388	37,910	1022,101	656,945
-47,373	24,065	980,434	584,752
-46,359	23,357	969,878	576,117
-45,344	22,253	965,614	569,965
-44,330	22,238	964,026	568,954
-43,315	22,136	962,594	567,755
-42,300	22,100	961,586	567,020
-41,286	22,127	960,661	566,542
-40,271	22,124	959,508	565,829
-39,257	22,090	958,753	565,252
-38,242	22,076	957,694	564,561
-37,227	22,046	957,094	564,088
-36,213	22,054	956,152	563,535
-35,198	22,032	955,239	562,903
-34,184	22,122	954,588	562,788
-33,169	22,098	953,626	562,119
-32,154	22,097	953,005	561,730
-31,140	22,117	951,881	561,109
-30,125	22,120	951,203	560,697
-29,111	22,090	950,242	560,010
-28,096	22,126	949,577	559,712
-27,082	22,160	948,799	559,340
-26,067	22,132	948,048	558,787
-25,052	22,090	947,473	558,291
-24,038	22,082	946,785	557,839
-23,023	22,099	946,068	557,448
-22,009	22,113	945,422	557,089
-20,994	22,160	944,814	556,860
-19,979	22,129	944,268	556,416
-18,965	22,142	943,629	556,057
-17,950	22,100	943,015	555,540
-16,936	22,093	942,229	555,035
-15,921	22,069	941,577	554,552
-14,906	22,009	940,914	553,950
-13,892	21,977	940,112	553,354
-12,877	21,991	939,649	553,105
-11,863	21,982	939,042	552,694
-10,848	22,043	938,374	552,472
-9,833	22,057	938,096	552,331
-8,819	22,003	937,615	551,858
-7,804	21,993	936,688	551,259
-6,790	21,966	936,134	550,823
-5,775	22,032	935,405	550,582
-4,760	22,050	934,901	550,319
-3,746	22,022	934,252	549,828
-2,731	21,848	933,628	548,892
-1,717	21,853	932,826	548,412
-0,702	21,846	932,338	548,082
0,313	21,660	931,685	547,942
1,327	24,141	929,173	554,190
2,342	31,870	807,431	502,469
3,356	27,085	508,105	308,028
4,371	3,089	372,881	195,633
5,386	0,123	355,817	183,038
6,400	-1,498	349,606	177,877
7,415	-2,466	346,812	175,284
8,429	-2,569	345,363	174,414
9,444	-2,611	344,463	173,894
10,459	-2,590	343,815	173,576
11,473	-2,599	343,110	173,194
12,488	-2,176	342,742	173,493
13,502	-2,138	342,155	173,225
14,517	-2,280	341,355	172,637
15,531	-2,480	340,713	172,063
16,546	-2,465	340,464	171,939
17,561	-2,587	340,118	171,607
18,575	-2,477	339,711	171,514
19,590	-2,737	339,322	170,999
20,604	-2,490	338,983	171,101
21,619	-2,542	338,556	170,810
22,634	-2,594	338,359	170,635
23,648	-2,510	337,919	170,495
24,663	-2,471	337,567	170,347
25,677	-2,556	337,368	170,133
26,692	-2,717	337,110	169,802
27,707	-2,644	336,578	169,603
28,721	-2,591	336,243	169,480
29,736	-2,738	336,174	169,260
30,750	-2,626	335,828	169,201
31,765	-2,638	335,515	169,014
32,780	-2,649	335,265	168,859
33,794	-2,617	334,825	168,660
34,809	-2,525	334,593	168,635
35,823	-2,578	334,248	168,385
36,838	-2,586	333,921	168,196
37,853	-2,577	333,668	168,064
38,867	-2,577	333,332	167,879
39,882	-2,572	333,150	167,778
40,896	-2,562	332,926	167,661
41,911	-2,736	332,612	167,290
42,926	-2,706	332,283	167,144
43,940	-2,605	331,976	167,089
44,955	-2,872	331,845	166,705
45,969	-2,745	331,446	166,633
46,984	-2,906	331,239	166,332
47,999	-2,915	330,775	166,074
49,013	-3,222	330,597	165,621
50,028	-3,172	330,309	165,519
51,042	-3,200	330,057	165,347
52,057	-3,194	329,670	165,145
53,071	-3,340	329,518	164,889
54,086	-3,146	329,217	164,942
55,101	-3,067	329,060	164,938
56,115	-2,937	328,848	164,963
57,130	-2,632	328,816	165,277
58,144	-2,609	328,511	165,135
59,159	-2,464	328,280	165,167
60,174	-2,446	328,003	165,033
61,188	-2,470	327,755	164,866
62,203	-2,294	327,376	164,859
63,217	-2,386	327,191	164,648
64,232	-2,469	327,028	164,458
65,247	-2,417	326,729	164,351
66,261	-2,505	326,381	164,063
67,276	-2,683	326,056	163,686
68,290	-2,824	325,844	163,408
69,305	-2,734	325,568	163,356
70,320	-2,932	325,262	162,966
71,334	-2,712	325,087	163,109
72,349	-2,480	324,861	163,240
73,363	-2,458	324,804	163,220
74,378	-2,452	324,450	163,035
75,393	-2,662	324,329	162,727
76,407	-2,653	323,988	162,551
77,422	-2,623	323,752	162,452
78,436	-2,482	323,573	162,503
79,451	-2,379	323,318	162,474
80,466	-2,509	322,798	162,054
81,480	-2,552	322,402	161,795
82,495	-2,845	322,278	161,395
83,509	-2,780	322,155	161,391
84,524	-2,659	321,699	161,280
85,539	-2,859	321,459	160,926
86,553	-2,907	321,257	160,757
87,568	-2,744	320,976	160,782
88,582	-2,823	320,906	160,646
89,597	-2,867	320,689	160,475
90,611	-2,734	320,437	160,479
91,626	-2,495	320,256	160,637
92,641	-2,657	320,073	160,354
93,655	-2,675	319,615	160,090
94,670	-2,713	319,468	159,960
95,684	-2,744	319,228	159,793
96,699	-2,755	319,095	159,700
97,714	-2,848	318,860	159,466
98,728	-2,777	318,667	159,432
99,743	-2,978	318,265	158,999
100,757	-2,898	318,044	158,960
101,772	-2,873	317,805	158,855
102,787	-2,739	317,676	158,921
103,801	-2,686	317,379	158,816
104,816	-2,715	317,290	158,726
105,830	-2,650	317,075	158,675
106,845	-2,568	316,851	158,636
107,860	-2,564	316,619	158,511
108,874	-2,762	316,253	158,100
109,889	-2,803	316,210	158,020
110,903	-2,816	315,959	157,867
111,918	-2,694	315,731	157,870
112,933	-2,665	315,267	157,656
113,947	-2,578	315,008	157,605
114,962	-2,582	314,966	157,566
115,976	-2,644	314,857	157,430
116,991	-2,645	314,554	157,263
118,006	-2,653	314,236	157,083
119,020	-2,863	314,218	156,835
120,035	-2,528	313,955	157,048
121,049	-2,598	313,779	156,871
122,064	-2,661	313,638	156,719
123,079	-2,654	313,300	156,544
124,093	-2,660	312,997	156,372
125,108	-2,968	312,828	155,945
126,122	-3,011	312,399	155,672
127,137	-3,140	312,214	155,428
128,151	-2,998	312,040	155,479
129,166	-2,744	311,742	155,586
130,181	-2,824	311,570	155,402
131,195	-2,988	311,326	155,092
132,210	-2,870	311,175	155,128
133,224	-2,684	311,010	155,229
134,239	-2,637	310,700	155,111
135,254	-2,570	310,564	155,099
136,268	-2,447	310,205	155,036
137,283	-2,870	309,866	154,407
138,297	-3,042	309,736	154,146
139,312	-3,000	309,584	154,102
140,327	-2,678	309,396	154,333
141,341	-2,461	309,289	154,494
142,356	-2,400	309,047	154,423
143,370	-2,362	308,922	154,388
144,385	-2,075	308,768	154,598
145,400	-2,274	308,443	154,213
146,414	-2,356	308,354	154,068
147,429	-2,340	308,034	153,912
148,443	-2,337	307,763	153,766
149,458	-2,361	307,639	153,665
150,473	-2,187	307,438	153,733
151,487	-2,324	307,151	153,433
152,502	-2,273	306,827	153,310
153,516	-2,378	306,773	153,161
154,531	-2,130	306,525	153,281
155,546	-2,241	306,288	153,034
156,560	-2,386	305,993	152,722
157,575	-2,342	305,632	152,574
158,589	-2,442	305,637	152,459
159,604	-2,298	305,391	152,472
160,619	-2,361	305,159	152,276
161,633	-2,533	305,136	152,074
162,648	-2,416	304,956	152,092
163,662	-2,315	304,721	152,066
164,677	-2,418	304,435	151,803
165,692	-2,366	304,377	151,814
166,706	-2,270	304,210	151,816
167,721	-2,471	303,946	151,464
168,735	-2,461	303,719	151,347
169,750	-2,206	303,597	151,536
170,764	-2,188	303,461	151,472
171,779	-2,165	303,221	151,364
172,794	-2,206	302,942	151,169
173,808	-2,261	302,718	150,987
174,823	-2,604	302,410	150,467
175,837	-2,851	302,144	150,068
176,852	-2,591	302,058	150,279
177,867	-2,199	301,924	150,601
178,881	-2,080	301,623	150,558
179,896	-2,216	301,577	150,383
180,910	-2,101	301,301	150,349
181,925	-2,238	301,031	150,062
182,940	-2,078	300,890	150,141
183,954	-2,248	300,889	149,954
184,969	-2,289	300,441	149,675
185,983	-2,286	300,295	149,593
186,998	-2,226	300,099	149,542
188,013	-2,273	300,023	149,443
189,027	-2,117	299,607	149,381
190,042	-2,330	299,465	149,081
191,056	-2,166	299,298	149,151
192,071	-2,097	299,145	149,131
193,086	-2,050	298,876	149,031
194,100	-2,177	298,833	148,868
195,115	-2,226	298,482	148,630
196,129	-2,294	298,198	148,407
197,144	-2,005	297,978	148,575
198,159	-2,283	297,981	148,283
199,173	-2,132	297,672	148,269
200,188	-2,203	297,568	148,133
201,202	-2,321	297,162	147,798
202,217	-2,742	296,838	147,201
203,232	-2,783	296,674	147,065
204,246	-2,411	296,515	147,347
205,261	-2,187	296,413	147,508
206,275	-2,037	296,220	147,548
207,290	-2,146	296,108	147,371
208,304	-2,190	295,951	147,235
209,319	-2,145	295,598	147,091
210,334	-2,130	295,358	146,973
211,348	-2,185	295,140	146,798
212,363	-2,343	295,126	146,620
213,377	-2,295	294,938	146,561
214,392	-2,213	294,575	146,449
215,407	-2,467	294,429	146,111
216,421	-2,453	294,138	145,967
217,436	-2,514	293,927	145,789
218,450	-2,543	293,678	145,623
219,465	-2,535	293,763	145,660
220,480	-2,341	293,440	145,680
221,494	-2,433	293,229	145,471
222,509	-2,248	292,986	145,520
223,523	-2,193	292,852	145,496
224,538	-2,072	292,794	145,573
225,553	-2,084	292,540	145,422
226,567	-2,316	292,434	145,128
227,582	-2,106	292,145	145,179
228,596	-2,018	292,200	145,280
229,611	-2,039	292,018	145,155
230,626	-2,098	291,765	144,958
231,640	-2,435	291,353	144,409
232,655	-2,883	291,039	143,801
233,669	-2,904	290,763	143,631
234,684	-2,793	290,647	143,669
235,699	-2,570	290,480	143,793
236,713	-2,708	290,404	143,607
237,728	-2,602	290,316	143,655
238,742	-2,604	290,058	143,513
239,757	-2,398	289,971	143,659
240,772	-2,389	289,681	143,510
241,786	-2,461	289,381	143,279
242,801	-2,454	289,168	143,167
243,815	-2,605	289,099	142,973
244,830	-2,467	288,832	142,963
245,844	-2,541	288,725	142,825
246,859	-2,366	288,418	142,831
247,874	-2,555	288,223	142,538
248,888	-2,455	288,107	142,564
249,903	-2,390	287,952	142,538
250,917	-1,981	287,789	142,842
251,932	-2,137	287,719	142,643
252,947	-1,538	287,837	143,270
253,961	-1,910	287,460	142,709
254,976	-0,942	287,924	143,865
255,990	1,646	288,567	146,685
257,005	2,576	288,947	147,767
258,020	3,962	289,187	149,223
259,034	4,029	288,904	149,128
260,049	3,974	288,727	148,970
261,063	3,525	288,511	148,411
262,078	3,839	288,432	148,660
263,093	4,594	288,459	149,392
264,107	4,630	288,377	149,370
265,122	4,572	288,023	149,118
266,136	4,557	288,056	149,107
267,151	4,674	287,860	149,105
268,166	4,323	287,726	148,684
269,180	4,264	287,322	148,405
270,195	4,393	287,089	148,396
271,209	4,248	287,114	148,256
272,224	4,257	286,750	148,063
273,239	4,186	286,368	147,785
274,253	4,166	286,386	147,762
275,268	4,663	286,337	148,200
276,282	4,668	286,026	148,031
277,297	4,499	285,937	147,809
278,312	4,876	285,891	148,134
279,326	4,541	285,675	147,688
280,341	4,427	285,336	147,391
281,355	4,345	285,071	147,162
282,370	4,312	284,938	147,049
283,384	4,287	284,789	146,935
284,399	4,285	284,671	146,859
285,414	4,327	284,286	146,688
286,428	4,235	284,132	146,508
287,443	4,013	283,893	146,160
288,457	4,081	283,697	146,111
289,472	3,969	283,531	145,907
290,487	3,903	283,337	145,731
291,501	3,888	283,189	145,627
292,516	3,674	282,931	145,280
293,530	3,701	282,852	145,251
294,545	3,895	282,841	145,416
295,560	4,068	282,555	145,420
296,574	3,959	282,330	145,189
297,589	4,181	282,186	145,310
298,603	4,425	282,063	145,464
299,618	4,420	281,892	145,358
300,633	4,248	281,702	145,085
301,647	4,238	281,558	144,989
302,662	4,392	281,367	145,022
303,676	3,995	281,127	144,513
304,691	3,655	280,836	144,031
305,706	3,691	280,619	143,941
306,720	3,826	280,375	143,929
307,735	3,834	280,215	143,842
308,749	3,971	280,105	143,901
309,764	4,015	279,938	143,843
310,779	3,794	279,723	143,514
311,793	3,701	279,447	143,272
312,808	3,515	279,458	143,092
313,822	3,819	279,087	143,172
314,837	3,726	279,022	143,039
315,852	3,540	278,646	142,662
316,866	3,704	278,489	142,721
317,881	3,788	278,407	142,744
318,895	3,639	278,199	142,485
319,910	3,609	278,035	142,362
320,925	3,409	277,772	142,028
321,939	3,736	277,770	142,318
322,954	3,859	277,608	142,336
323,968	3,887	277,417	142,252
324,983	3,880	277,334	142,190
325,997	4,149	277,119	142,316
327,012	4,099	276,955	142,173
328,027	4,034	276,797	142,019
329,041	3,937	276,570	141,800
330,056	3,854	276,465	141,657
331,070	4,045	276,206	141,688
332,085	3,805	275,997	141,347
333,100	4,025	275,849	141,461
334,114	3,737	275,799	141,158
335,129	3,809	275,300	140,956
336,143	3,865	275,304	140,997
337,158	4,297	275,151	141,302
338,173	4,134	274,951	141,037
339,187	4,029	274,722	140,811
340,202	4,040	274,691	140,793
341,216	3,986	274,631	140,700
342,231	3,976	274,228	140,471
343,246	3,838	274,204	140,321
344,260	3,858	273,888	140,165
345,275	4,051	273,931	140,351
346,289	4,258	273,877	140,499
347,304	4,250	273,650	140,363
348,319	4,094	273,299	140,028
349,333	4,052	273,171	139,912
350,348	4,236	273,108	140,034
351,362	4,350	272,971	140,055
352,377	4,244	272,700	139,807
353,392	4,178	272,535	139,651
354,406	4,388	272,351	139,735
355,421	191,934	1328,541	1407,688
356,435	155,093	1457,305	1407,802
