DTS Sentinel unit serial number:	SN410029Multiplexer serial number:	ORYXHardware model number:	OX2-SRSoftware version number:	ORYX F/W v4,00 Oryx Data Collector v3.7.2.0data status	okinstallation	B4 Nyhavnadifferential loss correction	single-endedforward channel	channel 2reverse channel	N/Adate	2023/12/15time	17:45:13forward acquisition time	300,00reverse acquisition time	0,00gamma	499,1914k internal	0,3141k external	0,3141temperature offset calibration	1,0000default loss term (dB/km)	0,3820temperature slope calibration	1,0000multiplexer offset coefficient	1,0000multiplexer slope coefficient	1,0000fibre end	0,00T internal ref (°C)	18,60T ext. ref 1 (°C)	4,37T ext. ref 2 (°C)	4,42length (m)	temperature (°C)	Stokes	anti-Stokes-744,400	800,000	0,051	-0,128
-743,385	-113,981	-0,172	0,024
-742,371	-36,309	0,118	-0,047
-741,356	136,211	-0,160	0,155
-740,342	-4,932	0,105	0,054
-739,327	-164,752	-0,352	0,012
-738,312	-14,786	0,071	-0,034
-737,298	-127,802	-0,274	-0,029
-736,283	335,100	0,061	-0,088
-735,269	-50,266	-0,215	0,075
-734,254	202,070	-0,028	-0,032
-733,239	136,013	-0,355	-0,343
-732,225	-5,910	0,148	0,075
-731,210	-200,000	-0,001	-0,013
-730,196	-112,955	-0,054	-0,008
-729,181	800,000	-0,008	0,018
-728,167	599,559	-0,009	-0,017
-727,152	-200,000	0,013	-0,161
-726,137	6,727	-0,084	-0,046
-725,123	-200,000	-0,022	-0,140
-724,108	335,409	0,042	-0,061
-723,094	-200,000	0,026	-0,160
-722,079	-107,231	-0,135	-0,022
-721,064	800,000	-0,003	0,007
-720,050	-200,000	-0,022	-0,091
-719,035	-43,698	-0,095	0,035
-718,021	19,066	-0,110	-0,065
-717,006	800,000	-0,051	-0,108
-715,991	-200,000	0,032	-0,125
-714,977	130,465	0,018	-0,017
-713,962	89,774	-0,108	0,089
-712,948	16,628	-0,207	-0,121
-711,933	-200,000	0,000	0,032
-710,918	-69,016	-0,123	0,035
-709,904	34,773	-0,028	0,018
-708,889	-200,000	-0,010	-0,103
-707,875	-88,160	-0,130	-0,029
-706,860	432,180	0,059	-0,095
-705,845	-139,781	-0,116	0,009
-704,831	7,131	0,169	0,093
-703,816	-119,447	-0,031	-0,004
-702,802	62,629	0,085	0,063
-701,787	-52,466	-0,068	-0,023
-700,772	75,760	-0,089	0,069
-699,758	-93,110	0,129	0,026
-698,743	223,629	0,022	-0,026
-697,729	-200,000	-0,008	-0,050
-696,714	-2,943	-0,014	0,007
-695,699	733,179	-0,026	0,051
-694,685	-200,000	0,036	-0,136
-693,670	-200,000	-0,039	-0,146
-692,656	-200,000	-0,021	-0,147
-691,641	-200,000	-0,011	-0,097
-690,627	-135,423	-0,028	0,002
-689,612	-200,000	-0,008	-0,045
-688,597	164,260	0,078	0,081
-687,583	-200,000	0,014	-0,114
-686,568	-76,540	-0,111	-0,029
-685,554	-95,832	-0,106	-0,021
-684,539	146,311	-0,016	-0,016
-683,524	800,000	-0,021	-0,062
-682,510	-35,520	-0,127	-0,051
-681,495	-200,000	0,006	0,133
-680,481	-200,000	-0,023	-0,093
-679,466	625,996	-0,044	0,083
-678,451	-200,000	-0,021	0,101
-677,437	36,899	-0,137	-0,089
-676,422	52,786	-0,070	0,049
-675,408	191,915	0,052	-0,058
-674,393	464,343	0,067	0,111
-673,378	-200,000	0,006	-0,025
-672,364	-54,177	-0,043	0,014
-671,349	-62,110	-0,106	-0,032
-670,335	-116,856	0,056	0,008
-669,320	-110,629	0,109	-0,016
-668,305	168,283	-0,161	0,170
-667,291	286,168	0,074	-0,099
-666,276	-141,907	-0,139	-0,010
-665,262	-200,000	0,016	-0,096
-664,247	-200,000	-0,009	0,039
-663,232	-200,000	-0,023	0,077
-662,218	-135,773	0,071	0,006
-661,203	30,704	-0,018	0,011
-660,189	-200,000	0,016	0,092
-659,174	800,000	-0,047	-0,104
-658,159	-200,000	-0,077	-0,273
-657,145	14,061	-0,112	0,064
-656,130	193,164	-0,073	0,082
-655,116	-119,274	-0,049	0,006
-654,101	140,492	0,019	-0,018
-653,086	-200,000	0,006	0,035
-652,072	113,236	-0,040	0,036
-651,057	-51,141	0,033	0,011
-650,043	-200,000	-0,000	-0,116
-649,028	800,000	-0,016	0,033
-648,014	123,331	0,062	0,058
-646,999	800,000	-0,032	0,076
-645,984	29,038	-0,105	-0,065
-644,970	388,404	-0,035	0,053
-643,955	91,725	-0,056	-0,046
-642,941	-20,069	-0,048	0,022
-641,926	-84,026	0,140	0,033
-640,911	495,680	-0,070	0,120
-639,897	-74,228	0,115	-0,030
-638,882	-29,079	-0,090	-0,038
-637,868	145,488	0,059	0,058
-636,853	392,145	0,046	-0,071
-635,838	-89,308	-0,177	-0,038
-634,824	-200,000	-0,033	0,127
-633,809	-200,000	-0,008	0,173
-632,795	-3,465	0,098	-0,050
-631,780	90,823	0,078	0,065
-630,765	-200,000	-0,003	0,032
-629,751	505,988	-0,100	-0,171
-628,736	17,939	-0,073	-0,043
-627,722	287,366	-0,045	-0,061
-626,707	150,480	0,058	-0,058
-625,692	-104,265	0,053	-0,009
-624,678	442,676	-0,061	-0,099
-623,663	-200,000	-0,003	-0,074
-622,649	-98,386	-0,096	-0,018
-621,634	-200,000	-0,005	0,042
-620,619	110,845	-0,074	-0,066
-619,605	75,883	-0,004	0,003
-618,590	464,747	-0,039	-0,065
-617,576	-200,000	-0,000	-0,019
-616,561	348,138	-0,113	0,165
-615,546	126,029	-0,102	0,095
-614,532	151,032	0,005	0,005
-613,517	800,000	0,011	-0,035
-612,503	-31,554	0,110	0,045
-611,488	800,000	0,021	0,048
-610,474	161,199	0,073	0,075
-609,459	800,000	-0,019	-0,039
-608,444	101,917	-0,047	-0,041
-607,430	456,175	-0,063	-0,104
-606,415	775,327	-0,017	0,033
-605,401	-200,000	-0,002	-0,052
-604,386	-141,144	0,098	-0,007
-603,371	214,046	-0,080	0,094
-602,357	35,170	0,100	-0,064
-601,342	789,379	0,017	0,035
-600,328	77,186	0,058	-0,045
-599,313	-200,000	0,009	-0,035
-598,298	-60,252	0,147	-0,046
-597,284	-200,000	0,010	0,090
-596,269	217,574	-0,019	0,023
-595,255	-200,000	0,018	0,065
-594,240	-41,881	-0,125	-0,047
-593,225	-200,000	0,068	-0,236
-592,211	59,253	-0,048	0,035
-591,196	-84,829	0,130	-0,030
-590,182	-200,000	0,019	0,065
-589,167	800,000	-0,033	0,085
-588,152	800,000	-0,038	0,080
-587,138	-24,980	-0,173	0,075
-586,123	484,762	-0,049	0,082
-585,109	-114,471	-0,121	-0,017
-584,094	-88,405	-0,052	-0,011
-583,079	19,155	0,063	0,037
-582,065	58,578	0,064	-0,046
-581,050	-122,141	0,061	-0,007
-580,036	-78,901	0,057	-0,014
-579,021	800,000	0,006	-0,019
-578,006	800,000	0,032	-0,085
-576,992	204,247	0,051	-0,059
-575,977	-200,000	-0,009	-0,183
-574,963	-162,928	0,042	0,001
-573,948	311,804	-0,026	-0,036
-572,934	84,808	0,126	0,102
-571,919	800,000	-0,037	-0,113
-570,904	800,000	-0,025	-0,071
-569,890	-63,103	0,146	-0,044
-568,875	-200,000	-0,000	0,055
-567,861	-6,679	0,106	-0,053
-566,846	-4,130	0,191	0,097
-565,831	-164,970	-0,020	-0,001
-564,817	-200,000	0,002	-0,033
-563,802	-73,450	-0,069	-0,018
-562,788	57,852	0,051	-0,037
-561,773	-150,278	0,064	0,004
-560,758	90,666	-0,068	-0,056
-559,744	13,274	0,067	-0,038
-558,729	20,332	-0,015	0,009
-557,715	-91,667	-0,107	0,022
-556,700	47,359	0,046	-0,032
-555,685	94,734	0,054	-0,046
-554,671	-147,447	0,087	-0,005
-553,656	340,518	0,060	-0,087
-552,642	-200,000	0,006	0,123
-551,627	-200,000	0,003	0,087
-550,612	-2,706	0,097	-0,050
-549,598	-56,114	-0,163	-0,053
-548,583	-200,000	-0,005	-0,067
-547,569	-77,497	-0,035	-0,009
-546,554	89,402	-0,079	-0,065
-545,539	-150,548	0,074	0,004
-544,525	-147,084	0,102	0,006
-543,510	248,468	-0,076	0,095
-542,496	-200,000	-0,091	-0,297
-541,481	800,000	-0,080	-0,211
-540,466	-1,436	-0,125	-0,064
-539,452	20,626	-0,031	0,018
-538,437	623,490	0,069	-0,128
-537,423	184,126	-0,075	-0,081
-536,408	107,489	0,032	0,028
-535,393	384,020	-0,032	0,049
-534,379	-145,763	-0,143	-0,009
-533,364	-200,000	0,014	0,109
-532,350	-112,428	0,098	-0,014
-531,335	-200,000	-0,007	-0,075
-530,321	-106,991	-0,076	0,012
-529,306	-29,429	0,067	-0,028
-528,291	800,000	-0,061	-0,185
-527,277	-200,000	-0,007	-0,076
-526,262	-81,238	0,094	-0,023
-525,248	-200,000	-0,011	-0,048
-524,233	800,000	-0,010	0,025
-523,218	-200,000	0,015	-0,112
-522,204	143,011	-0,080	0,079
-521,189	-200,000	-0,014	0,120
-520,175	-200,000	0,006	-0,093
-519,160	-200,000	0,003	0,038
-518,145	-145,085	-0,060	0,004
-517,131	-200,000	0,004	0,022
-516,116	-200,000	0,019	-0,084
-515,102	254,112	-0,091	0,115
-514,087	800,000	-0,037	0,093
-513,072	98,130	-0,018	-0,015
-512,058	-200,000	-0,011	-0,099
-511,043	83,079	-0,070	-0,056
-510,029	-98,107	0,175	0,033
-509,014	621,610	0,093	0,173
-507,999	-200,000	-0,002	0,061
-506,985	-200,000	-0,018	0,080
-505,970	-37,285	-0,133	-0,052
-504,956	-10,416	-0,129	-0,063
-503,941	28,698	0,129	-0,080
-502,926	-200,000	0,008	0,027
-501,912	93,384	-0,017	-0,014
-500,897	5,470	-0,127	0,068
-499,883	148,031	-0,032	0,031
-498,868	-50,728	0,116	0,040
-497,853	261,986	-0,026	0,033
-496,839	-200,000	0,026	-0,170
-495,824	-200,000	-0,002	0,049
-494,810	-18,709	0,059	0,027
-493,795	201,721	0,057	-0,064
-492,781	54,330	-0,075	0,053
-491,766	372,379	0,037	-0,056
-490,751	-35,863	-0,028	-0,011
-489,737	27,009	-0,038	-0,023
-488,722	-45,574	0,046	0,017
-487,708	337,908	0,025	0,035
-486,693	174,428	-0,079	0,084
-485,678	-200,000	-0,026	-0,096
-484,664	-123,682	-0,009	0,001
-483,649	91,824	-0,015	0,012
-482,635	214,494	-0,033	0,039
-481,620	-200,000	0,022	0,160
-480,605	67,560	-0,099	0,074
-479,591	-62,150	0,072	0,022
-478,576	-22,348	0,088	-0,039
-477,562	24,885	-0,051	-0,031
-476,547	-200,000	-0,020	-0,080
-475,532	495,221	-0,053	0,090
-474,518	584,582	0,014	0,025
-473,503	-200,000	-0,026	0,132
-472,489	458,691	-0,019	0,031
-471,474	23,058	-0,023	0,014
-470,459	131,769	-0,093	0,087
-469,445	78,392	0,044	-0,035
-468,430	55,744	0,128	-0,091
-467,416	800,000	-0,036	-0,116
-466,401	-200,000	-0,005	0,061
-465,386	-200,000	-0,007	0,083
-464,372	245,055	0,063	-0,077
-463,357	-200,000	-0,031	-0,203
-462,343	-200,000	-0,006	-0,052
-461,328	-200,000	0,003	0,031
-460,313	-31,603	-0,049	0,020
-459,299	-200,000	0,013	-0,066
-458,284	86,727	-0,050	0,041
-457,270	-58,902	0,091	0,029
-456,255	106,255	-0,132	0,115
-455,241	153,773	-0,072	0,073
-454,226	-200,000	0,000	-0,124
-453,211	320,557	0,055	0,076
-452,197	313,222	-0,053	0,073
-451,182	800,000	-0,017	-0,042
-450,168	-200,000	0,016	0,114
-449,153	355,155	-0,056	0,081
-448,138	139,091	-0,090	-0,086
-447,124	-200,000	-0,002	0,022
-446,109	-41,242	0,010	-0,004
-445,095	-200,000	-0,005	0,024
-444,080	-102,784	-0,111	0,019
-443,065	-200,000	-0,002	0,070
-442,051	73,923	-0,095	-0,073
-441,036	249,646	-0,107	-0,133
-440,022	-8,010	-0,105	0,052
-439,007	125,928	0,078	0,073
-437,992	561,556	0,083	0,148
-436,978	123,278	-0,061	0,056
-435,963	73,812	0,087	0,066
-434,949	800,000	-0,018	-0,047
-433,934	800,000	0,044	-0,140
-432,919	800,000	-0,022	0,047
-431,905	23,694	0,077	-0,047
-430,890	681,009	0,006	-0,012
-429,876	37,549	0,098	-0,064
-428,861	29,464	0,070	0,044
-427,846	-17,878	-0,087	-0,040
-426,832	-200,000	-0,005	0,081
-425,817	-200,000	-0,014	-0,107
-424,803	320,096	0,006	-0,008
-423,788	-144,038	0,195	-0,013
-422,773	315,747	0,069	0,096
-421,759	-101,344	-0,070	-0,012
-420,744	800,000	-0,063	-0,164
-419,730	-90,517	-0,108	-0,023
-418,715	392,930	0,037	-0,057
-417,701	-200,000	-0,025	-0,095
-416,686	-149,686	-0,105	-0,006
-415,671	-200,000	0,006	0,091
-414,657	-200,000	-0,032	0,157
-413,642	-122,446	0,033	-0,004
-412,628	800,000	-0,029	0,092
-411,613	-47,244	0,094	0,033
-410,598	-64,263	-0,089	-0,026
-409,584	-17,030	0,108	0,050
-408,569	-200,000	-0,018	-0,082
-407,555	339,703	0,030	0,042
-406,540	-117,908	-0,059	-0,008
-405,525	215,132	0,039	0,045
-404,511	-146,051	-0,232	0,015
-403,496	3,477	-0,142	0,076
-402,482	-67,233	0,084	-0,024
-401,467	-200,000	0,003	0,059
-400,452	-200,000	0,013	0,134
-399,438	1,977	0,042	0,022
-398,423	-108,906	0,145	-0,022
-397,409	800,000	0,040	-0,094
-396,394	-200,000	-0,012	-0,263
-395,379	-200,000	0,006	-0,070
-394,365	-200,000	0,017	0,138
-393,350	283,818	0,122	-0,161
-392,336	-200,000	0,013	-0,045
-391,321	-200,000	-0,043	-0,181
-390,306	186,356	0,085	-0,092
-389,292	509,644	-0,106	-0,181
-388,277	-98,925	-0,135	-0,025
-387,263	-114,679	0,123	0,017
-386,248	-200,000	-0,005	-0,084
-385,233	-200,000	-0,006	-0,043
-384,219	-200,000	0,010	0,120
-383,204	49,600	0,123	-0,085
-382,190	-14,834	0,055	0,026
-381,175	192,086	-0,049	0,054
-380,160	-37,267	0,099	0,039
-379,146	-200,000	0,025	0,183
-378,131	800,000	-0,006	0,014
-377,117	800,000	-0,060	-0,138
-376,102	67,069	0,079	-0,059
-375,088	800,000	0,039	-0,087
-374,073	800,000	0,054	0,123
-373,058	483,467	0,006	0,009
-372,044	132,850	0,030	0,029
-371,029	800,000	-0,050	-0,104
-370,015	800,000	0,084	0,175
-369,000	-200,000	0,022	-0,106
-367,985	-41,840	-0,069	-0,026
-366,971	-200,000	-0,005	0,035
-365,956	16,874	0,148	0,085
-364,942	-11,224	0,077	-0,037
-363,927	0,209	0,140	0,073
-362,912	3,426	-0,042	0,022
-361,898	-200,000	-0,002	0,015
-360,883	275,521	-0,088	0,114
-359,869	-111,939	0,095	-0,014
-358,854	-78,939	0,099	-0,024
-357,839	561,886	-0,021	0,038
-356,825	57,288	-0,039	0,028
-355,810	114,751	-0,080	0,071
-354,796	-52,495	0,058	-0,020
-353,781	-93,527	-0,054	-0,011
-352,766	17,091	-0,072	-0,042
-351,752	120,897	-0,113	0,103
-350,737	241,233	0,030	-0,037
-349,723	0,888	-0,179	-0,093
-348,708	800,000	0,011	-0,031
-347,693	126,459	0,011	0,010
-346,679	159,770	-0,069	-0,070
-345,664	800,000	0,022	-0,048
-344,650	143,666	0,082	0,080
-343,635	404,525	-0,053	-0,082
-342,620	-200,000	-0,000	-0,004
-341,606	39,740	-0,072	0,047
-340,591	-41,923	0,069	0,026
-339,577	167,047	-0,034	0,035
-338,562	-170,625	-0,104	0,003
-337,548	-87,113	-0,078	-0,017
-336,533	309,724	0,087	-0,119
-335,518	-75,186	0,081	0,021
-334,504	400,075	-0,104	0,160
-333,489	-200,000	0,015	-0,048
-332,475	217,917	-0,018	0,021
-331,460	193,228	-0,028	0,031
-330,445	-200,000	0,002	0,057
-329,431	-200,000	-0,002	-0,052
-328,416	-88,348	0,061	0,013
-327,402	25,921	-0,044	0,026
-326,387	333,416	0,058	-0,081
-325,372	-200,000	-0,008	-0,027
-324,358	34,587	-0,100	-0,064
-323,343	539,997	-0,087	-0,152
-322,329	158,448	0,054	0,054
-321,314	-200,000	0,018	-0,062
-320,299	-200,000	0,009	0,062
-319,285	-39,210	-0,109	-0,042
-318,270	-102,454	-0,127	-0,022
-317,256	800,000	-0,010	-0,031
-316,241	-48,125	0,130	-0,046
-315,226	-200,000	-0,004	-0,105
-314,212	-57,154	0,097	-0,031
-313,197	-137,272	0,175	0,014
-312,183	800,000	0,035	-0,091
-311,168	1,280	-0,075	-0,039
-310,153	58,204	-0,082	-0,058
-309,139	-200,000	-0,011	-0,089
-308,124	-31,912	0,069	-0,028
-307,110	58,832	0,098	0,070
-306,095	-72,314	-0,144	-0,038
-305,080	800,000	-0,074	0,156
-304,066	-58,695	0,098	-0,031
-303,051	-200,000	-0,012	0,054
-302,037	362,687	0,057	-0,084
-301,022	25,221	0,071	-0,043
-300,008	-27,511	-0,103	0,043
-298,993	71,610	0,086	0,065
-297,978	305,399	0,073	0,099
-296,964	-30,220	0,040	-0,017
-295,949	182,010	-0,095	0,101
-294,935	150,332	-0,047	0,047
-293,920	-75,590	-0,044	0,011
-292,905	76,871	0,085	-0,066
-291,891	609,491	0,016	0,030
-290,876	-62,382	-0,072	0,022
-289,862	-53,487	0,113	-0,037
-288,847	-18,071	-0,113	0,051
-287,832	299,009	0,037	-0,050
-286,818	262,942	-0,094	-0,119
-285,803	-200,000	0,003	-0,174
-284,789	-200,000	0,013	0,112
-283,774	-200,000	0,008	0,026
-282,759	241,300	-0,042	-0,051
-281,745	-89,477	0,147	0,031
-280,730	672,074	-0,069	-0,131
-279,716	-200,000	-0,012	0,052
-278,701	800,000	-0,030	0,077
-277,686	47,702	0,017	0,011
-276,672	-140,828	0,106	0,008
-275,657	-200,000	0,004	0,047
-274,643	346,807	-0,023	0,032
-273,628	800,000	0,010	0,021
-272,613	-62,215	0,108	-0,032
-271,599	-192,579	0,114	0,001
-270,584	450,721	-0,045	-0,073
-269,570	-180,777	-0,134	0,002
-268,555	800,000	-0,008	0,016
-267,540	29,590	0,122	-0,076
-266,526	102,482	0,121	-0,103
-265,511	327,093	-0,063	0,087
-264,497	278,809	-0,013	0,017
-263,482	743,544	0,020	-0,039
-262,467	148,345	0,154	0,151
-261,453	430,788	0,027	0,043
-260,438	-200,000	0,024	0,127
-259,424	-132,307	-0,152	0,014
-258,409	200,622	-0,097	-0,108
-257,395	-65,788	0,162	0,047
-256,380	411,859	0,076	0,118
-255,365	800,000	0,066	0,182
-254,351	243,156	-0,050	-0,061
-253,336	117,205	-0,025	-0,022
-252,322	243,887	0,084	-0,103
-251,307	114,981	-0,098	-0,087
-250,292	-59,045	-0,031	0,010
-249,278	186,923	-0,025	0,027
-248,263	-74,007	0,170	-0,045
-247,249	-200,000	-0,062	0,215
-246,234	459,392	-0,037	-0,059
-245,219	1,247	-0,201	-0,105
-244,205	-69,774	-0,062	-0,017
-243,190	-200,000	0,004	-0,081
-242,176	-200,000	-0,009	-0,058
-241,161	403,427	-0,035	0,053
-240,146	122,560	0,080	0,073
-239,132	-12,147	-0,086	0,041
-238,117	91,120	-0,045	0,036
-237,103	699,744	-0,018	-0,035
-236,088	-104,374	-0,116	0,019
-235,073	-151,655	0,172	-0,009
-234,059	800,000	0,062	0,183
-233,044	-33,916	0,056	-0,022
-232,030	800,000	0,034	-0,098
-231,015	-79,802	-0,098	-0,024
-230,000	-94,794	-0,112	-0,022
-228,986	-200,000	0,030	0,148
-227,971	800,000	0,041	-0,126
-226,957	180,077	0,061	-0,065
-225,942	253,132	-0,051	0,063
-224,927	265,328	-0,046	0,058
-223,913	-200,000	0,001	0,007
-222,898	800,000	-0,032	-0,095
-221,884	118,019	-0,046	-0,041
-220,869	37,269	-0,085	0,054
-219,855	-103,724	0,045	0,008
-218,840	167,762	0,078	0,081
-217,825	128,246	-0,057	0,052
-216,811	79,568	-0,087	0,068
-215,796	425,776	0,060	0,093
-214,782	800,000	-0,041	-0,098
-213,767	378,767	0,086	-0,128
-212,752	-200,000	-0,007	0,121
-211,738	219,186	0,034	0,039
-210,723	304,676	0,015	-0,021
-209,709	-200,000	0,010	0,105
-208,694	151,467	-0,031	-0,031
-207,679	96,053	0,030	0,025
-206,665	509,320	0,022	0,037
-205,650	263,085	0,078	0,098
-204,636	-200,000	-0,029	0,146
-203,621	287,008	0,044	-0,058
-202,606	335,270	0,063	0,089
-201,592	172,563	-0,064	-0,067
-200,577	-30,766	-0,038	0,016
-199,563	34,227	0,041	-0,026
-198,548	-200,000	0,029	0,101
-197,533	-200,000	0,004	0,125
-196,519	-200,000	-0,001	0,133
-195,504	800,000	-0,062	0,133
-194,490	-200,000	0,006	-0,039
-193,475	464,377	0,016	0,026
-192,460	800,000	0,022	0,050
-191,446	165,101	-0,081	-0,083
-190,431	477,069	0,056	0,092
-189,417	-200,000	-0,005	0,025
-188,402	-54,572	-0,015	-0,005
-187,387	411,401	-0,069	0,106
-186,373	-168,034	-0,055	-0,002
-185,358	-68,549	0,090	0,025
-184,344	-200,000	0,001	-0,129
-183,329	-51,816	0,085	-0,028
-182,315	-55,543	0,043	-0,014
-181,300	-95,155	-0,061	-0,012
-180,285	-57,718	0,027	-0,009
-179,271	-131,689	-0,158	-0,015
-178,256	-120,495	0,046	0,006
-177,242	439,373	-0,057	0,090
-176,227	63,704	0,056	-0,041
-175,212	-100,201	0,092	0,016
-174,198	179,480	0,131	-0,139
-173,183	-200,000	-0,017	-0,058
-172,169	203,961	0,042	0,047
-171,154	-200,000	0,031	-0,223
-170,139	102,240	0,165	-0,140
-169,125	-200,000	-0,018	0,118
-168,110	254,178	0,064	0,079
-167,096	-106,099	-0,142	0,023
-166,081	-72,890	-0,082	0,022
-165,066	-200,000	-0,028	-0,116
-164,052	495,974	0,020	-0,033
-163,037	-35,392	0,113	-0,044
-162,023	-200,000	0,010	0,098
-161,008	-77,568	0,139	-0,035
-159,993	-95,132	-0,081	-0,016
-158,979	-134,622	0,080	0,007
-157,964	-200,000	0,006	0,104
-156,950	-128,003	-0,121	0,012
-155,935	219,383	0,092	0,106
-154,920	-123,770	-0,039	-0,004
-153,906	800,000	0,024	0,066
-152,891	-200,000	0,027	0,281
-151,877	-191,601	-0,032	-0,000
-150,862	378,486	0,009	-0,013
-149,847	800,000	0,010	-0,026
-148,833	-110,288	0,152	-0,023
-147,818	-200,000	-0,007	0,073
-146,804	431,829	0,084	0,133
-145,789	-24,023	0,162	-0,070
-144,775	-200,000	-0,007	-0,044
-143,760	800,000	0,042	-0,093
-142,745	-77,684	-0,195	-0,048
-141,731	192,819	-0,049	-0,053
-140,716	-97,508	0,096	-0,018
-139,702	31,784	0,096	-0,059
-138,687	34,696	0,016	-0,010
-137,672	-200,000	0,017	0,071
-136,658	8,767	0,071	-0,039
-135,643	33,047	-0,189	-0,118
-134,629	-200,000	-0,006	-0,028
-133,614	800,000	-0,037	-0,096
-132,599	-200,000	0,005	0,115
-131,585	800,000	0,071	0,161
-130,570	287,013	-0,029	0,038
-129,556	800,000	0,039	-0,109
-128,541	800,000	-0,059	-0,128
-127,526	-57,995	-0,104	-0,033
-126,512	8,744	-0,051	-0,028
-125,497	-200,000	0,020	0,064
-124,483	300,700	0,047	0,063
-123,468	-200,000	-0,015	-0,070
-122,453	-138,847	-0,057	-0,004
-121,439	-65,160	0,019	0,005
-120,424	-200,000	-0,017	0,073
-119,410	-200,000	0,029	0,143
-118,395	-99,222	0,058	-0,011
-117,380	-91,239	-0,058	0,012
-116,366	-200,000	0,006	-0,105
-115,351	322,088	0,059	-0,081
-114,337	425,061	-0,021	-0,032
-113,322	117,343	-0,088	-0,078
-112,307	800,000	0,019	-0,052
-111,293	-200,000	-0,020	0,070
-110,278	-6,740	0,115	-0,056
-109,264	-200,000	0,013	-0,062
-108,249	-200,000	0,014	-0,053
-107,234	-64,601	-0,037	0,011
-106,220	529,976	-0,060	-0,103
-105,205	381,467	0,058	-0,086
-104,191	-127,648	0,137	-0,014
-103,176	-200,000	0,018	0,079
-102,162	73,931	-0,059	-0,045
-101,147	-200,000	0,005	-0,144
-100,132	800,000	-0,031	-0,096
-99,118	-100,969	-0,070	0,012
-98,103	-69,089	0,047	0,013
-97,089	800,000	0,048	-0,128
-96,074	-90,685	-0,083	-0,017
-95,059	475,133	0,092	0,150
-94,045	-37,634	-0,128	-0,049
-93,030	340,843	0,017	0,024
-92,016	-41,369	-0,036	0,013
-91,001	12,362	0,079	0,044
-89,986	217,974	0,040	0,046
-88,972	-200,000	0,003	0,122
-87,957	69,411	-0,081	-0,060
-86,943	800,000	-0,052	-0,131
-85,928	-200,000	0,011	-0,091
-84,913	235,730	0,060	0,071
-83,899	114,442	0,138	-0,121
-82,884	326,470	0,032	-0,045
-81,870	-15,892	0,130	0,060
-80,855	156,419	0,078	0,078
-79,840	-200,000	-0,032	0,161
-78,826	-79,825	-0,087	-0,021
-77,811	485,784	-0,092	-0,152
-76,797	104,036	-0,086	-0,073
-75,782	800,000	-0,022	-0,063
-74,767	-157,289	0,131	-0,006
-73,753	800,000	0,047	0,125
-72,738	264,249	-0,084	-0,105
-71,724	16,419	0,033	-0,019
-70,709	-110,663	-0,082	-0,012
-69,694	-15,285	-0,063	0,029
-68,680	-87,068	0,091	-0,020
-67,665	301,910	-0,045	0,061
-66,651	191,952	0,074	0,080
-65,636	482,509	0,032	-0,052
-64,622	-200,000	-0,003	-0,130
-63,607	800,000	-0,041	-0,122
-62,592	174,211	0,104	-0,109
-61,578	-138,195	-0,047	-0,004
-60,563	-200,000	0,002	0,047
-59,549	220,277	-0,082	-0,095
-58,534	-55,113	-1,800	-0,581
-57,519	800,000	-0,556	-1,151
-56,505	-200,000	-1,079	-4,683
-55,490	-92,767	0,669	0,134
-54,476	800,000	5,038	11,647
-53,461	-200,000	15,717	278,776
-52,446	-200,000	701,913	2259,519
-51,432	577,540	1617,364	2864,506
-50,417	123,005	1620,689	1463,932
-49,403	84,085	1281,304	1008,870
-48,388	37,266	1024,997	653,663
-47,373	21,757	986,940	578,331
-46,359	20,651	975,622	568,046
-45,344	18,926	971,231	559,821
-44,330	18,966	970,067	559,259
-43,315	18,692	968,530	557,454
-42,300	18,611	967,253	556,434
-41,286	18,627	966,380	555,962
-40,271	18,635	965,380	555,391
-39,257	18,705	964,534	555,110
-38,242	18,606	963,918	554,409
-37,227	18,601	963,182	553,950
-36,213	18,663	962,200	553,564
-35,198	18,527	961,336	552,604
-34,184	18,673	960,465	552,554
-33,169	18,608	959,579	551,812
-32,154	18,673	958,724	551,508
-31,140	18,707	957,951	551,154
-30,125	18,659	957,192	550,540
-29,111	18,645	956,372	550,002
-28,096	18,679	955,906	549,820
-27,082	18,638	955,031	549,164
-26,067	18,675	954,155	548,757
-25,052	18,622	953,493	548,184
-24,038	18,577	952,964	547,713
-23,023	18,604	952,267	547,378
-22,009	18,701	951,311	547,117
-20,994	18,739	950,833	546,941
-19,979	18,615	950,359	546,250
-18,965	18,690	949,675	546,076
-17,950	18,636	949,111	545,557
-16,936	18,571	948,541	545,001
-15,921	18,601	947,785	544,639
-14,906	18,497	947,103	543,895
-13,892	18,527	946,416	543,574
-12,877	18,453	945,877	543,006
-11,863	18,471	945,036	542,560
-10,848	18,499	944,513	542,326
-9,833	18,596	943,996	542,318
-8,819	18,551	943,544	541,892
-7,804	18,453	943,164	541,341
-6,790	18,464	942,340	540,881
-5,775	18,523	941,762	540,716
-4,760	18,507	941,011	540,212
-3,746	18,517	940,495	539,927
-2,731	18,380	939,773	539,056
-1,717	18,379	938,956	538,564
-0,702	18,380	938,273	538,154
0,313	18,160	937,857	538,032
1,327	20,618	935,691	544,494
2,342	27,765	809,277	490,282
3,356	22,261	511,801	300,599
4,371	-0,063	381,212	194,995
5,386	-2,824	364,890	183,177
6,400	-3,732	358,648	178,911
7,415	-4,451	355,644	176,519
8,429	-4,747	354,179	175,416
9,444	-4,834	353,260	174,840
10,459	-4,885	352,484	174,379
11,473	-5,003	351,816	173,889
12,488	-4,885	351,410	173,817
13,502	-4,790	350,891	173,658
14,517	-5,153	350,224	172,876
15,531	-5,484	349,579	172,145
16,546	-5,460	349,016	171,882
17,561	-5,502	348,465	171,546
18,575	-5,506	348,250	171,420
19,590	-5,515	347,619	171,083
20,604	-5,522	347,468	170,985
21,619	-5,635	347,025	170,617
22,634	-5,608	346,725	170,487
23,648	-5,592	346,137	170,201
24,663	-5,793	346,062	169,911
25,677	-5,666	345,823	169,929
26,692	-5,591	345,383	169,786
27,707	-5,630	345,019	169,545
28,721	-5,517	344,639	169,477
29,736	-5,713	344,368	169,098
30,750	-5,793	344,094	168,853
31,765	-5,673	343,873	168,872
32,780	-5,693	343,659	168,728
33,794	-5,565	343,156	168,616
34,809	-5,579	342,863	168,441
35,823	-5,808	342,821	168,136
36,838	-5,819	342,357	167,882
37,853	-5,729	342,070	167,831
38,867	-5,757	341,830	167,665
39,882	-5,814	341,557	167,450
40,896	-5,851	341,397	167,313
41,911	-5,769	340,915	167,158
42,926	-5,739	340,579	167,013
43,940	-6,003	340,462	166,634
44,955	-5,727	340,042	166,734
45,969	-5,892	339,857	166,436
46,984	-6,056	339,600	166,105
47,999	-6,185	339,171	165,731
49,013	-6,288	338,948	165,487
50,028	-6,346	338,685	165,277
51,042	-6,403	338,332	165,024
52,057	-6,318	338,136	165,013
53,071	-6,341	337,777	164,796
54,086	-6,313	337,441	164,650
55,101	-6,347	337,259	164,507
56,115	-6,075	337,173	164,764
57,130	-5,756	337,055	165,059
58,144	-5,548	336,835	165,176
59,159	-5,473	336,700	165,182
60,174	-5,521	336,255	164,893
61,188	-5,546	336,150	164,798
62,203	-5,519	335,739	164,613
63,217	-5,471	335,460	164,516
64,232	-5,578	335,248	164,276
65,247	-5,339	335,128	164,476
66,261	-5,360	334,782	164,267
67,276	-5,802	334,347	163,535
68,290	-5,925	334,094	163,256
69,305	-5,859	333,813	163,179
70,320	-5,818	333,471	163,044
71,334	-5,666	333,333	163,135
72,349	-5,450	333,150	163,277
73,363	-5,253	332,870	163,349
74,378	-5,444	332,748	163,058
75,393	-5,510	332,438	162,816
76,407	-5,568	332,098	162,569
77,422	-5,625	331,896	162,391
78,436	-5,472	331,491	162,352
79,451	-5,462	331,393	162,300
80,466	-5,684	330,997	161,842
81,480	-5,882	330,592	161,406
82,495	-5,945	330,525	161,287
83,509	-5,867	330,177	161,191
84,524	-5,977	329,952	160,943
85,539	-6,044	329,559	160,662
86,553	-6,059	329,313	160,510
87,568	-5,868	329,149	160,630
88,582	-5,738	328,760	160,572
89,597	-5,891	328,716	160,365
90,611	-5,764	328,616	160,445
91,626	-5,600	328,437	160,526
92,641	-5,649	328,068	160,277
93,655	-5,866	327,823	159,901
94,670	-5,806	327,464	159,777
95,684	-5,706	327,244	159,768
96,699	-5,591	326,996	159,761
97,714	-5,804	326,789	159,408
98,728	-6,008	326,554	159,052
99,743	-6,126	326,345	158,805
100,757	-6,009	325,940	158,724
101,772	-5,990	325,716	158,622
102,787	-5,803	325,535	158,727
103,801	-5,689	325,240	158,694
104,816	-5,574	325,110	158,745
105,830	-5,616	325,073	158,665
106,845	-5,612	324,961	158,601
107,860	-5,530	324,512	158,459
108,874	-5,627	324,216	158,194
109,889	-5,417	323,847	158,230
110,903	-5,632	323,699	157,907
111,918	-5,580	323,550	157,877
112,933	-5,798	323,444	157,571
113,947	-5,638	323,200	157,615
114,962	-5,477	322,785	157,575
115,976	-5,597	322,708	157,392
116,991	-5,631	322,276	157,130
118,006	-5,763	322,187	156,928
119,020	-5,585	322,064	157,049
120,035	-5,444	321,902	157,110
121,049	-5,583	321,707	156,848
122,064	-5,488	321,479	156,827
123,079	-5,646	321,175	156,493
124,093	-5,582	320,803	156,368
125,108	-5,818	320,642	156,018
126,122	-6,004	320,167	155,570
127,137	-6,149	319,983	155,310
128,151	-5,930	319,887	155,487
129,166	-5,721	319,633	155,577
130,181	-5,961	319,367	155,173
131,195	-6,015	319,143	154,991
132,210	-5,784	318,914	155,117
133,224	-5,649	318,806	155,197
134,239	-5,560	318,716	155,235
135,254	-5,547	318,396	155,080
136,268	-5,717	318,069	154,723
137,283	-5,881	317,688	154,347
138,297	-6,104	317,445	153,975
139,312	-5,835	317,151	154,108
140,327	-5,680	317,229	154,299
141,341	-5,363	317,076	154,553
142,356	-5,228	316,846	154,571
143,370	-5,350	316,720	154,366
144,385	-5,304	316,488	154,288
145,400	-5,326	316,236	154,128
146,414	-5,202	315,902	154,084
147,429	-5,305	315,919	153,968
148,443	-5,183	315,426	153,845
149,458	-5,350	315,490	153,683
150,473	-5,281	315,094	153,551
151,487	-5,311	314,777	153,350
152,502	-5,288	314,687	153,318
153,516	-5,493	314,497	152,993
154,531	-5,154	314,184	153,187
155,546	-5,163	313,892	153,022
156,560	-5,334	313,807	152,786
157,575	-5,443	313,469	152,491
158,589	-5,394	313,335	152,464
159,604	-5,239	313,068	152,485
160,619	-5,194	312,790	152,384
161,633	-5,316	312,689	152,192
162,648	-5,209	312,439	152,170
163,662	-5,244	312,217	152,012
164,677	-5,386	312,181	151,830
165,692	-5,187	311,907	151,893
166,706	-5,165	311,781	151,841
167,721	-5,222	311,468	151,615
168,735	-5,133	311,290	151,610
169,750	-5,254	311,057	151,355
170,764	-5,135	310,967	151,423
171,779	-5,033	310,845	151,457
172,794	-5,112	310,552	151,218
173,808	-5,407	310,429	150,835
174,823	-5,676	309,900	150,282
175,837	-6,046	309,686	149,777
176,852	-5,319	309,601	150,484
177,867	-4,973	309,459	150,764
178,881	-5,127	309,336	150,529
179,896	-5,244	309,180	150,318
180,910	-5,272	308,960	150,168
181,925	-5,134	308,724	150,184
182,940	-5,190	308,553	150,029
183,954	-4,995	308,155	150,025
184,969	-5,234	308,075	149,724
185,983	-5,280	307,951	149,602
186,998	-5,138	307,680	149,605
188,013	-5,058	307,407	149,542
189,027	-5,034	307,201	149,453
190,042	-4,976	307,029	149,417
191,056	-4,842	306,818	149,440
192,071	-5,019	306,705	149,188
193,086	-4,796	306,468	149,290
194,100	-4,975	306,071	148,899
195,115	-4,904	306,022	148,935
196,129	-4,978	305,782	148,727
197,144	-4,863	305,600	148,745
198,159	-4,836	305,319	148,623
199,173	-4,955	305,304	148,480
200,188	-4,840	304,971	148,423
201,202	-4,982	304,589	148,077
202,217	-5,695	304,324	147,203
203,232	-5,558	303,833	147,093
204,246	-5,311	303,929	147,380
205,261	-4,982	303,713	147,599
206,275	-4,996	303,553	147,494
207,290	-4,982	303,486	147,462
208,304	-4,942	303,380	147,439
209,319	-5,014	303,017	147,176
210,334	-4,899	302,731	147,141
211,348	-4,880	302,565	147,067
212,363	-4,900	302,314	146,912
213,377	-4,948	302,296	146,840
214,392	-5,092	302,054	146,563
215,407	-5,198	301,679	146,260
216,421	-5,328	301,537	146,046
217,436	-5,309	301,318	145,946
218,450	-5,174	301,098	145,964
219,465	-5,186	301,116	145,947
220,480	-5,102	300,815	145,874
221,494	-5,237	300,733	145,683
222,509	-5,034	300,358	145,695
223,523	-5,109	300,187	145,523
224,538	-4,982	300,125	145,608
225,553	-5,049	300,018	145,476
226,567	-4,963	299,768	145,428
227,582	-4,874	299,714	145,479
228,596	-4,846	299,351	145,318
229,611	-4,856	299,167	145,205
230,626	-4,930	298,913	144,995
231,640	-5,308	298,557	144,429
232,655	-5,561	298,237	144,008
233,669	-5,749	298,082	143,732
234,684	-5,663	297,822	143,679
235,699	-5,501	297,841	143,838
236,713	-5,466	297,754	143,819
237,728	-5,419	297,452	143,707
238,742	-5,114	297,236	143,894
239,757	-5,124	297,153	143,831
240,772	-5,048	297,072	143,856
241,786	-5,152	296,825	143,619
242,801	-5,289	296,536	143,330
243,815	-5,235	296,332	143,272
244,830	-5,130	296,100	143,252
245,844	-5,362	295,962	142,942
246,859	-5,345	295,636	142,788
247,874	-5,269	295,609	142,837
248,888	-5,304	295,411	142,695
249,903	-4,983	295,413	143,002
250,917	-4,985	295,250	142,908
251,932	-4,656	295,161	143,178
252,947	-3,679	295,320	144,212
253,961	-3,955	294,992	143,765
254,976	-2,885	295,327	144,976
255,990	-1,125	295,739	146,911
257,005	-1,333	295,764	146,704
258,020	0,783	296,110	148,960
259,034	1,288	296,221	149,504
260,049	1,069	296,139	149,232
261,063	1,217	295,786	149,188
262,078	1,464	295,939	149,496
263,093	2,105	295,843	150,068
264,107	2,046	295,658	149,903
265,122	2,049	295,563	149,843
266,136	2,270	295,521	150,027
267,151	1,937	295,237	149,541
268,166	1,946	294,809	149,320
269,180	1,908	294,674	149,200
270,195	1,990	294,510	149,185
271,209	2,111	294,193	149,131
272,224	1,925	293,952	148,812
273,239	1,700	293,834	148,518
274,253	1,679	293,753	148,444
275,268	2,345	293,507	148,958
276,282	2,203	293,278	148,690
277,297	1,613	293,114	148,016
278,312	1,758	292,928	148,051
279,326	2,054	292,736	148,230
280,341	2,010	292,610	148,110
281,355	2,106	292,381	148,074
282,370	2,016	292,150	147,857
283,384	1,886	292,139	147,711
284,399	2,077	291,969	147,798
285,414	1,993	291,814	147,625
286,428	2,048	291,533	147,523
287,443	1,914	291,335	147,279
288,457	1,848	291,011	147,038
289,472	1,635	290,880	146,752
290,487	1,982	290,562	146,915
291,501	1,702	290,355	146,526
292,516	1,461	290,191	146,197
293,530	1,469	290,037	146,114
294,545	1,818	289,823	146,330
295,560	1,895	289,679	146,319
296,574	1,671	289,578	146,039
297,589	1,922	289,429	146,193
298,603	1,925	289,346	146,141
299,618	2,175	288,900	146,143
300,633	1,952	288,879	145,905
301,647	2,100	288,706	145,947
302,662	2,077	288,562	145,839
303,676	1,813	288,289	145,434
304,691	1,486	287,878	144,900
305,706	1,299	287,633	144,585
306,720	1,146	287,355	144,286
307,735	1,061	287,425	144,226
308,749	1,462	287,209	144,489
309,764	1,549	287,014	144,461
310,779	1,210	286,759	143,997
311,793	1,244	286,543	143,908
312,808	1,334	286,248	143,832
313,822	1,239	286,211	143,711
314,837	1,202	285,982	143,548
315,852	0,872	285,802	143,130
316,866	1,003	285,652	143,167
317,881	1,248	285,460	143,290
318,895	1,415	285,103	143,257
319,910	1,106	284,987	142,893
320,925	1,088	284,956	142,848
321,939	1,247	284,867	142,941
322,954	1,541	284,511	143,028
323,968	1,336	284,514	142,823
324,983	1,494	284,460	142,932
325,997	1,452	284,014	142,656
327,012	1,543	283,914	142,679
328,027	1,373	283,776	142,437
329,041	1,460	283,287	142,260
330,056	1,399	283,280	142,186
331,070	1,443	283,090	142,120
332,085	1,429	282,722	141,910
333,100	1,539	282,779	142,029
334,114	1,220	282,617	141,636
335,129	1,237	282,336	141,498
336,143	1,481	282,301	141,697
337,158	1,684	282,145	141,795
338,173	1,641	281,823	141,581
339,187	1,360	281,779	141,283
340,202	1,393	281,417	141,120
341,216	1,798	281,474	141,515
342,231	1,764	281,154	141,309
343,246	1,624	280,989	141,083
344,260	1,481	280,762	140,823
345,275	1,580	280,788	140,916
346,289	1,890	280,767	141,182
347,304	1,670	280,395	140,777
348,319	1,647	280,154	140,622
349,333	1,569	279,936	140,428
350,348	1,839	279,886	140,641
351,362	1,895	279,747	140,611
352,377	1,998	279,474	140,556
353,392	2,041	279,400	140,546
354,406	2,091	279,334	140,547
355,421	192,253	1328,191	1402,020
356,435	155,576	1456,007	1402,064
