DTS Sentinel unit serial number:	SN410029Multiplexer serial number:	ORYXHardware model number:	OX2-SRSoftware version number:	ORYX F/W v4,00 Oryx Data Collector v3.7.2.0data status	okinstallation	B4 Nyhavnadifferential loss correction	single-endedforward channel	channel 2reverse channel	N/Adate	2023/12/18time	21:25:13forward acquisition time	300,00reverse acquisition time	0,00gamma	499,1914k internal	0,3124k external	0,3124temperature offset calibration	1,0000default loss term (dB/km)	0,3820temperature slope calibration	1,0000multiplexer offset coefficient	1,0000multiplexer slope coefficient	1,0000fibre end	0,00T internal ref (°C)	21,84T ext. ref 1 (°C)	7,12T ext. ref 2 (°C)	7,09length (m)	temperature (°C)	Stokes	anti-Stokes-744,400	260,113	-0,126	-0,163
-743,385	292,049	-0,118	0,160
-742,371	-123,627	0,116	0,013
-741,356	72,426	-0,130	0,101
-740,342	518,496	0,075	-0,131
-739,327	75,301	-0,198	0,156
-738,312	76,128	-0,100	-0,079
-737,298	-5,352	-0,223	0,114
-736,283	223,161	0,050	-0,060
-735,269	-15,766	-0,199	-0,094
-734,254	-43,315	0,110	-0,041
-733,239	-95,775	-0,384	0,076
-732,225	-67,173	0,152	-0,044
-731,210	631,558	0,020	-0,038
-730,196	-145,638	0,109	-0,007
-729,181	434,225	0,065	-0,105
-728,167	800,000	0,028	0,076
-727,152	-200,000	0,000	-0,010
-726,137	-200,000	0,005	0,026
-725,123	800,000	-0,009	0,021
-724,108	-179,687	-0,049	-0,001
-723,094	229,839	-0,028	0,035
-722,079	-84,449	-0,124	0,029
-721,064	-200,000	0,005	0,087
-720,050	-200,000	0,010	-0,060
-719,035	-85,832	-0,051	-0,012
-718,021	-83,840	-0,086	-0,020
-717,006	-68,302	-0,147	-0,042
-715,991	-73,058	-0,170	0,046
-714,977	800,000	0,046	-0,137
-713,962	800,000	0,024	-0,064
-712,948	341,099	-0,089	-0,130
-711,933	-154,872	-0,183	0,009
-710,918	391,186	-0,085	0,132
-709,904	-113,207	0,037	-0,005
-708,889	-200,000	-0,018	-0,119
-707,875	800,000	0,034	-0,092
-706,860	-200,000	0,005	-0,065
-705,845	-100,550	-0,059	-0,011
-704,831	-200,000	-0,004	0,020
-703,816	-111,939	0,040	0,006
-702,802	-108,482	-0,062	-0,010
-701,787	-200,000	0,004	0,043
-700,772	-200,000	0,011	0,108
-699,758	-45,941	0,030	0,011
-698,743	-61,280	0,030	-0,009
-697,729	125,285	-0,035	-0,033
-696,714	-97,259	-0,132	0,025
-695,699	558,901	0,028	-0,051
-694,685	-200,000	-0,030	-0,146
-693,670	238,458	-0,078	-0,097
-692,656	-200,000	-0,001	0,030
-691,641	51,652	-0,010	0,007
-690,627	288,087	0,062	-0,083
-689,612	800,000	-0,024	0,053
-688,597	-200,000	-0,007	0,115
-687,583	-164,494	0,117	0,004
-686,568	-7,665	-0,077	-0,039
-685,554	31,214	0,076	-0,048
-684,539	-43,765	0,097	-0,036
-683,524	-200,000	-0,035	-0,120
-682,510	41,940	0,104	-0,070
-681,495	615,193	0,045	0,084
-680,481	-200,000	0,011	-0,067
-679,466	-73,600	0,040	0,011
-678,451	87,290	-0,086	-0,071
-677,437	64,292	-0,004	0,003
-676,422	534,020	0,039	-0,068
-675,408	464,085	0,109	0,182
-674,393	800,000	0,018	-0,044
-673,378	338,831	-0,086	-0,124
-672,364	-43,000	-0,128	-0,048
-671,349	-200,000	0,016	0,055
-670,335	-31,258	-0,169	0,070
-669,320	-83,008	0,054	0,013
-668,305	-200,000	0,010	-0,046
-667,291	136,162	0,030	-0,029
-666,276	71,190	-0,071	-0,054
-665,262	199,095	0,047	0,054
-664,247	-200,000	-0,009	0,065
-663,232	2,439	0,123	0,066
-662,218	800,000	0,014	0,045
-661,203	-53,578	0,137	-0,046
-660,189	-103,547	-0,041	-0,007
-659,174	-200,000	0,014	-0,091
-658,159	173,671	-0,030	-0,032
-657,145	-200,000	0,006	0,027
-656,130	-76,198	-0,167	-0,043
-655,116	800,000	0,051	-0,113
-654,101	-93,662	-0,080	0,016
-653,086	232,657	0,040	0,049
-652,072	800,000	0,008	-0,020
-651,057	67,426	-0,188	-0,142
-650,043	-95,589	-0,105	-0,021
-649,028	14,189	0,027	0,015
-648,014	37,109	-0,034	0,022
-646,999	800,000	0,043	-0,090
-645,984	-200,000	0,016	-0,139
-644,970	398,869	0,074	-0,115
-643,955	-200,000	0,004	0,014
-642,941	-113,210	0,045	-0,006
-641,926	223,811	0,088	-0,106
-640,911	439,396	-0,013	-0,021
-639,897	-71,175	0,140	0,039
-638,882	-200,000	0,010	0,196
-637,868	800,000	-0,015	-0,033
-636,853	329,331	-0,055	-0,078
-635,838	-200,000	-0,042	-0,160
-634,824	207,807	0,063	0,073
-633,809	136,862	-0,198	0,192
-632,795	-165,613	-0,069	-0,002
-631,780	-146,576	-0,116	0,007
-630,765	-33,081	-0,045	-0,018
-629,751	-30,731	-0,081	0,034
-628,736	-200,000	-0,015	-0,098
-627,722	16,603	-0,111	0,065
-626,707	134,416	0,094	0,091
-625,692	-200,000	0,009	0,095
-624,678	800,000	-0,015	0,034
-623,663	168,918	0,014	-0,015
-622,649	3,319	-0,105	0,056
-621,634	456,325	-0,102	-0,168
-620,619	-200,000	-0,007	-0,179
-619,605	-70,308	-0,047	-0,013
-618,590	165,811	0,050	-0,053
-617,576	-116,732	0,120	0,016
-616,561	-129,159	-0,180	0,018
-615,546	-200,000	0,004	0,014
-614,532	800,000	-0,033	-0,082
-613,517	434,678	0,037	0,060
-612,503	-51,158	-0,080	-0,028
-611,488	221,895	-0,035	-0,041
-610,474	800,000	-0,019	-0,044
-609,459	-34,721	0,062	0,025
-608,444	236,106	-0,027	0,033
-607,430	80,201	0,050	0,040
-606,415	-200,000	0,017	-0,070
-605,401	488,551	-0,030	-0,051
-604,386	-200,000	-0,004	0,052
-603,371	-59,865	0,126	0,040
-602,357	18,128	-0,055	0,032
-601,342	-6,525	-0,138	-0,070
-600,328	800,000	0,017	-0,046
-599,313	298,179	0,025	0,035
-598,298	-200,000	0,001	0,065
-597,284	800,000	0,009	0,025
-596,269	191,998	-0,116	0,130
-595,255	-101,235	0,027	0,005
-594,240	-71,641	-0,049	0,014
-593,225	-200,000	-0,021	0,074
-592,211	800,000	-0,064	0,149
-591,196	4,512	-0,040	-0,022
-590,182	-200,000	-0,005	-0,033
-589,167	-200,000	0,008	0,040
-588,152	-79,528	-0,074	0,018
-587,138	350,295	-0,044	0,065
-586,123	115,663	0,073	0,066
-585,109	776,779	-0,061	-0,125
-584,094	800,000	0,036	0,112
-583,079	800,000	0,060	0,178
-582,065	800,000	0,075	0,186
-581,050	-99,561	0,146	-0,027
-580,036	-200,000	0,002	-0,061
-579,021	800,000	-0,048	-0,123
-578,006	-120,465	-0,022	0,003
-576,992	257,898	-0,073	0,093
-575,977	-200,000	0,004	0,044
-574,963	-10,165	0,088	-0,043
-573,948	-93,673	-0,078	-0,016
-572,934	-91,664	-0,061	-0,013
-571,919	-200,000	-0,020	-0,100
-570,904	14,850	-0,086	0,050
-569,890	800,000	-0,025	-0,079
-568,875	160,756	-0,017	0,018
-567,861	595,360	0,030	0,055
-566,846	79,142	-0,065	0,051
-565,831	325,088	-0,054	-0,076
-564,817	-200,000	-0,015	-0,080
-563,802	173,685	-0,134	-0,143
-562,788	-53,626	-0,045	0,015
-561,773	-124,581	-0,109	-0,012
-560,758	745,680	0,012	-0,025
-559,744	-200,000	0,014	-0,056
-558,729	800,000	0,029	-0,088
-557,715	125,243	-0,068	0,064
-556,700	-83,607	-0,083	0,019
-555,685	-120,804	0,128	-0,016
-554,671	13,401	0,087	-0,050
-553,656	394,943	0,110	-0,170
-552,642	612,528	-0,074	0,138
-551,627	-200,000	0,004	0,154
-550,612	791,350	0,033	-0,067
-549,598	477,396	0,043	-0,071
-548,583	-87,979	-0,130	-0,029
-547,569	104,908	0,146	-0,128
-546,554	-200,000	-0,012	0,099
-545,539	-147,756	-0,134	0,008
-544,525	-200,000	-0,007	-0,058
-543,510	-154,213	0,039	0,002
-542,496	-78,894	-0,125	0,031
-541,481	-20,631	-0,102	0,046
-540,466	-200,000	0,017	0,061
-539,452	430,003	-0,055	-0,088
-538,437	-127,496	-0,062	-0,007
-537,423	800,000	0,043	0,094
-536,408	-41,512	-0,096	-0,036
-535,393	273,253	0,076	-0,100
-534,379	800,000	0,015	-0,044
-533,364	139,605	0,016	0,015
-532,350	243,560	-0,049	-0,061
-531,335	251,417	0,060	0,075
-530,321	176,053	0,090	0,097
-529,306	-24,400	-0,037	0,016
-528,291	-20,013	-0,095	-0,043
-527,277	691,805	-0,023	-0,044
-526,262	-200,000	0,003	-0,128
-525,248	751,946	-0,055	-0,110
-524,233	100,088	0,079	0,068
-523,218	-28,443	0,066	0,028
-522,204	194,074	-0,083	-0,094
-521,189	800,000	0,012	0,026
-520,175	-174,794	-0,058	-0,001
-519,160	340,516	0,091	-0,131
-518,145	-200,000	-0,004	0,057
-517,131	-160,162	0,008	-0,000
-516,116	116,391	-0,020	0,018
-515,102	-40,838	-0,133	-0,051
-514,087	63,868	0,068	-0,050
-513,072	-200,000	0,000	-0,114
-512,058	6,291	0,028	0,015
-511,043	-200,000	0,009	-0,060
-510,029	86,633	-0,014	-0,011
-509,014	242,176	0,039	-0,049
-507,999	197,732	-0,011	-0,013
-506,985	-53,827	-0,108	0,036
-505,970	465,879	0,036	0,060
-504,956	-44,678	0,065	0,024
-503,941	-16,163	-0,111	0,052
-502,926	-90,009	0,156	-0,033
-501,912	-200,000	0,004	0,089
-500,897	370,790	0,032	0,048
-499,883	38,345	-0,039	0,025
-498,868	2,887	-0,048	0,026
-497,853	800,000	0,056	-0,121
-496,839	-200,000	0,023	-0,083
-495,824	800,000	0,053	-0,121
-494,810	-200,000	0,023	-0,118
-493,795	-70,459	0,086	0,024
-492,781	-200,000	0,009	0,093
-491,766	27,265	-0,061	0,038
-490,751	-200,000	-0,007	0,031
-489,737	697,959	-0,034	0,066
-488,722	245,349	0,067	-0,084
-487,708	-200,000	-0,001	-0,043
-486,693	800,000	0,026	-0,072
-485,678	306,334	-0,070	0,096
-484,664	-82,337	-0,129	-0,031
-483,649	-200,000	-0,004	0,052
-482,635	112,377	0,129	-0,115
-481,620	614,023	0,030	0,055
-480,605	43,341	-0,048	0,032
-479,591	800,000	0,027	0,057
-478,576	-200,000	0,014	-0,067
-477,562	-200,000	0,008	0,147
-476,547	-200,000	0,008	0,043
-475,532	176,543	-0,055	0,059
-474,518	-39,763	-0,011	-0,004
-473,503	239,781	-0,023	-0,028
-472,489	55,273	0,107	0,076
-471,474	194,047	-0,060	-0,068
-470,459	800,000	0,009	-0,025
-469,445	-48,079	-0,069	-0,024
-468,430	-164,765	-0,070	-0,002
-467,416	-200,000	-0,002	0,244
-466,401	607,833	-0,055	0,101
-465,386	-200,000	0,050	0,172
-464,372	233,603	-0,036	0,044
-463,357	800,000	-0,013	0,030
-462,343	-200,000	-0,022	-0,078
-461,328	-56,779	0,062	0,020
-460,313	800,000	0,024	-0,078
-459,299	97,104	0,056	-0,047
-458,284	433,832	-0,039	0,062
-457,270	251,432	0,053	0,066
-456,255	-53,252	-0,129	-0,043
-455,241	-200,000	0,026	0,118
-454,226	-200,000	0,052	0,213
-453,211	800,000	-0,015	-0,042
-452,197	-200,000	0,008	-0,068
-451,182	-13,336	-0,067	0,032
-450,168	-200,000	0,004	0,137
-449,153	-10,528	-0,173	0,084
-448,138	800,000	0,019	-0,049
-447,124	654,123	-0,038	-0,071
-446,109	-200,000	-0,030	-0,105
-445,095	-200,000	0,014	0,062
-444,080	277,963	0,121	0,159
-443,065	664,059	0,021	0,040
-442,051	800,000	-0,041	-0,093
-441,036	10,620	0,099	-0,056
-440,022	-97,395	0,121	-0,023
-439,007	-200,000	-0,016	0,140
-437,992	-28,961	0,089	0,037
-436,978	789,279	0,065	0,131
-435,963	-200,000	0,008	0,105
-434,949	70,548	-0,106	0,081
-433,934	800,000	-0,040	-0,090
-432,919	-164,468	-0,135	0,004
-431,905	-200,000	0,001	0,020
-430,890	-74,683	-0,057	-0,015
-429,876	-200,000	0,017	0,111
-428,861	102,797	0,103	-0,089
-427,846	332,122	0,078	0,111
-426,832	-141,463	0,090	0,007
-425,817	31,802	-0,113	0,072
-424,803	-200,000	0,004	0,054
-423,788	-200,000	-0,004	0,040
-422,773	-200,000	0,012	0,052
-421,759	800,000	-0,032	0,089
-420,744	-8,476	-0,104	-0,051
-419,730	-200,000	0,003	-0,023
-418,715	-200,000	-0,004	-0,036
-417,701	-200,000	-0,001	0,073
-416,686	663,030	-0,046	-0,088
-415,671	-64,566	0,059	0,017
-414,657	-173,513	0,104	-0,002
-413,642	-200,000	0,009	0,174
-412,628	119,731	0,108	-0,099
-411,613	72,154	0,081	0,062
-410,598	-87,930	0,096	0,021
-409,584	478,249	-0,024	0,039
-408,569	663,079	0,057	-0,109
-407,555	-51,935	-0,034	0,012
-406,540	-200,000	0,000	-0,210
-405,525	-200,000	0,017	-0,174
-404,511	-54,062	0,135	-0,045
-403,496	-92,726	-0,006	0,001
-402,482	800,000	-0,033	0,083
-401,467	-200,000	0,017	0,134
-400,452	48,545	0,174	0,120
-399,438	-200,000	-0,014	-0,123
-398,423	-79,212	-0,053	-0,013
-397,409	262,435	0,056	-0,072
-396,394	-123,669	-0,071	-0,008
-395,379	298,361	0,041	0,056
-394,365	-150,948	0,012	0,001
-393,350	87,032	0,020	0,016
-392,336	312,016	-0,012	-0,017
-391,321	18,937	-0,044	-0,026
-390,306	-200,000	0,032	0,109
-389,292	-21,159	-0,043	-0,019
-388,277	191,762	0,030	-0,034
-387,263	94,808	0,025	-0,021
-386,248	-200,000	-0,001	0,132
-385,233	43,602	0,131	-0,088
-384,219	-200,000	0,001	0,110
-383,204	199,366	0,027	0,031
-382,190	-92,955	-0,058	0,012
-381,175	800,000	-0,008	-0,017
-380,160	256,634	0,091	0,115
-379,146	800,000	-0,030	0,081
-378,131	687,370	-0,011	-0,022
-377,117	633,608	-0,081	-0,152
-376,102	580,448	-0,011	-0,021
-375,088	-21,883	-0,026	0,012
-374,073	45,290	-0,026	0,018
-373,058	101,467	0,116	0,099
-372,044	108,373	-0,068	0,059
-371,029	-200,000	-0,009	-0,043
-370,015	-125,972	-0,117	-0,013
-369,000	-145,569	0,090	-0,006
-367,985	-62,900	0,052	0,016
-366,971	180,866	-0,035	0,037
-365,956	-200,000	-0,029	-0,201
-364,942	-19,578	0,151	0,068
-363,927	-156,876	-0,025	0,001
-362,912	-200,000	0,005	0,035
-361,898	800,000	-0,022	0,061
-360,883	-200,000	-0,011	0,168
-359,869	800,000	0,059	-0,120
-358,854	-200,000	0,015	0,223
-357,839	-126,528	0,110	0,012
-356,825	161,904	-0,062	0,064
-355,810	414,338	-0,038	-0,060
-354,796	645,462	-0,078	0,146
-353,781	800,000	0,022	-0,063
-352,766	-200,000	-0,013	-0,193
-351,752	325,393	-0,027	-0,038
-350,737	97,878	-0,053	-0,044
-349,723	71,087	-0,008	-0,006
-348,708	-18,940	-0,080	-0,036
-347,693	169,799	-0,073	0,076
-346,679	358,593	-0,053	0,078
-345,664	800,000	0,039	-0,085
-344,650	63,546	0,085	-0,063
-343,635	-169,877	0,160	0,004
-342,620	189,079	0,064	0,070
-341,606	-196,710	0,250	-0,001
-340,591	412,160	0,019	0,030
-339,577	-76,344	-0,054	0,014
-338,562	-200,000	0,010	-0,106
-337,548	800,000	-0,054	0,130
-336,533	401,359	0,083	-0,128
-335,518	-63,680	-0,027	0,008
-334,504	-174,177	0,077	0,002
-333,489	198,095	-0,041	0,046
-332,475	2,106	-0,104	-0,055
-331,460	800,000	-0,037	0,088
-330,445	127,436	0,040	0,038
-329,431	-200,000	-0,009	-0,218
-328,416	507,137	0,072	-0,123
-327,402	8,047	0,125	0,069
-326,387	380,169	0,130	0,196
-325,372	-132,589	0,074	-0,007
-324,358	-200,000	0,016	0,084
-323,343	-27,563	0,113	0,048
-322,329	-103,022	0,105	-0,018
-321,314	642,784	0,040	0,075
-320,299	-200,000	0,052	0,173
-319,285	66,626	-0,073	-0,054
-318,270	-200,000	0,005	0,051
-317,256	733,045	0,058	-0,114
-316,241	-200,000	-0,010	-0,161
-315,226	-200,000	0,005	-0,207
-314,212	-200,000	0,031	0,124
-313,197	-200,000	0,005	0,046
-312,183	-166,744	-0,080	-0,002
-311,168	-80,883	-0,015	-0,004
-310,153	-200,000	-0,015	-0,083
-309,139	800,000	0,028	-0,090
-308,124	107,681	0,057	-0,050
-307,110	-123,895	0,095	-0,011
-306,095	-24,572	0,021	-0,009
-305,080	-171,400	-0,054	0,001
-304,066	594,384	-0,048	0,087
-303,051	-200,000	-0,012	0,065
-302,037	162,556	0,066	-0,068
-301,022	-200,000	0,024	0,129
-300,008	203,874	0,085	-0,097
-298,993	110,055	0,030	-0,026
-297,978	395,199	-0,058	0,089
-296,964	739,207	-0,048	0,095
-295,949	-200,000	-0,008	-0,063
-294,935	-200,000	0,008	0,053
-293,920	-68,559	-0,048	-0,013
-292,905	78,249	0,097	0,076
-291,891	156,847	0,081	-0,082
-290,876	-67,997	-0,075	-0,021
-289,862	8,265	-0,039	-0,021
-288,847	-92,855	0,032	-0,007
-287,832	84,741	-0,089	-0,071
-286,818	800,000	-0,037	-0,092
-285,803	188,632	-0,030	-0,033
-284,789	102,528	0,127	0,109
-283,774	165,280	0,056	0,058
-282,759	98,535	-0,049	0,042
-281,745	125,684	-0,136	-0,126
-280,730	468,377	-0,015	-0,024
-279,716	3,717	0,126	0,067
-278,701	62,392	0,068	-0,049
-277,686	-75,017	0,018	-0,005
-276,672	-200,000	0,017	0,072
-275,657	138,302	0,083	-0,080
-274,643	800,000	0,035	-0,080
-273,628	-200,000	0,000	-0,137
-272,613	-89,478	-0,044	0,009
-271,599	-16,201	0,135	0,063
-270,584	620,990	-0,022	-0,041
-269,570	418,031	0,052	0,082
-268,555	-198,551	0,106	-0,000
-267,540	-49,332	-0,164	-0,057
-266,526	-151,986	-0,041	-0,002
-265,511	12,888	-0,055	-0,031
-264,497	-66,133	-0,122	0,035
-263,482	12,184	0,107	0,060
-262,467	28,957	0,105	0,065
-261,453	103,436	-0,016	-0,014
-260,438	219,355	-0,014	0,017
-259,424	317,992	-0,126	-0,175
-258,409	-200,000	0,044	-0,179
-257,395	375,480	-0,045	-0,067
-256,380	-113,024	0,016	-0,002
-255,365	449,977	-0,065	0,104
-254,351	-39,539	0,154	0,059
-253,336	104,480	-0,067	0,058
-252,322	-108,758	-0,058	-0,009
-251,307	25,428	-0,028	-0,017
-250,292	28,318	-0,019	0,012
-249,278	-200,000	0,021	0,084
-248,263	-87,248	0,083	-0,018
-247,249	74,774	0,056	0,043
-246,234	-93,935	0,048	0,010
-245,219	-89,150	-0,207	-0,044
-244,205	-64,279	-0,126	0,037
-243,190	-162,482	-0,134	-0,005
-242,176	800,000	0,034	-0,078
-241,161	180,055	0,020	0,021
-240,146	800,000	0,056	0,121
-239,132	50,981	-0,094	0,065
-238,117	-200,000	0,016	-0,097
-237,103	112,763	0,046	0,040
-236,088	82,525	-0,056	-0,044
-235,073	-55,472	-0,065	-0,021
-234,059	116,544	0,071	0,064
-233,044	800,000	-0,046	-0,124
-232,030	60,544	0,012	-0,009
-231,015	800,000	-0,056	-0,158
-230,000	427,410	-0,056	0,088
-228,986	77,298	0,117	0,090
-227,971	338,945	-0,072	-0,103
-226,957	-200,000	0,003	0,023
-225,942	-34,243	0,121	0,048
-224,927	800,000	-0,036	0,105
-223,913	-200,000	-0,009	-0,102
-222,898	38,891	-0,056	-0,037
-221,884	149,293	-0,025	0,025
-220,869	466,441	0,047	0,077
-219,855	360,693	0,045	0,066
-218,840	800,000	-0,025	-0,071
-217,825	123,272	-0,034	0,031
-216,811	800,000	-0,051	0,130
-215,796	40,812	-0,166	0,109
-214,782	800,000	0,041	0,111
-213,767	-200,000	0,004	-0,083
-212,752	-153,752	0,145	-0,007
-211,738	678,365	-0,057	-0,109
-210,723	75,217	0,028	0,021
-209,709	143,554	-0,078	-0,076
-208,694	-127,440	0,062	0,006
-207,679	-200,000	-0,006	-0,162
-206,665	45,603	0,036	0,024
-205,650	-88,696	-0,017	-0,004
-204,636	228,373	-0,046	0,054
-203,621	-41,960	0,053	0,020
-202,606	-200,000	0,001	0,149
-201,592	47,573	-0,120	-0,082
-200,577	-176,778	-0,101	0,002
-199,563	720,789	-0,041	-0,081
-198,548	800,000	-0,039	0,105
-197,533	-142,709	0,043	0,003
-196,519	-1,328	-0,046	0,024
-195,504	-200,000	-0,018	0,120
-194,490	-77,167	-0,013	-0,003
-193,475	-115,444	-0,018	-0,002
-192,460	-200,000	0,019	-0,079
-191,446	315,964	0,077	0,106
-190,431	142,570	0,020	-0,019
-189,417	-29,486	-0,046	0,019
-188,402	800,000	0,025	-0,066
-187,387	-81,430	-0,108	-0,026
-186,373	104,305	-0,155	-0,133
-185,358	-200,000	0,037	-0,120
-184,344	0,479	0,095	0,049
-183,329	-104,953	-0,080	0,013
-182,315	-138,757	0,066	0,005
-181,300	800,000	0,015	0,047
-180,285	675,201	-0,092	-0,174
-179,271	800,000	0,061	-0,166
-178,256	623,458	-0,018	-0,033
-177,242	-200,000	-0,054	-0,240
-176,227	-200,000	-0,002	0,063
-175,212	800,000	-0,022	0,054
-174,198	-8,942	0,167	0,081
-173,183	-200,000	-0,001	0,035
-172,169	-200,000	0,017	-0,197
-171,154	107,836	0,077	-0,067
-170,139	94,941	0,020	-0,017
-169,125	-104,504	0,045	-0,007
-168,110	-173,441	0,105	0,002
-167,096	-145,862	0,063	-0,004
-166,081	382,514	-0,070	-0,105
-165,066	-200,000	-0,004	-0,086
-164,052	336,349	-0,051	-0,073
-163,037	191,078	-0,005	0,005
-162,023	800,000	0,030	0,097
-161,008	800,000	0,014	-0,037
-159,993	214,761	-0,043	0,049
-158,979	504,654	0,096	-0,163
-157,964	-200,000	-0,028	-0,100
-156,950	-200,000	0,030	-0,099
-155,935	75,977	-0,063	0,048
-154,920	-110,936	0,044	-0,006
-153,906	-200,000	0,011	0,041
-152,891	-170,890	0,045	0,001
-151,877	307,445	-0,031	-0,043
-150,862	800,000	0,035	-0,091
-149,847	-85,713	0,084	-0,019
-148,833	-66,715	-0,052	0,015
-147,818	800,000	-0,044	0,106
-146,804	-200,000	0,003	0,087
-145,789	-172,850	-0,063	0,001
-144,775	-200,000	-0,023	-0,113
-143,760	-200,000	-0,035	-0,200
-142,745	-200,000	0,006	-0,091
-141,731	-200,000	-0,020	0,078
-140,716	56,437	0,221	0,156
-139,702	-172,227	0,109	-0,002
-138,687	-49,622	-0,047	0,016
-137,672	-200,000	-0,014	-0,055
-136,658	-200,000	0,002	-0,048
-135,643	495,275	-0,021	-0,035
-134,629	-46,524	0,151	0,053
-133,614	154,880	0,048	-0,048
-132,599	-103,218	-0,054	-0,009
-131,585	731,308	0,003	0,007
-130,570	247,984	0,114	-0,140
-129,556	-95,634	0,090	-0,017
-128,541	-100,498	0,078	0,014
-127,526	-200,000	0,004	0,015
-126,512	0,712	0,141	-0,073
-125,497	651,151	-0,054	0,102
-124,483	89,109	0,020	0,016
-123,468	-70,115	-0,077	-0,021
-122,453	-17,998	-0,036	-0,016
-121,439	-200,000	0,014	0,113
-120,424	284,489	0,058	-0,077
-119,410	-200,000	-0,002	0,028
-118,395	-200,000	-0,048	0,000
-117,380	20,443	0,068	0,040
-116,366	561,758	-0,048	0,084
-115,351	126,955	0,066	0,061
-114,337	567,205	-0,066	-0,117
-113,322	-116,320	0,088	0,012
-112,307	-84,383	-0,208	0,048
-111,293	-110,288	0,067	-0,010
-110,278	243,206	0,109	-0,133
-109,264	800,000	-0,050	0,152
-108,249	-10,976	-0,113	-0,054
-107,234	431,753	0,054	-0,086
-106,220	235,005	-0,110	-0,132
-105,205	364,838	0,073	-0,107
-104,191	-200,000	0,001	0,038
-103,176	89,624	-0,037	0,030
-102,162	-200,000	0,043	-0,159
-101,147	69,763	-0,078	-0,058
-100,132	800,000	-0,094	-0,201
-99,118	-9,961	-0,082	-0,040
-98,103	159,740	-0,038	0,038
-97,089	48,100	-0,028	0,019
-96,074	141,407	-0,062	0,059
-95,059	122,759	-0,062	0,057
-94,045	286,495	0,027	-0,035
-93,030	-38,655	-0,110	0,042
-92,016	34,060	-0,047	0,030
-91,001	-127,374	0,097	-0,010
-89,986	188,540	0,057	0,062
-88,972	800,000	-0,057	0,136
-87,957	5,355	-0,085	0,045
-86,943	800,000	0,022	-0,061
-85,928	191,033	-0,023	-0,025
-84,913	800,000	0,016	-0,047
-83,899	-200,000	0,009	0,101
-82,884	-166,092	0,154	-0,005
-81,870	561,044	-0,072	-0,126
-80,855	246,537	0,022	0,027
-79,840	422,736	0,076	-0,118
-78,826	76,511	0,045	0,034
-77,811	-200,000	-0,001	-0,042
-76,797	69,382	-0,041	0,031
-75,782	140,746	0,122	-0,117
-74,767	35,107	0,053	-0,034
-73,753	-200,000	0,017	0,069
-72,738	81,007	0,058	-0,046
-71,724	342,561	-0,065	-0,092
-70,709	-200,000	0,001	0,065
-69,694	272,919	-0,048	0,062
-68,680	-51,784	-0,104	-0,035
-67,665	-200,000	0,004	-0,119
-66,651	293,511	0,100	0,133
-65,636	443,153	-0,061	0,097
-64,622	58,234	-0,125	0,089
-63,607	-133,626	-0,223	0,020
-62,592	670,754	-0,050	0,094
-61,578	-200,000	0,022	-0,092
-60,563	117,660	0,159	0,142
-59,549	211,862	-0,031	0,035
-58,534	-113,852	-1,345	-0,188
-57,519	462,343	-0,877	-1,425
-56,505	-200,000	-0,762	-4,443
-55,490	-53,081	0,477	-0,158
-54,476	800,000	4,987	11,666
-53,461	-200,000	13,897	253,893
-52,446	-200,000	694,104	2261,143
-51,432	598,350	1624,264	2933,620
-50,417	117,633	1632,874	1457,708
-49,403	73,588	1287,009	976,812
-48,388	37,333	1023,560	656,623
-47,373	23,962	981,516	585,678
-46,359	23,146	971,272	576,867
-45,344	22,128	966,773	570,848
-44,330	22,039	965,449	569,752
-43,315	21,879	963,965	568,333
-42,300	21,934	962,827	567,819
-41,286	21,889	961,940	567,126
-40,271	21,865	961,075	566,517
-39,257	21,877	960,017	565,907
-38,242	21,854	959,058	565,248
-37,227	21,773	958,446	564,600
-36,213	21,840	957,386	564,172
-35,198	21,858	956,399	563,627
-34,184	21,857	955,935	563,327
-33,169	21,791	955,129	562,616
-32,154	21,910	954,001	562,311
-31,140	21,863	953,364	561,762
-30,125	21,814	952,545	561,100
-29,111	21,847	951,565	560,608
-28,096	21,946	950,773	560,436
-27,082	21,864	950,272	559,857
-26,067	21,907	949,301	559,400
-25,052	21,876	948,748	558,953
-24,038	21,858	948,157	558,523
-23,023	21,915	947,354	558,210
-22,009	21,970	946,562	557,898
-20,994	21,946	945,985	557,460
-19,979	21,933	945,454	557,084
-18,965	21,875	944,972	556,591
-17,950	21,859	944,265	556,102
-16,936	21,850	943,527	555,617
-15,921	21,864	942,869	555,250
-14,906	21,734	942,380	554,529
-13,892	21,756	941,559	554,092
-12,877	21,776	940,838	553,710
-11,863	21,776	940,133	553,272
-10,848	21,818	939,759	553,163
-9,833	21,840	939,422	553,015
-8,819	21,843	938,763	552,614
-7,804	21,765	938,111	551,962
-6,790	21,700	937,455	551,347
-5,775	21,786	936,951	551,300
-4,760	21,756	936,072	550,667
-3,746	21,728	935,721	550,348
-2,731	21,608	934,872	549,450
-1,717	21,602	934,218	549,024
-0,702	21,593	933,561	548,589
0,313	21,396	932,863	548,387
1,327	23,932	930,395	554,856
2,342	31,564	808,543	502,869
3,356	26,241	509,450	307,727
4,371	1,628	374,542	194,832
5,386	-1,257	357,475	182,388
6,400	-2,317	351,599	178,090
7,415	-2,829	348,802	176,042
8,429	-2,802	347,480	175,391
9,444	-2,889	346,622	174,839
10,459	-2,834	345,911	174,530
11,473	-2,857	345,237	174,147
12,488	-2,743	344,482	173,885
13,502	-2,784	343,947	173,551
14,517	-2,741	343,587	173,406
15,531	-2,838	343,151	173,056
16,546	-2,710	342,778	173,003
17,561	-2,660	342,223	172,766
18,575	-2,796	341,960	172,458
19,590	-2,783	341,534	172,244
20,604	-2,624	341,191	172,242
21,619	-2,830	340,831	171,803
22,634	-2,767	340,405	171,646
23,648	-2,707	339,897	171,446
24,663	-2,839	339,990	171,322
25,677	-2,694	339,543	171,251
26,692	-2,865	339,286	170,907
27,707	-2,813	338,883	170,749
28,721	-2,715	338,619	170,714
29,736	-2,830	338,316	170,413
30,750	-2,909	337,999	170,146
31,765	-2,852	337,755	170,075
32,780	-2,680	337,371	170,066
33,794	-2,822	337,227	169,813
34,809	-2,781	336,851	169,656
35,823	-2,716	336,585	169,583
36,838	-2,800	336,393	169,374
37,853	-2,658	335,961	169,305
38,867	-2,915	335,898	168,961
39,882	-2,790	335,444	168,862
40,896	-2,762	335,275	168,795
41,911	-2,670	334,839	168,666
42,926	-2,879	334,588	168,284
43,940	-2,626	334,342	168,436
44,955	-2,670	333,952	168,174
45,969	-2,790	333,806	167,948
46,984	-2,754	333,715	167,928
47,999	-2,760	333,457	167,776
49,013	-2,990	333,211	167,375
50,028	-2,864	332,881	167,338
51,042	-2,753	332,429	167,222
52,057	-2,665	332,354	167,270
53,071	-2,854	332,106	166,915
54,086	-2,957	331,933	166,695
55,101	-2,788	331,515	166,663
56,115	-2,715	331,234	166,590
57,130	-2,883	331,166	166,350
58,144	-2,769	330,753	166,257
59,159	-2,726	330,266	166,047
60,174	-2,847	330,153	165,837
61,188	-2,815	330,092	165,829
62,203	-2,899	329,743	165,544
63,217	-2,675	329,506	165,663
64,232	-2,737	329,356	165,502
65,247	-2,809	328,856	165,155
66,261	-2,855	328,582	164,951
67,276	-2,776	328,525	164,997
68,290	-2,815	328,125	164,737
69,305	-2,786	327,969	164,677
70,320	-2,625	327,741	164,729
71,334	-2,809	327,494	164,383
72,349	-2,741	327,175	164,285
73,363	-2,781	326,883	164,079
74,378	-2,656	326,677	164,101
75,393	-2,721	326,434	163,891
76,407	-2,709	326,156	163,750
77,422	-2,771	325,959	163,568
78,436	-2,670	325,628	163,499
79,451	-2,592	325,418	163,467
80,466	-2,791	325,119	163,081
81,480	-2,707	324,805	163,001
82,495	-2,663	324,654	162,960
83,509	-2,620	324,356	162,844
84,524	-2,787	324,305	162,618
85,539	-2,584	323,920	162,635
86,553	-2,740	323,769	162,372
87,568	-2,688	323,516	162,289
88,582	-2,692	323,082	162,053
89,597	-2,672	323,021	162,029
90,611	-2,775	322,857	161,819
91,626	-2,694	322,458	161,694
92,641	-2,611	322,289	161,686
93,655	-2,616	321,994	161,519
94,670	-2,603	321,858	161,449
95,684	-2,692	321,534	161,175
96,699	-2,749	321,397	161,029
97,714	-2,782	321,251	160,906
98,728	-2,674	320,881	160,825
99,743	-2,803	320,570	160,513
100,757	-2,607	320,336	160,596
101,772	-2,671	320,120	160,403
102,787	-2,872	320,063	160,141
103,801	-2,790	319,781	160,074
104,816	-2,798	319,571	159,947
105,830	-2,688	319,080	159,807
106,845	-2,698	319,080	159,781
107,860	-2,667	318,818	159,670
108,874	-2,725	318,567	159,467
109,889	-2,654	318,405	159,448
110,903	-2,786	318,078	159,128
111,918	-2,923	317,981	158,916
112,933	-2,740	317,607	158,913
113,947	-2,782	317,379	158,739
114,962	-2,699	317,154	158,703
115,976	-2,625	316,913	158,648
116,991	-2,689	316,678	158,446
118,006	-2,748	316,570	158,315
119,020	-2,821	316,432	158,153
120,035	-2,591	316,088	158,216
121,049	-2,789	315,942	157,915
122,064	-2,650	315,656	157,907
123,079	-2,531	315,418	157,902
124,093	-2,746	315,258	157,577
125,108	-2,662	314,796	157,422
126,122	-2,832	314,785	157,220
127,137	-2,733	314,556	157,197
128,151	-2,675	314,312	157,124
129,166	-2,537	314,156	157,180
130,181	-2,781	313,802	156,727
131,195	-2,743	313,624	156,665
132,210	-2,785	313,405	156,497
133,224	-2,649	313,147	156,499
134,239	-2,704	312,921	156,314
135,254	-2,800	312,716	156,096
136,268	-2,627	312,445	156,130
137,283	-2,743	312,148	155,844
138,297	-2,725	311,932	155,742
139,312	-2,688	311,763	155,683
140,327	-2,740	311,452	155,458
141,341	-2,662	311,311	155,456
142,356	-2,609	311,087	155,388
143,370	-2,761	311,072	155,205
144,385	-2,595	310,674	155,169
145,400	-2,478	310,441	155,161
146,414	-2,629	310,259	154,897
147,429	-2,700	310,039	154,698
148,443	-2,650	309,794	154,616
149,458	-2,621	309,597	154,534
150,473	-2,770	309,455	154,292
151,487	-2,735	309,225	154,200
152,502	-2,523	308,996	154,296
153,516	-2,574	308,807	154,134
154,531	-2,595	308,420	153,905
155,546	-2,565	308,221	153,824
156,560	-2,735	308,038	153,540
157,575	-2,410	307,748	153,723
158,589	-2,827	307,629	153,213
159,604	-2,578	307,339	153,315
160,619	-2,500	307,210	153,318
161,633	-2,685	307,114	153,064
162,648	-2,635	307,002	153,047
163,662	-2,595	306,580	152,863
164,677	-2,642	306,457	152,740
165,692	-2,504	306,286	152,784
166,706	-2,530	306,088	152,645
167,721	-2,592	305,851	152,449
168,735	-2,586	305,600	152,317
169,750	-2,437	305,449	152,382
170,764	-2,396	305,213	152,294
171,779	-2,520	305,075	152,083
172,794	-2,815	305,027	151,740
173,808	-2,507	304,594	151,829
174,823	-2,616	304,358	151,585
175,837	-2,722	304,230	151,399
176,852	-2,485	303,977	151,504
177,867	-2,581	303,767	151,287
178,881	-2,569	303,533	151,169
179,896	-2,566	303,374	151,079
180,910	-2,638	303,131	150,871
181,925	-2,643	303,068	150,821
182,940	-2,628	302,879	150,729
183,954	-2,482	302,554	150,704
184,969	-2,607	302,414	150,492
185,983	-2,549	302,257	150,460
186,998	-2,514	301,984	150,347
188,013	-2,518	301,696	150,186
189,027	-2,541	301,577	150,090
190,042	-2,507	301,418	150,032
191,056	-2,627	301,260	149,818
192,071	-2,574	300,936	149,697
193,086	-2,632	300,835	149,574
194,100	-2,594	300,514	149,440
195,115	-2,483	300,305	149,436
196,129	-2,513	300,125	149,302
197,144	-2,487	299,874	149,191
198,159	-2,520	299,707	149,061
199,173	-2,703	299,556	148,786
200,188	-2,495	299,297	148,856
201,202	-2,698	299,051	148,514
202,217	-2,623	298,874	148,489
203,232	-2,572	298,630	148,406
204,246	-2,739	298,448	148,134
205,261	-2,582	298,069	148,091
206,275	-2,537	298,061	148,119
207,290	-2,526	297,824	147,999
208,304	-2,477	297,570	147,910
209,319	-2,600	297,463	147,719
210,334	-2,489	297,187	147,680
211,348	-2,420	296,998	147,642
212,363	-2,445	296,739	147,476
213,377	-2,524	296,677	147,352
214,392	-2,731	296,476	147,031
215,407	-2,491	296,261	147,153
216,421	-2,619	296,116	146,939
217,436	-2,649	295,897	146,787
218,450	-2,672	295,704	146,656
219,465	-2,748	295,497	146,464
220,480	-2,457	295,279	146,633
221,494	-2,514	294,998	146,424
222,509	-2,476	294,865	146,382
223,523	-2,492	294,769	146,306
224,538	-2,614	294,482	146,029
225,553	-2,485	294,295	146,052
226,567	-2,468	294,108	145,962
227,582	-2,499	294,037	145,883
228,596	-2,436	293,773	145,803
229,611	-2,654	293,557	145,466
230,626	-2,638	293,509	145,444
231,640	-2,537	293,181	145,369
232,655	-2,600	292,991	145,199
233,669	-2,608	292,738	145,054
234,684	-2,475	292,549	145,078
235,699	-2,587	292,436	144,899
236,713	-2,524	292,220	144,840
237,728	-2,548	292,121	144,755
238,742	-2,635	291,914	144,554
239,757	-2,562	291,594	144,454
240,772	-2,554	291,492	144,399
241,786	-2,390	291,212	144,409
242,801	-2,631	290,993	144,051
243,815	-2,687	290,863	143,918
244,830	-2,556	290,704	143,955
245,844	-2,504	290,417	143,851
246,859	-2,680	290,434	143,674
247,874	-2,783	290,128	143,410
248,888	-2,666	289,902	143,399
249,903	-2,502	289,647	143,421
250,917	-2,600	289,604	143,291
251,932	-2,619	289,253	143,086
252,947	-2,539	289,153	143,102
253,961	-2,889	288,929	142,637
254,976	-2,793	288,591	142,551
255,990	-2,979	288,385	142,256
257,005	-2,641	288,499	142,628
258,020	-0,717	289,065	144,770
259,034	0,882	289,504	146,534
260,049	1,462	289,598	147,134
261,063	1,874	289,561	147,503
262,078	2,123	289,570	147,737
263,093	2,498	289,385	147,994
264,107	2,677	289,353	148,138
265,122	2,730	289,146	148,070
266,136	2,870	289,137	148,189
267,151	2,802	288,874	147,975
268,166	2,931	288,634	147,964
269,180	2,958	288,394	147,854
270,195	2,882	288,176	147,655
271,209	2,913	287,945	147,554
272,224	2,839	287,882	147,437
273,239	2,847	287,629	147,302
274,253	2,754	287,358	147,060
275,268	2,686	287,158	146,879
276,282	2,709	287,028	146,821
277,297	2,682	286,878	146,706
278,312	2,749	286,547	146,588
279,326	2,748	286,410	146,505
280,341	2,699	286,284	146,380
281,355	2,466	286,138	146,068
282,370	2,662	286,010	146,178
283,384	2,745	285,603	146,036
284,399	2,550	285,515	145,792
285,414	2,773	285,289	145,876
286,428	2,636	285,187	145,680
287,443	2,770	284,898	145,647
288,457	2,615	284,804	145,438
289,472	2,466	284,360	145,057
290,487	2,615	284,326	145,169
291,501	2,594	284,011	144,975
292,516	2,604	283,970	144,951
293,530	2,551	283,815	144,809
294,545	2,438	283,824	144,692
295,560	2,410	283,524	144,500
296,574	2,383	283,332	144,363
297,589	2,442	282,991	144,233
298,603	2,403	282,801	144,086
299,618	2,543	282,602	144,104
300,633	2,702	282,468	144,174
301,647	2,624	282,459	144,083
302,662	2,559	282,252	143,902
303,676	2,739	282,043	143,953
304,691	2,583	281,892	143,716
305,706	2,725	281,620	143,698
306,720	2,934	281,452	143,797
307,735	2,802	281,327	143,596
308,749	2,711	281,268	143,467
309,764	2,718	281,128	143,390
310,779	2,704	280,774	143,183
311,793	2,759	280,600	143,133
312,808	2,745	280,440	143,025
313,822	2,764	280,219	142,918
314,837	2,695	279,957	142,706
315,852	2,796	279,881	142,749
316,866	2,925	279,556	142,692
317,881	2,745	279,445	142,455
318,895	2,720	279,276	142,332
319,910	2,532	279,184	142,098
320,925	2,527	278,907	141,939
321,939	2,738	278,795	142,066
322,954	2,675	278,659	141,925
323,968	2,784	278,555	141,961
324,983	2,836	278,292	141,863
325,997	2,967	278,111	141,879
327,012	2,918	278,001	141,765
328,027	2,774	277,809	141,521
329,041	2,865	277,715	141,545
330,056	2,957	277,456	141,485
331,070	2,927	277,303	141,367
332,085	2,822	277,093	141,150
333,100	2,693	276,969	140,956
334,114	2,905	276,604	140,953
335,129	2,958	276,457	140,914
336,143	2,742	276,351	140,648
337,158	2,710	276,235	140,547
338,173	2,866	275,994	140,556
339,187	3,038	275,783	140,594
340,202	2,905	275,676	140,405
341,216	2,696	275,469	140,095
342,231	2,801	275,367	140,127
343,246	2,855	275,168	140,062
344,260	2,789	274,968	139,887
345,275	2,726	274,848	139,757
346,289	2,856	274,598	139,736
347,304	3,021	274,329	139,737
348,319	2,833	274,141	139,457
349,333	2,799	274,052	139,369
350,348	2,773	274,034	139,323
351,362	2,837	273,805	139,253
352,377	2,905	273,530	139,163
353,392	2,963	273,493	139,185
354,406	2,967	273,216	139,034
355,421	190,992	1349,056	1427,835
356,435	154,196	1480,232	1427,974
