DTS Sentinel unit serial number:	SN410029Multiplexer serial number:	ORYXHardware model number:	OX2-SRSoftware version number:	ORYX F/W v4,00 Oryx Data Collector v3.7.2.0data status	okinstallation	B4 Nyhavnadifferential loss correction	single-endedforward channel	channel 2reverse channel	N/Adate	2023/12/16time	06:10:13forward acquisition time	300,00reverse acquisition time	0,00gamma	499,1914k internal	0,3128k external	0,3128temperature offset calibration	1,0000default loss term (dB/km)	0,3820temperature slope calibration	1,0000multiplexer offset coefficient	1,0000multiplexer slope coefficient	1,0000fibre end	0,00T internal ref (°C)	22,25T ext. ref 1 (°C)	7,53T ext. ref 2 (°C)	7,73length (m)	temperature (°C)	Stokes	anti-Stokes-744,400	-11,971	0,039	0,019
-743,385	152,641	-0,131	0,134
-742,371	-96,318	0,177	-0,035
-741,356	69,116	-0,195	0,149
-740,342	166,155	0,121	-0,128
-739,327	-168,301	-0,184	-0,005
-738,312	-104,120	0,053	-0,009
-737,298	-74,535	-0,263	0,070
-736,283	-59,570	0,098	0,031
-735,269	800,000	-0,084	0,198
-734,254	-200,000	0,033	-0,112
-733,239	-74,775	-0,359	-0,095
-732,225	-114,126	0,214	-0,031
-731,210	381,627	-0,057	0,087
-730,196	642,807	-0,023	0,044
-729,181	-54,817	0,079	-0,026
-728,167	223,969	-0,060	-0,073
-727,152	800,000	0,029	0,069
-726,137	131,646	0,119	-0,114
-725,123	-151,333	-0,136	-0,007
-724,108	-200,000	0,007	-0,042
-723,094	200,356	0,064	-0,073
-722,079	-30,391	-0,110	-0,046
-721,064	-114,688	0,072	0,010
-720,050	-200,000	-0,003	-0,041
-719,035	32,705	-0,103	-0,066
-718,021	800,000	-0,051	0,155
-717,006	-83,219	0,081	-0,019
-715,991	227,333	-0,042	-0,051
-714,977	234,981	-0,060	-0,074
-713,962	-90,876	0,057	0,012
-712,948	-163,676	-0,013	0,000
-711,933	91,411	-0,102	-0,085
-710,918	-64,104	-0,130	0,039
-709,904	132,565	-0,080	-0,077
-708,889	630,208	-0,035	-0,065
-707,875	-200,000	-0,027	-0,098
-706,860	-35,814	0,085	0,034
-705,845	-39,081	-0,071	-0,028
-704,831	-64,315	-0,050	0,015
-703,816	106,446	-0,142	-0,125
-702,802	243,129	-0,039	-0,048
-701,787	212,487	0,062	0,073
-700,772	-59,788	-0,108	-0,034
-699,758	-200,000	-0,016	-0,146
-698,743	226,900	0,089	-0,107
-697,729	-200,000	-0,010	0,051
-696,714	-200,000	-0,011	-0,076
-695,699	-30,597	0,113	-0,047
-694,685	-94,031	-0,055	-0,011
-693,670	-12,053	-0,093	-0,045
-692,656	-100,491	0,015	-0,003
-691,641	278,110	-0,038	-0,051
-690,627	387,668	0,110	0,169
-689,612	344,226	0,022	0,032
-688,597	307,022	-0,073	0,101
-687,583	134,097	-0,025	-0,024
-686,568	303,997	-0,057	-0,079
-685,554	227,920	-0,030	-0,037
-684,539	173,082	0,092	0,099
-683,524	46,538	-0,166	0,114
-682,510	353,131	-0,076	-0,112
-681,495	-200,000	-0,001	-0,095
-680,481	800,000	-0,044	-0,093
-679,466	-200,000	0,011	-0,081
-678,451	20,953	-0,079	0,048
-677,437	30,959	-0,139	0,088
-676,422	800,000	0,028	-0,086
-675,408	139,965	-0,023	-0,023
-674,393	-30,336	-0,081	-0,034
-673,378	-39,001	-0,139	-0,054
-672,364	54,761	-0,128	-0,091
-671,349	52,443	-0,116	-0,082
-670,335	311,412	-0,112	-0,156
-669,320	146,833	0,031	-0,031
-668,305	5,126	-0,093	-0,051
-667,291	-120,049	-0,075	-0,009
-666,276	-98,728	-0,125	-0,023
-665,262	386,754	-0,103	-0,158
-664,247	-200,000	-0,007	-0,144
-663,232	-146,398	-0,082	-0,005
-662,218	410,960	-0,057	-0,090
-661,203	-109,005	0,082	0,013
-660,189	-124,502	-0,112	0,013
-659,174	36,780	0,069	-0,045
-658,159	209,916	-0,058	0,068
-657,145	649,191	0,061	-0,115
-656,130	-83,162	-0,110	-0,026
-655,116	-71,341	0,105	0,029
-654,101	466,802	0,044	-0,073
-653,086	-123,197	0,090	-0,011
-652,072	-34,802	-0,064	-0,026
-651,057	308,268	-0,014	-0,019
-650,043	800,000	0,052	-0,124
-649,028	-200,000	0,016	0,104
-648,014	676,136	-0,019	-0,037
-646,999	-200,000	-0,039	-0,141
-645,984	8,269	0,044	0,024
-644,970	-167,039	0,046	-0,001
-643,955	-69,724	-0,085	-0,024
-642,941	137,572	0,043	-0,041
-641,926	-200,000	0,015	-0,070
-640,911	365,411	0,052	0,078
-639,897	-200,000	-0,012	-0,154
-638,882	91,676	0,094	-0,078
-637,868	-200,000	0,001	-0,041
-636,853	280,876	0,048	-0,064
-635,838	-70,138	-0,175	-0,049
-634,824	800,000	0,025	-0,078
-633,809	-40,427	-0,051	0,019
-632,795	-21,279	0,141	0,064
-631,780	-90,369	0,045	0,010
-630,765	85,635	-0,018	-0,014
-629,751	800,000	-0,055	-0,136
-628,736	-155,362	-0,031	-0,001
-627,722	800,000	-0,034	-0,108
-626,707	192,376	-0,089	0,100
-625,692	48,310	-0,017	0,012
-624,678	229,509	0,100	0,121
-623,663	272,180	0,045	0,059
-622,649	-51,275	-0,089	0,031
-621,634	-15,397	-0,041	0,019
-620,619	-200,000	0,009	-0,073
-619,605	-29,555	-0,037	-0,016
-618,590	-125,260	0,105	-0,012
-617,576	-200,000	0,006	-0,088
-616,561	-121,330	0,005	0,001
-615,546	-200,000	0,005	-0,071
-614,532	-200,000	0,017	-0,131
-613,517	228,561	0,053	0,064
-612,503	-200,000	0,018	-0,082
-611,488	117,964	0,084	0,077
-610,474	788,134	0,037	0,075
-609,459	800,000	-0,009	0,024
-608,444	-168,820	-0,121	0,003
-607,430	-158,627	0,057	0,002
-606,415	-200,000	0,011	-0,116
-605,401	-145,853	0,053	-0,003
-604,386	-200,000	-0,030	0,102
-603,371	-200,000	-0,009	0,095
-602,357	601,544	-0,072	-0,134
-601,342	121,897	-0,115	-0,106
-600,328	146,789	-0,110	-0,110
-599,313	-68,195	0,063	0,018
-598,298	523,295	0,027	-0,046
-597,284	-146,162	0,073	0,005
-596,269	-200,000	-0,005	0,061
-595,255	138,231	0,045	0,044
-594,240	81,946	-0,026	0,021
-593,225	65,214	-0,067	-0,050
-592,211	-82,551	0,145	-0,035
-591,196	191,467	-0,033	0,037
-590,182	14,365	0,069	0,039
-589,167	16,764	-0,147	0,086
-588,152	-91,765	0,060	0,013
-587,138	-200,000	-0,011	0,116
-586,123	-200,000	0,003	-0,063
-585,109	241,637	0,016	0,020
-584,094	-4,647	-0,079	0,040
-583,079	76,234	-0,030	0,023
-582,065	-200,000	0,008	-0,072
-581,050	800,000	0,045	-0,127
-580,036	642,249	-0,021	-0,039
-579,021	-80,258	-0,006	0,001
-578,006	64,853	-0,119	-0,088
-576,992	135,583	-0,075	-0,072
-575,977	-200,000	-0,004	0,098
-574,963	692,719	0,034	0,066
-573,948	-200,000	0,006	0,169
-572,934	-20,634	0,098	0,044
-571,919	97,861	-0,041	0,035
-570,904	-50,243	-0,174	-0,061
-569,890	800,000	-0,019	-0,057
-568,875	-98,489	0,099	-0,019
-567,861	324,278	0,012	0,017
-566,846	-200,000	0,007	-0,044
-565,831	53,872	-0,170	-0,121
-564,817	-200,000	-0,003	0,064
-563,802	800,000	-0,054	-0,116
-562,788	33,065	0,046	-0,030
-561,773	780,064	0,070	0,143
-560,758	178,968	0,128	0,138
-559,744	-200,000	0,013	0,158
-558,729	-200,000	-0,008	-0,033
-557,715	155,429	0,111	-0,113
-556,700	-200,000	-0,014	-0,121
-555,685	800,000	-0,042	0,101
-554,671	103,702	0,062	-0,054
-553,656	277,979	-0,029	-0,038
-552,642	-43,431	-0,042	-0,016
-551,627	-200,000	-0,001	-0,008
-550,612	-65,648	-0,145	0,043
-549,598	265,071	-0,080	-0,103
-548,583	132,928	-0,073	-0,069
-547,569	-200,000	0,006	-0,021
-546,554	-128,556	0,075	-0,008
-545,539	-200,000	-0,026	0,123
-544,525	-200,000	-0,003	0,023
-543,510	800,000	-0,058	-0,161
-542,496	-200,000	-0,023	-0,078
-541,481	-156,029	0,107	0,005
-540,466	162,576	-0,050	-0,052
-539,452	-118,328	-0,051	0,007
-538,437	93,400	0,078	-0,065
-537,423	22,229	-0,114	0,068
-536,408	57,619	-0,120	0,087
-535,393	-18,854	0,116	-0,053
-534,379	-200,000	0,001	0,004
-533,364	-200,000	0,001	0,077
-532,350	-200,000	-0,008	0,094
-531,335	-151,036	0,076	0,004
-530,321	-200,000	0,008	0,159
-529,306	-103,881	0,027	-0,005
-528,291	41,716	-0,039	-0,026
-527,277	-47,784	-0,137	0,049
-526,262	-111,935	0,119	-0,017
-525,248	167,306	-0,109	0,114
-524,233	-200,000	-0,009	-0,043
-523,218	-200,000	0,009	0,074
-522,204	81,728	-0,116	0,093
-521,189	800,000	-0,028	-0,057
-520,175	800,000	0,037	-0,114
-519,160	-200,000	-0,002	0,007
-518,145	-70,348	0,049	-0,014
-517,131	-52,972	0,082	0,028
-516,116	231,852	-0,081	-0,098
-515,102	60,709	0,053	0,039
-514,087	-84,213	0,117	-0,027
-513,072	107,773	0,040	-0,035
-512,058	-61,344	0,106	-0,033
-511,043	-200,000	-0,039	0,169
-510,029	193,659	-0,075	0,083
-509,014	-200,000	-0,022	0,099
-507,999	-38,822	-0,011	0,004
-506,985	-200,000	-0,032	-0,168
-505,970	81,125	-0,090	-0,071
-504,956	-200,000	-0,031	0,185
-503,941	-88,914	-0,092	-0,020
-502,926	-58,266	0,036	0,012
-501,912	-200,000	0,039	0,167
-500,897	197,552	-0,084	0,095
-499,883	11,080	-0,022	-0,012
-498,868	-200,000	-0,001	-0,161
-497,853	-43,155	0,060	-0,022
-496,839	-129,950	0,030	-0,003
-495,824	81,661	0,048	0,038
-494,810	800,000	-0,026	0,062
-493,795	-200,000	-0,053	-0,200
-492,781	13,570	0,086	-0,049
-491,766	-125,946	0,052	0,006
-490,751	113,206	-0,078	0,070
-489,737	-200,000	-0,001	-0,044
-488,722	-200,000	0,008	-0,035
-487,708	32,480	0,087	-0,055
-486,693	-146,319	0,111	-0,007
-485,678	-32,911	-0,104	0,043
-484,664	-200,000	0,001	-0,132
-483,649	135,296	-0,041	-0,040
-482,635	-155,139	-0,088	0,004
-481,620	344,484	-0,035	-0,051
-480,605	334,875	0,140	-0,200
-479,591	800,000	0,039	-0,117
-478,576	32,985	-0,073	0,047
-477,562	-200,000	-0,001	0,022
-476,547	417,815	-0,061	-0,097
-475,532	-200,000	0,015	0,060
-474,518	-200,000	0,016	-0,123
-473,503	800,000	0,056	0,123
-472,489	485,329	0,029	-0,048
-471,474	-200,000	-0,024	-0,149
-470,459	-67,929	-0,163	-0,047
-469,445	-148,286	-0,068	-0,004
-468,430	800,000	-0,015	0,031
-467,416	76,015	-0,076	-0,059
-466,401	242,701	-0,131	0,162
-465,386	137,889	-0,042	0,040
-464,372	-200,000	-0,002	-0,078
-463,357	8,108	-0,021	0,011
-462,343	139,011	-0,090	-0,087
-461,328	-200,000	0,005	-0,096
-460,313	-200,000	-0,008	-0,034
-459,299	-73,123	0,165	-0,044
-458,284	-200,000	0,016	0,054
-457,270	-167,569	0,053	0,002
-456,255	87,734	0,047	0,038
-455,241	800,000	-0,075	0,195
-454,226	-187,614	-0,199	-0,002
-453,211	800,000	0,019	0,051
-452,197	47,125	0,037	-0,025
-451,182	-146,754	0,055	-0,003
-450,168	-120,114	-0,052	-0,006
-449,153	-47,245	-0,184	-0,066
-448,138	171,612	0,069	-0,073
-447,124	-200,000	0,017	0,061
-446,109	-5,097	0,071	-0,036
-445,095	-43,493	0,111	0,041
-444,080	246,430	-0,054	0,067
-443,065	-142,501	0,142	-0,010
-442,051	-94,449	-0,065	0,013
-441,036	-200,000	-0,009	0,052
-440,022	748,160	-0,063	-0,125
-439,007	423,975	-0,096	0,153
-437,992	-200,000	0,011	0,097
-436,978	51,426	-0,077	0,054
-435,963	143,654	-0,086	0,084
-434,949	-200,000	0,013	-0,069
-433,934	-32,806	0,027	0,011
-432,919	800,000	-0,031	-0,101
-431,905	-159,971	-0,056	-0,002
-430,890	6,070	0,085	0,046
-429,876	-200,000	-0,020	0,124
-428,861	-43,793	0,105	-0,039
-427,846	-9,576	0,084	-0,041
-426,832	-108,837	-0,181	0,028
-425,817	-200,000	-0,014	-0,063
-424,803	-48,094	0,093	-0,033
-423,788	-9,905	0,076	0,037
-422,773	-200,000	0,022	-0,122
-421,759	-107,520	0,061	-0,010
-420,744	-200,000	0,020	-0,090
-419,730	-48,896	-0,054	0,019
-418,715	6,123	-0,117	-0,064
-417,701	-200,000	0,006	-0,095
-416,686	68,817	0,067	-0,050
-415,671	178,906	-0,024	0,025
-414,657	800,000	0,009	0,023
-413,642	28,158	-0,069	-0,043
-412,628	-166,259	-0,141	-0,004
-411,613	670,711	-0,070	-0,135
-410,598	-45,577	0,028	0,010
-409,584	-200,000	-0,019	0,126
-408,569	-29,880	0,053	0,022
-407,555	137,090	0,095	-0,091
-406,540	-14,804	0,003	0,002
-405,525	21,406	-0,058	-0,034
-404,511	-3,832	-0,132	-0,067
-403,496	-200,000	-0,004	-0,102
-402,482	14,848	0,123	0,071
-401,467	-200,000	-0,003	0,083
-400,452	800,000	0,026	0,053
-399,438	163,579	-0,033	0,034
-398,423	132,505	0,048	-0,046
-397,409	-200,000	0,002	-0,007
-396,394	-44,560	0,064	0,023
-395,379	217,016	-0,007	0,008
-394,365	368,566	0,033	0,050
-393,350	-43,828	-0,033	-0,012
-392,336	800,000	0,029	-0,063
-391,321	633,094	0,014	0,027
-390,306	800,000	-0,034	-0,089
-389,292	101,808	-0,106	0,090
-388,277	-172,338	-0,104	0,002
-387,263	-171,599	0,134	-0,003
-386,248	778,418	-0,010	-0,020
-385,233	-200,000	0,033	0,149
-384,219	-200,000	0,016	-0,089
-383,204	-200,000	0,004	-0,179
-382,190	-200,000	-0,020	-0,179
-381,175	65,391	0,133	-0,098
-380,160	-166,345	0,090	0,003
-379,146	25,009	0,072	0,044
-378,131	-95,877	0,055	0,011
-377,117	-1,834	-0,022	-0,011
-376,102	-91,487	0,034	-0,007
-375,088	-200,000	0,033	0,108
-374,073	-200,000	-0,022	-0,115
-373,058	800,000	0,032	0,070
-372,044	177,015	0,091	0,097
-371,029	498,073	0,013	-0,023
-370,015	800,000	-0,024	0,060
-369,000	258,710	0,026	-0,033
-367,985	800,000	-0,057	-0,124
-366,971	258,822	0,107	-0,136
-365,956	29,772	0,124	0,078
-364,942	-69,683	0,086	-0,024
-363,927	-200,000	-0,022	0,137
-362,912	353,086	-0,004	0,006
-361,898	622,138	-0,048	0,089
-360,883	-200,000	-0,005	-0,020
-359,869	-151,674	-0,042	-0,002
-358,854	800,000	0,016	0,034
-357,839	207,485	-0,034	0,039
-356,825	-200,000	0,012	0,082
-355,810	800,000	-0,028	-0,076
-354,796	-144,940	0,133	-0,009
-353,781	-11,506	-0,081	0,039
-352,766	800,000	-0,038	-0,081
-351,752	10,745	0,087	0,049
-350,737	-70,584	0,134	0,037
-349,723	-200,000	0,003	-0,022
-348,708	-63,803	0,117	-0,035
-347,693	34,824	0,050	0,032
-346,679	589,198	-0,064	-0,116
-345,664	-200,000	-0,008	-0,041
-344,650	-45,558	-0,061	0,022
-343,635	428,527	0,076	0,122
-342,620	800,000	0,024	0,065
-341,606	244,198	0,051	0,063
-340,591	34,198	0,061	0,039
-339,577	108,651	-0,082	-0,072
-338,562	800,000	0,010	0,029
-337,548	113,441	-0,003	0,003
-336,533	411,910	-0,092	-0,144
-335,518	208,304	0,048	0,056
-334,504	243,752	0,078	0,096
-333,489	-200,000	-0,001	0,063
-332,475	-200,000	-0,023	-0,151
-331,460	186,768	0,042	-0,045
-330,445	324,903	-0,098	0,138
-329,431	800,000	-0,030	-0,063
-328,416	-86,345	0,182	0,041
-327,402	436,528	-0,043	-0,069
-326,387	-200,000	-0,030	0,113
-325,372	105,602	-0,074	0,064
-324,358	449,828	-0,034	-0,056
-323,343	107,544	0,024	-0,021
-322,329	351,973	0,045	-0,066
-321,314	-61,085	0,055	0,017
-320,299	800,000	0,004	-0,013
-319,285	360,976	-0,052	0,076
-318,270	-82,298	-0,149	0,035
-317,256	-52,267	-0,089	0,030
-316,241	-200,000	0,017	-0,108
-315,226	-200,000	-0,001	0,013
-314,212	-200,000	0,011	-0,058
-313,197	56,953	0,050	0,036
-312,183	146,188	0,047	-0,046
-311,168	-96,941	0,138	-0,026
-310,153	160,658	-0,151	-0,155
-309,139	-200,000	-0,005	-0,065
-308,124	169,269	-0,072	0,076
-307,110	-172,030	0,125	-0,003
-306,095	-200,000	-0,012	0,054
-305,080	800,000	-0,023	0,055
-304,066	-200,000	-0,010	0,086
-303,051	-149,071	-0,130	-0,008
-302,037	620,856	0,045	-0,083
-301,022	-130,283	0,133	-0,013
-300,008	557,287	-0,091	0,161
-298,993	63,109	0,115	-0,084
-297,978	-141,264	-0,073	-0,005
-296,964	800,000	-0,021	0,045
-295,949	-33,452	-0,146	-0,059
-294,935	800,000	-0,023	0,060
-293,920	800,000	-0,041	-0,105
-292,905	-200,000	-0,003	-0,022
-291,891	4,669	0,067	-0,036
-290,876	-35,066	0,049	-0,020
-289,862	-77,331	0,118	-0,030
-288,847	564,893	0,072	-0,128
-287,832	253,286	0,071	-0,089
-286,818	-200,000	0,003	0,046
-285,803	-200,000	0,028	0,118
-284,789	532,047	0,066	0,114
-283,774	800,000	0,029	-0,061
-282,759	110,775	-0,023	-0,020
-281,745	-200,000	0,013	-0,051
-280,730	-62,295	-0,159	0,048
-279,716	59,712	0,075	0,054
-278,701	-200,000	-0,010	0,110
-277,686	-109,824	0,102	-0,015
-276,672	-200,000	-0,001	0,111
-275,657	-106,721	0,031	0,005
-274,643	800,000	-0,003	0,009
-273,628	-18,275	0,087	0,039
-272,613	292,584	0,025	0,033
-271,599	136,947	-0,129	0,123
-270,584	-49,807	0,083	-0,028
-269,570	432,976	0,027	0,043
-268,555	800,000	0,036	0,080
-267,540	-200,000	0,025	-0,145
-266,526	-200,000	0,025	-0,129
-265,511	-65,276	0,113	0,033
-264,497	800,000	0,023	-0,050
-263,482	-200,000	-0,015	0,058
-262,467	-4,251	-0,161	0,081
-261,453	128,138	-0,090	0,084
-260,438	36,528	-0,048	0,031
-259,424	234,661	-0,084	0,102
-258,409	397,759	-0,051	-0,078
-257,395	-200,000	0,007	0,024
-256,380	-200,000	0,001	0,102
-255,365	286,587	-0,070	0,093
-254,351	800,000	0,007	0,017
-253,336	-200,000	-0,003	0,034
-252,322	-200,000	0,001	0,019
-251,307	-200,000	0,007	-0,042
-250,292	-74,804	-0,104	-0,027
-249,278	-53,251	0,051	-0,017
-248,263	-200,000	-0,009	0,071
-247,249	-200,000	-0,009	0,092
-246,234	800,000	-0,021	-0,060
-245,219	100,484	-0,080	-0,067
-244,205	-15,677	-0,020	0,009
-243,190	182,313	-0,040	0,043
-242,176	223,831	0,081	0,096
-241,161	123,778	0,094	0,086
-240,146	-35,977	0,133	-0,052
-239,132	429,960	0,024	-0,038
-238,117	136,059	-0,111	-0,105
-237,103	-85,181	-0,082	0,019
-236,088	248,751	0,049	0,061
-235,073	-60,433	0,120	0,037
-234,059	-156,079	-0,098	0,004
-233,044	-76,055	0,114	0,029
-232,030	61,765	0,102	0,074
-231,015	10,601	-0,154	0,085
-230,000	-200,000	-0,005	-0,117
-228,986	-112,983	-0,048	-0,007
-227,971	-70,237	-0,056	-0,016
-226,957	93,533	0,125	0,103
-225,942	266,698	0,026	0,033
-224,927	-30,880	-0,114	-0,047
-223,913	86,311	0,045	0,036
-222,898	82,891	-0,068	-0,054
-221,884	-87,096	-0,079	0,017
-220,869	800,000	0,017	0,045
-219,855	49,784	0,128	-0,088
-218,840	-200,000	0,013	0,153
-217,825	130,567	-0,064	0,060
-216,811	-22,758	-0,060	-0,026
-215,796	-200,000	-0,001	-0,041
-214,782	-200,000	0,033	-0,118
-213,767	-127,095	0,057	0,006
-212,752	129,723	0,055	-0,051
-211,738	-20,298	0,089	-0,040
-210,723	295,422	-0,083	0,111
-209,709	-67,330	0,013	-0,004
-208,694	54,660	0,094	-0,066
-207,679	72,596	-0,044	0,033
-206,665	-200,000	-0,010	-0,043
-205,650	-151,659	0,076	0,004
-204,636	-62,350	0,092	0,028
-203,621	-28,312	-0,119	0,050
-202,606	-32,529	0,179	-0,072
-201,592	150,888	0,090	0,090
-200,577	-200,000	-0,004	-0,088
-199,563	-200,000	-0,042	0,153
-198,548	146,969	0,080	-0,079
-197,533	188,403	-0,056	0,062
-196,519	97,446	-0,051	-0,042
-195,504	-200,000	-0,016	-0,090
-194,490	-200,000	-0,021	0,135
-193,475	-200,000	0,017	-0,127
-192,460	-200,000	-0,010	-0,075
-191,446	-41,563	0,087	0,033
-190,431	-200,000	-0,000	0,020
-189,417	-48,209	-0,119	0,042
-188,402	37,633	-0,098	-0,064
-187,387	-29,528	-0,049	0,020
-186,373	224,457	0,059	0,069
-185,358	314,404	-0,047	0,065
-184,344	-146,601	0,181	-0,011
-183,329	800,000	0,006	-0,017
-182,315	-200,000	0,045	0,164
-181,300	106,324	-0,046	-0,039
-180,285	-17,018	-0,113	-0,052
-179,271	708,164	-0,015	-0,030
-178,256	-200,000	0,008	-0,044
-177,242	19,480	0,012	-0,007
-176,227	-200,000	-0,007	0,100
-175,212	-19,367	-0,079	0,035
-174,198	-200,000	0,007	-0,079
-173,183	620,784	-0,012	0,021
-172,169	-107,375	-0,073	0,011
-171,154	-200,000	0,022	-0,095
-170,139	-142,646	0,059	0,004
-169,125	800,000	0,005	0,014
-168,110	-134,633	-0,107	-0,009
-167,096	7,332	0,077	0,042
-166,081	227,647	0,010	-0,011
-165,066	-88,451	-0,047	0,010
-164,052	616,257	-0,070	0,129
-163,037	-200,000	0,026	0,140
-162,023	800,000	0,004	-0,014
-161,008	-56,110	0,140	0,045
-159,993	-200,000	-0,021	0,072
-158,979	-200,000	0,027	0,089
-157,964	6,566	-0,095	-0,051
-156,950	285,307	-0,086	-0,113
-155,935	107,892	0,132	0,114
-154,920	55,421	-0,062	0,043
-153,906	22,839	-0,015	0,009
-152,891	-0,270	0,111	0,057
-151,877	-69,403	0,055	0,015
-150,862	800,000	0,012	-0,036
-149,847	-200,000	0,003	-0,051
-148,833	-200,000	0,021	-0,091
-147,818	40,115	0,110	0,072
-146,804	413,668	0,018	-0,028
-145,789	368,517	0,028	-0,041
-144,775	800,000	0,016	-0,048
-143,760	-89,979	0,022	0,005
-142,745	-121,402	-0,043	-0,005
-141,731	180,627	-0,009	-0,009
-140,716	-35,392	-0,043	-0,017
-139,702	27,062	0,064	-0,039
-138,687	212,507	-0,011	0,012
-137,672	800,000	0,015	-0,044
-136,658	263,637	0,070	-0,089
-135,643	720,674	-0,076	-0,147
-134,629	305,971	0,080	-0,109
-133,614	9,065	0,102	-0,056
-132,599	-200,000	-0,037	0,137
-131,585	800,000	-0,054	0,151
-130,570	-200,000	-0,002	0,019
-129,556	111,515	0,068	-0,059
-128,541	-200,000	-0,021	-0,182
-127,526	-87,314	-0,102	-0,022
-126,512	-85,350	0,068	-0,015
-125,497	800,000	0,039	-0,095
-124,483	-200,000	0,023	-0,133
-123,468	631,887	0,030	-0,056
-122,453	-200,000	0,003	-0,021
-121,439	-200,000	-0,031	-0,103
-120,424	374,542	0,038	-0,057
-119,410	140,622	-0,069	0,066
-118,395	-73,383	0,097	-0,026
-117,380	-200,000	-0,046	-0,199
-116,366	326,982	0,054	0,076
-115,351	-47,929	0,077	-0,027
-114,337	-1,031	-0,027	-0,014
-113,322	59,256	0,103	-0,074
-112,307	371,902	-0,011	-0,017
-111,293	800,000	0,012	-0,031
-110,278	-200,000	-0,032	-0,108
-109,264	112,199	-0,067	0,059
-108,249	-31,982	-0,064	0,026
-107,234	-105,673	0,155	-0,025
-106,220	800,000	-0,025	0,057
-105,205	319,287	0,069	0,096
-104,191	-143,713	-0,116	-0,008
-103,176	-200,000	0,014	0,049
-102,162	-200,000	0,023	-0,078
-101,147	400,927	-0,030	-0,046
-100,132	-92,222	-0,087	0,018
-99,118	-200,000	0,000	-0,041
-98,103	375,004	-0,024	-0,036
-97,089	289,001	0,057	-0,075
-96,074	-200,000	0,010	0,070
-95,059	349,216	-0,053	-0,076
-94,045	42,614	-0,034	-0,023
-93,030	259,386	-0,082	-0,103
-92,016	800,000	0,010	-0,029
-91,001	800,000	-0,021	-0,061
-89,986	-16,470	0,123	0,056
-88,972	800,000	-0,017	0,039
-87,957	-200,000	-0,042	0,185
-86,943	-82,901	-0,073	-0,017
-85,928	148,644	-0,050	-0,049
-84,913	276,105	-0,052	0,067
-83,899	-2,312	0,063	-0,032
-82,884	58,548	0,143	0,102
-81,870	-200,000	0,010	0,044
-80,855	800,000	-0,042	-0,130
-79,840	73,977	-0,090	-0,069
-78,826	29,813	-0,083	-0,051
-77,811	800,000	-0,068	-0,161
-76,797	-73,568	-0,149	-0,039
-75,782	-0,319	0,078	0,040
-74,767	800,000	-0,041	0,105
-73,753	323,082	-0,089	0,124
-72,738	301,114	-0,038	0,051
-71,724	548,570	-0,099	-0,172
-70,709	517,310	0,038	0,065
-69,694	135,048	-0,078	0,073
-68,680	-200,000	-0,029	0,104
-67,665	800,000	-0,026	0,067
-66,651	-200,000	0,002	-0,037
-65,636	75,087	-0,044	0,034
-64,622	-200,000	-0,012	-0,160
-63,607	-7,312	-0,063	0,031
-62,592	-23,864	-0,149	0,064
-61,578	800,000	0,041	0,089
-60,563	298,000	-0,080	0,107
-59,549	800,000	-0,039	0,089
-58,534	-120,448	-1,208	-0,147
-57,519	609,157	-0,862	-1,567
-56,505	-200,000	-0,947	-4,327
-55,490	-131,588	0,623	-0,059
-54,476	800,000	4,835	11,633
-53,461	-200,000	13,918	251,121
-52,446	-200,000	690,354	2245,802
-51,432	588,892	1620,598	2905,231
-50,417	118,954	1631,631	1461,157
-49,403	74,109	1286,176	977,140
-48,388	38,098	1022,396	657,697
-47,373	24,294	980,432	585,440
-46,359	23,478	970,091	576,574
-45,344	22,415	965,859	570,571
-44,330	22,366	964,491	569,582
-43,315	22,311	962,909	568,447
-42,300	22,301	961,957	567,829
-41,286	22,244	960,850	566,967
-40,271	22,263	960,060	566,539
-39,257	22,277	959,054	565,971
-38,242	22,267	957,880	565,222
-37,227	22,191	957,439	564,695
-36,213	22,319	956,325	564,427
-35,198	22,267	955,353	563,663
-34,184	22,304	954,996	563,550
-33,169	22,238	953,984	562,719
-32,154	22,306	952,996	562,331
-31,140	22,248	952,259	561,688
-30,125	22,308	951,466	561,391
-29,111	22,307	950,698	560,914
-28,096	22,340	949,813	560,474
-27,082	22,300	949,224	559,975
-26,067	22,260	948,496	559,394
-25,052	22,310	947,684	559,053
-24,038	22,270	947,228	558,635
-23,023	22,331	946,471	558,363
-22,009	22,276	945,715	557,720
-20,994	22,330	945,103	557,506
-19,979	22,298	944,700	557,145
-18,965	22,293	944,051	556,726
-17,950	22,324	943,325	556,374
-16,936	22,255	942,633	555,722
-15,921	22,244	942,010	555,299
-14,906	22,179	941,242	554,619
-13,892	22,142	940,611	554,106
-12,877	22,143	939,889	553,663
-11,863	22,157	939,124	553,234
-10,848	22,110	938,876	552,918
-9,833	22,257	938,383	553,070
-8,819	22,277	937,627	552,666
-7,804	22,200	937,163	552,129
-6,790	22,151	936,547	551,588
-5,775	22,189	935,803	551,248
-4,760	22,158	935,259	550,809
-3,746	22,131	934,704	550,373
-2,731	22,016	934,016	549,586
-1,717	21,937	933,212	548,843
-0,702	21,988	932,540	548,584
0,313	21,788	931,881	548,395
1,327	24,270	929,543	554,751
2,342	32,235	807,993	503,744
3,356	27,570	508,100	308,817
4,371	3,289	372,788	195,817
5,386	0,270	355,695	183,134
6,400	-1,272	349,581	178,116
7,415	-2,131	346,772	175,645
8,429	-2,451	345,398	174,552
9,444	-2,384	344,380	174,101
10,459	-2,268	343,527	173,792
11,473	-2,435	343,073	173,350
12,488	-1,994	342,626	173,629
13,502	-1,938	342,150	173,438
14,517	-2,101	341,527	172,915
15,531	-2,314	340,900	172,332
16,546	-2,361	340,346	171,982
17,561	-2,465	340,144	171,742
18,575	-2,273	339,613	171,683
19,590	-2,295	339,266	171,467
20,604	-2,384	339,121	171,275
21,619	-2,468	338,680	170,938
22,634	-2,364	338,263	170,835
23,648	-2,413	337,856	170,557
24,663	-2,383	337,604	170,449
25,677	-2,335	337,193	170,282
26,692	-2,370	336,990	170,124
27,707	-2,400	336,598	169,875
28,721	-2,416	336,407	169,746
29,736	-2,225	335,998	169,745
30,750	-2,319	335,656	169,449
31,765	-2,332	335,447	169,313
32,780	-2,363	335,136	169,105
33,794	-2,300	334,927	169,057
34,809	-2,387	334,701	168,828
35,823	-2,399	334,306	168,600
36,838	-2,312	333,943	168,501
37,853	-2,208	333,671	168,468
38,867	-2,379	333,368	168,104
39,882	-2,469	333,134	167,869
40,896	-2,400	332,941	167,835
41,911	-2,442	332,670	167,636
42,926	-2,504	332,317	167,372
43,940	-2,423	331,832	167,205
44,955	-2,452	331,667	167,075
45,969	-2,483	331,326	166,852
46,984	-2,582	331,073	166,598
47,999	-2,942	330,841	166,058
49,013	-2,763	330,546	166,097
50,028	-2,985	330,309	165,712
51,042	-3,093	329,978	165,409
52,057	-3,054	329,679	165,288
53,071	-3,103	329,430	165,093
54,086	-2,854	329,239	165,264
55,101	-2,788	329,131	165,270
56,115	-2,700	328,827	165,202
57,130	-2,411	328,613	165,405
58,144	-2,362	328,587	165,432
59,159	-2,229	328,249	165,397
60,174	-2,233	327,835	165,169
61,188	-2,555	327,973	164,862
62,203	-2,285	327,623	164,975
63,217	-2,228	327,227	164,825
64,232	-2,198	327,040	164,748
65,247	-2,103	326,763	164,701
66,261	-2,257	326,569	164,417
67,276	-2,499	326,082	163,887
68,290	-2,669	325,622	163,451
69,305	-2,513	325,490	163,544
70,320	-2,646	325,280	163,276
71,334	-2,588	325,104	163,237
72,349	-2,126	324,959	163,663
73,363	-2,189	324,489	163,343
74,378	-2,214	324,416	163,263
75,393	-2,276	324,179	163,060
76,407	-2,421	324,116	162,854
77,422	-2,272	323,653	162,772
78,436	-2,164	323,303	162,700
79,451	-2,156	323,023	162,554
80,466	-2,505	322,914	162,099
81,480	-2,582	322,555	161,820
82,495	-2,524	322,260	161,721
83,509	-2,664	322,167	161,505
84,524	-2,607	321,736	161,339
85,539	-2,550	321,570	161,302
86,553	-2,628	321,298	161,066
87,568	-2,652	321,135	160,944
88,582	-2,534	320,780	160,881
89,597	-2,688	320,781	160,699
90,611	-2,469	320,422	160,744
91,626	-2,278	320,167	160,811
92,641	-2,259	319,904	160,685
93,655	-2,325	319,729	160,511
94,670	-2,502	319,402	160,139
95,684	-2,449	319,216	160,090
96,699	-2,420	319,068	160,032
97,714	-2,554	318,890	159,783
98,728	-2,585	318,509	159,545
99,743	-2,677	318,259	159,305
100,757	-2,755	318,049	159,100
101,772	-2,600	317,787	159,124
102,787	-2,535	317,530	159,051
103,801	-2,445	317,305	159,022
104,816	-2,479	317,113	158,875
105,830	-2,394	317,020	158,906
106,845	-2,381	316,868	158,829
107,860	-2,395	316,626	158,679
108,874	-2,443	316,297	158,449
109,889	-2,467	316,083	158,301
110,903	-2,505	315,758	158,084
111,918	-2,482	315,493	157,961
112,933	-2,454	315,261	157,861
113,947	-2,495	315,165	157,755
114,962	-2,435	314,907	157,676
115,976	-2,428	314,704	157,568
116,991	-2,408	314,404	157,425
118,006	-2,590	314,334	157,181
119,020	-2,437	314,016	157,171
120,035	-2,405	313,922	157,145
121,049	-2,278	313,788	157,200
122,064	-2,463	313,537	156,863
123,079	-2,446	313,266	156,730
124,093	-2,491	312,916	156,493
125,108	-2,519	312,614	156,298
126,122	-2,706	312,272	155,914
127,137	-2,820	312,141	155,714
128,151	-2,723	312,023	155,744
129,166	-2,541	311,719	155,773
130,181	-2,598	311,397	155,537
131,195	-2,635	311,276	155,423
132,210	-2,650	311,141	155,327
133,224	-2,504	311,068	155,431
134,239	-2,368	310,677	155,366
135,254	-2,386	310,479	155,234
136,268	-2,471	310,453	155,117
137,283	-2,639	309,946	154,672
138,297	-2,744	309,713	154,431
139,312	-2,848	309,550	154,227
140,327	-2,493	309,334	154,479
141,341	-2,197	309,361	154,791
142,356	-2,024	309,092	154,824
143,370	-2,169	308,999	154,611
144,385	-2,018	308,755	154,634
145,400	-2,135	308,504	154,372
146,414	-2,074	308,270	154,305
147,429	-2,106	307,970	154,108
148,443	-1,943	307,816	154,187
149,458	-2,066	307,671	153,972
150,473	-2,151	307,434	153,751
151,487	-2,036	307,190	153,735
152,502	-2,002	306,960	153,642
153,516	-2,107	306,835	153,456
154,531	-2,072	306,515	153,319
155,546	-2,089	306,424	153,242
156,560	-2,220	306,085	152,923
157,575	-2,382	305,791	152,594
158,589	-2,185	305,529	152,654
159,604	-2,229	305,431	152,546
160,619	-2,227	305,268	152,453
161,633	-2,053	304,936	152,453
162,648	-2,123	304,917	152,358
163,662	-2,025	304,852	152,414
164,677	-2,153	304,546	152,114
165,692	-2,178	304,414	152,009
166,706	-2,079	304,037	151,910
167,721	-2,109	303,889	151,791
168,735	-2,068	303,668	151,709
169,750	-1,961	303,543	151,744
170,764	-1,965	303,430	151,670
171,779	-1,911	303,227	151,610
172,794	-1,936	303,134	151,524
173,808	-2,094	302,728	151,146
174,823	-2,534	302,380	150,507
175,837	-2,545	302,091	150,339
176,852	-2,180	302,050	150,679
177,867	-1,822	301,999	151,006
178,881	-1,985	301,815	150,735
179,896	-1,912	301,592	150,684
180,910	-1,873	301,362	150,595
181,925	-1,929	301,150	150,418
182,940	-1,890	301,071	150,405
183,954	-2,162	300,888	150,023
184,969	-2,138	300,745	149,963
185,983	-2,132	300,459	149,813
186,998	-2,161	300,288	149,686
188,013	-2,045	300,035	149,664
189,027	-1,970	299,796	149,608
190,042	-1,860	299,608	149,611
191,056	-1,952	299,422	149,412
192,071	-1,789	299,193	149,450
193,086	-1,653	298,884	149,420
194,100	-1,889	298,838	149,145
195,115	-2,024	298,446	148,799
196,129	-1,933	298,258	148,784
197,144	-1,912	298,099	148,713
198,159	-1,919	297,916	148,601
199,173	-1,757	297,760	148,673
200,188	-1,867	297,521	148,430
201,202	-2,136	297,418	148,094
202,217	-2,391	296,963	147,598
203,232	-2,504	296,626	147,305
204,246	-2,269	296,649	147,539
205,261	-1,962	296,490	147,754
206,275	-2,074	296,315	147,542
207,290	-2,116	296,223	147,441
208,304	-1,997	295,935	147,403
209,319	-1,918	295,773	147,389
210,334	-1,972	295,452	147,161
211,348	-1,891	295,356	147,181
212,363	-1,899	295,009	146,988
213,377	-1,827	294,848	146,966
214,392	-1,870	294,839	146,905
215,407	-2,098	294,474	146,483
216,421	-2,464	294,325	146,032
217,436	-2,288	293,970	146,018
218,450	-2,352	293,885	145,899
219,465	-2,270	293,709	145,880
220,480	-2,150	293,566	145,915
221,494	-2,123	293,335	145,814
222,509	-2,255	293,180	145,593
223,523	-1,930	293,040	145,832
224,538	-2,031	292,894	145,647
225,553	-1,796	292,517	145,679
226,567	-1,846	292,386	145,552
227,582	-1,952	292,346	145,413
228,596	-2,077	292,123	145,166
229,611	-1,791	292,009	145,379
230,626	-1,835	291,748	145,193
231,640	-2,269	291,382	144,570
232,655	-2,477	291,166	144,246
233,669	-2,522	290,859	144,037
234,684	-2,555	290,631	143,878
235,699	-2,469	290,629	143,950
236,713	-2,467	290,420	143,835
237,728	-2,345	290,273	143,868
238,742	-2,447	290,194	143,717
239,757	-1,925	289,871	144,055
240,772	-2,043	289,662	143,822
241,786	-2,062	289,492	143,707
242,801	-2,253	289,227	143,376
243,815	-2,297	289,101	143,257
244,830	-2,107	288,905	143,333
245,844	-2,222	288,736	143,125
246,859	-2,262	288,686	143,048
247,874	-2,223	288,467	142,964
248,888	-2,253	288,240	142,810
249,903	-2,103	288,145	142,896
250,917	-1,949	288,092	143,006
251,932	-1,780	287,859	143,042
252,947	-1,345	287,902	143,473
253,961	-1,659	287,271	142,842
254,976	-0,658	287,899	144,111
255,990	1,869	288,672	146,938
257,005	2,621	289,007	147,825
258,020	4,086	289,230	149,348
259,034	4,135	289,068	149,299
260,049	3,859	288,874	148,918
261,063	3,737	288,549	148,619
262,078	3,990	288,494	148,822
263,093	4,596	288,495	149,395
264,107	4,493	288,349	149,207
265,122	4,529	288,262	149,182
266,136	4,909	288,049	149,426
267,151	4,637	287,886	149,066
268,166	4,357	287,684	148,678
269,180	4,537	287,347	148,664
270,195	4,562	287,101	148,547
271,209	4,549	286,996	148,467
272,224	4,305	286,915	148,178
273,239	4,230	286,569	147,914
274,253	4,268	286,504	147,904
275,268	4,732	286,349	148,255
276,282	4,690	286,170	148,109
277,297	4,616	285,901	147,886
278,312	4,927	285,771	148,103
279,326	4,733	285,717	147,876
280,341	4,459	285,414	147,444
281,355	4,417	284,949	147,152
282,370	4,369	284,982	147,109
283,384	4,450	284,712	147,034
284,399	4,487	284,534	146,964
285,414	4,345	284,402	146,748
286,428	4,212	284,335	146,573
287,443	4,069	284,038	146,271
288,457	3,699	283,898	145,835
289,472	4,045	283,654	146,024
290,487	3,887	283,461	145,763
291,501	3,919	283,019	145,552
292,516	3,776	282,923	145,355
293,530	3,678	282,930	145,253
294,545	4,162	282,716	145,588
295,560	4,142	282,551	145,471
296,574	4,068	282,242	145,228
297,589	4,300	282,035	145,328
298,603	4,606	282,104	145,639
299,618	4,644	281,832	145,522
300,633	4,368	281,705	145,183
301,647	4,305	281,481	144,996
302,662	4,424	281,346	145,025
303,676	4,240	281,103	144,714
304,691	3,839	280,750	144,143
305,706	3,861	280,470	144,008
306,720	3,784	280,255	143,812
307,735	3,662	280,297	143,707
308,749	3,981	280,093	143,888
309,764	4,325	279,997	144,147
310,779	3,958	279,691	143,634
311,793	3,772	279,493	143,346
312,808	3,874	279,168	143,262
313,822	3,881	279,072	143,206
314,837	3,902	278,776	143,061
315,852	3,713	278,682	142,824
316,866	3,969	278,583	142,999
317,881	3,802	278,456	142,765
318,895	3,681	278,292	142,556
319,910	3,743	277,978	142,440
320,925	3,640	277,746	142,213
321,939	3,893	277,767	142,446
322,954	4,051	277,633	142,511
323,968	3,802	277,568	142,234
324,983	3,971	277,397	142,290
325,997	4,038	277,192	142,234
327,012	4,281	277,080	142,388
328,027	4,254	276,725	142,169
329,041	3,989	276,638	141,867
330,056	4,109	276,354	141,819
331,070	3,961	276,285	141,634
332,085	3,967	276,093	141,529
333,100	4,133	275,846	141,542
334,114	4,202	275,641	141,487
335,129	3,959	275,375	141,116
336,143	4,032	275,284	141,124
337,158	4,451	275,147	141,424
338,173	4,053	275,056	141,001
339,187	3,882	274,836	140,719
340,202	4,023	274,781	140,807
341,216	4,011	274,615	140,699
342,231	4,095	274,419	140,662
343,246	4,066	274,166	140,494
344,260	3,929	273,874	140,207
345,275	4,107	273,701	140,268
346,289	4,518	273,808	140,684
347,304	4,362	273,632	140,439
348,319	4,148	273,211	140,016
349,333	4,134	273,161	139,966
350,348	4,355	273,025	140,085
351,362	4,569	272,786	140,143
352,377	4,371	272,709	139,911
353,392	4,159	272,567	139,634
354,406	4,364	272,428	139,736
355,421	191,798	1331,457	1410,172
356,435	154,963	1460,571	1410,296
