DTS Sentinel unit serial number:	SN410029Multiplexer serial number:	ORYXHardware model number:	OX2-SRSoftware version number:	ORYX F/W v4,00 Oryx Data Collector v3.7.2.0data status	okinstallation	B4 Nyhavnadifferential loss correction	single-endedforward channel	channel 2reverse channel	N/Adate	2023/12/16time	07:45:13forward acquisition time	300,00reverse acquisition time	0,00gamma	499,1914k internal	0,3127k external	0,3127temperature offset calibration	1,0000default loss term (dB/km)	0,3820temperature slope calibration	1,0000multiplexer offset coefficient	1,0000multiplexer slope coefficient	1,0000fibre end	0,00T internal ref (°C)	22,37T ext. ref 1 (°C)	7,82T ext. ref 2 (°C)	7,97length (m)	temperature (°C)	Stokes	anti-Stokes-744,400	-78,438	0,040	0,010
-743,385	41,895	-0,172	0,116
-742,371	-48,340	0,032	-0,012
-741,356	-5,269	-0,121	0,062
-740,342	-65,770	0,166	0,049
-739,327	-157,100	-0,258	0,011
-738,312	559,628	0,068	-0,123
-737,298	-76,752	-0,199	-0,051
-736,283	-200,000	0,029	-0,103
-735,269	119,391	-0,135	0,124
-734,254	-137,890	0,219	0,018
-733,239	-20,892	-0,249	-0,113
-732,225	-0,704	0,159	-0,084
-731,210	307,600	-0,037	0,051
-730,196	521,158	-0,047	0,082
-729,181	800,000	-0,048	-0,128
-728,167	29,600	0,101	-0,064
-727,152	-92,002	0,061	0,013
-726,137	800,000	-0,017	0,043
-725,123	800,000	-0,030	-0,088
-724,108	-200,000	0,012	0,112
-723,094	343,787	0,023	-0,034
-722,079	-200,000	-0,048	-0,193
-721,064	-89,166	-0,021	-0,005
-720,050	420,867	-0,020	-0,032
-719,035	-35,866	0,081	-0,032
-718,021	-200,000	0,018	0,067
-717,006	-38,600	-0,034	0,013
-715,991	-48,287	-0,199	-0,071
-714,977	17,118	-0,112	-0,066
-713,962	800,000	-0,024	-0,075
-712,948	392,968	-0,062	0,096
-711,933	-173,273	-0,094	0,002
-710,918	165,870	-0,042	0,045
-709,904	299,785	-0,056	-0,076
-708,889	800,000	-0,029	-0,078
-707,875	800,000	-0,062	-0,155
-706,860	-21,809	-0,111	-0,050
-705,845	-42,048	0,075	0,028
-704,831	208,404	0,035	0,040
-703,816	-106,360	-0,038	-0,006
-702,802	119,157	-0,032	0,030
-701,787	-173,770	-0,098	-0,002
-700,772	6,238	0,055	0,030
-699,758	-200,000	0,022	-0,107
-698,743	26,647	-0,066	0,041
-697,729	249,391	0,018	-0,023
-696,714	-200,000	-0,017	0,125
-695,699	-200,000	-0,001	-0,006
-694,685	81,533	-0,118	-0,095
-693,670	-200,000	-0,036	-0,126
-692,656	-200,000	0,012	0,056
-691,641	-71,709	0,022	0,006
-690,627	5,475	0,029	0,016
-689,612	-200,000	-0,010	-0,098
-688,597	-200,000	0,008	-0,113
-687,583	423,943	-0,053	-0,085
-686,568	-156,541	-0,094	0,004
-685,554	-200,000	0,009	-0,187
-684,539	727,114	0,058	0,115
-683,524	-80,293	-0,125	0,031
-682,510	800,000	0,031	-0,077
-681,495	-200,000	-0,022	-0,141
-680,481	462,339	-0,055	-0,091
-679,466	-72,668	-0,163	0,044
-678,451	-200,000	0,009	-0,070
-677,437	-200,000	0,057	-0,200
-676,422	-61,617	-0,023	-0,007
-675,408	408,918	0,010	0,016
-674,393	734,578	-0,053	-0,105
-673,378	51,472	0,083	-0,059
-672,364	800,000	-0,033	-0,069
-671,349	526,331	-0,060	-0,104
-670,335	800,000	-0,028	-0,082
-669,320	71,032	-0,092	-0,070
-668,305	-82,902	-0,060	0,014
-667,291	511,477	-0,021	-0,036
-666,276	-200,000	0,021	-0,177
-665,262	-62,561	-0,137	-0,042
-664,247	241,165	-0,035	0,043
-663,232	-200,000	-0,006	0,055
-662,218	-200,000	-0,017	0,058
-661,203	-200,000	-0,042	-0,198
-660,189	6,904	0,097	-0,053
-659,174	-200,000	0,032	-0,131
-658,159	159,879	0,021	0,022
-657,145	-40,025	-0,135	-0,052
-656,130	201,924	0,086	0,098
-655,116	314,206	0,030	-0,042
-654,101	-200,000	-0,008	-0,072
-653,086	800,000	-0,042	0,092
-652,072	36,781	-0,113	-0,074
-651,057	31,840	-0,148	-0,094
-650,043	118,529	-0,099	-0,091
-649,028	800,000	-0,024	0,060
-648,014	-44,277	-0,036	0,013
-646,999	-87,016	-0,077	0,017
-645,984	89,193	-0,058	0,048
-644,970	-57,381	0,098	0,032
-643,955	540,566	0,038	0,067
-642,941	800,000	-0,076	-0,165
-641,926	-200,000	0,009	-0,136
-640,911	149,955	-0,095	-0,096
-639,897	27,503	-0,102	0,064
-638,882	57,294	0,113	0,081
-637,868	129,324	0,023	0,022
-636,853	800,000	0,051	-0,125
-635,838	-115,505	-0,118	0,016
-634,824	-200,000	-0,025	0,112
-633,809	776,863	0,047	0,096
-632,795	455,533	0,056	-0,092
-631,780	-122,214	0,084	-0,010
-630,765	85,669	-0,167	0,136
-629,751	113,930	0,093	-0,084
-628,736	22,650	-0,133	0,080
-627,722	528,662	-0,060	-0,105
-626,707	800,000	-0,049	-0,140
-625,692	5,863	0,047	-0,026
-624,678	-200,000	-0,001	0,072
-623,663	270,761	-0,074	0,097
-622,649	-200,000	-0,022	-0,080
-621,634	253,751	-0,052	-0,066
-620,619	202,737	0,074	-0,085
-619,605	10,904	-0,142	-0,080
-618,590	-138,387	0,136	0,011
-617,576	-200,000	-0,022	-0,095
-616,561	-174,663	0,033	0,001
-615,546	359,546	-0,049	-0,073
-614,532	-92,834	-0,123	-0,025
-613,517	423,291	-0,109	-0,174
-612,503	800,000	-0,019	0,060
-611,488	-200,000	0,038	0,172
-610,474	488,769	0,052	0,089
-609,459	-200,000	-0,008	0,051
-608,444	-32,324	0,046	0,019
-607,430	-2,565	0,164	-0,085
-606,415	320,116	0,028	-0,040
-605,401	-43,114	0,049	0,018
-604,386	591,833	0,035	-0,064
-603,371	-68,310	-0,043	0,012
-602,357	9,845	0,069	-0,038
-601,342	605,010	0,022	0,041
-600,328	375,317	-0,015	-0,022
-599,313	-60,694	-0,116	0,036
-598,298	-200,000	-0,043	0,204
-597,284	-200,000	-0,009	0,066
-596,269	-8,135	0,071	0,035
-595,255	-200,000	0,009	0,051
-594,240	277,902	-0,033	0,044
-593,225	-200,000	-0,020	-0,083
-592,211	-113,466	0,210	-0,030
-591,196	194,318	0,020	0,022
-590,182	-83,999	0,043	0,010
-589,167	-70,205	0,124	-0,035
-588,152	-200,000	-0,003	-0,043
-587,138	-200,000	0,011	0,231
-586,123	800,000	0,029	0,075
-585,109	-170,381	-0,159	0,004
-584,094	205,990	-0,090	0,104
-583,079	-69,947	0,114	0,032
-582,065	25,618	0,080	0,049
-581,050	311,612	-0,078	-0,108
-580,036	182,578	0,060	0,066
-579,021	54,261	-0,053	-0,038
-578,006	-77,575	-0,039	-0,010
-576,992	-200,000	-0,002	-0,118
-575,977	800,000	-0,024	-0,075
-574,963	-17,278	0,116	0,054
-573,948	-200,000	0,007	0,151
-572,934	-82,836	-0,061	0,014
-571,919	-200,000	-0,001	-0,092
-570,904	646,837	-0,030	-0,056
-569,890	-200,000	0,042	-0,168
-568,875	304,587	-0,070	-0,096
-567,861	-200,000	-0,001	0,087
-566,846	800,000	0,017	0,037
-565,831	-200,000	-0,001	-0,053
-564,817	-143,516	-0,142	0,010
-563,802	392,761	0,058	-0,090
-562,788	352,408	-0,090	-0,133
-561,773	-200,000	-0,011	-0,100
-560,758	-125,600	0,149	-0,016
-559,744	280,117	0,016	0,021
-558,729	-96,211	0,049	-0,010
-557,715	-100,654	-0,061	0,011
-556,700	79,983	0,031	0,024
-555,685	-8,699	-0,073	-0,036
-554,671	800,000	0,027	-0,084
-553,656	185,023	-0,147	-0,161
-552,642	-31,606	0,116	-0,048
-551,627	50,074	0,092	0,064
-550,612	139,185	-0,030	-0,029
-549,598	800,000	0,020	0,042
-548,583	228,265	-0,047	-0,057
-547,569	58,244	-0,049	0,036
-546,554	-200,000	0,001	-0,084
-545,539	530,295	0,043	-0,076
-544,525	159,760	0,014	0,014
-543,510	144,738	-0,104	0,102
-542,496	-10,794	0,053	-0,026
-541,481	274,077	0,031	0,040
-540,466	-128,168	-0,103	-0,011
-539,452	-200,000	0,000	0,080
-538,437	39,050	-0,071	0,047
-537,423	800,000	-0,018	-0,042
-536,408	-93,099	0,102	0,021
-535,393	800,000	-0,025	-0,057
-534,379	-90,328	-0,055	-0,012
-533,364	-49,759	0,099	-0,035
-532,350	800,000	0,040	-0,115
-531,335	-200,000	0,011	0,093
-530,321	131,664	-0,071	0,068
-529,306	-200,000	0,004	0,114
-528,291	800,000	-0,048	-0,109
-527,277	800,000	-0,021	0,050
-526,262	183,961	-0,149	-0,163
-525,248	176,723	-0,050	0,053
-524,233	-200,000	-0,020	0,143
-523,218	50,492	0,087	-0,061
-522,204	800,000	0,013	-0,032
-521,189	800,000	0,034	-0,085
-520,175	91,314	-0,046	-0,038
-519,160	256,129	-0,054	-0,069
-518,145	-79,009	-0,075	-0,019
-517,131	-92,185	0,119	0,025
-516,116	355,708	0,050	0,074
-515,102	-148,581	0,179	0,011
-514,087	-200,000	-0,005	-0,053
-513,072	800,000	0,030	-0,071
-512,058	520,320	0,011	0,020
-511,043	-200,000	-0,004	0,076
-510,029	-36,527	0,029	0,011
-509,014	-111,296	0,046	-0,007
-507,999	800,000	-0,019	0,041
-506,985	32,454	0,078	0,049
-505,970	-128,428	-0,174	0,018
-504,956	-133,187	0,101	0,009
-503,941	472,357	-0,076	0,126
-502,926	35,298	0,133	0,086
-501,912	-81,418	0,053	-0,013
-500,897	-200,000	0,009	0,032
-499,883	-200,000	0,002	-0,109
-498,868	15,805	-0,165	-0,095
-497,853	199,356	0,011	-0,012
-496,839	-4,585	-0,113	0,057
-495,824	-116,645	0,110	0,015
-494,810	-200,000	0,012	0,053
-493,795	5,080	-0,039	-0,021
-492,781	-78,789	0,190	0,047
-491,766	-200,000	0,009	-0,037
-490,751	128,892	0,147	-0,138
-489,737	415,643	-0,094	-0,148
-488,722	569,436	-0,087	-0,156
-487,708	-200,000	-0,003	0,055
-486,693	800,000	-0,006	0,019
-485,678	-89,241	-0,047	0,010
-484,664	800,000	-0,018	0,049
-483,649	103,485	0,043	0,037
-482,635	69,710	-0,127	-0,097
-481,620	-70,100	0,036	-0,010
-480,605	-23,216	0,053	0,023
-479,591	101,533	0,032	0,028
-478,576	245,260	0,063	0,078
-477,562	163,830	-0,092	-0,095
-476,547	-200,000	0,003	0,032
-475,532	-164,508	0,144	-0,005
-474,518	-68,316	-0,090	-0,026
-473,503	327,686	0,079	-0,112
-472,489	800,000	0,013	-0,032
-471,474	64,306	0,084	0,062
-470,459	654,589	-0,048	-0,091
-469,445	139,005	0,027	-0,026
-468,430	97,063	-0,023	-0,019
-467,416	393,693	0,038	-0,058
-466,401	572,964	-0,030	-0,055
-465,386	154,359	0,044	0,045
-464,372	800,000	0,062	0,144
-463,357	800,000	-0,040	0,095
-462,343	-64,168	-0,141	-0,042
-461,328	36,928	-0,036	0,024
-460,313	-19,299	0,041	-0,019
-459,299	113,702	0,108	0,096
-458,284	-52,475	0,028	-0,010
-457,270	-55,439	-0,030	-0,010
-456,255	619,524	0,043	-0,079
-455,241	46,982	-0,063	-0,043
-454,226	800,000	0,024	-0,053
-453,211	-70,577	0,010	-0,003
-452,197	-105,934	-0,091	-0,015
-451,182	800,000	0,029	-0,092
-450,168	104,164	0,086	-0,074
-449,153	-200,000	0,016	0,079
-448,138	88,108	-0,124	-0,101
-447,124	651,480	0,035	0,067
-446,109	-91,303	-0,071	0,015
-445,095	-200,000	-0,002	-0,010
-444,080	81,145	-0,025	0,019
-443,065	800,000	-0,029	-0,074
-442,051	-106,583	0,124	0,020
-441,036	-200,000	-0,027	0,111
-440,022	115,185	0,019	-0,017
-439,007	-55,838	0,126	0,041
-437,992	800,000	-0,012	0,024
-436,978	-200,000	0,023	0,122
-435,963	-146,602	-0,125	-0,008
-434,949	345,883	0,029	0,042
-433,934	73,541	-0,032	0,024
-432,919	674,952	-0,035	0,067
-431,905	124,579	-0,046	-0,042
-430,890	800,000	-0,008	-0,020
-429,876	-121,877	-0,096	0,011
-428,861	-37,590	0,132	0,051
-427,846	-200,000	-0,032	-0,148
-426,832	-114,058	0,020	-0,003
-425,817	548,769	0,027	-0,048
-424,803	-200,000	0,032	-0,157
-423,788	-94,778	0,074	0,015
-422,773	800,000	0,025	0,067
-421,759	-158,459	0,187	0,008
-420,744	-200,000	-0,029	0,124
-419,730	-51,919	-0,027	0,009
-418,715	-73,635	0,034	-0,009
-417,701	800,000	-0,025	-0,080
-416,686	17,502	0,116	-0,067
-415,671	-58,080	0,136	-0,043
-414,657	-132,074	-0,099	-0,009
-413,642	165,548	0,012	0,013
-412,628	18,296	0,060	0,035
-411,613	-145,622	-0,093	-0,006
-410,598	-152,452	-0,088	0,005
-409,584	-200,000	-0,007	-0,031
-408,569	-43,114	-0,055	-0,020
-407,555	-13,727	-0,053	-0,025
-406,540	53,261	-0,052	0,036
-405,525	800,000	0,028	0,062
-404,511	105,422	-0,114	0,099
-403,496	465,822	-0,079	-0,130
-402,482	402,165	0,051	-0,078
-401,467	364,789	-0,028	0,042
-400,452	363,838	0,067	0,099
-399,438	-62,201	0,075	-0,023
-398,423	40,760	-0,078	0,052
-397,409	179,253	-0,033	0,036
-396,394	671,374	-0,045	0,085
-395,379	358,161	-0,009	0,013
-394,365	-60,149	0,131	0,041
-393,350	-99,227	-0,014	0,003
-392,336	187,197	-0,111	-0,122
-391,321	140,643	-0,060	-0,058
-390,306	117,357	0,104	0,094
-389,292	57,280	-0,155	-0,111
-388,277	99,078	-0,120	-0,102
-387,263	87,218	0,091	0,074
-386,248	376,549	0,112	0,169
-385,233	-131,530	-0,081	-0,008
-384,219	135,647	0,063	-0,060
-383,204	656,378	-0,063	-0,119
-382,190	-200,000	-0,034	-0,171
-381,175	8,364	-0,222	0,122
-380,160	-47,847	0,065	0,023
-379,146	-200,000	-0,024	-0,115
-378,131	191,678	-0,099	0,109
-377,117	-47,247	0,116	0,041
-376,102	41,553	-0,135	-0,089
-375,088	318,674	0,049	0,069
-374,073	-20,114	0,124	-0,056
-373,058	-200,000	-0,013	0,061
-372,044	-200,000	0,014	0,047
-371,029	271,725	0,035	0,045
-370,015	-200,000	0,000	0,124
-369,000	-3,779	-0,151	0,077
-367,985	-200,000	-0,002	-0,042
-366,971	-57,100	-0,088	-0,028
-365,956	-66,461	-0,051	0,015
-364,942	404,982	0,073	0,113
-363,927	-200,000	-0,001	0,014
-362,912	-129,835	-0,068	0,007
-361,898	42,529	-0,122	-0,081
-360,883	-75,464	-0,151	0,039
-359,869	-200,000	0,021	-0,071
-358,854	307,973	-0,070	0,096
-357,839	-200,000	0,013	0,072
-356,825	56,871	0,099	-0,070
-355,810	-200,000	0,013	-0,098
-354,796	-200,000	0,013	-0,125
-353,781	-24,684	-0,132	0,057
-352,766	-12,791	-0,156	-0,074
-351,752	151,290	-0,010	0,010
-350,737	217,444	-0,086	-0,101
-349,723	122,227	0,067	0,061
-348,708	-80,482	0,059	-0,014
-347,693	800,000	0,017	0,036
-346,679	405,014	-0,056	-0,086
-345,664	-200,000	0,007	-0,037
-344,650	107,098	0,091	-0,079
-343,635	149,473	-0,075	-0,075
-342,620	-40,782	0,086	-0,033
-341,606	-200,000	-0,012	0,108
-340,591	-190,927	-0,183	-0,001
-339,577	94,499	-0,023	0,019
-338,562	137,735	-0,099	-0,095
-337,548	321,162	0,023	-0,032
-336,533	800,000	0,035	0,101
-335,518	-200,000	0,002	-0,035
-334,504	-122,738	-0,159	0,019
-333,489	-80,651	0,089	-0,022
-332,475	-131,940	-0,063	0,006
-331,460	-14,935	0,031	-0,014
-330,445	115,767	-0,029	-0,026
-329,431	-200,000	0,002	-0,080
-328,416	262,696	0,041	-0,052
-327,402	101,524	-0,055	0,047
-326,387	-64,962	0,033	-0,010
-325,372	245,698	-0,111	-0,137
-324,358	-147,943	-0,098	0,006
-323,343	490,839	0,090	0,151
-322,329	800,000	0,062	0,131
-321,314	441,250	0,046	0,073
-320,299	133,231	0,074	0,070
-319,285	2,677	0,057	0,030
-318,270	-101,567	-0,103	-0,018
-317,256	-85,624	0,115	-0,026
-316,241	248,484	-0,020	0,025
-315,226	-200,000	-0,030	-0,121
-314,212	-6,479	0,108	-0,054
-313,197	404,392	0,051	0,080
-312,183	-200,000	-0,014	0,058
-311,168	138,530	-0,094	-0,090
-310,153	-136,378	-0,163	-0,014
-309,139	800,000	0,021	0,064
-308,124	800,000	0,070	-0,183
-307,110	-200,000	-0,032	0,118
-306,095	213,358	0,138	0,160
-305,080	223,214	-0,055	0,065
-304,066	-200,000	0,008	-0,060
-303,051	-0,577	0,016	0,008
-302,037	158,490	-0,114	0,115
-301,022	111,434	0,063	0,055
-300,008	-200,000	-0,019	0,133
-298,993	-200,000	-0,037	0,157
-297,978	289,533	-0,022	-0,029
-296,964	-200,000	0,006	0,035
-295,949	-132,592	-0,096	0,009
-294,935	197,758	0,030	-0,034
-293,920	134,076	-0,056	0,053
-292,905	527,536	-0,029	0,050
-291,891	-200,000	0,012	-0,072
-290,876	95,882	-0,147	-0,123
-289,862	-16,443	0,110	-0,051
-288,847	-178,105	-0,117	0,002
-287,832	-108,874	0,015	-0,002
-286,818	-200,000	-0,000	0,023
-285,803	385,304	0,058	-0,088
-284,789	800,000	0,046	0,100
-283,774	-200,000	0,023	-0,096
-282,759	-200,000	0,020	0,088
-281,745	391,081	-0,052	-0,079
-280,730	-200,000	-0,012	-0,104
-279,716	-200,000	0,002	-0,027
-278,701	-200,000	0,011	-0,089
-277,686	-4,436	0,096	-0,048
-276,672	-200,000	0,008	0,039
-275,657	-79,214	-0,032	0,008
-274,643	-96,258	-0,153	-0,029
-273,628	-57,984	-0,005	0,001
-272,613	201,229	0,173	-0,195
-271,599	-174,708	-0,094	-0,002
-270,584	439,928	0,140	0,225
-269,570	317,914	0,069	0,096
-268,555	-99,168	-0,014	-0,003
-267,540	72,256	-0,010	0,008
-266,526	155,363	-0,021	-0,021
-265,511	800,000	0,027	-0,056
-264,497	36,025	0,047	0,030
-263,482	137,341	0,077	0,074
-262,467	-200,000	0,001	-0,056
-261,453	800,000	-0,048	0,129
-260,438	-200,000	0,015	0,062
-259,424	131,297	-0,088	0,082
-258,409	-200,000	0,001	0,091
-257,395	-138,540	0,066	0,005
-256,380	-68,766	-0,005	0,001
-255,365	161,449	0,031	0,032
-254,351	-200,000	0,004	0,175
-253,336	-146,348	-0,078	-0,005
-252,322	325,433	-0,062	-0,087
-251,307	800,000	0,009	-0,028
-250,292	-127,917	0,034	0,003
-249,278	319,460	-0,035	0,048
-248,263	35,472	0,076	0,049
-247,249	-150,620	0,117	0,006
-246,234	-22,033	0,046	-0,020
-245,219	-79,789	-0,087	0,021
-244,205	22,374	0,065	-0,039
-243,190	36,740	0,059	0,038
-242,176	159,867	0,017	0,017
-241,161	175,349	-0,092	-0,098
-240,146	-200,000	0,029	-0,157
-239,132	63,202	-0,110	-0,080
-238,117	-192,616	0,061	-0,000
-237,103	-26,646	-0,091	-0,039
-236,088	-20,334	0,084	0,038
-235,073	-200,000	0,035	0,232
-234,059	800,000	0,045	-0,108
-233,044	-74,160	0,110	-0,029
-232,030	-6,866	-0,057	-0,028
-231,015	-200,000	0,004	-0,042
-230,000	39,846	-0,092	-0,060
-228,986	-151,188	-0,045	0,002
-227,971	-58,759	0,066	0,021
-226,957	162,435	0,164	0,168
-225,942	-75,891	-0,049	0,013
-224,927	91,782	0,173	0,142
-223,913	-65,726	-0,146	-0,042
-222,898	800,000	-0,010	0,030
-221,884	800,000	-0,016	0,046
-220,869	-57,442	0,112	0,036
-219,855	281,627	0,032	0,042
-218,840	800,000	-0,022	0,058
-217,825	90,867	-0,041	-0,034
-216,811	20,595	-0,081	0,048
-215,796	107,256	-0,034	-0,029
-214,782	71,082	0,058	-0,044
-213,767	323,057	0,050	0,069
-212,752	-63,942	0,135	-0,040
-211,738	-61,112	0,065	0,020
-210,723	800,000	-0,054	-0,156
-209,709	105,743	-0,104	0,090
-208,694	375,801	0,034	-0,050
-207,679	62,720	-0,042	0,031
-206,665	182,253	-0,089	0,096
-205,650	108,959	-0,045	-0,039
-204,636	-65,609	0,036	0,010
-203,621	779,540	0,077	0,154
-202,606	-59,057	-0,137	0,043
-201,592	-200,000	-0,017	0,099
-200,577	-200,000	-0,021	-0,120
-199,563	-200,000	-0,001	-0,102
-198,548	536,329	0,092	0,160
-197,533	254,663	-0,030	-0,038
-196,519	-30,948	0,109	-0,044
-195,504	130,304	-0,071	-0,066
-194,490	-147,202	-0,040	-0,002
-193,475	-200,000	0,002	-0,027
-192,460	38,921	0,069	0,045
-191,446	-200,000	-0,033	0,128
-190,431	191,977	-0,114	0,125
-189,417	3,081	0,004	0,002
-188,402	-112,091	0,142	-0,021
-187,387	-5,257	0,116	-0,058
-186,373	-200,000	0,018	0,119
-185,358	800,000	-0,013	0,033
-184,344	-81,770	0,101	0,024
-183,329	-200,000	-0,015	0,060
-182,315	255,348	-0,038	0,048
-181,300	395,069	-0,069	-0,106
-180,285	27,108	0,104	0,064
-179,271	99,117	0,053	0,045
-178,256	-108,239	-0,037	-0,006
-177,242	-200,000	-0,001	0,057
-176,227	-200,000	0,049	0,195
-175,212	-200,000	-0,008	0,062
-174,198	800,000	0,028	-0,087
-173,183	100,371	-0,045	0,038
-172,169	-150,917	-0,057	0,003
-171,154	-53,619	0,035	-0,012
-170,139	275,725	0,062	0,080
-169,125	-178,215	0,105	0,002
-168,110	303,757	0,020	-0,026
-167,096	-200,000	-0,005	-0,070
-166,081	800,000	0,028	-0,080
-165,066	-200,000	-0,008	0,106
-164,052	-15,333	-0,075	0,035
-163,037	-156,564	0,099	-0,004
-162,023	210,625	-0,044	-0,050
-161,008	800,000	0,042	-0,088
-159,993	122,845	0,044	-0,040
-158,979	248,823	0,067	-0,082
-157,964	569,162	0,048	-0,086
-156,950	78,892	0,138	-0,107
-155,935	627,959	0,043	-0,080
-154,920	-50,242	0,063	-0,022
-153,906	-54,340	0,067	0,022
-152,891	-200,000	-0,026	-0,136
-151,877	-200,000	0,004	-0,089
-150,862	-2,512	-0,152	-0,077
-149,847	-56,899	-0,116	-0,037
-148,833	176,417	0,096	0,102
-147,818	800,000	-0,038	0,090
-146,804	800,000	0,024	-0,074
-145,789	800,000	-0,054	0,168
-144,775	-108,036	0,056	0,009
-143,760	-110,210	0,144	-0,022
-142,745	800,000	-0,038	-0,077
-141,731	-123,595	-0,068	-0,008
-140,716	-189,599	0,044	0,000
-139,702	193,922	-0,072	0,079
-138,687	-200,000	-0,018	0,074
-137,672	-48,924	0,093	-0,032
-136,658	800,000	0,040	0,093
-135,643	268,292	-0,039	0,050
-134,629	-200,000	-0,017	0,069
-133,614	-200,000	0,023	-0,111
-132,599	-144,151	0,022	-0,001
-131,585	413,459	-0,069	0,107
-130,570	-200,000	-0,024	0,078
-129,556	90,241	-0,026	0,021
-128,541	375,199	-0,018	0,027
-127,526	118,904	0,040	0,036
-126,512	788,177	0,050	0,099
-125,497	-200,000	-0,005	0,047
-124,483	341,137	0,039	-0,056
-123,468	-200,000	0,011	0,103
-122,453	121,702	-0,034	0,030
-121,439	-200,000	0,007	-0,057
-120,424	636,628	0,020	0,038
-119,410	741,979	0,025	-0,050
-118,395	-80,313	0,064	0,015
-117,380	-200,000	0,004	0,080
-116,366	-200,000	0,022	0,087
-115,351	175,227	0,031	0,033
-114,337	800,000	-0,015	0,031
-113,322	646,398	0,026	0,049
-112,307	-200,000	-0,001	0,016
-111,293	152,684	0,080	-0,080
-110,278	-200,000	-0,013	0,086
-109,264	287,807	0,084	0,110
-108,249	175,847	-0,118	0,124
-107,234	169,360	-0,102	-0,105
-106,220	135,060	-0,115	-0,108
-105,205	-200,000	0,043	0,169
-104,191	-56,292	0,206	0,066
-103,176	-200,000	0,002	0,045
-102,162	583,934	0,015	0,027
-101,147	283,606	-0,092	0,120
-100,132	113,839	-0,045	-0,039
-99,118	224,221	0,077	-0,091
-98,103	431,222	0,089	-0,140
-97,089	348,762	0,059	0,085
-96,074	800,000	0,036	-0,103
-95,059	-200,000	-0,017	0,070
-94,045	800,000	-0,022	-0,067
-93,030	212,398	-0,052	0,059
-92,016	83,576	-0,112	-0,088
-91,001	695,107	0,004	0,008
-89,986	243,213	0,179	0,218
-88,972	289,178	-0,083	0,109
-87,957	47,727	0,083	0,056
-86,943	-67,060	0,064	0,018
-85,928	-200,000	-0,060	0,000
-84,913	-130,160	-0,058	-0,006
-83,899	212,540	-0,049	-0,056
-82,884	-200,000	-0,017	-0,205
-81,870	-47,586	-0,054	0,019
-80,855	14,017	0,039	-0,022
-79,840	5,484	-0,100	-0,054
-78,826	28,026	0,018	-0,011
-77,811	-88,157	-0,078	0,017
-76,797	-7,425	0,079	-0,039
-75,782	345,504	-0,091	-0,130
-74,767	-200,000	0,006	0,089
-73,753	-200,000	0,023	0,114
-72,738	54,821	0,047	0,033
-71,724	-20,531	0,018	-0,008
-70,709	800,000	0,049	-0,101
-69,694	79,530	-0,058	-0,045
-68,680	800,000	-0,024	0,061
-67,665	283,290	-0,068	0,089
-66,651	-6,681	0,102	-0,050
-65,636	185,499	0,144	-0,155
-64,622	295,321	-0,123	-0,164
-63,607	-71,500	-0,030	-0,008
-62,592	-147,262	0,078	-0,005
-61,578	-49,694	0,147	-0,050
-60,563	121,213	0,074	0,066
-59,549	800,000	-0,063	0,134
-58,534	-163,860	-1,308	-0,043
-57,519	772,396	-0,796	-1,580
-56,505	-200,000	-0,862	-4,329
-55,490	-28,471	0,571	-0,237
-54,476	800,000	4,894	11,492
-53,461	-200,000	13,669	251,475
-52,446	-200,000	689,422	2249,988
-51,432	592,391	1619,812	2910,980
-50,417	119,465	1631,627	1463,752
-49,403	74,398	1286,404	978,600
-48,388	38,273	1022,550	658,469
-47,373	24,347	980,478	585,713
-46,359	23,609	970,043	577,044
-45,344	22,577	965,876	571,179
-44,330	22,472	964,562	570,036
-43,315	22,444	962,838	568,905
-42,300	22,467	961,812	568,352
-41,286	22,438	961,027	567,769
-40,271	22,367	959,982	566,899
-39,257	22,418	959,003	566,464
-38,242	22,305	958,288	565,655
-37,227	22,387	957,311	565,321
-36,213	22,361	956,421	564,688
-35,198	22,337	955,524	564,057
-34,184	22,419	954,904	563,935
-33,169	22,327	954,065	563,121
-32,154	22,410	953,105	562,798
-31,140	22,415	952,139	562,220
-30,125	22,464	951,351	561,891
-29,111	22,419	950,594	561,276
-28,096	22,435	949,879	560,883
-27,082	22,429	949,314	560,510
-26,067	22,446	948,471	560,043
-25,052	22,456	947,683	559,587
-24,038	22,400	947,148	559,070
-23,023	22,402	946,520	558,685
-22,009	22,384	945,971	558,280
-20,994	22,448	945,263	558,044
-19,979	22,437	944,742	557,682
-18,965	22,424	944,021	557,192
-17,950	22,475	943,363	556,942
-16,936	22,363	942,667	556,155
-15,921	22,378	942,041	555,810
-14,906	22,368	941,113	555,208
-13,892	22,290	940,714	554,704
-12,877	22,266	940,124	554,258
-11,863	22,233	939,374	553,689
-10,848	22,239	938,848	553,375
-9,833	22,419	938,441	553,683
-8,819	22,378	937,860	553,188
-7,804	22,322	937,092	552,537
-6,790	22,288	936,661	552,153
-5,775	22,381	935,814	551,926
-4,760	22,372	935,276	551,557
-3,746	22,293	934,809	551,013
-2,731	22,144	934,114	550,111
-1,717	22,119	933,294	549,529
-0,702	22,110	932,640	549,094
0,313	21,877	932,081	548,860
1,327	24,334	929,653	555,086
2,342	31,891	807,791	502,751
3,356	27,290	507,908	308,259
4,371	3,553	372,328	195,937
5,386	0,573	355,262	183,303
6,400	-0,880	349,161	178,395
7,415	-1,879	346,230	175,691
8,429	-2,138	344,829	174,657
9,444	-2,072	343,941	174,270
10,459	-1,994	343,276	174,010
11,473	-1,963	342,539	173,657
12,488	-1,785	342,244	173,702
13,502	-1,619	341,699	173,605
14,517	-1,904	341,115	172,958
15,531	-2,046	340,429	172,429
16,546	-2,142	340,089	172,128
17,561	-2,094	339,576	171,910
18,575	-1,967	339,355	171,931
19,590	-2,244	339,061	171,443
20,604	-2,016	338,569	171,445
21,619	-2,112	338,206	171,135
22,634	-2,099	337,730	170,893
23,648	-1,964	337,401	170,868
24,663	-1,971	337,045	170,664
25,677	-2,208	336,836	170,269
26,692	-2,128	336,734	170,296
27,707	-2,019	336,187	170,129
28,721	-2,010	335,854	169,955
29,736	-1,966	335,454	169,788
30,750	-2,146	335,261	169,469
31,765	-2,190	335,147	169,346
32,780	-1,944	334,711	169,393
33,794	-2,114	334,562	169,107
34,809	-1,977	334,195	169,064
35,823	-1,984	333,861	168,872
36,838	-2,138	333,656	168,576
37,853	-2,050	333,254	168,458
38,867	-2,050	332,981	168,305
39,882	-2,248	332,832	167,989
40,896	-2,139	332,473	167,918
41,911	-2,143	332,225	167,772
42,926	-2,054	331,860	167,674
43,940	-2,165	331,752	167,478
44,955	-2,206	331,285	167,182
45,969	-2,197	331,069	167,068
46,984	-2,418	330,801	166,666
47,999	-2,482	330,365	166,360
49,013	-2,631	330,137	166,061
50,028	-2,804	329,860	165,712
51,042	-2,826	329,642	165,562
52,057	-2,839	329,317	165,370
53,071	-2,669	328,952	165,363
54,086	-2,778	328,842	165,170
55,101	-2,692	328,738	165,201
56,115	-2,455	328,621	165,394
57,130	-1,985	328,299	165,746
58,144	-1,896	328,150	165,756
59,159	-1,950	327,809	165,508
60,174	-1,952	327,530	165,351
61,188	-1,881	327,299	165,299
62,203	-2,054	327,223	165,052
63,217	-1,938	326,823	164,965
64,232	-1,954	326,576	164,808
65,247	-1,840	326,479	164,872
66,261	-1,860	326,148	164,668
67,276	-2,116	325,714	164,148
68,290	-2,175	325,347	163,883
69,305	-2,295	325,216	163,669
70,320	-2,257	324,871	163,523
71,334	-2,135	324,731	163,574
72,349	-1,972	324,594	163,671
73,363	-1,766	324,322	163,748
74,378	-1,854	324,062	163,504
75,393	-1,903	323,752	163,279
76,407	-1,959	323,589	163,120
77,422	-1,993	323,321	162,933
78,436	-2,056	323,167	162,771
79,451	-1,896	322,827	162,762
80,466	-2,073	322,433	162,354
81,480	-2,325	322,263	161,976
82,495	-2,270	321,903	161,841
83,509	-2,233	321,766	161,799
84,524	-2,219	321,548	161,690
85,539	-2,310	321,149	161,375
86,553	-2,482	320,993	161,094
87,568	-2,327	320,690	161,097
88,582	-2,248	320,657	161,152
89,597	-2,349	320,438	160,917
90,611	-2,046	320,128	161,079
91,626	-2,049	320,037	161,016
92,641	-2,006	319,732	160,894
93,655	-2,151	319,446	160,578
94,670	-2,279	319,264	160,333
95,684	-2,183	318,834	160,207
96,699	-2,193	318,755	160,142
97,714	-2,297	318,610	159,942
98,728	-2,319	318,271	159,733
99,743	-2,455	318,054	159,462
100,757	-2,472	317,643	159,224
101,772	-2,378	317,463	159,221
102,787	-2,368	317,251	159,112
103,801	-2,339	317,257	159,132
104,816	-2,065	316,896	159,233
105,830	-2,137	316,843	159,114
106,845	-2,051	316,648	159,095
107,860	-2,208	316,267	158,720
108,874	-2,250	316,090	158,571
109,889	-2,043	315,851	158,660
110,903	-2,080	315,465	158,413
111,918	-2,194	315,307	158,197
112,933	-2,111	315,048	158,142
113,947	-1,986	314,873	158,174
114,962	-2,031	314,767	158,059
115,976	-2,061	314,511	157,883
116,991	-2,018	314,233	157,777
118,006	-2,031	314,027	157,645
119,020	-1,968	313,754	157,561
120,035	-1,881	313,682	157,604
121,049	-2,104	313,566	157,293
122,064	-2,092	313,247	157,132
123,079	-1,977	313,040	157,137
124,093	-2,120	312,848	156,874
125,108	-2,304	312,521	156,500
126,122	-2,461	312,166	156,142
127,137	-2,399	311,965	156,093
128,151	-2,446	311,774	155,934
129,166	-2,271	311,447	155,941
130,181	-2,388	311,283	155,721
131,195	-2,272	310,929	155,654
132,210	-2,282	310,922	155,626
133,224	-2,154	310,813	155,692
134,239	-2,025	310,480	155,648
135,254	-2,119	310,315	155,453
136,268	-2,170	309,955	155,204
137,283	-2,483	309,712	154,739
138,297	-2,437	309,328	154,581
139,312	-2,377	309,220	154,577
140,327	-2,179	309,260	154,791
141,341	-1,879	309,141	155,034
142,356	-1,804	308,897	154,976
143,370	-1,661	308,824	155,076
144,385	-1,664	308,605	154,949
145,400	-1,757	308,198	154,633
146,414	-1,872	308,060	154,430
147,429	-1,788	307,849	154,398
148,443	-1,676	307,659	154,406
149,458	-1,761	307,442	154,195
150,473	-1,652	307,230	154,188
151,487	-1,781	306,844	153,846
152,502	-1,853	306,718	153,695
153,516	-1,688	306,519	153,753
154,531	-1,778	306,308	153,540
155,546	-1,725	306,189	153,522
156,560	-1,902	305,841	153,149
157,575	-2,029	305,672	152,919
158,589	-2,046	305,397	152,750
159,604	-1,900	305,238	152,809
160,619	-1,905	304,949	152,645
161,633	-1,900	304,654	152,489
162,648	-1,838	304,477	152,451
163,662	-1,890	304,548	152,419
164,677	-1,838	304,194	152,282
165,692	-1,588	303,960	152,409
166,706	-1,635	303,853	152,294
167,721	-1,819	303,562	151,945
168,735	-1,721	303,488	151,995
169,750	-1,599	303,389	152,058
170,764	-1,723	303,157	151,800
171,779	-1,641	303,051	151,817
172,794	-1,532	302,726	151,754
173,808	-1,758	302,575	151,433
174,823	-2,245	302,062	150,663
175,837	-2,449	301,880	150,350
176,852	-2,010	301,930	150,811
177,867	-1,810	301,784	150,930
178,881	-1,784	301,655	150,877
179,896	-1,855	301,252	150,591
180,910	-1,684	301,164	150,708
181,925	-1,765	300,881	150,470
182,940	-1,617	300,766	150,550
183,954	-1,602	300,525	150,431
184,969	-1,722	300,359	150,212
185,983	-1,762	300,097	150,027
186,998	-1,752	299,870	149,910
188,013	-1,818	299,826	149,808
189,027	-1,686	299,503	149,767
190,042	-1,721	299,449	149,692
191,056	-1,580	299,148	149,671
192,071	-1,462	298,968	149,687
193,086	-1,455	298,742	149,567
194,100	-1,400	298,496	149,487
195,115	-1,604	298,181	149,109
196,129	-1,679	298,122	148,991
197,144	-1,523	298,046	149,097
198,159	-1,672	297,782	148,801
199,173	-1,511	297,516	148,817
200,188	-1,456	297,285	148,744
201,202	-1,640	296,972	148,389
202,217	-2,146	296,601	147,682
203,232	-2,320	296,436	147,413
204,246	-1,682	296,121	147,882
205,261	-1,598	296,295	148,040
206,275	-1,612	296,167	147,949
207,290	-1,600	295,778	147,753
208,304	-1,537	295,718	147,773
209,319	-1,658	295,526	147,544
210,334	-1,519	295,248	147,530
211,348	-1,778	295,057	147,163
212,363	-1,718	294,777	147,070
213,377	-1,571	294,555	147,093
214,392	-1,778	294,573	146,882
215,407	-1,914	294,275	146,585
216,421	-2,103	293,955	146,224
217,436	-1,945	293,661	146,222
218,450	-1,904	293,620	146,230
219,465	-1,962	293,524	146,111
220,480	-1,804	293,407	146,197
221,494	-1,843	293,239	146,061
222,509	-1,846	292,990	145,921
223,523	-1,692	292,765	145,949
224,538	-1,566	292,600	145,978
225,553	-1,463	292,348	145,940
226,567	-1,662	292,417	145,765
227,582	-1,531	292,064	145,706
228,596	-1,622	292,039	145,591
229,611	-1,366	291,841	145,731
230,626	-1,592	291,420	145,285
231,640	-1,932	291,162	144,810
232,655	-2,045	290,715	144,464
233,669	-2,466	290,711	144,036
234,684	-2,297	290,441	144,055
235,699	-2,375	290,452	143,972
236,713	-2,205	290,225	144,012
237,728	-2,011	290,006	144,080
238,742	-1,897	289,838	144,095
239,757	-1,544	289,632	144,325
240,772	-1,758	289,531	144,053
241,786	-1,690	289,379	144,031
242,801	-1,849	289,014	143,681
243,815	-2,041	288,966	143,457
244,830	-1,913	288,756	143,465
245,844	-2,128	288,396	143,064
246,859	-1,929	288,336	143,215
247,874	-1,981	288,143	143,056
248,888	-1,948	287,937	142,974
249,903	-1,798	287,932	143,104
250,917	-1,772	287,799	143,050
251,932	-1,591	287,759	143,192
252,947	-0,888	287,679	143,821
253,961	-0,809	287,549	143,820
254,976	0,087	287,863	144,832
255,990	2,295	288,392	147,225
257,005	2,928	288,525	147,894
258,020	3,892	288,879	148,996
259,034	4,241	288,784	149,273
260,049	4,006	288,541	148,906
261,063	3,945	288,245	148,681
262,078	4,182	288,258	148,904
263,093	4,643	288,253	149,333
264,107	4,559	288,084	149,151
265,122	4,629	287,860	149,089
266,136	5,064	287,672	149,398
267,151	4,888	287,501	149,126
268,166	4,486	287,335	148,639
269,180	4,620	287,122	148,645
270,195	4,897	286,854	148,759
271,209	4,622	286,666	148,384
272,224	4,620	286,447	148,256
273,239	4,516	286,269	148,051
274,253	4,569	286,144	148,024
275,268	4,902	286,013	148,262
276,282	4,767	285,894	148,058
277,297	4,568	285,624	147,715
278,312	4,986	285,467	148,020
279,326	4,923	285,355	147,888
280,341	4,724	285,045	147,524
281,355	4,570	284,961	147,321
282,370	4,518	284,689	147,118
283,384	4,503	284,524	147,005
284,399	4,558	284,362	146,961
285,414	4,601	284,160	146,884
286,428	4,396	283,945	146,565
287,443	4,352	283,736	146,402
288,457	4,157	283,417	146,039
289,472	4,153	283,252	145,938
290,487	4,135	283,135	145,848
291,501	4,164	282,756	145,666
292,516	3,858	282,704	145,338
293,530	4,039	282,389	145,333
294,545	4,268	282,398	145,541
295,560	4,370	282,125	145,484
296,574	3,988	282,065	145,080
297,589	4,178	281,860	145,141
298,603	4,659	281,794	145,547
299,618	4,652	281,735	145,496
300,633	4,549	281,439	145,234
301,647	4,732	281,209	145,274
302,662	4,412	281,086	144,897
303,676	4,274	280,820	144,618
304,691	4,254	280,489	144,415
305,706	3,975	280,313	144,050
306,720	3,933	280,128	143,904
307,735	4,089	279,894	143,916
308,749	4,096	279,843	143,884
309,764	4,327	279,723	144,026
310,779	4,172	279,482	143,743
311,793	3,947	279,219	143,386
312,808	3,842	279,050	143,188
313,822	4,030	278,856	143,251
314,837	3,918	278,602	143,003
315,852	3,673	278,438	142,679
316,866	4,040	278,268	142,920
317,881	3,995	278,233	142,847
318,895	3,901	277,962	142,608
319,910	3,912	277,613	142,426
320,925	3,587	277,579	142,096
321,939	3,884	277,389	142,261
322,954	4,077	277,381	142,422
323,968	4,180	277,300	142,463
324,983	4,202	276,969	142,301
325,997	4,106	276,895	142,161
327,012	4,368	276,638	142,259
328,027	4,160	276,593	142,031
329,041	4,175	276,312	141,888
330,056	4,417	276,111	141,995
331,070	4,178	275,943	141,676
332,085	4,050	275,755	141,449
333,100	4,322	275,494	141,553
334,114	4,179	275,346	141,333
335,129	3,977	275,191	141,055
336,143	4,075	275,110	141,091
337,158	4,419	275,043	141,359
338,173	4,284	274,757	141,076
339,187	4,293	274,484	140,932
340,202	4,135	274,416	140,739
341,216	4,322	274,257	140,816
342,231	4,191	274,078	140,592
343,246	3,986	273,919	140,311
344,260	4,152	273,728	140,352
345,275	4,259	273,600	140,371
346,289	4,757	273,525	140,773
347,304	4,619	273,197	140,467
348,319	4,453	273,029	140,217
349,333	4,263	272,855	139,943
350,348	4,496	272,864	140,146
351,362	4,663	272,446	140,070
352,377	4,553	272,386	139,927
353,392	4,464	272,151	139,714
354,406	4,664	271,997	139,803
355,421	192,045	1331,937	1411,655
356,435	155,154	1461,169	1411,776
