DTS Sentinel unit serial number:	SN410029Multiplexer serial number:	ORYXHardware model number:	OX2-SRSoftware version number:	ORYX F/W v4,00 Oryx Data Collector v3.7.2.0data status	okinstallation	B4 Nyhavnadifferential loss correction	single-endedforward channel	channel 2reverse channel	N/Adate	2023/12/19time	01:10:13forward acquisition time	300,00reverse acquisition time	0,00gamma	499,1914k internal	0,3123k external	0,3123temperature offset calibration	1,0000default loss term (dB/km)	0,3820temperature slope calibration	1,0000multiplexer offset coefficient	1,0000multiplexer slope coefficient	1,0000fibre end	0,00T internal ref (°C)	21,82T ext. ref 1 (°C)	6,03T ext. ref 2 (°C)	6,03length (m)	temperature (°C)	Stokes	anti-Stokes-744,400	-200,000	-0,031	-0,105
-743,385	-130,947	-0,193	0,019
-742,371	-68,614	-0,064	-0,018
-741,356	-75,944	-0,073	0,019
-740,342	738,717	0,039	-0,079
-739,327	150,166	-0,196	0,199
-738,312	-134,501	-0,110	0,010
-737,298	58,125	-0,216	0,158
-736,283	441,069	0,055	0,090
-735,269	-165,183	-0,208	0,007
-734,254	176,634	-0,027	-0,029
-733,239	-88,826	-0,410	-0,090
-732,225	177,787	0,135	-0,147
-731,210	-136,078	0,050	-0,004
-730,196	252,044	-0,043	0,054
-729,181	-200,000	-0,025	-0,084
-728,167	-200,000	-0,002	0,028
-727,152	-82,033	-0,084	-0,020
-726,137	459,804	0,030	-0,050
-725,123	-101,115	-0,185	-0,033
-724,108	493,331	0,056	0,096
-723,094	-33,572	-0,039	0,016
-722,079	-73,364	-0,144	-0,039
-721,064	-118,920	0,135	-0,017
-720,050	800,000	0,048	-0,116
-719,035	-56,484	-0,072	0,024
-718,021	27,093	-0,039	-0,024
-717,006	800,000	0,051	-0,115
-715,991	-200,000	-0,025	-0,158
-714,977	-200,000	-0,032	-0,135
-713,962	5,077	0,004	0,002
-712,948	-107,400	0,027	-0,004
-711,933	-200,000	0,005	-0,140
-710,918	800,000	0,061	-0,129
-709,904	19,689	-0,080	-0,048
-708,889	2,440	-0,179	-0,096
-707,875	800,000	-0,091	-0,190
-706,860	-35,503	0,027	0,011
-705,845	-13,330	-0,111	0,053
-704,831	800,000	-0,007	0,014
-703,816	-117,232	-0,050	-0,007
-702,802	800,000	0,043	-0,095
-701,787	-48,234	0,070	0,025
-700,772	122,331	-0,044	-0,041
-699,758	800,000	-0,062	-0,167
-698,743	-200,000	0,006	-0,067
-697,729	426,527	0,033	-0,054
-696,714	331,269	-0,091	0,131
-695,699	48,557	-0,033	-0,023
-694,685	-22,637	-0,099	-0,044
-693,670	551,489	-0,053	-0,095
-692,656	-200,000	0,004	-0,124
-691,641	4,499	0,080	-0,044
-690,627	613,129	0,063	-0,118
-689,612	-170,539	-0,076	0,002
-688,597	24,870	-0,033	-0,020
-687,583	-200,000	-0,020	-0,085
-686,568	-200,000	0,005	-0,062
-685,554	-3,742	-0,208	-0,107
-684,539	-200,000	0,012	0,046
-683,524	39,411	0,022	-0,015
-682,510	182,057	-0,053	0,059
-681,495	-200,000	0,001	0,034
-680,481	412,615	0,051	-0,081
-679,466	800,000	0,045	-0,124
-678,451	431,181	-0,079	-0,127
-677,437	351,237	0,070	0,103
-676,422	-135,591	-0,084	-0,007
-675,408	-200,000	-0,026	0,110
-674,393	-160,131	-0,008	0,000
-673,378	496,645	-0,037	0,063
-672,364	-200,000	0,013	0,104
-671,349	800,000	-0,042	-0,092
-670,335	-140,171	-0,108	-0,008
-669,320	-200,000	-0,043	0,172
-668,305	-115,343	0,129	0,018
-667,291	800,000	-0,022	-0,047
-666,276	-200,000	0,009	-0,119
-665,262	676,857	-0,054	-0,106
-664,247	290,222	-0,046	-0,062
-663,232	-188,212	-0,162	0,001
-662,218	177,043	0,068	0,074
-661,203	450,197	-0,089	0,147
-660,189	-85,495	-0,087	-0,020
-659,174	-132,563	0,078	0,007
-658,159	39,321	-0,102	-0,068
-657,145	-200,000	0,011	-0,163
-656,130	78,542	-0,027	-0,021
-655,116	9,673	0,070	0,039
-654,101	-70,964	0,052	0,014
-653,086	19,534	-0,134	0,080
-652,072	-75,203	-0,111	0,029
-651,057	-150,008	-0,126	-0,007
-650,043	256,127	-0,062	0,080
-649,028	154,249	-0,017	-0,017
-648,014	174,187	-0,075	0,081
-646,999	77,056	-0,036	0,029
-645,984	-120,469	0,088	0,011
-644,970	-92,883	-0,088	-0,018
-643,955	-200,000	0,014	-0,071
-642,941	-200,000	0,005	-0,155
-641,926	-170,491	0,103	0,003
-640,911	-32,118	0,071	-0,029
-639,897	-168,076	0,138	0,004
-638,882	800,000	0,006	0,017
-637,868	48,436	-0,067	-0,047
-636,853	-200,000	0,002	0,026
-635,838	404,684	-0,072	0,113
-634,824	-200,000	0,018	-0,061
-633,809	-115,860	-0,094	-0,013
-632,795	41,163	-0,038	0,026
-631,780	594,637	0,089	0,165
-630,765	800,000	0,010	-0,021
-629,751	-200,000	-0,013	-0,055
-628,736	-200,000	0,004	0,093
-627,722	-142,784	0,049	0,003
-626,707	-5,552	0,057	0,029
-625,692	-200,000	0,002	-0,075
-624,678	-176,818	0,057	0,001
-623,663	-49,303	0,063	-0,022
-622,649	785,685	-0,138	-0,282
-621,634	-200,000	0,040	-0,193
-620,619	387,769	-0,096	-0,148
-619,605	34,200	0,171	0,110
-618,590	-200,000	0,014	-0,059
-617,576	192,061	-0,110	0,123
-616,561	361,092	0,066	-0,098
-615,546	-200,000	-0,006	0,069
-614,532	156,891	-0,067	-0,069
-613,517	229,536	0,024	-0,029
-612,503	800,000	-0,030	0,092
-611,488	137,804	-0,074	-0,072
-610,474	101,878	-0,065	0,056
-609,459	-30,892	-0,082	-0,034
-608,444	-200,000	0,010	0,035
-607,430	800,000	-0,027	0,062
-606,415	-200,000	-0,001	0,014
-605,401	293,134	0,037	-0,051
-604,386	147,969	0,069	-0,069
-603,371	800,000	-0,017	0,052
-602,357	-200,000	0,002	0,007
-601,342	-97,606	-0,098	0,019
-600,328	-200,000	0,006	-0,064
-599,313	-131,000	0,097	0,010
-598,298	19,195	0,022	0,013
-597,284	49,995	0,043	0,030
-596,269	-200,000	0,040	0,140
-595,255	-130,724	-0,092	0,009
-594,240	-200,000	0,012	-0,140
-593,225	-200,000	0,009	-0,055
-592,211	-2,829	0,056	0,029
-591,196	800,000	-0,052	0,117
-590,182	800,000	0,020	0,054
-589,167	349,615	-0,073	0,107
-588,152	-13,056	0,052	-0,025
-587,138	800,000	0,040	-0,111
-586,123	-84,032	-0,092	0,021
-585,109	-44,640	-0,132	-0,049
-584,094	-200,000	-0,001	-0,035
-583,079	-200,000	0,028	0,121
-582,065	41,828	0,053	0,036
-581,050	24,682	-0,054	0,033
-580,036	800,000	0,037	-0,096
-579,021	800,000	-0,025	-0,078
-578,006	-84,888	0,090	-0,021
-576,992	253,714	-0,046	0,058
-575,977	-135,901	-0,057	-0,005
-574,963	319,142	-0,045	-0,064
-573,948	378,132	-0,014	-0,021
-572,934	-134,123	0,039	-0,004
-571,919	28,812	-0,079	0,050
-570,904	199,342	0,052	0,060
-569,890	-45,349	0,079	0,029
-568,875	-73,195	-0,158	0,043
-567,861	-133,565	0,119	0,011
-566,846	36,173	-0,108	0,070
-565,831	408,864	-0,018	0,028
-564,817	-128,742	0,138	-0,014
-563,802	-200,000	-0,027	-0,159
-562,788	-200,000	0,015	0,113
-561,773	800,000	-0,054	-0,122
-560,758	-44,299	-0,041	-0,015
-559,744	-80,553	0,065	0,016
-558,729	800,000	-0,022	0,046
-557,715	-127,541	-0,036	-0,004
-556,700	-200,000	-0,024	-0,148
-555,685	800,000	0,021	-0,046
-554,671	800,000	-0,022	-0,064
-553,656	193,827	-0,081	0,091
-552,642	-200,000	-0,000	0,120
-551,627	-91,445	-0,179	-0,037
-550,612	25,040	-0,069	0,042
-549,598	19,550	-0,075	-0,044
-548,583	-118,773	0,029	0,004
-547,569	-200,000	-0,026	0,113
-546,554	40,927	0,079	0,052
-545,539	-114,835	0,066	0,009
-544,525	342,981	0,069	-0,101
-543,510	-137,863	-0,146	-0,012
-542,496	2,823	-0,046	-0,024
-541,481	800,000	-0,023	-0,070
-540,466	-200,000	-0,003	0,161
-539,452	164,265	0,075	0,078
-538,437	-200,000	0,017	-0,166
-537,423	800,000	-0,026	0,055
-536,408	263,456	-0,069	-0,089
-535,393	-200,000	-0,001	0,065
-534,379	-200,000	-0,046	-0,176
-533,364	-200,000	-0,001	-0,027
-532,350	-200,000	0,001	0,084
-531,335	239,779	0,077	0,095
-530,321	-21,822	-0,014	0,006
-529,306	-200,000	0,003	-0,024
-528,291	98,187	0,022	-0,018
-527,277	-200,000	0,004	-0,092
-526,262	-200,000	-0,016	-0,070
-525,248	-116,898	-0,143	-0,019
-524,233	-195,072	-0,022	0,000
-523,218	13,912	-0,086	0,050
-522,204	63,417	-0,125	-0,092
-521,189	188,408	-0,058	-0,064
-520,175	-200,000	-0,009	-0,067
-519,160	718,666	0,053	-0,105
-518,145	248,899	0,057	-0,071
-517,131	800,000	0,002	0,006
-516,116	-33,596	0,161	-0,065
-515,102	-50,502	-0,126	-0,044
-514,087	674,404	-0,071	-0,137
-513,072	127,491	-0,087	-0,082
-512,058	-36,679	0,045	0,018
-511,043	-200,000	0,007	0,042
-510,029	154,881	-0,033	0,033
-509,014	125,267	0,093	-0,086
-507,999	645,074	-0,035	0,066
-506,985	-200,000	0,033	0,147
-505,970	196,405	-0,022	0,025
-504,956	143,640	-0,118	-0,116
-503,941	385,032	0,088	0,135
-502,926	-87,827	-0,130	0,029
-501,912	-95,323	0,064	-0,013
-500,897	175,414	0,023	-0,025
-499,883	-101,011	0,145	0,026
-498,868	193,977	0,032	0,036
-497,853	270,362	0,037	0,048
-496,839	42,057	0,045	-0,030
-495,824	-17,438	0,101	0,047
-494,810	366,751	-0,064	-0,096
-493,795	-156,480	0,048	0,002
-492,781	42,882	0,086	-0,058
-491,766	800,000	-0,027	-0,067
-490,751	-200,000	-0,009	-0,062
-489,737	-142,991	-0,117	0,008
-488,722	-53,235	0,069	0,023
-487,708	-200,000	0,028	0,098
-486,693	7,290	0,042	0,023
-485,678	-200,000	-0,006	0,029
-484,664	-190,115	0,111	-0,001
-483,649	478,906	0,023	0,039
-482,635	-114,623	-0,193	0,027
-481,620	45,526	0,081	0,055
-480,605	-200,000	-0,015	0,061
-479,591	-200,000	-0,017	-0,072
-478,576	800,000	0,026	0,066
-477,562	-162,686	0,113	0,004
-476,547	-11,129	-0,051	0,025
-475,532	-38,423	0,047	0,018
-474,518	100,689	-0,021	0,018
-473,503	-200,000	-0,007	0,033
-472,489	-200,000	0,010	0,199
-471,474	800,000	0,033	0,080
-470,459	139,911	0,101	-0,098
-469,445	-200,000	0,005	-0,146
-468,430	800,000	0,048	0,130
-467,416	-32,905	0,149	-0,061
-466,401	800,000	-0,013	0,030
-465,386	5,621	-0,134	0,073
-464,372	137,274	0,101	0,098
-463,357	345,235	0,023	-0,034
-462,343	125,706	-0,088	-0,082
-461,328	-200,000	0,033	-0,115
-460,313	-200,000	-0,011	0,128
-459,299	-39,143	0,095	0,037
-458,284	800,000	0,025	0,061
-457,270	160,758	-0,071	0,073
-456,255	51,983	0,189	-0,133
-455,241	20,891	-0,037	-0,022
-454,226	124,080	-0,046	0,043
-453,211	-200,000	0,004	-0,020
-452,197	34,165	0,102	0,066
-451,182	57,412	0,091	0,065
-450,168	-200,000	-0,023	-0,138
-449,153	-130,462	0,039	-0,004
-448,138	-200,000	-0,021	-0,110
-447,124	141,745	-0,043	-0,042
-446,109	166,131	0,092	0,097
-445,095	-82,877	0,149	-0,035
-444,080	-48,426	0,139	0,049
-443,065	-164,431	0,049	0,002
-442,051	-200,000	-0,014	-0,078
-441,036	-200,000	-0,012	-0,063
-440,022	87,301	0,054	0,044
-439,007	576,143	0,034	0,061
-437,992	-58,708	0,139	0,044
-436,978	800,000	-0,059	0,152
-435,963	251,708	-0,116	0,145
-434,949	112,558	-0,087	0,077
-433,934	-34,263	-0,025	-0,010
-432,919	211,912	-0,087	-0,101
-431,905	60,512	0,077	0,056
-430,890	-75,111	0,136	-0,036
-429,876	800,000	-0,022	-0,047
-428,861	8,410	0,086	0,048
-427,846	-200,000	0,002	0,026
-426,832	10,701	-0,048	-0,027
-425,817	63,384	0,023	-0,017
-424,803	800,000	0,048	-0,115
-423,788	492,667	0,026	-0,043
-422,773	414,964	-0,075	0,118
-421,759	-97,085	0,155	-0,030
-420,744	-200,000	0,030	0,154
-419,730	-138,259	-0,150	0,012
-418,715	-70,950	-0,069	0,019
-417,701	-169,354	-0,046	-0,001
-416,686	-41,551	-0,069	-0,026
-415,671	394,532	0,004	0,006
-414,657	-73,809	-0,077	-0,020
-413,642	-37,741	0,127	-0,049
-412,628	800,000	0,024	0,055
-411,613	482,345	0,026	-0,044
-410,598	-200,000	0,003	-0,049
-409,584	-42,037	-0,078	-0,029
-408,569	82,866	0,066	-0,052
-407,555	-200,000	-0,002	0,074
-406,540	711,150	0,066	-0,129
-405,525	800,000	-0,056	-0,155
-404,511	-200,000	0,006	-0,086
-403,496	19,309	0,041	-0,024
-402,482	-41,432	0,132	-0,050
-401,467	-34,637	0,048	0,019
-400,452	698,768	-0,080	0,156
-399,438	32,840	-0,086	0,055
-398,423	468,770	-0,066	0,109
-397,409	-60,925	0,036	0,011
-396,394	428,812	0,029	-0,046
-395,379	-57,969	-0,088	0,028
-394,365	490,823	0,053	-0,090
-393,350	-200,000	-0,009	-0,041
-392,336	800,000	-0,051	0,136
-391,321	117,507	-0,048	0,043
-390,306	-29,525	0,116	-0,049
-389,292	326,909	-0,047	-0,067
-388,277	102,654	0,160	-0,137
-387,263	-172,551	0,037	0,001
-386,248	158,177	-0,064	0,065
-385,233	-102,240	-0,053	-0,009
-384,219	-178,289	-0,057	-0,001
-383,204	708,998	0,056	0,110
-382,190	81,199	-0,146	-0,116
-381,175	69,826	0,010	0,007
-380,160	142,930	0,042	0,041
-379,146	-163,946	0,102	0,003
-378,131	-144,287	0,091	0,006
-377,117	-96,638	-0,075	0,014
-376,102	206,541	-0,119	-0,136
-375,088	-109,262	-0,237	-0,037
-374,073	-14,591	0,025	0,012
-373,058	-43,211	0,076	-0,028
-372,044	-129,202	0,141	-0,014
-371,029	-200,000	-0,042	0,148
-370,015	800,000	-0,021	-0,062
-369,000	-200,000	0,030	0,102
-367,985	8,941	-0,058	-0,032
-366,971	444,172	0,063	0,101
-365,956	372,302	0,052	0,079
-364,942	489,286	-0,084	-0,141
-363,927	-19,218	0,051	0,023
-362,912	37,269	-0,045	-0,029
-361,898	153,808	0,060	-0,061
-360,883	7,273	0,026	0,014
-359,869	94,284	0,059	-0,049
-358,854	48,311	-0,091	-0,062
-357,839	62,452	0,045	0,033
-356,825	-10,568	-0,179	-0,087
-355,810	297,769	0,036	0,049
-354,796	112,406	0,083	0,074
-353,781	226,909	0,107	-0,128
-352,766	-200,000	0,016	-0,108
-351,752	-71,198	-0,076	-0,021
-350,737	-93,971	-0,040	0,008
-349,723	121,358	0,088	-0,081
-348,708	-200,000	0,013	0,141
-347,693	-200,000	-0,008	-0,066
-346,679	800,000	0,062	-0,141
-345,664	656,863	-0,027	-0,051
-344,650	-69,059	0,048	0,013
-343,635	-81,335	0,118	-0,028
-342,620	-47,947	-0,122	0,043
-341,606	23,799	0,093	-0,056
-340,591	-200,000	-0,048	0,177
-339,577	-200,000	0,006	-0,033
-338,562	-200,000	0,019	-0,102
-337,548	55,045	0,059	-0,042
-336,533	1,705	0,013	0,007
-335,518	800,000	-0,036	0,096
-334,504	158,388	0,048	-0,049
-333,489	192,330	-0,162	-0,180
-332,475	168,639	-0,092	0,097
-331,460	800,000	-0,063	-0,160
-330,445	-133,180	-0,105	0,010
-329,431	-200,000	-0,009	0,123
-328,416	191,558	0,060	-0,067
-327,402	106,700	-0,037	0,033
-326,387	251,725	-0,087	0,109
-325,372	-45,173	0,084	-0,030
-324,358	-111,603	0,089	0,013
-323,343	-77,346	-0,049	-0,013
-322,329	-171,553	-0,028	-0,001
-321,314	-200,000	0,002	0,039
-320,299	-128,888	0,151	0,015
-319,285	132,500	-0,048	-0,046
-318,270	143,832	0,032	-0,032
-317,256	-200,000	0,015	-0,180
-316,241	-113,507	-0,079	0,011
-315,226	18,516	0,052	-0,030
-314,212	375,896	0,025	0,038
-313,197	-200,000	0,006	0,066
-312,183	-7,459	-0,083	0,041
-311,168	-4,412	0,047	0,024
-310,153	-120,303	0,041	0,005
-309,139	-200,000	-0,017	-0,085
-308,124	39,888	-0,039	-0,026
-307,110	-200,000	0,021	-0,069
-306,095	-200,000	0,020	0,081
-305,080	-84,682	-0,121	0,028
-304,066	800,000	-0,027	0,063
-303,051	-200,000	0,010	0,113
-302,037	709,681	0,018	0,035
-301,022	-187,365	-0,170	0,002
-300,008	-200,000	-0,003	0,070
-298,993	241,323	0,051	0,063
-297,978	81,439	-0,068	0,053
-296,964	163,763	-0,077	-0,079
-295,949	-200,000	0,029	0,137
-294,935	-41,405	-0,041	-0,015
-293,920	-66,240	-0,082	0,024
-292,905	800,000	0,021	0,061
-291,891	-110,676	0,097	-0,015
-290,876	-11,325	-0,105	0,051
-289,862	800,000	0,016	0,048
-288,847	-200,000	0,010	-0,076
-287,832	-200,000	-0,006	-0,061
-286,818	-13,802	0,049	0,023
-285,803	-12,735	0,153	-0,073
-284,789	183,523	0,013	0,014
-283,774	158,274	-0,037	0,038
-282,759	-200,000	0,012	-0,170
-281,745	-0,147	-0,004	-0,002
-280,730	77,776	0,016	0,012
-279,716	-200,000	0,129	0,000
-278,701	214,179	-0,054	0,063
-277,686	-200,000	0,003	-0,014
-276,672	89,496	0,059	0,048
-275,657	-27,841	-0,030	-0,013
-274,643	-21,633	0,051	0,023
-273,628	-200,000	-0,006	-0,047
-272,613	97,221	0,038	-0,032
-271,599	9,412	0,045	-0,025
-270,584	463,086	0,082	0,134
-269,570	100,771	0,134	0,114
-268,555	-200,000	-0,009	0,094
-267,540	-140,110	-0,175	-0,013
-266,526	-127,170	-0,128	0,014
-265,511	641,763	-0,025	-0,048
-264,497	41,321	0,107	0,071
-263,482	-41,311	0,107	0,040
-262,467	198,310	-0,071	0,079
-261,453	-48,689	0,088	0,031
-260,438	-71,463	-0,050	-0,014
-259,424	555,335	-0,008	0,014
-258,409	-29,854	0,118	-0,049
-257,395	-103,763	-0,085	0,014
-256,380	8,060	-0,093	0,051
-255,365	-119,604	0,076	0,009
-254,351	-22,521	-0,104	0,046
-253,336	-146,026	-0,134	0,009
-252,322	-72,412	0,167	-0,045
-251,307	-200,000	0,002	0,018
-250,292	800,000	0,025	-0,060
-249,278	166,643	0,083	0,086
-248,263	239,323	0,086	0,105
-247,249	-200,000	-0,000	0,006
-246,234	-200,000	-0,032	0,108
-245,219	-200,000	-0,019	-0,077
-244,205	-2,181	0,039	0,020
-243,190	-63,206	-0,116	-0,035
-242,176	564,742	0,050	0,089
-241,161	-15,083	0,121	-0,057
-240,146	135,107	0,032	-0,031
-239,132	-200,000	0,014	-0,114
-238,117	-124,548	-0,044	-0,005
-237,103	800,000	-0,024	-0,054
-236,088	-200,000	0,014	-0,079
-235,073	-200,000	0,007	0,021
-234,059	125,664	-0,017	-0,016
-233,044	800,000	0,021	-0,065
-232,030	279,977	-0,034	0,044
-231,015	92,186	-0,107	0,088
-230,000	38,963	0,072	-0,047
-228,986	-200,000	-0,036	-0,161
-227,971	527,347	-0,036	0,062
-226,957	-200,000	0,024	0,128
-225,942	785,437	-0,048	0,097
-224,927	357,555	-0,049	-0,072
-223,913	-200,000	-0,001	0,012
-222,898	231,578	0,064	0,077
-221,884	-118,306	0,080	0,010
-220,869	1,771	0,027	-0,014
-219,855	221,823	-0,103	0,122
-218,840	-85,474	-0,060	0,013
-217,825	420,048	0,006	-0,009
-216,811	-124,276	-0,086	0,010
-215,796	800,000	-0,041	-0,113
-214,782	461,882	0,072	-0,118
-213,767	-160,447	0,078	-0,003
-212,752	442,564	-0,033	0,054
-211,738	91,439	0,044	-0,036
-210,723	-73,788	0,104	0,027
-209,709	-200,000	-0,024	0,086
-208,694	-28,914	-0,019	-0,008
-207,679	-126,183	-0,103	0,011
-206,665	59,419	0,112	0,080
-205,650	279,022	0,056	-0,073
-204,636	-103,262	-0,106	0,018
-203,621	-200,000	0,002	-0,062
-202,606	-103,751	-0,128	-0,022
-201,592	99,546	-0,114	-0,096
-200,577	-200,000	0,022	-0,072
-199,563	-178,102	0,115	-0,002
-198,548	-60,511	0,142	0,044
-197,533	-200,000	0,015	0,089
-196,519	-98,166	-0,081	0,015
-195,504	-79,585	-0,196	0,048
-194,490	-6,506	0,041	-0,020
-193,475	87,177	-0,098	0,079
-192,460	548,241	0,018	-0,031
-191,446	-200,000	-0,006	0,168
-190,431	800,000	0,060	0,169
-189,417	-200,000	0,009	0,122
-188,402	40,841	-0,058	-0,038
-187,387	800,000	-0,069	-0,151
-186,373	-14,839	0,081	0,038
-185,358	-69,261	-0,050	0,014
-184,344	-157,467	0,096	-0,004
-183,329	-107,463	-0,109	0,017
-182,315	336,906	-0,078	-0,111
-181,300	800,000	0,012	0,033
-180,285	2,320	0,041	0,022
-179,271	800,000	-0,022	-0,057
-178,256	36,185	-0,105	-0,068
-177,242	-56,943	-0,128	-0,041
-176,227	-200,000	0,033	0,175
-175,212	-117,156	0,092	-0,012
-174,198	44,717	0,077	-0,052
-173,183	-67,281	-0,055	-0,016
-172,169	-200,000	0,004	-0,064
-171,154	-128,242	-0,147	-0,015
-170,139	91,524	0,058	-0,048
-169,125	-8,190	-0,037	-0,018
-168,110	-200,000	-0,011	0,085
-167,096	389,182	0,072	-0,108
-166,081	281,768	-0,069	-0,091
-165,066	12,337	-0,127	-0,071
-164,052	739,507	-0,050	-0,099
-163,037	-56,202	0,086	0,028
-162,023	-4,587	0,168	0,084
-161,008	99,207	0,074	-0,062
-159,993	-84,234	0,095	-0,022
-158,979	-71,557	-0,105	0,028
-157,964	-104,536	-0,135	0,023
-156,950	138,056	-0,071	0,067
-155,935	-92,936	0,113	-0,023
-154,920	129,618	-0,060	0,056
-153,906	-200,000	0,005	0,085
-152,891	-200,000	-0,011	0,087
-151,877	211,559	-0,032	0,036
-150,862	800,000	-0,017	-0,051
-149,847	-86,377	0,088	-0,020
-148,833	120,420	0,090	-0,082
-147,818	43,117	0,071	0,047
-146,804	12,929	0,084	0,047
-145,789	762,902	-0,089	0,177
-144,775	-200,000	0,002	0,099
-143,760	61,429	-0,052	0,037
-142,745	-200,000	-0,002	-0,010
-141,731	-200,000	-0,010	-0,052
-140,716	140,304	0,039	-0,037
-139,702	77,508	0,123	0,095
-138,687	-122,758	0,009	0,001
-137,672	-42,333	-0,110	0,041
-136,658	-24,975	-0,122	-0,052
-135,643	-1,451	-0,189	0,097
-134,629	800,000	0,043	0,122
-133,614	-32,927	-0,109	0,044
-132,599	-27,579	0,123	0,052
-131,585	-200,000	-0,121	0,000
-130,570	239,090	-0,023	0,028
-129,556	-200,000	-0,042	-0,000
-128,541	503,034	-0,029	-0,048
-127,526	154,921	-0,061	0,061
-126,512	131,186	0,061	0,057
-125,497	-200,000	-0,032	0,118
-124,483	-200,000	-0,001	0,053
-123,468	-200,000	0,039	0,158
-122,453	-18,241	0,072	-0,032
-121,439	75,361	-0,061	-0,047
-120,424	18,364	0,093	0,054
-119,410	800,000	0,029	0,070
-118,395	361,354	0,071	0,104
-117,380	97,055	0,150	0,125
-116,366	532,584	-0,042	-0,073
-115,351	-200,000	-0,002	0,011
-114,337	520,072	0,038	-0,065
-113,322	503,077	0,024	-0,041
-112,307	166,173	-0,045	-0,046
-111,293	276,320	-0,081	0,105
-110,278	362,830	-0,009	-0,013
-109,264	76,890	-0,049	0,038
-108,249	26,175	-0,086	-0,052
-107,234	-45,339	0,021	-0,007
-106,220	131,741	0,049	-0,045
-105,205	-69,337	-0,089	-0,025
-104,191	237,694	0,088	0,106
-103,176	646,232	0,054	0,101
-102,162	772,631	-0,032	-0,063
-101,147	-29,565	0,065	-0,027
-100,132	-200,000	0,012	0,058
-99,118	-110,647	-0,125	0,019
-98,103	-200,000	0,005	0,039
-97,089	-200,000	-0,010	0,097
-96,074	-44,048	0,048	0,017
-95,059	-122,629	-0,135	-0,016
-94,045	-109,523	-0,028	-0,004
-93,030	106,259	0,088	0,076
-92,016	800,000	0,039	0,082
-91,001	40,384	-0,067	-0,044
-89,986	-200,000	-0,010	0,063
-88,972	-185,746	0,039	0,000
-87,957	207,110	-0,064	-0,073
-86,943	-200,000	0,002	-0,029
-85,928	-59,533	0,056	-0,017
-84,913	-27,146	0,049	0,021
-83,899	800,000	0,031	-0,076
-82,884	123,583	0,132	-0,121
-81,870	-200,000	0,017	0,174
-80,855	-200,000	-0,027	0,089
-79,840	-200,000	0,015	0,205
-78,826	-55,544	-0,101	0,033
-77,811	-56,395	0,085	-0,027
-76,797	-13,424	-0,059	0,028
-75,782	90,099	0,106	-0,086
-74,767	101,250	0,049	0,041
-73,753	187,535	0,105	0,113
-72,738	293,507	-0,064	0,085
-71,724	800,000	-0,006	-0,014
-70,709	-78,955	-0,081	-0,020
-69,694	-172,535	-0,097	0,002
-68,680	7,910	-0,060	-0,032
-67,665	-200,000	-0,004	-0,017
-66,651	-200,000	0,016	-0,065
-65,636	671,170	0,003	-0,005
-64,622	26,985	0,145	-0,088
-63,607	0,893	0,058	-0,030
-62,592	800,000	-0,022	-0,046
-61,578	-27,880	0,069	-0,029
-60,563	162,745	0,044	0,044
-59,549	193,738	0,076	0,083
-58,534	-163,031	-1,380	-0,048
-57,519	441,317	-0,885	-1,410
-56,505	-200,000	-0,826	-4,297
-55,490	-24,026	0,521	-0,225
-54,476	800,000	4,884	11,650
-53,461	-200,000	14,214	255,498
-52,446	-200,000	695,471	2266,537
-51,432	598,707	1625,380	2937,269
-50,417	117,514	1633,296	1457,989
-49,403	73,935	1287,370	978,811
-48,388	37,387	1023,794	657,169
-47,373	23,965	982,223	586,300
-46,359	23,110	971,799	577,247
-45,344	22,087	967,448	571,296
-44,330	21,964	966,099	570,076
-43,315	21,850	964,625	568,811
-42,300	21,876	963,432	568,170
-41,286	21,892	962,451	567,620
-40,271	21,828	961,671	566,928
-39,257	21,836	960,429	566,202
-38,242	21,861	959,538	565,734
-37,227	21,814	958,929	565,200
-36,213	21,825	957,883	564,598
-35,198	21,792	957,044	563,973
-34,184	21,873	956,404	563,835
-33,169	21,801	955,724	563,178
-32,154	21,901	954,361	562,677
-31,140	21,887	953,723	562,234
-30,125	21,822	953,120	561,646
-29,111	21,897	952,041	561,230
-28,096	21,884	951,388	560,780
-27,082	21,848	950,823	560,309
-26,067	21,840	950,003	559,778
-25,052	21,876	949,113	559,346
-24,038	21,860	948,613	558,977
-23,023	21,897	947,846	558,622
-22,009	21,927	947,264	558,355
-20,994	21,925	946,569	557,917
-19,979	21,840	946,083	557,335
-18,965	21,844	945,626	557,058
-17,950	21,889	944,751	556,662
-16,936	21,794	944,141	555,979
-15,921	21,748	943,508	555,438
-14,906	21,707	942,750	554,839
-13,892	21,738	942,144	554,559
-12,877	21,758	941,536	554,241
-11,863	21,654	940,826	553,471
-10,848	21,717	940,385	553,390
-9,833	21,832	939,844	553,413
-8,819	21,799	939,363	553,006
-7,804	21,754	938,483	552,321
-6,790	21,769	938,035	552,083
-5,775	21,780	937,421	551,736
-4,760	21,755	936,728	551,227
-3,746	21,723	935,969	550,658
-2,731	21,552	935,452	549,789
-1,717	21,550	934,739	549,343
-0,702	21,543	934,026	548,879
0,313	21,341	933,421	548,715
1,327	23,916	930,837	555,248
2,342	31,551	808,556	503,004
3,356	25,922	509,394	307,244
4,371	0,920	374,483	193,953
5,386	-2,036	357,583	181,542
6,400	-3,221	351,697	177,100
7,415	-3,266	349,249	175,798
8,429	-3,079	347,819	175,287
9,444	-3,376	347,057	174,532
10,459	-3,206	346,362	174,369
11,473	-3,349	345,692	173,846
12,488	-3,212	344,950	173,620
13,502	-3,411	344,546	173,165
14,517	-3,260	343,969	173,038
15,531	-3,017	343,562	173,107
16,546	-2,820	343,142	173,112
17,561	-2,970	342,775	172,735
18,575	-3,000	342,462	172,527
19,590	-2,964	341,884	172,262
20,604	-3,020	341,673	172,074
21,619	-3,075	341,249	171,780
22,634	-3,112	340,992	171,593
23,648	-3,071	340,583	171,419
24,663	-3,106	340,246	171,194
25,677	-3,100	339,945	171,034
26,692	-3,221	339,823	170,815
27,707	-3,116	339,413	170,717
28,721	-3,070	338,921	170,509
29,736	-3,045	338,833	170,478
30,750	-3,188	338,534	170,146
31,765	-3,243	338,134	169,866
32,780	-3,096	337,893	169,900
33,794	-3,104	337,670	169,764
34,809	-3,067	337,300	169,605
35,823	-2,881	336,866	169,587
36,838	-3,117	336,643	169,186
37,853	-3,109	336,551	169,134
38,867	-3,158	336,224	168,899
39,882	-3,011	335,863	168,872
40,896	-2,934	335,574	168,800
41,911	-3,006	335,421	168,626
42,926	-2,956	335,080	168,496
43,940	-3,029	334,709	168,211
44,955	-3,014	334,474	168,095
45,969	-2,995	334,348	168,039
46,984	-3,020	334,063	167,851
47,999	-2,897	333,722	167,807
49,013	-2,989	333,533	167,591
50,028	-3,046	333,371	167,430
51,042	-3,085	333,134	167,250
52,057	-3,217	332,731	166,883
53,071	-3,087	332,628	166,965
54,086	-2,955	332,160	166,866
55,101	-2,864	331,890	166,819
56,115	-3,054	331,691	166,488
57,130	-3,185	331,502	166,228
58,144	-3,018	331,089	166,196
59,159	-3,146	330,916	165,950
60,174	-3,003	330,625	165,951
61,188	-3,154	330,440	165,672
62,203	-3,094	330,127	165,569
63,217	-3,051	329,774	165,426
64,232	-3,096	329,594	165,269
65,247	-3,050	329,252	165,135
66,261	-3,155	329,011	164,881
67,276	-3,237	328,912	164,724
68,290	-3,039	328,580	164,766
69,305	-3,124	328,296	164,514
70,320	-3,120	328,093	164,402
71,334	-3,097	327,775	164,254
72,349	-3,103	327,618	164,153
73,363	-3,063	327,194	163,971
74,378	-3,155	327,058	163,785
75,393	-3,209	326,724	163,542
76,407	-3,002	326,510	163,653
77,422	-3,135	326,362	163,416
78,436	-3,084	326,028	163,291
79,451	-3,103	325,750	163,116
80,466	-3,083	325,480	162,987
81,480	-3,013	325,162	162,892
82,495	-3,127	325,139	162,739
83,509	-2,991	324,668	162,641
84,524	-2,986	324,621	162,608
85,539	-3,018	324,221	162,358
86,553	-3,000	323,956	162,230
87,568	-3,005	323,716	162,090
88,582	-3,054	323,518	161,922
89,597	-3,141	323,232	161,668
90,611	-2,996	322,925	161,660
91,626	-2,991	322,912	161,645
92,641	-3,029	322,689	161,477
93,655	-3,164	322,239	161,088
94,670	-3,121	322,068	161,036
95,684	-3,065	321,870	160,985
96,699	-3,142	321,777	160,839
97,714	-2,976	321,423	160,830
98,728	-3,098	321,219	160,580
99,743	-2,974	321,036	160,610
100,757	-2,961	320,783	160,484
101,772	-2,998	320,412	160,243
102,787	-3,125	320,174	159,970
103,801	-3,136	320,011	159,863
104,816	-3,282	319,857	159,612
105,830	-3,049	319,497	159,672
106,845	-3,103	319,411	159,556
107,860	-3,061	319,224	159,495
108,874	-3,128	318,863	159,228
109,889	-3,122	318,571	159,073
110,903	-2,987	318,394	159,118
111,918	-3,107	318,121	158,836
112,933	-2,960	317,944	158,894
113,947	-2,899	317,649	158,799
114,962	-3,262	317,497	158,314
115,976	-3,094	317,302	158,385
116,991	-3,077	316,940	158,209
118,006	-3,106	316,839	158,114
119,020	-3,225	316,726	157,914
120,035	-3,090	316,485	157,925
121,049	-3,003	316,211	157,869
122,064	-2,971	316,004	157,785
123,079	-3,044	315,838	157,611
124,093	-3,060	315,582	157,451
125,108	-3,001	315,166	157,293
126,122	-2,891	315,112	157,371
127,137	-2,905	314,833	157,203
128,151	-2,953	314,643	157,041
129,166	-3,138	314,561	156,788
130,181	-2,989	314,086	156,697
131,195	-2,982	313,872	156,584
132,210	-3,001	313,669	156,448
133,224	-3,042	313,513	156,312
134,239	-3,122	313,302	156,108
135,254	-2,977	312,985	156,090
136,268	-3,142	312,963	155,889
137,283	-3,016	312,628	155,844
138,297	-3,052	312,411	155,683
139,312	-2,889	311,932	155,604
140,327	-3,006	311,980	155,489
141,341	-2,954	311,614	155,349
142,356	-3,116	311,453	155,082
143,370	-3,249	311,228	154,815
144,385	-3,138	311,084	154,847
145,400	-3,055	310,882	154,821
146,414	-3,032	310,662	154,722
147,429	-3,011	310,574	154,687
148,443	-3,130	310,234	154,378
149,458	-3,054	309,869	154,262
150,473	-2,962	309,661	154,242
151,487	-2,914	309,542	154,219
152,502	-2,982	309,409	154,068
153,516	-2,908	308,947	153,902
154,531	-2,872	308,857	153,881
155,546	-3,016	308,532	153,555
156,560	-3,017	308,483	153,516
157,575	-3,159	308,309	153,266
158,589	-2,970	307,858	153,226
159,604	-3,191	307,826	152,965
160,619	-2,865	307,464	153,113
161,633	-2,919	307,462	153,041
162,648	-2,965	307,244	152,871
163,662	-2,933	306,940	152,740
164,677	-3,008	306,683	152,520
165,692	-3,073	306,594	152,395
166,706	-2,998	306,444	152,384
167,721	-2,749	306,080	152,449
168,735	-2,850	305,954	152,267
169,750	-2,897	305,849	152,153
170,764	-3,059	305,633	151,864
171,779	-3,060	305,337	151,702
172,794	-3,002	305,194	151,678
173,808	-3,046	304,882	151,463
174,823	-3,198	304,806	151,255
175,837	-2,845	304,440	151,425
176,852	-2,967	304,407	151,268
177,867	-3,035	304,236	151,100
178,881	-2,937	303,979	151,061
179,896	-2,936	303,665	150,892
180,910	-3,101	303,526	150,639
181,925	-2,985	303,289	150,627
182,940	-3,139	302,929	150,277
183,954	-2,939	302,901	150,455
184,969	-2,826	302,809	150,512
185,983	-2,926	302,741	150,363
186,998	-2,925	302,323	150,142
188,013	-2,825	302,174	150,158
189,027	-2,913	301,927	149,931
190,042	-3,065	301,708	149,653
191,056	-3,075	301,482	149,518
192,071	-3,027	301,162	149,394
193,086	-3,107	301,161	149,300
194,100	-3,044	300,824	149,182
195,115	-3,002	300,631	149,117
196,129	-2,944	300,374	149,035
197,144	-2,847	300,121	148,995
198,159	-3,007	299,982	148,750
199,173	-3,042	299,778	148,600
200,188	-3,078	299,479	148,402
201,202	-3,090	299,356	148,315
202,217	-2,986	299,115	148,288
203,232	-2,914	298,974	148,278
204,246	-3,007	298,736	148,053
205,261	-2,927	298,450	147,979
206,275	-2,852	298,248	147,942
207,290	-2,973	298,184	147,774
208,304	-2,958	297,995	147,683
209,319	-2,831	297,747	147,674
210,334	-3,034	297,498	147,333
211,348	-2,683	297,307	147,579
212,363	-2,969	297,279	147,264
213,377	-3,046	296,989	147,030
214,392	-2,899	296,732	147,037
215,407	-3,029	296,584	146,820
216,421	-2,883	296,312	146,818
217,436	-2,869	296,062	146,696
218,450	-3,118	295,833	146,320
219,465	-2,941	295,636	146,386
220,480	-3,125	295,603	146,173
221,494	-3,070	295,455	146,142
222,509	-2,824	295,123	146,210
223,523	-3,061	295,074	145,937
224,538	-3,017	294,852	145,857
225,553	-3,059	294,701	145,728
226,567	-2,979	294,376	145,634
227,582	-3,161	294,275	145,390
228,596	-3,076	294,173	145,411
229,611	-3,064	293,795	145,223
230,626	-2,950	293,623	145,238
231,640	-2,798	293,361	145,246
232,655	-2,922	293,317	145,088
233,669	-3,021	293,201	144,920
234,684	-2,895	292,829	144,848
235,699	-2,937	292,699	144,730
236,713	-2,892	292,478	144,652
237,728	-3,030	292,283	144,406
238,742	-2,945	292,084	144,379
239,757	-3,039	291,830	144,147
240,772	-3,064	291,617	144,005
241,786	-2,940	291,439	144,026
242,801	-3,026	291,385	143,902
243,815	-3,027	291,201	143,797
244,830	-3,019	290,918	143,653
245,844	-3,011	290,716	143,548
246,859	-3,088	290,544	143,375
247,874	-3,196	290,407	143,188
248,888	-3,115	290,197	143,151
249,903	-3,195	290,015	142,971
250,917	-3,093	289,716	142,910
251,932	-3,083	289,460	142,781
252,947	-3,526	289,173	142,194
253,961	-4,108	288,709	141,385
254,976	-4,621	288,314	140,680
255,990	-4,665	288,148	140,545
257,005	-3,386	288,504	141,951
258,020	-0,822	289,403	144,883
259,034	0,509	289,831	146,384
260,049	1,168	289,763	146,978
261,063	1,448	289,837	147,276
262,078	1,877	289,814	147,669
263,093	2,130	289,689	147,839
264,107	2,257	289,514	147,860
265,122	2,379	289,468	147,942
266,136	2,534	289,249	147,968
267,151	2,624	289,048	147,939
268,166	2,569	289,012	147,854
269,180	2,652	288,754	147,789
270,195	2,642	288,507	147,640
271,209	2,472	288,331	147,372
272,224	2,400	288,134	147,188
273,239	2,329	288,010	147,043
274,253	2,505	287,580	146,981
275,268	2,460	287,427	146,846
276,282	2,254	287,353	146,597
277,297	2,284	287,171	146,520
278,312	2,305	287,013	146,446
279,326	2,432	286,762	146,427
280,341	2,352	286,562	146,235
281,355	2,416	286,464	146,234
282,370	2,422	286,294	146,139
283,384	2,222	286,102	145,836
284,399	2,177	285,836	145,645
285,414	2,388	285,552	145,689
286,428	2,276	285,421	145,502
287,443	2,189	285,220	145,303
288,457	2,352	284,910	145,288
289,472	2,351	284,846	145,242
290,487	2,257	284,598	145,013
291,501	2,396	284,433	145,048
292,516	2,215	284,178	144,732
293,530	2,231	284,079	144,685
294,545	2,273	283,983	144,663
295,560	2,265	283,632	144,464
296,574	2,329	283,427	144,407
297,589	2,206	283,274	144,199
298,603	2,104	283,140	144,022
299,618	2,062	282,948	143,871
300,633	2,216	282,878	143,969
301,647	2,213	282,740	143,883
302,662	2,317	282,385	143,788
303,676	2,562	282,344	143,986
304,691	2,390	282,220	143,747
305,706	2,542	281,933	143,731
306,720	2,467	281,856	143,609
307,735	2,434	281,637	143,453
308,749	2,287	281,456	143,210
309,764	2,487	281,293	143,302
310,779	2,434	281,134	143,159
311,793	2,523	280,786	143,052
312,808	2,121	280,787	142,662
313,822	2,345	280,433	142,680
314,837	2,497	280,287	142,735
315,852	2,312	280,228	142,520
316,866	2,385	280,110	142,515
317,881	2,241	279,887	142,254
318,895	2,377	279,690	142,268
319,910	2,398	279,511	142,184
320,925	2,304	279,248	141,950
321,939	2,156	279,125	141,736
322,954	2,396	278,966	141,867
323,968	2,368	278,898	141,794
324,983	2,565	278,642	141,834
325,997	2,657	278,340	141,754
327,012	2,488	278,365	141,597
328,027	2,447	278,026	141,374
329,041	2,536	277,825	141,341
330,056	2,401	277,873	141,228
331,070	2,375	277,640	141,073
332,085	2,488	277,350	141,017
333,100	2,477	277,135	140,885
334,114	2,471	277,044	140,821
335,129	2,586	276,764	140,772
336,143	2,512	276,519	140,566
337,158	2,483	276,426	140,480
338,173	2,525	276,327	140,457
339,187	2,338	276,183	140,199
340,202	2,617	275,884	140,291
341,216	2,519	275,784	140,137
342,231	2,406	275,595	139,925
343,246	2,590	275,340	139,952
344,260	2,451	275,249	139,765
345,275	2,536	275,134	139,772
346,289	2,568	274,944	139,693
347,304	2,586	274,745	139,596
348,319	2,624	274,524	139,506
349,333	2,630	274,202	139,336
350,348	2,695	274,205	139,384
351,362	2,475	274,122	139,128
352,377	2,569	273,902	139,089
353,392	2,655	273,695	139,051
354,406	2,644	273,329	138,843
355,421	192,035	1348,561	1431,218
356,435	155,084	1479,668	1431,355
