DTS Sentinel unit serial number:	SN410029Multiplexer serial number:	ORYXHardware model number:	OX2-SRSoftware version number:	ORYX F/W v4,00 Oryx Data Collector v3.7.2.0data status	okinstallation	B4 Nyhavnadifferential loss correction	single-endedforward channel	channel 2reverse channel	N/Adate	2023/12/16time	04:45:13forward acquisition time	300,00reverse acquisition time	0,00gamma	499,1914k internal	0,3128k external	0,3128temperature offset calibration	1,0000default loss term (dB/km)	0,3820temperature slope calibration	1,0000multiplexer offset coefficient	1,0000multiplexer slope coefficient	1,0000fibre end	0,00T internal ref (°C)	22,00T ext. ref 1 (°C)	7,22T ext. ref 2 (°C)	7,39length (m)	temperature (°C)	Stokes	anti-Stokes-744,400	-200,000	-0,032	-0,148
-743,385	26,853	-0,173	0,108
-742,371	-60,055	0,140	-0,044
-741,356	-44,329	-0,168	0,062
-740,342	-200,000	0,025	0,104
-739,327	-136,114	-0,225	-0,019
-738,312	800,000	0,024	-0,077
-737,298	-32,933	-0,281	0,116
-736,283	-74,217	0,183	0,049
-735,269	-10,580	-0,225	0,111
-734,254	-200,000	-0,001	-0,062
-733,239	-72,328	-0,433	-0,118
-732,225	-144,541	0,062	0,004
-731,210	-48,879	-0,110	0,039
-730,196	-200,000	-0,010	-0,046
-729,181	-82,451	-0,022	0,005
-728,167	70,854	-0,028	0,022
-727,152	-200,000	-0,001	0,069
-726,137	86,294	-0,112	0,091
-725,123	37,402	-0,140	-0,092
-724,108	800,000	-0,046	-0,097
-723,094	50,712	-0,086	-0,060
-722,079	-88,392	-0,185	-0,041
-721,064	58,710	0,063	-0,046
-720,050	-200,000	0,001	-0,011
-719,035	-128,909	-0,023	0,002
-718,021	-92,132	-0,060	-0,013
-717,006	800,000	-0,013	0,039
-715,991	800,000	0,044	-0,142
-714,977	32,920	-0,064	-0,041
-713,962	800,000	0,031	-0,066
-712,948	29,291	-0,072	0,045
-711,933	-200,000	0,013	-0,078
-710,918	49,495	0,117	-0,082
-709,904	398,526	-0,096	-0,150
-708,889	195,406	-0,045	-0,051
-707,875	-200,000	0,026	-0,101
-706,860	800,000	0,028	-0,060
-705,845	-113,901	-0,076	0,011
-704,831	-200,000	-0,006	0,076
-703,816	252,918	0,036	0,045
-702,802	-99,917	0,075	-0,014
-701,787	-13,073	0,054	-0,026
-700,772	-106,989	-0,154	-0,025
-699,758	-200,000	-0,007	0,038
-698,743	-115,461	-0,040	-0,006
-697,729	-200,000	0,010	-0,055
-696,714	124,624	-0,033	0,031
-695,699	-200,000	-0,002	0,147
-694,685	-200,000	-0,008	0,043
-693,670	-107,613	-0,151	-0,024
-692,656	289,799	0,058	0,079
-691,641	90,215	0,096	-0,080
-690,627	132,779	0,098	-0,094
-689,612	-24,153	0,123	-0,054
-688,597	-200,000	-0,000	-0,006
-687,583	-200,000	0,076	-0,254
-686,568	44,061	-0,157	-0,107
-685,554	398,107	0,034	-0,053
-684,539	201,943	0,026	-0,030
-683,524	-116,270	0,084	-0,011
-682,510	-4,052	-0,137	0,070
-681,495	116,539	0,031	0,028
-680,481	-181,921	0,152	0,002
-679,466	-200,000	0,029	-0,212
-678,451	95,430	-0,054	0,046
-677,437	800,000	-0,027	-0,074
-676,422	72,051	0,089	0,069
-675,408	-200,000	0,027	-0,177
-674,393	587,883	-0,038	-0,069
-673,378	592,521	-0,095	-0,174
-672,364	69,841	0,054	0,042
-671,349	-200,000	0,020	-0,141
-670,335	-200,000	-0,002	0,073
-669,320	424,004	-0,024	0,039
-668,305	-128,532	-0,103	0,011
-667,291	800,000	-0,036	0,076
-666,276	26,631	-0,070	-0,043
-665,262	187,483	0,077	0,085
-664,247	800,000	-0,042	-0,088
-663,232	-200,000	0,028	-0,106
-662,218	-176,926	-0,145	-0,003
-661,203	563,389	-0,049	-0,088
-660,189	192,760	0,086	-0,097
-659,174	75,546	-0,085	-0,066
-658,159	800,000	0,024	-0,060
-657,145	-200,000	0,006	-0,132
-656,130	36,709	-0,029	-0,019
-655,116	-200,000	0,002	0,127
-654,101	547,726	0,051	0,090
-653,086	161,300	0,049	0,051
-652,072	9,867	0,022	0,012
-651,057	-156,888	-0,045	0,002
-650,043	155,780	-0,011	0,012
-649,028	285,611	-0,034	-0,045
-648,014	34,221	-0,221	0,143
-646,999	-83,201	0,087	-0,021
-645,984	-108,496	-0,061	0,010
-644,970	-117,812	0,099	-0,013
-643,955	-190,377	0,046	0,000
-642,941	94,504	-0,049	-0,041
-641,926	-57,053	0,137	-0,045
-640,911	122,273	-0,081	0,075
-639,897	-68,856	0,029	-0,008
-638,882	43,365	-0,013	0,009
-637,868	234,983	0,006	-0,007
-636,853	728,804	-0,076	-0,152
-635,838	800,000	0,017	0,049
-634,824	129,247	-0,030	0,029
-633,809	151,073	-0,126	0,128
-632,795	491,951	0,097	0,166
-631,780	104,030	-0,134	-0,117
-630,765	-112,715	0,135	0,020
-629,751	263,140	-0,046	-0,059
-628,736	800,000	-0,036	-0,087
-627,722	800,000	0,027	-0,077
-626,707	-74,729	-0,100	0,026
-625,692	22,599	0,093	-0,056
-624,678	36,169	-0,071	-0,046
-623,663	1,062	-0,096	0,051
-622,649	308,586	-0,054	-0,075
-621,634	-9,778	0,056	-0,027
-620,619	41,916	0,128	-0,086
-619,605	464,612	0,071	-0,118
-618,590	-200,000	0,009	0,106
-617,576	241,934	0,040	0,049
-616,561	-171,842	-0,135	0,003
-615,546	113,776	0,071	-0,064
-614,532	-61,770	-0,144	-0,045
-613,517	-200,000	0,004	0,040
-612,503	-200,000	-0,006	-0,060
-611,488	60,139	0,008	0,006
-610,474	-200,000	0,009	-0,071
-609,459	19,874	0,089	0,053
-608,444	800,000	-0,022	-0,050
-607,430	-27,901	-0,063	0,027
-606,415	800,000	0,023	0,048
-605,401	239,221	0,069	0,086
-604,386	-200,000	0,011	-0,096
-603,371	-119,236	0,083	-0,011
-602,357	800,000	0,013	0,028
-601,342	144,604	-0,034	-0,034
-600,328	800,000	-0,055	-0,146
-599,313	292,476	0,064	0,086
-598,298	-200,000	0,012	-0,052
-597,284	72,167	0,039	-0,030
-596,269	101,916	-0,092	0,079
-595,255	-102,612	0,099	-0,017
-594,240	38,543	0,043	-0,028
-593,225	128,706	0,027	-0,026
-592,211	92,305	-0,053	-0,045
-591,196	-33,392	0,125	-0,051
-590,182	-90,204	-0,024	-0,005
-589,167	770,892	0,058	-0,118
-588,152	-19,556	-0,136	-0,062
-587,138	557,330	-0,010	0,017
-586,123	152,028	0,037	0,038
-585,109	-3,990	-0,187	0,095
-584,094	579,502	0,036	-0,065
-583,079	-134,897	-0,108	0,010
-582,065	-185,371	-0,113	0,001
-581,050	521,607	-0,078	0,136
-580,036	-200,000	-0,000	0,033
-579,021	138,828	-0,110	-0,107
-578,006	40,590	-0,126	-0,084
-576,992	3,977	-0,090	-0,049
-575,977	-124,877	-0,047	0,005
-574,963	-200,000	-0,006	0,030
-573,948	800,000	-0,005	-0,010
-572,934	663,449	-0,017	-0,033
-571,919	-62,155	-0,076	0,023
-570,904	800,000	0,037	-0,094
-569,890	481,770	-0,018	0,031
-568,875	-9,792	0,001	0,001
-567,861	-52,470	0,103	-0,035
-566,846	-39,128	0,044	0,017
-565,831	64,016	0,067	0,049
-564,817	-134,351	0,077	-0,007
-563,802	-85,706	-0,059	0,013
-562,788	-32,300	-0,159	-0,066
-561,773	-200,000	0,011	-0,092
-560,758	340,319	0,049	0,072
-559,744	-187,723	0,153	-0,001
-558,729	-37,075	-0,052	-0,020
-557,715	16,661	-0,110	-0,064
-556,700	-68,564	-0,084	0,024
-555,685	135,274	-0,089	0,085
-554,671	-200,000	0,036	0,155
-553,656	-131,006	0,065	0,006
-552,642	123,316	0,017	-0,015
-551,627	103,108	-0,023	-0,020
-550,612	800,000	0,040	-0,126
-549,598	344,988	-0,041	-0,059
-548,583	229,042	0,070	0,085
-547,569	-200,000	0,020	-0,070
-546,554	263,566	0,027	0,035
-545,539	73,329	-0,029	-0,022
-544,525	800,000	-0,027	-0,058
-543,510	-190,166	-0,158	0,001
-542,496	284,439	-0,113	-0,151
-541,481	-89,828	-0,107	-0,023
-540,466	-132,741	-0,139	-0,013
-539,452	-75,391	-0,072	0,019
-538,437	-96,452	0,140	0,027
-537,423	800,000	-0,040	0,088
-536,408	-120,152	-0,070	-0,009
-535,393	161,680	-0,057	0,058
-534,379	-80,928	-0,074	-0,018
-533,364	800,000	0,004	0,009
-532,350	-99,961	0,178	0,033
-531,335	32,275	0,087	-0,055
-530,321	-107,533	0,176	-0,028
-529,306	-106,516	-0,097	0,016
-528,291	-136,648	-0,098	-0,008
-527,277	800,000	0,031	-0,089
-526,262	-75,136	0,103	-0,027
-525,248	335,573	0,070	0,100
-524,233	243,065	-0,013	-0,017
-523,218	291,699	-0,017	-0,023
-522,204	-26,785	-0,138	0,059
-521,189	-113,126	-0,084	-0,012
-520,175	32,059	-0,044	-0,028
-519,160	-200,000	0,031	-0,139
-518,145	65,505	0,037	-0,028
-517,131	-200,000	-0,007	-0,046
-516,116	165,749	0,033	-0,035
-515,102	22,090	-0,120	0,072
-514,087	210,668	0,111	-0,128
-513,072	-200,000	0,033	-0,127
-512,058	-76,835	0,024	0,006
-511,043	260,326	0,092	-0,117
-510,029	1,429	-0,102	-0,054
-509,014	657,997	0,058	0,111
-507,999	4,705	-0,014	0,008
-506,985	-102,229	0,001	0,000
-505,970	81,976	-0,107	-0,085
-504,956	391,431	-0,050	-0,077
-503,941	-200,000	0,017	0,064
-502,926	-8,597	-0,028	0,014
-501,912	227,793	-0,091	0,110
-500,897	-200,000	-0,004	0,073
-499,883	-74,926	-0,080	-0,021
-498,868	-200,000	-0,029	-0,119
-497,853	170,491	-0,032	-0,034
-496,839	-200,000	0,022	-0,079
-495,824	403,069	0,108	0,168
-494,810	-38,217	0,043	0,017
-493,795	17,551	-0,029	-0,017
-492,781	800,000	-0,006	-0,013
-491,766	800,000	0,031	-0,073
-490,751	149,935	0,126	-0,126
-489,737	-200,000	-0,004	-0,179
-488,722	-200,000	0,010	0,096
-487,708	81,606	0,163	0,130
-486,693	-152,385	0,200	0,010
-485,678	-200,000	-0,043	-0,163
-484,664	-200,000	-0,013	0,153
-483,649	238,752	0,096	-0,118
-482,635	-39,438	-0,062	0,024
-481,620	-35,614	0,106	0,042
-480,605	241,992	0,081	0,100
-479,591	166,273	0,060	-0,062
-478,576	247,722	0,073	0,092
-477,562	-200,000	-0,021	-0,074
-476,547	481,367	-0,036	-0,060
-475,532	800,000	0,025	-0,056
-474,518	-63,497	-0,073	-0,022
-473,503	-51,583	-0,085	-0,029
-472,489	-113,867	-0,087	-0,012
-471,474	109,080	0,011	0,010
-470,459	800,000	0,056	-0,149
-469,445	-1,754	0,015	0,008
-468,430	-5,673	-0,047	0,024
-467,416	461,837	0,062	-0,101
-466,401	-14,357	-0,050	0,024
-465,386	-143,076	-0,087	0,006
-464,372	55,214	0,094	0,067
-463,357	373,974	-0,031	0,047
-462,343	800,000	-0,033	0,070
-461,328	125,151	-0,057	0,053
-460,313	-133,143	0,123	-0,011
-459,299	-200,000	-0,016	0,088
-458,284	800,000	-0,056	-0,158
-457,270	-200,000	0,005	0,090
-456,255	800,000	0,059	-0,187
-455,241	-26,188	-0,074	-0,032
-454,226	66,750	-0,038	0,028
-453,211	-200,000	-0,009	0,119
-452,197	800,000	-0,048	0,111
-451,182	-124,415	-0,024	0,003
-450,168	-113,868	0,065	0,009
-449,153	126,899	-0,039	-0,037
-448,138	800,000	0,028	-0,071
-447,124	33,254	0,028	-0,018
-446,109	-128,886	-0,104	-0,011
-445,095	-200,000	-0,003	0,027
-444,080	215,904	0,079	0,093
-443,065	800,000	-0,054	0,144
-442,051	-37,238	0,030	-0,012
-441,036	-141,861	-0,045	0,003
-440,022	674,427	-0,020	-0,038
-439,007	31,922	-0,140	-0,089
-437,992	-13,937	-0,056	0,026
-436,978	800,000	0,054	0,166
-435,963	136,678	0,076	0,073
-434,949	-50,002	0,043	0,015
-433,934	79,557	-0,122	-0,096
-432,919	174,814	-0,096	0,103
-431,905	75,193	0,088	0,069
-430,890	21,617	0,022	0,013
-429,876	-200,000	-0,004	0,018
-428,861	800,000	0,065	0,148
-427,846	476,815	0,029	0,048
-426,832	78,002	-0,063	-0,050
-425,817	800,000	0,026	0,070
-424,803	305,142	0,050	-0,069
-423,788	67,896	0,071	-0,053
-422,773	27,171	0,048	-0,030
-421,759	96,733	0,132	0,111
-420,744	190,979	-0,013	0,015
-419,730	800,000	-0,043	0,108
-418,715	-200,000	0,011	-0,072
-417,701	-200,000	-0,001	0,038
-416,686	-87,612	-0,056	0,012
-415,671	-131,536	0,082	-0,008
-414,657	-119,764	0,056	-0,007
-413,642	-10,550	0,057	0,028
-412,628	800,000	0,061	0,144
-411,613	-200,000	0,037	-0,152
-410,598	-200,000	-0,004	0,028
-409,584	-102,182	-0,047	-0,008
-408,569	-147,030	0,049	0,003
-407,555	-200,000	-0,033	-0,117
-406,540	78,371	0,124	0,097
-405,525	-153,952	-0,086	-0,004
-404,511	189,013	-0,054	-0,059
-403,496	-29,282	-0,051	-0,021
-402,482	-37,503	-0,188	-0,073
-401,467	-80,855	0,013	-0,003
-400,452	-96,733	-0,058	0,011
-399,438	-200,000	-0,024	-0,187
-398,423	-52,128	-0,065	-0,022
-397,409	-200,000	-0,001	-0,029
-396,394	-200,000	-0,016	0,082
-395,379	134,952	-0,071	-0,068
-394,365	45,437	-0,124	0,084
-393,350	800,000	0,009	-0,024
-392,336	-200,000	0,017	0,094
-391,321	-200,000	0,028	0,210
-390,306	-162,700	-0,091	-0,003
-389,292	800,000	0,030	-0,070
-388,277	39,127	-0,022	0,014
-387,263	-200,000	-0,011	-0,081
-386,248	-15,672	0,047	0,022
-385,233	800,000	0,026	0,063
-384,219	800,000	0,076	0,209
-383,204	5,780	-0,093	-0,050
-382,190	235,272	0,098	0,118
-381,175	304,502	0,160	0,218
-380,160	-131,713	0,180	0,017
-379,146	800,000	0,048	0,106
-378,131	127,168	-0,106	-0,098
-377,117	-170,649	-0,019	-0,000
-376,102	419,511	-0,040	-0,063
-375,088	277,563	-0,084	0,110
-374,073	13,604	0,043	0,025
-373,058	-105,516	0,106	0,017
-372,044	-200,000	0,036	-0,152
-371,029	-66,389	0,207	0,060
-370,015	-123,056	0,080	0,009
-369,000	71,247	-0,113	-0,086
-367,985	-200,000	-0,021	0,090
-366,971	-200,000	0,028	-0,100
-365,956	-200,000	-0,003	0,051
-364,942	-200,000	-0,017	-0,127
-363,927	-97,018	0,140	0,027
-362,912	-200,000	0,006	0,027
-361,898	-200,000	0,056	-0,193
-360,883	-200,000	0,003	0,150
-359,869	109,797	-0,096	0,085
-358,854	97,278	0,020	-0,017
-357,839	-16,682	0,131	-0,061
-356,825	-200,000	-0,000	0,044
-355,810	-200,000	-0,017	-0,094
-354,796	50,885	-0,086	0,060
-353,781	-27,538	-0,026	-0,011
-352,766	800,000	-0,037	0,085
-351,752	-200,000	0,009	-0,051
-350,737	800,000	0,071	0,181
-349,723	-149,981	-0,043	0,002
-348,708	800,000	-0,035	0,081
-347,693	-120,362	0,081	0,010
-346,679	-200,000	-0,033	-0,154
-345,664	800,000	-0,080	-0,179
-344,650	-200,000	-0,025	-0,089
-343,635	-200,000	0,002	0,039
-342,620	391,386	-0,028	-0,042
-341,606	381,145	0,024	0,036
-340,591	-6,375	0,069	-0,035
-339,577	800,000	0,030	0,072
-338,562	114,114	-0,102	-0,091
-337,548	-200,000	-0,019	-0,225
-336,533	-37,810	0,054	0,021
-335,518	-68,704	0,052	0,015
-334,504	800,000	-0,011	0,025
-333,489	-162,392	-0,053	-0,002
-332,475	800,000	-0,033	-0,098
-331,460	-200,000	0,005	-0,112
-330,445	800,000	-0,052	-0,135
-329,431	-200,000	-0,007	0,026
-328,416	-23,257	0,074	-0,033
-327,402	41,005	-0,037	0,025
-326,387	389,304	-0,092	0,139
-325,372	-80,410	-0,082	0,020
-324,358	145,493	-0,064	0,062
-323,343	800,000	0,051	0,147
-322,329	213,877	0,045	-0,053
-321,314	-112,672	0,071	0,010
-320,299	106,763	-0,026	0,022
-319,285	-200,000	-0,007	0,066
-318,270	39,058	-0,125	-0,081
-317,256	259,144	-0,112	-0,141
-316,241	-200,000	0,017	-0,067
-315,226	107,163	0,093	-0,081
-314,212	-174,512	-0,035	0,001
-313,197	646,667	-0,039	0,073
-312,183	-200,000	0,001	-0,017
-311,168	-0,651	0,060	-0,031
-310,153	-114,237	-0,064	-0,009
-309,139	534,797	0,082	-0,142
-308,124	-200,000	-0,021	0,104
-307,110	-200,000	0,002	0,060
-306,095	167,523	0,059	0,062
-305,080	197,491	-0,090	0,100
-304,066	37,241	0,112	0,073
-303,051	-84,786	-0,081	0,019
-302,037	-200,000	0,034	-0,116
-301,022	-7,282	-0,052	-0,026
-300,008	-200,000	-0,004	-0,039
-298,993	-200,000	-0,004	0,029
-297,978	-200,000	-0,007	0,119
-296,964	-159,405	0,026	-0,001
-295,949	-200,000	-0,002	0,051
-294,935	-200,000	-0,004	-0,038
-293,920	104,793	0,147	0,127
-292,905	152,299	0,036	-0,036
-291,891	-172,140	0,064	0,001
-290,876	-200,000	-0,020	-0,099
-289,862	-34,341	0,076	-0,030
-288,847	378,893	0,027	0,041
-287,832	-200,000	-0,005	0,098
-286,818	363,515	0,059	-0,088
-285,803	-200,000	0,039	-0,138
-284,789	-93,351	0,134	-0,027
-283,774	800,000	-0,010	-0,026
-282,759	59,496	-0,205	-0,147
-281,745	800,000	0,042	-0,095
-280,730	-200,000	0,006	-0,048
-279,716	-89,873	-0,062	-0,013
-278,701	118,905	0,059	-0,053
-277,686	-139,435	0,048	-0,004
-276,672	-200,000	0,045	0,167
-275,657	54,358	-0,076	-0,054
-274,643	45,114	-0,018	-0,012
-273,628	-200,000	-0,016	-0,092
-272,613	-151,600	-0,178	-0,009
-271,599	-200,000	-0,009	0,034
-270,584	-200,000	-0,008	0,030
-269,570	-200,000	-0,014	0,145
-268,555	251,332	0,015	0,018
-267,540	-200,000	-0,015	0,062
-266,526	119,984	0,089	-0,081
-265,511	-119,447	-0,124	-0,016
-264,497	-84,550	0,146	-0,033
-263,482	290,651	0,070	0,094
-262,467	-117,567	0,078	0,010
-261,453	-17,542	-0,062	0,028
-260,438	800,000	0,026	-0,061
-259,424	-1,873	-0,087	0,045
-258,409	686,303	-0,085	-0,162
-257,395	-43,605	-0,144	-0,053
-256,380	-200,000	0,052	0,230
-255,365	-200,000	-0,003	0,168
-254,351	657,407	0,075	0,142
-253,336	121,946	0,030	0,027
-252,322	436,781	0,059	0,094
-251,307	-69,217	0,036	-0,010
-250,292	651,271	-0,075	-0,141
-249,278	-51,998	0,105	0,035
-248,263	177,295	0,083	0,088
-247,249	29,758	-0,101	0,063
-246,234	138,140	0,030	0,028
-245,219	578,952	0,091	-0,163
-244,205	327,851	-0,039	-0,055
-243,190	-113,919	0,098	0,014
-242,176	-200,000	-0,004	0,062
-241,161	641,381	0,112	0,209
-240,146	-76,870	0,077	-0,020
-239,132	-70,315	-0,090	-0,025
-238,117	800,000	-0,026	-0,058
-237,103	-200,000	0,017	-0,135
-236,088	-107,004	-0,060	-0,010
-235,073	263,200	-0,055	0,070
-234,059	161,518	0,072	0,073
-233,044	-200,000	-0,019	0,149
-232,030	35,745	-0,054	0,034
-231,015	-118,954	0,115	-0,015
-230,000	800,000	-0,025	0,055
-228,986	94,209	0,086	-0,072
-227,971	36,374	-0,101	0,065
-226,957	-200,000	-0,041	0,140
-225,942	183,881	-0,072	-0,078
-224,927	-103,035	-0,073	-0,013
-223,913	-172,814	-0,099	0,002
-222,898	483,708	0,056	-0,094
-221,884	217,952	0,048	0,056
-220,869	-200,000	-0,013	-0,083
-219,855	667,974	0,016	0,030
-218,840	-67,053	0,158	0,045
-217,825	-31,518	0,100	0,041
-216,811	550,274	-0,030	0,053
-215,796	-119,065	-0,036	0,005
-214,782	-70,915	0,037	0,010
-213,767	-200,000	0,012	0,083
-212,752	111,449	0,013	0,012
-211,738	235,278	0,132	0,160
-210,723	46,711	0,126	0,085
-209,709	137,441	-0,020	-0,019
-208,694	-99,564	-0,086	-0,016
-207,679	-80,427	-0,042	-0,010
-206,665	-200,000	0,007	0,145
-205,650	-76,989	0,141	0,036
-204,636	478,733	0,064	0,105
-203,621	-58,712	-0,033	0,010
-202,606	800,000	0,041	-0,094
-201,592	-200,000	0,012	-0,039
-200,577	800,000	-0,059	-0,135
-199,563	256,785	-0,041	-0,051
-198,548	-33,905	0,138	0,055
-197,533	-200,000	0,011	0,052
-196,519	-100,966	0,153	-0,027
-195,504	800,000	0,034	0,091
-194,490	56,816	-0,135	-0,095
-193,475	-158,750	-0,070	0,003
-192,460	-200,000	0,003	0,035
-191,446	-187,744	-0,051	0,000
-190,431	-200,000	-0,011	0,042
-189,417	51,517	0,028	-0,019
-188,402	-22,986	-0,063	0,028
-187,387	-47,776	-0,144	-0,051
-186,373	-129,343	0,104	-0,010
-185,358	800,000	-0,025	-0,059
-184,344	-200,000	0,016	0,073
-183,329	79,323	-0,044	0,034
-182,315	-200,000	-0,014	-0,066
-181,300	-179,542	-0,142	0,002
-180,285	-200,000	0,012	-0,075
-179,271	463,073	0,041	-0,068
-178,256	-200,000	0,004	-0,028
-177,242	-160,789	0,107	-0,004
-176,227	40,020	-0,087	0,057
-175,212	-29,600	0,051	0,021
-174,198	-25,719	-0,075	-0,032
-173,183	217,351	-0,107	-0,125
-172,169	-113,899	0,086	-0,012
-171,154	192,840	-0,070	-0,077
-170,139	19,208	0,065	0,038
-169,125	21,698	0,110	0,065
-168,110	3,824	0,085	0,045
-167,096	800,000	0,099	0,218
-166,081	-200,000	-0,018	0,074
-165,066	-98,508	-0,008	0,002
-164,052	106,381	0,092	-0,079
-163,037	-200,000	0,035	0,158
-162,023	-142,310	-0,054	-0,004
-161,008	204,242	0,110	-0,124
-159,993	800,000	-0,046	0,104
-158,979	171,266	-0,139	-0,146
-157,964	41,666	0,064	0,042
-156,950	359,219	-0,067	-0,098
-155,935	-52,951	-0,125	0,042
-154,920	-92,565	0,098	0,020
-153,906	19,460	0,097	0,057
-152,891	287,412	-0,049	0,065
-151,877	86,020	0,046	0,037
-150,862	381,941	0,053	0,080
-149,847	800,000	-0,020	0,044
-148,833	413,162	0,046	0,071
-147,818	355,111	0,094	0,136
-146,804	753,377	0,082	0,162
-145,789	69,738	-0,033	0,024
-144,775	164,399	0,144	0,147
-143,760	669,710	0,107	0,202
-142,745	448,805	-0,060	0,097
-141,731	287,940	0,045	0,059
-140,716	597,621	0,032	0,058
-139,702	309,201	0,053	0,073
-138,687	800,000	0,043	0,105
-137,672	342,662	0,059	-0,084
-136,658	800,000	0,038	0,087
-135,643	215,297	0,086	-0,099
-134,629	-77,469	0,043	-0,011
-133,614	343,590	0,055	0,078
-132,599	411,666	0,100	0,154
-131,585	800,000	-0,052	0,116
-130,570	157,265	0,060	0,060
-129,556	-51,896	-0,107	0,036
-128,541	800,000	0,009	-0,023
-127,526	-57,827	0,050	-0,016
-126,512	72,980	0,130	0,099
-125,497	217,279	-0,078	0,090
-124,483	-200,000	-0,011	0,079
-123,468	-149,570	0,221	0,012
-122,453	67,358	-0,030	-0,022
-121,439	400,894	-0,040	-0,061
-120,424	488,845	0,050	-0,083
-119,410	-141,605	0,110	-0,008
-118,395	37,880	-0,079	-0,051
-117,380	800,000	0,052	-0,133
-116,366	301,389	-0,065	0,087
-115,351	-51,559	-0,166	0,056
-114,337	263,693	-0,036	-0,046
-113,322	255,999	0,063	0,079
-112,307	-62,548	0,052	-0,016
-111,293	-113,262	-0,011	-0,002
-110,278	800,000	-0,063	0,154
-109,264	91,258	-0,104	-0,085
-108,249	-92,355	-0,080	0,016
-107,234	-179,888	-0,111	0,002
-106,220	464,579	-0,043	-0,070
-105,205	85,629	0,121	0,096
-104,191	182,544	-0,005	0,005
-103,176	-21,538	0,130	0,057
-102,162	-200,000	0,001	0,074
-101,147	663,217	-0,098	0,185
-100,132	101,753	-0,048	0,040
-99,118	11,986	-0,028	0,016
-98,103	-200,000	-0,011	0,046
-97,089	-200,000	-0,008	0,118
-96,074	249,653	-0,033	0,041
-95,059	800,000	-0,042	0,116
-94,045	116,199	0,065	0,058
-93,030	650,236	-0,099	-0,185
-92,016	171,657	0,024	-0,025
-91,001	453,416	0,031	0,050
-89,986	-5,169	0,085	0,042
-88,972	-185,157	0,232	0,003
-87,957	-123,270	-0,043	0,005
-86,943	-106,400	0,088	-0,014
-85,928	800,000	-0,030	0,072
-84,913	-52,741	-0,189	0,063
-83,899	-200,000	-0,020	-0,123
-82,884	28,914	0,049	0,030
-81,870	-200,000	0,013	0,101
-80,855	-200,000	0,016	-0,107
-79,840	-200,000	-0,041	-0,137
-78,826	-58,947	0,091	-0,028
-77,811	-200,000	-0,025	0,085
-76,797	-81,602	-0,044	-0,010
-75,782	35,979	-0,075	0,048
-74,767	-191,861	0,104	0,001
-73,753	552,525	-0,013	0,023
-72,738	800,000	0,019	0,044
-71,724	800,000	-0,056	0,152
-70,709	-168,845	0,054	-0,001
-69,694	-152,978	-0,155	0,008
-68,680	-131,443	0,123	-0,012
-67,665	-200,000	0,003	0,030
-66,651	-200,000	0,017	0,062
-65,636	301,304	0,090	0,120
-64,622	800,000	-0,074	0,150
-63,607	800,000	0,040	0,104
-62,592	-200,000	0,032	0,135
-61,578	-67,616	0,107	0,030
-60,563	-200,000	0,027	0,109
-59,549	-25,078	0,030	-0,013
-58,534	-109,526	-1,361	-0,206
-57,519	756,734	-0,781	-1,538
-56,505	-200,000	-0,719	-4,352
-55,490	-172,875	0,650	-0,014
-54,476	800,000	4,790	11,422
-53,461	-200,000	13,965	252,339
-52,446	-200,000	693,325	2243,729
-51,432	583,540	1622,464	2897,921
-50,417	117,989	1631,642	1456,505
-49,403	73,968	1286,014	976,392
-48,388	37,783	1022,507	656,666
-47,373	24,022	980,704	584,673
-46,359	23,274	970,398	576,059
-45,344	22,244	965,974	570,050
-44,330	22,201	964,551	569,050
-43,315	22,044	963,084	567,649
-42,300	22,077	962,093	567,152
-41,286	22,014	961,210	566,403
-40,271	22,035	960,060	565,773
-39,257	22,005	959,329	565,223
-38,242	21,972	958,285	564,477
-37,227	22,025	957,179	563,976
-36,213	22,019	956,412	563,482
-35,198	21,968	955,571	562,799
-34,184	21,988	955,077	562,548
-33,169	22,005	954,004	561,949
-32,154	22,004	953,271	561,493
-31,140	22,151	952,067	561,232
-30,125	22,110	951,624	560,817
-29,111	22,029	950,783	560,041
-28,096	21,994	950,207	559,567
-27,082	22,039	949,420	559,226
-26,067	22,025	948,568	558,658
-25,052	21,964	947,943	558,072
-24,038	22,010	947,240	557,782
-23,023	22,024	946,584	557,417
-22,009	22,079	945,788	557,103
-20,994	22,096	945,170	556,772
-19,979	22,100	944,603	556,428
-18,965	22,098	944,107	556,108
-17,950	22,018	943,418	555,426
-16,936	21,956	942,886	554,891
-15,921	21,957	941,996	554,348
-14,906	21,977	941,246	553,950
-13,892	21,956	940,680	553,528
-12,877	21,916	940,015	552,987
-11,863	21,887	939,381	552,501
-10,848	21,939	939,056	552,453
-9,833	22,014	938,420	552,295
-8,819	21,980	937,874	551,842
-7,804	21,946	937,205	551,320
-6,790	21,927	936,706	550,943
-5,775	21,990	935,968	550,688
-4,760	21,898	935,538	550,124
-3,746	21,874	934,803	549,592
-2,731	21,700	934,188	548,660
-1,717	21,713	933,512	548,284
-0,702	21,730	932,690	547,834
0,313	21,520	932,218	547,721
1,327	24,077	929,640	554,177
2,342	31,924	807,628	502,651
3,356	27,197	508,016	308,114
4,371	2,971	372,847	195,432
5,386	-0,013	355,716	182,790
6,400	-1,571	349,315	177,612
7,415	-2,432	346,493	175,135
8,429	-2,659	345,060	174,124
9,444	-2,594	344,110	173,707
10,459	-2,670	343,462	173,275
11,473	-2,533	342,856	173,115
12,488	-2,274	342,288	173,118
13,502	-2,347	342,004	172,873
14,517	-2,416	341,308	172,425
15,531	-2,709	340,781	171,800
16,546	-2,627	340,237	171,606
17,561	-2,691	339,957	171,374
18,575	-2,470	339,465	171,369
19,590	-2,722	339,156	170,904
20,604	-2,659	338,810	170,788
21,619	-2,708	338,383	170,501
22,634	-2,507	337,849	170,449
23,648	-2,521	337,611	170,298
24,663	-2,562	337,352	170,105
25,677	-2,660	337,192	169,895
26,692	-2,658	336,890	169,731
27,707	-2,598	336,489	169,582
28,721	-2,694	336,148	169,284
29,736	-2,603	335,905	169,252
30,750	-2,569	335,378	169,011
31,765	-2,632	335,208	168,838
32,780	-2,557	334,957	168,783
33,794	-2,666	334,620	168,472
34,809	-2,806	334,510	168,241
35,823	-2,616	334,070	168,222
36,838	-2,695	333,813	167,987
37,853	-2,744	333,474	167,746
38,867	-2,581	333,191	167,775
39,882	-2,632	332,960	167,586
40,896	-2,816	332,693	167,226
41,911	-2,771	332,379	167,104
42,926	-2,695	332,090	167,031
43,940	-2,802	331,757	166,728
44,955	-2,948	331,509	166,422
45,969	-2,817	331,211	166,406
46,984	-2,956	330,969	166,111
47,999	-3,088	330,542	165,733
49,013	-3,235	330,417	165,488
50,028	-3,207	329,887	165,240
51,042	-3,340	329,735	164,999
52,057	-3,298	329,461	164,895
53,071	-3,412	329,337	164,689
54,086	-3,211	328,924	164,694
55,101	-3,288	328,829	164,545
56,115	-3,057	328,796	164,774
57,130	-2,699	328,471	165,001
58,144	-2,417	328,201	165,167
59,159	-2,521	328,012	164,940
60,174	-2,402	327,636	164,871
61,188	-2,269	327,329	164,850
62,203	-2,488	327,204	164,527
63,217	-2,555	327,052	164,361
64,232	-2,602	326,820	164,177
65,247	-2,475	326,472	164,130
66,261	-2,547	326,208	163,902
67,276	-2,864	325,800	163,329
68,290	-2,875	325,560	163,182
69,305	-2,880	325,433	163,097
70,320	-2,778	325,104	163,031
71,334	-2,757	324,909	162,942
72,349	-2,500	324,765	163,142
73,363	-2,392	324,423	163,075
74,378	-2,503	324,214	162,833
75,393	-2,531	323,890	162,624
76,407	-2,601	323,587	162,380
77,422	-2,549	323,528	162,393
78,436	-2,404	323,097	162,323
79,451	-2,327	322,870	162,279
80,466	-2,655	322,575	161,754
81,480	-2,831	322,427	161,472
82,495	-2,703	321,966	161,367
83,509	-2,892	321,785	161,055
84,524	-2,796	321,480	160,993
85,539	-3,001	321,307	160,666
86,553	-2,921	321,017	160,595
87,568	-2,968	320,772	160,407
88,582	-2,885	320,655	160,425
89,597	-3,080	320,455	160,097
90,611	-2,768	320,220	160,307
91,626	-2,732	320,036	160,240
92,641	-2,714	319,809	160,132
93,655	-2,859	319,449	159,779
94,670	-2,738	319,167	159,756
95,684	-2,835	319,155	159,630
96,699	-2,801	318,725	159,437
97,714	-2,871	318,521	159,245
98,728	-2,813	318,197	159,131
99,743	-2,981	317,929	158,802
100,757	-2,905	317,728	158,768
101,772	-2,842	317,559	158,739
102,787	-2,790	317,238	158,620
103,801	-2,696	317,012	158,595
104,816	-2,759	317,047	158,531
105,830	-2,768	316,866	158,416
106,845	-2,505	316,592	158,549
107,860	-2,590	316,242	158,267
108,874	-2,760	316,107	158,003
109,889	-2,670	315,753	157,908
110,903	-2,831	315,569	157,629
111,918	-2,672	315,235	157,620
112,933	-2,820	315,096	157,377
113,947	-2,672	314,932	157,440
114,962	-2,730	314,802	157,299
115,976	-2,697	314,442	157,140
116,991	-2,759	314,150	156,914
118,006	-2,632	313,927	156,924
119,020	-2,694	313,944	156,852
120,035	-2,488	313,759	156,967
121,049	-2,475	313,432	156,802
122,064	-2,627	313,332	156,576
123,079	-2,780	313,044	156,254
124,093	-2,790	312,763	156,090
125,108	-2,874	312,476	155,844
126,122	-2,939	312,067	155,556
127,137	-2,948	311,914	155,457
128,151	-2,882	311,746	155,429
129,166	-2,885	311,551	155,315
130,181	-2,874	311,425	155,250
131,195	-3,068	311,101	154,870
132,210	-2,766	310,950	155,099
133,224	-2,709	310,830	155,087
134,239	-2,779	310,448	154,808
135,254	-2,700	310,288	154,798
136,268	-2,776	310,096	154,608
137,283	-3,019	309,620	154,101
138,297	-3,064	309,412	153,936
139,312	-3,004	309,283	153,921
140,327	-2,901	309,221	153,985
141,341	-2,541	309,014	154,247
142,356	-2,422	308,895	154,299
143,370	-2,367	308,655	154,223
144,385	-2,294	308,470	154,194
145,400	-2,330	308,170	153,992
146,414	-2,462	307,938	153,724
147,429	-2,281	307,747	153,804
148,443	-2,561	307,692	153,470
149,458	-2,316	307,440	153,587
150,473	-2,324	307,315	153,502
151,487	-2,341	306,991	153,309
152,502	-2,388	306,833	153,167
153,516	-2,456	306,680	153,007
154,531	-2,364	306,300	152,899
155,546	-2,285	306,088	152,862
156,560	-2,567	305,878	152,450
157,575	-2,615	305,617	152,257
158,589	-2,481	305,392	152,271
159,604	-2,355	305,053	152,218
160,619	-2,416	305,044	152,137
161,633	-2,489	304,788	151,920
162,648	-2,468	304,583	151,826
163,662	-2,369	304,476	151,861
164,677	-2,387	304,188	151,686
165,692	-2,457	304,023	151,517
166,706	-2,275	303,970	151,665
167,721	-2,606	303,691	151,172
168,735	-2,504	303,565	151,200
169,750	-2,380	303,265	151,165
170,764	-2,364	303,301	151,187
171,779	-2,338	303,130	151,114
172,794	-2,262	302,885	151,057
173,808	-2,551	302,577	150,593
174,823	-2,792	302,139	150,115
175,837	-2,752	301,811	149,980
176,852	-2,500	301,840	150,238
177,867	-2,328	301,756	150,359
178,881	-2,234	301,508	150,318
179,896	-2,269	301,486	150,258
180,910	-2,285	301,225	150,099
181,925	-2,260	301,055	150,026
182,940	-2,212	300,748	149,908
183,954	-2,163	300,631	149,886
184,969	-2,375	300,455	149,570
185,983	-2,364	300,217	149,449
186,998	-2,406	300,033	149,301
188,013	-2,393	299,811	149,191
189,027	-2,345	299,487	149,065
190,042	-2,153	299,299	149,153
191,056	-2,360	299,155	148,857
192,071	-2,180	298,941	148,920
193,086	-2,204	298,796	148,810
194,100	-2,206	298,524	148,660
195,115	-2,297	298,366	148,475
196,129	-2,189	298,114	148,446
197,144	-2,262	298,067	148,336
198,159	-2,222	297,751	148,206
199,173	-2,333	297,377	147,895
200,188	-2,187	297,402	148,040
201,202	-2,222	296,981	147,783
202,217	-2,775	296,605	147,028
203,232	-2,876	296,468	146,846
204,246	-2,491	296,310	147,139
205,261	-2,318	296,280	147,285
206,275	-2,177	295,955	147,252
207,290	-2,205	295,790	147,128
208,304	-2,164	295,616	147,070
209,319	-2,216	295,464	146,929
210,334	-2,386	295,273	146,652
211,348	-2,248	294,934	146,607
212,363	-2,456	294,821	146,331
213,377	-2,235	294,601	146,429
214,392	-2,237	294,694	146,460
215,407	-2,464	294,219	145,985
216,421	-2,589	293,934	145,706
217,436	-2,683	293,929	145,597
218,450	-2,411	293,563	145,673
219,465	-2,456	293,296	145,482
220,480	-2,376	293,258	145,530
221,494	-2,424	293,165	145,424
222,509	-2,445	292,882	145,249
223,523	-2,373	292,782	145,258
224,538	-2,302	292,527	145,189
225,553	-2,174	292,415	145,247
226,567	-2,400	292,327	144,967
227,582	-2,179	292,189	145,104
228,596	-2,269	291,992	144,904
229,611	-2,156	291,610	144,813
230,626	-2,242	291,535	144,678
231,640	-2,589	291,191	144,154
232,655	-2,835	290,791	143,701
233,669	-2,958	290,642	143,494
234,684	-2,915	290,460	143,434
235,699	-2,894	290,324	143,374
236,713	-2,657	290,157	143,511
237,728	-2,610	289,965	143,449
238,742	-2,420	289,986	143,633
239,757	-2,380	289,583	143,460
240,772	-2,219	289,363	143,495
241,786	-2,255	289,225	143,378
242,801	-2,612	289,157	142,984
243,815	-2,513	289,038	143,009
244,830	-2,453	288,778	142,926
245,844	-2,502	288,478	142,717
246,859	-2,442	288,247	142,648
247,874	-2,593	288,277	142,503
248,888	-2,595	288,022	142,363
249,903	-2,286	287,872	142,576
250,917	-2,252	287,800	142,560
251,932	-2,284	287,742	142,488
252,947	-1,533	287,717	143,190
253,961	-2,063	287,275	142,445
254,976	-0,714	287,678	143,938
255,990	1,828	288,689	146,898
257,005	2,594	288,991	147,783
258,020	3,784	289,098	148,979
259,034	3,953	289,022	149,091
260,049	3,889	288,642	148,819
261,063	3,665	288,333	148,429
262,078	3,829	288,417	148,619
263,093	4,465	288,414	149,218
264,107	4,312	288,366	149,033
265,122	4,504	287,990	149,010
266,136	4,641	287,998	149,133
267,151	4,586	287,636	148,879
268,166	4,309	287,429	148,493
269,180	4,208	287,185	148,255
270,195	4,418	286,957	148,327
271,209	4,315	286,919	148,195
272,224	4,349	286,659	148,079
273,239	4,098	286,611	147,801
274,253	4,015	286,412	147,605
275,268	4,701	286,255	148,169
276,282	4,578	286,084	147,949
277,297	4,611	285,772	147,807
278,312	4,763	285,856	147,982
279,326	4,674	285,464	147,681
280,341	4,441	285,225	147,321
281,355	4,427	284,995	147,177
282,370	4,260	284,788	146,897
283,384	4,443	284,447	146,882
284,399	4,571	284,365	146,948
285,414	4,309	284,222	146,613
286,428	4,142	284,196	146,427
287,443	4,120	283,768	146,173
288,457	3,804	283,687	145,819
289,472	3,945	283,413	145,799
290,487	4,151	283,209	145,876
291,501	3,711	283,093	145,386
292,516	3,646	282,747	145,134
293,530	3,596	282,782	145,091
294,545	4,084	282,602	145,447
295,560	4,269	282,303	145,455
296,574	4,005	282,079	145,078
297,589	3,983	282,044	145,026
298,603	4,295	281,944	145,256
299,618	4,374	281,835	145,261
300,633	4,183	281,879	145,091
301,647	4,328	281,478	145,008
302,662	4,256	281,241	144,805
303,676	4,087	280,978	144,498
304,691	3,678	280,664	143,941
305,706	3,929	280,395	144,025
306,720	3,815	280,262	143,837
307,735	3,654	280,151	143,617
308,749	3,869	279,975	143,714
309,764	4,009	279,783	143,734
310,779	3,857	279,450	143,408
311,793	3,511	279,362	143,028
312,808	3,792	279,123	143,155
313,822	3,617	279,014	142,923
314,837	3,649	278,728	142,794
315,852	3,648	278,645	142,737
316,866	3,659	278,304	142,560
317,881	3,889	278,309	142,763
318,895	3,824	278,068	142,567
319,910	3,531	277,971	142,232
320,925	3,342	277,808	141,961
321,939	3,628	277,547	142,080
322,954	3,848	277,393	142,192
323,968	4,042	277,280	142,301
324,983	3,975	277,141	142,155
325,997	4,133	277,008	142,219
327,012	4,135	276,788	142,096
328,027	4,035	276,758	141,976
329,041	3,967	276,422	141,728
330,056	3,930	276,286	141,612
331,070	3,938	276,050	141,485
332,085	3,966	275,879	141,411
333,100	3,944	275,739	141,306
334,114	4,034	275,532	141,270
335,129	3,769	275,386	140,940
336,143	3,938	275,259	141,017
337,158	4,255	275,180	141,254
338,173	4,047	274,867	140,891
339,187	4,043	274,662	140,769
340,202	3,821	274,612	140,528
341,216	3,893	274,420	140,484
342,231	4,040	274,130	140,456
343,246	3,943	273,996	140,286
344,260	3,928	273,826	140,174
345,275	4,143	273,756	140,322
346,289	4,432	273,667	140,526
347,304	4,382	273,429	140,346
348,319	3,935	273,146	139,781
349,333	3,930	272,977	139,679
350,348	4,166	272,987	139,885
351,362	4,427	272,837	140,033
352,377	4,215	272,656	139,735
353,392	4,175	272,459	139,586
354,406	4,240	272,342	139,572
355,421	192,105	1330,161	1409,724
356,435	155,227	1459,128	1409,842
