DTS Sentinel unit serial number:	SN410029Multiplexer serial number:	ORYXHardware model number:	OX2-SRSoftware version number:	ORYX F/W v4,00 Oryx Data Collector v3.7.2.0data status	okinstallation	B4 Nyhavnadifferential loss correction	single-endedforward channel	channel 2reverse channel	N/Adate	2023/12/16time	07:40:14forward acquisition time	300,00reverse acquisition time	0,00gamma	499,1914k internal	0,3127k external	0,3127temperature offset calibration	1,0000default loss term (dB/km)	0,3820temperature slope calibration	1,0000multiplexer offset coefficient	1,0000multiplexer slope coefficient	1,0000fibre end	0,00T internal ref (°C)	22,36T ext. ref 1 (°C)	7,74T ext. ref 2 (°C)	7,88length (m)	temperature (°C)	Stokes	anti-Stokes-744,400	-78,857	0,061	0,015
-743,385	0,950	-0,213	0,113
-742,371	-200,000	0,007	0,071
-741,356	140,196	-0,199	0,196
-740,342	422,305	0,039	0,063
-739,327	-14,176	-0,189	0,090
-738,312	7,057	0,050	0,028
-737,298	47,942	-0,244	0,170
-736,283	-26,304	0,128	0,056
-735,269	29,631	-0,252	0,160
-734,254	800,000	0,051	0,108
-733,239	-104,555	-0,449	-0,076
-732,225	63,663	0,089	0,067
-731,210	-200,000	-0,148	-0,000
-730,196	-63,979	0,117	-0,035
-729,181	57,429	0,054	0,039
-728,167	204,056	-0,061	-0,070
-727,152	455,006	0,030	-0,050
-726,137	725,085	-0,053	0,106
-725,123	-200,000	-0,008	0,109
-724,108	800,000	-0,020	-0,045
-723,094	151,491	-0,133	-0,135
-722,079	2,618	-0,096	-0,052
-721,064	-125,319	-0,080	0,009
-720,050	29,486	-0,173	-0,109
-719,035	800,000	-0,035	-0,113
-718,021	155,772	-0,114	-0,117
-717,006	639,761	-0,051	-0,096
-715,991	98,449	-0,091	-0,078
-714,977	-75,169	-0,141	-0,037
-713,962	96,269	-0,075	-0,064
-712,948	272,224	-0,016	-0,022
-711,933	-59,710	0,154	0,049
-710,918	353,544	-0,050	0,074
-709,904	333,834	-0,054	0,078
-708,889	-200,000	-0,012	0,056
-707,875	417,329	0,015	0,023
-706,860	800,000	-0,045	-0,102
-705,845	-71,229	-0,078	-0,022
-704,831	109,950	0,030	-0,026
-703,816	117,851	-0,091	0,083
-702,802	-107,215	-0,096	-0,016
-701,787	-200,000	-0,020	-0,155
-700,772	327,397	-0,089	-0,127
-699,758	-200,000	0,032	-0,166
-698,743	-18,564	0,018	-0,008
-697,729	444,146	-0,066	-0,108
-696,714	68,478	0,066	0,050
-695,699	-143,009	-0,138	-0,010
-694,685	-71,640	-0,044	0,012
-693,670	46,348	-0,020	0,014
-692,656	737,885	-0,062	-0,123
-691,641	-200,000	0,034	0,151
-690,627	46,348	0,074	0,051
-689,612	257,077	0,066	0,084
-688,597	663,704	0,041	-0,078
-687,583	800,000	-0,034	0,098
-686,568	-2,184	-0,095	-0,049
-685,554	-115,478	0,078	0,011
-684,539	-119,829	0,086	-0,011
-683,524	237,863	0,023	0,028
-682,510	16,738	-0,080	0,047
-681,495	381,984	-0,031	-0,047
-680,481	-121,208	-0,108	0,013
-679,466	67,599	-0,048	-0,036
-678,451	-200,000	0,025	-0,161
-677,437	461,256	-0,028	-0,046
-676,422	800,000	0,098	0,205
-675,408	800,000	0,017	0,035
-674,393	31,573	0,026	-0,017
-673,378	-104,977	-0,057	0,010
-672,364	800,000	-0,050	-0,128
-671,349	-107,422	-0,300	0,048
-670,335	15,169	-0,073	-0,042
-669,320	-103,383	0,041	0,007
-668,305	-196,248	0,050	0,000
-667,291	-145,163	-0,108	-0,007
-666,276	53,650	-0,139	-0,099
-665,262	199,085	-0,087	-0,099
-664,247	-61,243	0,120	-0,037
-663,232	417,545	-0,079	0,125
-662,218	-40,143	0,062	-0,024
-661,203	-32,046	0,133	0,055
-660,189	225,012	0,033	0,040
-659,174	800,000	0,021	0,048
-658,159	-0,012	-0,060	0,032
-657,145	-91,828	-0,126	0,026
-656,130	-121,700	-0,030	-0,004
-655,116	-132,990	-0,045	0,004
-654,101	-200,000	0,005	-0,033
-653,086	-200,000	0,001	-0,081
-652,072	-200,000	-0,040	-0,158
-651,057	396,570	-0,026	0,040
-650,043	466,942	0,082	0,136
-649,028	-200,000	-0,010	-0,112
-648,014	-200,000	0,004	-0,094
-646,999	24,448	0,137	-0,084
-645,984	-61,517	0,134	0,041
-644,970	-76,125	0,098	0,026
-643,955	-76,585	-0,104	-0,027
-642,941	-200,000	-0,019	-0,175
-641,926	800,000	-0,046	-0,103
-640,911	18,190	0,122	0,072
-639,897	30,644	-0,129	-0,082
-638,882	-200,000	0,014	0,106
-637,868	-50,061	-0,151	0,053
-636,853	330,288	-0,049	0,070
-635,838	-22,317	-0,103	-0,046
-634,824	-64,105	-0,060	0,018
-633,809	-152,260	-0,163	0,009
-632,795	476,131	-0,038	0,064
-631,780	-200,000	0,007	-0,054
-630,765	-110,030	-0,058	-0,009
-629,751	800,000	-0,032	-0,070
-628,736	-106,882	-0,205	-0,033
-627,722	92,416	0,056	0,047
-626,707	71,050	-0,065	-0,050
-625,692	-173,125	-0,050	0,001
-624,678	250,831	-0,049	0,061
-623,663	-198,899	0,074	-0,000
-622,649	72,788	0,111	-0,086
-621,634	172,415	-0,029	-0,031
-620,619	195,773	-0,109	-0,123
-619,605	800,000	0,058	-0,170
-618,590	-200,000	0,019	-0,063
-617,576	-48,373	-0,114	-0,040
-616,561	35,426	0,061	-0,039
-615,546	-200,000	-0,016	0,096
-614,532	-31,465	-0,102	-0,042
-613,517	-44,267	-0,027	0,010
-612,503	-77,582	-0,062	0,016
-611,488	28,820	0,045	0,028
-610,474	-200,000	0,020	-0,133
-609,459	-93,150	0,066	-0,014
-608,444	185,644	-0,126	0,139
-607,430	-200,000	-0,000	-0,016
-606,415	606,632	0,036	-0,066
-605,401	157,293	0,060	0,061
-604,386	-200,000	-0,004	0,143
-603,371	146,094	0,101	-0,100
-602,357	105,578	-0,052	0,045
-601,342	800,000	0,092	-0,203
-600,328	-6,005	-0,115	-0,058
-599,313	531,431	-0,045	0,078
-598,298	800,000	0,039	0,090
-597,284	-125,742	0,077	0,009
-596,269	800,000	0,040	0,126
-595,255	-200,000	0,011	0,055
-594,240	-200,000	-0,003	-0,063
-593,225	-13,777	-0,104	-0,049
-592,211	-200,000	-0,021	-0,073
-591,196	-103,804	0,094	-0,016
-590,182	-200,000	0,007	0,114
-589,167	-11,598	0,091	-0,044
-588,152	-200,000	-0,010	-0,135
-587,138	114,006	0,088	-0,079
-586,123	800,000	0,042	-0,097
-585,109	-200,000	0,007	0,040
-584,094	391,647	0,080	-0,123
-583,079	-117,293	-0,111	0,015
-582,065	800,000	0,034	0,106
-581,050	23,682	0,115	-0,070
-580,036	-200,000	0,003	-0,031
-579,021	-200,000	-0,034	0,136
-578,006	-200,000	0,007	0,066
-576,992	-18,226	-0,189	-0,087
-575,977	-127,780	0,060	-0,006
-574,963	-46,902	0,108	0,039
-573,948	278,834	0,062	0,082
-572,934	-41,636	-0,016	-0,006
-571,919	-95,052	0,218	-0,043
-570,904	261,815	-0,028	0,036
-569,890	-46,311	0,060	0,022
-568,875	-200,000	-0,013	0,097
-567,861	759,277	0,006	-0,012
-566,846	83,910	-0,055	-0,044
-565,831	116,607	-0,059	-0,054
-564,817	673,849	-0,069	0,134
-563,802	-26,588	-0,067	-0,029
-562,788	-19,002	-0,027	-0,012
-561,773	800,000	-0,008	-0,022
-560,758	9,732	0,061	0,034
-559,744	-123,030	-0,105	-0,012
-558,729	-200,000	0,033	0,125
-557,715	16,546	-0,074	0,043
-556,700	139,655	-0,001	0,001
-555,685	-126,166	-0,087	-0,009
-554,671	-200,000	0,033	0,144
-553,656	-200,000	-0,002	0,174
-552,642	0,967	0,081	0,043
-551,627	800,000	0,026	-0,058
-550,612	-200,000	0,007	-0,031
-549,598	19,796	-0,134	-0,079
-548,583	-200,000	-0,036	-0,229
-547,569	800,000	-0,033	-0,097
-546,554	29,317	0,074	0,046
-545,539	-200,000	0,008	-0,068
-544,525	49,648	-0,175	0,122
-543,510	710,084	-0,029	0,056
-542,496	-200,000	-0,008	-0,079
-541,481	117,577	-0,050	0,045
-540,466	800,000	-0,016	0,036
-539,452	-153,768	0,088	-0,004
-538,437	201,401	-0,084	0,095
-537,423	402,064	-0,057	0,089
-536,408	-108,811	0,163	0,026
-535,393	206,211	-0,009	-0,011
-534,379	433,261	0,055	-0,089
-533,364	-94,480	-0,069	0,014
-532,350	-200,000	0,004	-0,018
-531,335	-100,076	0,077	0,014
-530,321	-98,689	0,059	-0,011
-529,306	-36,994	-0,055	-0,022
-528,291	-110,262	0,056	0,009
-527,277	-77,766	-0,041	-0,010
-526,262	800,000	0,034	-0,110
-525,248	256,948	0,089	0,113
-524,233	425,993	0,023	0,036
-523,218	-34,421	-0,024	-0,010
-522,204	99,688	-0,074	0,064
-521,189	111,996	-0,070	0,062
-520,175	99,688	0,058	0,049
-519,160	-200,000	0,009	-0,063
-518,145	86,725	-0,082	0,067
-517,131	-144,272	0,148	-0,010
-516,116	-200,000	0,000	-0,003
-515,102	-138,597	-0,078	-0,006
-514,087	25,066	0,092	0,056
-513,072	-17,245	-0,059	-0,027
-512,058	119,549	-0,044	-0,040
-511,043	270,260	0,065	0,085
-510,029	38,172	-0,142	0,093
-509,014	-175,833	-0,121	-0,002
-507,999	148,573	-0,037	-0,037
-506,985	125,809	-0,079	-0,074
-505,970	126,137	0,086	-0,081
-504,956	-6,810	-0,094	-0,047
-503,941	-103,435	0,078	-0,013
-502,926	-168,268	0,071	0,002
-501,912	579,439	-0,063	0,114
-500,897	168,727	0,049	0,052
-499,883	-200,000	-0,005	0,100
-498,868	640,264	0,032	0,061
-497,853	-127,095	-0,076	-0,008
-496,839	800,000	-0,022	0,048
-495,824	-200,000	0,041	0,162
-494,810	800,000	-0,050	0,114
-493,795	-200,000	-0,011	0,090
-492,781	-200,000	-0,018	0,211
-491,766	406,618	-0,057	-0,089
-490,751	-200,000	0,022	-0,085
-489,737	444,900	-0,045	-0,073
-488,722	-200,000	0,019	0,121
-487,708	-200,000	0,015	0,146
-486,693	185,624	0,062	0,068
-485,678	-200,000	0,007	0,076
-484,664	800,000	0,023	-0,070
-483,649	-66,848	-0,099	0,029
-482,635	-53,553	0,029	-0,010
-481,620	-200,000	-0,020	0,121
-480,605	19,333	-0,069	0,041
-479,591	-200,000	-0,004	0,067
-478,576	-200,000	0,013	-0,105
-477,562	62,749	-0,088	-0,064
-476,547	655,345	0,032	-0,060
-475,532	297,838	0,034	0,046
-474,518	12,598	0,057	-0,032
-473,503	132,630	-0,092	0,088
-472,489	436,435	0,012	0,019
-471,474	253,647	0,039	-0,050
-470,459	800,000	-0,021	-0,047
-469,445	75,945	0,100	-0,078
-468,430	-98,215	-0,087	0,016
-467,416	-200,000	-0,011	-0,059
-466,401	286,628	-0,049	-0,065
-465,386	364,022	0,021	-0,031
-464,372	-10,231	0,090	0,044
-463,357	-41,936	0,094	0,035
-462,343	452,756	0,006	-0,010
-461,328	14,215	-0,179	-0,102
-460,313	750,199	0,063	-0,126
-459,299	312,421	-0,014	0,019
-458,284	-92,654	0,134	0,027
-457,270	-200,000	-0,012	-0,109
-456,255	289,929	0,024	-0,032
-455,241	186,705	-0,038	0,042
-454,226	-157,488	-0,076	-0,003
-453,211	12,344	-0,097	0,055
-452,197	-200,000	0,002	-0,032
-451,182	-60,501	-0,111	0,034
-450,168	-200,000	0,008	-0,028
-449,153	-69,175	0,104	0,029
-448,138	618,882	0,007	0,013
-447,124	572,849	0,042	-0,075
-446,109	-101,973	0,113	0,020
-445,095	-52,886	0,106	0,036
-444,080	-200,000	-0,012	0,041
-443,065	28,958	0,103	0,064
-442,051	-200,000	-0,002	0,018
-441,036	-114,249	0,041	-0,006
-440,022	-53,705	-0,123	-0,041
-439,007	4,531	-0,052	-0,028
-437,992	-72,200	0,045	-0,012
-436,978	-63,298	0,194	-0,058
-435,963	-173,450	0,081	0,002
-434,949	351,574	0,038	0,055
-433,934	800,000	-0,019	-0,043
-432,919	-200,000	-0,008	-0,027
-431,905	587,134	0,045	0,081
-430,890	800,000	0,012	0,032
-429,876	223,643	-0,102	0,121
-428,861	-34,981	-0,106	0,042
-427,846	552,953	-0,080	0,142
-426,832	-200,000	-0,011	-0,049
-425,817	-200,000	-0,003	-0,052
-424,803	-200,000	-0,027	-0,132
-423,788	-18,308	0,053	-0,024
-422,773	321,768	0,079	0,111
-421,759	623,520	-0,049	0,092
-420,744	211,693	-0,073	0,085
-419,730	-200,000	0,027	-0,114
-418,715	-97,354	0,143	-0,027
-417,701	138,215	-0,046	0,045
-416,686	60,956	0,161	0,118
-415,671	-200,000	-0,006	0,080
-414,657	10,417	0,016	-0,009
-413,642	-120,185	-0,088	-0,011
-412,628	-116,183	-0,081	-0,011
-411,613	565,483	0,057	-0,101
-410,598	-200,000	0,030	-0,102
-409,584	-89,843	0,050	0,011
-408,569	-119,554	-0,066	0,008
-407,555	4,012	-0,049	0,026
-406,540	222,687	-0,051	-0,061
-405,525	-21,502	-0,099	0,044
-404,511	800,000	0,075	-0,204
-403,496	-200,000	0,001	-0,011
-402,482	-103,767	-0,031	0,005
-401,467	-11,664	0,107	-0,052
-400,452	-103,403	0,041	-0,007
-399,438	203,473	0,029	-0,033
-398,423	-99,696	-0,130	0,024
-397,409	800,000	-0,085	-0,187
-396,394	800,000	0,054	-0,155
-395,379	-200,000	-0,006	0,049
-394,365	239,757	0,107	-0,131
-393,350	61,337	0,081	0,059
-392,336	-200,000	-0,013	0,101
-391,321	32,004	0,051	0,032
-390,306	522,107	0,022	-0,038
-389,292	36,417	-0,123	-0,080
-388,277	722,477	0,080	-0,158
-387,263	-120,206	0,136	-0,017
-386,248	393,351	-0,018	0,027
-385,233	-200,000	0,023	0,096
-384,219	-93,033	-0,153	0,031
-383,204	41,347	0,056	-0,037
-382,190	-123,258	-0,041	-0,005
-381,175	22,657	0,096	-0,058
-380,160	566,720	0,053	-0,095
-379,146	235,404	0,056	0,068
-378,131	-200,000	-0,027	0,101
-377,117	24,187	0,068	0,041
-376,102	-24,782	-0,024	-0,010
-375,088	800,000	-0,010	-0,023
-374,073	68,137	-0,075	0,056
-373,058	-38,159	-0,022	0,009
-372,044	491,904	0,034	-0,057
-371,029	800,000	0,066	0,137
-370,015	-200,000	0,025	0,105
-369,000	37,769	0,022	0,014
-367,985	800,000	-0,031	0,064
-366,971	-40,946	-0,086	-0,032
-365,956	648,417	0,064	-0,122
-364,942	397,432	0,021	-0,032
-363,927	-200,000	-0,017	0,143
-362,912	88,489	-0,073	-0,059
-361,898	11,294	0,114	0,064
-360,883	551,604	-0,032	-0,057
-359,869	508,706	-0,045	-0,077
-358,854	-77,968	0,059	0,015
-357,839	800,000	0,039	0,092
-356,825	-200,000	-0,013	0,146
-355,810	-200,000	0,002	-0,057
-354,796	67,004	0,100	0,075
-353,781	-43,236	0,083	0,031
-352,766	-61,176	-0,132	0,040
-351,752	-57,608	-0,084	-0,027
-350,737	-51,670	-0,112	-0,038
-349,723	-22,915	0,040	0,017
-348,708	597,256	0,069	-0,126
-347,693	5,432	-0,091	-0,049
-346,679	19,332	-0,078	0,046
-345,664	230,542	-0,043	0,051
-344,650	-60,526	0,067	-0,021
-343,635	800,000	-0,054	0,148
-342,620	800,000	-0,043	-0,126
-341,606	-200,000	0,009	0,033
-340,591	-136,395	-0,119	-0,010
-339,577	536,325	0,029	-0,050
-338,562	800,000	-0,029	0,089
-337,548	636,254	0,032	-0,060
-336,533	61,480	-0,022	-0,016
-335,518	109,774	0,084	-0,074
-334,504	715,853	-0,029	-0,056
-333,489	-200,000	0,001	0,154
-332,475	170,375	-0,039	-0,041
-331,460	-77,833	-0,050	-0,013
-330,445	308,979	0,085	-0,117
-329,431	222,473	0,114	0,135
-328,416	800,000	0,054	-0,140
-327,402	-200,000	0,014	-0,053
-326,387	220,453	0,032	0,037
-325,372	101,542	-0,093	0,079
-324,358	667,269	-0,006	0,012
-323,343	58,508	0,065	-0,047
-322,329	800,000	-0,080	0,192
-321,314	566,596	-0,048	0,085
-320,299	-200,000	0,005	-0,055
-319,285	-82,205	-0,145	0,034
-318,270	-4,449	-0,057	-0,029
-317,256	131,172	0,058	0,055
-316,241	-200,000	0,004	0,076
-315,226	-1,525	0,057	0,029
-314,212	270,913	0,117	0,152
-313,197	-22,110	-0,080	0,035
-312,183	270,851	-0,043	-0,056
-311,168	-192,098	-0,163	0,001
-310,153	27,956	-0,111	0,068
-309,139	-200,000	0,020	-0,148
-308,124	34,664	-0,038	0,024
-307,110	-83,358	0,203	-0,047
-306,095	-93,595	-0,063	0,013
-305,080	254,454	0,039	0,048
-304,066	88,930	-0,106	-0,086
-303,051	-136,893	-0,268	-0,022
-302,037	-106,205	0,052	0,008
-301,022	177,293	0,095	0,102
-300,008	15,845	0,089	-0,051
-298,993	172,699	0,092	-0,097
-297,978	-67,346	0,092	0,026
-296,964	629,039	0,038	-0,070
-295,949	-161,714	0,064	-0,002
-294,935	800,000	-0,019	0,045
-293,920	-68,953	-0,109	-0,031
-292,905	-200,000	0,015	0,150
-291,891	99,202	0,031	-0,026
-290,876	-174,579	-0,060	0,001
-289,862	-95,369	0,018	-0,004
-288,847	-200,000	0,025	-0,106
-287,832	-200,000	0,023	-0,101
-286,818	-181,948	-0,069	-0,001
-285,803	62,970	0,112	0,082
-284,789	-200,000	-0,039	0,180
-283,774	36,210	0,030	-0,020
-282,759	446,806	0,060	0,097
-281,745	-132,874	-0,184	-0,017
-280,730	8,123	0,120	-0,066
-279,716	257,983	-0,069	-0,087
-278,701	-200,000	0,015	-0,091
-277,686	-85,321	0,146	-0,033
-276,672	362,403	0,052	0,077
-275,657	182,254	-0,101	0,109
-274,643	800,000	0,034	-0,081
-273,628	112,072	-0,066	-0,058
-272,613	-200,000	-0,062	-0,228
-271,599	-115,189	-0,108	0,015
-270,584	-73,513	0,036	0,010
-269,570	-91,091	0,089	-0,018
-268,555	142,815	-0,093	0,091
-267,540	-51,853	0,028	0,009
-266,526	443,790	-0,045	-0,073
-265,511	198,600	0,066	0,074
-264,497	-52,252	0,059	0,020
-263,482	-118,006	0,152	0,020
-262,467	389,418	-0,071	0,108
-261,453	308,969	-0,095	0,130
-260,438	-0,130	0,027	-0,014
-259,424	-82,908	0,042	-0,010
-258,409	58,610	-0,041	-0,029
-257,395	283,392	0,065	0,086
-256,380	152,055	0,097	-0,097
-255,365	-200,000	0,005	0,116
-254,351	-147,934	0,049	0,003
-253,336	77,458	-0,084	0,065
-252,322	-200,000	-0,007	-0,088
-251,307	357,192	0,078	-0,114
-250,292	-22,558	-0,146	0,064
-249,278	-19,503	-0,154	-0,069
-248,263	48,411	-0,062	-0,043
-247,249	251,208	0,061	0,076
-246,234	-200,000	0,002	-0,114
-245,219	702,302	-0,017	-0,032
-244,205	69,203	-0,103	0,077
-243,190	800,000	-0,027	0,078
-242,176	44,455	0,055	0,037
-241,161	-136,524	0,136	0,011
-240,146	800,000	0,074	0,155
-239,132	-200,000	-0,004	0,039
-238,117	800,000	-0,037	0,083
-237,103	800,000	0,043	-0,130
-236,088	2,482	-0,048	-0,025
-235,073	365,191	0,091	0,135
-234,059	800,000	0,045	-0,095
-233,044	74,183	-0,022	0,017
-232,030	178,883	-0,060	-0,065
-231,015	17,859	-0,162	-0,094
-230,000	-1,028	0,141	-0,073
-228,986	800,000	0,017	-0,040
-227,971	280,152	0,078	0,102
-226,957	-200,000	0,003	0,025
-225,942	-46,459	-0,147	0,052
-224,927	246,412	-0,034	0,042
-223,913	42,750	0,029	-0,019
-222,898	-123,275	0,085	0,010
-221,884	246,306	0,055	0,068
-220,869	475,517	-0,019	-0,031
-219,855	-200,000	-0,006	-0,111
-218,840	44,722	0,085	0,057
-217,825	-118,293	0,181	0,023
-216,811	626,748	-0,015	0,027
-215,796	800,000	-0,056	-0,121
-214,782	-23,233	-0,033	0,015
-213,767	-200,000	0,001	-0,095
-212,752	-200,000	-0,004	0,091
-211,738	-107,384	0,038	-0,006
-210,723	149,775	-0,061	0,060
-209,709	800,000	-0,033	-0,086
-208,694	52,888	-0,161	-0,112
-207,679	-92,293	-0,145	0,030
-206,665	-200,000	0,022	0,091
-205,650	-200,000	-0,020	0,136
-204,636	-123,975	0,064	0,007
-203,621	-200,000	0,012	-0,086
-202,606	-200,000	-0,007	0,035
-201,592	-67,699	-0,161	0,046
-200,577	-200,000	0,017	-0,145
-199,563	800,000	-0,069	-0,141
-198,548	157,284	0,059	0,059
-197,533	-22,352	0,082	0,036
-196,519	769,630	-0,025	-0,051
-195,504	-200,000	-0,018	-0,073
-194,490	639,993	0,026	0,048
-193,475	314,194	-0,066	-0,090
-192,460	16,863	0,058	0,034
-191,446	-200,000	0,016	0,121
-190,431	800,000	-0,066	-0,153
-189,417	-200,000	-0,003	-0,153
-188,402	250,663	-0,084	-0,105
-187,387	-98,719	0,047	-0,009
-186,373	-200,000	-0,004	-0,108
-185,358	174,232	-0,042	-0,044
-184,344	-160,839	0,108	-0,004
-183,329	-95,336	-0,125	0,024
-182,315	61,794	0,123	0,089
-181,300	253,890	-0,039	0,048
-180,285	-200,000	-0,019	0,105
-179,271	-122,291	0,135	0,016
-178,256	225,623	-0,066	-0,078
-177,242	-121,392	0,123	0,015
-176,227	-60,860	0,065	0,020
-175,212	-200,000	-0,014	0,071
-174,198	774,810	0,016	0,032
-173,183	86,740	0,043	0,035
-172,169	-95,054	-0,100	-0,019
-171,154	195,352	-0,033	0,036
-170,139	800,000	0,012	-0,027
-169,125	-52,908	0,099	-0,033
-168,110	2,376	0,058	-0,030
-167,096	-79,152	0,074	0,018
-166,081	189,164	0,096	-0,104
-165,066	-200,000	0,047	-0,152
-164,052	-44,377	0,142	-0,052
-163,037	-200,000	-0,004	0,040
-162,023	-78,835	0,113	-0,028
-161,008	-200,000	-0,015	-0,077
-159,993	135,886	0,131	-0,124
-158,979	51,520	-0,040	0,028
-157,964	-200,000	0,068	0,000
-156,950	-200,000	-0,013	-0,104
-155,935	-65,931	-0,181	0,052
-154,920	187,442	0,114	0,124
-153,906	800,000	-0,031	0,074
-152,891	-200,000	0,015	0,053
-151,877	-200,000	-0,001	0,038
-150,862	-5,820	-0,079	-0,039
-149,847	800,000	-0,030	-0,093
-148,833	37,202	0,025	-0,016
-147,818	-200,000	0,029	-0,146
-146,804	129,211	0,039	0,037
-145,789	800,000	-0,004	-0,012
-144,775	-61,853	-0,089	0,027
-143,760	42,792	-0,082	0,054
-142,745	-200,000	-0,016	-0,092
-141,731	-138,750	-0,101	0,008
-140,716	800,000	-0,025	-0,057
-139,702	-50,015	0,106	0,036
-138,687	800,000	0,035	0,112
-137,672	-15,783	-0,101	-0,047
-136,658	-200,000	-0,029	-0,101
-135,643	-65,774	-0,078	-0,023
-134,629	81,272	0,023	0,018
-133,614	113,593	0,066	0,059
-132,599	-200,000	0,017	0,142
-131,585	-200,000	-0,016	0,089
-130,570	-200,000	-0,007	0,119
-129,556	75,855	-0,067	0,051
-128,541	-102,554	-0,152	0,026
-127,526	-200,000	0,050	0,199
-126,512	800,000	-0,054	0,119
-125,497	-93,094	0,099	-0,020
-124,483	103,692	0,096	0,082
-123,468	-142,654	0,092	0,006
-122,453	-154,498	0,033	-0,002
-121,439	-200,000	0,011	-0,077
-120,424	241,592	-0,070	-0,086
-119,410	800,000	0,032	0,092
-118,395	111,097	0,089	0,078
-117,380	91,522	0,063	0,052
-116,366	-118,176	-0,084	-0,011
-115,351	-200,000	-0,000	0,002
-114,337	-200,000	-0,004	0,049
-113,322	51,044	0,035	0,024
-112,307	-131,292	0,084	-0,008
-111,293	512,990	0,029	-0,050
-110,278	-174,562	0,137	-0,003
-109,264	109,989	0,034	-0,030
-108,249	800,000	0,070	-0,148
-107,234	-97,341	-0,104	0,020
-106,220	25,873	-0,069	0,042
-105,205	800,000	0,035	0,072
-104,191	138,194	-0,103	0,099
-103,176	52,526	0,031	0,022
-102,162	-77,256	-0,074	-0,019
-101,147	800,000	-0,009	0,023
-100,132	150,732	-0,068	-0,067
-99,118	-93,351	-0,127	-0,025
-98,103	-66,451	-0,041	0,012
-97,089	800,000	0,066	-0,180
-96,074	-91,508	-0,127	0,026
-95,059	-17,169	0,084	0,038
-94,045	-200,000	0,028	-0,117
-93,030	800,000	0,080	-0,229
-92,016	221,516	-0,064	0,075
-91,001	250,696	0,052	0,064
-89,986	-25,376	0,190	-0,081
-88,972	-200,000	-0,020	0,131
-87,957	230,812	-0,157	0,187
-86,943	-200,000	-0,006	0,067
-85,928	63,814	-0,033	-0,024
-84,913	-147,063	-0,121	0,007
-83,899	74,285	-0,105	-0,080
-82,884	-144,702	-0,063	-0,004
-81,870	-105,213	0,069	0,011
-80,855	392,821	-0,020	0,030
-79,840	-200,000	0,012	0,068
-78,826	-152,462	-0,212	-0,011
-77,811	26,174	0,027	-0,016
-76,797	-21,056	0,083	-0,037
-75,782	203,370	0,066	-0,074
-74,767	227,502	-0,005	0,006
-73,753	78,862	0,166	-0,129
-72,738	305,236	-0,069	0,094
-71,724	-140,824	0,028	0,002
-70,709	800,000	0,056	-0,146
-69,694	800,000	0,027	-0,056
-68,680	123,574	-0,054	0,049
-67,665	800,000	0,020	0,057
-66,651	13,649	0,060	0,034
-65,636	-200,000	-0,005	0,033
-64,622	125,977	-0,092	-0,084
-63,607	771,809	0,066	-0,131
-62,592	800,000	-0,062	0,159
-61,578	800,000	0,058	0,150
-60,563	800,000	-0,058	0,132
-59,549	-24,406	0,078	0,034
-58,534	-165,393	-1,333	0,042
-57,519	531,802	-0,897	-1,544
-56,505	-200,000	-0,928	-4,259
-55,490	-66,173	0,578	-0,166
-54,476	800,000	4,856	11,570
-53,461	-200,000	13,597	251,201
-52,446	-200,000	689,582	2249,773
-51,432	592,205	1619,743	2910,743
-50,417	119,312	1631,583	1463,112
-49,403	74,344	1286,385	978,448
-48,388	38,285	1022,423	658,483
-47,373	24,323	980,510	585,703
-46,359	23,613	970,202	577,200
-45,344	22,651	965,854	571,455
-44,330	22,498	964,363	570,054
-43,315	22,370	963,016	568,818
-42,300	22,410	961,845	568,232
-41,286	22,435	960,970	567,774
-40,271	22,440	960,010	567,200
-39,257	22,407	958,998	566,473
-38,242	22,368	958,154	565,826
-37,227	22,392	957,353	565,409
-36,213	22,416	956,318	564,852
-35,198	22,351	955,589	564,189
-34,184	22,426	954,791	563,940
-33,169	22,352	953,945	563,178
-32,154	22,419	953,000	562,813
-31,140	22,383	952,182	562,191
-30,125	22,444	951,558	561,997
-29,111	22,386	950,596	561,220
-28,096	22,431	949,836	560,895
-27,082	22,408	949,181	560,411
-26,067	22,366	948,476	559,837
-25,052	22,397	947,753	559,490
-24,038	22,382	947,179	559,081
-23,023	22,397	946,534	558,723
-22,009	22,414	945,778	558,310
-20,994	22,459	945,192	558,086
-19,979	22,376	944,662	557,487
-18,965	22,413	944,025	557,205
-17,950	22,399	943,361	556,747
-16,936	22,337	942,716	556,146
-15,921	22,327	942,135	555,751
-14,906	22,285	941,206	555,046
-13,892	22,282	940,741	554,741
-12,877	22,300	940,008	554,345
-11,863	22,234	939,582	553,863
-10,848	22,259	938,893	553,514
-9,833	22,372	938,300	553,500
-8,819	22,353	937,748	553,092
-7,804	22,296	937,041	552,472
-6,790	22,293	936,531	552,139
-5,775	22,367	935,816	551,930
-4,760	22,292	935,260	551,344
-3,746	22,274	934,700	550,937
-2,731	22,173	934,024	550,195
-1,717	22,123	933,395	549,648
-0,702	22,070	932,649	549,018
0,313	21,904	931,951	548,915
1,327	24,388	929,366	555,130
2,342	31,930	807,632	502,801
3,356	27,202	507,865	308,110
4,371	3,409	372,317	195,764
5,386	0,492	355,373	183,278
6,400	-0,993	349,118	178,253
7,415	-2,048	346,345	175,563
8,429	-2,093	344,796	174,708
9,444	-2,002	343,712	174,252
10,459	-2,156	343,196	173,792
11,473	-2,136	342,587	173,492
12,488	-1,731	342,037	173,674
13,502	-1,434	341,579	173,776
14,517	-1,747	341,085	173,142
15,531	-2,145	340,507	172,367
16,546	-2,092	339,939	172,126
17,561	-1,977	339,584	172,066
18,575	-2,055	339,127	171,728
19,590	-2,108	338,756	171,462
20,604	-2,085	338,572	171,381
21,619	-2,177	338,153	171,046
22,634	-2,186	337,711	170,796
23,648	-1,987	337,367	170,839
24,663	-1,962	337,101	170,717
25,677	-2,015	336,810	170,494
26,692	-2,110	336,530	170,227
27,707	-2,083	336,261	170,107
28,721	-1,922	335,866	170,078
29,736	-1,946	335,356	169,776
30,750	-2,168	335,265	169,460
31,765	-2,092	334,954	169,374
32,780	-2,164	334,689	169,143
33,794	-2,101	334,597	169,154
34,809	-2,173	334,241	168,876
35,823	-2,024	333,792	168,805
36,838	-1,981	333,503	168,693
37,853	-2,116	333,266	168,404
38,867	-2,130	332,875	168,175
39,882	-2,226	332,676	167,950
40,896	-2,208	332,378	167,805
41,911	-2,111	332,016	167,718
42,926	-2,324	331,906	167,405
43,940	-2,248	331,583	167,314
44,955	-2,156	331,106	167,163
45,969	-2,285	330,990	166,942
46,984	-2,403	330,722	166,658
47,999	-2,608	330,419	166,258
49,013	-2,730	330,076	165,933
50,028	-2,859	329,914	165,691
51,042	-2,838	329,682	165,583
52,057	-2,903	329,400	165,353
53,071	-2,808	329,109	165,299
54,086	-2,855	328,862	165,108
55,101	-2,626	328,658	165,248
56,115	-2,473	328,435	165,294
57,130	-2,131	328,312	165,602
58,144	-1,999	328,084	165,621
59,159	-2,038	327,771	165,405
60,174	-1,972	327,643	165,400
61,188	-1,963	327,443	165,294
62,203	-2,009	327,132	165,071
63,217	-2,005	326,892	164,940
64,232	-1,926	326,575	164,853
65,247	-1,851	326,375	164,821
66,261	-2,010	326,063	164,471
67,276	-2,246	325,757	164,038
68,290	-2,264	325,261	163,754
69,305	-2,315	325,247	163,676
70,320	-2,434	325,053	163,431
71,334	-2,156	324,753	163,575
72,349	-1,985	324,605	163,676
73,363	-1,873	324,328	163,646
74,378	-1,885	323,915	163,409
75,393	-1,917	323,751	163,277
76,407	-2,045	323,545	163,017
77,422	-2,081	323,455	162,917
78,436	-1,978	323,037	162,806
79,451	-1,886	322,751	162,748
80,466	-2,156	322,433	162,276
81,480	-2,262	322,177	162,015
82,495	-2,471	322,014	161,689
83,509	-2,078	321,656	161,927
84,524	-2,280	321,448	161,587
85,539	-2,404	321,206	161,315
86,553	-2,507	320,859	161,012
87,568	-2,344	320,796	161,146
88,582	-2,191	320,446	161,123
89,597	-2,301	320,288	160,908
90,611	-2,325	320,246	160,847
91,626	-2,217	320,022	160,838
92,641	-2,131	319,715	160,763
93,655	-2,314	319,497	160,439
94,670	-2,206	319,120	160,353
95,684	-2,290	318,941	160,158
96,699	-2,316	318,805	160,046
97,714	-2,132	318,424	160,042
98,728	-2,407	318,372	159,702
99,743	-2,394	317,918	159,474
100,757	-2,380	317,692	159,362
101,772	-2,323	317,368	159,247
102,787	-2,358	317,268	159,144
103,801	-2,169	316,996	159,198
104,816	-2,218	316,907	159,087
105,830	-2,072	316,697	159,125
106,845	-2,011	316,432	159,043
107,860	-2,029	316,129	158,857
108,874	-2,084	316,064	158,751
109,889	-2,286	315,809	158,391
110,903	-2,105	315,482	158,408
111,918	-2,153	315,161	158,181
112,933	-2,186	315,059	158,081
113,947	-2,167	314,945	158,029
114,962	-1,923	314,640	158,124
115,976	-2,248	314,406	157,644
116,991	-2,135	314,029	157,562
118,006	-1,963	313,966	157,700
119,020	-2,149	313,920	157,465
120,035	-2,003	313,844	157,569
121,049	-2,017	313,486	157,360
122,064	-1,974	313,134	157,214
123,079	-1,976	312,788	157,025
124,093	-2,208	312,721	156,730
125,108	-2,180	312,406	156,588
126,122	-2,459	312,104	156,126
127,137	-2,702	311,895	155,749
128,151	-2,416	311,872	156,028
129,166	-2,352	311,492	155,892
130,181	-2,575	311,345	155,567
131,195	-2,377	310,983	155,583
132,210	-2,272	310,887	155,632
133,224	-2,097	310,567	155,643
134,239	-2,084	310,471	155,594
135,254	-2,081	310,088	155,392
136,268	-2,137	309,845	155,198
137,283	-2,455	309,663	154,757
138,297	-2,589	309,443	154,492
139,312	-2,478	309,214	154,481
140,327	-2,224	309,154	154,704
141,341	-1,793	308,983	155,058
142,356	-1,845	308,889	154,942
143,370	-1,586	308,655	155,082
144,385	-1,851	308,398	154,663
145,400	-1,731	308,081	154,615
146,414	-1,908	307,982	154,367
147,429	-1,764	307,761	154,393
148,443	-1,918	307,704	154,189
149,458	-1,823	307,329	154,086
150,473	-1,665	307,020	154,083
151,487	-1,902	306,878	153,751
152,502	-1,875	306,746	153,699
153,516	-1,844	306,574	153,631
154,531	-1,885	306,282	153,429
155,546	-2,018	306,126	153,198
156,560	-1,878	305,812	153,173
157,575	-1,917	305,439	152,932
158,589	-1,925	305,253	152,818
159,604	-2,029	305,088	152,613
160,619	-1,966	304,935	152,588
161,633	-2,063	304,810	152,411
162,648	-1,989	304,653	152,396
163,662	-1,617	304,333	152,606
164,677	-1,715	304,157	152,404
165,692	-1,922	304,102	152,149
166,706	-1,846	303,914	152,120
167,721	-1,905	303,607	151,892
168,735	-1,869	303,475	151,849
169,750	-1,782	303,232	151,803
170,764	-1,586	303,018	151,884
171,779	-1,706	302,992	151,734
172,794	-1,607	302,777	151,715
173,808	-1,827	302,291	151,233
174,823	-2,457	302,144	150,500
175,837	-2,344	301,843	150,452
176,852	-1,923	301,760	150,828
177,867	-1,860	301,803	150,900
178,881	-1,812	301,460	150,764
179,896	-1,710	301,144	150,698
180,910	-1,805	301,168	150,599
181,925	-1,754	300,736	150,422
182,940	-1,664	300,672	150,467
183,954	-1,626	300,423	150,368
184,969	-1,637	300,223	150,243
185,983	-1,866	300,192	149,982
186,998	-1,812	299,807	149,831
188,013	-1,839	299,662	149,718
189,027	-1,783	299,441	149,650
190,042	-1,573	299,211	149,735
191,056	-1,564	299,045	149,648
192,071	-1,579	298,961	149,577
193,086	-1,562	298,624	149,412
194,100	-1,520	298,515	149,387
195,115	-1,625	298,308	149,164
196,129	-1,632	298,007	148,993
197,144	-1,612	297,775	148,885
198,159	-1,580	297,623	148,828
199,173	-1,553	297,350	148,705
200,188	-1,621	297,218	148,557
201,202	-1,809	296,951	148,221
202,217	-2,287	296,572	147,539
203,232	-2,256	296,295	147,420
204,246	-2,119	296,309	147,551
205,261	-1,644	296,122	147,920
206,275	-1,756	296,019	147,743
207,290	-1,588	295,855	147,817
208,304	-1,780	295,722	147,544
209,319	-1,598	295,432	147,569
210,334	-1,733	295,225	147,318
211,348	-1,766	295,044	147,181
212,363	-1,748	294,862	147,095
213,377	-1,741	294,760	147,037
214,392	-1,652	294,447	146,957
215,407	-1,884	294,245	146,613
216,421	-1,993	293,903	146,321
217,436	-2,030	293,691	146,166
218,450	-1,932	293,488	146,149
219,465	-1,965	293,371	146,045
220,480	-1,766	293,337	146,211
221,494	-1,914	293,089	145,929
222,509	-1,909	292,815	145,784
223,523	-1,804	292,780	145,858
224,538	-1,518	292,484	145,980
225,553	-1,620	292,411	145,829
226,567	-1,719	292,246	145,636
227,582	-1,564	292,097	145,703
228,596	-1,544	291,826	145,573
229,611	-1,417	291,726	145,635
230,626	-1,546	291,476	145,371
231,640	-1,867	291,011	144,810
232,655	-2,324	290,801	144,245
233,669	-2,335	290,517	144,081
234,684	-2,443	290,422	143,915
235,699	-2,300	290,382	144,022
236,713	-2,100	290,013	144,022
237,728	-2,042	290,079	144,099
238,742	-1,885	289,947	144,174
239,757	-1,815	289,641	144,077
240,772	-1,706	289,473	144,088
241,786	-1,881	289,331	143,833
242,801	-2,030	289,090	143,555
243,815	-2,090	288,767	143,324
244,830	-1,980	288,737	143,403
245,844	-2,049	288,429	143,170
246,859	-2,090	288,380	143,093
247,874	-2,033	288,196	143,044
248,888	-1,826	287,992	143,132
249,903	-1,772	287,786	143,068
250,917	-1,707	287,694	143,073
251,932	-1,556	287,555	143,137
252,947	-1,089	287,648	143,623
253,961	-0,995	287,469	143,612
254,976	0,105	287,832	144,846
255,990	2,108	288,397	147,059
257,005	2,794	288,583	147,806
258,020	3,917	288,995	149,093
259,034	4,314	288,660	149,291
260,049	4,218	288,331	149,015
261,063	3,867	288,249	148,620
262,078	4,139	288,166	148,827
263,093	4,894	288,123	149,520
264,107	4,556	287,957	149,095
265,122	4,672	287,849	149,138
266,136	4,961	287,692	149,321
267,151	4,683	287,540	148,962
268,166	4,504	287,226	148,613
269,180	4,580	286,924	148,517
270,195	4,619	286,873	148,515
271,209	4,730	286,709	148,523
272,224	4,621	286,435	148,263
273,239	4,423	286,282	147,981
274,253	4,477	286,107	147,929
275,268	4,750	285,969	148,106
276,282	4,883	285,798	148,132
277,297	4,600	285,732	147,813
278,312	4,815	285,456	147,863
279,326	4,870	285,258	147,800
280,341	4,660	284,993	147,449
281,355	4,620	284,793	147,295
282,370	4,421	284,554	146,968
283,384	4,556	284,375	146,991
284,399	4,624	284,062	146,881
285,414	4,502	284,048	146,744
286,428	4,404	283,792	146,506
287,443	4,393	283,592	146,379
288,457	4,275	283,242	146,074
289,472	4,169	283,232	145,955
290,487	4,395	282,963	146,017
291,501	4,121	282,816	145,669
292,516	4,011	282,439	145,358
293,530	3,858	282,364	145,162
294,545	4,304	282,358	145,568
295,560	4,288	282,264	145,491
296,574	4,118	282,046	145,205
297,589	4,090	281,884	145,082
298,603	4,556	281,760	145,444
299,618	4,669	281,498	145,402
300,633	4,595	281,293	145,214
301,647	4,386	281,171	144,941
302,662	4,392	281,010	144,852
303,676	4,282	280,744	144,598
304,691	4,164	280,500	144,350
305,706	3,780	280,293	143,870
306,720	3,920	280,018	143,847
307,735	3,815	279,835	143,642
308,749	4,101	279,893	143,926
309,764	4,200	279,589	143,850
310,779	3,847	279,472	143,447
311,793	3,976	279,141	143,385
312,808	4,134	278,856	143,373
313,822	4,047	278,801	143,251
314,837	3,605	278,619	142,734
315,852	3,778	278,416	142,777
316,866	3,959	278,269	142,857
317,881	3,948	277,979	142,686
318,895	3,935	277,796	142,567
319,910	3,854	277,643	142,400
320,925	3,665	277,453	142,116
321,939	3,857	277,354	142,230
322,954	4,208	277,245	142,486
323,968	4,000	277,223	142,270
324,983	4,269	277,105	142,445
325,997	4,070	276,860	142,122
327,012	4,413	276,566	142,275
328,027	4,358	276,348	142,100
329,041	4,039	276,231	141,733
330,056	4,191	276,120	141,803
331,070	4,149	275,924	141,651
332,085	4,213	275,698	141,581
333,100	4,134	275,497	141,393
334,114	4,190	275,128	141,243
335,129	4,131	274,982	141,101
336,143	4,203	274,991	141,159
337,158	4,506	274,910	141,382
338,173	4,147	274,843	141,007
339,187	4,093	274,492	140,764
340,202	4,193	274,223	140,705
341,216	4,333	274,058	140,736
342,231	4,362	273,936	140,687
343,246	4,034	273,779	140,295
344,260	4,195	273,484	140,278
345,275	4,395	273,492	140,452
346,289	4,739	273,404	140,706
347,304	4,430	273,241	140,330
348,319	4,438	272,899	140,149
349,333	4,131	272,870	139,842
350,348	4,449	272,699	140,031
351,362	4,619	272,555	140,099
352,377	4,352	272,351	139,739
353,392	4,510	272,132	139,757
354,406	4,433	272,060	139,639
355,421	192,056	1331,852	1411,722
356,435	155,167	1461,059	1411,841
