DTS Sentinel unit serial number:	SN410029Multiplexer serial number:	ORYXHardware model number:	OX2-SRSoftware version number:	ORYX F/W v4,00 Oryx Data Collector v3.7.2.0data status	okinstallation	B4 Nyhavnadifferential loss correction	single-endedforward channel	channel 2reverse channel	N/Adate	2023/12/19time	12:05:13forward acquisition time	300,00reverse acquisition time	0,00gamma	499,1914k internal	0,3128k external	0,3128temperature offset calibration	1,0000default loss term (dB/km)	0,3820temperature slope calibration	1,0000multiplexer offset coefficient	1,0000multiplexer slope coefficient	1,0000fibre end	0,00T internal ref (°C)	19,66T ext. ref 1 (°C)	4,44T ext. ref 2 (°C)	4,40length (m)	temperature (°C)	Stokes	anti-Stokes-744,400	642,546	-0,091	-0,173
-743,385	-65,884	-0,295	0,087
-742,371	323,783	0,124	0,176
-741,356	-81,854	-0,255	0,062
-740,342	-75,794	0,096	-0,025
-739,327	-26,209	-0,197	0,086
-738,312	800,000	-0,021	0,059
-737,298	-77,900	-0,201	0,051
-736,283	196,289	0,146	-0,166
-735,269	-11,094	-0,176	0,086
-734,254	-62,023	0,049	0,015
-733,239	-100,971	-0,561	-0,101
-732,225	170,250	0,051	-0,054
-731,210	-200,000	0,019	-0,087
-730,196	-200,000	-0,026	-0,109
-729,181	445,225	-0,094	-0,155
-728,167	234,136	-0,045	-0,055
-727,152	-44,227	-0,055	-0,020
-726,137	-158,796	-0,166	0,007
-725,123	201,161	-0,102	-0,116
-724,108	442,844	-0,091	-0,148
-723,094	71,240	-0,115	-0,088
-722,079	0,833	0,090	-0,048
-721,064	-200,000	-0,002	0,012
-720,050	-200,000	-0,040	-0,166
-719,035	-200,000	-0,016	-0,091
-718,021	696,520	0,039	-0,077
-717,006	-17,805	-0,113	-0,053
-715,991	100,052	0,044	-0,038
-714,977	800,000	0,050	-0,151
-713,962	800,000	-0,025	0,054
-712,948	707,308	0,031	-0,062
-711,933	-200,000	0,001	-0,099
-710,918	292,173	-0,061	-0,082
-709,904	255,992	0,103	-0,132
-708,889	314,738	0,071	-0,099
-707,875	70,840	-0,109	-0,084
-706,860	261,176	0,037	-0,048
-705,845	526,616	0,018	0,032
-704,831	-7,370	0,061	-0,031
-703,816	497,808	0,052	-0,090
-702,802	-12,799	-0,018	0,009
-701,787	673,453	-0,033	-0,065
-700,772	-200,000	-0,019	-0,148
-699,758	111,895	0,028	-0,025
-698,743	800,000	0,032	0,096
-697,729	-45,344	0,066	-0,024
-696,714	-200,000	0,004	-0,114
-695,699	-200,000	-0,005	0,065
-694,685	-200,000	0,028	-0,099
-693,670	-125,707	-0,026	-0,003
-692,656	9,597	0,065	-0,037
-691,641	-200,000	0,004	0,064
-690,627	-42,289	0,104	0,039
-689,612	-115,736	0,024	-0,003
-688,597	-200,000	0,018	0,076
-687,583	800,000	0,028	-0,070
-686,568	478,479	-0,047	-0,079
-685,554	-41,107	-0,118	-0,045
-684,539	22,245	0,225	-0,136
-683,524	-200,000	0,014	0,066
-682,510	-200,000	-0,006	0,082
-681,495	100,268	-0,080	-0,069
-680,481	356,762	-0,080	-0,118
-679,466	-11,275	-0,092	-0,045
-678,451	-200,000	-0,043	-0,152
-677,437	82,774	-0,076	-0,061
-676,422	148,208	0,055	0,055
-675,408	225,662	-0,074	0,089
-674,393	204,954	0,102	-0,118
-673,378	-49,057	0,173	-0,061
-672,364	88,335	-0,137	0,113
-671,349	800,000	0,035	-0,098
-670,335	-87,427	0,072	-0,016
-669,320	-200,000	0,007	-0,036
-668,305	13,329	-0,008	0,005
-667,291	-200,000	0,015	-0,072
-666,276	180,790	-0,086	0,094
-665,262	-71,265	-0,152	-0,042
-664,247	54,772	-0,066	-0,047
-663,232	59,721	-0,095	0,069
-662,218	73,932	-0,109	0,085
-661,203	-19,005	-0,068	0,031
-660,189	40,949	0,101	-0,068
-659,174	-3,819	0,154	-0,079
-658,159	7,923	-0,088	-0,049
-657,145	-200,000	-0,039	-0,148
-656,130	48,398	-0,074	0,051
-655,116	216,670	-0,035	-0,042
-654,101	-200,000	-0,010	0,069
-653,086	-90,859	0,103	0,022
-652,072	800,000	-0,012	-0,035
-651,057	704,048	-0,057	-0,112
-650,043	-106,353	-0,094	0,015
-649,028	35,502	-0,062	-0,040
-648,014	13,216	0,038	0,022
-646,999	-103,708	0,010	-0,002
-645,984	201,168	-0,047	0,053
-644,970	-84,189	0,059	0,014
-643,955	-68,016	-0,177	-0,051
-642,941	18,110	-0,196	-0,115
-641,926	350,578	0,067	-0,098
-640,911	-96,992	0,085	0,016
-639,897	-200,000	-0,005	0,149
-638,882	-131,382	-0,101	-0,010
-637,868	-200,000	0,012	-0,046
-636,853	35,415	-0,092	-0,060
-635,838	-117,388	0,116	0,015
-634,824	800,000	0,025	0,061
-633,809	128,765	0,027	-0,025
-632,795	-200,000	0,010	-0,042
-631,780	-200,000	0,014	0,067
-630,765	203,226	-0,040	0,045
-629,751	260,494	-0,141	-0,181
-628,736	304,518	0,039	-0,054
-627,722	-200,000	0,009	-0,085
-626,707	80,038	-0,119	-0,095
-625,692	633,315	-0,026	0,048
-624,678	800,000	-0,019	-0,060
-623,663	-200,000	0,025	0,087
-622,649	210,309	-0,022	0,026
-621,634	800,000	-0,014	-0,029
-620,619	70,048	0,082	0,062
-619,605	-175,872	0,131	0,003
-618,590	12,965	-0,057	-0,033
-617,576	-150,936	-0,144	-0,008
-616,561	800,000	0,042	-0,114
-615,546	570,600	-0,090	0,162
-614,532	160,489	-0,066	0,069
-613,517	-191,046	-0,050	0,000
-612,503	277,744	-0,057	0,075
-611,488	-200,000	-0,128	-0,000
-610,474	747,927	-0,037	0,074
-609,459	800,000	-0,039	-0,084
-608,444	800,000	0,039	-0,114
-607,430	-200,000	-0,001	0,015
-606,415	-4,676	-0,055	-0,028
-605,401	16,401	0,056	-0,033
-604,386	388,652	0,051	0,078
-603,371	248,319	0,065	0,082
-602,357	-171,754	-0,114	0,003
-601,342	21,349	-0,069	0,041
-600,328	512,138	-0,046	0,079
-599,313	-19,494	-0,043	0,020
-598,298	593,788	-0,021	0,039
-597,284	-53,269	0,055	-0,019
-596,269	-200,000	-0,012	0,128
-595,255	-8,647	-0,084	0,042
-594,240	-28,238	-0,099	-0,042
-593,225	-200,000	0,026	0,130
-592,211	-120,126	-0,100	-0,013
-591,196	367,875	0,070	0,105
-590,182	279,815	-0,100	-0,133
-589,167	502,976	-0,068	0,116
-588,152	-79,913	-0,123	-0,030
-587,138	800,000	0,069	-0,155
-586,123	-24,463	-0,137	0,060
-585,109	-200,000	0,028	-0,119
-584,094	-200,000	-0,006	-0,102
-583,079	-123,725	-0,144	0,017
-582,065	-63,557	0,085	-0,026
-581,050	-166,719	0,110	0,003
-580,036	376,004	0,068	0,104
-579,021	-76,856	0,180	-0,046
-578,006	-19,363	-0,063	0,029
-576,992	333,034	-0,096	-0,138
-575,977	800,000	-0,012	0,027
-574,963	-200,000	0,004	0,073
-573,948	327,839	0,066	0,094
-572,934	800,000	-0,014	0,044
-571,919	-200,000	0,012	-0,092
-570,904	800,000	-0,031	-0,068
-569,890	800,000	-0,036	-0,115
-568,875	-109,486	-0,053	0,008
-567,861	155,386	0,006	-0,006
-566,846	471,232	-0,037	0,062
-565,831	-200,000	0,024	-0,128
-564,817	368,935	-0,106	-0,159
-563,802	462,593	0,028	-0,047
-562,788	-60,519	-0,031	-0,010
-561,773	587,608	0,092	-0,169
-560,758	-200,000	0,032	0,120
-559,744	11,817	0,036	-0,020
-558,729	414,905	-0,053	0,084
-557,715	364,315	0,029	0,044
-556,700	800,000	-0,033	-0,088
-555,685	800,000	-0,011	-0,029
-554,671	-13,415	-0,116	-0,055
-553,656	164,719	0,091	0,095
-552,642	169,148	0,153	-0,162
-551,627	-163,745	-0,069	-0,002
-550,612	-200,000	-0,014	0,047
-549,598	800,000	0,035	0,075
-548,583	794,318	-0,037	0,076
-547,569	297,398	0,063	-0,086
-546,554	-43,387	-0,028	0,010
-545,539	-45,007	0,080	-0,029
-544,525	119,778	-0,037	-0,034
-543,510	-200,000	-0,006	0,109
-542,496	800,000	-0,021	0,065
-541,481	-200,000	0,017	0,062
-540,466	800,000	0,019	0,057
-539,452	-200,000	0,025	0,086
-538,437	617,960	-0,024	-0,045
-537,423	-200,000	0,014	-0,077
-536,408	800,000	-0,033	0,094
-535,393	91,297	-0,036	-0,029
-534,379	125,475	-0,069	0,064
-533,364	-52,778	0,147	-0,050
-532,350	-39,956	0,107	0,041
-531,335	-200,000	-0,040	-0,132
-530,321	-200,000	0,025	0,130
-529,306	-200,000	0,025	-0,092
-528,291	-200,000	0,008	0,030
-527,277	-200,000	-0,030	-0,155
-526,262	-200,000	-0,024	-0,130
-525,248	12,449	-0,064	-0,036
-524,233	-156,998	0,089	-0,004
-523,218	-200,000	0,003	-0,049
-522,204	43,298	-0,046	0,031
-521,189	188,685	-0,121	0,134
-520,175	144,202	0,078	0,077
-519,160	800,000	-0,028	0,059
-518,145	-200,000	0,002	0,046
-517,131	93,199	0,079	0,066
-516,116	-174,606	-0,055	0,001
-515,102	-200,000	-0,029	0,228
-514,087	-105,456	0,035	0,006
-513,072	-47,244	-0,060	-0,021
-512,058	-200,000	0,008	-0,095
-511,043	130,839	-0,035	-0,033
-510,029	-200,000	-0,021	0,191
-509,014	146,018	0,101	0,100
-507,999	-200,000	0,002	-0,043
-506,985	-6,043	0,063	-0,032
-505,970	-200,000	0,021	-0,153
-504,956	-200,000	-0,031	0,161
-503,941	39,829	0,096	0,063
-502,926	-102,038	-0,051	-0,009
-501,912	226,025	0,071	0,085
-500,897	-87,504	-0,099	-0,022
-499,883	800,000	-0,028	0,063
-498,868	299,225	-0,073	-0,099
-497,853	255,314	-0,064	-0,081
-496,839	-200,000	-0,008	-0,060
-495,824	327,515	-0,038	0,053
-494,810	-200,000	0,016	0,076
-493,795	800,000	-0,041	0,121
-492,781	-180,976	-0,039	0,001
-491,766	800,000	-0,008	0,018
-490,751	-53,627	-0,051	-0,017
-489,737	-12,203	0,089	0,043
-488,722	481,281	0,061	0,102
-487,708	255,887	0,041	-0,052
-486,693	772,685	-0,056	0,114
-485,678	-20,200	0,065	0,029
-484,664	-113,316	-0,058	-0,008
-483,649	800,000	0,004	-0,012
-482,635	-38,352	0,048	-0,019
-481,620	800,000	0,028	0,080
-480,605	263,907	-0,043	0,055
-479,591	154,580	0,072	-0,073
-478,576	91,894	0,021	0,018
-477,562	-43,898	-0,123	0,045
-476,547	209,515	0,063	-0,073
-475,532	534,869	-0,021	-0,037
-474,518	-177,532	-0,057	0,001
-473,503	31,450	0,068	0,043
-472,489	236,903	-0,090	0,110
-471,474	202,803	0,086	0,098
-470,459	-200,000	0,009	-0,043
-469,445	-200,000	-0,001	0,132
-468,430	131,626	0,080	-0,076
-467,416	197,724	0,032	0,036
-466,401	-200,000	0,013	0,052
-465,386	-84,266	0,172	0,040
-464,372	57,317	-0,092	-0,066
-463,357	-200,000	0,010	-0,180
-462,343	-200,000	-0,040	-0,158
-461,328	-183,445	0,134	0,002
-460,313	160,806	0,062	0,063
-459,299	83,673	-0,050	0,040
-458,284	-195,267	-0,036	-0,000
-457,270	-200,000	-0,026	0,145
-456,255	800,000	0,037	-0,083
-455,241	-200,000	0,015	-0,124
-454,226	228,315	-0,018	0,021
-453,211	-86,162	0,155	-0,035
-452,197	-200,000	0,005	0,159
-451,182	10,152	-0,070	0,039
-450,168	-200,000	0,005	0,144
-449,153	6,011	-0,122	0,066
-448,138	-155,455	-0,051	0,002
-447,124	-68,229	-0,056	0,016
-446,109	-75,406	0,098	0,026
-445,095	-200,000	-0,009	0,128
-444,080	-200,000	-0,021	0,141
-443,065	-144,032	0,180	-0,012
-442,051	266,133	0,052	0,068
-441,036	-158,192	0,080	0,003
-440,022	57,951	-0,033	0,024
-439,007	230,546	-0,107	-0,129
-437,992	373,491	-0,065	0,097
-436,978	-66,137	0,075	0,022
-435,963	-71,183	0,109	-0,030
-434,949	-149,759	-0,088	-0,005
-433,934	-115,409	0,079	-0,011
-432,919	156,037	-0,072	-0,073
-431,905	800,000	0,028	-0,067
-430,890	516,750	0,099	-0,171
-429,876	105,126	0,052	0,045
-428,861	685,600	-0,014	-0,026
-427,846	-111,205	0,028	0,004
-426,832	-124,761	0,066	-0,007
-425,817	-200,000	-0,006	-0,133
-424,803	180,704	-0,040	0,043
-423,788	46,295	-0,088	-0,060
-422,773	85,574	0,048	-0,039
-421,759	69,759	-0,032	0,024
-420,744	-200,000	-0,005	-0,075
-419,730	800,000	-0,032	-0,092
-418,715	800,000	-0,007	0,015
-417,701	6,400	0,165	-0,090
-416,686	-200,000	0,013	-0,111
-415,671	-200,000	0,007	-0,103
-414,657	800,000	-0,028	0,057
-413,642	800,000	-0,019	-0,057
-412,628	49,292	-0,051	-0,035
-411,613	-200,000	-0,020	0,069
-410,598	-9,966	0,046	-0,022
-409,584	12,191	-0,119	0,067
-408,569	-31,443	-0,056	-0,023
-407,555	-200,000	0,027	0,102
-406,540	-106,150	-0,068	0,011
-405,525	181,605	-0,095	0,102
-404,511	453,675	-0,031	-0,051
-403,496	-37,830	0,108	0,042
-402,482	-34,710	0,054	-0,022
-401,467	-58,327	0,055	0,017
-400,452	800,000	0,009	-0,024
-399,438	-200,000	-0,021	-0,114
-398,423	-200,000	-0,019	-0,066
-397,409	-200,000	-0,015	-0,138
-396,394	800,000	0,037	-0,100
-395,379	800,000	0,039	-0,087
-394,365	-0,210	0,133	0,069
-393,350	800,000	-0,033	0,071
-392,336	50,032	0,083	0,058
-391,321	154,868	-0,055	0,056
-390,306	800,000	-0,049	-0,110
-389,292	-62,646	-0,107	0,032
-388,277	-113,096	-0,106	-0,015
-387,263	800,000	0,034	0,088
-386,248	410,800	-0,016	-0,025
-385,233	-132,875	0,132	0,012
-384,219	-200,000	0,010	-0,078
-383,204	-90,269	-0,045	0,010
-382,190	93,851	-0,047	-0,039
-381,175	473,059	0,084	0,140
-380,160	769,236	-0,029	0,058
-379,146	-200,000	-0,024	0,128
-378,131	-62,282	0,059	0,018
-377,117	-110,175	0,088	-0,013
-376,102	-61,341	-0,089	0,027
-375,088	62,356	-0,112	-0,082
-374,073	-200,000	-0,042	-0,187
-373,058	-43,923	-0,078	-0,029
-372,044	-109,003	0,130	-0,020
-371,029	-12,219	0,090	0,043
-370,015	800,000	-0,058	0,138
-369,000	264,447	-0,070	-0,090
-367,985	-97,362	-0,035	-0,007
-366,971	-71,041	0,138	0,038
-365,956	-200,000	0,005	-0,046
-364,942	-82,243	-0,044	-0,010
-363,927	-176,979	0,045	-0,001
-362,912	51,206	-0,016	0,011
-361,898	-200,000	0,005	-0,023
-360,883	-200,000	0,023	-0,082
-359,869	-200,000	0,002	-0,014
-358,854	-66,988	-0,018	0,005
-357,839	-200,000	0,010	0,170
-356,825	0,324	0,032	0,016
-355,810	296,915	0,039	0,053
-354,796	222,851	0,057	-0,068
-353,781	6,085	-0,105	-0,057
-352,766	166,505	-0,022	0,022
-351,752	-140,494	0,180	0,014
-350,737	-200,000	0,002	-0,008
-349,723	-116,416	0,046	0,006
-348,708	52,546	-0,063	-0,044
-347,693	366,282	0,020	-0,030
-346,679	72,827	-0,098	-0,075
-345,664	-9,561	0,092	0,045
-344,650	554,220	0,016	0,028
-343,635	134,442	0,098	-0,093
-342,620	-91,213	-0,068	-0,014
-341,606	146,255	0,059	0,058
-340,591	800,000	-0,043	-0,123
-339,577	-200,000	-0,021	0,080
-338,562	-142,121	-0,126	-0,009
-337,548	-55,244	-0,138	-0,045
-336,533	-57,960	0,083	-0,026
-335,518	199,798	0,082	0,092
-334,504	-54,075	-0,080	0,026
-333,489	800,000	-0,030	-0,066
-332,475	-200,000	0,023	-0,104
-331,460	159,219	-0,088	-0,090
-330,445	800,000	0,036	-0,101
-329,431	-200,000	0,007	-0,052
-328,416	-39,901	0,122	0,046
-327,402	-200,000	-0,024	0,128
-326,387	26,927	0,078	0,048
-325,372	77,800	-0,047	-0,037
-324,358	-139,954	-0,092	-0,007
-323,343	-40,167	-0,033	-0,013
-322,329	-51,165	0,059	0,020
-321,314	-200,000	-0,004	0,040
-320,299	-3,167	0,108	0,055
-319,285	31,278	0,061	0,038
-318,270	-113,522	0,150	-0,021
-317,256	-200,000	0,029	-0,153
-316,241	800,000	0,023	0,065
-315,226	324,059	-0,069	-0,096
-314,212	800,000	-0,018	-0,052
-313,197	800,000	0,045	0,128
-312,183	-141,869	0,059	0,004
-311,168	-200,000	-0,005	-0,064
-310,153	73,100	0,062	0,047
-309,139	-200,000	0,015	0,083
-308,124	24,661	0,062	0,037
-307,110	-200,000	0,004	0,026
-306,095	-200,000	0,008	0,071
-305,080	-90,832	-0,030	0,006
-304,066	292,595	-0,110	-0,147
-303,051	-98,502	0,032	-0,006
-302,037	21,833	-0,031	0,018
-301,022	-172,636	0,070	-0,002
-300,008	-37,511	-0,034	-0,013
-298,993	54,066	-0,025	-0,018
-297,978	265,881	-0,044	-0,057
-296,964	420,586	-0,076	-0,120
-295,949	-14,891	0,058	0,027
-294,935	-97,181	0,064	-0,012
-293,920	-181,572	-0,048	0,001
-292,905	135,318	-0,032	-0,030
-291,891	-200,000	0,029	-0,104
-290,876	371,399	0,054	0,080
-289,862	-200,000	-0,010	0,080
-288,847	152,652	-0,096	0,096
-287,832	-200,000	-0,007	-0,036
-286,818	-200,000	-0,040	-0,161
-285,803	-0,630	-0,030	-0,015
-284,789	-57,128	-0,167	0,054
-283,774	22,378	0,041	-0,024
-282,759	52,619	-0,013	-0,009
-281,745	-75,747	0,084	0,022
-280,730	129,084	-0,110	-0,103
-279,716	40,141	0,121	-0,079
-278,701	-197,094	0,107	-0,000
-277,686	171,294	0,077	0,081
-276,672	305,022	0,052	-0,071
-275,657	-200,000	-0,007	-0,049
-274,643	-200,000	-0,039	-0,138
-273,628	99,111	0,046	0,039
-272,613	-22,329	-0,034	0,015
-271,599	-200,000	0,005	0,244
-270,584	-145,762	-0,131	0,008
-269,570	-69,611	0,177	0,049
-268,555	35,387	-0,071	-0,045
-267,540	-200,000	-0,011	-0,124
-266,526	-81,058	-0,109	0,026
-265,511	-200,000	0,030	0,152
-264,497	139,976	-0,092	0,089
-263,482	12,409	0,101	0,056
-262,467	85,432	0,102	0,081
-261,453	-99,990	0,014	-0,003
-260,438	800,000	-0,017	-0,048
-259,424	-200,000	0,006	0,039
-258,409	-200,000	-0,018	-0,066
-257,395	800,000	0,005	-0,014
-256,380	386,354	-0,067	0,101
-255,365	148,398	0,125	0,124
-254,351	61,268	-0,060	0,044
-253,336	-200,000	-0,011	-0,039
-252,322	198,075	0,006	0,006
-251,307	146,648	-0,026	-0,026
-250,292	-200,000	-0,005	0,213
-249,278	-68,028	0,115	-0,032
-248,263	229,346	0,034	0,040
-247,249	-84,922	0,154	-0,035
-246,234	-200,000	0,001	-0,045
-245,219	-48,328	-0,081	0,028
-244,205	800,000	-0,019	0,060
-243,190	-16,448	-0,083	0,038
-242,176	289,856	0,075	0,099
-241,161	-200,000	0,038	-0,140
-240,146	151,156	-0,072	-0,072
-239,132	750,913	0,040	-0,079
-238,117	-96,629	-0,073	-0,014
-237,103	-4,791	0,096	0,048
-236,088	-155,674	-0,034	-0,002
-235,073	-16,981	-0,054	0,025
-234,059	575,393	-0,042	0,075
-233,044	100,503	-0,133	0,112
-232,030	437,315	-0,076	0,121
-231,015	-23,359	0,115	0,050
-230,000	13,854	-0,159	-0,090
-228,986	-195,636	-0,046	0,000
-227,971	-200,000	-0,005	-0,151
-226,957	-200,000	0,010	0,078
-225,942	203,113	-0,050	-0,056
-224,927	118,810	-0,017	-0,015
-223,913	-200,000	-0,005	0,064
-222,898	-142,315	-0,175	-0,012
-221,884	138,202	0,117	-0,112
-220,869	800,000	0,011	-0,029
-219,855	377,600	-0,027	0,040
-218,840	-200,000	0,006	0,112
-217,825	4,327	0,018	0,009
-216,811	145,708	-0,070	-0,068
-215,796	800,000	0,035	-0,103
-214,782	325,049	-0,089	-0,124
-213,767	-76,150	0,048	0,012
-212,752	93,460	-0,057	0,047
-211,738	-200,000	0,004	-0,023
-210,723	261,586	-0,066	0,083
-209,709	-150,164	0,114	0,006
-208,694	596,083	-0,031	-0,057
-207,679	800,000	-0,069	-0,153
-206,665	181,186	0,043	-0,046
-205,650	467,251	0,016	0,026
-204,636	31,844	0,124	-0,078
-203,621	36,132	0,026	-0,017
-202,606	44,749	0,086	0,058
-201,592	-200,000	0,011	0,099
-200,577	800,000	0,029	-0,079
-199,563	-76,977	-0,046	-0,012
-198,548	-27,568	0,101	0,042
-197,533	-50,439	0,038	0,013
-196,519	-35,030	0,035	0,014
-195,504	-37,319	0,193	0,075
-194,490	159,562	-0,070	-0,071
-193,475	-200,000	-0,016	-0,270
-192,460	140,194	0,071	0,069
-191,446	413,068	-0,069	0,107
-190,431	-200,000	-0,006	0,101
-189,417	800,000	-0,015	-0,039
-188,402	687,040	-0,019	-0,037
-187,387	136,754	0,122	-0,116
-186,373	-87,228	-0,035	-0,008
-185,358	-200,000	-0,005	-0,097
-184,344	206,278	-0,070	-0,079
-183,329	106,246	0,061	-0,053
-182,315	-200,000	-0,015	0,126
-181,300	-200,000	0,022	0,118
-180,285	800,000	-0,029	0,060
-179,271	-200,000	-0,002	0,074
-178,256	-67,488	-0,048	0,014
-177,242	10,515	0,093	0,052
-176,227	800,000	-0,025	-0,064
-175,212	-200,000	-0,007	0,050
-174,198	339,223	-0,037	-0,053
-173,183	-200,000	-0,039	-0,199
-172,169	121,793	0,090	-0,082
-171,154	-200,000	0,006	0,086
-170,139	-200,000	-0,003	-0,023
-169,125	378,483	0,075	0,111
-168,110	31,006	-0,016	-0,010
-167,096	163,608	0,032	0,033
-166,081	-200,000	0,015	-0,102
-165,066	800,000	0,038	-0,120
-164,052	-200,000	-0,013	-0,072
-163,037	-156,647	0,077	0,003
-162,023	498,272	0,091	0,154
-161,008	800,000	-0,073	0,156
-159,993	637,627	0,077	-0,143
-158,979	-200,000	0,014	-0,050
-157,964	32,550	-0,083	-0,052
-156,950	12,446	0,088	-0,049
-155,935	329,685	-0,058	0,081
-154,920	-200,000	-0,019	0,148
-153,906	585,638	0,051	0,091
-152,891	800,000	0,051	-0,117
-151,877	123,496	-0,050	0,046
-150,862	-200,000	0,004	0,013
-149,847	15,930	0,108	-0,062
-148,833	306,480	-0,045	-0,061
-147,818	800,000	0,018	-0,037
-146,804	-200,000	0,009	0,032
-145,789	170,874	-0,088	0,091
-144,775	-101,051	0,122	-0,022
-143,760	-77,596	-0,111	-0,028
-142,745	36,355	-0,080	-0,051
-141,731	100,797	0,065	0,055
-140,716	-12,377	0,069	0,033
-139,702	64,863	0,140	0,103
-138,687	-200,000	-0,027	0,095
-137,672	419,595	-0,033	-0,052
-136,658	203,468	-0,067	-0,076
-135,643	174,589	0,097	-0,102
-134,629	236,461	0,092	0,111
-133,614	281,054	0,009	0,012
-132,599	-77,511	-0,023	0,006
-131,585	-200,000	0,006	0,084
-130,570	-16,418	-0,043	-0,020
-129,556	-176,971	0,041	-0,001
-128,541	-20,985	-0,062	0,028
-127,526	320,733	-0,072	0,100
-126,512	-133,001	0,034	-0,003
-125,497	-194,305	0,109	-0,001
-124,483	466,983	-0,046	-0,075
-123,468	800,000	0,011	0,030
-122,453	-121,161	-0,173	0,021
-121,439	-38,232	-0,108	-0,041
-120,424	-200,000	0,058	-0,187
-119,410	-192,109	0,099	0,001
-118,395	-26,051	0,057	-0,024
-117,380	142,402	0,073	-0,071
-116,366	-163,319	0,151	0,005
-115,351	436,440	-0,057	-0,091
-114,337	9,513	-0,127	0,070
-113,322	-7,913	0,002	0,001
-112,307	352,375	0,057	0,082
-111,293	800,000	-0,026	-0,075
-110,278	371,049	0,065	0,097
-109,264	24,894	-0,049	-0,029
-108,249	800,000	-0,009	0,020
-107,234	-36,047	0,137	0,053
-106,220	-174,844	-0,068	-0,001
-105,205	800,000	0,070	-0,209
-104,191	-138,774	0,115	0,009
-103,176	800,000	-0,022	0,070
-102,162	-200,000	0,017	0,073
-101,147	-32,750	-0,078	-0,032
-100,132	-13,281	-0,091	0,043
-99,118	248,680	-0,064	0,078
-98,103	800,000	-0,025	0,057
-97,089	144,141	0,033	0,032
-96,074	54,263	0,038	0,027
-95,059	114,859	0,085	0,075
-94,045	-200,000	0,011	0,071
-93,030	72,476	-0,044	-0,033
-92,016	65,324	-0,039	0,029
-91,001	584,589	0,033	-0,059
-89,986	800,000	0,029	0,063
-88,972	-200,000	-0,003	-0,117
-87,957	-109,408	0,031	0,005
-86,943	-84,915	0,068	-0,015
-85,928	-200,000	-0,037	-0,137
-84,913	-200,000	-0,007	-0,049
-83,899	-29,021	-0,129	-0,053
-82,884	24,080	-0,082	-0,049
-81,870	-155,101	0,232	0,011
-80,855	-93,111	0,050	0,010
-79,840	-200,000	-0,017	-0,120
-78,826	-118,103	0,058	0,007
-77,811	162,182	-0,105	-0,107
-76,797	655,553	0,046	-0,085
-75,782	-56,517	0,075	0,024
-74,767	-200,000	-0,002	0,034
-73,753	-200,000	-0,016	0,166
-72,738	24,753	0,121	-0,072
-71,724	382,787	-0,028	-0,042
-70,709	800,000	0,050	0,138
-69,694	520,893	-0,072	-0,123
-68,680	431,655	-0,059	0,093
-67,665	800,000	0,069	0,191
-66,651	56,477	-0,139	0,098
-65,636	-154,460	-0,123	0,006
-64,622	212,449	0,018	0,021
-63,607	-200,000	-0,005	0,055
-62,592	-128,790	-0,054	0,005
-61,578	-153,953	0,146	0,007
-60,563	364,993	0,090	0,132
-59,549	-200,000	0,034	0,136
-58,534	-69,402	-1,523	-0,421
-57,519	800,000	-0,564	-1,399
-56,505	-200,000	-0,909	-4,564
-55,490	-94,762	0,478	0,093
-54,476	800,000	5,065	11,704
-53,461	-200,000	15,085	266,222
-52,446	-200,000	695,750	2240,569
-51,432	585,647	1616,711	2891,702
-50,417	120,941	1625,337	1464,778
-49,403	82,890	1281,868	1008,933
-48,388	37,704	1021,783	655,916
-47,373	22,373	982,758	580,415
-46,359	21,367	971,751	570,589
-45,344	19,880	967,521	563,219
-44,330	19,972	966,206	562,733
-43,315	19,724	964,561	560,943
-42,300	19,703	963,473	560,217
-41,286	19,718	962,613	559,745
-40,271	19,699	961,613	559,078
-39,257	19,725	960,703	558,613
-38,242	19,718	960,084	558,208
-37,227	19,747	958,945	557,618
-36,213	19,643	958,235	556,847
-35,198	19,636	957,409	556,322
-34,184	19,753	956,578	556,196
-33,169	19,672	955,614	555,350
-32,154	19,792	954,689	555,177
-31,140	19,705	953,910	554,423
-30,125	19,704	953,208	553,988
-29,111	19,726	952,142	553,420
-28,096	19,678	951,665	552,964
-27,082	19,665	951,033	552,534
-26,067	19,657	950,136	551,964
-25,052	19,708	949,422	551,691
-24,038	19,717	948,688	551,272
-23,023	19,626	948,291	550,729
-22,009	19,722	947,400	550,495
-20,994	19,724	946,726	550,090
-19,979	19,702	946,132	549,652
-18,965	19,716	945,397	549,247
-17,950	19,679	945,043	548,901
-16,936	19,669	944,224	548,373
-15,921	19,687	943,638	548,069
-14,906	19,552	942,966	547,225
-13,892	19,546	942,336	546,818
-12,877	19,547	941,608	546,379
-11,863	19,564	941,022	546,069
-10,848	19,549	940,569	545,738
-9,833	19,679	940,090	545,853
-8,819	19,618	939,423	545,249
-7,804	19,592	938,860	544,819
-6,790	19,514	938,357	544,256
-5,775	19,638	937,646	544,216
-4,760	19,597	936,928	543,648
-3,746	19,592	936,404	543,306
-2,731	19,479	935,641	542,483
-1,717	19,407	935,023	541,879
-0,702	19,359	934,396	541,342
0,313	19,192	933,813	541,294
1,327	21,577	931,388	547,352
2,342	28,565	806,108	492,635
3,356	22,755	506,329	299,515
4,371	-0,808	373,468	190,903
5,386	-3,661	356,819	178,871
6,400	-4,794	350,930	174,533
7,415	-5,227	348,462	172,770
8,429	-5,053	347,052	172,264
9,444	-5,231	346,205	171,616
10,459	-5,071	345,368	171,376
11,473	-5,094	344,686	170,994
12,488	-5,058	344,306	170,834
13,502	-5,156	343,838	170,470
14,517	-5,040	343,196	170,274
15,531	-5,006	342,739	170,072
16,546	-5,051	342,387	169,829
17,561	-5,004	341,837	169,596
18,575	-4,892	341,562	169,577
19,590	-5,003	341,248	169,276
20,604	-4,896	340,659	169,093
21,619	-5,074	340,468	168,775
22,634	-4,985	340,120	168,691
23,648	-4,986	339,547	168,391
24,663	-5,010	339,304	168,227
25,677	-5,093	339,106	168,017
26,692	-5,094	338,961	167,929
27,707	-4,853	338,492	167,963
28,721	-4,920	338,166	167,708
29,736	-4,872	337,695	167,515
30,750	-5,006	337,548	167,272
31,765	-4,899	337,227	167,222
32,780	-5,099	337,031	166,878
33,794	-5,023	336,758	166,817
34,809	-4,940	336,608	166,823
35,823	-5,019	336,064	166,447
36,838	-5,046	335,994	166,366
37,853	-5,048	335,600	166,155
38,867	-5,038	335,294	165,999
39,882	-4,857	334,863	165,979
40,896	-5,030	334,801	165,735
41,911	-4,912	334,438	165,676
42,926	-4,990	334,410	165,558
43,940	-4,914	333,773	165,315
44,955	-4,904	333,531	165,192
45,969	-4,923	333,413	165,097
46,984	-4,930	333,270	165,004
47,999	-4,919	333,047	164,891
49,013	-4,975	332,707	164,644
50,028	-4,936	332,385	164,514
51,042	-4,918	332,149	164,403
52,057	-4,955	331,897	164,222
53,071	-4,865	331,688	164,206
54,086	-4,883	331,245	163,951
55,101	-4,960	331,270	163,861
56,115	-4,926	330,886	163,696
57,130	-4,927	330,497	163,489
58,144	-5,140	330,482	163,224
59,159	-5,038	330,070	163,122
60,174	-4,998	329,750	162,995
61,188	-4,990	329,494	162,863
62,203	-4,959	329,281	162,777
63,217	-5,126	329,123	162,496
64,232	-5,034	328,873	162,462
65,247	-4,984	328,597	162,368
66,261	-5,034	328,229	162,116
67,276	-4,940	327,987	162,087
68,290	-5,052	327,697	161,803
69,305	-4,949	327,400	161,758
70,320	-4,949	327,244	161,666
71,334	-5,004	327,128	161,533
72,349	-5,014	326,770	161,330
73,363	-4,938	326,350	161,194
74,378	-5,017	326,236	161,035
75,393	-4,945	325,890	160,930
76,407	-4,954	325,686	160,805
77,422	-5,064	325,471	160,562
78,436	-4,857	325,162	160,625
79,451	-4,947	324,986	160,424
80,466	-4,942	324,697	160,273
81,480	-5,043	324,351	159,976
82,495	-4,953	324,179	159,976
83,509	-4,980	324,153	159,919
84,524	-4,940	323,862	159,806
85,539	-4,948	323,530	159,619
86,553	-4,869	323,328	159,592
87,568	-4,946	322,944	159,303
88,582	-5,047	322,712	159,064
89,597	-4,922	322,539	159,102
90,611	-4,938	322,369	158,986
91,626	-4,917	322,071	158,847
92,641	-4,943	321,836	158,690
93,655	-5,020	321,755	158,551
94,670	-4,941	321,343	158,420
95,684	-5,021	321,155	158,225
96,699	-4,822	320,761	158,235
97,714	-4,980	320,629	157,983
98,728	-4,771	320,397	158,083
99,743	-4,882	320,242	157,871
100,757	-4,913	320,047	157,728
101,772	-4,957	319,596	157,444
102,787	-4,809	319,468	157,528
103,801	-4,882	319,159	157,281
104,816	-4,947	318,988	157,113
105,830	-4,774	318,736	157,163
106,845	-4,974	318,367	156,749
107,860	-4,972	318,247	156,678
108,874	-4,867	317,938	156,626
109,889	-4,911	317,758	156,476
110,903	-5,015	317,374	156,160
111,918	-5,037	317,451	156,160
112,933	-4,882	317,061	156,122
113,947	-4,991	316,890	155,906
114,962	-4,854	316,733	155,963
115,976	-4,987	316,499	155,690
116,991	-5,013	316,139	155,471
118,006	-5,046	316,054	155,380
119,020	-4,992	315,935	155,366
120,035	-4,858	315,643	155,353
121,049	-4,997	315,592	155,164
122,064	-4,937	315,288	155,065
123,079	-4,888	314,887	154,907
124,093	-4,922	314,717	154,773
125,108	-4,946	314,463	154,609
126,122	-4,820	314,267	154,633
127,137	-4,824	313,977	154,472
128,151	-4,777	313,877	154,460
129,166	-4,821	313,614	154,270
130,181	-4,841	313,413	154,135
131,195	-4,859	313,096	153,946
132,210	-4,965	312,962	153,754
133,224	-5,076	312,740	153,513
134,239	-4,960	312,464	153,488
135,254	-4,899	312,249	153,433
136,268	-4,971	311,980	153,210
137,283	-5,026	311,806	153,053
138,297	-5,008	311,535	152,926
139,312	-4,758	311,287	153,055
140,327	-4,883	311,140	152,837
141,341	-4,919	310,960	152,696
142,356	-4,905	310,696	152,568
143,370	-4,946	310,325	152,330
144,385	-4,979	310,112	152,176
145,400	-4,879	310,053	152,239
146,414	-4,979	309,690	151,942
147,429	-4,937	309,569	151,914
148,443	-4,832	309,163	151,811
149,458	-4,853	309,040	151,715
150,473	-4,848	308,830	151,604
151,487	-4,943	308,579	151,368
152,502	-4,739	308,516	151,537
153,516	-4,860	308,106	151,195
154,531	-4,926	307,890	151,007
155,546	-4,927	307,816	150,956
156,560	-5,038	307,729	150,784
157,575	-4,912	307,482	150,780
158,589	-4,929	307,229	150,625
159,604	-4,871	306,904	150,513
160,619	-4,813	306,726	150,473
161,633	-4,778	306,581	150,425
162,648	-4,831	306,397	150,266
163,662	-4,951	306,253	150,057
164,677	-4,997	306,059	149,901
165,692	-4,910	305,658	149,781
166,706	-4,889	305,538	149,731
167,721	-4,732	305,244	149,737
168,735	-4,921	305,321	149,565
169,750	-4,813	304,909	149,462
170,764	-4,990	304,832	149,227
171,779	-4,843	304,594	149,249
172,794	-4,839	304,353	149,122
173,808	-4,790	304,109	149,040
174,823	-4,740	303,900	148,976
175,837	-5,047	303,793	148,593
176,852	-4,884	303,431	148,571
177,867	-4,975	303,290	148,395
178,881	-4,805	303,074	148,451
179,896	-4,764	302,939	148,414
180,910	-4,922	302,701	148,121
181,925	-4,791	302,484	148,137
182,940	-4,852	302,318	147,980
183,954	-4,771	302,067	147,927
184,969	-4,787	301,954	147,841
185,983	-4,886	301,704	147,605
186,998	-4,683	301,387	147,644
188,013	-4,846	301,244	147,394
189,027	-4,898	301,084	147,250
190,042	-4,828	300,804	147,171
191,056	-4,870	300,548	146,990
192,071	-4,845	300,367	146,914
193,086	-4,924	300,186	146,732
194,100	-4,810	299,875	146,683
195,115	-4,699	299,708	146,701
196,129	-4,737	299,495	146,545
197,144	-4,886	299,412	146,340
198,159	-4,944	299,072	146,101
199,173	-4,828	298,976	146,160
200,188	-4,874	298,609	145,920
201,202	-4,972	298,417	145,714
202,217	-4,993	298,282	145,615
203,232	-4,868	298,059	145,619
204,246	-4,877	297,854	145,497
205,261	-4,949	297,607	145,291
206,275	-4,867	297,534	145,325
207,290	-4,789	297,260	145,256
208,304	-4,889	297,100	145,064
209,319	-4,616	296,716	145,138
210,334	-4,761	296,423	144,836
211,348	-4,822	296,519	144,809
212,363	-4,790	296,262	144,703
213,377	-4,757	295,988	144,589
214,392	-4,866	295,838	144,393
215,407	-4,746	295,518	144,345
216,421	-4,807	295,508	144,266
217,436	-4,780	295,197	144,128
218,450	-4,830	294,983	143,961
219,465	-4,824	294,800	143,864
220,480	-4,909	294,735	143,735
221,494	-4,869	294,601	143,697
222,509	-4,827	294,338	143,598
223,523	-4,870	294,122	143,437
224,538	-4,940	294,015	143,303
225,553	-4,790	293,778	143,323
226,567	-4,749	293,422	143,177
227,582	-4,746	293,372	143,143
228,596	-4,727	293,314	143,121
229,611	-5,006	293,016	142,687
230,626	-4,946	292,776	142,616
231,640	-4,879	292,559	142,563
232,655	-4,759	292,307	142,547
233,669	-4,847	292,223	142,407
234,684	-4,809	291,957	142,301
235,699	-4,751	291,743	142,242
236,713	-4,810	291,680	142,140
237,728	-4,728	291,447	142,095
238,742	-4,675	291,035	141,933
239,757	-4,775	290,785	141,701
240,772	-4,693	290,756	141,754
241,786	-4,721	290,583	141,630
242,801	-4,740	290,403	141,510
243,815	-4,894	290,241	141,268
244,830	-4,888	290,123	141,204
245,844	-4,871	289,945	141,122
246,859	-4,819	289,628	141,006
247,874	-4,870	289,344	140,805
248,888	-4,798	289,320	140,852
249,903	-4,760	289,174	140,805
250,917	-4,872	288,873	140,536
251,932	-4,867	288,741	140,465
252,947	-5,007	288,181	140,043
253,961	-5,439	288,012	139,529
254,976	-5,820	287,642	138,967
255,990	-5,452	287,646	139,314
257,005	-3,719	288,178	141,243
258,020	-1,410	289,056	143,909
259,034	0,114	289,202	145,451
260,049	0,472	289,392	145,881
261,063	0,898	289,353	146,263
262,078	1,095	289,292	146,411
263,093	1,550	289,217	146,801
264,107	1,685	289,201	146,911
265,122	1,839	289,027	146,959
266,136	1,751	288,975	146,835
267,151	2,013	288,739	146,955
268,166	2,054	288,529	146,875
269,180	1,971	288,396	146,715
270,195	2,040	288,206	146,672
271,209	2,045	288,105	146,612
272,224	1,867	287,816	146,280
273,239	1,980	287,498	146,214
274,253	1,904	287,355	146,055
275,268	1,781	287,240	145,865
276,282	1,686	286,972	145,625
277,297	1,785	286,753	145,596
278,312	1,866	286,657	145,611
279,326	1,947	286,439	145,565
280,341	1,996	286,258	145,507
281,355	1,893	286,063	145,297
282,370	1,914	285,806	145,173
283,384	1,902	285,499	144,993
284,399	1,754	285,463	144,820
285,414	1,924	285,181	144,826
286,428	1,802	285,070	144,641
287,443	1,741	284,788	144,427
288,457	1,729	284,718	144,367
289,472	1,765	284,556	144,306
290,487	1,824	284,316	144,228
291,501	1,681	284,151	143,996
292,516	1,510	283,915	143,701
293,530	1,572	283,667	143,621
294,545	1,865	283,410	143,755
295,560	1,492	283,482	143,426
296,574	1,764	283,143	143,500
297,589	1,741	282,926	143,354
298,603	1,563	282,770	143,095
299,618	1,701	282,538	143,095
300,633	1,580	282,505	142,951
301,647	1,842	282,486	143,176
302,662	1,899	282,127	143,035
303,676	1,751	282,045	142,841
304,691	1,780	281,799	142,732
305,706	1,699	281,681	142,582
306,720	1,890	281,463	142,640
307,735	2,024	281,205	142,621
308,749	1,935	281,040	142,441
309,764	1,872	280,862	142,279
310,779	2,035	280,715	142,345
311,793	1,807	280,436	141,978
312,808	1,761	280,210	141,806
313,822	1,724	280,196	141,753
314,837	1,727	280,054	141,672
315,852	1,847	279,784	141,634
316,866	1,873	279,710	141,608
317,881	1,707	279,484	141,326
318,895	1,766	279,252	141,251
319,910	1,852	278,931	141,156
320,925	1,900	278,926	141,186
321,939	1,860	278,640	140,992
322,954	1,788	278,763	140,974
323,968	2,130	278,225	141,007
324,983	1,969	278,154	140,809
325,997	1,961	278,055	140,739
327,012	1,865	277,898	140,558
328,027	1,836	277,645	140,390
329,041	2,006	277,518	140,471
330,056	1,968	277,389	140,358
331,070	1,859	277,131	140,114
332,085	2,012	276,792	140,072
333,100	1,840	276,737	139,873
334,114	2,072	276,557	139,984
335,129	1,813	276,361	139,633
336,143	2,117	276,037	139,736
337,158	1,817	275,993	139,425
338,173	2,009	275,912	139,550
339,187	1,915	275,660	139,322
340,202	1,887	275,460	139,183
341,216	1,823	275,254	139,009
342,231	1,798	275,133	138,912
343,246	1,916	274,905	138,892
344,260	2,018	274,862	138,951
345,275	1,936	274,743	138,805
346,289	1,987	274,416	138,673
347,304	1,965	274,238	138,551
348,319	1,870	274,115	138,389
349,333	1,958	273,983	138,391
350,348	1,947	273,786	138,269
351,362	1,853	273,656	138,105
352,377	2,029	273,565	138,207
353,392	2,016	273,319	138,060
354,406	2,007	273,214	137,986
355,421	191,534	1346,187	1424,792
356,435	154,672	1476,964	1424,881
