DTS Sentinel unit serial number:	SN410029Multiplexer serial number:	ORYXHardware model number:	OX2-SRSoftware version number:	ORYX F/W v4,00 Oryx Data Collector v3.7.2.0data status	okinstallation	B4 Nyhavnadifferential loss correction	single-endedforward channel	channel 2reverse channel	N/Adate	2023/12/19time	14:15:13forward acquisition time	300,00reverse acquisition time	0,00gamma	499,1914k internal	0,3128k external	0,3128temperature offset calibration	1,0000default loss term (dB/km)	0,3820temperature slope calibration	1,0000multiplexer offset coefficient	1,0000multiplexer slope coefficient	1,0000fibre end	0,00T internal ref (°C)	19,37T ext. ref 1 (°C)	4,59T ext. ref 2 (°C)	4,58length (m)	temperature (°C)	Stokes	anti-Stokes-744,400	800,000	-0,012	0,032
-743,385	104,933	-0,174	0,153
-742,371	17,041	0,173	-0,102
-741,356	26,804	-0,224	0,139
-740,342	-34,918	-0,032	-0,013
-739,327	-105,315	-0,282	0,047
-738,312	-156,685	0,211	0,010
-737,298	-93,083	-0,368	0,076
-736,283	-200,000	-0,005	-0,083
-735,269	-138,185	-0,286	0,023
-734,254	800,000	-0,026	-0,070
-733,239	-54,073	-0,366	-0,123
-732,225	-200,000	0,011	0,052
-731,210	-160,464	0,140	-0,005
-730,196	216,535	-0,081	0,096
-729,181	-127,243	-0,132	0,014
-728,167	-9,400	-0,136	0,067
-727,152	315,532	-0,120	0,169
-726,137	246,912	0,075	-0,094
-725,123	244,356	-0,101	0,126
-724,108	800,000	0,026	-0,083
-723,094	-104,869	-0,125	0,021
-722,079	-200,000	0,020	-0,168
-721,064	5,194	0,123	-0,067
-720,050	216,771	-0,039	-0,047
-719,035	481,756	0,019	-0,032
-718,021	-78,854	-0,121	0,030
-717,006	292,678	-0,053	-0,072
-715,991	-200,000	-0,046	0,000
-714,977	-200,000	-0,002	0,100
-713,962	-200,000	0,016	-0,105
-712,948	-200,000	-0,007	-0,042
-711,933	123,183	-0,025	0,024
-710,918	-33,142	-0,026	0,011
-709,904	-16,909	0,020	-0,010
-708,889	-200,000	-0,007	-0,139
-707,875	321,197	-0,055	0,078
-706,860	-101,113	-0,107	0,019
-705,845	800,000	-0,006	0,018
-704,831	158,314	0,015	0,015
-703,816	-200,000	0,038	-0,177
-702,802	800,000	-0,023	-0,053
-701,787	24,500	-0,093	-0,057
-700,772	800,000	0,031	-0,075
-699,758	-151,736	-0,068	-0,004
-698,743	800,000	0,043	-0,095
-697,729	53,202	0,052	0,037
-696,714	-131,160	0,101	0,010
-695,699	800,000	-0,043	-0,110
-694,685	-75,671	0,070	0,018
-693,670	328,259	-0,025	-0,036
-692,656	800,000	-0,040	-0,084
-691,641	-200,000	0,045	0,163
-690,627	-161,256	0,060	0,002
-689,612	-50,088	0,028	0,010
-688,597	403,840	-0,022	-0,034
-687,583	-27,184	-0,208	-0,089
-686,568	56,544	-0,191	0,138
-685,554	-61,838	0,083	-0,026
-684,539	800,000	-0,035	-0,101
-683,524	-156,204	0,035	-0,002
-682,510	426,788	-0,038	0,061
-681,495	-102,141	0,045	0,008
-680,481	-200,000	-0,013	-0,078
-679,466	172,824	-0,128	-0,137
-678,451	-99,446	-0,140	-0,026
-677,437	172,808	0,039	0,042
-676,422	528,707	-0,020	-0,036
-675,408	29,321	-0,049	0,031
-674,393	-71,841	0,112	-0,031
-673,378	-36,328	-0,077	0,031
-672,364	-84,009	0,107	-0,025
-671,349	12,919	-0,055	-0,031
-670,335	47,290	0,054	0,037
-669,320	-3,857	-0,114	-0,059
-668,305	-200,000	-0,006	0,069
-667,291	800,000	0,013	-0,029
-666,276	-200,000	0,015	0,147
-665,262	-47,021	-0,052	-0,019
-664,247	-200,000	0,001	-0,143
-663,232	-200,000	0,010	0,044
-662,218	-53,630	-0,022	0,007
-661,203	188,480	-0,072	0,080
-660,189	101,791	0,062	0,054
-659,174	312,925	-0,025	0,035
-658,159	-115,919	0,036	-0,005
-657,145	-200,000	-0,002	-0,084
-656,130	800,000	-0,023	-0,054
-655,116	-200,000	0,005	-0,079
-654,101	-200,000	-0,025	0,116
-653,086	-200,000	-0,002	0,092
-652,072	3,970	-0,021	0,012
-651,057	296,683	-0,067	-0,091
-650,043	355,607	-0,069	-0,102
-649,028	-181,103	-0,110	-0,002
-648,014	193,993	-0,063	-0,071
-646,999	-109,158	-0,102	-0,016
-645,984	800,000	0,017	-0,039
-644,970	309,055	0,067	-0,094
-643,955	-200,000	0,003	-0,039
-642,941	-8,745	-0,167	-0,083
-641,926	-200,000	0,000	-0,130
-640,911	1,992	-0,042	-0,023
-639,897	-107,085	0,203	-0,033
-638,882	-168,995	-0,063	-0,002
-637,868	52,250	0,087	0,062
-636,853	271,883	-0,044	-0,057
-635,838	-200,000	0,009	-0,063
-634,824	596,256	0,075	-0,138
-633,809	-129,834	-0,073	0,007
-632,795	103,171	0,069	0,060
-631,780	380,200	0,069	0,106
-630,765	455,658	0,037	-0,060
-629,751	120,509	-0,116	-0,107
-628,736	-167,120	0,072	-0,002
-627,722	800,000	-0,009	-0,027
-626,707	800,000	0,023	-0,072
-625,692	-200,000	-0,007	0,136
-624,678	-200,000	-0,060	0,000
-623,663	-72,035	-0,069	-0,019
-622,649	518,983	0,083	-0,145
-621,634	-200,000	-0,011	-0,124
-620,619	-96,363	0,112	-0,022
-619,605	800,000	0,040	0,118
-618,590	150,526	-0,056	-0,056
-617,576	392,959	0,003	-0,004
-616,561	236,438	-0,078	-0,096
-615,546	-25,898	-0,023	0,010
-614,532	8,506	-0,062	0,035
-613,517	800,000	-0,031	-0,099
-612,503	318,196	0,075	0,105
-611,488	203,296	0,030	-0,035
-610,474	-200,000	0,017	-0,095
-609,459	-73,208	-0,079	0,021
-608,444	636,462	-0,105	0,198
-607,430	158,101	0,083	-0,085
-606,415	-200,000	-0,012	-0,114
-605,401	-26,510	-0,067	0,029
-604,386	-72,286	-0,007	-0,002
-603,371	-200,000	-0,024	-0,103
-602,357	423,874	0,042	0,068
-601,342	421,041	0,056	-0,090
-600,328	168,491	-0,091	0,097
-599,313	800,000	0,040	-0,112
-598,298	409,053	-0,079	0,124
-597,284	43,301	-0,009	0,006
-596,269	64,505	-0,097	0,073
-595,255	91,719	0,060	0,050
-594,240	-43,231	-0,108	0,040
-593,225	-180,954	-0,090	0,001
-592,211	31,496	-0,019	-0,012
-591,196	-164,025	0,054	-0,002
-590,182	-200,000	0,022	0,193
-589,167	84,909	0,106	0,086
-588,152	290,886	-0,049	-0,066
-587,138	-5,145	-0,046	0,023
-586,123	800,000	-0,076	0,234
-585,109	-110,650	-0,081	-0,012
-584,094	-200,000	0,029	-0,120
-583,079	90,423	0,054	-0,045
-582,065	108,971	0,085	0,076
-581,050	-200,000	-0,016	-0,074
-580,036	10,280	-0,010	-0,006
-579,021	-200,000	0,005	0,049
-578,006	-156,512	-0,184	0,008
-576,992	184,845	-0,062	-0,069
-575,977	109,899	0,057	-0,051
-574,963	797,096	0,037	-0,075
-573,948	-121,239	0,079	0,010
-572,934	-52,584	0,027	-0,009
-571,919	292,979	-0,057	-0,077
-570,904	621,932	-0,047	-0,087
-569,890	-80,584	-0,054	0,013
-568,875	-55,889	0,111	-0,036
-567,861	221,691	0,064	-0,076
-566,846	800,000	-0,025	0,064
-565,831	-200,000	-0,011	-0,091
-564,817	-200,000	-0,007	-0,208
-563,802	800,000	-0,049	-0,132
-562,788	151,119	0,024	0,024
-561,773	-130,147	0,188	0,019
-560,758	800,000	-0,032	-0,078
-559,744	-50,131	0,097	-0,034
-558,729	551,349	-0,033	-0,059
-557,715	-73,590	-0,097	0,026
-556,700	67,769	-0,112	-0,084
-555,685	-59,494	0,157	-0,050
-554,671	43,863	0,093	-0,063
-553,656	-53,479	-0,055	0,019
-552,642	66,475	0,050	0,037
-551,627	-200,000	-0,016	-0,057
-550,612	88,714	-0,106	0,087
-549,598	-12,392	0,091	0,044
-548,583	-170,123	-0,079	-0,002
-547,569	-143,700	0,074	0,005
-546,554	113,145	0,078	-0,070
-545,539	-64,043	-0,033	-0,010
-544,525	-200,000	0,007	0,026
-543,510	-126,527	0,085	-0,009
-542,496	-116,104	-0,164	0,022
-541,481	168,197	-0,075	-0,079
-540,466	-137,006	0,109	0,009
-539,452	-60,444	-0,071	-0,022
-538,437	-200,000	-0,027	0,188
-537,423	-200,000	0,019	0,111
-536,408	-200,000	-0,008	0,132
-535,393	-54,414	0,062	0,021
-534,379	-200,000	0,008	-0,110
-533,364	800,000	0,041	-0,101
-532,350	70,501	0,024	-0,018
-531,335	-200,000	0,002	0,022
-530,321	308,700	-0,036	0,050
-529,306	-67,908	0,162	0,046
-528,291	-107,712	-0,120	-0,019
-527,277	800,000	-0,041	-0,100
-526,262	-200,000	-0,041	-0,186
-525,248	97,353	0,093	-0,079
-524,233	-47,695	0,157	0,056
-523,218	262,724	0,023	0,029
-522,204	59,293	0,056	-0,041
-521,189	-34,955	0,043	-0,017
-520,175	547,538	-0,084	-0,149
-519,160	-9,483	-0,073	0,036
-518,145	-200,000	-0,010	0,085
-517,131	132,987	0,024	0,023
-516,116	-200,000	0,004	0,184
-515,102	-50,645	0,025	-0,009
-514,087	-131,233	0,040	-0,004
-513,072	18,013	-0,139	-0,081
-512,058	86,167	-0,024	0,019
-511,043	-200,000	0,001	-0,004
-510,029	-15,000	0,133	0,063
-509,014	800,000	-0,041	0,100
-507,999	675,072	-0,050	-0,097
-506,985	-97,852	-0,025	0,005
-505,970	-200,000	-0,016	-0,200
-504,956	186,376	-0,014	0,016
-503,941	-84,822	-0,064	-0,015
-502,926	-200,000	0,012	-0,149
-501,912	612,247	0,062	-0,115
-500,897	654,767	-0,066	0,125
-499,883	401,479	-0,035	-0,055
-498,868	125,003	0,134	-0,125
-497,853	800,000	-0,018	0,042
-496,839	-167,982	-0,160	-0,005
-495,824	-66,049	0,155	0,045
-494,810	76,718	0,072	-0,056
-493,795	-200,000	0,002	-0,030
-492,781	-200,000	-0,038	-0,131
-491,766	-34,674	0,029	-0,012
-490,751	503,932	0,046	0,079
-489,737	156,906	-0,039	0,039
-488,722	-200,000	0,016	-0,059
-487,708	133,748	-0,050	-0,048
-486,693	-200,000	0,034	0,123
-485,678	44,110	-0,087	0,058
-484,664	-200,000	0,000	-0,005
-483,649	393,815	0,017	-0,026
-482,635	-77,787	-0,048	-0,012
-481,620	-157,899	0,114	0,005
-480,605	-183,569	0,054	0,001
-479,591	-52,024	0,118	-0,040
-478,576	-200,000	-0,037	0,127
-477,562	800,000	-0,031	-0,082
-476,547	241,377	-0,021	-0,025
-475,532	800,000	0,081	0,208
-474,518	182,374	0,037	0,040
-473,503	-74,005	-0,132	0,035
-472,489	400,634	0,019	0,029
-471,474	800,000	-0,026	-0,077
-470,459	-200,000	0,016	0,112
-469,445	171,763	-0,123	0,130
-468,430	657,213	0,030	-0,058
-467,416	-132,714	-0,086	-0,008
-466,401	800,000	0,052	-0,112
-465,386	800,000	-0,033	0,101
-464,372	-173,986	-0,078	0,002
-463,357	-18,671	0,067	0,031
-462,343	462,086	-0,053	0,087
-461,328	-64,374	-0,092	0,027
-460,313	800,000	-0,038	0,092
-459,299	122,373	0,087	0,080
-458,284	110,053	-0,079	0,070
-457,270	-135,253	-0,043	-0,004
-456,255	180,464	0,102	-0,111
-455,241	-106,654	0,062	-0,010
-454,226	42,424	0,080	0,054
-453,211	800,000	-0,032	0,082
-452,197	249,768	-0,019	0,024
-451,182	-200,000	-0,027	0,216
-450,168	-200,000	-0,003	-0,076
-449,153	267,977	0,075	0,096
-448,138	75,361	-0,045	-0,035
-447,124	800,000	0,034	-0,076
-446,109	-32,361	-0,102	0,041
-445,095	502,352	-0,029	0,050
-444,080	34,740	0,119	0,077
-443,065	-198,975	0,032	0,000
-442,051	-143,940	-0,043	0,003
-441,036	800,000	-0,019	-0,047
-440,022	800,000	0,063	-0,180
-439,007	800,000	-0,030	-0,083
-437,992	800,000	0,052	-0,167
-436,978	138,119	-0,029	-0,028
-435,963	171,119	0,086	0,091
-434,949	-200,000	0,005	0,025
-433,934	-122,202	-0,096	0,011
-432,919	174,475	-0,187	-0,199
-431,905	-167,709	0,145	0,004
-430,890	-137,295	0,117	0,010
-429,876	8,364	0,046	-0,025
-428,861	144,046	0,090	0,088
-427,846	-73,843	-0,038	0,010
-426,832	800,000	0,053	0,134
-425,817	-8,548	-0,216	0,106
-424,803	-200,000	-0,020	-0,066
-423,788	-154,885	0,054	-0,003
-422,773	-84,684	-0,034	-0,008
-421,759	-151,111	-0,035	-0,002
-420,744	-200,000	0,009	-0,042
-419,730	-104,442	0,146	0,025
-418,715	0,888	-0,013	0,007
-417,701	113,818	-0,011	-0,009
-416,686	-45,433	-0,016	0,006
-415,671	-126,754	0,200	0,021
-414,657	-200,000	-0,064	0,275
-413,642	800,000	-0,022	0,063
-412,628	-200,000	0,020	-0,104
-411,613	-200,000	-0,013	-0,059
-410,598	-60,864	-0,067	-0,021
-409,584	-200,000	-0,003	-0,040
-408,569	-58,714	-0,090	-0,028
-407,555	800,000	-0,015	-0,031
-406,540	106,281	0,123	0,107
-405,525	17,517	-0,158	0,092
-404,511	-60,854	0,075	-0,023
-403,496	-185,945	-0,018	-0,000
-402,482	158,277	0,110	-0,112
-401,467	-175,431	0,056	0,001
-400,452	-200,000	-0,013	0,088
-399,438	800,000	0,025	0,055
-398,423	145,038	-0,057	0,056
-397,409	-200,000	-0,010	-0,182
-396,394	361,286	-0,134	-0,197
-395,379	739,774	0,015	-0,030
-394,365	800,000	-0,033	0,068
-393,350	-11,239	0,124	-0,060
-392,336	-200,000	0,033	0,176
-391,321	-200,000	-0,026	-0,091
-390,306	800,000	0,006	-0,014
-389,292	64,447	-0,087	0,064
-388,277	177,504	0,091	0,097
-387,263	517,486	0,030	-0,052
-386,248	-115,571	-0,061	-0,008
-385,233	97,373	0,133	0,112
-384,219	145,998	-0,015	0,015
-383,204	800,000	0,021	-0,048
-382,190	-200,000	0,002	-0,153
-381,175	-200,000	-0,000	-0,110
-380,160	-95,472	0,143	0,028
-379,146	-200,000	-0,018	0,096
-378,131	-21,709	-0,127	0,057
-377,117	-200,000	0,001	-0,012
-376,102	-20,011	-0,064	-0,029
-375,088	-72,805	-0,095	-0,025
-374,073	-200,000	-0,002	-0,017
-373,058	194,343	0,067	0,075
-372,044	138,329	0,028	0,027
-371,029	-103,097	0,205	-0,035
-370,015	-20,630	-0,036	-0,016
-369,000	63,839	0,010	0,008
-367,985	-36,742	-0,075	0,029
-366,971	800,000	0,013	0,042
-365,956	800,000	0,045	0,132
-364,942	13,283	0,188	0,107
-363,927	-200,000	-0,016	0,214
-362,912	800,000	0,017	0,038
-361,898	-200,000	-0,027	-0,113
-360,883	-85,813	0,073	0,017
-359,869	-83,952	-0,137	0,032
-358,854	76,149	-0,041	-0,032
-357,839	800,000	-0,029	0,089
-356,825	-200,000	-0,003	0,064
-355,810	-200,000	-0,004	-0,107
-354,796	-40,674	0,160	0,060
-353,781	254,289	-0,092	0,116
-352,766	26,277	-0,092	-0,056
-351,752	132,185	0,089	-0,085
-350,737	29,467	-0,077	-0,048
-349,723	208,090	-0,072	0,083
-348,708	670,024	0,066	0,126
-347,693	92,416	-0,032	0,027
-346,679	-69,116	-0,086	0,024
-345,664	285,789	-0,006	-0,008
-344,650	-8,025	-0,034	0,017
-343,635	498,561	0,071	0,120
-342,620	800,000	0,036	0,104
-341,606	-200,000	0,039	-0,139
-340,591	725,576	0,025	-0,049
-339,577	191,684	0,079	0,088
-338,562	-59,106	-0,079	0,025
-337,548	62,656	0,118	0,086
-336,533	-200,000	-0,031	-0,196
-335,518	-93,881	-0,035	0,007
-334,504	39,334	-0,053	0,035
-333,489	-200,000	0,061	0,000
-332,475	154,315	-0,071	0,072
-331,460	-200,000	-0,017	0,063
-330,445	-200,000	-0,036	0,116
-329,431	492,592	0,039	-0,065
-328,416	-200,000	0,001	0,129
-327,402	800,000	-0,035	0,086
-326,387	59,683	0,034	0,024
-325,372	549,118	-0,027	-0,047
-324,358	-114,230	0,076	0,011
-323,343	-77,519	-0,136	-0,034
-322,329	800,000	-0,009	0,029
-321,314	-27,227	0,049	-0,021
-320,299	800,000	-0,030	-0,079
-319,285	-200,000	-0,010	-0,060
-318,270	-200,000	0,005	-0,076
-317,256	84,498	-0,043	0,035
-316,241	172,942	-0,123	-0,130
-315,226	23,742	-0,078	-0,047
-314,212	102,091	0,041	-0,035
-313,197	106,968	0,100	0,087
-312,183	-200,000	-0,039	0,150
-311,168	-55,633	-0,045	-0,015
-310,153	-70,500	0,098	-0,027
-309,139	-200,000	0,009	-0,057
-308,124	-89,080	0,027	0,006
-307,110	-200,000	0,030	-0,106
-306,095	-62,923	0,058	-0,017
-305,080	130,004	0,059	0,055
-304,066	262,453	-0,107	-0,137
-303,051	800,000	-0,019	-0,049
-302,037	-155,641	-0,157	0,007
-301,022	-200,000	-0,030	0,108
-300,008	-115,123	-0,037	0,005
-298,993	-123,125	0,102	0,012
-297,978	17,333	0,011	-0,006
-296,964	800,000	-0,010	-0,032
-295,949	50,207	-0,128	-0,088
-294,935	329,524	0,051	-0,071
-293,920	466,429	0,042	-0,070
-292,905	340,264	-0,052	-0,075
-291,891	-200,000	-0,038	0,147
-290,876	111,619	0,083	0,073
-289,862	99,741	0,041	-0,035
-288,847	-200,000	-0,008	-0,043
-287,832	362,799	0,041	0,060
-286,818	28,231	-0,083	-0,051
-285,803	-154,501	0,134	-0,006
-284,789	545,909	0,078	0,136
-283,774	78,356	-0,036	-0,028
-282,759	14,176	-0,049	0,028
-281,745	800,000	0,027	-0,060
-280,730	-200,000	-0,010	-0,040
-279,716	-24,684	0,069	-0,030
-278,701	128,657	0,028	-0,026
-277,686	-200,000	0,020	0,081
-276,672	3,117	-0,031	0,016
-275,657	385,984	0,042	0,064
-274,643	159,867	0,008	0,008
-273,628	33,502	-0,099	-0,063
-272,613	179,137	0,045	-0,048
-271,599	83,389	0,028	0,022
-270,584	0,064	-0,159	0,083
-269,570	124,096	0,061	0,056
-268,555	-35,461	0,111	0,044
-267,540	176,790	-0,038	-0,041
-266,526	390,520	-0,029	-0,044
-265,511	800,000	-0,044	0,098
-264,497	-72,939	-0,140	-0,037
-263,482	-15,113	0,088	0,041
-262,467	76,756	0,061	-0,047
-261,453	51,938	-0,036	0,025
-260,438	-2,831	0,102	0,052
-259,424	800,000	-0,062	0,153
-258,409	-22,866	0,065	-0,029
-257,395	-100,846	0,116	-0,021
-256,380	-200,000	-0,001	0,159
-255,365	44,498	-0,059	0,040
-254,351	224,247	0,026	-0,030
-253,336	612,492	-0,052	-0,096
-252,322	-94,217	-0,179	-0,035
-251,307	-30,819	-0,133	-0,055
-250,292	341,524	0,015	0,021
-249,278	-91,118	-0,087	0,018
-248,263	36,534	0,075	0,048
-247,249	-80,632	-0,098	0,024
-246,234	138,014	-0,092	-0,088
-245,219	212,735	0,060	-0,070
-244,205	704,232	-0,032	0,061
-243,190	311,141	-0,074	0,102
-242,176	-48,251	-0,093	0,032
-241,161	-200,000	-0,001	-0,025
-240,146	17,028	0,067	-0,039
-239,132	-43,565	-0,118	-0,043
-238,117	75,405	0,125	-0,096
-237,103	800,000	-0,032	-0,079
-236,088	800,000	0,019	-0,056
-235,073	17,911	-0,087	-0,051
-234,059	753,736	0,066	0,131
-233,044	800,000	0,024	-0,056
-232,030	800,000	-0,024	0,074
-231,015	-200,000	0,001	-0,141
-230,000	332,745	-0,073	-0,103
-228,986	-64,182	0,098	0,029
-227,971	177,402	0,043	0,046
-226,957	232,813	-0,091	0,109
-225,942	-200,000	-0,033	0,114
-224,927	208,958	0,038	0,043
-223,913	26,489	0,031	0,019
-222,898	-200,000	-0,016	-0,131
-221,884	-200,000	-0,025	-0,084
-220,869	800,000	-0,068	0,201
-219,855	-137,209	0,145	0,012
-218,840	-161,878	0,041	-0,001
-217,825	6,622	0,045	0,024
-216,811	-200,000	-0,009	-0,056
-215,796	-52,899	0,057	0,019
-214,782	-200,000	-0,018	0,073
-213,767	800,000	0,028	0,073
-212,752	-200,000	0,037	0,154
-211,738	-200,000	0,005	-0,044
-210,723	-4,793	0,098	-0,049
-209,709	-51,180	-0,133	0,045
-208,694	-147,407	0,139	0,008
-207,679	84,492	-0,063	-0,050
-206,665	-7,432	0,093	-0,046
-205,650	800,000	-0,023	0,060
-204,636	-200,000	-0,021	0,088
-203,621	-99,314	0,065	0,012
-202,606	-200,000	-0,006	-0,053
-201,592	712,851	-0,062	-0,120
-200,577	-200,000	0,008	0,046
-199,563	206,521	0,029	0,033
-198,548	-200,000	0,042	0,153
-197,533	25,916	-0,055	-0,033
-196,519	-53,407	-0,013	0,004
-195,504	248,807	-0,028	0,035
-194,490	677,470	0,047	-0,090
-193,475	71,810	-0,115	-0,087
-192,460	315,927	0,019	0,026
-191,446	781,428	0,050	0,100
-190,431	-11,200	-0,062	-0,029
-189,417	-20,019	0,074	-0,033
-188,402	140,816	-0,054	-0,052
-187,387	582,638	0,035	-0,063
-186,373	75,055	-0,121	0,093
-185,358	-17,739	0,064	0,029
-184,344	169,765	0,089	0,093
-183,329	-200,000	-0,003	0,074
-182,315	-45,829	-0,041	0,014
-181,300	541,058	0,047	0,082
-180,285	232,559	0,085	-0,101
-179,271	273,955	0,041	-0,053
-178,256	-200,000	-0,032	0,130
-177,242	-78,783	0,056	-0,014
-176,227	-61,262	-0,040	0,012
-175,212	-200,000	0,000	-0,089
-174,198	-0,393	0,089	0,046
-173,183	-154,909	0,013	-0,001
-172,169	78,435	0,034	-0,026
-171,154	800,000	0,012	0,031
-170,139	158,101	-0,049	-0,050
-169,125	-136,686	-0,098	-0,008
-168,110	35,147	0,038	0,024
-167,096	250,875	0,024	0,029
-166,081	800,000	0,049	-0,114
-165,066	-200,000	-0,001	-0,010
-164,052	-200,000	0,007	0,032
-163,037	5,497	0,124	-0,066
-162,023	102,861	0,056	0,048
-161,008	-27,657	-0,108	-0,046
-159,993	-200,000	0,035	-0,124
-158,979	443,937	-0,032	0,051
-157,964	-182,472	-0,159	0,002
-156,950	-158,834	0,069	0,003
-155,935	28,474	-0,036	-0,022
-154,920	-96,780	0,070	0,013
-153,906	112,141	-0,039	0,035
-152,891	-200,000	0,007	-0,082
-151,877	-17,812	-0,027	-0,012
-150,862	97,868	-0,079	-0,066
-149,847	122,918	-0,061	-0,055
-148,833	281,448	-0,111	-0,145
-147,818	170,290	0,043	0,045
-146,804	565,637	-0,071	-0,126
-145,789	15,415	-0,047	-0,027
-144,775	344,975	0,072	0,103
-143,760	106,403	-0,110	-0,095
-142,745	229,099	0,106	0,126
-141,731	800,000	0,018	-0,039
-140,716	175,762	-0,077	-0,081
-139,702	71,308	-0,070	0,052
-138,687	418,022	0,064	0,100
-137,672	2,818	-0,190	0,100
-136,658	-200,000	-0,008	-0,054
-135,643	736,652	0,045	-0,088
-134,629	-64,068	0,066	0,019
-133,614	-200,000	0,051	0,177
-132,599	81,216	0,095	0,075
-131,585	-42,449	-0,044	-0,016
-130,570	-69,056	0,076	-0,021
-129,556	800,000	0,015	0,033
-128,541	-56,716	-0,120	0,038
-127,526	800,000	-0,032	0,085
-126,512	800,000	0,022	0,056
-125,497	265,298	-0,027	-0,035
-124,483	800,000	-0,046	-0,094
-123,468	66,959	-0,037	0,028
-122,453	264,302	0,078	-0,099
-121,439	-200,000	-0,003	0,053
-120,424	-200,000	-0,008	-0,053
-119,410	-74,758	0,100	-0,026
-118,395	-115,772	0,051	0,007
-117,380	-200,000	-0,000	0,032
-116,366	669,194	-0,038	0,072
-115,351	-22,970	-0,074	0,032
-114,337	800,000	0,023	-0,067
-113,322	-70,111	-0,065	-0,018
-112,307	180,669	0,106	0,114
-111,293	666,192	0,018	0,034
-110,278	-200,000	0,019	0,101
-109,264	-200,000	-0,033	0,135
-108,249	-12,310	-0,101	-0,048
-107,234	-76,521	-0,083	0,021
-106,220	800,000	-0,041	-0,119
-105,205	154,484	0,043	-0,043
-104,191	-30,533	-0,036	-0,015
-103,176	270,889	-0,035	-0,045
-102,162	33,836	0,105	0,066
-101,147	-73,534	-0,062	0,016
-100,132	55,289	-0,082	-0,057
-99,118	-155,217	0,109	-0,005
-98,103	800,000	0,026	0,068
-97,089	275,380	0,033	-0,042
-96,074	247,669	-0,075	0,092
-95,059	46,454	-0,061	0,041
-94,045	800,000	0,007	0,017
-93,030	-174,703	0,090	-0,002
-92,016	800,000	-0,061	-0,184
-91,001	-200,000	0,004	0,070
-89,986	-200,000	-0,018	0,083
-88,972	99,359	0,062	0,052
-87,957	-200,000	-0,012	0,133
-86,943	26,709	-0,035	-0,021
-85,928	-73,538	-0,119	-0,031
-84,913	-75,447	0,055	0,014
-83,899	-200,000	0,016	0,058
-82,884	168,494	0,069	-0,072
-81,870	-46,755	-0,172	0,061
-80,855	275,637	0,148	0,191
-79,840	-96,157	-0,136	-0,026
-78,826	-15,348	-0,114	-0,053
-77,811	-200,000	-0,002	-0,039
-76,797	-45,811	-0,162	0,058
-75,782	255,105	0,081	-0,101
-74,767	211,363	0,031	0,035
-73,753	-200,000	-0,018	0,106
-72,738	-200,000	0,001	0,127
-71,724	800,000	0,030	-0,092
-70,709	-200,000	0,003	0,093
-69,694	-61,063	0,052	-0,016
-68,680	514,958	-0,067	0,114
-67,665	-120,139	0,042	0,005
-66,651	800,000	-0,026	-0,081
-65,636	87,846	-0,073	0,059
-64,622	-78,043	0,081	-0,020
-63,607	-63,428	-0,118	-0,035
-62,592	-149,895	-0,119	0,007
-61,578	-113,437	0,156	0,022
-60,563	102,078	-0,158	0,133
-59,549	-200,000	0,001	0,102
-58,534	-119,861	-1,718	-0,212
-57,519	500,462	-0,785	-1,318
-56,505	-200,000	-0,983	-4,482
-55,490	-138,817	0,592	-0,046
-54,476	800,000	5,044	11,729
-53,461	-200,000	15,168	271,983
-52,446	-200,000	696,800	2258,183
-51,432	589,561	1616,377	2898,903
-50,417	121,042	1624,405	1464,497
-49,403	82,632	1281,778	1007,891
-48,388	37,328	1022,768	655,309
-47,373	22,129	984,017	580,380
-46,359	21,139	972,742	570,455
-45,344	19,596	968,679	562,992
-44,330	19,681	967,227	562,406
-43,315	19,424	965,623	560,610
-42,300	19,482	964,420	560,080
-41,286	19,389	963,674	559,319
-40,271	19,423	962,441	558,692
-39,257	19,400	961,786	558,215
-38,242	19,444	961,098	557,939
-37,227	19,431	960,253	557,384
-36,213	19,408	959,313	556,740
-35,198	19,413	958,340	556,170
-34,184	19,358	957,848	555,683
-33,169	19,395	956,777	555,160
-32,154	19,460	955,691	554,717
-31,140	19,445	954,807	554,136
-30,125	19,432	954,232	553,735
-29,111	19,434	953,346	553,208
-28,096	19,481	952,545	552,873
-27,082	19,362	952,095	552,205
-26,067	19,396	951,157	551,749
-25,052	19,401	950,516	551,372
-24,038	19,422	949,886	551,052
-23,023	19,386	949,110	550,462
-22,009	19,420	948,296	550,077
-20,994	19,432	947,912	549,873
-19,979	19,436	947,246	549,478
-18,965	19,453	946,574	549,120
-17,950	19,381	946,102	548,595
-16,936	19,335	945,449	548,045
-15,921	19,338	944,666	547,581
-14,906	19,313	943,982	547,083
-13,892	19,310	943,371	546,698
-12,877	19,247	942,705	546,088
-11,863	19,222	942,059	545,613
-10,848	19,259	941,575	545,429
-9,833	19,322	941,071	545,316
-8,819	19,316	940,592	544,997
-7,804	19,274	939,767	544,366
-6,790	19,311	939,320	544,202
-5,775	19,367	938,482	543,872
-4,760	19,331	938,045	543,484
-3,746	19,351	937,288	543,085
-2,731	19,204	936,720	542,270
-1,717	19,117	935,973	541,540
-0,702	19,104	935,469	541,185
0,313	18,890	934,717	540,893
1,327	21,385	932,666	547,529
2,342	28,815	806,769	493,745
3,356	23,102	506,950	300,492
4,371	-0,698	374,278	191,469
5,386	-3,642	357,633	179,313
6,400	-4,834	351,960	175,007
7,415	-5,422	349,496	173,057
8,429	-5,222	347,955	172,518
9,444	-5,414	346,998	171,799
10,459	-5,393	346,353	171,490
11,473	-5,399	345,738	171,163
12,488	-5,318	345,030	170,893
13,502	-5,477	344,623	170,488
14,517	-5,361	344,118	170,360
15,531	-5,389	343,555	170,033
16,546	-5,271	343,123	169,944
17,561	-5,342	342,735	169,652
18,575	-5,309	342,374	169,497
19,590	-5,398	341,901	169,143
20,604	-5,217	341,508	169,147
21,619	-5,341	341,151	168,809
22,634	-5,268	340,898	168,754
23,648	-5,207	340,444	168,586
24,663	-5,450	340,443	168,286
25,677	-5,362	339,852	168,081
26,692	-5,256	339,589	168,061
27,707	-5,269	339,325	167,900
28,721	-5,346	339,075	167,671
29,736	-5,285	338,575	167,480
30,750	-5,246	338,366	167,408
31,765	-5,506	338,244	167,029
32,780	-5,294	337,713	166,999
33,794	-5,293	337,731	166,994
34,809	-5,184	337,261	166,873
35,823	-5,363	336,957	166,500
36,838	-5,274	336,595	166,410
37,853	-5,379	336,507	166,230
38,867	-5,305	336,185	166,141
39,882	-5,277	335,964	166,050
40,896	-5,418	335,680	165,732
41,911	-5,236	335,337	165,757
42,926	-5,236	334,857	165,505
43,940	-5,327	334,848	165,382
44,955	-5,380	334,526	165,146
45,969	-5,288	334,319	165,135
46,984	-5,232	333,995	165,026
47,999	-5,290	333,917	164,905
49,013	-5,326	333,628	164,707
50,028	-5,316	333,374	164,579
51,042	-5,216	333,033	164,510
52,057	-5,346	332,874	164,267
53,071	-5,293	332,527	164,141
54,086	-5,454	332,319	163,841
55,101	-5,243	332,049	163,934
56,115	-5,376	331,689	163,591
57,130	-5,217	331,367	163,597
58,144	-5,262	331,127	163,413
59,159	-5,383	330,740	163,070
60,174	-5,456	330,641	162,924
61,188	-5,289	330,303	162,933
62,203	-5,264	330,238	162,915
63,217	-5,293	329,917	162,709
64,232	-5,281	329,466	162,485
65,247	-5,340	329,353	162,348
66,261	-5,363	329,033	162,150
67,276	-5,375	328,807	162,011
68,290	-5,505	328,806	161,849
69,305	-5,353	328,388	161,800
70,320	-5,303	328,152	161,726
71,334	-5,306	327,895	161,581
72,349	-5,328	327,573	161,383
73,363	-5,312	327,327	161,266
74,378	-5,229	326,952	161,159
75,393	-5,411	326,827	160,880
76,407	-5,256	326,563	160,909
77,422	-5,224	326,364	160,832
78,436	-5,352	326,080	160,535
79,451	-5,152	325,743	160,578
80,466	-5,273	325,452	160,286
81,480	-5,330	325,344	160,154
82,495	-5,215	325,061	160,129
83,509	-5,293	324,867	159,933
84,524	-5,241	324,682	159,885
85,539	-5,214	324,359	159,741
86,553	-5,277	324,076	159,518
87,568	-5,231	323,863	159,450
88,582	-5,239	323,662	159,327
89,597	-5,314	323,405	159,104
90,611	-5,217	323,140	159,067
91,626	-5,250	322,992	158,943
92,641	-5,182	322,683	158,852
93,655	-5,079	322,157	158,693
94,670	-5,290	322,244	158,488
95,684	-5,334	321,811	158,213
96,699	-5,128	321,626	158,335
97,714	-5,284	321,560	158,116
98,728	-5,350	321,321	157,913
99,743	-5,231	321,003	157,872
100,757	-5,261	320,791	157,721
101,772	-5,226	320,582	157,643
102,787	-5,406	320,434	157,359
103,801	-5,370	319,996	157,168
104,816	-5,157	319,841	157,312
105,830	-5,362	319,677	156,993
106,845	-5,282	319,466	156,962
107,860	-5,308	319,105	156,743
108,874	-5,259	318,966	156,715
109,889	-5,364	318,644	156,428
110,903	-5,328	318,447	156,356
111,918	-5,310	318,267	156,274
112,933	-5,269	317,953	156,150
113,947	-5,197	317,748	156,114
114,962	-5,291	317,662	155,955
115,976	-5,317	317,426	155,798
116,991	-5,253	317,087	155,687
118,006	-5,266	316,905	155,568
119,020	-5,199	316,845	155,598
120,035	-5,186	316,624	155,490
121,049	-5,203	316,358	155,327
122,064	-5,463	316,199	154,955
123,079	-5,328	315,924	154,951
124,093	-5,212	315,447	154,828
125,108	-5,270	315,417	154,738
126,122	-5,320	315,275	154,600
127,137	-5,254	315,038	154,542
128,151	-5,118	314,709	154,512
129,166	-5,262	314,449	154,216
130,181	-5,154	314,173	154,183
131,195	-5,262	313,990	153,963
132,210	-5,271	313,782	153,838
133,224	-5,196	313,411	153,722
134,239	-5,183	313,157	153,598
135,254	-5,410	313,059	153,294
136,268	-5,233	312,696	153,291
137,283	-5,227	312,599	153,237
138,297	-5,278	312,318	153,031
139,312	-5,124	312,026	153,038
140,327	-5,181	311,718	152,812
141,341	-5,146	311,638	152,797
142,356	-5,277	311,460	152,557
143,370	-5,265	311,322	152,489
144,385	-5,328	311,131	152,315
145,400	-5,114	310,749	152,341
146,414	-5,322	310,629	152,049
147,429	-5,391	310,292	151,797
148,443	-5,234	310,203	151,906
149,458	-5,143	309,821	151,801
150,473	-5,066	309,627	151,774
151,487	-5,313	309,559	151,466
152,502	-5,318	309,340	151,340
153,516	-5,220	309,078	151,302
154,531	-5,168	308,769	151,192
155,546	-5,204	308,481	151,000
156,560	-5,158	308,480	151,034
157,575	-5,135	308,222	150,918
158,589	-5,209	307,979	150,709
159,604	-5,127	307,599	150,595
160,619	-4,973	307,353	150,622
161,633	-5,133	307,394	150,461
162,648	-5,062	307,027	150,342
163,662	-5,336	306,939	150,000
164,677	-5,151	306,715	150,070
165,692	-5,258	306,650	149,913
166,706	-5,181	306,298	149,808
167,721	-5,159	305,994	149,668
168,735	-5,282	305,935	149,499
169,750	-5,218	305,790	149,481
170,764	-5,154	305,477	149,381
171,779	-5,141	305,232	149,262
172,794	-5,128	305,158	149,225
173,808	-5,179	304,866	149,016
174,823	-4,913	304,517	149,108
175,837	-5,063	304,368	148,866
176,852	-5,101	304,256	148,759
177,867	-5,079	304,168	148,726
178,881	-4,992	303,817	148,630
179,896	-5,069	303,673	148,467
180,910	-5,057	303,376	148,321
181,925	-5,040	303,357	148,316
182,940	-5,095	303,148	148,144
183,954	-5,338	302,910	147,765
184,969	-5,142	302,613	147,808
185,983	-5,026	302,467	147,843
186,998	-5,156	302,385	147,656
188,013	-4,925	302,027	147,705
189,027	-5,019	301,789	147,478
190,042	-5,142	301,551	147,224
191,056	-5,036	301,438	147,264
192,071	-5,389	301,320	146,832
193,086	-5,060	300,973	146,986
194,100	-5,133	300,829	146,828
195,115	-5,112	300,549	146,700
196,129	-5,196	300,420	146,538
197,144	-5,004	299,930	146,481
198,159	-5,081	299,894	146,372
199,173	-5,139	299,683	146,198
200,188	-5,133	299,519	146,110
201,202	-5,043	299,304	146,083
202,217	-5,003	299,062	145,993
203,232	-5,158	298,939	145,763
204,246	-5,068	298,613	145,682
205,261	-5,157	298,283	145,418
206,275	-5,126	298,288	145,439
207,290	-5,146	297,999	145,265
208,304	-4,969	297,791	145,329
209,319	-5,155	297,781	145,124
210,334	-5,049	297,293	144,980
211,348	-5,103	297,201	144,868
212,363	-5,003	296,933	144,825
213,377	-5,120	296,777	144,618
214,392	-5,101	296,612	144,544
215,407	-5,106	296,377	144,411
216,421	-5,082	296,251	144,361
217,436	-4,981	296,044	144,348
218,450	-5,188	295,783	144,001
219,465	-5,114	295,722	144,033
220,480	-5,174	295,452	143,828
221,494	-5,011	295,223	143,866
222,509	-5,070	294,985	143,679
223,523	-5,116	294,967	143,612
224,538	-5,197	294,809	143,441
225,553	-5,056	294,461	143,400
226,567	-5,023	294,265	143,325
227,582	-5,038	294,067	143,200
228,596	-5,286	294,057	142,935
229,611	-5,097	293,733	142,953
230,626	-5,071	293,558	142,882
231,640	-5,028	293,307	142,789
232,655	-5,031	293,092	142,668
233,669	-5,054	293,040	142,608
234,684	-5,190	292,860	142,373
235,699	-5,042	292,578	142,369
236,713	-4,931	292,404	142,382
237,728	-5,069	292,158	142,112
238,742	-5,068	291,842	141,948
239,757	-4,974	291,752	141,983
240,772	-5,015	291,544	141,830
241,786	-5,168	291,347	141,570
242,801	-4,994	291,117	141,617
243,815	-5,045	291,093	141,542
244,830	-5,043	290,733	141,357
245,844	-5,086	290,495	141,187
246,859	-5,175	290,388	141,034
247,874	-4,923	290,155	141,155
248,888	-5,074	290,002	140,921
249,903	-4,979	289,831	140,918
250,917	-5,122	289,692	140,698
251,932	-5,060	289,446	140,627
252,947	-5,258	289,229	140,315
253,961	-5,531	288,999	139,926
254,976	-5,709	288,546	139,520
255,990	-5,528	288,577	139,698
257,005	-3,901	289,273	141,610
258,020	-1,341	290,006	144,457
259,034	-0,126	290,257	145,756
260,049	0,270	290,285	146,143
261,063	0,706	290,234	146,530
262,078	1,088	290,121	146,832
263,093	1,287	290,035	146,969
264,107	1,637	289,930	147,243
265,122	1,648	289,900	147,227
266,136	1,961	289,615	147,372
267,151	1,805	289,562	147,181
268,166	1,735	289,378	147,007
269,180	1,581	289,304	146,805
270,195	1,718	289,068	146,806
271,209	1,918	288,758	146,830
272,224	1,894	288,482	146,652
273,239	1,763	288,448	146,495
274,253	1,788	288,123	146,341
275,268	1,596	288,020	146,091
276,282	1,657	287,797	146,023
277,297	1,651	287,644	145,927
278,312	1,698	287,463	145,867
279,326	1,664	287,311	145,744
280,341	1,669	287,207	145,684
281,355	1,691	286,883	145,527
282,370	1,684	286,739	145,435
283,384	1,654	286,608	145,326
284,399	1,683	286,262	145,166
285,414	1,705	286,053	145,068
286,428	1,701	285,856	144,951
287,443	1,680	285,757	144,868
288,457	1,890	285,482	144,916
289,472	1,475	285,379	144,455
290,487	1,587	285,259	144,488
291,501	1,531	284,967	144,274
292,516	1,356	284,814	144,017
293,530	1,440	284,737	144,045
294,545	1,539	284,348	143,929
295,560	1,542	284,170	143,830
296,574	1,516	284,047	143,730
297,589	1,377	283,727	143,423
298,603	1,546	283,638	143,526
299,618	1,623	283,400	143,465
300,633	1,565	283,198	143,295
301,647	1,517	283,174	143,225
302,662	1,685	282,936	143,251
303,676	1,592	282,777	143,070
304,691	1,890	282,585	143,241
305,706	1,649	282,450	142,932
306,720	1,702	282,309	142,898
307,735	1,661	282,144	142,764
308,749	1,799	281,991	142,804
309,764	1,813	281,785	142,699
310,779	1,751	281,500	142,484
311,793	1,687	281,422	142,371
312,808	1,778	281,140	142,302
313,822	1,711	280,950	142,130
314,837	1,635	280,756	141,949
315,852	1,698	280,629	141,930
316,866	1,693	280,339	141,766
317,881	1,752	280,239	141,758
318,895	1,691	280,017	141,576
319,910	1,587	279,883	141,399
320,925	1,623	279,775	141,365
321,939	1,554	279,500	141,149
322,954	1,684	279,356	141,184
323,968	1,669	279,328	141,144
324,983	1,611	279,187	141,007
325,997	1,500	278,976	140,783
327,012	1,631	278,696	140,751
328,027	1,765	278,475	140,752
329,041	1,675	278,393	140,614
330,056	1,737	278,173	140,549
331,070	1,748	278,066	140,492
332,085	1,785	277,755	140,357
333,100	1,800	277,507	140,233
334,114	1,856	277,278	140,156
335,129	1,796	277,048	139,972
336,143	1,827	276,890	139,909
337,158	2,020	276,746	140,002
338,173	1,898	276,767	139,887
339,187	1,878	276,471	139,706
340,202	1,843	276,353	139,603
341,216	1,698	276,124	139,340
342,231	1,673	276,113	139,299
343,246	1,758	275,782	139,198
344,260	1,817	275,592	139,144
345,275	1,878	275,501	139,142
346,289	1,953	275,339	139,117
347,304	1,809	275,213	138,908
348,319	1,803	274,940	138,752
349,333	1,985	274,684	138,778
350,348	1,864	274,568	138,596
351,362	1,845	274,426	138,494
352,377	1,911	274,298	138,478
353,392	2,017	274,132	138,478
354,406	1,964	273,884	138,293
355,421	190,760	1347,167	1423,356
356,435	154,025	1478,000	1423,444
