DTS Sentinel unit serial number:	SN410029Multiplexer serial number:	ORYXHardware model number:	OX2-SRSoftware version number:	ORYX F/W v4,00 Oryx Data Collector v3.7.2.0data status	okinstallation	B4 Nyhavnadifferential loss correction	single-endedforward channel	channel 2reverse channel	N/Adate	2023/12/16time	02:45:13forward acquisition time	300,00reverse acquisition time	0,00gamma	499,1914k internal	0,3128k external	0,3128temperature offset calibration	1,0000default loss term (dB/km)	0,3820temperature slope calibration	1,0000multiplexer offset coefficient	1,0000multiplexer slope coefficient	1,0000fibre end	0,00T internal ref (°C)	21,95T ext. ref 1 (°C)	7,13T ext. ref 2 (°C)	7,29length (m)	temperature (°C)	Stokes	anti-Stokes-744,400	400,661	0,052	0,082
-743,385	362,217	-0,102	0,153
-742,371	-62,970	0,035	0,011
-741,356	800,000	-0,068	0,169
-740,342	-200,000	-0,005	0,066
-739,327	-99,542	-0,274	0,051
-738,312	53,188	0,077	-0,055
-737,298	-29,593	-0,203	0,086
-736,283	229,501	0,039	0,047
-735,269	247,967	-0,150	0,189
-734,254	201,224	0,089	-0,102
-733,239	-14,065	-0,452	-0,216
-732,225	-114,970	0,125	-0,018
-731,210	25,876	0,165	0,102
-730,196	-87,904	-0,164	0,036
-729,181	-133,872	-0,041	0,004
-728,167	226,524	0,096	-0,116
-727,152	155,101	0,080	-0,081
-726,137	48,730	-0,086	-0,060
-725,123	-109,335	-0,072	-0,011
-724,108	12,490	0,071	-0,040
-723,094	265,593	-0,041	-0,054
-722,079	415,888	0,040	-0,064
-721,064	-40,787	-0,077	0,029
-720,050	-98,183	0,102	-0,019
-719,035	798,564	0,053	0,110
-718,021	-18,657	-0,057	0,026
-717,006	-30,932	-0,070	-0,029
-715,991	-200,000	0,019	-0,143
-714,977	101,046	-0,069	-0,060
-713,962	21,826	-0,014	0,008
-712,948	142,335	-0,071	0,070
-711,933	-97,459	-0,133	0,026
-710,918	310,571	-0,032	0,044
-709,904	-38,391	-0,211	-0,082
-708,889	-200,000	0,041	-0,220
-707,875	800,000	-0,041	-0,104
-706,860	758,132	0,024	0,048
-705,845	-62,261	0,098	0,030
-704,831	-200,000	0,002	0,210
-703,816	-58,598	-0,051	0,016
-702,802	496,212	-0,060	-0,103
-701,787	48,491	-0,092	0,064
-700,772	46,835	-0,055	-0,038
-699,758	800,000	-0,024	-0,064
-698,743	142,727	0,066	-0,065
-697,729	-200,000	-0,010	-0,071
-696,714	-11,492	-0,014	-0,007
-695,699	-92,743	0,033	-0,007
-694,685	-81,253	0,066	-0,016
-693,670	-200,000	-0,010	0,038
-692,656	445,067	0,013	0,020
-691,641	365,418	0,077	-0,116
-690,627	-45,450	0,100	0,037
-689,612	182,147	-0,042	0,046
-688,597	-200,000	-0,015	-0,090
-687,583	134,633	-0,024	-0,023
-686,568	-79,691	-0,095	-0,024
-685,554	-200,000	-0,021	0,084
-684,539	52,559	-0,072	0,051
-683,524	0,049	-0,030	-0,016
-682,510	-149,193	-0,054	-0,003
-681,495	341,942	-0,066	-0,095
-680,481	500,615	0,026	0,045
-679,466	260,350	-0,087	0,111
-678,451	80,744	0,024	0,019
-677,437	-200,000	0,024	-0,110
-676,422	-78,045	-0,025	0,006
-675,408	348,425	0,068	-0,099
-674,393	212,248	-0,035	-0,041
-673,378	800,000	0,032	0,074
-672,364	800,000	-0,054	-0,124
-671,349	-123,840	-0,123	-0,014
-670,335	-200,000	0,006	0,022
-669,320	265,320	0,054	0,069
-668,305	800,000	-0,009	0,024
-667,291	-93,385	-0,081	0,016
-666,276	-110,824	0,059	-0,009
-665,262	-14,859	-0,121	-0,057
-664,247	125,654	0,059	-0,055
-663,232	158,992	-0,038	0,039
-662,218	-200,000	-0,012	0,048
-661,203	-140,467	-0,121	-0,009
-660,189	301,680	-0,049	0,068
-659,174	-200,000	-0,008	0,078
-658,159	800,000	0,030	-0,072
-657,145	244,599	0,075	-0,093
-656,130	317,663	0,073	0,102
-655,116	-21,572	0,042	-0,019
-654,101	554,144	-0,079	0,142
-653,086	800,000	0,015	0,039
-652,072	800,000	-0,041	0,102
-651,057	-200,000	0,030	-0,137
-650,043	-159,858	-0,212	-0,008
-649,028	-200,000	-0,008	-0,031
-648,014	800,000	0,019	-0,046
-646,999	-137,684	-0,081	-0,007
-645,984	-200,000	0,001	0,114
-644,970	519,884	-0,012	0,021
-643,955	149,174	-0,015	0,015
-642,941	156,435	-0,076	-0,078
-641,926	-127,004	0,019	-0,002
-640,911	-63,241	0,069	-0,021
-639,897	-41,484	0,120	-0,045
-638,882	-142,832	-0,021	0,001
-637,868	800,000	0,009	-0,021
-636,853	-9,702	-0,092	-0,045
-635,838	24,831	-0,050	-0,030
-634,824	-130,212	-0,260	-0,026
-633,809	800,000	-0,059	0,181
-632,795	182,968	0,035	0,039
-631,780	61,211	-0,162	-0,119
-630,765	-200,000	0,012	-0,044
-629,751	-200,000	-0,000	-0,134
-628,736	800,000	-0,061	0,162
-627,722	800,000	0,038	-0,083
-626,707	-200,000	0,002	-0,059
-625,692	218,611	-0,012	-0,014
-624,678	-110,829	0,044	-0,007
-623,663	-200,000	0,004	0,017
-622,649	2,675	-0,070	0,037
-621,634	-151,101	-0,095	-0,005
-620,619	159,354	0,089	-0,092
-619,605	291,143	-0,057	0,076
-618,590	-81,323	0,039	0,010
-617,576	-200,000	0,009	0,031
-616,561	183,712	0,066	0,072
-615,546	-120,512	-0,024	-0,003
-614,532	59,416	0,134	-0,098
-613,517	-12,811	-0,063	0,030
-612,503	800,000	0,053	0,108
-611,488	83,281	-0,012	-0,010
-610,474	97,146	-0,059	-0,050
-609,459	-100,828	-0,029	0,005
-608,444	118,288	-0,073	-0,067
-607,430	176,756	-0,039	-0,042
-606,415	-200,000	0,034	-0,138
-605,401	-200,000	0,032	-0,128
-604,386	-200,000	0,008	-0,105
-603,371	310,231	0,095	0,133
-602,357	-200,000	-0,010	0,143
-601,342	404,925	-0,063	0,099
-600,328	-119,429	0,031	-0,004
-599,313	-162,549	-0,086	0,003
-598,298	58,406	0,044	-0,032
-597,284	-127,383	0,144	-0,015
-596,269	48,614	0,110	0,076
-595,255	-45,213	0,038	0,014
-594,240	-200,000	-0,019	0,110
-593,225	-29,976	-0,148	-0,062
-592,211	610,802	0,047	-0,088
-591,196	-54,592	0,059	0,020
-590,182	116,080	-0,061	-0,055
-589,167	281,129	0,021	0,027
-588,152	-200,000	0,003	0,094
-587,138	-200,000	-0,003	-0,212
-586,123	-200,000	-0,012	-0,097
-585,109	176,379	0,035	-0,038
-584,094	-16,719	0,147	0,069
-583,079	-46,215	-0,123	0,045
-582,065	800,000	-0,063	0,159
-581,050	800,000	-0,043	-0,103
-580,036	593,716	-0,015	0,028
-579,021	-52,214	0,077	0,026
-578,006	-35,970	-0,102	-0,041
-576,992	-60,132	-0,051	0,016
-575,977	-178,023	-0,047	-0,001
-574,963	292,879	-0,072	0,098
-573,948	-200,000	-0,011	0,037
-572,934	36,192	0,036	-0,024
-571,919	-200,000	-0,026	0,111
-570,904	-11,919	0,078	0,037
-569,890	-107,852	-0,137	-0,022
-568,875	-117,391	-0,071	0,009
-567,861	800,000	0,057	0,156
-566,846	-96,251	0,123	-0,024
-565,831	66,651	-0,037	-0,028
-564,817	95,637	-0,067	-0,056
-563,802	64,961	-0,063	-0,047
-562,788	-200,000	0,010	0,072
-561,773	-138,731	0,081	-0,006
-560,758	243,508	-0,052	-0,064
-559,744	-200,000	-0,038	0,181
-558,729	-61,170	0,082	-0,025
-557,715	127,618	-0,146	-0,137
-556,700	-40,192	0,079	-0,030
-555,685	-200,000	-0,052	-0,179
-554,671	683,429	-0,035	-0,068
-553,656	-52,815	0,103	-0,035
-552,642	-191,924	-0,026	0,000
-551,627	-147,981	-0,069	0,004
-550,612	-200,000	0,013	-0,137
-549,598	662,969	-0,034	-0,065
-548,583	360,986	-0,050	-0,075
-547,569	-25,289	-0,139	-0,060
-546,554	800,000	-0,041	0,127
-545,539	-82,108	0,114	0,027
-544,525	800,000	0,036	0,076
-543,510	800,000	-0,029	-0,073
-542,496	187,543	0,045	-0,050
-541,481	31,177	0,199	-0,126
-540,466	-33,453	0,100	-0,041
-539,452	312,074	0,010	-0,014
-538,437	600,263	-0,060	0,111
-537,423	-33,932	0,047	-0,019
-536,408	204,168	0,044	-0,051
-535,393	320,452	-0,049	-0,069
-534,379	-129,690	-0,032	-0,003
-533,364	318,692	-0,050	0,070
-532,350	13,572	0,067	0,038
-531,335	219,352	-0,056	-0,066
-530,321	46,525	0,047	0,032
-529,306	-200,000	-0,015	0,094
-528,291	800,000	-0,051	0,132
-527,277	627,467	-0,021	-0,040
-526,262	57,809	0,051	-0,036
-525,248	411,131	-0,101	0,159
-524,233	-64,301	-0,070	-0,021
-523,218	800,000	-0,023	-0,049
-522,204	520,532	0,059	0,102
-521,189	47,946	-0,121	-0,083
-520,175	276,971	-0,066	-0,087
-519,160	206,592	-0,070	0,081
-518,145	79,155	-0,054	-0,043
-517,131	-200,000	0,000	-0,010
-516,116	-8,424	-0,017	0,008
-515,102	800,000	0,016	-0,034
-514,087	-200,000	-0,015	-0,133
-513,072	800,000	0,083	-0,171
-512,058	-26,756	-0,055	-0,024
-511,043	-200,000	0,000	0,083
-510,029	-200,000	0,129	-0,000
-509,014	-200,000	-0,020	0,099
-507,999	66,920	-0,133	-0,099
-506,985	133,349	0,051	0,049
-505,970	-153,617	0,048	-0,002
-504,956	728,043	-0,030	0,059
-503,941	104,951	-0,045	0,039
-502,926	2,328	0,122	-0,065
-501,912	-152,449	0,082	0,004
-500,897	-200,000	0,008	0,102
-499,883	215,134	-0,076	-0,089
-498,868	139,201	-0,090	-0,087
-497,853	-200,000	-0,022	0,074
-496,839	-101,401	-0,255	0,045
-495,824	104,847	-0,041	0,035
-494,810	-98,847	0,088	0,016
-493,795	292,802	0,030	0,041
-492,781	664,673	-0,067	-0,128
-491,766	62,358	-0,045	-0,033
-490,751	-72,475	-0,217	-0,059
-489,737	-200,000	0,001	-0,059
-488,722	739,443	0,049	-0,097
-487,708	-33,319	0,127	0,052
-486,693	-200,000	0,021	0,161
-485,678	800,000	-0,020	0,043
-484,664	226,657	0,090	-0,108
-483,649	-138,059	-0,183	0,015
-482,635	-200,000	0,002	-0,075
-481,620	219,508	0,080	0,094
-480,605	-200,000	-0,004	0,074
-479,591	110,007	0,007	-0,006
-478,576	312,671	0,049	-0,068
-477,562	-200,000	0,054	-0,180
-476,547	-119,762	-0,122	-0,015
-475,532	101,623	0,082	0,070
-474,518	-200,000	-0,033	-0,211
-473,503	128,346	0,108	0,101
-472,489	378,478	0,068	0,103
-471,474	247,984	-0,014	-0,017
-470,459	-41,145	-0,081	0,031
-469,445	-33,389	-0,127	-0,052
-468,430	320,621	0,017	-0,023
-467,416	-16,470	-0,098	-0,045
-466,401	-149,990	0,074	0,004
-465,386	800,000	-0,035	-0,081
-464,372	91,660	-0,136	-0,113
-463,357	-63,122	0,066	0,020
-462,343	-200,000	-0,012	-0,049
-461,328	800,000	-0,029	-0,062
-460,313	464,941	0,012	-0,020
-459,299	-164,785	-0,081	-0,003
-458,284	-200,000	0,044	0,243
-457,270	180,653	-0,063	0,068
-456,255	540,318	-0,070	0,122
-455,241	35,144	0,071	0,046
-454,226	72,835	-0,025	-0,019
-453,211	-134,865	0,165	0,015
-452,197	754,066	0,040	0,080
-451,182	800,000	0,029	0,067
-450,168	642,372	0,067	0,126
-449,153	28,564	0,083	0,051
-448,138	109,193	-0,063	0,055
-447,124	27,578	-0,038	-0,024
-446,109	241,431	0,095	-0,117
-445,095	-169,358	-0,087	-0,002
-444,080	-200,000	0,008	0,042
-443,065	233,662	0,066	-0,080
-442,051	-40,689	-0,030	0,011
-441,036	21,405	0,083	-0,050
-440,022	800,000	-0,005	0,012
-439,007	800,000	0,040	0,129
-437,992	-158,627	0,063	-0,003
-436,978	474,979	0,025	0,042
-435,963	356,978	0,039	0,058
-434,949	-6,038	-0,122	0,061
-433,934	564,414	-0,030	-0,054
-432,919	800,000	-0,036	-0,083
-431,905	-47,456	0,151	0,054
-430,890	800,000	-0,035	0,080
-429,876	800,000	-0,068	0,140
-428,861	323,228	0,040	0,056
-427,846	-200,000	0,008	-0,092
-426,832	-123,279	-0,224	-0,026
-425,817	-76,449	0,075	-0,019
-424,803	800,000	-0,014	-0,041
-423,788	-135,272	0,141	0,012
-422,773	800,000	-0,023	-0,060
-421,759	-200,000	-0,022	-0,089
-420,744	-200,000	0,029	-0,139
-419,730	-200,000	0,010	-0,161
-418,715	132,517	0,065	-0,062
-417,701	-113,956	0,082	-0,012
-416,686	182,602	-0,066	-0,072
-415,671	104,410	0,122	0,106
-414,657	-141,034	0,049	0,004
-413,642	207,509	0,058	0,067
-412,628	368,835	-0,046	0,069
-411,613	-169,670	-0,122	-0,003
-410,598	128,175	-0,061	-0,057
-409,584	-200,000	-0,028	-0,136
-408,569	-200,000	-0,000	-0,033
-407,555	385,179	-0,030	-0,045
-406,540	-75,769	-0,092	-0,024
-405,525	800,000	-0,020	-0,047
-404,511	448,618	-0,053	0,086
-403,496	301,093	-0,072	-0,098
-402,482	-0,491	-0,078	-0,041
-401,467	323,247	-0,044	0,062
-400,452	39,537	-0,071	0,047
-399,438	56,068	0,072	0,051
-398,423	-49,442	-0,031	-0,011
-397,409	800,000	-0,018	-0,045
-396,394	-88,012	0,047	0,010
-395,379	-91,479	0,057	-0,012
-394,365	430,761	-0,066	-0,105
-393,350	761,718	0,045	0,090
-392,336	-200,000	-0,038	0,189
-391,321	169,182	-0,060	-0,063
-390,306	800,000	-0,021	0,069
-389,292	74,310	0,102	-0,078
-388,277	132,217	-0,041	0,039
-387,263	-200,000	0,002	-0,096
-386,248	359,030	0,072	0,106
-385,233	-32,349	0,157	0,064
-384,219	767,675	-0,045	0,090
-383,204	123,082	-0,012	-0,011
-382,190	20,572	0,102	-0,060
-381,175	85,589	0,002	0,002
-380,160	-200,000	0,015	-0,153
-379,146	-65,240	0,170	0,050
-378,131	-91,911	-0,095	0,020
-377,117	-200,000	-0,001	0,017
-376,102	800,000	-0,021	-0,061
-375,088	497,732	-0,055	-0,093
-374,073	67,685	0,108	0,081
-373,058	181,483	0,020	-0,022
-372,044	155,470	0,120	0,121
-371,029	-16,592	0,098	0,045
-370,015	60,617	-0,131	-0,095
-369,000	709,674	-0,045	0,087
-367,985	203,450	-0,070	-0,080
-366,971	26,899	0,065	-0,040
-365,956	39,816	0,081	0,053
-364,942	534,473	0,048	0,084
-363,927	27,611	0,010	-0,006
-362,912	-144,882	0,155	0,010
-361,898	0,653	-0,145	-0,076
-360,883	305,428	-0,090	-0,122
-359,869	509,377	-0,065	-0,112
-358,854	39,613	0,140	-0,092
-357,839	-169,546	0,051	-0,001
-356,825	265,673	-0,030	-0,038
-355,810	169,870	0,046	0,048
-354,796	800,000	0,024	0,063
-353,781	-156,211	0,044	-0,002
-352,766	-39,213	-0,172	0,066
-351,752	187,408	0,053	0,058
-350,737	555,041	0,108	0,191
-349,723	-200,000	0,011	0,085
-348,708	-200,000	-0,044	0,182
-347,693	800,000	-0,017	0,038
-346,679	-107,960	-0,028	-0,004
-345,664	63,312	0,048	0,035
-344,650	47,986	-0,130	-0,089
-343,635	-200,000	0,010	0,066
-342,620	-200,000	-0,007	0,090
-341,606	-34,420	0,105	0,042
-340,591	-65,359	-0,014	0,004
-339,577	-164,828	-0,156	0,005
-338,562	129,194	-0,087	0,081
-337,548	-200,000	0,002	0,012
-336,533	-104,073	0,032	-0,005
-335,518	-200,000	0,011	-0,124
-334,504	44,068	0,123	0,082
-333,489	31,937	0,134	-0,084
-332,475	-200,000	0,008	-0,051
-331,460	800,000	-0,044	0,136
-330,445	294,720	0,045	0,061
-329,431	64,458	0,090	-0,066
-328,416	137,730	-0,053	-0,051
-327,402	-50,626	0,056	0,019
-326,387	222,371	-0,037	0,044
-325,372	800,000	-0,038	-0,108
-324,358	800,000	0,051	0,106
-323,343	-93,330	0,095	-0,019
-322,329	3,504	-0,103	0,055
-321,314	-200,000	0,003	0,191
-320,299	718,124	0,031	0,062
-319,285	273,708	-0,060	-0,078
-318,270	-41,194	-0,070	0,026
-317,256	-40,902	-0,148	-0,056
-316,241	800,000	0,029	0,092
-315,226	473,592	-0,053	-0,088
-314,212	-72,885	-0,060	-0,016
-313,197	-200,000	0,001	0,034
-312,183	-200,000	0,023	-0,087
-311,168	322,431	-0,022	0,030
-310,153	-162,933	-0,126	0,004
-309,139	470,236	0,053	-0,087
-308,124	800,000	0,022	0,060
-307,110	-200,000	0,025	0,121
-306,095	-200,000	0,037	0,161
-305,080	-63,620	0,080	0,024
-304,066	-200,000	0,030	-0,115
-303,051	97,846	-0,080	-0,067
-302,037	307,707	0,044	-0,060
-301,022	55,123	0,059	-0,042
-300,008	153,144	0,080	0,080
-298,993	-4,688	0,068	-0,034
-297,978	94,140	0,031	-0,026
-296,964	-200,000	0,012	0,050
-295,949	-63,925	-0,134	-0,040
-294,935	-59,991	0,201	-0,062
-293,920	-200,000	0,010	-0,066
-292,905	800,000	-0,056	0,126
-291,891	57,993	-0,023	0,016
-290,876	-163,410	0,157	0,005
-289,862	95,287	0,054	-0,045
-288,847	-106,787	0,152	0,024
-287,832	49,238	0,027	0,018
-286,818	49,898	-0,039	-0,027
-285,803	50,227	0,063	0,043
-284,789	-200,000	-0,020	0,125
-283,774	-136,498	-0,133	-0,011
-282,759	-200,000	0,010	0,051
-281,745	-178,434	0,075	0,001
-280,730	160,909	-0,110	-0,113
-279,716	733,564	0,031	-0,060
-278,701	-200,000	0,002	-0,031
-277,686	800,000	-0,021	0,050
-276,672	-200,000	0,005	0,096
-275,657	-92,706	0,063	-0,013
-274,643	-51,767	-0,042	-0,014
-273,628	64,593	-0,038	0,028
-272,613	456,879	-0,017	-0,028
-271,599	570,557	0,064	0,114
-270,584	-200,000	-0,004	0,076
-269,570	-62,500	-0,031	0,009
-268,555	20,717	-0,034	-0,020
-267,540	-87,134	0,042	-0,009
-266,526	517,156	-0,043	-0,073
-265,511	800,000	0,017	-0,048
-264,497	-35,739	0,142	-0,056
-263,482	-200,000	-0,003	-0,127
-262,467	413,730	-0,082	-0,127
-261,453	7,282	-0,029	-0,016
-260,438	164,312	-0,080	-0,082
-259,424	800,000	-0,046	0,136
-258,409	-103,854	0,079	-0,013
-257,395	-200,000	0,010	0,032
-256,380	-149,121	0,082	0,005
-255,365	-200,000	0,027	0,142
-254,351	800,000	0,039	0,089
-253,336	58,867	0,063	0,045
-252,322	800,000	-0,015	0,039
-251,307	-200,000	-0,004	0,112
-250,292	141,307	0,020	0,019
-249,278	149,277	0,057	0,057
-248,263	92,912	0,024	-0,020
-247,249	-200,000	-0,009	-0,060
-246,234	-97,029	0,061	-0,012
-245,219	800,000	0,060	-0,137
-244,205	306,184	-0,007	0,010
-243,190	46,071	0,062	0,042
-242,176	417,389	-0,031	-0,048
-241,161	-200,000	0,013	0,132
-240,146	378,416	-0,038	-0,057
-239,132	-98,451	0,140	-0,026
-238,117	-61,766	-0,061	-0,019
-237,103	-122,768	-0,085	-0,010
-236,088	-200,000	0,042	-0,143
-235,073	800,000	0,038	0,083
-234,059	-200,000	-0,000	0,036
-233,044	-200,000	0,042	0,144
-232,030	-200,000	0,025	0,089
-231,015	-117,778	-0,199	-0,026
-230,000	800,000	-0,034	-0,070
-228,986	771,846	0,076	-0,151
-227,971	-200,000	-0,010	0,110
-226,957	238,540	-0,018	0,022
-225,942	-127,375	0,107	-0,011
-224,927	-116,108	-0,147	-0,020
-223,913	-66,007	-0,136	-0,039
-222,898	-200,000	-0,021	-0,116
-221,884	-200,000	0,035	-0,114
-220,869	240,339	0,138	0,168
-219,855	-39,604	0,128	-0,049
-218,840	29,079	0,079	-0,049
-217,825	-137,533	-0,020	-0,002
-216,811	499,638	0,053	-0,089
-215,796	269,288	-0,017	0,021
-214,782	343,294	-0,038	0,055
-213,767	-200,000	-0,017	0,100
-212,752	800,000	-0,053	-0,139
-211,738	-200,000	-0,014	0,065
-210,723	392,402	-0,059	0,089
-209,709	-200,000	0,020	0,161
-208,694	173,875	-0,059	-0,062
-207,679	-200,000	-0,008	-0,091
-206,665	30,093	0,169	0,105
-205,650	104,269	0,036	0,031
-204,636	38,664	0,112	-0,073
-203,621	281,232	0,023	-0,030
-202,606	416,698	-0,075	-0,117
-201,592	279,400	-0,073	-0,095
-200,577	-39,934	-0,095	0,036
-199,563	-46,278	0,082	-0,029
-198,548	800,000	-0,014	-0,040
-197,533	-200,000	0,008	0,068
-196,519	11,890	0,038	0,021
-195,504	575,057	-0,048	0,085
-194,490	-120,255	-0,067	0,008
-193,475	367,357	0,011	-0,016
-192,460	589,234	-0,066	0,119
-191,446	4,722	-0,107	0,057
-190,431	49,899	0,122	-0,084
-189,417	103,309	0,069	0,059
-188,402	463,051	-0,084	-0,138
-187,387	74,672	0,085	-0,065
-186,373	-103,117	0,129	-0,022
-185,358	-81,911	0,098	-0,023
-184,344	-200,000	0,054	-0,195
-183,329	10,377	-0,110	0,061
-182,315	119,302	-0,066	0,060
-181,300	800,000	-0,066	0,203
-180,285	312,885	-0,056	0,077
-179,271	-121,564	-0,109	-0,013
-178,256	-57,602	-0,096	-0,030
-177,242	106,459	0,041	0,035
-176,227	-118,135	0,063	-0,008
-175,212	-200,000	0,046	0,164
-174,198	61,120	-0,090	0,065
-173,183	-200,000	-0,011	-0,089
-172,169	555,480	-0,049	-0,086
-171,154	657,142	0,057	-0,106
-170,139	800,000	-0,009	-0,021
-169,125	-2,731	0,058	-0,030
-168,110	-88,737	0,126	0,027
-167,096	252,796	0,007	0,009
-166,081	741,164	0,062	-0,122
-165,066	532,033	-0,045	-0,078
-164,052	296,895	0,058	-0,078
-163,037	-200,000	0,011	-0,128
-162,023	800,000	-0,041	-0,106
-161,008	326,418	0,107	0,150
-159,993	253,873	-0,048	0,060
-158,979	51,219	0,053	0,036
-157,964	-20,297	-0,101	-0,045
-156,950	-200,000	-0,021	-0,124
-155,935	-200,000	-0,006	0,056
-154,920	-200,000	0,011	0,160
-153,906	-67,538	0,060	-0,017
-152,891	-200,000	0,047	0,152
-151,877	-147,049	-0,122	-0,007
-150,862	-200,000	0,000	-0,120
-149,847	-200,000	0,012	-0,072
-148,833	288,723	-0,041	-0,053
-147,818	-73,035	0,176	0,047
-146,804	-101,443	0,033	-0,006
-145,789	-200,000	0,000	0,113
-144,775	-200,000	0,020	0,106
-143,760	406,349	-0,043	0,067
-142,745	-200,000	0,037	-0,168
-141,731	430,098	0,041	-0,065
-140,716	-200,000	-0,008	-0,111
-139,702	-200,000	0,046	0,150
-138,687	273,017	-0,037	-0,048
-137,672	-200,000	-0,015	-0,062
-136,658	-200,000	0,001	-0,084
-135,643	-59,137	-0,028	-0,009
-134,629	137,676	-0,021	0,020
-133,614	135,842	0,061	0,058
-132,599	76,936	-0,049	-0,038
-131,585	404,361	0,076	-0,116
-130,570	348,329	-0,015	-0,022
-129,556	-200,000	-0,042	-0,184
-128,541	-21,531	0,090	-0,040
-127,526	-72,978	-0,070	0,019
-126,512	-88,452	0,276	-0,059
-125,497	262,723	-0,030	0,038
-124,483	-49,757	-0,104	0,036
-123,468	442,227	-0,025	0,039
-122,453	-200,000	-0,019	0,065
-121,439	-200,000	-0,008	-0,119
-120,424	39,309	-0,125	-0,081
-119,410	-200,000	-0,003	-0,083
-118,395	-200,000	-0,012	0,145
-117,380	543,984	-0,057	0,099
-116,366	459,413	0,064	-0,104
-115,351	-92,741	-0,052	-0,010
-114,337	-200,000	0,026	-0,097
-113,322	78,417	0,089	-0,069
-112,307	10,296	-0,103	0,057
-111,293	-55,279	0,108	-0,035
-110,278	100,669	0,099	0,083
-109,264	483,043	-0,056	-0,093
-108,249	-60,634	0,084	0,026
-107,234	383,093	0,053	-0,079
-106,220	514,112	0,057	-0,096
-105,205	-67,558	-0,082	-0,023
-104,191	13,177	0,058	0,033
-103,176	575,174	0,034	-0,060
-102,162	47,015	-0,087	0,059
-101,147	-88,974	-0,057	-0,012
-100,132	800,000	-0,041	-0,096
-99,118	-200,000	-0,012	0,069
-98,103	0,474	0,033	0,017
-97,089	800,000	0,009	0,019
-96,074	800,000	-0,059	-0,132
-95,059	800,000	0,007	-0,015
-94,045	-200,000	0,000	0,046
-93,030	33,494	-0,109	-0,069
-92,016	-200,000	0,009	-0,112
-91,001	-74,279	0,042	-0,011
-89,986	-200,000	0,024	-0,078
-88,972	-137,536	0,046	0,004
-87,957	800,000	0,029	-0,086
-86,943	-90,073	-0,035	-0,007
-85,928	30,925	-0,064	-0,040
-84,913	287,982	0,039	-0,051
-83,899	800,000	0,038	-0,091
-82,884	800,000	-0,052	0,115
-81,870	60,513	-0,133	0,096
-80,855	47,865	-0,015	0,010
-79,840	-118,820	-0,102	0,013
-78,826	-17,782	-0,053	0,024
-77,811	-116,352	0,102	-0,014
-76,797	-127,541	0,048	0,005
-75,782	-200,000	0,012	0,134
-74,767	-200,000	-0,019	-0,069
-73,753	800,000	-0,014	-0,037
-72,738	465,745	0,041	-0,066
-71,724	206,785	0,062	0,070
-70,709	-200,000	-0,008	-0,103
-69,694	78,887	-0,091	-0,071
-68,680	423,102	0,071	-0,111
-67,665	315,109	0,048	0,066
-66,651	482,609	-0,051	0,085
-65,636	414,093	0,027	0,041
-64,622	294,903	-0,060	-0,080
-63,607	568,441	-0,066	-0,117
-62,592	-126,949	-0,063	-0,007
-61,578	17,641	0,063	-0,036
-60,563	-200,000	0,013	0,048
-59,549	-93,569	-0,071	0,014
-58,534	-155,303	-1,317	0,061
-57,519	800,000	-0,690	-1,411
-56,505	-200,000	-0,893	-4,336
-55,490	-137,182	0,631	-0,051
-54,476	800,000	4,866	11,531
-53,461	-200,000	14,145	252,648
-52,446	-200,000	693,574	2241,885
-51,432	581,827	1622,507	2894,271
-50,417	117,833	1631,103	1455,110
-49,403	73,979	1285,523	975,949
-48,388	37,784	1022,253	656,427
-47,373	23,979	980,566	584,378
-46,359	23,248	970,026	575,684
-45,344	22,231	965,690	569,774
-44,330	22,132	964,374	568,653
-43,315	21,999	962,887	567,320
-42,300	22,034	961,630	566,670
-41,286	22,000	960,871	566,091
-40,271	21,978	959,825	565,380
-39,257	21,918	958,873	564,603
-38,242	21,968	958,074	564,273
-37,227	21,941	957,236	563,670
-36,213	22,004	956,012	563,129
-35,198	21,926	955,349	562,467
-34,184	22,003	954,709	562,315
-33,169	21,931	953,820	561,536
-32,154	22,015	952,856	561,215
-31,140	22,027	952,033	560,747
-30,125	21,991	951,263	560,158
-29,111	21,981	950,309	559,540
-28,096	21,949	949,736	559,078
-27,082	21,971	949,310	558,876
-26,067	22,050	948,174	558,438
-25,052	22,009	947,574	557,932
-24,038	21,998	946,835	557,439
-23,023	21,957	946,434	557,050
-22,009	22,014	945,682	556,768
-20,994	22,042	944,984	556,422
-19,979	22,038	944,451	556,073
-18,965	21,966	943,859	555,475
-17,950	22,037	943,139	555,256
-16,936	21,974	942,393	554,592
-15,921	21,908	941,745	553,980
-14,906	21,910	940,991	553,521
-13,892	21,881	940,307	553,004
-12,877	21,792	939,994	552,518
-11,863	21,829	939,243	552,172
-10,848	21,831	938,722	551,850
-9,833	21,955	938,397	552,030
-8,819	21,882	937,622	551,319
-7,804	21,899	936,815	550,877
-6,790	21,858	936,363	550,461
-5,775	21,890	935,688	550,141
-4,760	21,890	935,121	549,787
-3,746	21,805	934,646	549,218
-2,731	21,735	933,858	548,513
-1,717	21,688	933,069	547,879
-0,702	21,688	932,485	547,514
0,313	21,454	932,012	547,327
1,327	24,042	929,310	553,804
2,342	31,777	807,295	501,988
3,356	26,978	507,782	307,560
4,371	2,778	372,818	195,146
5,386	-0,101	355,597	182,599
6,400	-1,706	349,313	177,428
7,415	-2,646	346,387	174,805
8,429	-2,842	345,009	173,861
9,444	-2,669	344,010	173,547
10,459	-2,729	343,393	173,150
11,473	-2,710	342,751	172,833
12,488	-2,480	342,357	172,889
13,502	-2,393	341,728	172,660
14,517	-2,372	341,296	172,450
15,531	-2,677	340,607	171,729
16,546	-2,917	340,212	171,234
17,561	-2,700	339,732	171,231
18,575	-2,614	339,277	171,086
19,590	-2,869	339,011	170,640
20,604	-2,590	338,642	170,764
21,619	-2,729	338,282	170,405
22,634	-2,785	337,938	170,151
23,648	-2,803	337,609	169,950
24,663	-2,700	337,204	169,850
25,677	-2,694	337,003	169,741
26,692	-2,750	336,602	169,458
27,707	-2,536	336,281	169,530
28,721	-2,681	336,064	169,238
29,736	-2,762	335,612	168,901
30,750	-2,762	335,430	168,795
31,765	-2,743	335,072	168,622
32,780	-2,685	334,876	168,575
33,794	-2,842	334,500	168,190
34,809	-2,889	334,266	168,003
35,823	-2,665	333,904	168,063
36,838	-2,759	333,507	167,740
37,853	-2,903	333,258	167,436
38,867	-2,696	333,070	167,563
39,882	-2,802	332,760	167,271
40,896	-2,815	332,619	167,170
41,911	-2,784	332,291	167,026
42,926	-2,857	332,015	166,789
43,940	-2,909	331,596	166,505
44,955	-2,862	331,282	166,386
45,969	-2,899	331,089	166,232
46,984	-3,048	330,942	165,974
47,999	-3,202	330,482	165,553
49,013	-3,217	330,228	165,395
50,028	-3,427	330,190	165,123
51,042	-3,349	329,573	164,888
52,057	-3,255	329,347	164,867
53,071	-3,262	329,129	164,734
54,086	-3,319	329,030	164,606
55,101	-3,310	328,749	164,460
56,115	-3,034	328,523	164,645
57,130	-2,811	328,330	164,784
58,144	-2,803	328,260	164,742
59,159	-2,641	327,905	164,732
60,174	-2,772	327,707	164,470
61,188	-2,590	327,525	164,569
62,203	-2,700	327,232	164,283
63,217	-2,665	326,848	164,115
64,232	-2,653	326,687	164,033
65,247	-2,592	326,459	163,973
66,261	-2,586	326,108	163,789
67,276	-2,725	325,797	163,463
68,290	-2,924	325,360	163,007
69,305	-2,949	325,143	162,855
70,320	-3,141	325,185	162,649
71,334	-2,862	324,893	162,799
72,349	-2,652	324,724	162,933
73,363	-2,560	324,311	162,813
74,378	-2,703	324,146	162,557
75,393	-2,673	323,933	162,469
76,407	-2,727	323,590	162,222
77,422	-2,804	323,413	162,034
78,436	-2,691	323,051	161,963
79,451	-2,613	322,789	161,904
80,466	-2,942	322,556	161,410
81,480	-2,893	322,241	161,292
82,495	-3,096	322,133	160,999
83,509	-3,104	321,823	160,821
84,524	-3,006	321,542	160,775
85,539	-3,140	321,291	160,487
86,553	-3,117	320,965	160,336
87,568	-2,988	320,714	160,337
88,582	-2,912	320,546	160,322
89,597	-3,019	320,348	160,091
90,611	-2,892	320,160	160,123
91,626	-2,821	319,882	160,047
92,641	-2,745	319,680	160,014
93,655	-2,734	319,314	159,829
94,670	-3,042	319,172	159,407
95,684	-2,906	318,960	159,436
96,699	-2,925	318,823	159,332
97,714	-2,919	318,629	159,228
98,728	-2,924	318,229	159,008
99,743	-3,018	317,962	158,759
100,757	-3,052	317,804	158,629
101,772	-3,018	317,499	158,499
102,787	-2,892	317,244	158,494
103,801	-2,767	317,086	158,536
104,816	-2,998	316,980	158,219
105,830	-2,953	316,695	158,112
106,845	-2,648	316,478	158,318
107,860	-2,959	316,402	157,931
108,874	-2,939	315,980	157,728
109,889	-2,889	315,656	157,605
110,903	-2,898	315,422	157,464
111,918	-2,875	315,306	157,417
112,933	-2,943	315,057	157,206
113,947	-2,784	314,897	157,283
114,962	-2,776	314,607	157,132
115,976	-2,770	314,337	156,990
116,991	-2,892	314,212	156,783
118,006	-2,789	314,031	156,789
119,020	-2,742	313,737	156,679
120,035	-2,791	313,647	156,568
121,049	-2,863	313,438	156,372
122,064	-2,847	313,304	156,308
123,079	-2,758	312,824	156,150
124,093	-2,799	312,624	155,992
125,108	-2,923	312,265	155,667
126,122	-3,075	312,343	155,530
127,137	-3,176	312,050	155,264
128,151	-3,064	311,788	155,238
129,166	-2,921	311,593	155,279
130,181	-3,040	311,387	155,036
131,195	-3,177	311,070	154,720
132,210	-2,983	310,739	154,746
133,224	-2,835	310,718	154,878
134,239	-2,802	310,451	154,767
135,254	-2,679	310,242	154,779
136,268	-2,845	309,969	154,454
137,283	-3,047	309,834	154,159
138,297	-3,012	309,402	153,968
139,312	-3,002	309,223	153,876
140,327	-2,791	308,921	153,933
141,341	-2,682	309,023	154,084
142,356	-2,631	308,786	154,007
143,370	-2,503	308,638	154,054
144,385	-2,463	308,417	153,972
145,400	-2,586	308,230	153,735
146,414	-2,364	307,857	153,769
147,429	-2,435	307,686	153,595
148,443	-2,659	307,649	153,328
149,458	-2,579	307,423	153,285
150,473	-2,445	307,237	153,319
151,487	-2,691	306,915	152,888
152,502	-2,511	306,757	152,983
153,516	-2,588	306,600	152,811
154,531	-2,423	306,217	152,779
155,546	-2,547	306,065	152,560
156,560	-2,697	305,883	152,300
157,575	-2,636	305,625	152,221
158,589	-2,716	305,390	152,007
159,604	-2,528	305,245	152,117
160,619	-2,614	305,153	151,968
161,633	-2,529	304,859	151,897
162,648	-2,666	304,719	151,671
163,662	-2,531	304,491	151,683
164,677	-2,563	304,238	151,511
165,692	-2,768	304,031	151,183
166,706	-2,523	303,792	151,303
167,721	-2,467	303,641	151,272
168,735	-2,595	303,424	151,019
169,750	-2,459	303,205	151,036
170,764	-2,319	303,128	151,128
171,779	-2,512	302,999	150,852
172,794	-2,413	302,644	150,764
173,808	-2,609	302,390	150,422
174,823	-2,947	302,128	149,933
175,837	-3,032	301,886	149,712
176,852	-2,730	301,805	149,967
177,867	-2,584	301,759	150,081
178,881	-2,391	301,564	150,168
179,896	-2,446	301,299	149,966
180,910	-2,471	301,010	149,784
181,925	-2,425	300,947	149,785
182,940	-2,214	300,572	149,801
183,954	-2,398	300,535	149,582
184,969	-2,497	300,146	149,274
185,983	-2,650	300,078	149,072
186,998	-2,527	299,958	149,123
188,013	-2,449	299,615	149,019
189,027	-2,513	299,649	148,957
190,042	-2,597	299,388	148,729
191,056	-2,448	299,151	148,749
192,071	-2,375	298,928	148,698
193,086	-2,407	298,767	148,573
194,100	-2,411	298,484	148,415
195,115	-2,437	298,261	148,265
196,129	-2,372	298,082	148,228
197,144	-2,442	297,707	147,958
198,159	-2,383	297,714	148,007
199,173	-2,313	297,527	147,972
200,188	-2,256	297,149	147,828
201,202	-2,576	296,964	147,401
202,217	-2,923	296,641	146,879
203,232	-3,005	296,373	146,651
204,246	-2,649	296,304	146,960
205,261	-2,612	296,224	146,945
206,275	-2,445	296,112	147,043
207,290	-2,235	295,701	147,037
208,304	-2,467	295,662	146,772
209,319	-2,332	295,503	146,815
210,334	-2,479	295,227	146,517
211,348	-2,426	295,079	146,485
212,363	-2,305	294,876	146,491
213,377	-2,450	294,687	146,240
214,392	-2,451	294,506	146,136
215,407	-2,631	294,196	145,790
216,421	-2,774	294,067	145,570
217,436	-2,852	293,817	145,358
218,450	-2,769	293,544	145,291
219,465	-2,758	293,522	145,278
220,480	-2,809	293,319	145,114
221,494	-2,648	293,124	145,165
222,509	-2,638	292,791	144,996
223,523	-2,510	292,740	145,084
224,538	-2,370	292,592	145,137
225,553	-2,394	292,358	144,984
226,567	-2,391	292,105	144,849
227,582	-2,311	291,966	144,846
228,596	-2,561	291,903	144,555
229,611	-2,280	291,504	144,621
230,626	-2,426	291,429	144,427
231,640	-2,756	291,118	143,936
232,655	-2,978	290,949	143,622
233,669	-3,157	290,718	143,319
234,684	-2,938	290,525	143,426
235,699	-2,780	290,228	143,422
236,713	-2,810	290,158	143,345
237,728	-2,705	289,979	143,346
238,742	-2,748	289,917	143,260
239,757	-2,753	289,675	143,123
240,772	-2,592	289,495	143,179
241,786	-2,389	289,240	143,238
242,801	-2,676	289,111	142,881
243,815	-2,616	288,845	142,796
244,830	-2,612	288,780	142,755
245,844	-2,623	288,616	142,651
246,859	-2,539	288,373	142,599
247,874	-2,819	288,319	142,287
248,888	-2,737	288,133	142,263
249,903	-2,541	287,871	142,311
250,917	-2,526	287,837	142,296
251,932	-2,349	287,581	142,328
252,947	-1,822	287,690	142,880
253,961	-2,284	287,111	142,133
254,976	-1,164	287,682	143,488
255,990	1,588	288,529	146,567
257,005	2,518	288,918	147,654
258,020	3,890	289,096	149,062
259,034	3,927	288,819	148,942
260,049	3,786	288,629	148,695
261,063	3,381	288,408	148,176
262,078	3,834	288,264	148,527
263,093	4,335	288,353	149,044
264,107	4,367	288,169	148,966
265,122	4,430	288,009	148,931
266,136	4,709	287,772	149,064
267,151	4,347	287,747	148,689
268,166	4,181	287,497	148,386
269,180	4,632	287,105	148,604
270,195	4,299	287,047	148,241
271,209	4,320	286,943	148,194
272,224	4,161	286,523	147,812
273,239	3,976	286,352	147,533
274,253	4,162	286,207	147,623
275,268	4,531	286,215	147,967
276,282	4,386	285,749	147,575
277,297	4,496	285,879	147,734
278,312	4,764	285,752	147,912
279,326	4,816	285,463	147,798
280,341	4,297	285,193	147,150
281,355	4,223	284,915	146,923
282,370	4,203	284,765	146,814
283,384	4,162	284,643	146,698
284,399	4,264	284,381	146,647
285,414	4,250	284,143	146,499
286,428	4,133	284,077	146,341
287,443	3,824	283,875	145,930
288,457	3,812	283,663	145,796
289,472	3,757	283,381	145,586
290,487	3,990	283,240	145,722
291,501	3,760	282,832	145,282
292,516	3,416	282,667	144,859
293,530	3,454	282,597	144,846
294,545	3,852	282,458	145,137
295,560	3,933	282,497	145,221
296,574	3,812	282,138	144,909
297,589	3,949	281,991	144,950
298,603	4,209	282,022	145,198
299,618	4,327	281,646	145,102
300,633	4,056	281,567	144,793
301,647	4,141	281,366	144,757
302,662	4,203	281,109	144,671
303,676	3,934	280,979	144,338
304,691	3,603	280,607	143,824
305,706	3,727	280,299	143,770
306,720	3,530	280,215	143,529
307,735	3,596	280,133	143,536
308,749	3,704	279,984	143,548
309,764	3,787	279,894	143,566
310,779	3,582	279,606	143,214
311,793	3,401	279,523	142,990
312,808	3,654	279,159	143,027
313,822	3,695	278,942	142,941
314,837	3,592	278,653	142,685
315,852	3,491	278,571	142,536
316,866	3,689	278,456	142,649
317,881	3,693	278,230	142,524
318,895	3,617	278,078	142,363
319,910	3,438	277,774	142,028
320,925	3,384	277,711	141,934
321,939	3,621	277,511	142,038
322,954	3,914	277,412	142,246
323,968	3,760	277,447	142,108
324,983	4,021	277,094	142,156
325,997	3,827	277,097	141,966
327,012	4,059	276,813	142,022
328,027	3,920	276,703	141,825
329,041	3,621	276,588	141,477
330,056	3,853	276,247	141,504
331,070	3,816	276,129	141,397
332,085	3,646	275,862	141,092
333,100	3,956	275,683	141,272
334,114	3,809	275,440	140,999
335,129	3,754	275,225	140,827
336,143	3,830	275,110	140,825
337,158	4,005	275,085	140,959
338,173	3,755	274,834	140,590
339,187	3,690	274,770	140,485
340,202	3,697	274,562	140,373
341,216	3,864	274,326	140,392
342,231	3,848	274,231	140,316
343,246	3,843	273,849	140,104
344,260	3,758	273,779	139,978
345,275	3,810	273,743	139,995
346,289	4,112	273,665	140,217
347,304	4,182	273,377	140,121
348,319	4,031	273,155	139,858
349,333	3,825	272,986	139,572
350,348	4,167	272,908	139,829
351,362	4,138	272,829	139,750
352,377	4,056	272,658	139,576
353,392	4,178	272,442	139,563
354,406	4,102	272,150	139,332
355,421	190,849	1331,905	1407,312
356,435	154,143	1461,109	1407,421
