DTS Sentinel unit serial number:	SN410029Multiplexer serial number:	ORYXHardware model number:	OX2-SRSoftware version number:	ORYX F/W v4,00 Oryx Data Collector v3.7.2.0data status	okinstallation	B4 Nyhavnadifferential loss correction	single-endedforward channel	channel 2reverse channel	N/Adate	2023/12/19time	04:55:13forward acquisition time	300,00reverse acquisition time	0,00gamma	499,1914k internal	0,3126k external	0,3126temperature offset calibration	1,0000default loss term (dB/km)	0,3820temperature slope calibration	1,0000multiplexer offset coefficient	1,0000multiplexer slope coefficient	1,0000fibre end	0,00T internal ref (°C)	20,96T ext. ref 1 (°C)	6,30T ext. ref 2 (°C)	6,39length (m)	temperature (°C)	Stokes	anti-Stokes-744,400	791,246	-0,025	-0,052
-743,385	-98,019	-0,268	0,051
-742,371	-106,873	0,298	-0,049
-741,356	-90,601	-0,272	0,058
-740,342	-200,000	0,046	0,156
-739,327	47,780	-0,206	0,143
-738,312	115,604	-0,064	-0,058
-737,298	-13,194	-0,227	0,110
-736,283	248,148	0,030	-0,038
-735,269	462,111	-0,153	0,255
-734,254	-21,733	-0,029	-0,013
-733,239	-37,121	-0,417	-0,165
-732,225	-63,086	0,185	0,056
-731,210	-200,000	-0,005	0,078
-730,196	-67,956	0,044	-0,013
-729,181	29,978	-0,071	0,045
-728,167	-66,035	-0,118	-0,035
-727,152	0,731	-0,164	0,087
-726,137	585,539	-0,017	0,031
-725,123	-80,979	-0,010	-0,002
-724,108	-200,000	-0,013	-0,236
-723,094	289,618	-0,069	-0,094
-722,079	-27,144	-0,058	-0,025
-721,064	-200,000	-0,002	0,021
-720,050	-109,641	-0,025	0,004
-719,035	143,506	-0,048	-0,047
-718,021	-46,631	0,045	0,016
-717,006	-39,062	-0,133	-0,052
-715,991	-7,202	-0,133	-0,067
-714,977	13,992	-0,074	-0,043
-713,962	182,084	-0,027	-0,029
-712,948	62,077	0,043	0,032
-711,933	-85,834	0,091	-0,021
-710,918	500,910	-0,053	-0,091
-709,904	84,367	-0,083	0,068
-708,889	42,653	0,041	0,028
-707,875	279,124	-0,075	-0,100
-706,860	-200,000	-0,001	-0,122
-705,845	800,000	0,022	-0,050
-704,831	138,979	0,054	0,053
-703,816	52,980	0,099	0,070
-702,802	307,576	-0,056	0,078
-701,787	5,254	0,055	0,030
-700,772	-200,000	0,011	0,056
-699,758	204,079	-0,067	0,077
-698,743	-9,033	0,055	-0,027
-697,729	36,910	-0,053	0,035
-696,714	305,029	-0,032	0,045
-695,699	-14,516	-0,056	-0,027
-694,685	-55,563	-0,123	-0,041
-693,670	30,878	0,029	-0,018
-692,656	-27,520	-0,105	-0,045
-691,641	-66,871	-0,055	-0,016
-690,627	-53,018	0,017	-0,006
-689,612	-137,765	-0,107	-0,009
-688,597	-200,000	0,007	0,060
-687,583	88,768	-0,025	-0,021
-686,568	-200,000	-0,036	0,000
-685,554	-73,234	-0,221	-0,060
-684,539	-75,891	-0,086	0,023
-683,524	800,000	0,025	0,072
-682,510	800,000	0,038	0,107
-681,495	2,537	0,142	0,076
-680,481	-200,000	-0,010	-0,133
-679,466	194,237	-0,147	-0,166
-678,451	800,000	-0,026	-0,070
-677,437	800,000	0,010	-0,025
-676,422	800,000	-0,047	0,120
-675,408	-117,398	0,046	0,006
-674,393	35,872	0,077	0,050
-673,378	-50,853	-0,209	-0,073
-672,364	-200,000	0,030	-0,111
-671,349	61,590	0,021	0,016
-670,335	-200,000	-0,013	-0,049
-669,320	529,414	0,031	0,055
-668,305	273,597	0,025	-0,033
-667,291	-138,410	-0,084	-0,007
-666,276	-200,000	0,010	-0,061
-665,262	-172,991	-0,127	0,003
-664,247	721,984	0,095	-0,188
-663,232	57,139	0,022	-0,016
-662,218	308,959	0,081	-0,112
-661,203	-76,820	-0,084	0,022
-660,189	74,677	0,059	-0,046
-659,174	-200,000	0,033	0,141
-658,159	-96,457	0,134	-0,026
-657,145	11,689	-0,055	-0,031
-656,130	61,151	-0,062	0,045
-655,116	-200,000	-0,003	0,096
-654,101	-5,401	0,087	0,044
-653,086	85,762	0,084	0,068
-652,072	-59,606	-0,087	0,028
-651,057	-200,000	-0,020	-0,076
-650,043	333,273	0,020	0,029
-649,028	-200,000	-0,019	-0,176
-648,014	-200,000	0,008	0,102
-646,999	702,918	-0,062	0,122
-645,984	-161,618	-0,033	-0,001
-644,970	-200,000	0,014	0,138
-643,955	297,044	0,089	-0,122
-642,941	66,319	-0,057	-0,043
-641,926	800,000	0,018	0,038
-640,911	194,018	0,056	0,063
-639,897	426,703	0,023	0,036
-638,882	-200,000	0,009	-0,052
-637,868	-200,000	-0,014	-0,099
-636,853	-143,241	0,204	-0,014
-635,838	-37,874	0,026	-0,010
-634,824	198,807	-0,050	-0,057
-633,809	268,400	0,070	-0,091
-632,795	-200,000	-0,003	0,020
-631,780	287,650	0,073	0,098
-630,765	-22,850	-0,077	0,034
-629,751	-200,000	-0,008	-0,107
-628,736	12,653	-0,158	-0,090
-627,722	-58,637	0,084	0,027
-626,707	19,546	-0,104	-0,062
-625,692	-200,000	-0,006	0,038
-624,678	800,000	-0,013	0,034
-623,663	234,881	-0,040	0,049
-622,649	-200,000	0,017	-0,070
-621,634	194,985	-0,069	-0,078
-620,619	-144,351	-0,037	0,003
-619,605	-200,000	0,026	-0,093
-618,590	-14,870	0,105	-0,050
-617,576	-200,000	-0,006	-0,116
-616,561	800,000	0,046	-0,111
-615,546	148,834	-0,101	-0,101
-614,532	-200,000	-0,019	0,068
-613,517	-9,059	-0,126	0,062
-612,503	-200,000	-0,010	0,094
-611,488	-200,000	0,011	0,130
-610,474	43,252	-0,023	-0,016
-609,459	-187,703	0,122	0,001
-608,444	387,623	-0,034	0,053
-607,430	-81,629	-0,050	-0,012
-606,415	91,791	-0,047	-0,039
-605,401	800,000	-0,059	0,170
-604,386	-120,982	0,014	-0,002
-603,371	375,553	-0,022	-0,034
-602,357	73,722	0,071	-0,055
-601,342	445,948	-0,078	-0,128
-600,328	-9,819	-0,143	-0,070
-599,313	-10,027	0,092	0,045
-598,298	-22,965	0,032	0,014
-597,284	800,000	0,027	0,079
-596,269	431,477	0,046	0,074
-595,255	177,622	0,072	-0,078
-594,240	-138,417	-0,044	0,004
-593,225	-200,000	0,048	-0,179
-592,211	-200,000	0,021	-0,129
-591,196	-92,595	0,039	0,008
-590,182	800,000	0,030	0,087
-589,167	-200,000	-0,007	0,139
-588,152	-28,718	-0,035	0,015
-587,138	-200,000	0,001	-0,007
-586,123	330,210	-0,059	-0,085
-585,109	-136,978	-0,051	-0,004
-584,094	20,138	-0,100	-0,059
-583,079	33,851	0,144	0,092
-582,065	-200,000	0,002	0,100
-581,050	770,619	-0,036	0,073
-580,036	34,428	-0,043	-0,028
-579,021	578,963	0,031	-0,056
-578,006	214,540	-0,040	0,047
-576,992	152,097	-0,089	-0,090
-575,977	-130,366	0,121	-0,012
-574,963	-200,000	-0,024	-0,095
-573,948	595,531	-0,060	-0,110
-572,934	238,477	-0,059	-0,073
-571,919	-200,000	0,001	0,010
-570,904	-155,427	0,031	-0,001
-569,890	800,000	0,042	-0,101
-568,875	395,834	0,019	0,029
-567,861	-200,000	0,010	-0,061
-566,846	578,124	0,041	0,074
-565,831	-200,000	0,004	-0,089
-564,817	136,672	0,086	0,083
-563,802	-200,000	-0,018	0,060
-562,788	-27,174	0,056	-0,024
-561,773	71,123	0,044	-0,034
-560,758	800,000	0,034	0,090
-559,744	259,098	-0,028	-0,035
-558,729	-200,000	-0,094	0,000
-557,715	302,327	-0,080	-0,109
-556,700	800,000	0,016	0,034
-555,685	-118,257	-0,166	-0,022
-554,671	417,739	0,034	0,054
-553,656	-200,000	-0,013	0,088
-552,642	214,445	0,084	0,098
-551,627	26,754	0,127	0,078
-550,612	127,312	0,025	-0,024
-549,598	18,052	0,069	-0,041
-548,583	-200,000	-0,023	0,086
-547,569	96,097	0,108	0,091
-546,554	-99,266	0,049	0,009
-545,539	33,637	-0,103	-0,066
-544,525	607,174	0,045	0,084
-543,510	800,000	0,036	-0,092
-542,496	198,571	-0,009	-0,010
-541,481	-200,000	-0,005	-0,048
-540,466	-142,288	-0,065	-0,005
-539,452	-141,404	0,146	-0,011
-538,437	-59,592	0,060	0,019
-537,423	43,920	0,042	0,029
-536,408	300,782	-0,070	-0,096
-535,393	-52,889	0,129	-0,043
-534,379	800,000	0,042	-0,103
-533,364	-200,000	-0,009	-0,067
-532,350	147,796	0,031	0,031
-531,335	-200,000	0,022	-0,090
-530,321	253,241	0,126	-0,159
-529,306	800,000	-0,054	-0,159
-528,291	-136,105	0,162	-0,014
-527,277	-200,000	0,002	-0,100
-526,262	-200,000	-0,001	-0,078
-525,248	-69,114	0,057	0,016
-524,233	-128,099	-0,051	0,005
-523,218	316,493	0,026	-0,036
-522,204	251,812	0,023	-0,029
-521,189	-101,784	0,106	0,019
-520,175	-118,135	-0,162	0,021
-519,160	-200,000	-0,037	-0,242
-518,145	800,000	0,034	-0,074
-517,131	800,000	-0,008	0,019
-516,116	94,954	0,086	0,072
-515,102	800,000	0,033	-0,087
-514,087	800,000	-0,029	-0,076
-513,072	-43,739	-0,104	0,039
-512,058	507,587	-0,044	0,076
-511,043	800,000	-0,032	0,088
-510,029	134,614	0,032	-0,031
-509,014	-200,000	0,007	-0,029
-507,999	800,000	-0,035	-0,098
-506,985	800,000	-0,046	-0,106
-505,970	160,259	-0,052	-0,053
-504,956	-200,000	0,006	0,031
-503,941	8,827	0,070	-0,039
-502,926	374,802	0,033	0,050
-501,912	-129,797	0,019	-0,002
-500,897	800,000	0,047	0,098
-499,883	-200,000	0,033	0,131
-498,868	800,000	0,018	0,038
-497,853	-98,815	-0,178	0,033
-496,839	22,444	-0,117	0,070
-495,824	800,000	-0,014	-0,042
-494,810	-36,957	0,159	0,062
-493,795	800,000	0,046	0,097
-492,781	-200,000	-0,022	0,074
-491,766	-40,372	0,124	0,047
-490,751	-5,809	0,046	-0,023
-489,737	106,006	0,081	-0,071
-488,722	800,000	-0,013	0,032
-487,708	484,550	-0,019	0,031
-486,693	-200,000	0,003	0,021
-485,678	-200,000	0,012	-0,041
-484,664	-54,291	-0,146	-0,048
-483,649	-133,444	-0,115	-0,011
-482,635	-200,000	-0,004	0,137
-481,620	-30,246	-0,102	-0,042
-480,605	-117,667	-0,103	-0,014
-479,591	347,263	-0,064	0,094
-478,576	252,793	-0,020	0,025
-477,562	800,000	0,018	-0,038
-476,547	800,000	-0,064	0,162
-475,532	154,802	-0,028	0,029
-474,518	-41,780	-0,081	-0,030
-473,503	-200,000	-0,007	0,125
-472,489	223,402	-0,033	-0,039
-471,474	59,753	0,018	0,013
-470,459	-191,172	-0,094	0,001
-469,445	-32,817	0,080	-0,032
-468,430	-101,853	-0,097	-0,017
-467,416	800,000	-0,007	0,016
-466,401	800,000	-0,028	0,081
-465,386	-200,000	-0,000	0,153
-464,372	-200,000	0,027	-0,148
-463,357	800,000	-0,013	-0,029
-462,343	-137,110	-0,101	-0,008
-461,328	-200,000	0,012	0,063
-460,313	-70,417	0,101	-0,028
-459,299	-200,000	0,031	-0,121
-458,284	-140,505	0,099	0,007
-457,270	-61,137	0,151	0,047
-456,255	392,737	-0,063	-0,097
-455,241	-88,944	-0,162	-0,035
-454,226	-151,214	0,033	0,002
-453,211	59,722	-0,059	-0,043
-452,197	224,038	-0,099	0,118
-451,182	109,587	0,061	0,053
-450,168	-200,000	-0,005	-0,037
-449,153	340,002	0,067	0,097
-448,138	-90,602	-0,087	-0,018
-447,124	47,275	-0,052	-0,036
-446,109	107,532	-0,084	-0,074
-445,095	53,794	0,064	-0,045
-444,080	162,936	0,022	-0,023
-443,065	12,710	-0,035	-0,020
-442,051	800,000	-0,049	-0,099
-441,036	800,000	0,008	0,024
-440,022	-106,505	-0,021	0,003
-439,007	97,616	0,081	-0,068
-437,992	-35,631	0,051	0,020
-436,978	-102,312	-0,080	-0,014
-435,963	-63,849	0,099	0,030
-434,949	-13,745	-0,186	0,088
-433,934	-200,000	-0,009	-0,042
-432,919	494,859	0,111	-0,189
-431,905	128,012	-0,029	0,027
-430,890	49,081	0,044	-0,030
-429,876	36,231	-0,030	-0,019
-428,861	-120,036	-0,135	0,017
-427,846	800,000	-0,008	0,019
-426,832	800,000	-0,056	-0,143
-425,817	800,000	0,032	0,093
-424,803	295,338	0,122	-0,165
-423,788	-101,248	0,086	0,015
-422,773	35,377	0,030	-0,019
-421,759	65,246	0,094	0,070
-420,744	36,785	-0,150	-0,097
-419,730	152,311	-0,151	-0,152
-418,715	341,188	0,072	-0,104
-417,701	-200,000	-0,000	0,118
-416,686	124,814	-0,060	-0,055
-415,671	-200,000	-0,006	0,034
-414,657	800,000	-0,028	0,081
-413,642	119,673	0,031	0,029
-412,628	184,104	-0,041	0,044
-411,613	436,143	0,082	-0,132
-410,598	12,361	0,060	0,034
-409,584	-200,000	-0,002	-0,090
-408,569	85,941	0,173	0,140
-407,555	-200,000	-0,006	0,107
-406,540	-200,000	0,028	0,116
-405,525	-84,728	-0,033	-0,008
-404,511	-107,161	-0,071	0,011
-403,496	0,914	-0,057	0,030
-402,482	42,393	0,067	0,045
-401,467	-143,767	0,119	-0,008
-400,452	-63,263	0,053	-0,016
-399,438	800,000	-0,041	0,090
-398,423	-200,000	0,003	-0,030
-397,409	-200,000	0,037	-0,127
-396,394	35,961	-0,093	-0,060
-395,379	762,196	0,104	0,208
-394,365	75,031	-0,033	-0,026
-393,350	132,041	0,072	0,068
-392,336	429,428	-0,013	0,021
-391,321	56,416	0,042	-0,030
-390,306	-141,390	-0,225	0,016
-389,292	698,735	0,050	0,096
-388,277	36,202	0,128	0,083
-387,263	400,649	-0,029	0,044
-386,248	35,915	0,124	0,080
-385,233	800,000	-0,004	0,011
-384,219	173,292	-0,096	-0,102
-383,204	424,202	0,045	-0,071
-382,190	570,145	-0,037	-0,066
-381,175	597,251	0,045	0,081
-380,160	-14,218	-0,053	0,025
-379,146	-137,670	0,042	0,003
-378,131	-115,712	-0,064	0,009
-377,117	660,515	-0,009	0,018
-376,102	-7,151	0,091	0,045
-375,088	-44,432	-0,070	0,026
-374,073	-200,000	0,007	-0,081
-373,058	339,935	0,055	0,079
-372,044	-47,946	-0,069	-0,024
-371,029	800,000	-0,023	0,053
-370,015	800,000	-0,006	-0,015
-369,000	-200,000	0,050	-0,175
-367,985	-64,181	-0,158	0,047
-366,971	800,000	-0,013	0,030
-365,956	353,278	-0,021	0,030
-364,942	200,489	-0,041	0,046
-363,927	-121,067	0,105	-0,013
-362,912	-200,000	-0,008	0,037
-361,898	252,599	0,009	-0,011
-360,883	800,000	-0,019	0,042
-359,869	-200,000	-0,041	-0,157
-358,854	131,289	0,055	0,051
-357,839	240,795	0,047	0,057
-356,825	699,606	0,076	-0,148
-355,810	800,000	0,023	0,049
-354,796	364,049	-0,025	-0,037
-353,781	70,166	-0,057	-0,043
-352,766	-200,000	-0,001	0,087
-351,752	10,107	0,066	0,037
-350,737	-200,000	0,005	-0,134
-349,723	218,475	0,073	-0,085
-348,708	340,519	-0,045	-0,064
-347,693	269,754	-0,038	-0,049
-346,679	69,788	-0,101	0,077
-345,664	800,000	-0,035	-0,095
-344,650	-200,000	-0,009	0,051
-343,635	-158,495	-0,038	0,002
-342,620	230,068	-0,034	-0,041
-341,606	188,805	0,057	0,062
-340,591	800,000	0,049	-0,142
-339,577	-22,215	0,089	0,039
-338,562	800,000	-0,065	-0,161
-337,548	132,299	0,032	0,030
-336,533	-5,902	0,139	0,070
-335,518	-89,852	-0,133	0,028
-334,504	-106,792	-0,088	0,014
-333,489	210,642	-0,084	0,097
-332,475	450,532	0,010	-0,017
-331,460	126,138	-0,068	-0,063
-330,445	93,425	0,084	-0,070
-329,431	800,000	0,008	0,021
-328,416	245,733	0,042	0,051
-327,402	-80,623	-0,055	0,013
-326,387	361,500	0,049	-0,072
-325,372	28,826	-0,112	-0,069
-324,358	-200,000	-0,004	0,043
-323,343	589,310	0,037	-0,066
-322,329	-200,000	0,001	0,077
-321,314	240,016	0,042	0,051
-320,299	-29,434	0,123	0,051
-319,285	-117,769	-0,074	0,010
-318,270	624,043	-0,020	-0,036
-317,256	199,102	-0,059	-0,066
-316,241	763,733	0,074	0,148
-315,226	800,000	0,011	-0,034
-314,212	-200,000	0,022	-0,084
-313,197	710,306	0,010	0,019
-312,183	-200,000	0,008	-0,039
-311,168	800,000	-0,032	0,085
-310,153	800,000	-0,035	-0,085
-309,139	617,998	-0,027	0,050
-308,124	800,000	-0,040	-0,100
-307,110	26,946	0,087	0,053
-306,095	-121,931	0,141	0,017
-305,080	-156,763	-0,087	0,004
-304,066	689,019	-0,015	0,029
-303,051	51,187	0,041	-0,028
-302,037	-200,000	-0,006	-0,021
-301,022	800,000	-0,026	0,075
-300,008	36,702	0,197	0,127
-298,993	-86,775	0,106	-0,024
-297,978	-200,000	-0,000	0,027
-296,964	284,502	0,082	-0,108
-295,949	-129,041	0,076	-0,008
-294,935	343,275	-0,032	-0,046
-293,920	297,811	-0,068	0,092
-292,905	-200,000	0,023	0,199
-291,891	-200,000	0,005	-0,019
-290,876	158,732	0,018	0,019
-289,862	52,059	0,084	0,059
-288,847	-200,000	0,011	-0,151
-287,832	-200,000	-0,007	-0,058
-286,818	800,000	-0,024	-0,060
-285,803	111,020	-0,033	0,029
-284,789	680,002	-0,015	-0,029
-283,774	54,857	0,088	-0,062
-282,759	-200,000	0,001	0,034
-281,745	-200,000	0,016	0,124
-280,730	-200,000	-0,001	-0,085
-279,716	50,755	-0,099	0,069
-278,701	-200,000	0,034	0,125
-277,686	800,000	-0,015	0,045
-276,672	800,000	0,004	-0,012
-275,657	-200,000	0,013	-0,100
-274,643	15,925	-0,083	-0,048
-273,628	-18,302	-0,115	0,053
-272,613	-200,000	0,009	0,081
-271,599	-200,000	-0,019	-0,089
-270,584	-200,000	0,046	0,151
-269,570	-200,000	0,035	0,152
-268,555	410,024	0,034	-0,053
-267,540	-10,797	-0,106	0,051
-266,526	115,613	0,055	0,049
-265,511	160,053	-0,006	-0,006
-264,497	565,400	-0,060	0,108
-263,482	-91,812	0,083	0,017
-262,467	-200,000	0,019	0,165
-261,453	60,213	0,090	-0,065
-260,438	-200,000	-0,009	-0,064
-259,424	-200,000	0,008	-0,070
-258,409	800,000	-0,035	0,112
-257,395	-11,499	-0,108	-0,052
-256,380	-39,438	0,042	0,016
-255,365	325,727	0,097	0,136
-254,351	82,168	0,055	0,044
-253,336	-200,000	-0,002	-0,034
-252,322	-200,000	-0,010	0,038
-251,307	800,000	0,034	0,081
-250,292	254,118	0,034	0,043
-249,278	800,000	-0,028	0,086
-248,263	543,989	0,064	-0,112
-247,249	364,573	-0,068	0,101
-246,234	-19,925	0,014	-0,006
-245,219	87,208	-0,105	-0,084
-244,205	-200,000	0,009	-0,153
-243,190	432,881	0,021	-0,033
-242,176	44,957	-0,085	0,057
-241,161	-114,905	0,108	0,015
-240,146	228,538	-0,063	-0,075
-239,132	-169,025	0,135	0,004
-238,117	42,161	0,058	-0,038
-237,103	-53,269	-0,105	0,035
-236,088	-42,104	-0,162	0,060
-235,073	-76,232	0,105	0,027
-234,059	82,760	-0,048	0,038
-233,044	-107,533	-0,052	-0,008
-232,030	800,000	0,025	0,061
-231,015	-156,094	-0,047	-0,002
-230,000	-200,000	0,022	-0,096
-228,986	122,731	-0,076	0,069
-227,971	800,000	-0,033	0,078
-226,957	-200,000	0,020	-0,122
-225,942	-70,016	0,006	-0,002
-224,927	800,000	0,023	0,051
-223,913	379,129	-0,039	-0,058
-222,898	87,764	-0,127	-0,102
-221,884	-62,257	0,120	-0,036
-220,869	172,685	0,103	0,108
-219,855	20,666	0,093	-0,055
-218,840	33,574	0,072	-0,046
-217,825	83,911	-0,089	-0,071
-216,811	-200,000	0,011	-0,078
-215,796	3,962	0,123	-0,065
-214,782	147,707	0,012	-0,012
-213,767	156,345	0,028	0,028
-212,752	56,314	-0,034	0,024
-211,738	296,548	-0,080	0,107
-210,723	-200,000	0,016	-0,077
-209,709	-200,000	0,001	0,032
-208,694	208,649	-0,054	0,062
-207,679	-200,000	0,015	0,052
-206,665	349,182	-0,015	0,022
-205,650	723,256	0,072	0,141
-204,636	-5,772	0,128	0,064
-203,621	800,000	-0,036	0,102
-202,606	-126,053	-0,054	-0,006
-201,592	800,000	0,024	0,057
-200,577	-64,844	-0,072	0,021
-199,563	800,000	-0,038	0,078
-198,548	-66,372	0,092	-0,027
-197,533	-34,914	0,038	0,015
-196,519	-200,000	0,005	-0,056
-195,504	-200,000	0,003	-0,037
-194,490	-8,977	0,049	-0,024
-193,475	-200,000	-0,006	-0,174
-192,460	313,325	-0,069	-0,095
-191,446	58,645	-0,037	0,026
-190,431	207,560	0,122	0,139
-189,417	800,000	0,054	-0,151
-188,402	-29,928	-0,016	-0,007
-187,387	103,346	-0,122	-0,104
-186,373	-200,000	0,027	0,090
-185,358	-200,000	0,029	-0,101
-184,344	0,080	0,027	-0,014
-183,329	-105,899	0,083	0,013
-182,315	800,000	-0,040	0,084
-181,300	800,000	-0,050	0,153
-180,285	373,060	0,012	-0,018
-179,271	-200,000	-0,011	-0,074
-178,256	-200,000	-0,004	0,024
-177,242	-200,000	0,008	0,169
-176,227	738,577	-0,043	0,085
-175,212	-200,000	-0,007	0,118
-174,198	-200,000	-0,031	0,151
-173,183	470,039	0,005	0,007
-172,169	243,138	-0,086	-0,106
-171,154	463,391	-0,027	-0,045
-170,139	800,000	-0,054	-0,130
-169,125	-78,668	-0,055	0,013
-168,110	800,000	-0,071	0,174
-167,096	36,490	-0,029	-0,018
-166,081	-71,626	-0,109	-0,029
-165,066	800,000	0,009	-0,024
-164,052	-93,368	-0,063	-0,013
-163,037	-18,893	-0,104	0,047
-162,023	133,146	0,046	0,043
-161,008	-200,000	0,013	0,077
-159,993	146,446	0,216	0,211
-158,979	-200,000	-0,000	0,010
-157,964	-132,056	-0,143	-0,013
-156,950	-16,786	-0,092	-0,042
-155,935	519,809	-0,069	-0,118
-154,920	273,102	0,104	-0,133
-153,906	217,393	-0,024	0,028
-152,891	-14,992	-0,048	-0,022
-151,877	89,788	0,044	0,036
-150,862	-200,000	-0,008	-0,026
-149,847	251,898	-0,016	0,019
-148,833	-131,426	0,124	0,012
-147,818	-65,738	0,063	0,018
-146,804	203,988	-0,057	-0,065
-145,789	461,305	-0,091	-0,148
-144,775	-200,000	0,051	-0,169
-143,760	40,791	-0,044	-0,029
-142,745	154,596	0,047	0,047
-141,731	644,112	0,063	-0,117
-140,716	-200,000	0,007	-0,082
-139,702	-200,000	-0,026	0,084
-138,687	63,287	-0,173	0,126
-137,672	-97,873	0,099	-0,018
-136,658	-200,000	0,086	-0,000
-135,643	97,250	-0,092	-0,077
-134,629	302,749	-0,054	-0,073
-133,614	-3,527	-0,098	0,049
-132,599	-200,000	0,008	-0,137
-131,585	35,859	0,147	-0,094
-130,570	-200,000	-0,000	0,071
-129,556	623,840	-0,040	0,074
-128,541	718,193	0,035	-0,067
-127,526	800,000	-0,029	0,064
-126,512	-94,343	-0,078	0,015
-125,497	800,000	0,011	-0,032
-124,483	-106,978	0,064	0,010
-123,468	-66,168	0,061	-0,018
-122,453	-200,000	-0,012	-0,056
-121,439	569,880	-0,042	-0,074
-120,424	579,618	-0,031	-0,056
-119,410	303,659	-0,031	-0,041
-118,395	276,858	0,053	0,069
-117,380	334,529	0,058	-0,082
-116,366	-149,474	-0,115	-0,007
-115,351	-82,668	-0,092	0,022
-114,337	-200,000	0,036	-0,141
-113,322	443,160	-0,027	-0,044
-112,307	-73,710	-0,077	0,020
-111,293	577,917	0,030	0,053
-110,278	226,576	0,017	0,020
-109,264	454,626	-0,061	0,098
-108,249	-200,000	-0,001	-0,103
-107,234	800,000	-0,017	-0,047
-106,220	-154,466	-0,062	-0,003
-105,205	-48,564	0,019	-0,006
-104,191	342,840	-0,074	-0,106
-103,176	273,203	-0,056	-0,072
-102,162	-200,000	-0,023	-0,075
-101,147	-67,848	-0,048	0,013
-100,132	70,590	0,122	-0,091
-99,118	-98,862	-0,134	-0,025
-98,103	-111,921	-0,173	0,025
-97,089	-32,704	0,030	-0,012
-96,074	-200,000	-0,011	0,128
-95,059	-200,000	0,004	0,042
-94,045	-17,590	-0,104	0,047
-93,030	-79,946	-0,033	0,008
-92,016	249,671	-0,085	-0,105
-91,001	332,482	-0,058	-0,081
-89,986	-200,000	-0,009	0,094
-88,972	95,081	-0,031	-0,026
-87,957	-39,457	-0,126	-0,048
-86,943	210,623	0,027	-0,031
-85,928	141,740	-0,059	-0,057
-84,913	179,161	0,133	-0,141
-83,899	337,445	-0,074	0,105
-82,884	-200,000	-0,006	-0,029
-81,870	206,194	-0,030	0,034
-80,855	-200,000	-0,027	0,117
-79,840	129,103	-0,102	-0,095
-78,826	-200,000	0,028	-0,110
-77,811	-200,000	0,001	-0,051
-76,797	800,000	-0,061	0,128
-75,782	-180,309	0,075	-0,001
-74,767	309,380	0,019	0,025
-73,753	-200,000	-0,005	-0,092
-72,738	205,732	0,033	-0,037
-71,724	-200,000	-0,020	-0,103
-70,709	-200,000	-0,002	0,017
-69,694	38,599	0,061	-0,040
-68,680	-200,000	-0,003	-0,014
-67,665	800,000	0,022	-0,048
-66,651	-60,297	0,124	0,038
-65,636	33,245	-0,018	0,011
-64,622	800,000	-0,046	-0,106
-63,607	101,705	-0,108	-0,091
-62,592	-200,000	-0,011	-0,089
-61,578	-200,000	0,037	0,135
-60,563	-200,000	0,012	0,084
-59,549	69,014	0,127	-0,094
-58,534	-99,670	-1,366	-0,246
-57,519	800,000	-0,697	-1,473
-56,505	-200,000	-0,996	-4,367
-55,490	-61,733	0,584	-0,176
-54,476	800,000	4,981	11,702
-53,461	-200,000	14,521	261,858
-52,446	-200,000	695,914	2279,270
-51,432	604,641	1621,531	2938,326
-50,417	118,973	1629,857	1460,189
-49,403	76,825	1283,551	986,441
-48,388	37,505	1021,407	655,289
-47,373	23,211	980,766	582,269
-46,359	22,376	970,038	573,144
-45,344	21,251	965,442	566,734
-44,330	21,121	964,581	565,783
-43,315	20,998	962,887	564,365
-42,300	21,129	961,601	564,017
-41,286	21,035	960,778	563,206
-40,271	21,015	959,616	562,437
-39,257	20,965	958,817	561,783
-38,242	20,907	957,999	561,094
-37,227	20,966	957,135	560,758
-36,213	20,921	956,210	560,047
-35,198	20,916	955,300	559,475
-34,184	21,002	954,469	559,245
-33,169	20,987	953,822	558,797
-32,154	21,021	952,826	558,301
-31,140	21,044	951,836	557,770
-30,125	21,026	951,060	557,235
-29,111	20,986	950,327	556,655
-28,096	21,011	949,630	556,306
-27,082	20,999	948,908	555,822
-26,067	21,002	948,053	555,310
-25,052	20,986	947,368	554,833
-24,038	21,020	946,739	554,553
-23,023	20,990	946,223	554,134
-22,009	21,028	945,565	553,847
-20,994	21,018	944,914	553,413
-19,979	21,031	944,335	553,091
-18,965	21,032	943,590	552,638
-17,950	21,063	943,120	552,440
-16,936	20,969	942,341	551,661
-15,921	20,956	941,762	551,260
-14,906	20,875	941,061	550,568
-13,892	20,867	940,583	550,244
-12,877	20,940	939,749	549,965
-11,863	20,863	939,219	549,389
-10,848	20,894	938,664	549,141
-9,833	20,967	938,295	549,133
-8,819	20,964	937,645	548,723
-7,804	20,907	936,934	548,103
-6,790	20,861	936,425	547,638
-5,775	20,899	935,820	547,383
-4,760	20,839	935,167	546,789
-3,746	20,903	934,414	546,529
-2,731	20,755	933,749	545,654
-1,717	20,714	933,089	545,115
-0,702	20,681	932,483	544,636
0,313	20,487	931,873	544,493
1,327	22,825	929,430	550,356
2,342	30,218	806,443	497,522
3,356	24,616	507,779	303,690
4,371	0,756	374,069	193,307
5,386	-2,033	357,074	181,081
6,400	-3,072	351,008	176,733
7,415	-3,716	348,414	174,637
8,429	-3,749	346,838	173,792
9,444	-3,889	346,066	173,223
10,459	-3,761	345,334	172,993
11,473	-3,910	344,689	172,479
12,488	-3,886	344,196	172,244
13,502	-3,939	343,482	171,810
14,517	-3,958	343,039	171,550
15,531	-3,780	342,486	171,468
16,546	-3,632	341,969	171,368
17,561	-4,039	341,763	170,770
18,575	-3,802	341,440	170,873
19,590	-3,785	340,834	170,574
20,604	-3,778	340,601	170,451
21,619	-3,939	340,246	170,069
22,634	-3,846	339,899	169,990
23,648	-3,819	339,555	169,834
24,663	-3,748	339,082	169,664
25,677	-3,839	339,007	169,506
26,692	-3,799	338,436	169,252
27,707	-3,885	338,304	169,071
28,721	-3,768	337,905	168,992
29,736	-3,839	337,531	168,707
30,750	-3,819	337,245	168,573
31,765	-3,821	337,030	168,448
32,780	-3,840	336,827	168,309
33,794	-3,700	336,383	168,235
34,809	-3,826	336,114	167,940
35,823	-3,895	335,915	167,745
36,838	-3,865	335,524	167,569
37,853	-3,939	335,398	167,406
38,867	-3,842	334,997	167,303
39,882	-3,857	334,683	167,114
40,896	-3,822	334,443	167,020
41,911	-3,796	334,272	166,949
42,926	-3,775	333,787	166,716
43,940	-3,656	333,481	166,685
44,955	-3,698	333,239	166,501
45,969	-3,886	333,129	166,216
46,984	-3,849	332,832	166,095
47,999	-3,716	332,564	166,099
49,013	-3,883	332,344	165,784
50,028	-3,742	332,135	165,825
51,042	-3,755	331,818	165,637
52,057	-3,868	331,596	165,383
53,071	-3,830	331,441	165,335
54,086	-3,834	331,213	165,201
55,101	-3,950	330,866	164,881
56,115	-3,849	330,577	164,838
57,130	-3,886	330,329	164,658
58,144	-3,891	329,970	164,458
59,159	-3,869	329,764	164,366
60,174	-3,853	329,527	164,251
61,188	-3,895	329,375	164,113
62,203	-3,861	329,082	163,991
63,217	-3,892	328,802	163,802
64,232	-3,860	328,482	163,664
65,247	-3,766	328,234	163,631
66,261	-3,849	327,951	163,382
67,276	-3,775	327,703	163,327
68,290	-3,913	327,439	163,026
69,305	-3,781	327,088	162,985
70,320	-3,901	326,945	162,765
71,334	-3,736	326,718	162,822
72,349	-4,007	326,585	162,438
73,363	-3,747	326,087	162,466
74,378	-3,659	325,847	162,430
75,393	-3,743	325,632	162,215
76,407	-3,728	325,364	162,084
77,422	-3,933	325,125	161,722
78,436	-3,917	324,920	161,623
79,451	-3,697	324,589	161,689
80,466	-3,793	324,415	161,480
81,480	-3,836	324,107	161,266
82,495	-3,689	323,910	161,316
83,509	-3,815	323,659	161,037
84,524	-3,759	323,345	160,929
85,539	-3,796	323,253	160,828
86,553	-3,824	323,012	160,663
87,568	-3,837	322,681	160,469
88,582	-3,778	322,502	160,431
89,597	-3,813	322,092	160,174
90,611	-3,856	321,950	160,042
91,626	-3,680	321,699	160,096
92,641	-3,878	321,531	159,780
93,655	-3,753	321,238	159,758
94,670	-3,787	320,996	159,586
95,684	-3,831	320,936	159,494
96,699	-3,765	320,510	159,340
97,714	-3,845	320,276	159,122
98,728	-3,720	320,027	159,121
99,743	-3,882	319,927	158,880
100,757	-3,738	319,648	158,884
101,772	-3,775	319,344	158,679
102,787	-3,869	319,304	158,542
103,801	-3,687	318,637	158,395
104,816	-3,903	318,721	158,188
105,830	-3,909	318,518	158,066
106,845	-3,880	318,186	157,920
107,860	-3,746	317,969	157,943
108,874	-3,843	317,698	157,689
109,889	-3,815	317,502	157,608
110,903	-3,767	317,275	157,532
111,918	-3,707	317,017	157,456
112,933	-3,824	316,803	157,209
113,947	-3,804	316,501	157,067
114,962	-3,796	316,362	156,992
115,976	-3,750	316,121	156,909
116,991	-3,828	315,858	156,680
118,006	-3,789	315,632	156,596
119,020	-3,679	315,446	156,608
120,035	-3,618	315,235	156,555
121,049	-3,686	315,140	156,420
122,064	-3,723	314,923	156,259
123,079	-3,698	314,643	156,133
124,093	-3,722	314,426	155,986
125,108	-3,690	314,083	155,836
126,122	-3,757	313,879	155,649
127,137	-3,720	313,646	155,559
128,151	-3,646	313,427	155,515
129,166	-3,760	313,292	155,313
130,181	-3,655	312,913	155,223
131,195	-3,742	312,709	155,016
132,210	-3,872	312,540	154,780
133,224	-3,710	312,238	154,789
134,239	-3,774	312,028	154,603
135,254	-3,786	311,807	154,466
136,268	-3,803	311,728	154,395
137,283	-3,834	311,333	154,153
138,297	-3,703	311,149	154,188
139,312	-3,904	310,855	153,816
140,327	-3,781	310,635	153,822
141,341	-3,638	310,402	153,844
142,356	-3,715	310,396	153,746
143,370	-3,668	310,063	153,618
144,385	-3,533	309,780	153,607
145,400	-3,685	309,619	153,353
146,414	-3,779	309,437	153,150
147,429	-3,774	309,225	153,036
148,443	-3,738	308,987	152,943
149,458	-3,782	308,705	152,743
150,473	-3,707	308,621	152,766
151,487	-3,647	308,376	152,694
152,502	-3,678	308,185	152,554
153,516	-3,759	307,873	152,302
154,531	-3,661	307,561	152,236
155,546	-3,572	307,343	152,207
156,560	-3,705	307,380	152,073
157,575	-3,772	306,927	151,766
158,589	-3,674	306,652	151,718
159,604	-3,689	306,460	151,594
160,619	-3,435	306,194	151,714
161,633	-3,646	306,000	151,384
162,648	-3,683	305,979	151,322
163,662	-3,724	305,839	151,196
164,677	-3,763	305,482	150,966
165,692	-3,644	305,297	150,984
166,706	-3,714	305,010	150,757
167,721	-3,572	304,953	150,862
168,735	-3,609	304,801	150,736
169,750	-3,497	304,585	150,731
170,764	-3,665	304,352	150,428
171,779	-3,612	304,185	150,387
172,794	-3,594	303,943	150,273
173,808	-3,673	303,856	150,135
174,823	-3,723	303,533	149,910
175,837	-3,560	303,253	149,927
176,852	-3,632	303,054	149,741
177,867	-3,713	302,998	149,617
178,881	-3,661	302,727	149,522
179,896	-3,698	302,506	149,362
180,910	-3,695	302,351	149,276
181,925	-3,523	302,015	149,273
182,940	-3,547	301,874	149,165
183,954	-3,554	301,687	149,052
184,969	-3,487	301,540	149,035
185,983	-3,524	301,327	148,878
186,998	-3,480	300,968	148,732
188,013	-3,599	300,842	148,535
189,027	-3,481	300,553	148,500
190,042	-3,639	300,330	148,215
191,056	-3,719	300,311	148,112
192,071	-3,731	300,036	147,950
193,086	-3,480	299,851	148,101
194,100	-3,565	299,415	147,786
195,115	-3,473	299,366	147,842
196,129	-3,476	299,118	147,704
197,144	-3,608	298,983	147,490
198,159	-3,673	298,721	147,282
199,173	-3,565	298,415	147,227
200,188	-3,621	298,146	147,024
201,202	-3,601	298,047	146,983
202,217	-3,711	297,910	146,791
203,232	-3,717	297,719	146,678
204,246	-3,536	297,416	146,698
205,261	-3,554	297,323	146,621
206,275	-3,517	297,162	146,565
207,290	-3,428	296,872	146,498
208,304	-3,548	296,675	146,268
209,319	-3,568	296,515	146,156
210,334	-3,644	296,287	145,954
211,348	-3,376	295,992	146,065
212,363	-3,608	295,913	145,780
213,377	-3,624	295,784	145,688
214,392	-3,594	295,509	145,570
215,407	-3,555	295,382	145,533
216,421	-3,515	294,996	145,370
217,436	-3,673	294,893	145,148
218,450	-3,614	294,624	145,062
219,465	-3,582	294,500	145,019
220,480	-3,541	294,387	144,991
221,494	-3,558	294,129	144,835
222,509	-3,502	293,876	144,753
223,523	-3,517	293,768	144,672
224,538	-3,435	293,473	144,595
225,553	-3,517	293,338	144,434
226,567	-3,372	293,088	144,442
227,582	-3,537	293,058	144,251
228,596	-3,454	292,794	144,190
229,611	-3,573	292,555	143,942
230,626	-3,625	292,489	143,845
231,640	-3,537	292,291	143,822
232,655	-3,578	291,956	143,604
233,669	-3,459	291,678	143,572
234,684	-3,527	291,600	143,454
235,699	-3,346	291,304	143,474
236,713	-3,641	291,253	143,145
237,728	-3,561	290,998	143,086
238,742	-3,475	290,707	143,014
239,757	-3,631	290,680	142,835
240,772	-3,474	290,370	142,823
241,786	-3,645	290,260	142,590
242,801	-3,562	290,102	142,580
243,815	-3,598	289,904	142,435
244,830	-3,644	289,826	142,339
245,844	-3,532	289,575	142,312
246,859	-3,535	289,272	142,148
247,874	-3,502	289,173	142,119
248,888	-3,546	289,038	141,997
249,903	-3,517	288,831	141,911
250,917	-3,500	288,442	141,724
251,932	-3,680	288,420	141,525
252,947	-3,625	288,087	141,402
253,961	-3,717	287,941	141,229
254,976	-3,689	287,778	141,164
255,990	-3,576	287,581	141,164
257,005	-2,794	287,835	142,035
258,020	-0,700	288,470	144,369
259,034	0,447	288,816	145,645
260,049	1,045	288,626	146,115
261,063	1,430	288,603	146,464
262,078	1,523	288,763	146,623
263,093	1,775	288,653	146,799
264,107	1,982	288,548	146,933
265,122	2,333	288,322	147,144
266,136	2,286	288,198	147,022
267,151	2,558	288,053	147,198
268,166	2,434	287,845	146,959
269,180	2,323	287,735	146,782
270,195	2,333	287,687	146,754
271,209	2,475	287,350	146,706
272,224	2,277	287,066	146,358
273,239	2,141	286,967	146,164
274,253	2,301	286,669	146,152
275,268	2,338	286,398	146,037
276,282	2,251	286,102	145,789
277,297	2,222	285,967	145,680
278,312	2,205	285,894	145,614
279,326	2,237	285,818	145,592
280,341	2,167	285,807	145,507
281,355	2,170	285,470	145,325
282,370	2,238	285,141	145,209
283,384	2,213	284,813	145,005
284,399	2,277	284,852	145,073
285,414	2,153	284,586	144,806
286,428	2,255	284,323	144,758
287,443	2,178	284,211	144,614
288,457	2,057	283,985	144,371
289,472	2,027	283,891	144,281
290,487	2,244	283,568	144,311
291,501	2,130	283,455	144,132
292,516	2,116	283,180	143,966
293,530	2,228	283,009	143,973
294,545	2,161	282,869	143,825
295,560	1,982	282,788	143,602
296,574	1,962	282,588	143,468
297,589	2,032	282,189	143,319
298,603	2,059	281,983	143,227
299,618	2,072	281,869	143,168
300,633	2,116	281,777	143,151
301,647	2,165	281,829	143,210
302,662	2,108	281,633	143,044
303,676	2,341	281,401	143,133
304,691	2,177	281,132	142,829
305,706	2,372	280,868	142,866
306,720	2,329	280,792	142,774
307,735	2,413	280,610	142,748
308,749	2,377	280,244	142,515
309,764	2,238	280,261	142,380
310,779	2,217	280,032	142,232
311,793	2,222	279,842	142,127
312,808	2,276	279,612	142,048
313,822	2,254	279,454	141,935
314,837	2,200	279,305	141,796
315,852	2,280	279,077	141,742
316,866	2,150	278,999	141,569
317,881	2,270	278,822	141,578
318,895	2,163	278,602	141,354
319,910	2,232	278,472	141,340
320,925	2,151	278,260	141,144
321,939	2,320	278,008	141,161
322,954	2,250	278,074	141,117
323,968	2,418	277,761	141,102
324,983	2,425	277,498	140,961
325,997	2,298	277,418	140,790
327,012	2,356	277,174	140,708
328,027	2,316	276,988	140,564
329,041	2,307	276,808	140,452
330,056	2,397	276,716	140,476
331,070	2,433	276,469	140,371
332,085	2,358	276,274	140,191
333,100	2,458	276,107	140,185
334,114	2,290	275,876	139,900
335,129	2,414	275,676	139,901
336,143	2,555	275,426	139,891
337,158	2,451	275,280	139,709
338,173	2,485	275,273	139,725
339,187	2,434	274,993	139,523
340,202	2,538	274,847	139,532
341,216	2,262	274,664	139,173
342,231	2,139	274,558	138,995
343,246	2,302	274,334	139,019
344,260	2,332	274,264	138,998
345,275	2,367	274,035	138,901
346,289	2,335	273,845	138,763
347,304	2,507	273,651	138,809
348,319	2,305	273,627	138,601
349,333	2,259	273,303	138,382
350,348	2,408	272,985	138,345
351,362	2,541	272,805	138,362
352,377	2,405	272,663	138,155
353,392	2,244	272,593	137,960
354,406	2,191	272,511	137,858
355,421	190,813	1348,849	1425,855
356,435	154,022	1480,071	1425,975
