DTS Sentinel unit serial number:	SN410029Multiplexer serial number:	ORYXHardware model number:	OX2-SRSoftware version number:	ORYX F/W v4,00 Oryx Data Collector v3.7.2.0data status	okinstallation	B4 Nyhavnadifferential loss correction	single-endedforward channel	channel 2reverse channel	N/Adate	2023/12/16time	05:35:13forward acquisition time	300,00reverse acquisition time	0,00gamma	499,1914k internal	0,3128k external	0,3128temperature offset calibration	1,0000default loss term (dB/km)	0,3820temperature slope calibration	1,0000multiplexer offset coefficient	1,0000multiplexer slope coefficient	1,0000fibre end	0,00T internal ref (°C)	22,18T ext. ref 1 (°C)	7,41T ext. ref 2 (°C)	7,58length (m)	temperature (°C)	Stokes	anti-Stokes-744,400	19,731	-0,089	-0,053
-743,385	-86,757	-0,268	-0,060
-742,371	-79,020	0,091	-0,023
-741,356	-60,142	-0,223	0,070
-740,342	698,426	-0,025	-0,050
-739,327	-127,289	-0,206	0,022
-738,312	175,832	0,067	-0,072
-737,298	-158,386	-0,326	-0,014
-736,283	384,128	0,104	-0,160
-735,269	-97,641	-0,189	0,036
-734,254	-0,292	0,075	0,040
-733,239	-5,735	-0,319	-0,162
-732,225	-2,127	0,096	-0,050
-731,210	216,351	0,058	-0,068
-730,196	-93,724	0,057	-0,012
-729,181	-200,000	-0,002	-0,087
-728,167	-52,265	-0,038	0,013
-727,152	381,155	-0,037	-0,056
-726,137	800,000	-0,033	-0,107
-725,123	-142,818	-0,156	-0,011
-724,108	-107,029	0,050	-0,008
-723,094	88,016	-0,139	-0,115
-722,079	800,000	-0,083	-0,218
-721,064	-131,721	-0,118	-0,011
-720,050	-54,977	-0,021	-0,007
-719,035	800,000	0,023	0,074
-718,021	-200,000	0,019	-0,094
-717,006	126,218	-0,129	-0,122
-715,991	512,465	-0,075	-0,130
-714,977	53,354	-0,128	-0,091
-713,962	24,451	-0,053	-0,032
-712,948	-200,000	0,009	-0,054
-711,933	-200,000	0,006	-0,140
-710,918	-88,762	-0,050	-0,011
-709,904	-136,585	-0,158	-0,013
-708,889	-0,412	-0,103	-0,054
-707,875	-200,000	-0,025	-0,096
-706,860	-200,000	-0,005	-0,036
-705,845	270,409	0,018	-0,024
-704,831	-200,000	-0,003	-0,033
-703,816	255,177	-0,094	-0,119
-702,802	-117,225	-0,099	-0,013
-701,787	-200,000	-0,013	-0,087
-700,772	112,321	0,058	0,053
-699,758	479,574	0,026	0,044
-698,743	90,975	-0,050	-0,042
-697,729	-200,000	0,065	-0,000
-696,714	-66,897	-0,050	-0,014
-695,699	-200,000	-0,009	0,069
-694,685	800,000	0,017	0,049
-693,670	-140,369	-0,023	-0,002
-692,656	-200,000	0,007	0,048
-691,641	-99,115	-0,118	-0,022
-690,627	472,428	-0,096	-0,161
-689,612	800,000	0,023	-0,058
-688,597	24,122	-0,072	0,044
-687,583	-96,731	-0,061	-0,012
-686,568	267,959	-0,018	0,024
-685,554	-0,015	0,083	-0,044
-684,539	-200,000	-0,017	-0,068
-683,524	83,376	-0,059	0,048
-682,510	-33,636	0,112	-0,046
-681,495	800,000	-0,057	-0,132
-680,481	-200,000	-0,017	-0,106
-679,466	-124,508	0,095	0,011
-678,451	-12,141	-0,122	-0,059
-677,437	304,260	0,053	-0,073
-676,422	418,803	-0,047	-0,074
-675,408	17,528	0,017	0,010
-674,393	-79,889	0,019	0,005
-673,378	-41,444	-0,069	0,026
-672,364	800,000	-0,050	-0,158
-671,349	627,498	0,049	-0,092
-670,335	282,380	0,084	-0,112
-669,320	-32,166	-0,092	-0,038
-668,305	-6,775	0,033	-0,017
-667,291	-3,317	-0,127	-0,066
-666,276	-200,000	-0,004	-0,212
-665,262	-200,000	-0,012	-0,102
-664,247	-200,000	-0,019	-0,095
-663,232	-87,286	0,160	-0,036
-662,218	111,430	0,013	-0,011
-661,203	-13,128	0,041	-0,020
-660,189	-200,000	0,004	-0,026
-659,174	236,766	-0,056	-0,069
-658,159	-110,956	-0,153	-0,023
-657,145	-50,782	-0,042	0,015
-656,130	183,039	-0,063	0,069
-655,116	-116,737	0,201	0,027
-654,101	-137,967	-0,037	-0,003
-653,086	195,139	0,074	0,083
-652,072	-170,490	-0,108	-0,003
-651,057	-136,554	-0,150	0,013
-650,043	136,320	-0,040	-0,039
-649,028	-17,646	-0,168	0,078
-648,014	348,531	0,058	-0,085
-646,999	-200,000	0,001	-0,013
-645,984	800,000	-0,041	0,085
-644,970	49,773	-0,173	0,120
-643,955	215,941	-0,079	-0,093
-642,941	14,047	-0,039	-0,023
-641,926	124,658	-0,086	-0,080
-640,911	-46,841	0,104	-0,038
-639,897	110,584	0,071	-0,063
-638,882	-8,880	-0,183	0,090
-637,868	-169,334	-0,066	-0,002
-636,853	-65,123	-0,164	-0,049
-635,838	93,472	-0,060	-0,051
-634,824	800,000	0,068	-0,176
-633,809	-173,552	-0,056	-0,001
-632,795	484,979	0,021	-0,036
-631,780	-109,781	-0,149	-0,023
-630,765	800,000	-0,033	-0,080
-629,751	-40,850	-0,082	-0,031
-628,736	149,748	-0,108	-0,109
-627,722	-33,480	-0,034	0,014
-626,707	-88,369	0,065	0,014
-625,692	81,228	0,175	0,140
-624,678	260,891	-0,046	-0,059
-623,663	47,936	0,072	0,050
-622,649	-200,000	-0,059	-0,233
-621,634	101,824	0,119	-0,103
-620,619	-200,000	-0,002	-0,038
-619,605	-31,104	-0,087	-0,036
-618,590	800,000	0,027	0,072
-617,576	-200,000	-0,027	0,199
-616,561	-7,104	0,062	-0,031
-615,546	-57,040	-0,054	0,018
-614,532	450,229	-0,097	0,159
-613,517	-147,729	-0,136	0,008
-612,503	4,075	0,059	-0,032
-611,488	-200,000	0,001	0,036
-610,474	-1,002	0,063	-0,033
-609,459	-200,000	-0,011	0,067
-608,444	800,000	-0,037	-0,091
-607,430	800,000	0,034	0,081
-606,415	180,983	-0,074	-0,081
-605,401	-68,621	0,086	-0,024
-604,386	-200,000	-0,002	-0,053
-603,371	-38,494	0,063	0,024
-602,357	-23,066	-0,166	-0,074
-601,342	-200,000	0,001	0,039
-600,328	-200,000	-0,076	-0,000
-599,313	277,821	-0,047	-0,063
-598,298	273,404	0,095	-0,125
-597,284	-200,000	0,008	-0,037
-596,269	800,000	0,027	-0,058
-595,255	-200,000	-0,005	-0,117
-594,240	279,007	-0,091	0,120
-593,225	338,782	-0,067	-0,097
-592,211	151,811	-0,069	-0,070
-591,196	245,216	0,068	-0,085
-590,182	71,651	0,078	0,060
-589,167	179,856	-0,011	-0,012
-588,152	-144,334	-0,081	-0,006
-587,138	-200,000	0,034	-0,132
-586,123	800,000	-0,065	-0,184
-585,109	588,263	-0,055	-0,101
-584,094	800,000	-0,052	0,137
-583,079	-124,288	0,065	-0,007
-582,065	800,000	-0,032	0,086
-581,050	53,959	0,094	-0,066
-580,036	-14,554	-0,066	0,031
-579,021	118,057	-0,070	-0,064
-578,006	-56,573	-0,115	-0,037
-576,992	146,815	0,028	-0,028
-575,977	-200,000	0,012	-0,046
-574,963	294,287	0,069	0,093
-573,948	179,040	-0,072	0,078
-572,934	56,810	-0,073	-0,053
-571,919	800,000	-0,019	0,042
-570,904	472,918	-0,099	0,166
-569,890	-200,000	-0,004	0,035
-568,875	-200,000	-0,010	0,087
-567,861	-21,799	0,119	-0,053
-566,846	-23,362	-0,144	0,064
-565,831	800,000	-0,036	-0,077
-564,817	-200,000	0,007	-0,212
-563,802	-200,000	0,000	-0,146
-562,788	800,000	0,018	-0,045
-561,773	-106,941	0,035	-0,006
-560,758	-193,862	0,112	-0,001
-559,744	166,019	0,071	-0,075
-558,729	-200,000	0,003	0,037
-557,715	-32,114	-0,061	0,025
-556,700	165,329	-0,112	-0,118
-555,685	279,670	0,026	-0,035
-554,671	-150,484	0,094	0,005
-553,656	402,025	0,080	0,125
-552,642	198,921	0,116	0,132
-551,627	-200,000	0,002	-0,036
-550,612	103,448	-0,098	-0,085
-549,598	800,000	0,080	-0,203
-548,583	183,919	0,046	0,050
-547,569	366,541	-0,060	-0,090
-546,554	17,272	0,146	-0,085
-545,539	-200,000	0,041	0,137
-544,525	-24,893	0,108	0,047
-543,510	83,792	0,066	0,053
-542,496	800,000	-0,011	0,023
-541,481	800,000	0,028	0,073
-540,466	71,502	-0,044	0,033
-539,452	33,675	0,133	0,085
-538,437	230,670	0,079	-0,096
-537,423	-28,830	-0,028	0,012
-536,408	164,246	-0,053	0,056
-535,393	800,000	0,008	-0,022
-534,379	-200,000	0,005	-0,089
-533,364	48,013	0,044	-0,030
-532,350	-200,000	0,004	-0,089
-531,335	1,132	0,089	0,047
-530,321	279,866	0,062	0,082
-529,306	-122,342	-0,092	0,011
-528,291	-200,000	-0,022	-0,078
-527,277	-200,000	-0,012	-0,061
-526,262	120,490	0,045	0,042
-525,248	-200,000	-0,008	-0,119
-524,233	-200,000	0,021	-0,115
-523,218	-200,000	-0,010	0,147
-522,204	-49,653	0,100	0,035
-521,189	-3,493	-0,157	-0,080
-520,175	295,995	-0,021	0,029
-519,160	-200,000	-0,002	-0,095
-518,145	50,327	0,023	-0,016
-517,131	382,536	0,023	0,035
-516,116	800,000	0,024	0,067
-515,102	141,293	0,116	-0,113
-514,087	114,428	-0,038	-0,034
-513,072	800,000	0,028	-0,067
-512,058	800,000	0,031	-0,070
-511,043	-134,012	0,122	-0,011
-510,029	800,000	-0,045	0,124
-509,014	800,000	0,021	-0,049
-507,999	800,000	-0,011	-0,030
-506,985	89,133	-0,092	-0,075
-505,970	-200,000	-0,007	-0,145
-504,956	207,833	-0,075	0,087
-503,941	-200,000	0,018	0,086
-502,926	-200,000	-0,012	-0,060
-501,912	113,802	0,018	0,016
-500,897	800,000	-0,011	0,037
-499,883	800,000	0,059	-0,169
-498,868	15,318	-0,058	0,033
-497,853	-156,969	-0,137	-0,006
-496,839	-99,879	-0,132	-0,024
-495,824	691,755	-0,018	0,035
-494,810	195,218	-0,060	-0,067
-493,795	55,596	-0,028	0,020
-492,781	4,901	0,152	-0,082
-491,766	5,953	-0,080	0,043
-490,751	8,445	-0,051	0,028
-489,737	-200,000	0,021	0,122
-488,722	-146,919	0,073	-0,005
-487,708	339,485	0,034	-0,049
-486,693	294,508	-0,084	-0,114
-485,678	-166,790	0,075	0,002
-484,664	-98,174	-0,070	-0,013
-483,649	117,719	-0,088	-0,080
-482,635	-12,598	-0,033	0,016
-481,620	-111,908	0,121	0,018
-480,605	800,000	-0,049	0,150
-479,591	-200,000	-0,004	0,040
-478,576	-140,605	0,053	0,004
-477,562	25,870	-0,098	-0,060
-476,547	113,146	0,070	0,062
-475,532	297,679	-0,054	-0,073
-474,518	378,387	0,108	0,164
-473,503	-200,000	-0,034	-0,143
-472,489	136,838	0,072	0,069
-471,474	-87,221	-0,049	-0,011
-470,459	194,217	-0,058	-0,065
-469,445	54,368	-0,026	0,019
-468,430	347,689	0,059	0,085
-467,416	-36,512	-0,095	0,038
-466,401	20,853	0,112	-0,067
-465,386	800,000	0,019	0,059
-464,372	81,291	0,107	-0,085
-463,357	800,000	0,008	0,019
-462,343	800,000	0,014	-0,035
-461,328	-200,000	0,010	-0,116
-460,313	224,777	-0,086	-0,103
-459,299	-144,072	0,174	0,012
-458,284	6,702	0,084	-0,046
-457,270	376,513	-0,056	0,085
-456,255	800,000	0,018	0,052
-455,241	-200,000	0,024	0,085
-454,226	800,000	-0,040	0,083
-453,211	14,874	0,179	0,103
-452,197	-51,795	-0,157	0,053
-451,182	12,720	-0,066	0,038
-450,168	31,610	0,025	-0,016
-449,153	800,000	0,030	-0,092
-448,138	-61,006	0,103	-0,032
-447,124	-138,815	-0,074	-0,006
-446,109	-200,000	-0,005	0,039
-445,095	-200,000	0,001	-0,023
-444,080	-200,000	0,019	0,068
-443,065	-200,000	0,007	0,065
-442,051	-167,884	-0,111	0,003
-441,036	62,428	-0,048	-0,035
-440,022	368,769	-0,091	-0,136
-439,007	800,000	-0,025	0,052
-437,992	800,000	0,023	0,049
-436,978	44,915	-0,058	-0,039
-435,963	26,302	-0,067	-0,041
-434,949	-200,000	0,012	-0,049
-433,934	-50,603	0,048	0,017
-432,919	-42,618	-0,074	0,027
-431,905	-200,000	-0,009	-0,099
-430,890	-200,000	-0,012	0,054
-429,876	51,573	0,038	0,027
-428,861	800,000	-0,066	0,136
-427,846	-85,262	0,027	0,006
-426,832	-132,704	-0,104	-0,010
-425,817	443,619	0,053	-0,085
-424,803	131,023	-0,092	0,086
-423,788	-120,976	0,061	-0,007
-422,773	39,119	-0,015	0,010
-421,759	10,337	0,054	0,030
-420,744	202,986	-0,091	-0,104
-419,730	-91,532	0,058	-0,012
-418,715	46,004	-0,091	0,062
-417,701	-71,888	-0,052	0,014
-416,686	-200,000	0,022	-0,086
-415,671	440,855	0,045	-0,072
-414,657	-110,524	-0,127	-0,019
-413,642	-43,139	0,002	0,001
-412,628	800,000	-0,045	-0,093
-411,613	527,065	-0,052	0,090
-410,598	-65,717	0,022	-0,006
-409,584	7,090	0,084	0,046
-408,569	-17,285	0,051	0,024
-407,555	-200,000	0,012	0,106
-406,540	-200,000	-0,020	0,168
-405,525	-137,705	-0,074	-0,006
-404,511	-141,106	-0,149	0,011
-403,496	-58,990	0,097	0,031
-402,482	622,900	0,008	-0,014
-401,467	520,546	0,034	0,059
-400,452	-149,592	0,035	0,002
-399,438	-15,975	0,033	0,015
-398,423	-200,000	-0,019	0,128
-397,409	-200,000	-0,014	0,081
-396,394	369,484	-0,063	-0,094
-395,379	52,633	0,037	0,026
-394,365	-103,729	0,213	-0,036
-393,350	58,343	0,113	0,082
-392,336	103,553	0,108	0,093
-391,321	-46,818	-0,073	0,026
-390,306	-66,434	-0,031	-0,009
-389,292	-200,000	0,001	-0,238
-388,277	528,519	-0,013	0,023
-387,263	-111,198	0,099	-0,015
-386,248	-99,231	0,091	-0,017
-385,233	-200,000	-0,029	-0,122
-384,219	4,596	-0,125	-0,067
-383,204	-109,947	-0,105	0,016
-382,190	-200,000	0,011	0,134
-381,175	-200,000	-0,002	0,019
-380,160	21,381	0,080	-0,048
-379,146	-40,590	0,112	-0,042
-378,131	-200,000	-0,031	0,207
-377,117	181,371	-0,052	0,057
-376,102	-200,000	-0,025	-0,120
-375,088	10,055	0,034	-0,019
-374,073	-27,136	0,077	0,033
-373,058	-15,566	0,133	0,062
-372,044	-200,000	0,013	0,079
-371,029	-21,836	0,116	0,052
-370,015	-200,000	-0,020	0,114
-369,000	-116,857	-0,050	0,007
-367,985	167,810	-0,029	-0,030
-366,971	-200,000	-0,003	0,056
-365,956	327,342	-0,064	0,090
-364,942	120,808	-0,086	-0,078
-363,927	46,413	0,042	-0,029
-362,912	279,629	-0,076	0,099
-361,898	-200,000	0,019	0,169
-360,883	800,000	-0,025	0,078
-359,869	-52,144	0,055	0,019
-358,854	104,217	0,148	0,128
-357,839	57,438	0,063	-0,045
-356,825	-96,773	0,139	0,026
-355,810	184,513	0,074	0,081
-354,796	-200,000	0,049	0,247
-353,781	140,025	-0,069	-0,067
-352,766	-200,000	-0,002	-0,051
-351,752	324,891	-0,046	-0,064
-350,737	81,995	-0,067	0,054
-349,723	-11,002	0,033	-0,016
-348,708	-200,000	0,011	0,059
-347,693	-200,000	0,014	-0,116
-346,679	-91,119	-0,084	-0,017
-345,664	800,000	-0,041	0,103
-344,650	18,184	-0,089	-0,052
-343,635	2,674	0,033	0,017
-342,620	800,000	0,024	0,075
-341,606	58,179	0,071	0,051
-340,591	800,000	0,039	-0,084
-339,577	-200,000	0,016	-0,117
-338,562	-8,182	-0,123	0,060
-337,548	-143,495	0,080	-0,006
-336,533	-164,493	0,119	-0,004
-335,518	-200,000	0,009	0,122
-334,504	736,229	-0,039	0,077
-333,489	412,548	-0,056	0,088
-332,475	342,733	-0,063	0,090
-331,460	312,375	-0,063	0,086
-330,445	-98,531	0,031	0,006
-329,431	426,958	0,116	0,184
-328,416	303,105	0,047	0,063
-327,402	-200,000	0,049	-0,163
-326,387	-90,187	-0,037	0,008
-325,372	-200,000	-0,003	-0,028
-324,358	-200,000	-0,030	-0,268
-323,343	-9,963	-0,072	0,035
-322,329	800,000	0,040	0,123
-321,314	800,000	0,047	0,131
-320,299	-200,000	0,007	0,113
-319,285	182,254	0,026	-0,029
-318,270	605,036	-0,050	0,091
-317,256	-200,000	0,038	-0,129
-316,241	170,128	0,043	-0,045
-315,226	800,000	-0,014	-0,034
-314,212	-46,669	0,165	-0,059
-313,197	-149,391	0,100	0,006
-312,183	114,542	-0,061	0,054
-311,168	-92,244	0,005	0,001
-310,153	793,286	0,042	0,085
-309,139	415,576	0,034	0,054
-308,124	-200,000	0,000	-0,023
-307,110	-147,176	0,086	0,005
-306,095	23,855	0,041	0,025
-305,080	488,744	0,045	0,076
-304,066	51,449	-0,011	0,007
-303,051	-158,970	-0,145	0,006
-302,037	37,246	-0,122	-0,079
-301,022	-55,208	0,106	-0,035
-300,008	-200,000	0,018	-0,086
-298,993	6,533	0,105	0,057
-297,978	-200,000	-0,026	0,121
-296,964	542,235	-0,016	0,029
-295,949	53,371	-0,055	-0,038
-294,935	800,000	0,049	0,117
-293,920	-59,324	0,124	-0,039
-292,905	-200,000	0,002	-0,065
-291,891	30,051	0,095	0,059
-290,876	-70,108	0,160	0,044
-289,862	111,203	-0,036	0,032
-288,847	744,863	0,059	0,117
-287,832	175,356	0,062	-0,066
-286,818	800,000	0,050	-0,107
-285,803	-83,698	0,134	0,031
-284,789	48,763	0,036	0,025
-283,774	-200,000	0,012	0,045
-282,759	5,895	-0,075	0,041
-281,745	-200,000	0,063	-0,242
-280,730	-200,000	-0,008	-0,083
-279,716	800,000	-0,016	-0,040
-278,701	122,820	0,111	0,102
-277,686	-200,000	0,030	0,209
-276,672	-88,600	-0,093	0,020
-275,657	-200,000	-0,014	0,062
-274,643	-90,575	0,127	0,027
-273,628	800,000	-0,054	-0,112
-272,613	153,498	-0,150	-0,151
-271,599	301,648	-0,039	0,052
-270,584	-137,749	0,089	-0,007
-269,570	-63,858	-0,083	0,025
-268,555	182,886	-0,052	0,056
-267,540	24,437	0,073	0,044
-266,526	-200,000	0,006	-0,112
-265,511	-27,131	0,085	-0,036
-264,497	-42,599	0,155	-0,057
-263,482	-52,406	0,012	-0,004
-262,467	689,408	0,003	-0,005
-261,453	-200,000	0,011	0,063
-260,438	124,353	-0,075	0,069
-259,424	800,000	-0,027	-0,061
-258,409	-200,000	-0,024	-0,086
-257,395	-200,000	-0,000	-0,046
-256,380	-0,437	-0,039	0,020
-255,365	38,487	0,032	-0,021
-254,351	123,339	-0,087	-0,080
-253,336	800,000	-0,021	-0,048
-252,322	-174,591	-0,068	0,001
-251,307	-200,000	-0,008	-0,044
-250,292	800,000	-0,051	0,150
-249,278	-77,090	-0,069	-0,017
-248,263	-154,131	0,147	-0,007
-247,249	-127,989	-0,021	-0,002
-246,234	-200,000	0,032	-0,114
-245,219	265,515	0,009	-0,012
-244,205	-155,699	-0,089	0,004
-243,190	205,173	0,038	0,044
-242,176	-100,589	0,131	0,023
-241,161	93,092	-0,072	0,059
-240,146	-200,000	-0,020	0,113
-239,132	795,536	-0,066	0,132
-238,117	-200,000	0,006	-0,077
-237,103	-152,788	-0,102	-0,005
-236,088	-66,919	-0,026	-0,007
-235,073	-200,000	0,022	-0,144
-234,059	198,697	0,092	0,103
-233,044	-200,000	0,017	0,130
-232,030	-74,962	-0,079	0,020
-231,015	-99,931	-0,138	0,025
-230,000	-200,000	-0,012	0,121
-228,986	-19,033	-0,023	0,011
-227,971	-18,401	0,038	-0,017
-226,957	-200,000	-0,007	-0,076
-225,942	739,066	-0,024	-0,048
-224,927	334,995	0,046	0,065
-223,913	643,644	-0,064	-0,120
-222,898	39,847	-0,036	-0,023
-221,884	-200,000	0,036	0,191
-220,869	-200,000	-0,061	0,218
-219,855	800,000	-0,048	-0,113
-218,840	37,218	-0,093	0,060
-217,825	410,408	0,053	-0,083
-216,811	-7,722	-0,113	0,055
-215,796	-132,757	-0,051	-0,005
-214,782	91,003	0,025	-0,020
-213,767	-200,000	0,046	0,148
-212,752	-44,967	-0,030	0,011
-211,738	-11,176	-0,132	-0,063
-210,723	-64,136	0,081	-0,024
-209,709	-68,351	-0,079	-0,022
-208,694	-200,000	0,029	-0,143
-207,679	-43,742	-0,044	-0,016
-206,665	198,785	-0,096	-0,107
-205,650	800,000	-0,036	0,115
-204,636	-200,000	-0,015	0,059
-203,621	67,472	-0,032	0,024
-202,606	106,660	0,017	-0,014
-201,592	-200,000	-0,007	-0,069
-200,577	-200,000	-0,012	-0,196
-199,563	74,730	0,049	-0,037
-198,548	164,746	0,094	0,096
-197,533	-200,000	-0,039	-0,167
-196,519	-200,000	0,004	-0,056
-195,504	197,022	0,090	-0,100
-194,490	156,174	0,020	0,020
-193,475	63,933	-0,136	-0,099
-192,460	401,269	0,066	0,102
-191,446	105,736	-0,034	0,029
-190,431	-141,872	0,060	-0,004
-189,417	-34,625	-0,080	-0,032
-188,402	603,089	0,026	0,048
-187,387	-200,000	-0,013	-0,081
-186,373	-200,000	-0,011	0,049
-185,358	-166,551	0,112	0,003
-184,344	-50,606	0,064	0,022
-183,329	-200,000	0,028	0,112
-182,315	-97,381	0,131	0,025
-181,300	-89,868	-0,079	0,017
-180,285	119,139	-0,040	0,036
-179,271	-200,000	0,001	-0,054
-178,256	-48,988	0,065	0,022
-177,242	117,124	0,074	-0,066
-176,227	-200,000	0,063	0,000
-175,212	13,133	-0,050	0,028
-174,198	-105,885	0,073	0,012
-173,183	525,770	0,002	-0,004
-172,169	-126,433	-0,103	-0,011
-171,154	-138,976	-0,076	0,006
-170,139	-134,683	-0,109	-0,009
-169,125	6,592	0,042	0,023
-168,110	-128,603	0,116	-0,012
-167,096	67,957	0,085	-0,063
-166,081	-41,285	-0,102	0,038
-165,066	-82,905	-0,062	0,015
-164,052	-200,000	-0,014	-0,054
-163,037	-63,399	0,079	0,024
-162,023	319,663	0,114	0,158
-161,008	800,000	0,010	0,028
-159,993	-35,571	-0,042	0,017
-158,979	371,237	0,029	-0,042
-157,964	-26,962	-0,084	-0,036
-156,950	-12,383	0,055	-0,026
-155,935	71,419	0,180	-0,136
-154,920	-200,000	-0,002	0,022
-153,906	173,773	-0,036	-0,038
-152,891	-68,394	-0,062	-0,017
-151,877	268,410	0,042	0,054
-150,862	-31,249	-0,180	0,074
-149,847	-200,000	-0,021	-0,077
-148,833	576,837	0,028	0,051
-147,818	163,280	0,075	0,077
-146,804	366,757	0,077	0,113
-145,789	-200,000	-0,008	0,087
-144,775	800,000	-0,026	-0,084
-143,760	-45,233	-0,107	-0,038
-142,745	-39,287	0,060	-0,023
-141,731	-200,000	0,001	-0,058
-140,716	-200,000	-0,100	0,000
-139,702	-200,000	0,001	0,141
-138,687	800,000	0,033	0,087
-137,672	-91,686	-0,025	-0,005
-136,658	-200,000	0,004	-0,144
-135,643	-200,000	-0,004	-0,065
-134,629	800,000	0,005	0,012
-133,614	-116,477	0,137	0,018
-132,599	94,266	0,083	-0,068
-131,585	-148,208	0,073	0,004
-130,570	26,083	-0,175	-0,106
-129,556	-126,327	-0,145	0,016
-128,541	484,530	0,008	-0,014
-127,526	800,000	-0,025	0,064
-126,512	-200,000	-0,019	0,099
-125,497	800,000	0,042	0,120
-124,483	-107,219	0,100	0,016
-123,468	-200,000	0,017	0,077
-122,453	562,577	0,029	-0,052
-121,439	800,000	0,006	0,014
-120,424	-17,938	-0,227	-0,103
-119,410	37,674	0,036	0,023
-118,395	136,780	-0,055	-0,052
-117,380	-200,000	-0,011	0,039
-116,366	-86,931	-0,089	-0,019
-115,351	-72,795	-0,147	0,039
-114,337	57,096	-0,087	0,061
-113,322	2,133	-0,042	-0,022
-112,307	-5,904	-0,055	-0,027
-111,293	-93,139	-0,065	-0,013
-110,278	147,954	-0,030	0,029
-109,264	-47,059	-0,057	0,020
-108,249	-115,122	-0,134	0,018
-107,234	800,000	-0,032	-0,071
-106,220	-28,299	0,024	-0,010
-105,205	18,388	0,091	0,053
-104,191	49,097	0,073	0,050
-103,176	76,645	-0,073	0,056
-102,162	-130,041	-0,088	0,009
-101,147	-95,276	0,085	-0,017
-100,132	-134,953	-0,073	-0,006
-99,118	-200,000	-0,000	-0,168
-98,103	-190,334	-0,080	0,001
-97,089	-200,000	-0,038	0,149
-96,074	253,141	0,085	-0,106
-95,059	-153,038	-0,011	-0,001
-94,045	-6,225	-0,102	-0,050
-93,030	-51,456	-0,037	-0,013
-92,016	-200,000	0,023	-0,116
-91,001	165,829	0,024	-0,024
-89,986	-76,181	0,141	0,036
-88,972	-200,000	0,003	-0,031
-87,957	-89,177	0,059	0,013
-86,943	-74,866	0,097	0,025
-85,928	800,000	0,021	-0,052
-84,913	202,893	-0,056	0,062
-83,899	-200,000	0,009	-0,032
-82,884	150,070	-0,049	-0,049
-81,870	-200,000	0,002	-0,124
-80,855	778,885	-0,043	0,086
-79,840	630,800	0,051	0,093
-78,826	197,391	0,098	-0,108
-77,811	131,414	0,056	-0,053
-76,797	-200,000	-0,019	-0,124
-75,782	800,000	0,035	-0,090
-74,767	-157,619	0,084	-0,004
-73,753	-129,718	-0,076	-0,007
-72,738	-200,000	-0,024	-0,115
-71,724	44,461	0,071	-0,047
-70,709	-200,000	0,013	-0,175
-69,694	116,901	-0,090	-0,080
-68,680	-200,000	0,023	0,178
-67,665	-156,083	-0,076	0,003
-66,651	207,097	-0,039	0,044
-65,636	-28,882	-0,066	-0,027
-64,622	-200,000	-0,010	0,077
-63,607	737,668	-0,024	-0,047
-62,592	-200,000	0,030	0,172
-61,578	-200,000	-0,004	0,113
-60,563	53,609	-0,067	-0,047
-59,549	12,982	-0,142	0,079
-58,534	-174,156	-1,411	-0,029
-57,519	678,846	-0,846	-1,602
-56,505	-200,000	-0,885	-4,381
-55,490	-48,488	0,624	-0,216
-54,476	800,000	4,862	11,503
-53,461	-200,000	13,790	251,342
-52,446	-200,000	690,485	2244,652
-51,432	587,903	1620,621	2903,155
-50,417	118,691	1631,655	1459,839
-49,403	73,924	1286,342	976,451
-48,388	38,050	1022,432	657,516
-47,373	24,143	980,629	585,019
-46,359	23,389	970,059	576,224
-45,344	22,422	965,620	570,416
-44,330	22,389	964,224	569,460
-43,315	22,190	962,830	567,968
-42,300	22,218	961,734	567,389
-41,286	22,239	960,803	566,886
-40,271	22,169	959,832	566,066
-39,257	22,140	959,054	565,490
-38,242	22,207	957,976	565,050
-37,227	22,220	957,000	564,493
-36,213	22,174	956,129	563,809
-35,198	22,168	955,356	563,311
-34,184	22,161	954,811	562,943
-33,169	22,199	953,760	562,425
-32,154	22,252	952,852	562,037
-31,140	22,210	952,135	561,456
-30,125	22,244	951,320	561,063
-29,111	22,217	950,542	560,493
-28,096	22,273	949,634	560,115
-27,082	22,276	949,088	559,782
-26,067	22,251	948,305	559,218
-25,052	22,249	947,704	558,836
-24,038	22,259	946,996	558,426
-23,023	22,185	946,416	557,826
-22,009	22,271	945,576	557,583
-20,994	22,213	945,118	557,107
-19,979	22,228	944,620	556,839
-18,965	22,252	944,010	556,535
-17,950	22,239	943,075	555,920
-16,936	22,175	942,394	555,291
-15,921	22,137	941,832	554,818
-14,906	22,098	941,151	554,270
-13,892	22,117	940,511	553,934
-12,877	22,103	939,771	553,431
-11,863	22,032	939,182	552,835
-10,848	22,086	938,630	552,660
-9,833	22,260	938,224	552,949
-8,819	22,182	937,615	552,323
-7,804	22,079	936,949	551,582
-6,790	22,139	936,297	551,366
-5,775	22,128	935,779	551,004
-4,760	22,093	935,127	550,490
-3,746	22,092	934,593	550,150
-2,731	21,973	933,830	549,303
-1,717	21,956	933,099	548,800
-0,702	21,912	932,571	548,327
0,313	21,685	931,929	548,064
1,327	24,353	929,474	554,936
2,342	32,220	808,074	503,722
3,356	27,409	508,915	309,017
4,371	3,133	373,485	195,971
5,386	0,008	356,590	183,261
6,400	-1,372	350,320	178,361
7,415	-2,333	347,634	175,827
8,429	-2,594	346,101	174,726
9,444	-2,543	345,029	174,230
10,459	-2,655	344,465	173,796
11,473	-2,328	343,835	173,851
12,488	-2,114	343,199	173,766
13,502	-2,192	342,877	173,495
14,517	-2,225	342,193	173,095
15,531	-2,494	341,652	172,489
16,546	-2,569	341,200	172,157
17,561	-2,505	340,695	171,963
18,575	-2,471	340,520	171,899
19,590	-2,527	339,936	171,523
20,604	-2,526	339,715	171,398
21,619	-2,638	339,300	171,042
22,634	-2,564	339,024	170,974
23,648	-2,460	338,603	170,868
24,663	-2,469	338,287	170,682
25,677	-2,468	337,807	170,426
26,692	-2,474	337,620	170,309
27,707	-2,517	337,373	170,120
28,721	-2,621	337,047	169,820
29,736	-2,344	336,606	169,903
30,750	-2,467	336,279	169,581
31,765	-2,522	336,084	169,404
32,780	-2,417	335,706	169,319
33,794	-2,503	335,632	169,168
34,809	-2,492	335,283	168,990
35,823	-2,458	334,891	168,815
36,838	-2,607	334,808	168,588
37,853	-2,509	334,367	168,463
38,867	-2,500	334,196	168,372
39,882	-2,586	333,783	168,050
40,896	-2,612	333,494	167,861
41,911	-2,578	333,303	167,788
42,926	-2,609	333,006	167,589
43,940	-2,690	332,690	167,322
44,955	-2,683	332,552	167,245
45,969	-2,547	332,172	167,195
46,984	-2,727	331,876	166,826
47,999	-3,002	331,438	166,278
49,013	-3,119	331,253	166,037
50,028	-3,090	330,911	165,884
51,042	-3,134	330,555	165,641
52,057	-3,256	330,309	165,364
53,071	-3,256	330,248	165,320
54,086	-3,247	329,953	165,166
55,101	-3,039	329,642	165,232
56,115	-3,046	329,706	165,241
57,130	-2,611	329,297	165,513
58,144	-2,356	329,025	165,649
59,159	-2,529	328,876	165,364
60,174	-2,249	328,457	165,453
61,188	-2,357	328,333	165,255
62,203	-2,450	328,073	165,005
63,217	-2,465	327,805	164,838
64,232	-2,524	327,680	164,694
65,247	-2,369	327,441	164,734
66,261	-2,243	327,015	164,646
67,276	-2,478	326,689	164,204
68,290	-2,655	326,418	163,856
69,305	-2,830	326,118	163,494
70,320	-2,719	326,021	163,555
71,334	-2,532	325,768	163,623
72,349	-2,332	325,628	163,761
73,363	-2,334	325,392	163,626
74,378	-2,386	325,011	163,362
75,393	-2,428	324,870	163,229
76,407	-2,428	324,596	163,077
77,422	-2,507	324,268	162,810
78,436	-2,440	324,152	162,811
79,451	-2,405	323,837	162,678
80,466	-2,436	323,489	162,454
81,480	-2,597	323,212	162,122
82,495	-2,751	322,964	161,813
83,509	-2,627	322,687	161,797
84,524	-2,689	322,506	161,623
85,539	-2,746	322,206	161,396
86,553	-2,828	322,019	161,197
87,568	-2,665	321,865	161,285
88,582	-2,777	321,505	160,968
89,597	-2,643	321,118	160,907
90,611	-2,587	321,052	160,920
91,626	-2,378	320,912	161,065
92,641	-2,634	320,776	160,701
93,655	-2,573	320,422	160,577
94,670	-2,515	320,053	160,442
95,684	-2,579	319,696	160,178
96,699	-2,654	319,728	160,097
97,714	-2,672	319,445	159,921
98,728	-2,575	319,118	159,850
99,743	-2,686	318,900	159,605
100,757	-2,820	318,669	159,330
101,772	-2,790	318,420	159,224
102,787	-2,803	318,197	159,084
103,801	-2,699	317,937	159,053
104,816	-2,566	317,759	159,094
105,830	-2,498	317,779	159,163
106,845	-2,457	317,498	159,052
107,860	-2,473	317,191	158,867
108,874	-2,603	316,967	158,600
109,889	-2,485	316,671	158,566
110,903	-2,543	316,465	158,386
111,918	-2,564	316,374	158,303
112,933	-2,600	316,016	158,071
113,947	-2,674	315,943	157,942
114,962	-2,561	315,583	157,869
115,976	-2,552	315,429	157,787
116,991	-2,613	315,162	157,574
118,006	-2,508	314,881	157,533
119,020	-2,443	314,713	157,503
120,035	-2,410	314,448	157,392
121,049	-2,355	314,353	157,390
122,064	-2,271	313,970	157,274
123,079	-2,556	313,897	156,918
124,093	-2,691	313,729	156,676
125,108	-2,731	313,332	156,421
126,122	-2,786	312,944	156,155
127,137	-3,099	312,830	155,751
128,151	-3,030	312,627	155,709
129,166	-2,762	312,356	155,846
130,181	-2,786	312,214	155,735
131,195	-2,873	311,887	155,465
132,210	-2,628	311,716	155,626
133,224	-2,513	311,572	155,663
134,239	-2,535	311,434	155,556
135,254	-2,778	311,139	155,138
136,268	-2,684	310,911	155,110
137,283	-2,877	310,514	154,694
138,297	-2,961	310,362	154,516
139,312	-2,834	310,131	154,521
140,327	-2,546	309,955	154,724
141,341	-2,355	309,990	154,928
142,356	-2,221	309,809	154,965
143,370	-2,122	309,648	154,975
144,385	-2,298	309,337	154,621
145,400	-2,308	309,040	154,448
146,414	-2,301	308,956	154,399
147,429	-2,374	308,795	154,229
148,443	-2,187	308,536	154,282
149,458	-2,204	308,300	154,132
150,473	-2,200	308,117	154,031
151,487	-2,367	307,839	153,704
152,502	-2,259	307,780	153,774
153,516	-2,132	307,444	153,725
154,531	-2,184	307,205	153,537
155,546	-2,320	307,019	153,288
156,560	-2,216	306,757	153,252
157,575	-2,486	306,535	152,847
158,589	-2,421	306,292	152,780
159,604	-2,254	306,008	152,797
160,619	-2,249	305,775	152,673
161,633	-2,289	305,621	152,541
162,648	-2,226	305,506	152,536
163,662	-2,436	305,353	152,228
164,677	-2,212	305,088	152,314
165,692	-2,482	305,070	152,012
166,706	-2,142	304,807	152,219
167,721	-2,313	304,543	151,897
168,735	-2,398	304,507	151,778
169,750	-2,305	304,268	151,741
170,764	-2,168	304,093	151,781
171,779	-2,181	303,921	151,669
172,794	-1,953	303,818	151,839
173,808	-2,226	303,410	151,340
174,823	-2,637	302,927	150,663
175,837	-2,794	302,738	150,395
176,852	-2,413	302,809	150,808
177,867	-2,236	302,689	150,917
178,881	-2,131	302,431	150,882
179,896	-2,054	302,310	150,887
180,910	-2,117	301,960	150,635
181,925	-2,047	301,775	150,601
182,940	-2,098	301,600	150,448
183,954	-2,167	301,432	150,280
184,969	-2,173	301,213	150,151
185,983	-2,076	300,817	150,039
186,998	-2,208	300,819	149,892
188,013	-2,343	300,672	149,668
189,027	-2,092	300,375	149,763
190,042	-2,171	300,196	149,580
191,056	-2,054	300,050	149,613
192,071	-2,105	299,924	149,484
193,086	-2,087	299,649	149,352
194,100	-1,978	299,521	149,385
195,115	-2,161	299,171	149,012
196,129	-2,139	298,883	148,877
197,144	-2,052	298,696	148,860
198,159	-2,128	298,616	148,730
199,173	-1,911	298,237	148,746
200,188	-1,917	298,200	148,709
201,202	-2,092	297,769	148,304
202,217	-2,714	297,542	147,551
203,232	-2,692	297,187	147,384
204,246	-2,239	297,086	147,777
205,261	-2,058	296,944	147,874
206,275	-2,075	296,852	147,798
207,290	-2,037	296,691	147,743
208,304	-2,151	296,579	147,560
209,319	-2,007	296,364	147,585
210,334	-2,054	296,168	147,426
211,348	-2,127	295,867	147,190
212,363	-1,925	295,463	147,178
213,377	-2,014	295,568	147,128
214,392	-2,203	295,276	146,781
215,407	-2,215	295,114	146,676
216,421	-2,407	294,851	146,340
217,436	-2,431	294,596	146,178
218,450	-2,409	294,392	146,084
219,465	-2,215	294,304	146,220
220,480	-2,226	294,104	146,098
221,494	-2,182	293,904	146,028
222,509	-2,302	293,686	145,788
223,523	-2,103	293,577	145,919
224,538	-1,943	293,400	145,976
225,553	-1,875	293,107	145,885
226,567	-2,026	293,019	145,679
227,582	-1,903	292,878	145,717
228,596	-2,140	292,861	145,462
229,611	-1,827	292,762	145,708
230,626	-2,043	292,315	145,260
231,640	-2,438	291,976	144,689
232,655	-2,758	291,762	144,255
233,669	-2,754	291,531	144,133
234,684	-2,753	291,251	143,982
235,699	-2,719	291,255	144,004
236,713	-2,571	290,965	143,993
237,728	-2,519	290,931	144,014
238,742	-2,328	290,567	144,009
239,757	-2,289	290,446	143,975
240,772	-2,027	290,259	144,125
241,786	-2,274	290,165	143,824
242,801	-2,312	289,961	143,674
243,815	-2,377	289,787	143,511
244,830	-2,286	289,601	143,495
245,844	-2,376	289,331	143,260
246,859	-2,429	289,121	143,092
247,874	-2,444	288,950	142,980
248,888	-2,417	288,686	142,863
249,903	-2,173	288,656	143,072
250,917	-2,168	288,484	142,979
251,932	-1,758	288,417	143,331
252,947	-1,546	288,593	143,612
253,961	-1,837	288,119	143,081
254,976	-0,655	288,602	144,457
255,990	1,869	289,254	147,224
257,005	2,643	289,500	148,089
258,020	3,939	289,868	149,524
259,034	4,161	289,690	149,635
260,049	3,769	289,504	149,144
261,063	3,647	289,167	148,840
262,078	4,008	289,110	149,147
263,093	4,491	289,228	149,663
264,107	4,463	288,974	149,491
265,122	4,635	288,754	149,530
266,136	4,701	288,634	149,519
267,151	4,744	288,266	149,356
268,166	4,412	288,148	148,961
269,180	4,326	287,930	148,752
270,195	4,386	287,757	148,707
271,209	4,498	287,592	148,717
272,224	4,374	287,329	148,448
273,239	4,216	287,116	148,173
274,253	4,297	286,900	148,126
275,268	4,687	286,950	148,513
276,282	4,828	286,740	148,526
277,297	4,664	286,607	148,288
278,312	4,767	286,641	148,391
279,326	4,664	286,207	148,054
280,341	4,564	285,969	147,822
281,355	4,454	285,786	147,609
282,370	4,259	285,586	147,306
283,384	4,254	285,470	147,228
284,399	4,293	285,106	147,064
285,414	4,320	285,036	147,041
286,428	4,323	284,753	146,885
287,443	3,956	284,639	146,464
288,457	3,965	284,308	146,289
289,472	3,993	284,102	146,197
290,487	3,982	284,010	146,126
291,501	3,987	283,728	145,973
292,516	3,638	283,494	145,508
293,530	3,784	283,330	145,549
294,545	4,027	283,352	145,778
295,560	4,182	283,087	145,775
296,574	3,981	283,014	145,534
297,589	4,057	282,870	145,519
298,603	4,336	282,868	145,769
299,618	4,575	282,510	145,797
300,633	4,397	282,302	145,508
301,647	4,367	282,165	145,397
302,662	4,292	281,969	145,212
303,676	4,067	281,766	144,884
304,691	3,848	281,537	144,547
305,706	3,918	281,130	144,390
306,720	3,806	281,070	144,241
307,735	3,857	280,849	144,163
308,749	3,866	280,791	144,129
309,764	4,017	280,577	144,148
310,779	3,680	280,395	143,726
311,793	3,678	280,119	143,569
312,808	3,696	279,857	143,439
313,822	3,921	279,734	143,574
314,837	3,708	279,465	143,224
315,852	3,572	279,482	143,094
316,866	3,759	279,190	143,105
317,881	3,890	279,109	143,173
318,895	3,788	278,864	142,940
319,910	3,652	278,553	142,641
320,925	3,477	278,439	142,407
321,939	3,721	278,454	142,629
322,954	3,775	278,455	142,667
323,968	3,853	278,085	142,537
324,983	3,881	277,980	142,496
325,997	4,204	277,662	142,620
327,012	4,298	277,600	142,662
328,027	4,260	277,336	142,479
329,041	3,972	277,212	142,136
330,056	4,051	277,137	142,158
331,070	3,956	276,895	141,933
332,085	3,971	276,536	141,750
333,100	3,984	276,425	141,693
334,114	4,064	276,143	141,609
335,129	3,815	276,015	141,302
336,143	3,952	275,888	141,350
337,158	4,150	275,880	141,515
338,173	4,093	275,588	141,301
339,187	3,986	275,501	141,146
340,202	4,035	275,222	141,035
341,216	4,053	275,126	140,989
342,231	4,176	274,893	140,970
343,246	3,880	274,759	140,619
344,260	3,940	274,563	140,560
345,275	4,147	274,467	140,688
346,289	4,485	274,399	140,949
347,304	4,567	274,085	140,849
348,319	4,016	273,941	140,261
349,333	4,090	273,833	140,260
350,348	4,361	273,749	140,452
351,362	4,305	273,491	140,256
352,377	4,117	273,441	140,047
353,392	4,222	273,151	139,982
354,406	4,297	272,991	139,955
355,421	192,423	1330,742	1411,357
356,435	155,510	1459,699	1411,463
