DTS Sentinel unit serial number:	SN410029Multiplexer serial number:	ORYXHardware model number:	OX2-SRSoftware version number:	ORYX F/W v4,00 Oryx Data Collector v3.7.2.0data status	okinstallation	B4 Nyhavnadifferential loss correction	single-endedforward channel	channel 2reverse channel	N/Adate	2023/12/16time	13:50:13forward acquisition time	300,00reverse acquisition time	0,00gamma	499,1914k internal	0,3125k external	0,3125temperature offset calibration	1,0000default loss term (dB/km)	0,3820temperature slope calibration	1,0000multiplexer offset coefficient	1,0000multiplexer slope coefficient	1,0000fibre end	0,00T internal ref (°C)	25,06T ext. ref 1 (°C)	11,30T ext. ref 2 (°C)	11,52length (m)	temperature (°C)	Stokes	anti-Stokes-744,400	57,383	-0,088	-0,064
-743,385	537,912	-0,094	0,168
-742,371	-35,097	0,042	0,017
-741,356	574,653	-0,138	0,251
-740,342	-28,197	0,086	-0,037
-739,327	200,388	-0,108	0,124
-738,312	55,948	-0,065	-0,047
-737,298	236,202	-0,070	0,086
-736,283	489,659	-0,029	-0,050
-735,269	125,155	-0,179	0,168
-734,254	-200,000	0,027	-0,090
-733,239	-75,016	-0,368	0,097
-732,225	800,000	-0,021	0,052
-731,210	145,617	-0,108	0,108
-730,196	-30,952	-0,103	0,043
-729,181	-90,399	-0,001	0,000
-728,167	467,194	-0,062	-0,103
-727,152	800,000	-0,046	-0,098
-726,137	-45,809	-0,046	0,017
-725,123	-200,000	0,027	-0,096
-724,108	800,000	0,041	-0,110
-723,094	-200,000	-0,019	-0,086
-722,079	-165,462	-0,104	0,003
-721,064	-200,000	0,001	0,044
-720,050	-200,000	-0,007	-0,068
-719,035	800,000	-0,037	-0,095
-718,021	610,088	-0,043	-0,081
-717,006	800,000	-0,063	0,141
-715,991	-25,999	0,162	-0,071
-714,977	289,763	-0,034	0,046
-713,962	-200,000	-0,009	-0,067
-712,948	452,777	0,018	-0,030
-711,933	-111,877	0,075	0,011
-710,918	678,627	0,018	0,035
-709,904	800,000	-0,040	-0,089
-708,889	-79,797	-0,085	0,021
-707,875	9,716	-0,118	-0,066
-706,860	800,000	0,041	0,088
-705,845	800,000	0,045	0,140
-704,831	41,142	0,111	-0,074
-703,816	228,050	-0,019	-0,022
-702,802	-200,000	-0,015	0,087
-701,787	120,894	-0,048	0,044
-700,772	-200,000	0,010	0,112
-699,758	-200,000	-0,006	-0,025
-698,743	-97,882	0,113	-0,022
-697,729	343,159	-0,034	0,050
-696,714	-200,000	-0,003	-0,090
-695,699	230,648	-0,025	0,030
-694,685	-200,000	-0,002	-0,086
-693,670	-87,169	0,045	0,010
-692,656	-65,117	-0,060	-0,018
-691,641	-97,470	0,092	0,018
-690,627	151,896	-0,127	-0,129
-689,612	8,687	-0,146	0,081
-688,597	-73,775	0,066	-0,018
-687,583	800,000	0,012	0,029
-686,568	-200,000	-0,012	-0,049
-685,554	-200,000	0,049	-0,161
-684,539	230,576	-0,107	-0,131
-683,524	800,000	-0,041	0,095
-682,510	800,000	0,012	-0,035
-681,495	-62,546	-0,027	-0,008
-680,481	-116,109	-0,121	0,016
-679,466	65,290	-0,088	-0,066
-678,451	83,838	0,007	0,006
-677,437	359,224	0,075	-0,111
-676,422	67,556	0,055	0,042
-675,408	43,239	-0,067	-0,045
-674,393	-200,000	0,015	-0,150
-673,378	37,365	-0,067	0,044
-672,364	-122,576	-0,074	0,009
-671,349	56,416	-0,104	0,075
-670,335	-200,000	0,004	-0,062
-669,320	189,465	0,117	0,130
-668,305	800,000	0,006	-0,015
-667,291	-200,000	-0,032	-0,119
-666,276	134,624	-0,058	-0,056
-665,262	-200,000	0,013	0,075
-664,247	-18,897	-0,056	-0,026
-663,232	-188,072	0,054	0,001
-662,218	191,979	-0,083	0,093
-661,203	-125,933	0,086	-0,010
-660,189	19,203	0,106	0,063
-659,174	800,000	0,025	0,053
-658,159	122,644	-0,064	-0,059
-657,145	-200,000	-0,074	-0,258
-656,130	-200,000	0,024	-0,148
-655,116	-111,815	0,072	-0,011
-654,101	23,483	-0,040	-0,024
-653,086	-200,000	0,033	-0,151
-652,072	-85,279	-0,115	0,027
-651,057	-116,478	-0,024	0,003
-650,043	800,000	-0,057	0,124
-649,028	0,788	0,090	-0,048
-648,014	21,265	0,096	0,058
-646,999	-66,086	0,064	0,019
-645,984	-2,500	-0,108	-0,056
-644,970	84,518	-0,035	-0,029
-643,955	-150,470	-0,063	0,004
-642,941	-200,000	-0,037	-0,144
-641,926	-101,313	0,158	-0,028
-640,911	-24,500	0,066	0,029
-639,897	-94,479	0,047	0,009
-638,882	-53,768	-0,145	0,049
-637,868	-200,000	0,026	0,102
-636,853	-200,000	-0,003	0,042
-635,838	119,199	-0,071	0,065
-634,824	145,827	-0,052	-0,052
-633,809	7,416	0,049	-0,027
-632,795	-128,997	-0,101	0,010
-631,780	419,023	-0,063	0,100
-630,765	-78,959	0,072	0,018
-629,751	378,356	-0,054	-0,082
-628,736	728,788	0,030	0,059
-627,722	-65,751	-0,021	0,006
-626,707	124,413	0,054	-0,051
-625,692	282,123	-0,047	0,062
-624,678	-79,064	0,081	-0,020
-623,663	298,771	0,011	-0,014
-622,649	-5,765	-0,114	-0,058
-621,634	64,225	-0,119	0,089
-620,619	-107,155	-0,066	0,011
-619,605	74,450	0,042	0,033
-618,590	-124,381	0,118	0,013
-617,576	-31,321	-0,111	0,046
-616,561	27,938	0,030	0,019
-615,546	354,324	0,016	-0,024
-614,532	-72,061	-0,125	0,034
-613,517	-5,027	-0,026	-0,013
-612,503	800,000	0,040	0,108
-611,488	139,395	0,076	-0,075
-610,474	800,000	-0,020	0,054
-609,459	248,081	0,028	-0,035
-608,444	102,760	-0,145	-0,126
-607,430	-159,484	-0,193	-0,008
-606,415	-95,381	-0,057	-0,011
-605,401	800,000	0,004	-0,013
-604,386	-33,285	0,099	0,040
-603,371	-95,287	-0,036	-0,007
-602,357	76,099	-0,143	0,112
-601,342	150,201	-0,104	-0,105
-600,328	-123,916	0,168	-0,019
-599,313	279,359	-0,093	-0,124
-598,298	391,119	-0,060	-0,093
-597,284	289,771	-0,061	0,083
-596,269	-19,184	0,091	-0,042
-595,255	-64,716	-0,028	0,008
-594,240	59,974	-0,075	0,055
-593,225	110,464	-0,048	-0,043
-592,211	-200,000	-0,020	-0,132
-591,196	-44,939	0,086	-0,032
-590,182	800,000	0,060	0,150
-589,167	-167,816	0,084	-0,002
-588,152	21,392	-0,107	0,064
-587,138	-200,000	-0,002	-0,013
-586,123	274,577	-0,174	-0,228
-585,109	615,219	-0,031	-0,059
-584,094	109,061	0,111	-0,098
-583,079	800,000	0,025	0,062
-582,065	672,445	-0,012	0,023
-581,050	2,932	0,040	0,022
-580,036	-49,444	0,092	-0,032
-579,021	-38,380	-0,147	-0,057
-578,006	31,761	-0,084	-0,054
-576,992	-200,000	-0,007	-0,116
-575,977	-110,239	-0,084	-0,013
-574,963	-106,057	0,153	0,025
-573,948	-84,635	0,069	0,016
-572,934	0,343	-0,049	-0,026
-571,919	469,628	0,039	-0,065
-570,904	800,000	-0,033	-0,101
-569,890	242,264	0,038	0,047
-568,875	13,265	0,089	0,051
-567,861	182,423	0,027	0,030
-566,846	680,772	0,029	0,056
-565,831	759,158	-0,070	0,140
-564,817	-101,083	-0,058	-0,010
-563,802	800,000	0,057	-0,163
-562,788	40,992	0,031	-0,021
-561,773	332,832	0,059	0,085
-560,758	-35,004	0,054	-0,022
-559,744	363,371	0,023	-0,034
-558,729	800,000	-0,009	-0,023
-557,715	-176,588	-0,015	0,000
-556,700	264,805	-0,039	-0,051
-555,685	-200,000	-0,017	-0,057
-554,671	-40,664	0,125	-0,048
-553,656	214,660	0,091	0,107
-552,642	77,864	0,063	-0,049
-551,627	-79,771	0,071	-0,017
-550,612	800,000	-0,004	0,011
-549,598	800,000	0,024	-0,058
-548,583	145,928	-0,016	-0,016
-547,569	-35,734	-0,192	-0,076
-546,554	211,826	0,076	-0,089
-545,539	-164,174	0,088	-0,003
-544,525	800,000	-0,025	0,054
-543,510	-200,000	0,012	0,046
-542,496	197,598	-0,067	-0,076
-541,481	226,449	-0,074	-0,089
-540,466	-96,452	-0,160	-0,031
-539,452	-99,493	-0,031	-0,006
-538,437	8,039	0,132	-0,073
-537,423	800,000	0,038	0,095
-536,408	-177,849	0,023	0,000
-535,393	800,000	-0,004	0,011
-534,379	-132,408	-0,145	0,014
-533,364	-82,647	-0,138	-0,033
-532,350	800,000	0,049	0,158
-531,335	-140,042	-0,167	0,013
-530,321	-106,558	-0,096	-0,016
-529,306	5,762	-0,022	0,012
-528,291	399,465	-0,064	-0,100
-527,277	-61,339	-0,034	0,010
-526,262	-9,046	0,109	-0,054
-525,248	-46,937	0,081	-0,029
-524,233	212,453	0,104	0,122
-523,218	-200,000	0,007	0,093
-522,204	205,415	-0,060	-0,069
-521,189	-200,000	-0,024	-0,086
-520,175	-200,000	-0,000	-0,023
-519,160	-172,756	-0,051	0,001
-518,145	490,392	-0,035	0,060
-517,131	65,511	-0,023	-0,017
-516,116	800,000	0,030	0,066
-515,102	800,000	-0,032	0,068
-514,087	241,459	-0,063	-0,078
-513,072	800,000	-0,025	0,057
-512,058	8,159	-0,100	-0,056
-511,043	331,076	-0,053	-0,075
-510,029	-72,996	0,030	0,008
-509,014	-32,363	0,111	-0,046
-507,999	-172,358	0,095	-0,002
-506,985	91,243	-0,037	-0,031
-505,970	417,568	-0,047	-0,075
-504,956	800,000	-0,025	0,066
-503,941	-200,000	-0,007	0,042
-502,926	-200,000	0,009	0,088
-501,912	242,932	-0,094	0,117
-500,897	-200,000	0,026	-0,101
-499,883	70,560	0,067	-0,051
-498,868	486,807	0,035	-0,059
-497,853	-25,638	-0,117	-0,051
-496,839	113,041	-0,002	-0,002
-495,824	-79,144	0,108	0,027
-494,810	-24,123	0,088	0,039
-493,795	24,330	0,139	0,084
-492,781	90,704	0,139	0,115
-491,766	198,392	-0,146	-0,165
-490,751	-155,598	0,205	0,010
-489,737	360,846	-0,045	-0,066
-488,722	800,000	-0,048	-0,110
-487,708	300,175	0,024	-0,033
-486,693	215,596	0,091	0,107
-485,678	-53,379	-0,089	-0,030
-484,664	492,782	-0,057	-0,097
-483,649	373,203	0,016	-0,024
-482,635	125,046	-0,060	0,056
-481,620	269,288	-0,019	0,025
-480,605	-107,901	-0,044	-0,007
-479,591	-200,000	0,007	-0,105
-478,576	800,000	0,015	0,037
-477,562	800,000	-0,029	0,068
-476,547	-134,424	-0,079	-0,007
-475,532	-71,523	0,050	-0,014
-474,518	-200,000	-0,024	0,136
-473,503	-59,968	-0,045	-0,014
-472,489	-59,601	0,057	0,018
-471,474	-200,000	0,020	0,106
-470,459	400,136	0,014	-0,022
-469,445	125,144	-0,029	-0,027
-468,430	-6,775	-0,117	-0,059
-467,416	580,223	-0,015	-0,027
-466,401	433,520	0,025	0,040
-465,386	-58,590	0,022	0,007
-464,372	461,141	-0,031	-0,052
-463,357	218,412	0,016	0,019
-462,343	-200,000	-0,014	-0,121
-461,328	800,000	0,022	0,046
-460,313	71,676	0,052	-0,040
-459,299	-100,308	0,219	0,040
-458,284	800,000	-0,014	-0,037
-457,270	64,555	0,081	0,060
-456,255	-22,249	-0,077	-0,034
-455,241	-200,000	0,004	-0,022
-454,226	-1,735	0,021	-0,011
-453,211	-92,081	-0,114	-0,023
-452,197	-200,000	0,033	0,145
-451,182	270,631	0,059	-0,076
-450,168	-200,000	0,024	0,094
-449,153	427,192	-0,010	-0,016
-448,138	800,000	-0,047	-0,108
-447,124	346,953	0,044	-0,064
-446,109	137,878	0,040	-0,038
-445,095	-119,940	0,035	-0,004
-444,080	-152,079	-0,094	0,005
-443,065	-200,000	0,011	0,058
-442,051	80,921	-0,108	-0,086
-441,036	-200,000	-0,004	-0,060
-440,022	-5,865	0,051	0,026
-439,007	131,587	-0,149	-0,141
-437,992	-146,867	0,023	-0,001
-436,978	143,433	0,082	0,081
-435,963	554,596	0,054	-0,095
-434,949	-118,172	0,046	-0,006
-433,934	800,000	-0,042	-0,090
-432,919	-200,000	-0,009	-0,099
-431,905	574,524	0,045	-0,081
-430,890	-55,483	0,076	0,025
-429,876	35,458	-0,071	0,046
-428,861	146,280	-0,026	0,026
-427,846	-78,865	0,154	-0,038
-426,832	343,386	0,062	-0,090
-425,817	131,614	-0,073	-0,069
-424,803	-38,052	-0,092	-0,036
-423,788	-67,556	0,149	0,043
-422,773	100,718	0,093	0,079
-421,759	451,202	-0,051	-0,083
-420,744	-73,545	-0,022	0,006
-419,730	-200,000	0,008	-0,030
-418,715	-200,000	0,010	0,092
-417,701	-25,971	-0,045	0,019
-416,686	-200,000	-0,013	0,117
-415,671	-200,000	-0,005	0,030
-414,657	-78,976	-0,117	-0,029
-413,642	228,561	-0,084	-0,101
-412,628	227,009	0,090	-0,108
-411,613	-200,000	-0,009	0,084
-410,598	184,502	-0,058	0,064
-409,584	42,610	-0,034	0,023
-408,569	329,340	0,033	-0,047
-407,555	-132,878	0,108	-0,010
-406,540	-200,000	-0,031	0,115
-405,525	48,161	0,117	0,080
-404,511	-200,000	0,019	-0,068
-403,496	-73,106	-0,068	-0,018
-402,482	-11,939	0,086	-0,041
-401,467	-118,874	0,095	-0,012
-400,452	800,000	0,041	-0,091
-399,438	345,934	0,070	0,102
-398,423	-59,874	0,039	0,012
-397,409	52,769	-0,071	0,050
-396,394	-175,184	-0,058	0,001
-395,379	-7,799	0,147	0,073
-394,365	-103,019	0,149	-0,026
-393,350	72,942	-0,138	0,106
-392,336	241,233	-0,071	-0,087
-391,321	702,458	-0,020	-0,039
-390,306	114,870	0,028	-0,025
-389,292	132,025	0,110	0,104
-388,277	-64,797	-0,148	0,044
-387,263	800,000	-0,012	0,037
-386,248	422,853	-0,018	-0,028
-385,233	12,416	0,118	0,067
-384,219	-84,630	0,062	0,014
-383,204	609,168	-0,031	-0,057
-382,190	-86,071	-0,082	-0,018
-381,175	31,036	-0,131	-0,082
-380,160	-64,529	-0,067	0,020
-379,146	616,417	0,008	0,014
-378,131	-154,500	0,057	-0,003
-377,117	197,334	0,079	-0,088
-376,102	-200,000	-0,017	0,165
-375,088	-200,000	0,004	-0,021
-374,073	800,000	-0,051	0,136
-373,058	-200,000	0,012	0,062
-372,044	800,000	0,028	0,089
-371,029	360,538	-0,096	0,141
-370,015	-159,122	-0,047	0,002
-369,000	170,810	0,090	-0,095
-367,985	-156,087	0,100	-0,005
-366,971	248,190	-0,057	-0,071
-365,956	358,252	0,005	-0,007
-364,942	-135,247	-0,098	0,008
-363,927	77,719	0,065	-0,051
-362,912	-200,000	-0,009	0,144
-361,898	71,243	0,048	-0,037
-360,883	-200,000	0,018	-0,078
-359,869	31,923	0,087	0,055
-358,854	-74,250	0,122	0,032
-357,839	-27,225	0,055	0,024
-356,825	-58,664	-0,073	0,023
-355,810	-200,000	-0,023	0,087
-354,796	-5,488	-0,148	-0,074
-353,781	-200,000	-0,004	0,074
-352,766	-147,658	-0,021	0,001
-351,752	-200,000	0,048	0,214
-350,737	800,000	0,034	0,094
-349,723	-112,370	-0,080	0,012
-348,708	-73,090	-0,173	0,046
-347,693	-181,915	0,069	0,001
-346,679	-42,205	0,135	-0,050
-345,664	-39,202	-0,095	0,036
-344,650	800,000	-0,018	-0,043
-343,635	800,000	0,034	0,081
-342,620	-10,899	-0,073	0,035
-341,606	-93,345	0,119	0,024
-340,591	-200,000	-0,004	-0,086
-339,577	800,000	-0,065	-0,142
-338,562	-54,591	-0,069	-0,023
-337,548	20,885	0,018	0,011
-336,533	-200,000	0,001	0,024
-335,518	402,102	-0,027	0,042
-334,504	659,137	0,036	-0,068
-333,489	-60,153	0,160	-0,050
-332,475	-200,000	-0,001	0,103
-331,460	224,059	0,053	-0,063
-330,445	-200,000	0,000	0,018
-329,431	800,000	0,037	-0,115
-328,416	-126,211	-0,083	-0,009
-327,402	114,191	0,012	-0,011
-326,387	39,375	-0,024	0,016
-325,372	-200,000	-0,023	-0,193
-324,358	-200,000	-0,008	-0,031
-323,343	-45,665	-0,018	-0,006
-322,329	-74,009	-0,062	-0,016
-321,314	5,285	-0,051	0,028
-320,299	-156,549	0,117	0,005
-319,285	800,000	-0,030	-0,076
-318,270	-200,000	-0,015	0,051
-317,256	-200,000	0,005	-0,055
-316,241	-200,000	0,007	0,053
-315,226	-200,000	0,027	0,112
-314,212	800,000	0,065	0,198
-313,197	-200,000	-0,028	0,231
-312,183	361,292	0,085	0,126
-311,168	-92,723	-0,110	0,022
-310,153	36,080	0,058	-0,038
-309,139	-200,000	0,017	-0,208
-308,124	-200,000	0,018	-0,138
-307,110	-200,000	-0,011	0,114
-306,095	-200,000	-0,006	0,069
-305,080	-173,183	0,115	-0,003
-304,066	800,000	0,054	0,109
-303,051	-153,257	0,062	0,003
-302,037	81,385	0,014	-0,011
-301,022	65,234	-0,071	0,053
-300,008	-172,386	0,050	0,001
-298,993	-200,000	0,012	0,057
-297,978	51,022	0,125	0,086
-296,964	-56,028	-0,098	0,032
-295,949	-114,264	-0,127	0,018
-294,935	-200,000	0,008	-0,048
-293,920	-24,401	0,049	0,021
-292,905	-200,000	-0,010	0,050
-291,891	53,210	0,106	0,074
-290,876	-113,070	0,066	0,009
-289,862	-200,000	0,029	0,098
-288,847	46,835	0,102	-0,069
-287,832	111,318	-0,099	-0,087
-286,818	106,457	0,019	0,017
-285,803	-200,000	0,002	0,033
-284,789	-106,326	0,085	-0,014
-283,774	-200,000	-0,002	0,105
-282,759	-130,439	-0,119	0,012
-281,745	156,762	-0,043	-0,044
-280,730	89,410	-0,017	0,014
-279,716	99,620	-0,083	0,070
-278,701	153,396	-0,057	0,057
-277,686	-87,241	-0,115	-0,025
-276,672	31,397	0,080	-0,050
-275,657	143,907	0,106	-0,104
-274,643	304,146	-0,092	-0,125
-273,628	-50,112	-0,098	0,034
-272,613	-200,000	0,018	0,084
-271,599	-102,309	0,023	-0,004
-270,584	800,000	-0,006	0,017
-269,570	-12,567	0,071	-0,034
-268,555	-95,094	-0,090	0,018
-267,540	366,607	-0,029	0,043
-266,526	-133,791	-0,072	0,006
-265,511	-91,146	0,170	0,035
-264,497	-200,000	-0,003	-0,110
-263,482	-86,224	0,107	-0,024
-262,467	47,389	0,038	0,026
-261,453	-200,000	0,045	-0,172
-260,438	-17,437	-0,138	-0,063
-259,424	1,669	-0,052	-0,027
-258,409	-200,000	-0,019	-0,082
-257,395	-200,000	-0,023	-0,139
-256,380	800,000	-0,040	0,126
-255,365	112,126	0,097	0,085
-254,351	686,202	0,033	0,064
-253,336	-200,000	0,014	-0,130
-252,322	20,206	-0,004	-0,002
-251,307	800,000	-0,037	-0,077
-250,292	-126,649	0,007	-0,001
-249,278	191,507	-0,036	-0,039
-248,263	445,566	0,069	0,111
-247,249	800,000	0,003	0,007
-246,234	800,000	-0,033	-0,082
-245,219	-200,000	0,010	0,098
-244,205	800,000	0,050	-0,120
-243,190	-200,000	-0,003	0,068
-242,176	-200,000	0,008	-0,033
-241,161	27,155	-0,153	0,093
-240,146	-8,746	0,133	0,065
-239,132	-200,000	0,001	-0,121
-238,117	-57,896	0,052	0,017
-237,103	28,181	-0,074	-0,046
-236,088	-200,000	0,004	0,014
-235,073	134,372	-0,056	0,053
-234,059	411,492	0,053	0,082
-233,044	-200,000	0,035	0,181
-232,030	-146,797	-0,038	0,002
-231,015	-200,000	0,031	-0,148
-230,000	89,525	-0,038	-0,031
-228,986	41,320	0,026	0,017
-227,971	-105,052	-0,053	-0,009
-226,957	-113,569	-0,059	0,008
-225,942	800,000	0,051	-0,115
-224,927	-200,000	0,002	-0,022
-223,913	-200,000	0,043	-0,149
-222,898	175,179	-0,032	-0,034
-221,884	203,008	-0,090	-0,101
-220,869	624,140	-0,027	0,050
-219,855	800,000	-0,018	0,047
-218,840	117,391	0,046	-0,042
-217,825	800,000	-0,019	-0,052
-216,811	194,303	0,146	-0,161
-215,796	453,665	-0,052	0,084
-214,782	-200,000	0,001	-0,007
-213,767	-37,958	0,114	-0,044
-212,752	458,728	0,072	0,116
-211,738	-32,600	0,091	-0,037
-210,723	123,836	-0,014	0,013
-209,709	-200,000	-0,014	-0,109
-208,694	250,786	-0,075	-0,093
-207,679	14,346	-0,040	0,023
-206,665	-200,000	0,009	-0,149
-205,650	143,033	0,058	0,056
-204,636	800,000	-0,031	0,098
-203,621	800,000	-0,017	0,039
-202,606	-200,000	0,013	-0,125
-201,592	-37,218	-0,081	-0,031
-200,577	422,603	0,022	0,035
-199,563	510,400	-0,041	0,070
-198,548	-113,911	0,077	0,011
-197,533	-200,000	-0,024	0,081
-196,519	800,000	0,015	0,047
-195,504	-200,000	0,013	-0,095
-194,490	-45,868	-0,061	0,022
-193,475	77,252	-0,073	0,056
-192,460	-83,074	0,071	-0,016
-191,446	800,000	0,055	0,171
-190,431	111,064	0,095	0,084
-189,417	83,430	-0,048	0,038
-188,402	-180,338	0,041	0,001
-187,387	149,982	0,048	0,047
-186,373	37,932	-0,024	-0,016
-185,358	800,000	0,013	-0,034
-184,344	117,275	0,018	0,016
-183,329	26,513	0,047	0,028
-182,315	28,367	0,030	-0,018
-181,300	48,170	0,057	0,039
-180,285	41,635	-0,059	0,039
-179,271	108,692	-0,126	0,109
-178,256	552,919	0,049	0,087
-177,242	92,968	0,021	-0,018
-176,227	-200,000	0,017	0,075
-175,212	800,000	0,050	0,141
-174,198	497,604	-0,046	-0,078
-173,183	-165,125	-0,080	-0,003
-172,169	800,000	-0,051	-0,108
-171,154	-200,000	-0,022	-0,087
-170,139	-166,369	0,121	0,004
-169,125	456,725	0,058	0,094
-168,110	479,921	-0,043	0,071
-167,096	-200,000	-0,003	0,012
-166,081	139,998	-0,026	-0,025
-165,066	38,357	-0,064	-0,042
-164,052	27,662	-0,156	0,096
-163,037	-91,439	0,155	-0,032
-162,023	-200,000	-0,015	0,089
-161,008	346,715	0,068	0,097
-159,993	-200,000	-0,003	-0,212
-158,979	13,151	-0,108	0,061
-157,964	-200,000	-0,012	-0,127
-156,950	120,982	0,065	0,059
-155,935	583,532	-0,055	0,098
-154,920	-200,000	0,005	0,074
-153,906	67,986	0,122	0,091
-152,891	-63,175	-0,083	-0,025
-151,877	18,965	0,027	-0,016
-150,862	-134,682	-0,094	-0,008
-149,847	800,000	0,010	-0,023
-148,833	572,717	-0,095	0,170
-147,818	-108,453	0,120	-0,019
-146,804	800,000	0,054	-0,129
-145,789	800,000	0,004	0,012
-144,775	800,000	0,045	-0,127
-143,760	800,000	-0,022	-0,057
-142,745	-177,118	-0,083	0,001
-141,731	-106,961	-0,089	0,014
-140,716	-200,000	0,015	0,072
-139,702	-110,594	0,066	-0,010
-138,687	276,921	0,082	0,107
-137,672	-84,447	-0,029	-0,007
-136,658	-148,855	-0,116	-0,007
-135,643	-62,413	0,121	-0,036
-134,629	800,000	-0,013	-0,042
-133,614	309,973	-0,030	-0,041
-132,599	800,000	-0,068	-0,204
-131,585	440,228	-0,073	-0,116
-130,570	-15,053	0,104	-0,048
-129,556	-15,381	-0,111	-0,051
-128,541	800,000	0,047	-0,103
-127,526	-29,786	-0,072	0,030
-126,512	-200,000	-0,008	0,142
-125,497	-200,000	-0,015	-0,093
-124,483	-200,000	-0,002	0,182
-123,468	-45,187	0,090	-0,032
-122,453	-200,000	-0,059	-0,199
-121,439	800,000	-0,040	-0,113
-120,424	-200,000	-0,029	-0,164
-119,410	47,805	0,074	-0,050
-118,395	-29,138	-0,039	0,016
-117,380	-143,914	0,058	-0,004
-116,366	-200,000	0,022	-0,102
-115,351	179,818	0,057	-0,061
-114,337	-200,000	-0,016	0,055
-113,322	800,000	-0,018	-0,053
-112,307	800,000	0,022	-0,056
-111,293	242,057	-0,061	0,075
-110,278	-200,000	0,090	0,000
-109,264	-129,417	0,092	0,009
-108,249	31,196	0,024	0,015
-107,234	127,097	0,042	0,039
-106,220	-200,000	0,021	-0,173
-105,205	-200,000	0,001	0,070
-104,191	23,823	0,195	0,116
-103,176	800,000	0,044	0,101
-102,162	306,741	-0,049	0,066
-101,147	-200,000	0,001	-0,009
-100,132	-13,715	-0,080	-0,037
-99,118	34,722	-0,017	-0,011
-98,103	-196,203	0,148	0,001
-97,089	-44,712	0,128	-0,046
-96,074	29,936	0,043	0,026
-95,059	110,639	-0,069	0,060
-94,045	800,000	-0,009	-0,020
-93,030	-200,000	0,016	-0,118
-92,016	800,000	-0,033	-0,084
-91,001	800,000	0,076	0,175
-89,986	362,904	-0,042	0,062
-88,972	-200,000	-0,004	0,115
-87,957	-200,000	-0,054	0,000
-86,943	-61,460	-0,112	0,034
-85,928	133,429	-0,064	0,060
-84,913	78,598	-0,100	-0,077
-83,899	-135,298	0,133	0,011
-82,884	-200,000	0,016	0,165
-81,870	97,731	0,070	0,059
-80,855	800,000	-0,027	0,066
-79,840	-48,210	0,025	0,009
-78,826	99,938	0,108	-0,091
-77,811	38,990	-0,066	-0,043
-76,797	-108,599	0,125	-0,019
-75,782	800,000	-0,052	0,110
-74,767	-200,000	-0,013	-0,057
-73,753	68,005	0,113	0,084
-72,738	-200,000	-0,018	0,162
-71,724	127,189	-0,077	-0,071
-70,709	21,329	-0,109	0,064
-69,694	-88,522	-0,144	0,031
-68,680	-200,000	0,006	0,247
-67,665	-200,000	0,004	0,105
-66,651	800,000	0,056	0,126
-65,636	800,000	0,080	0,168
-64,622	-200,000	0,031	0,171
-63,607	-37,314	-0,205	-0,079
-62,592	167,904	0,067	0,069
-61,578	218,451	0,009	0,010
-60,563	800,000	-0,033	0,073
-59,549	-200,000	0,002	0,164
-58,534	-69,790	-1,175	0,323
-57,519	416,124	-1,009	-1,567
-56,505	-200,000	-0,650	-4,068
-55,490	210,358	0,509	-0,581
-54,476	800,000	4,715	11,416
-53,461	-200,000	11,660	224,387
-52,446	-200,000	672,556	2197,678
-51,432	594,275	1622,005	2920,543
-50,417	124,405	1653,661	1508,161
-49,403	76,985	1308,835	1006,964
-48,388	41,529	1039,577	681,087
-47,373	26,831	995,319	603,304
-46,359	26,053	985,330	594,646
-45,344	25,312	981,301	589,744
-44,330	25,194	979,794	588,424
-43,315	25,132	978,256	587,275
-42,300	25,086	977,154	586,439
-41,286	25,090	976,459	586,011
-40,271	25,156	975,179	585,437
-39,257	25,114	974,254	584,719
-38,242	25,133	973,433	584,266
-37,227	25,151	972,674	583,847
-36,213	25,084	971,631	582,978
-35,198	25,011	970,843	582,242
-34,184	25,125	969,999	582,087
-33,169	25,127	968,979	581,458
-32,154	25,129	968,070	580,895
-31,140	25,041	967,222	580,076
-30,125	25,124	966,477	579,878
-29,111	25,106	965,570	579,251
-28,096	25,079	964,939	578,763
-27,082	25,146	964,053	578,424
-26,067	25,153	963,279	577,961
-25,052	25,084	962,609	577,312
-24,038	25,096	962,005	576,968
-23,023	25,034	961,493	576,434
-22,009	25,102	960,686	576,150
-20,994	25,131	959,936	575,769
-19,979	25,137	959,300	575,386
-18,965	25,111	958,699	574,916
-17,950	25,144	957,903	574,523
-16,936	25,032	957,360	573,813
-15,921	25,071	956,529	573,420
-14,906	24,965	955,942	572,704
-13,892	24,974	955,307	572,330
-12,877	24,910	954,921	571,869
-11,863	24,912	954,108	571,367
-10,848	24,993	953,321	571,131
-9,833	25,061	953,087	571,188
-8,819	25,045	952,332	570,661
-7,804	24,976	951,800	570,097
-6,790	24,919	951,451	569,684
-5,775	25,061	950,610	569,613
-4,760	25,019	950,117	569,160
-3,746	24,935	949,613	568,568
-2,731	24,900	948,506	567,769
-1,717	24,823	947,868	567,120
-0,702	24,827	947,446	566,859
0,313	24,609	946,647	566,540
1,327	27,043	944,478	572,928
2,342	35,095	824,806	522,500
3,356	31,198	519,686	322,426
4,371	6,835	378,565	203,614
5,386	3,699	361,024	190,281
6,400	2,155	354,903	185,156
7,415	1,246	351,814	182,428
8,429	1,097	350,446	181,524
9,444	1,114	349,483	181,029
10,459	1,108	348,580	180,537
11,473	1,062	348,003	180,168
12,488	1,253	347,726	180,237
13,502	1,225	347,154	179,891
14,517	1,271	346,311	179,492
15,531	0,986	345,850	178,899
16,546	0,837	345,406	178,476
17,561	0,864	345,029	178,297
18,575	0,875	344,492	178,018
19,590	0,737	344,233	177,704
20,604	0,792	343,843	177,552
21,619	0,853	343,390	177,374
22,634	0,937	343,011	177,262
23,648	0,643	342,789	176,785
24,663	0,902	342,547	176,950
25,677	0,761	342,203	176,590
26,692	0,921	341,845	176,578
27,707	0,707	341,614	176,192
28,721	0,762	341,302	176,079
29,736	0,812	341,038	175,986
30,750	0,895	340,659	175,872
31,765	0,865	340,299	175,635
32,780	0,745	340,147	175,401
33,794	0,787	339,840	175,276
34,809	0,752	339,539	175,064
35,823	0,826	339,153	174,936
36,838	0,731	338,884	174,671
37,853	0,801	338,504	174,541
38,867	0,839	338,402	174,517
39,882	0,768	338,037	174,230
40,896	0,569	337,824	173,875
41,911	0,774	337,520	173,940
42,926	0,808	337,245	173,822
43,940	0,804	336,852	173,600
44,955	0,612	336,710	173,289
45,969	0,394	336,543	172,936
46,984	0,416	336,083	172,710
47,999	0,102	335,740	172,157
49,013	0,047	335,469	171,940
50,028	0,029	335,188	171,760
51,042	0,016	334,988	171,626
52,057	0,094	334,490	171,446
53,071	-0,121	334,374	171,125
54,086	0,041	334,075	171,142
55,101	0,178	333,859	171,172
56,115	0,265	333,815	171,234
57,130	0,739	333,627	171,663
58,144	0,862	333,555	171,753
59,159	1,128	333,094	171,802
60,174	0,945	332,953	171,506
61,188	0,941	332,735	171,374
62,203	1,070	332,485	171,377
63,217	0,852	332,075	170,902
64,232	1,006	331,890	170,967
65,247	1,064	331,703	170,921
66,261	0,977	331,389	170,646
67,276	0,731	331,124	170,215
68,290	0,576	330,843	169,880
69,305	0,607	330,473	169,710
70,320	0,676	330,169	169,616
71,334	0,704	329,999	169,545
72,349	0,942	329,949	169,773
73,363	0,975	329,673	169,653
74,378	0,961	329,302	169,431
75,393	0,949	329,131	169,315
76,407	0,811	328,955	169,054
77,422	0,957	328,572	169,007
78,436	1,073	328,292	168,978
79,451	0,988	328,153	168,796
80,466	0,837	327,599	168,326
81,480	0,733	327,393	168,089
82,495	0,505	327,175	167,708
83,509	0,638	326,948	167,724
84,524	0,625	326,693	167,564
85,539	0,502	326,428	167,276
86,553	0,344	326,165	166,950
87,568	0,442	325,928	166,924
88,582	0,453	325,850	166,881
89,597	0,461	325,625	166,759
90,611	0,564	325,427	166,758
91,626	0,744	325,214	166,834
92,641	0,839	324,852	166,738
93,655	0,777	324,772	166,614
94,670	0,735	324,417	166,370
95,684	0,729	324,243	166,259
96,699	0,647	324,048	166,054
97,714	0,573	323,651	165,754
98,728	0,494	323,450	165,550
99,743	0,297	323,205	165,192
100,757	0,442	322,775	165,117
101,772	0,402	322,848	165,096
102,787	0,389	322,464	164,871
103,801	0,656	322,253	165,041
104,816	0,817	322,104	165,127
105,830	0,903	321,901	165,103
106,845	0,966	321,749	165,079
107,860	0,770	321,422	164,682
108,874	0,753	321,150	164,509
109,889	0,814	320,885	164,425
110,903	0,722	320,694	164,212
111,918	0,615	320,509	163,986
112,933	0,645	320,245	163,869
113,947	0,868	320,120	164,034
114,962	0,850	319,932	163,903
115,976	0,911	319,753	163,864
116,991	0,732	319,457	163,502
118,006	0,650	319,204	163,268
119,020	0,871	319,072	163,427
120,035	0,960	318,972	163,458
121,049	0,952	318,637	163,263
122,064	0,809	318,428	162,986
123,079	0,783	318,162	162,807
124,093	0,709	317,895	162,576
125,108	0,508	317,635	162,211
126,122	0,460	317,345	161,997
127,137	0,113	317,097	161,482
128,151	0,323	316,795	161,540
129,166	0,494	316,677	161,649
130,181	0,583	316,310	161,543
131,195	0,497	316,112	161,335
132,210	0,712	315,943	161,466
133,224	0,690	315,806	161,358
134,239	0,786	315,696	161,390
135,254	0,886	315,297	161,279
136,268	0,760	315,109	161,033
137,283	0,548	314,665	160,566
138,297	0,322	314,502	160,227
139,312	0,397	314,346	160,212
140,327	0,760	314,067	160,444
141,341	0,985	314,228	160,752
142,356	1,190	313,945	160,812
143,370	1,174	313,869	160,741
144,385	1,224	313,557	160,620
145,400	1,067	313,411	160,365
146,414	0,997	313,207	160,172
147,429	1,165	312,834	160,144
148,443	1,130	312,709	160,030
149,458	1,109	312,561	159,916
150,473	1,165	312,344	159,850
151,487	1,122	312,036	159,633
152,502	0,987	311,885	159,398
153,516	1,123	311,655	159,411
154,531	1,210	311,376	159,346
155,546	1,189	311,268	159,254
156,560	0,980	310,874	158,818
157,575	1,066	310,605	158,758
158,589	1,102	310,568	158,762
159,604	1,102	310,244	158,582
160,619	1,094	310,053	158,462
161,633	1,061	309,897	158,333
162,648	0,966	309,753	158,146
163,662	1,236	309,404	158,237
164,677	1,176	309,293	158,103
165,692	1,034	309,261	157,924
166,706	1,168	308,952	157,893
167,721	1,101	308,736	157,698
168,735	1,075	308,441	157,506
169,750	1,180	308,345	157,552
170,764	1,362	308,225	157,667
171,779	1,244	308,021	157,426
172,794	1,384	307,736	157,413
173,808	1,201	307,536	157,105
174,823	0,559	307,249	156,276
175,837	0,406	306,965	155,958
176,852	0,918	306,778	156,382
177,867	1,301	306,698	156,724
178,881	1,316	306,453	156,601
179,896	1,323	306,266	156,499
180,910	1,310	306,138	156,406
181,925	1,200	305,984	156,199
182,940	1,339	305,832	156,252
183,954	1,265	305,508	155,996
184,969	1,245	305,271	155,841
185,983	1,161	305,191	155,699
186,998	1,148	304,843	155,494
188,013	1,246	304,643	155,479
189,027	1,295	304,487	155,436
190,042	1,257	304,295	155,285
191,056	1,453	304,061	155,354
192,071	1,501	303,922	155,317
193,086	1,416	303,833	155,171
194,100	1,525	303,575	155,137
195,115	1,348	303,186	154,743
196,129	1,225	303,097	154,559
197,144	1,229	302,928	154,462
198,159	1,476	302,684	154,577
199,173	1,409	302,312	154,305
200,188	1,393	302,279	154,258
201,202	1,289	301,831	153,909
202,217	0,733	301,608	153,215
203,232	0,522	301,423	152,892
204,246	1,071	301,060	153,253
205,261	1,209	301,074	153,387
206,275	1,210	300,960	153,316
207,290	1,250	300,740	153,231
208,304	1,245	300,546	153,114
209,319	1,263	300,379	153,033
210,334	1,311	300,237	152,996
211,348	1,319	300,124	152,933
212,363	1,194	299,839	152,647
213,377	1,200	299,630	152,534
214,392	1,474	299,398	152,678
215,407	1,039	299,046	152,046
216,421	0,839	298,713	151,661
217,436	0,962	298,701	151,766
218,450	0,993	298,463	151,663
219,465	1,218	298,411	151,850
220,480	1,332	298,281	151,885
221,494	1,292	298,003	151,690
222,509	1,261	297,802	151,543
223,523	1,325	297,686	151,534
224,538	1,496	297,555	151,626
225,553	1,398	297,337	151,403
226,567	1,440	297,093	151,307
227,582	1,404	296,800	151,108
228,596	1,433	296,853	151,151
229,611	1,548	296,572	151,109
230,626	1,460	296,180	150,808
231,640	0,969	296,006	150,216
232,655	0,662	295,576	149,679
233,669	0,408	295,397	149,322
234,684	0,538	295,145	149,310
235,699	0,760	294,997	149,443
236,713	0,721	294,974	149,379
237,728	0,893	294,933	149,517
238,742	1,057	294,758	149,577
239,757	1,257	294,650	149,707
240,772	1,371	294,433	149,697
241,786	1,248	294,272	149,479
242,801	1,010	293,925	149,054
243,815	0,887	293,682	148,796
244,830	1,088	293,669	148,975
245,844	0,957	293,353	148,672
246,859	0,961	292,962	148,464
247,874	1,106	292,898	148,561
248,888	1,045	292,869	148,474
249,903	1,318	292,755	148,672
250,917	1,255	292,692	148,565
251,932	1,682	292,353	148,798
252,947	2,086	292,499	149,258
253,961	2,090	292,199	149,095
254,976	1,840	292,171	148,822
255,990	3,084	292,267	150,080
257,005	3,799	292,521	150,899
258,020	4,560	292,646	151,697
259,034	4,269	292,419	151,281
260,049	4,296	292,168	151,164
261,063	4,146	291,872	150,850
262,078	4,387	291,864	151,068
263,093	5,086	291,728	151,669
264,107	4,921	291,628	151,442
265,122	4,952	291,511	151,397
266,136	5,129	291,439	151,519
267,151	5,033	291,216	151,296
268,166	4,819	290,852	150,885
269,180	4,732	290,656	150,686
270,195	4,857	290,436	150,679
271,209	4,782	290,271	150,507
272,224	4,746	290,033	150,336
273,239	4,535	289,803	149,999
274,253	4,826	289,758	150,244
275,268	5,370	289,704	150,730
276,282	5,164	289,304	150,309
277,297	5,106	289,423	150,302
278,312	5,310	289,213	150,377
279,326	5,174	288,919	150,079
280,341	4,949	288,732	149,751
281,355	4,853	288,408	149,477
282,370	4,604	288,058	149,042
283,384	4,620	287,847	148,934
284,399	4,725	287,947	149,074
285,414	4,846	287,673	149,036
286,428	4,637	287,485	148,724
287,443	4,459	287,062	148,321
288,457	4,437	286,970	148,239
289,472	4,335	286,927	148,106
290,487	4,430	286,708	148,071
291,501	4,563	286,418	148,035
292,516	4,241	286,068	147,533
293,530	4,172	286,146	147,494
294,545	4,522	285,874	147,675
295,560	4,427	285,831	147,549
296,574	4,209	285,515	147,165
297,589	4,308	285,482	147,228
298,603	4,846	285,387	147,680
299,618	4,817	285,177	147,530
300,633	4,662	284,995	147,276
301,647	4,644	284,804	147,147
302,662	4,733	284,499	147,060
303,676	4,578	284,238	146,765
304,691	4,465	283,988	146,516
305,706	4,196	283,876	146,190
306,720	4,108	283,677	145,991
307,735	4,060	283,525	145,855
308,749	4,388	283,411	146,093
309,764	4,467	283,248	146,070
310,779	4,302	282,873	145,708
311,793	4,251	282,610	145,512
312,808	4,047	282,654	145,329
313,822	4,334	282,540	145,528
314,837	4,252	282,080	145,202
315,852	3,965	282,041	144,898
316,866	4,142	281,877	144,968
317,881	4,262	281,758	145,006
318,895	4,401	281,351	144,915
319,910	4,294	281,227	144,737
320,925	4,144	280,997	144,465
321,939	4,105	280,976	144,405
322,954	4,353	280,798	144,533
323,968	4,350	280,599	144,415
324,983	4,476	280,589	144,515
325,997	4,436	280,347	144,340
327,012	4,459	280,178	144,261
328,027	4,490	280,093	144,233
329,041	4,376	279,759	143,943
330,056	4,488	279,589	143,946
331,070	4,502	279,427	143,864
332,085	4,461	279,190	143,691
333,100	4,515	278,935	143,596
334,114	4,428	278,762	143,413
335,129	4,339	278,500	143,184
336,143	4,365	278,516	143,203
337,158	4,676	278,430	143,434
338,173	4,703	278,068	143,261
339,187	4,353	278,084	142,932
340,202	4,357	277,846	142,800
341,216	4,515	277,648	142,831
342,231	4,323	277,570	142,602
343,246	4,569	277,272	142,663
344,260	4,546	276,983	142,481
345,275	4,531	277,087	142,508
346,289	4,749	276,886	142,592
347,304	4,863	276,752	142,615
348,319	4,693	276,369	142,249
349,333	4,454	276,239	141,950
350,348	4,685	276,137	142,097
351,362	4,813	276,060	142,162
352,377	4,693	275,909	141,961
353,392	4,812	275,590	141,894
354,406	4,841	275,514	141,868
355,421	192,275	1334,143	1415,699
356,435	155,445	1463,268	1415,878
