DTS Sentinel unit serial number:	SN410029Multiplexer serial number:	ORYXHardware model number:	OX2-SRSoftware version number:	ORYX F/W v4,00 Oryx Data Collector v3.7.2.0data status	okinstallation	B4 Nyhavnadifferential loss correction	single-endedforward channel	channel 2reverse channel	N/Adate	2023/12/19time	13:05:13forward acquisition time	300,00reverse acquisition time	0,00gamma	499,1914k internal	0,3128k external	0,3128temperature offset calibration	1,0000default loss term (dB/km)	0,3820temperature slope calibration	1,0000multiplexer offset coefficient	1,0000multiplexer slope coefficient	1,0000fibre end	0,00T internal ref (°C)	19,42T ext. ref 1 (°C)	4,43T ext. ref 2 (°C)	4,40length (m)	temperature (°C)	Stokes	anti-Stokes-744,400	-200,000	-0,010	-0,036
-743,385	-116,259	-0,262	-0,036
-742,371	353,485	0,055	0,081
-741,356	-90,433	-0,262	0,056
-740,342	46,635	0,182	-0,125
-739,327	-124,997	-0,296	-0,033
-738,312	800,000	0,033	-0,088
-737,298	-59,756	-0,174	0,055
-736,283	800,000	0,025	-0,070
-735,269	46,781	-0,214	0,148
-734,254	-200,000	0,008	-0,074
-733,239	21,146	-0,300	-0,181
-732,225	-138,890	0,250	0,020
-731,210	153,498	-0,088	0,089
-730,196	378,652	0,011	-0,016
-729,181	-29,767	-0,063	-0,027
-728,167	-200,000	-0,002	-0,083
-727,152	-200,000	0,000	-0,005
-726,137	-57,773	-0,047	-0,015
-725,123	-200,000	0,010	-0,037
-724,108	-121,360	-0,171	-0,021
-723,094	-172,682	-0,154	-0,004
-722,079	98,520	0,027	0,023
-721,064	603,576	0,035	0,065
-720,050	-22,964	0,045	-0,020
-719,035	411,878	-0,026	-0,041
-718,021	50,371	-0,063	0,044
-717,006	220,643	-0,081	-0,096
-715,991	-200,000	0,026	-0,186
-714,977	100,795	0,114	-0,099
-713,962	-52,466	-0,047	-0,016
-712,948	-200,000	-0,087	0,000
-711,933	18,770	0,076	0,045
-710,918	-32,572	-0,114	0,047
-709,904	-200,000	0,013	-0,056
-708,889	-53,177	-0,087	-0,029
-707,875	-101,858	-0,066	-0,012
-706,860	-18,273	0,040	0,019
-705,845	-200,000	-0,029	-0,095
-704,831	-51,443	0,065	0,022
-703,816	79,424	0,069	-0,055
-702,802	147,040	-0,058	-0,058
-701,787	102,930	0,062	-0,054
-700,772	-200,000	0,008	-0,077
-699,758	-200,000	-0,000	-0,145
-698,743	-22,456	-0,094	0,042
-697,729	538,108	0,053	-0,094
-696,714	245,935	-0,033	0,042
-695,699	149,037	0,104	0,105
-694,685	800,000	-0,015	-0,042
-693,670	277,530	0,035	0,047
-692,656	722,318	-0,021	0,042
-691,641	-200,000	0,024	-0,124
-690,627	-163,367	0,148	-0,005
-689,612	71,178	-0,094	-0,073
-688,597	147,688	0,063	0,063
-687,583	800,000	-0,071	-0,221
-686,568	-81,462	-0,137	-0,033
-685,554	-15,690	-0,038	0,018
-684,539	481,620	0,004	0,006
-683,524	-67,572	0,114	0,033
-682,510	28,201	0,061	-0,038
-681,495	577,628	-0,008	-0,014
-680,481	-65,784	-0,093	0,027
-679,466	200,406	-0,052	-0,059
-678,451	-200,000	0,011	-0,046
-677,437	366,836	0,048	-0,072
-676,422	800,000	0,026	-0,077
-675,408	-119,930	-0,104	-0,013
-674,393	-124,071	0,036	-0,004
-673,378	96,675	-0,057	-0,049
-672,364	-22,571	-0,052	0,023
-671,349	-6,374	-0,107	0,054
-670,335	-141,167	0,100	0,007
-669,320	298,397	-0,052	-0,071
-668,305	-200,000	0,006	0,062
-667,291	254,527	0,038	-0,048
-666,276	800,000	-0,029	-0,071
-665,262	188,459	-0,108	-0,119
-664,247	56,955	-0,027	-0,020
-663,232	-26,762	0,132	0,057
-662,218	800,000	0,030	0,094
-661,203	503,427	0,051	-0,087
-660,189	258,502	0,019	-0,025
-659,174	-200,000	-0,028	-0,252
-658,159	18,010	-0,073	-0,043
-657,145	-200,000	-0,007	-0,030
-656,130	-38,563	-0,110	-0,043
-655,116	191,465	0,030	0,033
-654,101	8,809	-0,112	-0,063
-653,086	30,189	0,111	-0,070
-652,072	-200,000	-0,032	-0,123
-651,057	-1,458	-0,115	-0,060
-650,043	-200,000	-0,003	-0,031
-649,028	-118,935	-0,128	0,016
-648,014	-200,000	-0,019	0,110
-646,999	-45,419	-0,085	0,031
-645,984	-141,601	-0,043	-0,003
-644,970	800,000	0,020	-0,049
-643,955	-80,780	0,077	0,019
-642,941	-200,000	-0,004	-0,207
-641,926	-200,000	-0,025	-0,087
-640,911	800,000	0,013	0,030
-639,897	-3,914	0,085	-0,044
-638,882	-161,584	0,092	0,003
-637,868	-146,130	-0,167	0,011
-636,853	-200,000	0,007	0,151
-635,838	584,915	-0,034	-0,062
-634,824	-73,988	-0,058	0,016
-633,809	489,856	0,023	0,038
-632,795	-153,205	0,120	0,006
-631,780	579,948	0,029	0,053
-630,765	-52,023	-0,215	0,074
-629,751	-121,533	-0,025	-0,003
-628,736	-200,000	0,001	-0,077
-627,722	-200,000	-0,022	-0,092
-626,707	-200,000	-0,026	-0,137
-625,692	24,368	-0,071	0,043
-624,678	267,083	-0,086	0,111
-623,663	53,876	-0,068	-0,048
-622,649	465,653	-0,083	-0,139
-621,634	357,074	0,050	-0,074
-620,619	-6,839	0,149	-0,075
-619,605	2,668	-0,168	-0,090
-618,590	166,891	0,021	-0,022
-617,576	-200,000	0,026	0,120
-616,561	-200,000	-0,014	-0,047
-615,546	-200,000	-0,003	-0,143
-614,532	-200,000	-0,006	-0,082
-613,517	800,000	-0,025	0,065
-612,503	-156,117	-0,011	0,001
-611,488	-200,000	0,015	-0,122
-610,474	0,642	0,070	-0,037
-609,459	2,098	0,044	-0,023
-608,444	-63,764	-0,134	-0,040
-607,430	152,457	-0,036	0,036
-606,415	149,502	-0,084	-0,084
-605,401	800,000	0,025	-0,059
-604,386	-200,000	0,007	0,036
-603,371	458,313	-0,045	0,074
-602,357	490,540	0,007	-0,013
-601,342	154,255	-0,084	0,086
-600,328	-151,064	-0,056	-0,003
-599,313	80,503	-0,064	-0,051
-598,298	-104,755	-0,045	-0,008
-597,284	798,192	0,040	-0,082
-596,269	47,591	0,135	0,093
-595,255	-200,000	0,001	-0,025
-594,240	426,627	-0,060	0,096
-593,225	604,090	-0,075	-0,139
-592,211	800,000	0,087	-0,210
-591,196	-89,379	0,111	0,024
-590,182	160,823	-0,048	0,050
-589,167	-74,911	-0,148	-0,039
-588,152	128,059	0,046	-0,044
-587,138	-200,000	-0,007	-0,088
-586,123	800,000	0,028	-0,091
-585,109	-111,503	-0,084	0,013
-584,094	240,156	0,093	0,115
-583,079	-200,000	-0,021	-0,121
-582,065	-104,935	-0,097	0,016
-581,050	800,000	-0,062	0,140
-580,036	-120,472	-0,106	0,013
-579,021	-15,039	-0,136	-0,064
-578,006	-68,904	-0,122	0,035
-576,992	800,000	0,026	0,061
-575,977	800,000	-0,042	-0,092
-574,963	687,259	-0,093	-0,181
-573,948	-91,992	0,033	0,007
-572,934	-200,000	0,001	0,005
-571,919	-59,329	-0,151	-0,048
-570,904	-40,660	-0,084	-0,032
-569,890	800,000	-0,056	-0,171
-568,875	570,202	0,065	-0,117
-567,861	187,752	0,037	0,041
-566,846	146,660	-0,038	0,038
-565,831	800,000	-0,052	-0,140
-564,817	-200,000	-0,014	0,059
-563,802	-3,388	0,042	0,022
-562,788	4,019	-0,197	-0,106
-561,773	150,896	-0,051	-0,051
-560,758	800,000	-0,035	-0,108
-559,744	-111,407	-0,110	-0,016
-558,729	-17,491	-0,054	0,025
-557,715	-200,000	-0,010	-0,082
-556,700	32,323	-0,151	-0,096
-555,685	-200,000	-0,008	-0,073
-554,671	-200,000	0,002	-0,078
-553,656	-140,686	0,073	-0,006
-552,642	-45,992	0,090	0,033
-551,627	39,654	-0,037	-0,025
-550,612	-200,000	0,018	-0,099
-549,598	-14,430	-0,043	-0,021
-548,583	-147,746	0,121	0,007
-547,569	-10,289	-0,079	0,038
-546,554	409,516	0,043	0,067
-545,539	-200,000	0,029	0,103
-544,525	-94,921	-0,031	0,006
-543,510	-118,691	-0,062	-0,008
-542,496	-200,000	-0,006	0,119
-541,481	800,000	-0,037	-0,081
-540,466	369,377	0,085	-0,128
-539,452	-166,011	0,155	-0,005
-538,437	47,272	0,038	0,026
-537,423	96,229	0,072	0,061
-536,408	775,064	0,033	-0,067
-535,393	469,181	0,035	0,058
-534,379	800,000	-0,035	-0,087
-533,364	452,674	0,069	-0,114
-532,350	34,755	-0,042	0,027
-531,335	147,034	0,027	0,027
-530,321	-146,170	-0,011	0,001
-529,306	-145,656	-0,018	0,001
-528,291	-149,680	-0,152	0,009
-527,277	-104,004	-0,038	-0,007
-526,262	182,816	0,109	0,118
-525,248	107,893	-0,103	0,090
-524,233	800,000	0,034	0,078
-523,218	-200,000	-0,004	-0,108
-522,204	-200,000	0,006	0,085
-521,189	800,000	-0,072	-0,215
-520,175	-103,940	0,107	0,018
-519,160	800,000	-0,033	0,097
-518,145	682,182	0,052	0,100
-517,131	121,986	-0,040	-0,037
-516,116	22,163	0,088	0,053
-515,102	-200,000	-0,009	0,052
-514,087	-200,000	-0,008	0,143
-513,072	-200,000	0,003	0,103
-512,058	800,000	-0,052	-0,116
-511,043	800,000	-0,039	0,083
-510,029	-48,144	0,075	-0,027
-509,014	-92,886	-0,129	0,026
-507,999	-127,266	-0,021	0,002
-506,985	800,000	-0,033	-0,069
-505,970	800,000	0,023	0,060
-504,956	800,000	-0,054	-0,134
-503,941	-42,649	-0,094	-0,035
-502,926	-200,000	0,002	0,197
-501,912	129,212	-0,058	0,054
-500,897	52,704	-0,089	0,063
-499,883	102,635	0,126	-0,109
-498,868	138,209	0,028	0,028
-497,853	354,236	-0,054	-0,080
-496,839	-61,850	0,040	-0,012
-495,824	-200,000	0,001	0,162
-494,810	-200,000	-0,003	-0,048
-493,795	-31,117	0,056	0,023
-492,781	17,617	0,024	0,014
-491,766	800,000	-0,024	0,076
-490,751	-200,000	-0,038	-0,157
-489,737	800,000	0,037	-0,105
-488,722	-13,054	0,086	0,041
-487,708	241,028	0,051	0,062
-486,693	-89,866	-0,038	-0,008
-485,678	-176,335	-0,146	0,003
-484,664	-151,050	0,155	-0,008
-483,649	800,000	0,010	0,024
-482,635	398,838	-0,092	-0,143
-481,620	-200,000	-0,002	0,049
-480,605	155,337	-0,064	-0,064
-479,591	-139,351	0,141	-0,011
-478,576	-24,945	-0,132	0,057
-477,562	-5,156	-0,008	-0,004
-476,547	31,846	0,029	-0,018
-475,532	741,521	-0,016	0,031
-474,518	-58,972	0,062	-0,020
-473,503	1,930	0,032	-0,017
-472,489	-200,000	0,022	0,112
-471,474	141,676	-0,094	-0,092
-470,459	104,697	-0,026	-0,023
-469,445	800,000	0,041	-0,089
-468,430	137,150	-0,142	-0,136
-467,416	-39,847	-0,029	0,011
-466,401	579,804	-0,031	0,055
-465,386	357,430	0,039	0,058
-464,372	-200,000	0,011	0,119
-463,357	-133,002	0,069	-0,006
-462,343	-147,323	0,084	0,005
-461,328	64,141	-0,059	-0,044
-460,313	-105,427	-0,078	-0,013
-459,299	364,978	0,083	0,123
-458,284	743,084	0,066	0,132
-457,270	800,000	0,007	0,015
-456,255	-200,000	0,023	-0,204
-455,241	-200,000	0,004	-0,015
-454,226	800,000	0,014	-0,035
-453,211	-200,000	0,025	-0,087
-452,197	800,000	0,028	0,063
-451,182	800,000	-0,033	0,091
-450,168	-200,000	0,021	-0,076
-449,153	-200,000	-0,021	0,076
-448,138	587,929	-0,039	-0,072
-447,124	-200,000	0,001	0,060
-446,109	259,150	-0,021	-0,027
-445,095	59,871	-0,052	-0,038
-444,080	-51,816	0,085	0,029
-443,065	60,605	0,114	0,083
-442,051	747,599	0,033	-0,065
-441,036	-200,000	-0,011	-0,066
-440,022	-200,000	0,013	-0,075
-439,007	9,726	0,170	0,094
-437,992	71,453	0,111	0,085
-436,978	194,777	-0,044	0,049
-435,963	241,474	0,041	0,050
-434,949	163,989	-0,083	-0,086
-433,934	27,248	-0,073	0,045
-432,919	800,000	-0,053	-0,129
-431,905	126,888	-0,013	-0,012
-430,890	54,607	0,041	-0,029
-429,876	119,269	0,050	0,045
-428,861	-200,000	0,002	0,046
-427,846	-200,000	-0,011	-0,045
-426,832	-200,000	0,003	-0,101
-425,817	366,179	0,047	-0,071
-424,803	-200,000	-0,017	-0,077
-423,788	-200,000	0,041	0,175
-422,773	-133,427	0,067	0,006
-421,759	149,052	0,066	-0,066
-420,744	-200,000	-0,019	0,112
-419,730	-50,354	-0,039	-0,014
-418,715	800,000	-0,031	-0,084
-417,701	161,384	0,001	0,001
-416,686	92,785	-0,053	-0,044
-415,671	564,536	0,032	0,056
-414,657	-200,000	0,022	0,076
-413,642	354,794	-0,097	0,142
-412,628	-111,896	-0,114	-0,017
-411,613	396,895	0,034	-0,053
-410,598	-161,283	0,175	-0,007
-409,584	-17,952	0,115	-0,053
-408,569	-200,000	0,001	0,110
-407,555	-200,000	0,026	0,097
-406,540	-200,000	0,072	-0,266
-405,525	130,772	-0,080	-0,075
-404,511	0,069	-0,059	-0,031
-403,496	-85,601	-0,064	0,014
-402,482	-200,000	0,034	0,121
-401,467	337,558	0,030	0,043
-400,452	227,756	0,027	-0,032
-399,438	-200,000	0,023	0,124
-398,423	454,704	0,014	0,023
-397,409	29,115	-0,059	-0,037
-396,394	-53,313	-0,146	0,049
-395,379	326,823	-0,035	0,049
-394,365	-200,000	-0,001	0,171
-393,350	10,366	0,141	0,079
-392,336	149,924	-0,110	-0,109
-391,321	-161,309	-0,024	-0,001
-390,306	800,000	0,065	-0,162
-389,292	800,000	-0,060	-0,146
-388,277	399,630	-0,077	0,120
-387,263	74,876	0,131	-0,101
-386,248	263,568	-0,100	0,128
-385,233	683,822	0,044	0,084
-384,219	800,000	0,045	-0,097
-383,204	630,299	0,032	-0,059
-382,190	-128,027	-0,148	-0,015
-381,175	29,311	0,090	-0,056
-380,160	-200,000	-0,037	-0,121
-379,146	-200,000	0,015	0,112
-378,131	-22,878	0,142	0,063
-377,117	-34,573	0,050	-0,020
-376,102	-200,000	-0,000	-0,020
-375,088	-16,412	-0,031	-0,014
-374,073	-200,000	-0,004	-0,038
-373,058	255,266	0,021	0,026
-372,044	-128,089	0,066	-0,007
-371,029	-0,162	0,091	0,047
-370,015	53,596	-0,093	0,066
-369,000	-23,202	0,087	0,038
-367,985	-200,000	-0,010	-0,082
-366,971	83,647	-0,054	0,043
-365,956	-46,690	0,102	0,036
-364,942	-200,000	-0,039	0,135
-363,927	-200,000	0,000	0,022
-362,912	-200,000	0,021	0,104
-361,898	-113,754	-0,079	0,011
-360,883	-200,000	-0,009	0,031
-359,869	-55,820	0,151	-0,049
-358,854	800,000	0,036	-0,109
-357,839	-106,653	0,195	0,031
-356,825	615,684	0,019	0,035
-355,810	519,039	-0,033	-0,057
-354,796	-34,100	-0,031	0,013
-353,781	1,410	0,068	-0,035
-352,766	110,728	0,079	-0,069
-351,752	800,000	-0,047	0,130
-350,737	-92,954	0,007	-0,001
-349,723	800,000	0,038	0,083
-348,708	-30,754	0,022	0,009
-347,693	78,170	-0,123	-0,097
-346,679	800,000	0,068	-0,176
-345,664	-98,298	-0,239	-0,045
-344,650	245,746	0,059	-0,073
-343,635	565,009	0,007	0,013
-342,620	57,256	-0,041	-0,029
-341,606	-200,000	-0,016	0,082
-340,591	374,481	0,043	0,064
-339,577	800,000	0,024	-0,053
-338,562	-200,000	0,011	0,164
-337,548	-101,937	0,073	0,013
-336,533	800,000	-0,023	-0,054
-335,518	-200,000	-0,064	0,212
-334,504	493,275	-0,052	0,087
-333,489	91,201	-0,023	-0,019
-332,475	543,346	0,019	-0,033
-331,460	132,520	0,140	-0,133
-330,445	800,000	0,050	-0,103
-329,431	-130,742	-0,012	-0,001
-328,416	-200,000	0,025	0,233
-327,402	-178,583	0,063	-0,001
-326,387	800,000	0,034	0,097
-325,372	-200,000	-0,009	-0,040
-324,358	-200,000	0,046	-0,154
-323,343	-120,738	0,110	0,013
-322,329	185,772	-0,056	-0,061
-321,314	-200,000	-0,008	0,077
-320,299	-127,347	0,045	0,005
-319,285	-200,000	-0,000	-0,082
-318,270	800,000	0,010	0,022
-317,256	178,261	0,100	-0,106
-316,241	-200,000	0,002	0,015
-315,226	132,631	0,050	-0,047
-314,212	-79,302	0,071	0,017
-313,197	-64,575	0,084	-0,025
-312,183	-82,244	-0,115	0,027
-311,168	800,000	-0,091	-0,197
-310,153	-146,620	-0,114	-0,007
-309,139	-15,475	0,079	-0,037
-308,124	800,000	0,004	0,009
-307,110	-33,242	0,148	0,060
-306,095	25,159	0,101	0,061
-305,080	295,166	0,049	-0,065
-304,066	238,092	-0,015	-0,018
-303,051	-141,281	-0,063	-0,005
-302,037	-82,941	0,150	0,035
-301,022	395,069	0,016	-0,024
-300,008	150,994	0,124	-0,124
-298,993	575,098	-0,034	0,061
-297,978	289,734	-0,066	0,088
-296,964	17,272	0,122	0,071
-295,949	171,154	0,026	-0,027
-294,935	-39,344	-0,060	-0,023
-293,920	762,408	0,055	0,109
-292,905	183,418	-0,064	0,070
-291,891	-132,083	0,129	0,012
-290,876	-115,145	-0,141	0,019
-289,862	-5,555	-0,045	0,023
-288,847	-200,000	-0,016	-0,119
-287,832	-63,769	-0,077	-0,023
-286,818	33,970	0,068	0,043
-285,803	800,000	0,054	0,171
-284,789	-161,694	0,104	0,004
-283,774	-153,433	-0,139	-0,007
-282,759	-4,504	0,044	-0,022
-281,745	-12,725	-0,218	0,103
-280,730	247,383	0,035	-0,043
-279,716	190,081	-0,027	-0,030
-278,701	-154,753	0,158	-0,008
-277,686	399,629	0,049	0,076
-276,672	148,702	0,072	-0,072
-275,657	800,000	0,050	0,137
-274,643	477,529	0,057	0,094
-273,628	-200,000	-0,011	-0,044
-272,613	-44,411	0,171	-0,062
-271,599	150,594	0,026	0,026
-270,584	6,286	-0,075	0,040
-269,570	-200,000	0,018	0,095
-268,555	-0,739	0,071	0,037
-267,540	-55,003	-0,055	0,018
-266,526	-200,000	0,000	0,010
-265,511	800,000	-0,008	0,023
-264,497	-34,098	-0,054	-0,022
-263,482	85,718	-0,074	-0,059
-262,467	-38,766	-0,091	0,035
-261,453	135,269	0,103	0,098
-260,438	75,293	0,146	0,113
-259,424	-200,000	-0,008	-0,147
-258,409	-196,487	-0,037	-0,000
-257,395	-200,000	0,006	0,035
-256,380	800,000	-0,057	0,119
-255,365	207,832	0,014	0,016
-254,351	55,710	-0,049	-0,034
-253,336	109,232	0,090	0,078
-252,322	800,000	0,033	-0,097
-251,307	-92,984	-0,018	-0,004
-250,292	-82,344	-0,039	-0,009
-249,278	-62,972	0,088	0,026
-248,263	-86,681	-0,037	0,008
-247,249	-200,000	0,014	-0,076
-246,234	-18,034	0,150	-0,068
-245,219	-84,399	-0,058	0,013
-244,205	515,896	-0,031	0,052
-243,190	358,203	-0,064	0,093
-242,176	-200,000	0,024	0,152
-241,161	358,884	-0,053	0,077
-240,146	800,000	-0,047	-0,097
-239,132	202,969	-0,041	-0,047
-238,117	-200,000	0,019	-0,067
-237,103	-34,342	-0,094	-0,037
-236,088	-85,357	0,015	0,003
-235,073	-125,489	-0,124	-0,014
-234,059	800,000	0,073	0,150
-233,044	-200,000	0,014	-0,071
-232,030	-200,000	-0,026	0,103
-231,015	-200,000	0,009	-0,109
-230,000	248,095	-0,035	-0,044
-228,986	-200,000	-0,000	-0,085
-227,971	73,139	-0,025	-0,019
-226,957	177,834	-0,032	0,034
-225,942	800,000	0,057	0,151
-224,927	644,709	-0,091	0,171
-223,913	-200,000	0,000	0,066
-222,898	-200,000	0,000	0,068
-221,884	251,764	0,027	0,034
-220,869	226,427	-0,103	0,122
-219,855	800,000	0,048	0,144
-218,840	31,612	-0,032	0,020
-217,825	-6,311	-0,114	0,057
-216,811	-200,000	0,015	-0,122
-215,796	-200,000	0,008	0,040
-214,782	20,154	0,049	0,028
-213,767	13,282	-0,059	0,033
-212,752	-67,006	0,121	0,035
-211,738	609,032	0,086	0,158
-210,723	-16,624	0,067	-0,031
-209,709	225,831	-0,138	0,164
-208,694	200,100	0,007	0,008
-207,679	-62,765	0,086	0,026
-206,665	481,344	0,031	-0,051
-205,650	540,133	-0,061	0,105
-204,636	226,799	0,090	-0,107
-203,621	-101,998	0,037	-0,006
-202,606	800,000	-0,033	-0,101
-201,592	800,000	-0,038	-0,100
-200,577	-17,313	-0,082	0,038
-199,563	366,283	-0,020	0,030
-198,548	433,779	-0,045	0,071
-197,533	97,781	-0,067	0,056
-196,519	-131,736	0,121	-0,011
-195,504	-200,000	-0,002	0,040
-194,490	317,430	0,013	0,017
-193,475	-200,000	-0,002	0,022
-192,460	202,621	-0,052	0,059
-191,446	-112,154	0,119	-0,017
-190,431	398,090	-0,014	0,022
-189,417	-200,000	-0,030	0,154
-188,402	70,539	0,118	0,089
-187,387	-200,000	0,004	-0,120
-186,373	-200,000	-0,034	-0,159
-185,358	73,399	0,063	0,048
-184,344	146,036	0,048	-0,047
-183,329	-42,916	-0,031	-0,011
-182,315	571,106	-0,023	-0,041
-181,300	-79,167	-0,119	-0,029
-180,285	342,891	0,035	0,050
-179,271	-95,748	-0,059	0,011
-178,256	-200,000	-0,016	-0,051
-177,242	93,842	0,063	-0,052
-176,227	97,812	0,099	0,083
-175,212	160,911	0,109	0,111
-174,198	416,110	-0,013	-0,020
-173,183	-200,000	-0,028	-0,173
-172,169	310,711	-0,063	-0,086
-171,154	-200,000	-0,002	0,076
-170,139	-200,000	0,002	-0,139
-169,125	92,903	0,055	0,045
-168,110	273,203	0,057	0,073
-167,096	493,585	-0,065	-0,110
-166,081	-126,341	-0,057	-0,006
-165,066	76,051	-0,053	-0,041
-164,052	-200,000	-0,006	0,160
-163,037	-25,340	0,004	-0,002
-162,023	-13,611	0,144	0,068
-161,008	186,516	-0,031	0,033
-159,993	-86,259	0,129	0,029
-158,979	141,453	0,047	-0,045
-157,964	183,902	-0,094	-0,101
-156,950	561,036	-0,064	-0,113
-155,935	282,248	0,034	-0,045
-154,920	54,948	0,123	-0,086
-153,906	190,395	0,091	0,100
-152,891	714,214	-0,054	0,105
-151,877	31,334	-0,017	-0,011
-150,862	34,827	-0,059	0,037
-149,847	-200,000	0,018	-0,132
-148,833	453,064	0,062	-0,100
-147,818	82,615	0,094	0,074
-146,804	800,000	0,018	0,041
-145,789	267,419	0,031	-0,040
-144,775	303,661	0,087	-0,117
-143,760	50,883	-0,179	-0,123
-142,745	800,000	0,026	-0,070
-141,731	-200,000	-0,004	-0,029
-140,716	193,199	-0,033	-0,037
-139,702	-200,000	0,013	0,067
-138,687	-200,000	0,028	0,112
-137,672	-200,000	0,008	0,031
-136,658	-146,322	0,108	-0,007
-135,643	178,572	-0,063	-0,067
-134,629	-200,000	-0,008	-0,112
-133,614	-9,019	-0,111	-0,054
-132,599	-110,358	0,135	-0,020
-131,585	-200,000	0,025	-0,097
-130,570	-93,908	-0,026	-0,005
-129,556	-103,722	0,106	-0,018
-128,541	128,425	-0,048	0,045
-127,526	800,000	-0,044	0,095
-126,512	82,863	0,083	-0,066
-125,497	800,000	-0,008	-0,020
-124,483	-5,967	0,122	0,060
-123,468	353,145	0,031	0,045
-122,453	229,566	-0,020	-0,024
-121,439	-66,565	-0,119	0,034
-120,424	160,439	0,037	0,038
-119,410	-200,000	0,013	0,123
-118,395	268,068	0,055	0,070
-117,380	20,483	0,102	-0,060
-116,366	465,574	-0,011	0,018
-115,351	100,978	-0,078	-0,066
-114,337	800,000	-0,066	-0,144
-113,322	800,000	0,021	-0,066
-112,307	302,800	-0,047	-0,064
-111,293	-102,610	0,025	-0,004
-110,278	172,733	-0,046	0,048
-109,264	-121,422	0,115	0,014
-108,249	105,758	0,028	0,024
-107,234	-200,000	-0,003	-0,055
-106,220	234,720	0,038	-0,046
-105,205	-26,587	-0,194	0,082
-104,191	589,840	-0,015	0,027
-103,176	-200,000	-0,023	0,135
-102,162	20,111	0,091	0,053
-101,147	98,808	-0,041	0,034
-100,132	-5,693	0,022	0,011
-99,118	-30,338	-0,099	0,041
-98,103	-27,349	-0,075	0,031
-97,089	589,602	0,042	0,076
-96,074	-77,559	0,078	0,019
-95,059	-179,753	-0,108	-0,002
-94,045	-200,000	0,001	-0,055
-93,030	-66,714	-0,050	0,014
-92,016	-30,180	-0,087	0,036
-91,001	53,956	0,076	0,053
-89,986	495,291	0,048	-0,080
-88,972	690,963	0,061	-0,116
-87,957	800,000	-0,011	-0,023
-86,943	-92,642	0,117	-0,024
-85,928	-65,864	-0,028	-0,008
-84,913	314,883	-0,077	-0,105
-83,899	-32,318	-0,020	0,008
-82,884	469,104	-0,057	0,093
-81,870	800,000	-0,019	0,056
-80,855	652,038	-0,019	0,036
-79,840	690,008	-0,067	0,128
-78,826	454,061	-0,061	-0,098
-77,811	-200,000	0,040	-0,167
-76,797	-200,000	0,013	-0,081
-75,782	-200,000	-0,019	0,087
-74,767	34,499	0,152	0,096
-73,753	-23,208	-0,073	0,032
-72,738	-200,000	0,010	0,091
-71,724	-65,792	0,136	0,039
-70,709	23,473	0,050	-0,030
-69,694	-200,000	-0,037	0,125
-68,680	116,156	-0,040	0,036
-67,665	-200,000	-0,001	-0,145
-66,651	-200,000	-0,014	-0,144
-65,636	185,959	-0,041	-0,044
-64,622	162,316	0,043	-0,044
-63,607	585,329	-0,074	-0,133
-62,592	-200,000	0,015	-0,088
-61,578	-200,000	-0,006	0,060
-60,563	-66,812	0,064	-0,018
-59,549	86,780	0,081	0,065
-58,534	-79,831	-1,680	-0,406
-57,519	800,000	-0,710	-1,432
-56,505	-200,000	-0,819	-4,351
-55,490	-95,033	0,526	-0,102
-54,476	800,000	5,062	11,630
-53,461	-200,000	15,005	270,108
-52,446	-200,000	695,835	2253,112
-51,432	589,783	1615,873	2898,329
-50,417	120,941	1624,222	1463,807
-49,403	82,634	1281,430	1007,592
-48,388	37,407	1022,356	655,290
-47,373	22,283	983,303	580,450
-46,359	21,196	972,346	570,389
-45,344	19,661	968,067	562,831
-44,330	19,683	966,768	562,127
-43,315	19,500	965,163	560,571
-42,300	19,437	964,156	559,759
-41,286	19,446	963,089	559,147
-40,271	19,524	962,143	558,829
-39,257	19,460	961,287	558,103
-38,242	19,526	960,412	557,785
-37,227	19,455	959,750	557,151
-36,213	19,454	958,894	556,627
-35,198	19,403	957,787	555,797
-34,184	19,447	957,333	555,655
-33,169	19,421	956,274	554,934
-32,154	19,489	955,279	554,553
-31,140	19,495	954,279	553,970
-30,125	19,478	953,779	553,605
-29,111	19,454	952,882	552,985
-28,096	19,420	952,408	552,576
-27,082	19,461	951,559	552,195
-26,067	19,448	950,783	551,679
-25,052	19,421	950,148	551,203
-24,038	19,474	949,367	550,899
-23,023	19,404	948,610	550,212
-22,009	19,488	947,887	550,040
-20,994	19,447	947,445	549,632
-19,979	19,469	946,944	549,390
-18,965	19,456	946,255	548,926
-17,950	19,406	945,884	548,529
-16,936	19,372	945,033	547,904
-15,921	19,399	944,330	547,561
-14,906	19,355	943,460	546,896
-13,892	19,346	943,031	546,595
-12,877	19,329	942,160	546,016
-11,863	19,284	941,830	545,659
-10,848	19,295	940,972	545,175
-9,833	19,446	940,720	545,488
-8,819	19,406	940,172	545,022
-7,804	19,350	939,418	544,386
-6,790	19,326	938,761	543,906
-5,775	19,400	938,108	543,741
-4,760	19,389	937,535	543,352
-3,746	19,337	937,022	542,869
-2,731	19,169	936,215	541,849
-1,717	19,134	935,616	541,371
-0,702	19,166	934,879	541,023
0,313	18,999	934,300	540,977
1,327	21,439	932,088	547,339
2,342	28,958	806,362	493,864
3,356	23,194	506,372	300,296
4,371	-0,947	373,711	190,853
5,386	-3,750	357,019	178,865
6,400	-4,830	351,284	174,670
7,415	-5,245	348,561	172,800
8,429	-5,269	347,423	172,193
9,444	-5,341	346,302	171,536
10,459	-5,250	345,689	171,325
11,473	-5,272	345,034	170,959
12,488	-5,313	344,651	170,705
13,502	-5,471	344,102	170,231
14,517	-5,262	343,386	170,109
15,531	-5,387	343,045	169,777
16,546	-5,312	342,799	169,728
17,561	-5,317	342,272	169,447
18,575	-5,179	341,916	169,418
19,590	-5,211	341,514	169,166
20,604	-5,251	341,197	168,947
21,619	-5,203	340,681	168,733
22,634	-5,151	340,325	168,602
23,648	-5,166	340,016	168,416
24,663	-5,169	339,710	168,247
25,677	-5,277	339,443	167,972
26,692	-5,230	339,268	167,926
27,707	-5,403	338,839	167,497
28,721	-5,264	338,644	167,548
29,736	-5,239	338,228	167,356
30,750	-5,240	337,772	167,115
31,765	-5,110	337,656	167,193
32,780	-5,326	337,252	166,727
33,794	-5,223	337,094	166,754
34,809	-5,294	336,758	166,491
35,823	-5,103	336,349	166,495
36,838	-5,209	336,211	166,289
37,853	-5,205	335,816	166,083
38,867	-5,310	335,581	165,832
39,882	-5,113	335,341	165,925
40,896	-5,160	335,149	165,761
41,911	-5,156	334,841	165,598
42,926	-5,248	334,615	165,366
43,940	-5,172	334,275	165,271
44,955	-5,113	333,936	165,156
45,969	-5,237	333,759	164,912
46,984	-5,371	333,580	164,655
47,999	-5,110	333,361	164,831
49,013	-5,218	333,156	164,591
50,028	-5,254	332,899	164,409
51,042	-5,327	332,610	164,168
52,057	-5,232	332,189	164,054
53,071	-5,214	332,087	164,009
54,086	-5,149	331,759	163,906
55,101	-5,303	331,477	163,578
56,115	-5,231	331,216	163,516
57,130	-5,036	331,025	163,629
58,144	-5,187	330,579	163,222
59,159	-5,245	330,433	163,070
60,174	-5,349	330,155	162,800
61,188	-5,225	329,836	162,769
62,203	-5,212	329,598	162,652
63,217	-5,157	329,321	162,563
64,232	-5,153	329,067	162,427
65,247	-5,233	328,858	162,220
66,261	-5,182	328,504	162,088
67,276	-5,243	328,227	161,868
68,290	-5,321	328,103	161,704
69,305	-5,288	327,859	161,607
70,320	-5,100	327,623	161,687
71,334	-5,127	327,456	161,560
72,349	-5,129	327,086	161,361
73,363	-5,110	326,640	161,148
74,378	-5,139	326,527	161,045
75,393	-5,300	326,258	160,719
76,407	-5,234	326,066	160,683
77,422	-5,270	325,916	160,554
78,436	-5,122	325,475	160,488
79,451	-5,153	325,232	160,319
80,466	-4,992	324,912	160,327
81,480	-5,076	324,732	160,130
82,495	-5,132	324,575	159,976
83,509	-5,140	324,311	159,823
84,524	-5,294	324,108	159,537
85,539	-5,129	323,905	159,607
86,553	-5,073	323,622	159,514
87,568	-5,218	323,486	159,273
88,582	-5,246	323,216	159,095
89,597	-5,200	322,850	158,952
90,611	-5,055	322,579	158,964
91,626	-5,036	322,364	158,864
92,641	-5,074	322,172	158,714
93,655	-5,155	321,923	158,488
94,670	-5,120	321,554	158,330
95,684	-5,233	321,443	158,137
96,699	-4,868	321,009	158,311
97,714	-5,048	320,876	158,034
98,728	-4,984	320,656	157,982
99,743	-5,091	320,530	157,788
100,757	-5,217	320,514	157,628
101,772	-5,062	319,953	157,508
102,787	-5,072	319,738	157,377
103,801	-5,148	319,540	157,182
104,816	-5,130	319,466	157,152
105,830	-5,120	319,092	156,965
106,845	-5,088	318,849	156,866
107,860	-5,161	318,742	156,719
108,874	-5,181	318,383	156,508
109,889	-5,168	318,120	156,378
110,903	-5,093	317,753	156,266
111,918	-5,213	317,800	156,144
112,933	-5,148	317,525	156,066
113,947	-5,082	317,169	155,948
114,962	-5,170	317,000	155,755
115,976	-5,155	316,923	155,720
116,991	-5,183	316,620	155,528
118,006	-5,099	316,476	155,534
119,020	-5,239	316,407	155,335
120,035	-5,189	316,129	155,238
121,049	-5,259	315,934	155,053
122,064	-5,170	315,665	155,003
123,079	-5,100	315,084	154,779
124,093	-5,096	315,029	154,743
125,108	-5,097	314,779	154,605
126,122	-5,254	314,664	154,366
127,137	-5,152	314,434	154,350
128,151	-5,250	314,248	154,139
129,166	-5,101	313,923	154,126
130,181	-5,058	313,807	154,100
131,195	-4,960	313,330	153,958
132,210	-5,113	313,142	153,688
133,224	-5,081	312,874	153,577
134,239	-5,071	312,692	153,484
135,254	-5,122	312,408	153,277
136,268	-5,049	312,317	153,296
137,283	-5,114	312,049	153,082
138,297	-5,067	311,761	152,977
139,312	-5,031	311,550	152,898
140,327	-4,978	311,219	152,778
141,341	-5,141	311,173	152,570
142,356	-5,172	311,007	152,442
143,370	-5,078	310,673	152,364
144,385	-5,059	310,456	152,263
145,400	-5,015	310,335	152,238
146,414	-4,979	310,160	152,176
147,429	-4,998	309,787	151,959
148,443	-5,199	309,625	151,655
149,458	-5,175	309,529	151,619
150,473	-5,123	309,167	151,483
151,487	-5,199	308,903	151,260
152,502	-5,179	308,785	151,210
153,516	-5,273	308,545	150,980
154,531	-5,079	308,214	151,009
155,546	-5,210	308,024	150,764
156,560	-5,072	307,881	150,825
157,575	-5,009	307,746	150,812
158,589	-5,234	307,611	150,496
159,604	-5,090	307,162	150,415
160,619	-4,964	306,889	150,398
161,633	-4,978	306,860	150,357
162,648	-5,069	306,612	150,126
163,662	-5,051	306,553	150,103
164,677	-5,049	306,173	149,905
165,692	-5,214	306,004	149,638
166,706	-5,130	305,914	149,668
167,721	-5,112	305,663	149,551
168,735	-5,117	305,514	149,459
169,750	-5,017	305,248	149,419
170,764	-5,183	305,203	149,212
171,779	-5,214	305,011	149,072
172,794	-5,155	304,706	148,972
173,808	-5,123	304,535	148,908
174,823	-5,054	304,153	148,779
175,837	-5,055	303,950	148,665
176,852	-5,031	303,897	148,651
177,867	-5,026	303,567	148,481
178,881	-5,074	303,551	148,411
179,896	-5,056	303,191	148,240
180,910	-5,045	302,982	148,136
181,925	-5,205	302,755	147,847
182,940	-5,111	302,622	147,865
183,954	-5,054	302,400	147,802
184,969	-5,065	302,266	147,713
185,983	-4,936	302,088	147,744
186,998	-5,011	301,806	147,517
188,013	-4,876	301,502	147,493
189,027	-5,113	301,360	147,168
190,042	-5,012	301,207	147,183
191,056	-5,115	301,089	147,007
192,071	-5,158	300,670	146,746
193,086	-5,227	300,489	146,574
194,100	-4,973	300,269	146,713
195,115	-4,977	300,107	146,616
196,129	-5,031	299,851	146,423
197,144	-5,192	299,667	146,156
198,159	-4,992	299,308	146,171
199,173	-4,993	299,108	146,060
200,188	-5,009	299,018	145,987
201,202	-5,014	298,733	145,829
202,217	-5,185	298,731	145,642
203,232	-5,064	298,479	145,629
204,246	-4,987	298,148	145,532
205,261	-5,043	298,009	145,395
206,275	-5,055	297,704	145,220
207,290	-5,044	297,566	145,152
208,304	-4,981	297,456	145,149
209,319	-5,016	297,260	145,005
210,334	-5,039	297,006	144,844
211,348	-5,109	296,709	144,617
212,363	-5,035	296,598	144,624
213,377	-4,921	296,456	144,656
214,392	-4,921	296,241	144,538
215,407	-4,929	296,033	144,416
216,421	-5,016	295,800	144,202
217,436	-5,073	295,696	144,081
218,450	-5,123	295,407	143,879
219,465	-5,122	295,225	143,778
220,480	-5,139	294,988	143,632
221,494	-5,085	294,738	143,552
222,509	-5,134	294,753	143,497
223,523	-5,190	294,458	143,286
224,538	-5,140	294,203	143,198
225,553	-4,954	294,018	143,281
226,567	-4,924	293,897	143,238
227,582	-4,914	293,709	143,143
228,596	-4,913	293,521	143,040
229,611	-4,976	293,273	142,845
230,626	-5,040	293,032	142,651
231,640	-5,051	292,836	142,532
232,655	-5,057	292,601	142,399
233,669	-5,030	292,355	142,293
234,684	-5,003	292,324	142,292
235,699	-5,145	292,228	142,092
236,713	-4,906	291,878	142,145
237,728	-4,949	291,803	142,054
238,742	-4,921	291,399	141,871
239,757	-4,881	291,297	141,849
240,772	-5,016	291,124	141,619
241,786	-5,100	291,033	141,480
242,801	-4,987	290,713	141,423
243,815	-4,736	290,501	141,553
244,830	-5,064	290,445	141,191
245,844	-4,999	290,112	141,080
246,859	-5,016	289,942	140,969
247,874	-5,145	289,950	140,834
248,888	-4,946	289,496	140,795
249,903	-5,043	289,375	140,629
250,917	-5,001	289,202	140,574
251,932	-4,937	289,022	140,536
252,947	-5,129	288,773	140,215
253,961	-5,213	288,377	139,928
254,976	-5,399	288,278	139,688
255,990	-5,222	288,241	139,829
257,005	-3,825	288,650	141,375
258,020	-1,480	289,460	144,044
259,034	-0,089	289,804	145,560
260,049	0,338	289,750	145,936
261,063	0,727	289,897	146,375
262,078	0,846	289,706	146,381
263,093	1,421	289,496	146,822
264,107	1,679	289,628	147,126
265,122	1,690	289,357	146,986
266,136	1,839	289,369	147,124
267,151	1,878	289,174	147,049
268,166	2,035	288,933	147,066
269,180	2,069	288,571	146,902
270,195	1,833	288,539	146,643
271,209	2,034	288,185	146,645
272,224	1,895	288,244	146,527
273,239	1,879	287,976	146,363
274,253	1,827	287,765	146,192
275,268	1,560	287,599	145,837
276,282	1,670	287,375	145,817
277,297	1,783	287,072	145,759
278,312	1,716	286,930	145,609
279,326	1,625	286,888	145,487
280,341	1,678	286,812	145,487
281,355	1,808	286,458	145,419
282,370	1,598	286,355	145,152
283,384	1,753	286,030	145,123
284,399	1,556	285,918	144,865
285,414	1,769	285,596	144,893
286,428	1,784	285,402	144,795
287,443	1,724	285,205	144,625
288,457	1,732	284,960	144,496
289,472	1,713	284,904	144,437
290,487	1,411	284,624	143,993
291,501	1,610	284,585	144,151
292,516	1,537	284,329	143,938
293,530	1,600	284,173	143,907
294,545	1,619	283,935	143,791
295,560	1,752	283,606	143,738
296,574	1,620	283,573	143,583
297,589	1,515	283,415	143,391
298,603	1,617	283,190	143,361
299,618	1,439	283,084	143,126
300,633	1,769	282,857	143,311
301,647	1,607	282,660	143,045
302,662	1,746	282,560	143,113
303,676	1,820	282,417	143,098
304,691	1,742	282,238	142,920
305,706	1,820	282,010	142,866
306,720	1,831	281,654	142,683
307,735	1,737	281,653	142,581
308,749	1,742	281,560	142,526
309,764	1,729	281,299	142,369
310,779	1,815	281,031	142,302
311,793	1,745	280,884	142,149
312,808	1,744	280,819	142,103
313,822	1,722	280,483	141,899
314,837	1,715	280,409	141,842
315,852	1,563	280,196	141,580
316,866	1,718	279,957	141,592
317,881	1,597	279,713	141,342
318,895	1,627	279,570	141,286
319,910	1,726	279,272	141,214
320,925	1,632	279,160	141,058
321,939	1,644	279,167	141,060
322,954	1,894	278,865	141,127
323,968	1,762	278,842	140,980
324,983	1,967	278,649	141,061
325,997	1,890	278,268	140,784
327,012	1,630	278,215	140,504
328,027	1,852	278,096	140,636
329,041	1,816	277,908	140,496
330,056	1,729	277,683	140,289
331,070	1,796	277,543	140,268
332,085	1,998	277,275	140,307
333,100	1,994	276,988	140,145
334,114	1,824	276,901	139,931
335,129	1,790	276,798	139,835
336,143	1,936	276,527	139,821
337,158	1,721	276,478	139,585
338,173	1,853	276,372	139,641
339,187	1,870	276,094	139,503
340,202	1,877	275,941	139,420
341,216	1,803	275,688	139,212
342,231	1,768	275,591	139,119
343,246	2,028	275,336	139,217
344,260	1,961	275,157	139,052
345,275	1,807	275,083	138,861
346,289	1,910	274,942	138,871
347,304	1,866	274,710	138,702
348,319	1,845	274,512	138,570
349,333	1,833	274,303	138,441
350,348	2,004	274,077	138,472
351,362	1,965	273,803	138,284
352,377	1,954	273,795	138,258
353,392	2,080	273,649	138,287
354,406	1,894	273,505	138,033
355,421	193,204	1346,997	1431,174
356,435	156,091	1477,840	1431,266
