DTS Sentinel unit serial number:	SN410029Multiplexer serial number:	ORYXHardware model number:	OX2-SRSoftware version number:	ORYX F/W v4,00 Oryx Data Collector v3.7.2.0data status	okinstallation	B4 Nyhavnadifferential loss correction	single-endedforward channel	channel 2reverse channel	N/Adate	2023/12/18time	20:55:13forward acquisition time	300,00reverse acquisition time	0,00gamma	499,1914k internal	0,3124k external	0,3124temperature offset calibration	1,0000default loss term (dB/km)	0,3820temperature slope calibration	1,0000multiplexer offset coefficient	1,0000multiplexer slope coefficient	1,0000fibre end	0,00T internal ref (°C)	21,83T ext. ref 1 (°C)	7,10T ext. ref 2 (°C)	7,01length (m)	temperature (°C)	Stokes	anti-Stokes-744,400	143,474	-0,071	-0,070
-743,385	-152,383	-0,251	0,013
-742,371	-200,000	0,027	0,100
-741,356	136,372	-0,220	0,214
-740,342	217,694	0,080	0,096
-739,327	800,000	-0,053	0,150
-738,312	76,103	0,011	-0,009
-737,298	-63,546	-0,249	0,076
-736,283	-175,600	0,084	-0,002
-735,269	-117,276	-0,177	0,024
-734,254	13,100	-0,093	-0,054
-733,239	-98,063	-0,498	-0,095
-732,225	40,443	0,075	0,050
-731,210	-200,000	-0,023	0,111
-730,196	-50,029	-0,170	-0,060
-729,181	361,529	-0,068	-0,102
-728,167	284,810	0,045	0,061
-727,152	-200,000	-0,006	0,045
-726,137	-120,883	-0,010	-0,001
-725,123	245,765	-0,063	-0,079
-724,108	488,522	-0,099	-0,170
-723,094	-200,000	-0,033	-0,144
-722,079	-200,000	-0,017	-0,062
-721,064	-200,000	-0,017	-0,117
-720,050	-200,000	-0,025	-0,092
-719,035	365,944	-0,073	-0,110
-718,021	-200,000	-0,026	-0,088
-717,006	-107,434	-0,165	-0,027
-715,991	88,153	-0,138	0,114
-714,977	-53,817	-0,061	-0,021
-713,962	-31,832	-0,049	-0,020
-712,948	-200,000	0,017	-0,137
-711,933	29,843	0,079	0,050
-710,918	51,462	-0,099	0,070
-709,904	-200,000	-0,048	-0,214
-708,889	800,000	-0,040	-0,106
-707,875	22,411	-0,132	-0,080
-706,860	800,000	-0,043	0,115
-705,845	271,670	-0,039	-0,052
-704,831	351,514	-0,050	-0,074
-703,816	-104,564	0,128	0,022
-702,802	-200,000	-0,023	0,088
-701,787	123,635	-0,161	-0,150
-700,772	-200,000	-0,021	-0,196
-699,758	433,585	0,010	0,016
-698,743	261,845	0,050	-0,064
-697,729	-200,000	-0,010	0,124
-696,714	800,000	-0,016	-0,035
-695,699	-52,723	-0,046	-0,016
-694,685	282,617	-0,039	-0,052
-693,670	7,393	-0,124	-0,069
-692,656	-87,465	-0,049	0,011
-691,641	800,000	0,013	0,036
-690,627	-200,000	-0,012	0,135
-689,612	-200,000	-0,037	-0,150
-688,597	208,967	-0,067	0,078
-687,583	-1,704	-0,048	0,025
-686,568	229,650	-0,019	0,023
-685,554	136,477	0,038	0,037
-684,539	380,792	0,041	-0,063
-683,524	-40,152	0,032	-0,012
-682,510	-41,253	0,073	0,028
-681,495	242,233	-0,010	0,012
-680,481	-154,375	-0,089	-0,004
-679,466	-200,000	0,022	-0,165
-678,451	-44,844	0,106	-0,039
-677,437	21,679	-0,018	0,011
-676,422	-200,000	0,008	0,049
-675,408	124,467	-0,093	0,087
-674,393	139,280	-0,087	-0,085
-673,378	-54,078	-0,064	-0,021
-672,364	-28,874	0,060	-0,026
-671,349	-140,380	-0,152	0,012
-670,335	167,183	-0,075	0,079
-669,320	800,000	-0,027	-0,074
-668,305	800,000	0,016	0,044
-667,291	800,000	-0,044	-0,133
-666,276	78,731	-0,163	-0,129
-665,262	197,770	-0,030	-0,034
-664,247	17,384	-0,102	0,060
-663,232	225,747	-0,044	0,054
-662,218	725,200	0,028	0,056
-661,203	226,673	-0,051	0,062
-660,189	27,318	-0,047	0,029
-659,174	350,754	0,049	0,072
-658,159	-200,000	-0,007	-0,060
-657,145	-123,509	0,091	0,011
-656,130	-33,200	-0,101	0,041
-655,116	314,378	0,037	0,053
-654,101	-200,000	0,020	0,138
-653,086	-65,146	0,060	-0,018
-652,072	800,000	-0,024	-0,066
-651,057	87,190	-0,068	-0,056
-650,043	-44,465	-0,108	-0,040
-649,028	335,940	0,039	-0,056
-648,014	-56,795	0,068	0,022
-646,999	483,642	0,035	0,059
-645,984	-26,723	0,053	0,023
-644,970	-200,000	-0,019	0,097
-643,955	240,786	0,041	-0,051
-642,941	210,700	-0,077	-0,090
-641,926	-124,169	-0,064	0,007
-640,911	-200,000	0,005	-0,081
-639,897	-200,000	0,031	0,123
-638,882	-98,332	0,101	0,019
-637,868	169,685	-0,043	-0,046
-636,853	74,535	0,064	-0,050
-635,838	-113,564	-0,058	-0,008
-634,824	-200,000	0,007	0,028
-633,809	197,465	-0,078	-0,089
-632,795	55,585	-0,039	-0,028
-631,780	150,530	0,107	0,108
-630,765	-200,000	-0,001	0,008
-629,751	-200,000	-0,006	-0,175
-628,736	-35,069	-0,139	0,056
-627,722	-80,959	0,060	0,015
-626,707	318,026	-0,105	0,148
-625,692	-105,982	0,126	0,021
-624,678	800,000	0,011	0,025
-623,663	163,789	-0,036	0,037
-622,649	-51,304	-0,068	0,024
-621,634	-33,768	-0,053	-0,022
-620,619	-200,000	-0,001	-0,020
-619,605	633,584	-0,015	0,029
-618,590	15,351	0,073	0,043
-617,576	-196,345	-0,051	-0,000
-616,561	423,680	0,080	0,128
-615,546	18,158	-0,093	-0,055
-614,532	-117,399	-0,116	-0,015
-613,517	451,693	0,053	-0,087
-612,503	31,924	0,094	0,060
-611,488	-200,000	-0,006	-0,031
-610,474	627,394	0,089	0,168
-609,459	170,733	0,060	-0,064
-608,444	64,095	-0,068	-0,050
-607,430	624,568	0,060	0,113
-606,415	241,218	-0,072	-0,089
-605,401	22,012	0,018	0,011
-604,386	-141,496	-0,157	-0,012
-603,371	-200,000	0,004	-0,041
-602,357	-200,000	0,007	0,048
-601,342	91,145	-0,009	-0,007
-600,328	89,332	-0,023	0,019
-599,313	44,111	0,036	-0,024
-598,298	-200,000	-0,002	-0,081
-597,284	208,634	0,083	0,097
-596,269	-200,000	-0,009	-0,091
-595,255	-31,661	0,071	-0,030
-594,240	176,424	-0,083	0,090
-593,225	97,528	-0,080	-0,068
-592,211	120,278	-0,080	0,073
-591,196	-48,777	-0,182	-0,064
-590,182	-19,024	-0,088	0,040
-589,167	800,000	0,023	-0,063
-588,152	401,914	0,051	0,080
-587,138	523,060	0,027	0,047
-586,123	800,000	-0,014	-0,040
-585,109	-191,073	-0,111	0,001
-584,094	248,158	0,017	-0,022
-583,079	-200,000	0,012	0,073
-582,065	-200,000	0,037	-0,162
-581,050	-200,000	0,000	-0,013
-580,036	158,209	-0,085	0,087
-579,021	-200,000	0,001	-0,031
-578,006	-17,937	-0,034	0,016
-576,992	800,000	-0,041	0,118
-575,977	-136,070	-0,084	0,007
-574,963	-200,000	0,005	0,119
-573,948	162,660	0,026	0,027
-572,934	33,581	-0,125	-0,080
-571,919	-200,000	-0,001	0,104
-570,904	-200,000	-0,011	0,038
-569,890	-200,000	-0,026	-0,115
-568,875	259,744	-0,071	0,092
-567,861	-200,000	0,000	0,028
-566,846	-32,739	-0,047	-0,019
-565,831	-200,000	-0,012	0,080
-564,817	800,000	0,016	0,051
-563,802	14,104	-0,031	0,018
-562,788	-65,846	-0,078	0,023
-561,773	144,130	0,034	-0,034
-560,758	29,991	-0,062	-0,039
-559,744	-4,488	-0,155	0,079
-558,729	203,732	0,087	0,100
-557,715	-122,528	-0,115	-0,014
-556,700	-200,000	0,013	0,087
-555,685	-149,736	-0,056	0,003
-554,671	30,292	-0,083	0,052
-553,656	91,518	-0,059	0,049
-552,642	-200,000	0,004	0,060
-551,627	-122,722	0,044	0,005
-550,612	-111,157	-0,129	0,019
-549,598	174,528	0,050	0,053
-548,583	-200,000	-0,016	0,053
-547,569	-200,000	0,003	0,034
-546,554	118,006	-0,093	-0,085
-545,539	-82,567	0,159	0,038
-544,525	-152,721	0,055	-0,003
-543,510	63,119	-0,122	-0,090
-542,496	504,591	-0,059	-0,102
-541,481	-200,000	-0,005	0,060
-540,466	346,084	0,035	0,051
-539,452	-10,873	-0,095	0,046
-538,437	-200,000	0,004	-0,123
-537,423	246,581	-0,010	-0,012
-536,408	47,056	-0,080	-0,055
-535,393	412,193	-0,069	-0,109
-534,379	800,000	-0,023	-0,059
-533,364	-200,000	0,020	-0,103
-532,350	-200,000	-0,012	0,087
-531,335	800,000	-0,041	0,089
-530,321	-200,000	-0,020	-0,082
-529,306	-1,604	0,066	0,034
-528,291	-137,786	-0,075	0,006
-527,277	230,650	0,075	0,091
-526,262	-17,262	-0,060	-0,028
-525,248	-116,786	0,072	-0,010
-524,233	-29,689	-0,164	0,069
-523,218	-14,926	0,049	-0,023
-522,204	-158,897	0,113	-0,005
-521,189	165,614	0,071	-0,074
-520,175	309,819	0,053	-0,074
-519,160	-200,000	0,002	-0,023
-518,145	119,992	-0,082	-0,075
-517,131	-200,000	-0,016	-0,082
-516,116	-40,560	-0,073	-0,028
-515,102	34,416	0,067	-0,043
-514,087	-67,922	-0,123	-0,035
-513,072	-106,556	0,081	0,013
-512,058	-200,000	0,013	-0,053
-511,043	0,347	0,075	0,039
-510,029	-200,000	-0,002	-0,032
-509,014	302,544	0,012	-0,016
-507,999	-200,000	0,000	0,078
-506,985	-53,434	-0,062	-0,021
-505,970	-59,947	-0,022	0,007
-504,956	234,267	0,070	-0,085
-503,941	800,000	-0,055	0,164
-502,926	522,067	-0,022	-0,038
-501,912	-200,000	0,013	0,175
-500,897	443,940	-0,079	0,129
-499,883	-41,305	-0,081	0,031
-498,868	454,933	0,067	-0,110
-497,853	800,000	-0,059	-0,149
-496,839	51,560	0,072	-0,050
-495,824	112,307	-0,074	-0,066
-494,810	-94,570	-0,124	0,025
-493,795	122,342	0,063	0,058
-492,781	-25,888	-0,089	-0,039
-491,766	-8,791	-0,056	-0,027
-490,751	370,019	0,086	0,129
-489,737	32,253	0,035	0,022
-488,722	-60,155	0,110	0,034
-487,708	60,455	-0,092	0,067
-486,693	-18,539	-0,101	0,046
-485,678	39,826	0,066	-0,044
-484,664	672,481	-0,098	-0,189
-483,649	-108,376	-0,064	-0,010
-482,635	92,513	0,101	-0,084
-481,620	62,098	0,112	0,082
-480,605	-138,031	0,183	-0,015
-479,591	1,759	0,051	-0,027
-478,576	-200,000	0,048	-0,177
-477,562	50,738	-0,129	-0,090
-476,547	-200,000	-0,013	-0,067
-475,532	-145,072	0,125	0,008
-474,518	69,940	-0,034	-0,026
-473,503	138,014	-0,050	0,048
-472,489	-7,030	-0,017	-0,008
-471,474	-73,374	0,088	-0,023
-470,459	-161,565	-0,172	-0,006
-469,445	800,000	0,022	-0,045
-468,430	-200,000	-0,037	-0,182
-467,416	77,081	0,070	-0,055
-466,401	800,000	0,048	0,108
-465,386	-149,955	0,178	-0,010
-464,372	101,397	0,046	-0,040
-463,357	-167,629	0,021	0,001
-462,343	28,351	0,103	-0,064
-461,328	60,803	-0,034	-0,025
-460,313	800,000	0,034	0,077
-459,299	66,479	0,071	-0,053
-458,284	-6,526	0,044	0,022
-457,270	-115,310	0,077	-0,011
-456,255	467,499	0,055	0,090
-455,241	-200,000	-0,019	-0,084
-454,226	-200,000	-0,002	-0,012
-453,211	590,096	-0,027	0,049
-452,197	800,000	-0,008	-0,024
-451,182	-137,175	-0,077	-0,006
-450,168	-52,168	-0,069	0,023
-449,153	234,385	0,072	-0,088
-448,138	800,000	-0,043	-0,103
-447,124	-200,000	0,005	-0,021
-446,109	-200,000	0,003	-0,031
-445,095	236,359	0,092	0,112
-444,080	78,893	-0,131	-0,103
-443,065	90,953	0,074	-0,061
-442,051	-95,419	-0,072	0,014
-441,036	-44,169	0,109	-0,040
-440,022	592,480	0,036	-0,065
-439,007	-32,842	-0,173	0,070
-437,992	-24,319	0,134	-0,059
-436,978	-200,000	-0,011	0,121
-435,963	-57,668	-0,112	0,036
-434,949	-64,403	0,135	-0,040
-433,934	-200,000	0,003	0,024
-432,919	96,491	-0,034	-0,029
-431,905	151,521	0,067	-0,067
-430,890	729,544	-0,058	0,115
-429,876	-200,000	0,011	0,056
-428,861	-12,400	-0,113	0,054
-427,846	188,191	0,076	0,084
-426,832	-200,000	-0,003	0,038
-425,817	259,815	-0,062	0,079
-424,803	-27,802	0,058	0,025
-423,788	-200,000	0,031	0,117
-422,773	256,897	-0,116	0,147
-421,759	379,926	0,050	0,075
-420,744	-24,537	-0,136	-0,059
-419,730	277,507	-0,038	0,050
-418,715	800,000	-0,030	-0,065
-417,701	-43,287	-0,077	-0,028
-416,686	511,173	0,016	0,028
-415,671	23,959	-0,121	0,073
-414,657	315,719	-0,079	0,110
-413,642	800,000	-0,046	0,097
-412,628	545,383	0,032	-0,056
-411,613	-200,000	-0,011	-0,121
-410,598	-109,866	-0,068	-0,010
-409,584	-200,000	0,046	-0,159
-408,569	1,616	-0,051	0,027
-407,555	-84,042	0,063	-0,014
-406,540	-85,377	0,072	-0,016
-405,525	344,991	-0,065	-0,094
-404,511	800,000	-0,047	-0,136
-403,496	163,828	0,074	0,076
-402,482	-76,236	-0,088	0,023
-401,467	-57,741	0,138	-0,044
-400,452	351,614	0,015	0,022
-399,438	800,000	-0,033	0,089
-398,423	800,000	-0,053	-0,138
-397,409	800,000	0,018	-0,053
-396,394	54,645	0,077	-0,055
-395,379	-200,000	0,006	-0,045
-394,365	800,000	0,066	-0,137
-393,350	-15,223	-0,030	0,014
-392,336	-200,000	0,036	0,123
-391,321	-162,239	-0,154	-0,006
-390,306	-58,632	0,070	0,022
-389,292	622,676	-0,008	0,016
-388,277	-200,000	0,013	-0,060
-387,263	87,588	0,067	0,054
-386,248	10,824	0,076	0,043
-385,233	-200,000	0,010	0,138
-384,219	687,723	0,023	-0,045
-383,204	800,000	0,048	-0,098
-382,190	-191,860	-0,026	0,000
-381,175	345,848	-0,032	0,046
-380,160	-200,000	0,001	0,025
-379,146	0,917	0,129	0,068
-378,131	-200,000	0,019	0,064
-377,117	-200,000	-0,021	-0,149
-376,102	-88,279	0,032	-0,007
-375,088	211,672	-0,034	0,039
-374,073	774,774	0,090	-0,181
-373,058	327,471	-0,012	-0,018
-372,044	61,236	-0,083	-0,061
-371,029	-56,845	-0,044	-0,014
-370,015	-63,471	-0,101	0,030
-369,000	425,557	-0,050	-0,079
-367,985	44,883	0,046	0,031
-366,971	197,466	-0,077	-0,086
-365,956	800,000	0,034	0,075
-364,942	800,000	-0,022	0,060
-363,927	289,380	-0,088	0,117
-362,912	800,000	0,030	-0,084
-361,898	800,000	0,039	0,113
-360,883	-200,000	-0,002	0,060
-359,869	-61,776	0,143	-0,044
-358,854	301,813	-0,056	-0,076
-357,839	-88,892	-0,046	-0,010
-356,825	29,423	-0,013	0,008
-355,810	-78,768	-0,077	0,019
-354,796	278,430	-0,077	-0,101
-353,781	590,421	0,039	-0,071
-352,766	20,158	0,017	-0,010
-351,752	-110,950	-0,055	0,008
-350,737	-51,661	0,115	0,039
-349,723	-63,412	0,196	-0,059
-348,708	-200,000	-0,052	-0,000
-347,693	-72,354	-0,085	0,023
-346,679	-113,807	0,038	0,005
-345,664	-200,000	0,009	-0,110
-344,650	-171,110	0,030	0,001
-343,635	263,687	0,005	-0,007
-342,620	-200,000	0,020	0,086
-341,606	60,280	-0,058	0,042
-340,591	800,000	-0,028	0,071
-339,577	800,000	-0,025	-0,074
-338,562	-200,000	0,021	0,091
-337,548	-124,235	-0,059	-0,007
-336,533	31,091	0,061	-0,038
-335,518	-200,000	0,002	0,045
-334,504	-200,000	0,018	0,173
-333,489	-200,000	-0,015	0,069
-332,475	-87,020	0,093	-0,021
-331,460	-18,634	-0,116	0,053
-330,445	454,786	0,059	0,096
-329,431	365,507	0,095	-0,141
-328,416	-200,000	-0,001	0,070
-327,402	800,000	0,060	0,173
-326,387	-200,000	-0,009	0,066
-325,372	-200,000	0,025	-0,121
-324,358	314,443	-0,068	-0,094
-323,343	-200,000	-0,015	0,090
-322,329	-96,305	0,128	-0,025
-321,314	-200,000	-0,007	-0,021
-320,299	12,199	-0,074	0,041
-319,285	285,296	-0,066	0,087
-318,270	800,000	0,025	-0,060
-317,256	374,788	-0,018	-0,026
-316,241	149,636	0,066	-0,066
-315,226	138,082	-0,051	0,049
-314,212	-200,000	0,033	-0,118
-313,197	21,659	0,119	-0,071
-312,183	-57,315	0,055	0,018
-311,168	-200,000	0,005	0,049
-310,153	402,805	-0,062	-0,096
-309,139	-185,191	-0,104	0,001
-308,124	-200,000	-0,032	0,114
-307,110	-200,000	-0,036	0,140
-306,095	38,768	0,055	0,036
-305,080	2,683	-0,003	0,001
-304,066	-108,240	-0,057	0,009
-303,051	-200,000	0,018	-0,135
-302,037	386,438	-0,037	-0,056
-301,022	-200,000	0,007	-0,031
-300,008	-115,763	0,060	0,008
-298,993	-200,000	0,016	0,051
-297,978	710,301	0,067	-0,130
-296,964	-200,000	-0,006	0,130
-295,949	88,620	0,030	0,025
-294,935	-20,025	0,126	0,057
-293,920	-130,372	-0,035	0,003
-292,905	288,312	0,064	-0,085
-291,891	-31,299	0,105	0,043
-290,876	62,830	0,045	-0,033
-289,862	11,973	-0,044	-0,025
-288,847	-155,434	0,155	0,007
-287,832	-74,535	-0,078	-0,020
-286,818	-200,000	0,006	0,095
-285,803	238,359	-0,081	-0,099
-284,789	-83,070	0,038	0,009
-283,774	-200,000	0,026	0,248
-282,759	-51,352	0,065	-0,022
-281,745	226,618	0,026	-0,030
-280,730	-122,613	0,021	0,002
-279,716	-126,879	-0,123	-0,013
-278,701	-88,961	0,184	-0,040
-277,686	-104,079	0,029	0,005
-276,672	206,506	0,113	0,130
-275,657	294,191	0,050	0,067
-274,643	76,810	-0,050	0,039
-273,628	-200,000	0,001	-0,058
-272,613	-67,236	0,103	0,029
-271,599	-200,000	-0,007	0,145
-270,584	-74,124	-0,016	0,004
-269,570	-200,000	0,015	0,061
-268,555	-0,205	-0,013	0,007
-267,540	85,905	-0,126	-0,101
-266,526	796,577	-0,054	-0,110
-265,511	-31,009	-0,004	0,002
-264,497	800,000	0,032	-0,087
-263,482	-200,000	-0,008	0,090
-262,467	365,209	-0,038	0,057
-261,453	548,174	0,044	0,078
-260,438	142,097	-0,093	-0,090
-259,424	269,776	-0,038	0,049
-258,409	143,389	0,012	-0,012
-257,395	-200,000	0,006	0,039
-256,380	-41,119	0,027	-0,010
-255,365	36,738	0,130	0,084
-254,351	800,000	-0,022	0,070
-253,336	-173,525	0,034	0,001
-252,322	566,384	-0,022	0,039
-251,307	-104,503	-0,140	-0,023
-250,292	-137,420	0,131	0,011
-249,278	54,640	0,160	-0,113
-248,263	732,318	0,042	0,082
-247,249	800,000	0,028	-0,076
-246,234	-200,000	-0,001	0,108
-245,219	423,502	-0,052	-0,083
-244,205	37,548	0,075	-0,048
-243,190	-18,978	-0,050	0,022
-242,176	245,826	-0,020	0,024
-241,161	-84,612	0,204	0,047
-240,146	74,958	-0,063	0,048
-239,132	-85,291	-0,020	0,005
-238,117	115,079	-0,080	0,071
-237,103	-200,000	0,014	0,070
-236,088	357,301	0,027	0,039
-235,073	174,450	-0,065	-0,068
-234,059	800,000	-0,064	0,147
-233,044	205,061	-0,047	0,053
-232,030	183,221	0,148	0,160
-231,015	-16,092	-0,096	-0,044
-230,000	800,000	-0,025	-0,074
-228,986	27,354	-0,096	-0,059
-227,971	800,000	0,027	-0,056
-226,957	3,563	-0,053	0,028
-225,942	-96,847	-0,038	0,007
-224,927	17,774	0,077	0,044
-223,913	-200,000	-0,015	-0,057
-222,898	255,468	-0,071	-0,089
-221,884	144,079	0,046	-0,045
-220,869	-18,815	0,081	0,037
-219,855	321,620	-0,040	0,055
-218,840	154,266	0,046	-0,046
-217,825	-44,903	0,072	-0,026
-216,811	-64,921	-0,097	0,029
-215,796	360,590	-0,075	-0,110
-214,782	-24,796	-0,072	0,031
-213,767	-200,000	0,011	-0,131
-212,752	-29,218	0,028	0,012
-211,738	-200,000	0,004	-0,018
-210,723	-200,000	0,018	0,067
-209,709	-143,542	-0,048	0,003
-208,694	73,726	0,079	-0,060
-207,679	-161,968	0,037	-0,001
-206,665	-200,000	0,018	-0,113
-205,650	25,311	0,125	-0,076
-204,636	-200,000	0,053	0,188
-203,621	-35,159	0,116	0,046
-202,606	139,492	-0,083	0,080
-201,592	38,673	-0,048	0,031
-200,577	506,973	0,058	0,098
-199,563	800,000	0,013	0,038
-198,548	305,025	-0,147	0,200
-197,533	-95,291	0,177	-0,034
-196,519	-200,000	0,003	0,059
-195,504	-147,677	0,042	-0,003
-194,490	-200,000	-0,004	-0,050
-193,475	-153,928	-0,028	0,001
-192,460	800,000	0,030	0,062
-191,446	-47,116	0,145	0,051
-190,431	2,681	0,102	-0,054
-189,417	-15,595	0,017	-0,008
-188,402	-99,554	-0,069	-0,012
-187,387	104,877	0,075	0,065
-186,373	69,583	0,121	-0,091
-185,358	-150,379	-0,066	0,004
-184,344	27,440	-0,028	0,017
-183,329	-136,404	0,056	-0,005
-182,315	-200,000	0,020	0,178
-181,300	-108,137	0,075	-0,012
-180,285	306,376	0,109	-0,148
-179,271	-150,732	-0,041	0,002
-178,256	-200,000	0,030	-0,244
-177,242	800,000	-0,050	-0,135
-176,227	354,680	0,076	0,111
-175,212	124,523	0,045	0,041
-174,198	54,892	0,063	0,044
-173,183	23,918	-0,079	-0,047
-172,169	800,000	0,027	-0,085
-171,154	257,917	0,063	-0,079
-170,139	22,779	0,048	0,028
-169,125	800,000	-0,021	0,053
-168,110	631,918	0,021	-0,038
-167,096	-91,326	-0,100	0,021
-166,081	266,376	0,062	-0,079
-165,066	666,330	-0,059	-0,111
-164,052	-200,000	0,044	-0,147
-163,037	-5,258	-0,238	-0,119
-162,023	245,891	-0,041	-0,051
-161,008	-200,000	0,002	0,060
-159,993	204,837	-0,059	-0,067
-158,979	728,631	-0,064	-0,125
-157,964	800,000	0,015	-0,042
-156,950	667,306	-0,058	-0,110
-155,935	594,066	-0,060	-0,109
-154,920	-45,438	0,050	-0,018
-153,906	-57,268	0,052	-0,016
-152,891	-107,075	0,094	0,015
-151,877	800,000	0,024	-0,058
-150,862	-125,317	-0,082	-0,009
-149,847	-200,000	-0,013	-0,054
-148,833	-108,344	-0,075	0,012
-147,818	-200,000	-0,001	0,016
-146,804	97,138	0,132	0,110
-145,789	394,120	0,109	0,166
-144,775	-36,394	0,024	-0,009
-143,760	18,104	-0,061	-0,035
-142,745	-200,000	-0,003	0,015
-141,731	-200,000	-0,017	-0,112
-140,716	-49,585	0,114	0,039
-139,702	800,000	0,045	0,125
-138,687	-149,208	-0,114	-0,007
-137,672	800,000	0,033	0,092
-136,658	43,739	-0,078	-0,052
-135,643	232,862	-0,053	0,063
-134,629	-146,119	0,141	0,009
-133,614	9,267	-0,062	0,034
-132,599	-35,460	-0,079	0,031
-131,585	-79,511	0,179	-0,044
-130,570	-38,777	0,079	-0,030
-129,556	37,557	-0,084	-0,054
-128,541	431,404	-0,062	-0,099
-127,526	-101,001	0,040	-0,007
-126,512	-200,000	-0,002	-0,017
-125,497	16,265	-0,106	0,061
-124,483	417,140	0,087	0,135
-123,468	800,000	0,051	0,122
-122,453	-157,217	-0,079	0,003
-121,439	800,000	-0,019	0,055
-120,424	622,231	-0,026	-0,048
-119,410	-200,000	-0,045	0,160
-118,395	800,000	0,040	0,101
-117,380	-21,046	-0,116	-0,052
-116,366	104,342	0,041	-0,035
-115,351	-11,987	-0,110	0,052
-114,337	177,881	0,076	-0,080
-113,322	79,491	-0,068	0,053
-112,307	-1,275	-0,052	0,027
-111,293	449,720	-0,048	0,078
-110,278	-200,000	0,010	0,038
-109,264	106,411	0,017	-0,015
-108,249	800,000	0,065	0,143
-107,234	6,943	-0,044	0,024
-106,220	29,400	-0,056	0,035
-105,205	455,687	-0,029	-0,047
-104,191	-5,873	-0,066	-0,033
-103,176	-200,000	0,017	-0,096
-102,162	-76,164	-0,080	-0,020
-101,147	-7,713	0,100	0,049
-100,132	215,107	-0,074	-0,085
-99,118	-200,000	-0,007	-0,063
-98,103	-6,904	-0,028	-0,014
-97,089	-105,065	0,068	0,011
-96,074	800,000	-0,026	-0,076
-95,059	109,192	-0,010	0,009
-94,045	75,647	0,057	-0,044
-93,030	41,184	-0,056	0,037
-92,016	94,878	0,051	0,042
-91,001	-14,508	0,065	0,030
-89,986	90,444	-0,043	0,035
-88,972	-200,000	-0,012	0,052
-87,957	-200,000	0,052	0,182
-86,943	-82,457	-0,064	0,015
-85,928	-200,000	0,024	-0,087
-84,913	-14,587	-0,103	-0,048
-83,899	800,000	-0,023	0,051
-82,884	32,746	-0,030	0,019
-81,870	260,145	0,062	-0,078
-80,855	-87,117	0,072	0,016
-79,840	-49,595	-0,077	-0,026
-78,826	347,704	-0,138	-0,199
-77,811	-200,000	0,010	-0,119
-76,797	-134,592	0,102	0,009
-75,782	73,138	-0,042	-0,032
-74,767	247,704	-0,055	0,068
-73,753	18,069	-0,089	-0,051
-72,738	-69,412	-0,104	0,029
-71,724	-200,000	0,002	-0,128
-70,709	-200,000	-0,118	-0,000
-69,694	607,823	0,057	-0,103
-68,680	-200,000	-0,002	0,046
-67,665	757,879	-0,044	-0,087
-66,651	21,800	0,086	-0,050
-65,636	-144,062	-0,063	-0,004
-64,622	-200,000	-0,009	-0,034
-63,607	40,996	-0,099	-0,065
-62,592	67,314	0,032	-0,024
-61,578	107,038	-0,054	-0,046
-60,563	-200,000	-0,017	0,083
-59,549	391,299	-0,080	0,121
-58,534	-148,470	-1,323	-0,077
-57,519	601,866	-0,836	-1,513
-56,505	-200,000	-0,767	-4,349
-55,490	-6,378	0,544	-0,268
-54,476	800,000	4,894	11,814
-53,461	-200,000	13,907	254,426
-52,446	-200,000	693,928	2263,326
-51,432	599,290	1624,494	2935,967
-50,417	117,689	1633,744	1458,815
-49,403	73,586	1287,747	977,407
-48,388	37,310	1023,742	656,689
-47,373	23,929	981,946	585,849
-46,359	23,071	971,690	576,895
-45,344	22,103	967,287	571,094
-44,330	22,076	965,634	570,005
-43,315	21,981	964,187	568,819
-42,300	21,896	963,228	567,955
-41,286	21,847	962,362	567,260
-40,271	21,829	961,344	566,582
-39,257	21,858	960,373	566,080
-38,242	21,850	959,405	565,462
-37,227	21,841	958,626	564,951
-36,213	21,824	957,663	564,306
-35,198	21,800	956,961	563,792
-34,184	21,853	956,373	563,595
-33,169	21,833	955,380	562,924
-32,154	21,860	954,504	562,471
-31,140	21,933	953,436	562,053
-30,125	21,911	952,813	561,594
-29,111	21,901	951,996	561,058
-28,096	21,939	951,020	560,581
-27,082	21,874	950,574	560,090
-26,067	21,821	949,799	559,440
-25,052	21,850	949,210	559,163
-24,038	21,889	948,424	558,802
-23,023	21,880	947,831	558,402
-22,009	21,880	947,144	557,975
-20,994	21,957	946,335	557,725
-19,979	21,899	945,871	557,242
-18,965	21,894	944,991	556,687
-17,950	21,927	944,516	556,488
-16,936	21,841	943,820	555,781
-15,921	21,815	943,216	555,322
-14,906	21,742	942,487	554,638
-13,892	21,701	941,983	554,190
-12,877	21,744	941,303	553,904
-11,863	21,713	940,749	553,457
-10,848	21,725	940,124	553,105
-9,833	21,801	939,701	553,078
-8,819	21,905	939,067	553,011
-7,804	21,713	938,410	551,993
-6,790	21,753	937,860	551,775
-5,775	21,800	937,178	551,500
-4,760	21,787	936,575	551,083
-3,746	21,712	935,946	550,454
-2,731	21,636	935,272	549,796
-1,717	21,593	934,408	549,131
-0,702	21,557	933,988	548,747
0,313	21,380	933,175	548,541
1,327	23,905	930,774	555,018
2,342	31,450	808,960	502,841
3,356	26,137	509,783	307,762
4,371	1,617	374,751	194,936
5,386	-1,195	357,600	182,536
6,400	-2,223	351,700	178,262
7,415	-2,696	349,175	176,398
8,429	-2,826	347,757	175,510
9,444	-2,925	347,120	175,053
10,459	-2,616	346,193	174,939
11,473	-2,715	345,546	174,480
12,488	-2,806	344,956	174,057
13,502	-2,787	344,448	173,808
14,517	-2,650	343,788	173,622
15,531	-2,722	343,465	173,358
16,546	-2,745	343,076	173,119
17,561	-2,835	342,740	172,828
18,575	-2,519	342,149	172,887
19,590	-2,576	341,778	172,617
20,604	-2,565	341,346	172,396
21,619	-2,742	341,167	172,082
22,634	-2,571	340,765	172,065
23,648	-2,685	340,397	171,730
24,663	-2,638	340,157	171,649
25,677	-2,653	339,821	171,447
26,692	-2,781	339,584	171,162
27,707	-2,457	339,098	171,280
28,721	-2,594	338,834	170,972
29,736	-2,574	338,581	170,851
30,750	-2,616	338,163	170,577
31,765	-2,733	337,951	170,319
32,780	-2,625	337,652	170,278
33,794	-2,694	337,446	170,079
34,809	-2,731	337,173	169,884
35,823	-2,742	336,994	169,766
36,838	-2,570	336,475	169,688
37,853	-2,689	336,166	169,380
38,867	-2,656	335,992	169,315
39,882	-2,636	335,672	169,162
40,896	-2,572	335,481	169,124
41,911	-2,522	335,167	169,008
42,926	-2,680	335,029	168,742
43,940	-2,713	334,688	168,516
44,955	-2,511	334,294	168,536
45,969	-2,760	334,168	168,171
46,984	-2,627	333,914	168,181
47,999	-2,642	333,751	168,066
49,013	-2,482	333,313	168,014
50,028	-2,752	333,239	167,653
51,042	-2,742	332,756	167,407
52,057	-2,807	332,494	167,186
53,071	-2,765	332,286	167,113
54,086	-2,704	332,204	167,127
55,101	-2,583	331,790	167,042
56,115	-2,709	331,533	166,754
57,130	-2,575	331,318	166,783
58,144	-2,727	331,109	166,490
59,159	-2,511	330,630	166,481
60,174	-2,641	330,477	166,241
61,188	-2,838	330,366	165,947
62,203	-2,532	330,045	166,117
63,217	-2,539	329,722	165,933
64,232	-2,550	329,481	165,783
65,247	-2,540	329,200	165,638
66,261	-2,544	328,912	165,474
67,276	-2,682	328,688	165,191
68,290	-2,655	328,407	165,066
69,305	-2,690	328,165	164,890
70,320	-2,666	327,919	164,779
71,334	-2,542	327,710	164,799
72,349	-2,689	327,382	164,453
73,363	-2,737	327,148	164,268
74,378	-2,648	326,736	164,146
75,393	-2,492	326,565	164,220
76,407	-2,649	326,423	163,958
77,422	-2,611	326,115	163,832
78,436	-2,680	325,826	163,595
79,451	-2,621	325,518	163,492
80,466	-2,615	325,316	163,382
81,480	-2,590	325,072	163,272
82,495	-2,522	324,871	163,232
83,509	-2,557	324,701	163,094
84,524	-2,600	324,465	162,913
85,539	-2,556	324,239	162,834
86,553	-2,665	324,127	162,642
87,568	-2,567	323,730	162,537
88,582	-2,559	323,409	162,370
89,597	-2,554	323,190	162,251
90,611	-2,576	323,077	162,156
91,626	-2,550	322,757	162,009
92,641	-2,596	322,660	161,896
93,655	-2,686	322,476	161,689
94,670	-2,473	322,063	161,703
95,684	-2,619	321,771	161,381
96,699	-2,704	321,630	161,202
97,714	-2,511	321,347	161,258
98,728	-2,772	321,319	160,943
99,743	-2,561	320,781	160,890
100,757	-2,661	320,649	160,701
101,772	-2,636	320,365	160,572
102,787	-2,815	320,306	160,331
103,801	-2,531	319,888	160,418
104,816	-2,460	319,652	160,363
105,830	-2,574	319,543	160,169
106,845	-2,663	319,315	159,944
107,860	-2,676	319,124	159,820
108,874	-2,614	318,793	159,707
109,889	-2,715	318,496	159,434
110,903	-2,693	318,289	159,340
111,918	-2,629	318,113	159,308
112,933	-2,564	318,043	159,329
113,947	-2,652	317,712	159,054
114,962	-2,514	317,449	159,058
115,976	-2,460	317,201	158,977
116,991	-2,681	317,062	158,654
118,006	-2,609	316,753	158,563
119,020	-2,551	316,406	158,438
120,035	-2,576	316,443	158,416
121,049	-2,577	316,356	158,357
122,064	-2,456	315,872	158,230
123,079	-2,536	315,672	158,030
124,093	-2,531	315,451	157,911
125,108	-2,696	315,298	157,642
126,122	-2,633	315,071	157,583
127,137	-2,584	314,741	157,457
128,151	-2,592	314,663	157,394
129,166	-2,455	314,245	157,318
130,181	-2,583	314,114	157,102
131,195	-2,601	313,798	156,911
132,210	-2,492	313,626	156,927
133,224	-2,765	313,398	156,508
134,239	-2,640	313,140	156,498
135,254	-2,536	313,072	156,561
136,268	-2,578	312,736	156,335
137,283	-2,652	312,650	156,198
138,297	-2,586	312,293	156,076
139,312	-2,663	312,057	155,863
140,327	-2,451	311,787	155,939
141,341	-2,454	311,679	155,868
142,356	-2,453	311,422	155,727
143,370	-2,572	311,276	155,514
144,385	-2,646	311,133	155,350
145,400	-2,572	310,900	155,298
146,414	-2,691	310,631	155,024
147,429	-2,484	310,281	155,054
148,443	-2,640	310,045	154,758
149,458	-2,442	309,845	154,853
150,473	-2,487	309,550	154,644
151,487	-2,738	309,435	154,308
152,502	-2,520	309,212	154,413
153,516	-2,612	309,028	154,211
154,531	-2,545	308,767	154,136
155,546	-2,637	308,731	154,008
156,560	-2,492	308,415	153,989
157,575	-2,547	308,295	153,858
158,589	-2,515	307,831	153,646
159,604	-2,482	307,654	153,578
160,619	-2,543	307,685	153,517
161,633	-2,568	307,279	153,275
162,648	-2,519	307,054	153,200
163,662	-2,494	307,075	153,223
164,677	-2,538	306,791	153,022
165,692	-2,546	306,684	152,947
166,706	-2,549	306,395	152,785
167,721	-2,549	306,202	152,676
168,735	-2,304	305,920	152,775
169,750	-2,412	305,936	152,658
170,764	-2,461	305,566	152,408
171,779	-2,619	305,384	152,140
172,794	-2,651	305,169	151,986
173,808	-2,413	304,822	152,047
174,823	-2,491	304,592	151,838
175,837	-2,656	304,503	151,609
176,852	-2,689	304,351	151,486
177,867	-2,590	304,183	151,491
178,881	-2,438	303,872	151,479
179,896	-2,492	303,663	151,306
180,910	-2,494	303,493	151,206
181,925	-2,476	303,241	151,085
182,940	-2,516	303,184	151,002
183,954	-2,681	302,982	150,719
184,969	-2,560	302,722	150,700
185,983	-2,403	302,599	150,786
186,998	-2,540	302,378	150,523
188,013	-2,463	302,097	150,448
189,027	-2,589	301,845	150,181
190,042	-2,431	301,579	150,196
191,056	-2,459	301,443	150,086
192,071	-2,444	301,207	149,970
193,086	-2,547	301,148	149,823
194,100	-2,642	300,903	149,591
195,115	-2,451	300,630	149,636
196,129	-2,647	300,479	149,348
197,144	-2,529	300,140	149,287
198,159	-2,469	299,963	149,245
199,173	-2,352	299,709	149,225
200,188	-2,585	299,545	148,893
201,202	-2,468	299,347	148,901
202,217	-2,504	299,079	148,717
203,232	-2,529	298,876	148,578
204,246	-2,592	298,661	148,394
205,261	-2,353	298,254	148,420
206,275	-2,674	298,414	148,162
207,290	-2,523	298,221	148,205
208,304	-2,306	297,793	148,199
209,319	-2,429	297,819	148,074
210,334	-2,397	297,490	147,930
211,348	-2,408	297,205	147,764
212,363	-2,290	297,092	147,813
213,377	-2,304	296,966	147,723
214,392	-2,528	296,773	147,389
215,407	-2,594	296,614	147,230
216,421	-2,617	296,410	147,092
217,436	-2,630	296,268	146,996
218,450	-2,511	295,876	146,907
219,465	-2,632	295,811	146,741
220,480	-2,518	295,614	146,744
221,494	-2,638	295,410	146,510
222,509	-2,512	295,278	146,557
223,523	-2,506	295,016	146,420
224,538	-2,380	294,759	146,405
225,553	-2,477	294,637	146,235
226,567	-2,299	294,313	146,238
227,582	-2,530	294,383	146,030
228,596	-2,426	294,138	145,999
229,611	-2,376	293,872	145,904
230,626	-2,539	293,654	145,620
231,640	-2,441	293,397	145,578
232,655	-2,431	293,271	145,512
233,669	-2,680	293,009	145,122
234,684	-2,483	292,839	145,220
235,699	-2,415	292,672	145,192
236,713	-2,460	292,595	145,096
237,728	-2,582	292,284	144,808
238,742	-2,548	292,054	144,715
239,757	-2,497	291,762	144,608
240,772	-2,609	291,681	144,445
241,786	-2,443	291,448	144,479
242,801	-2,589	291,273	144,237
243,815	-2,566	291,201	144,211
244,830	-2,551	291,010	144,117
245,844	-2,434	290,725	144,078
246,859	-2,495	290,469	143,878
247,874	-2,633	290,395	143,694
248,888	-2,658	290,245	143,583
249,903	-2,605	289,943	143,472
250,917	-2,330	289,797	143,656
251,932	-2,422	289,636	143,473
252,947	-2,569	289,284	143,143
253,961	-2,946	289,125	142,684
254,976	-3,127	288,731	142,301
255,990	-3,267	288,511	142,043
257,005	-2,604	288,631	142,734
258,020	-0,688	289,334	144,938
259,034	0,844	289,751	146,628
260,049	1,512	289,810	147,296
261,063	2,056	289,762	147,790
262,078	2,297	289,752	148,005
263,093	2,422	289,713	148,094
264,107	2,845	289,502	148,384
265,122	2,999	289,434	148,486
266,136	3,059	289,349	148,487
267,151	3,219	289,092	148,497
268,166	2,932	289,054	148,186
269,180	2,986	288,742	148,066
270,195	2,911	288,601	147,907
271,209	2,888	288,298	147,717
272,224	2,951	288,188	147,708
273,239	2,685	287,919	147,300
274,253	2,669	287,696	147,157
275,268	2,712	287,465	147,068
276,282	2,697	287,327	146,969
277,297	2,679	287,061	146,803
278,312	2,731	286,959	146,787
279,326	2,795	286,690	146,698
280,341	2,844	286,643	146,708
281,355	2,411	286,624	146,269
282,370	2,603	286,267	146,258
283,384	2,744	286,102	146,296
284,399	2,785	285,782	146,159
285,414	2,627	285,558	145,880
286,428	2,634	285,482	145,835
287,443	2,591	285,118	145,595
288,457	2,664	284,980	145,581
289,472	2,485	284,952	145,382
290,487	2,538	284,613	145,247
291,501	2,637	284,435	145,238
292,516	2,453	284,349	145,006
293,530	2,585	284,066	144,974
294,545	2,530	284,062	144,907
295,560	2,444	283,728	144,643
296,574	2,432	283,600	144,552
297,589	2,620	283,274	144,552
298,603	2,553	283,168	144,421
299,618	2,606	283,011	144,379
300,633	2,655	282,676	144,241
301,647	2,591	282,648	144,153
302,662	2,646	282,459	144,096
303,676	2,632	282,518	144,100
304,691	2,821	282,213	144,111
305,706	2,904	281,990	144,061
306,720	2,954	281,744	143,970
307,735	2,779	281,778	143,810
308,749	2,796	281,528	143,686
309,764	2,950	281,200	143,650
310,779	2,866	280,922	143,417
311,793	2,725	280,864	143,242
312,808	2,591	280,716	143,028
313,822	2,672	280,554	143,008
314,837	2,766	280,260	142,934
315,852	2,801	280,198	142,922
316,866	2,822	279,975	142,815
317,881	2,825	279,627	142,627
318,895	2,634	279,608	142,427
319,910	2,653	279,491	142,372
320,925	2,762	279,098	142,261
321,939	2,825	279,057	142,286
322,954	2,964	278,965	142,356
323,968	2,900	278,738	142,168
324,983	2,814	278,634	142,023
325,997	3,003	278,390	142,061
327,012	2,826	278,254	141,814
328,027	2,778	278,031	141,643
329,041	2,885	277,993	141,711
330,056	2,869	277,741	141,555
331,070	3,043	277,437	141,549
332,085	2,962	277,184	141,332
333,100	2,852	277,074	141,162
334,114	2,825	276,869	141,019
335,129	2,754	276,776	140,894
336,143	2,899	276,575	140,913
337,158	3,020	276,381	140,913
338,173	2,981	276,204	140,775
339,187	2,878	276,079	140,604
340,202	3,010	275,906	140,624
341,216	2,988	275,715	140,494
342,231	2,939	275,312	140,231
343,246	3,043	275,237	140,276
344,260	2,836	275,233	140,072
345,275	2,876	275,046	140,000
346,289	2,903	274,808	139,892
347,304	3,069	274,689	139,970
348,319	2,977	274,479	139,767
349,333	2,943	274,271	139,617
350,348	3,066	274,052	139,606
351,362	2,975	273,887	139,427
352,377	2,836	273,866	139,276
353,392	2,981	273,651	139,287
354,406	2,983	273,332	139,113
355,421	191,272	1349,487	1429,274
356,435	154,430	1480,712	1429,411
