DTS Sentinel unit serial number:	SN410029Multiplexer serial number:	ORYXHardware model number:	OX2-SRSoftware version number:	ORYX F/W v4,00 Oryx Data Collector v3.7.2.0data status	okinstallation	B4 Nyhavnadifferential loss correction	single-endedforward channel	channel 2reverse channel	N/Adate	2023/12/16time	01:45:13forward acquisition time	300,00reverse acquisition time	0,00gamma	499,1914k internal	0,3129k external	0,3129temperature offset calibration	1,0000default loss term (dB/km)	0,3820temperature slope calibration	1,0000multiplexer offset coefficient	1,0000multiplexer slope coefficient	1,0000fibre end	0,00T internal ref (°C)	21,93T ext. ref 1 (°C)	7,11T ext. ref 2 (°C)	7,28length (m)	temperature (°C)	Stokes	anti-Stokes-744,400	225,040	-0,017	-0,021
-743,385	-66,756	-0,245	-0,072
-742,371	295,437	0,094	-0,129
-741,356	261,695	-0,143	0,185
-740,342	154,282	0,090	0,092
-739,327	-121,253	-0,154	-0,019
-738,312	-22,388	-0,106	0,048
-737,298	-145,112	-0,223	0,015
-736,283	-200,000	0,016	0,082
-735,269	16,764	-0,253	0,149
-734,254	-97,101	0,064	0,012
-733,239	-42,147	-0,344	-0,130
-732,225	800,000	0,029	0,064
-731,210	321,594	0,059	-0,084
-730,196	800,000	-0,036	-0,092
-729,181	-1,957	-0,133	-0,069
-728,167	388,291	-0,015	-0,023
-727,152	123,168	0,064	-0,059
-726,137	131,102	-0,072	-0,069
-725,123	193,624	0,070	-0,079
-724,108	-116,876	0,027	0,004
-723,094	-17,095	-0,108	0,050
-722,079	135,579	0,033	0,032
-721,064	20,481	0,114	0,069
-720,050	-200,000	-0,015	0,050
-719,035	-200,000	-0,018	-0,062
-718,021	492,273	-0,106	-0,181
-717,006	44,570	0,068	-0,046
-715,991	800,000	-0,121	-0,251
-714,977	-64,086	-0,068	-0,021
-713,962	-91,499	-0,122	0,026
-712,948	800,000	-0,028	-0,067
-711,933	250,500	-0,053	0,067
-710,918	24,548	-0,070	0,043
-709,904	165,426	-0,105	-0,111
-708,889	-200,000	-0,004	-0,119
-707,875	-32,855	-0,086	-0,035
-706,860	-142,385	0,062	-0,004
-705,845	760,300	-0,056	0,113
-704,831	55,816	0,033	-0,024
-703,816	93,459	-0,066	0,055
-702,802	20,268	-0,044	0,027
-701,787	523,304	-0,044	-0,078
-700,772	-82,914	-0,071	-0,017
-699,758	-200,000	-0,002	-0,047
-698,743	-200,000	-0,023	-0,085
-697,729	800,000	0,007	-0,020
-696,714	-112,817	0,141	0,021
-695,699	-102,830	0,018	-0,003
-694,685	253,000	0,025	-0,031
-693,670	-113,938	-0,114	0,016
-692,656	305,967	-0,071	0,098
-691,641	-20,810	-0,054	-0,024
-690,627	-200,000	0,027	0,106
-689,612	-153,274	-0,129	-0,007
-688,597	98,418	0,011	-0,009
-687,583	111,584	-0,110	-0,098
-686,568	16,498	0,059	-0,034
-685,554	56,643	-0,142	0,103
-684,539	-121,601	0,120	0,015
-683,524	-161,894	-0,103	0,004
-682,510	800,000	-0,023	0,064
-681,495	26,218	-0,107	-0,066
-680,481	-35,267	-0,137	-0,055
-679,466	-134,233	0,169	-0,015
-678,451	277,249	0,024	0,032
-677,437	231,689	-0,091	-0,111
-676,422	-91,998	0,080	0,017
-675,408	38,685	-0,090	-0,059
-674,393	-200,000	0,007	-0,108
-673,378	145,385	-0,127	-0,126
-672,364	160,745	-0,045	-0,047
-671,349	-81,662	-0,085	-0,021
-670,335	323,707	0,044	-0,063
-669,320	205,155	0,030	0,035
-668,305	-200,000	-0,000	0,027
-667,291	-65,093	-0,117	0,035
-666,276	-3,906	-0,066	0,034
-665,262	-200,000	0,003	-0,104
-664,247	75,867	-0,063	-0,050
-663,232	35,450	-0,002	-0,002
-662,218	-93,034	0,086	0,018
-661,203	281,066	-0,025	-0,033
-660,189	241,090	0,026	0,032
-659,174	800,000	0,070	-0,155
-658,159	-200,000	0,001	-0,014
-657,145	800,000	-0,031	-0,083
-656,130	-33,979	0,034	0,014
-655,116	-67,094	0,131	0,038
-654,101	127,896	0,069	0,065
-653,086	-138,195	-0,068	0,006
-652,072	242,475	0,008	-0,010
-651,057	-200,000	0,001	-0,148
-650,043	197,532	-0,060	-0,068
-649,028	-200,000	-0,051	0,198
-648,014	-200,000	-0,004	0,053
-646,999	0,610	-0,041	-0,022
-645,984	800,000	0,021	0,053
-644,970	-84,006	0,192	0,045
-643,955	-122,067	0,070	0,008
-642,941	-38,669	-0,083	0,032
-641,926	-200,000	-0,002	0,084
-640,911	800,000	0,041	0,108
-639,897	13,094	-0,039	0,022
-638,882	114,259	0,111	0,100
-637,868	-200,000	-0,014	0,086
-636,853	800,000	-0,052	-0,128
-635,838	-120,383	-0,087	0,011
-634,824	175,616	-0,044	-0,048
-633,809	-177,490	0,046	0,001
-632,795	76,160	0,059	-0,046
-631,780	-164,955	0,038	0,001
-630,765	171,742	0,137	-0,146
-629,751	-144,260	-0,234	0,016
-628,736	236,466	-0,018	-0,023
-627,722	-111,119	0,031	0,005
-626,707	-22,825	0,077	0,034
-625,692	271,016	0,041	-0,054
-624,678	317,487	0,052	-0,073
-623,663	548,966	0,080	0,143
-622,649	111,844	-0,093	-0,083
-621,634	-49,064	-0,036	0,013
-620,619	195,767	0,022	-0,025
-619,605	119,554	-0,048	-0,044
-618,590	-200,000	-0,007	-0,024
-617,576	306,203	-0,018	-0,025
-616,561	-200,000	-0,009	0,132
-615,546	317,654	-0,042	-0,059
-614,532	402,289	-0,081	-0,127
-613,517	259,400	-0,018	0,023
-612,503	382,738	-0,014	-0,022
-611,488	342,062	0,059	0,086
-610,474	284,520	0,018	0,025
-609,459	-141,169	0,072	0,005
-608,444	-34,114	0,076	-0,031
-607,430	247,520	0,027	0,034
-606,415	-91,247	-0,085	0,018
-605,401	228,780	0,069	-0,084
-604,386	337,908	-0,022	0,032
-603,371	461,382	0,123	0,204
-602,357	94,709	-0,040	0,034
-601,342	248,574	-0,094	-0,118
-600,328	208,399	-0,038	-0,044
-599,313	-88,924	-0,101	0,022
-598,298	-200,000	-0,002	-0,105
-597,284	104,417	0,062	-0,054
-596,269	800,000	0,024	0,078
-595,255	-200,000	0,006	0,121
-594,240	-75,749	0,047	0,012
-593,225	800,000	0,022	0,070
-592,211	128,735	-0,025	-0,023
-591,196	128,059	-0,071	0,067
-590,182	322,478	0,074	0,105
-589,167	389,826	-0,028	0,042
-588,152	-200,000	-0,005	0,075
-587,138	-142,409	-0,011	0,001
-586,123	-200,000	0,024	-0,080
-585,109	-200,000	0,021	0,091
-584,094	49,009	0,131	0,091
-583,079	-127,534	-0,014	0,001
-582,065	-200,000	-0,004	0,015
-581,050	-200,000	-0,018	0,155
-580,036	223,457	-0,101	0,120
-579,021	-200,000	0,008	0,046
-578,006	201,398	-0,028	-0,032
-576,992	100,473	0,032	-0,028
-575,977	-200,000	-0,028	0,111
-574,963	-76,878	0,055	-0,014
-573,948	-89,011	0,076	-0,016
-572,934	-9,659	0,081	-0,040
-571,919	121,756	-0,101	-0,093
-570,904	-56,912	-0,059	-0,019
-569,890	142,271	0,075	0,073
-568,875	800,000	-0,035	-0,091
-567,861	800,000	-0,039	0,123
-566,846	-200,000	-0,030	-0,180
-565,831	-200,000	0,013	0,139
-564,817	-178,255	-0,060	0,001
-563,802	-200,000	0,005	-0,170
-562,788	111,462	-0,114	-0,102
-561,773	-149,142	0,176	0,010
-560,758	-200,000	0,002	0,077
-559,744	-88,186	-0,052	-0,011
-558,729	58,880	0,170	-0,123
-557,715	-200,000	0,028	-0,171
-556,700	228,012	-0,098	-0,118
-555,685	185,589	-0,030	-0,032
-554,671	-196,911	-0,151	-0,001
-553,656	270,194	-0,063	-0,082
-552,642	-69,451	0,114	0,032
-551,627	-104,677	-0,074	-0,013
-550,612	-31,734	0,099	0,041
-549,598	33,137	-0,165	-0,105
-548,583	346,998	-0,052	-0,075
-547,569	658,991	0,018	-0,034
-546,554	-25,375	0,092	0,040
-545,539	63,985	-0,119	0,089
-544,525	34,990	0,062	-0,040
-543,510	-39,077	-0,086	0,033
-542,496	800,000	-0,030	-0,068
-541,481	-104,250	-0,044	-0,008
-540,466	-148,484	-0,110	-0,007
-539,452	-130,382	0,098	-0,010
-538,437	-39,530	0,092	-0,035
-537,423	-44,074	-0,178	0,065
-536,408	-34,525	-0,087	-0,035
-535,393	-28,939	0,103	-0,044
-534,379	-200,000	-0,004	0,024
-533,364	-128,530	0,037	0,004
-532,350	570,717	-0,058	-0,104
-531,335	-57,237	0,046	-0,015
-530,321	-70,025	-0,056	0,015
-529,306	800,000	-0,057	-0,141
-528,291	-116,254	0,061	-0,008
-527,277	69,057	-0,071	0,054
-526,262	-51,028	0,015	0,005
-525,248	-14,032	0,102	-0,048
-524,233	26,067	0,114	0,070
-523,218	-158,772	-0,060	0,002
-522,204	453,636	0,083	0,137
-521,189	-113,144	0,059	0,008
-520,175	323,612	0,025	0,035
-519,160	215,536	-0,046	-0,054
-518,145	-200,000	0,005	0,094
-517,131	-53,646	0,113	0,038
-516,116	-200,000	0,008	-0,066
-515,102	-43,127	-0,101	-0,038
-514,087	-47,779	0,150	-0,053
-513,072	800,000	-0,034	-0,102
-512,058	800,000	0,032	0,088
-511,043	-26,110	-0,054	-0,023
-510,029	800,000	0,025	0,062
-509,014	-200,000	0,059	0,197
-507,999	4,100	-0,031	-0,017
-506,985	263,950	0,061	-0,078
-505,970	-48,614	-0,159	0,056
-504,956	13,926	0,088	-0,050
-503,941	14,071	-0,056	0,032
-502,926	-155,350	-0,145	0,007
-501,912	-42,027	-0,045	0,017
-500,897	800,000	-0,006	0,014
-499,883	800,000	-0,007	0,022
-498,868	210,752	-0,095	-0,110
-497,853	800,000	0,026	-0,064
-496,839	-114,020	0,080	0,011
-495,824	-200,000	-0,022	0,128
-494,810	800,000	0,051	0,107
-493,795	223,363	0,028	0,034
-492,781	-25,072	0,060	0,026
-491,766	540,435	-0,066	0,116
-490,751	12,919	-0,067	-0,038
-489,737	-101,084	0,032	-0,006
-488,722	800,000	-0,013	-0,039
-487,708	39,042	-0,061	-0,040
-486,693	-200,000	-0,034	-0,132
-485,678	524,536	-0,063	0,109
-484,664	800,000	-0,057	0,180
-483,649	-105,716	-0,119	0,020
-482,635	-200,000	-0,012	-0,041
-481,620	58,184	0,131	0,094
-480,605	510,483	0,030	0,052
-479,591	-163,485	-0,096	-0,003
-478,576	-200,000	0,018	-0,125
-477,562	-200,000	0,006	-0,087
-476,547	172,954	0,036	-0,039
-475,532	311,003	-0,051	-0,071
-474,518	-112,661	0,221	0,032
-473,503	-200,000	-0,040	-0,149
-472,489	-200,000	-0,054	0,177
-471,474	-200,000	-0,008	-0,037
-470,459	-53,071	0,074	0,025
-469,445	201,344	0,064	0,072
-468,430	-37,030	-0,115	-0,045
-467,416	185,535	0,028	0,031
-466,401	736,106	-0,028	0,055
-465,386	11,153	0,062	0,035
-464,372	-200,000	-0,021	0,096
-463,357	210,821	-0,053	0,062
-462,343	800,000	-0,030	-0,062
-461,328	-154,397	0,161	0,008
-460,313	-30,331	0,153	-0,064
-459,299	-200,000	0,020	-0,177
-458,284	-200,000	0,006	0,118
-457,270	211,079	-0,057	-0,066
-456,255	-50,071	-0,016	-0,005
-455,241	-67,375	-0,160	0,046
-454,226	-170,862	0,176	0,004
-453,211	75,527	0,034	-0,026
-452,197	-200,000	-0,003	0,056
-451,182	-74,864	0,043	-0,011
-450,168	-200,000	-0,024	0,092
-449,153	60,411	0,025	0,019
-448,138	800,000	0,048	-0,103
-447,124	221,351	0,060	0,072
-446,109	800,000	-0,067	-0,145
-445,095	-52,375	0,145	-0,049
-444,080	-27,289	-0,020	0,008
-443,065	-200,000	0,011	0,089
-442,051	56,867	-0,047	0,034
-441,036	-54,533	0,021	0,007
-440,022	24,792	-0,096	0,059
-439,007	800,000	0,017	-0,047
-437,992	-200,000	-0,001	-0,019
-436,978	478,550	0,038	-0,064
-435,963	408,059	0,032	0,051
-434,949	-200,000	-0,006	-0,045
-433,934	14,838	0,059	-0,034
-432,919	24,655	0,094	-0,057
-431,905	-52,622	-0,147	-0,049
-430,890	40,170	0,057	-0,038
-429,876	-200,000	-0,012	0,041
-428,861	685,039	0,028	0,055
-427,846	-14,125	0,048	0,023
-426,832	-200,000	-0,004	0,059
-425,817	167,096	0,031	-0,033
-424,803	-49,663	0,075	-0,026
-423,788	-188,121	-0,034	-0,000
-422,773	-146,521	0,143	0,009
-421,759	51,853	-0,023	-0,016
-420,744	52,847	-0,114	0,080
-419,730	-37,005	0,036	-0,014
-418,715	-187,358	0,061	0,001
-417,701	27,237	-0,044	0,027
-416,686	-200,000	-0,014	0,141
-415,671	96,775	0,086	0,073
-414,657	-149,617	-0,145	0,008
-413,642	49,578	-0,046	-0,032
-412,628	3,980	0,034	0,018
-411,613	800,000	-0,061	-0,136
-410,598	-200,000	-0,015	-0,062
-409,584	-34,180	0,060	-0,024
-408,569	-47,972	0,138	0,049
-407,555	-113,592	0,141	0,020
-406,540	8,895	-0,045	-0,025
-405,525	-2,320	-0,046	0,024
-404,511	205,811	0,101	-0,115
-403,496	237,176	0,084	-0,103
-402,482	298,513	-0,036	0,049
-401,467	185,372	0,102	0,111
-400,452	578,829	0,026	0,047
-399,438	-200,000	-0,021	0,072
-398,423	-200,000	-0,006	0,039
-397,409	67,849	0,094	0,071
-396,394	-74,514	-0,038	-0,010
-395,379	199,935	0,042	0,048
-394,365	562,635	0,063	-0,113
-393,350	26,033	-0,029	0,018
-392,336	-200,000	-0,012	-0,129
-391,321	800,000	-0,045	-0,143
-390,306	-200,000	-0,008	-0,055
-389,292	-96,843	-0,087	0,017
-388,277	-6,827	0,034	-0,017
-387,263	-124,361	0,071	-0,008
-386,248	127,287	-0,045	0,042
-385,233	390,205	0,033	0,050
-384,219	112,267	-0,106	-0,094
-383,204	608,252	-0,100	-0,184
-382,190	124,716	-0,099	-0,091
-381,175	44,761	-0,117	-0,078
-380,160	-108,492	0,186	-0,029
-379,146	93,685	0,028	-0,023
-378,131	180,460	-0,102	0,110
-377,117	-27,022	-0,072	-0,031
-376,102	364,611	-0,027	0,039
-375,088	-81,748	-0,105	-0,025
-374,073	57,265	0,008	0,006
-373,058	18,095	0,037	-0,022
-372,044	-70,683	-0,079	-0,022
-371,029	86,239	0,086	-0,070
-370,015	-87,516	0,018	0,004
-369,000	800,000	0,016	-0,046
-367,985	-13,398	-0,153	-0,072
-366,971	-200,000	-0,010	0,100
-365,956	-81,419	-0,063	0,015
-364,942	40,899	0,078	-0,051
-363,927	11,671	0,093	0,052
-362,912	-172,013	0,117	0,003
-361,898	76,329	-0,088	-0,069
-360,883	-126,920	0,029	-0,003
-359,869	-106,152	-0,087	0,014
-358,854	800,000	0,065	0,156
-357,839	-200,000	0,012	-0,089
-356,825	-200,000	0,002	0,167
-355,810	-82,372	-0,072	-0,017
-354,796	-200,000	-0,050	0,000
-353,781	-200,000	-0,036	0,119
-352,766	-194,386	0,111	-0,001
-351,752	-200,000	0,005	0,018
-350,737	4,876	0,074	-0,040
-349,723	-200,000	0,050	-0,000
-348,708	-64,667	-0,098	0,029
-347,693	309,355	0,048	0,066
-346,679	-28,159	-0,176	-0,074
-345,664	74,129	-0,055	-0,042
-344,650	800,000	0,017	0,049
-343,635	402,515	0,032	0,049
-342,620	-59,579	0,068	-0,021
-341,606	585,961	-0,060	0,109
-340,591	130,971	-0,025	-0,024
-339,577	-200,000	0,003	0,065
-338,562	-124,071	-0,049	0,006
-337,548	12,515	0,058	-0,033
-336,533	-200,000	-0,002	0,038
-335,518	22,389	-0,039	0,023
-334,504	800,000	0,069	0,168
-333,489	-200,000	-0,009	0,057
-332,475	0,075	-0,068	0,035
-331,460	-81,874	-0,047	0,011
-330,445	-147,087	-0,055	0,003
-329,431	22,811	-0,068	-0,041
-328,416	245,047	0,102	0,125
-327,402	33,011	-0,060	-0,038
-326,387	-200,000	-0,005	-0,162
-325,372	750,342	0,036	-0,070
-324,358	317,089	0,082	-0,113
-323,343	-200,000	-0,015	-0,090
-322,329	-40,083	0,062	0,023
-321,314	800,000	0,051	-0,144
-320,299	624,300	-0,034	-0,062
-319,285	199,736	-0,098	-0,110
-318,270	-20,755	-0,060	-0,027
-317,256	-200,000	-0,004	-0,106
-316,241	-200,000	0,012	-0,064
-315,226	800,000	0,024	-0,072
-314,212	154,880	0,030	-0,030
-313,197	11,974	0,115	-0,065
-312,183	-44,642	-0,092	0,034
-311,168	800,000	0,043	0,128
-310,153	472,392	-0,028	0,046
-309,139	-132,479	-0,094	0,009
-308,124	40,488	0,062	-0,040
-307,110	-200,000	-0,029	-0,095
-306,095	512,503	0,015	0,025
-305,080	-53,501	-0,047	0,016
-304,066	800,000	0,043	-0,123
-303,051	19,132	-0,107	-0,063
-302,037	484,219	0,076	0,126
-301,022	-200,000	0,011	0,039
-300,008	-148,979	-0,080	-0,005
-298,993	95,312	-0,041	-0,034
-297,978	480,333	0,018	0,031
-296,964	800,000	-0,037	-0,106
-295,949	800,000	-0,022	-0,069
-294,935	748,194	-0,037	-0,074
-293,920	-200,000	-0,005	-0,056
-292,905	-109,060	-0,029	0,004
-291,891	-89,529	0,136	-0,029
-290,876	83,013	0,076	0,061
-289,862	-48,968	0,137	-0,048
-288,847	-200,000	-0,032	-0,112
-287,832	90,848	-0,143	-0,117
-286,818	68,034	0,165	0,123
-285,803	304,102	0,028	0,038
-284,789	800,000	0,043	0,130
-283,774	94,601	-0,061	-0,051
-282,759	87,158	-0,082	-0,066
-281,745	-55,571	-0,016	0,005
-280,730	-200,000	-0,004	-0,144
-279,716	430,140	0,031	-0,049
-278,701	-125,180	0,054	0,006
-277,686	12,222	-0,032	-0,018
-276,672	800,000	-0,060	0,159
-275,657	255,519	0,057	0,072
-274,643	-200,000	-0,026	-0,118
-273,628	800,000	0,016	-0,048
-272,613	14,481	0,066	0,038
-271,599	79,414	0,068	-0,053
-270,584	800,000	0,084	0,193
-269,570	800,000	-0,024	-0,071
-268,555	-129,960	-0,033	-0,003
-267,540	-171,976	-0,167	-0,004
-266,526	271,036	-0,100	-0,128
-265,511	-26,124	-0,143	0,061
-264,497	-200,000	0,018	-0,062
-263,482	-200,000	0,006	0,110
-262,467	161,121	0,019	-0,019
-261,453	-87,860	-0,095	0,021
-260,438	185,690	0,080	-0,087
-259,424	465,081	-0,112	-0,184
-258,409	-200,000	-0,026	-0,105
-257,395	-101,448	0,100	-0,018
-256,380	-72,498	0,080	0,022
-255,365	365,778	0,073	0,108
-254,351	800,000	-0,048	0,149
-253,336	-200,000	0,012	0,054
-252,322	-113,279	0,146	0,021
-251,307	72,018	-0,058	-0,044
-250,292	-126,412	0,026	-0,003
-249,278	427,961	0,070	0,110
-248,263	-200,000	0,010	0,051
-247,249	145,040	-0,041	0,040
-246,234	18,090	-0,070	0,040
-245,219	79,050	-0,085	-0,066
-244,205	103,803	-0,070	0,060
-243,190	-66,602	0,176	-0,051
-242,176	113,173	0,050	-0,044
-241,161	-157,508	0,065	-0,003
-240,146	-178,846	0,057	-0,001
-239,132	800,000	0,067	0,185
-238,117	-63,478	-0,153	-0,046
-237,103	800,000	-0,033	-0,104
-236,088	18,852	-0,016	-0,009
-235,073	-200,000	0,036	0,221
-234,059	800,000	0,051	0,127
-233,044	-119,063	-0,012	0,002
-232,030	-180,906	-0,011	-0,000
-231,015	185,342	0,019	-0,021
-230,000	527,308	-0,041	-0,070
-228,986	193,430	-0,022	0,024
-227,971	-105,875	0,179	0,029
-226,957	-139,619	-0,113	0,009
-225,942	-133,644	0,064	0,006
-224,927	20,566	-0,093	-0,055
-223,913	12,731	0,093	-0,052
-222,898	800,000	0,020	-0,057
-221,884	-1,447	-0,072	-0,037
-220,869	-34,771	0,122	-0,048
-219,855	-200,000	0,003	0,036
-218,840	-200,000	-0,002	-0,025
-217,825	-85,490	-0,114	-0,026
-216,811	-68,093	-0,144	0,041
-215,796	-55,551	-0,126	-0,041
-214,782	38,795	-0,064	0,042
-213,767	-200,000	-0,014	0,048
-212,752	-54,327	0,045	0,015
-211,738	800,000	-0,037	0,088
-210,723	-124,400	0,065	0,007
-209,709	800,000	0,034	-0,082
-208,694	-200,000	0,001	0,026
-207,679	800,000	-0,016	-0,050
-206,665	800,000	0,016	0,039
-205,650	800,000	0,059	0,119
-204,636	61,519	0,177	0,128
-203,621	-200,000	-0,018	0,120
-202,606	59,826	-0,051	0,037
-201,592	116,850	0,074	-0,066
-200,577	22,471	-0,077	-0,046
-199,563	-200,000	0,006	0,079
-198,548	102,097	-0,053	0,045
-197,533	48,723	-0,029	-0,020
-196,519	-147,612	-0,129	0,008
-195,504	800,000	0,021	0,055
-194,490	-164,602	0,180	-0,006
-193,475	185,661	-0,080	-0,086
-192,460	7,100	-0,033	0,018
-191,446	-5,805	0,066	-0,033
-190,431	800,000	-0,045	0,096
-189,417	643,759	-0,006	0,010
-188,402	-200,000	-0,009	-0,086
-187,387	-200,000	0,003	0,015
-186,373	-114,946	0,048	0,007
-185,358	134,958	0,078	-0,074
-184,344	-190,040	-0,043	0,000
-183,329	-128,290	0,084	0,009
-182,315	98,142	0,045	0,038
-181,300	-48,996	-0,196	0,068
-180,285	114,199	-0,062	-0,055
-179,271	-89,553	0,064	0,014
-178,256	-54,412	-0,098	0,032
-177,242	-64,483	0,036	0,011
-176,227	-32,066	0,100	-0,041
-175,212	335,793	0,033	-0,047
-174,198	-100,033	-0,063	0,011
-173,183	-200,000	0,017	0,109
-172,169	302,935	0,091	0,124
-171,154	-200,000	0,009	-0,057
-170,139	800,000	0,053	-0,137
-169,125	105,707	0,076	-0,065
-168,110	-35,096	0,043	-0,017
-167,096	245,533	-0,034	0,042
-166,081	-39,625	-0,090	0,034
-165,066	82,219	-0,148	-0,116
-164,052	-200,000	-0,005	-0,072
-163,037	-200,000	0,013	0,050
-162,023	123,707	-0,008	0,008
-161,008	800,000	-0,004	-0,010
-159,993	-197,878	-0,156	0,001
-158,979	-200,000	-0,006	-0,073
-157,964	-70,330	-0,078	-0,021
-156,950	121,647	0,059	-0,054
-155,935	79,736	-0,013	0,010
-154,920	-150,503	0,019	0,001
-153,906	-200,000	0,001	0,081
-152,891	140,965	0,035	0,033
-151,877	-200,000	0,026	-0,085
-150,862	21,112	-0,069	-0,041
-149,847	800,000	0,037	0,090
-148,833	-200,000	-0,049	0,172
-147,818	-116,334	0,096	-0,013
-146,804	-87,716	-0,024	-0,005
-145,789	229,816	-0,029	0,034
-144,775	-200,000	-0,000	-0,150
-143,760	-44,566	-0,104	-0,037
-142,745	43,424	0,002	0,001
-141,731	261,198	-0,038	-0,047
-140,716	172,804	-0,032	0,034
-139,702	-20,022	-0,060	0,027
-138,687	-197,737	0,062	0,000
-137,672	720,150	-0,029	0,056
-136,658	81,579	0,068	-0,053
-135,643	182,082	0,059	-0,063
-134,629	165,049	-0,045	0,047
-133,614	-139,382	0,049	0,004
-132,599	34,155	0,057	0,036
-131,585	788,888	0,045	0,089
-130,570	302,617	0,011	-0,015
-129,556	-200,000	-0,008	-0,166
-128,541	-200,000	-0,018	0,064
-127,526	800,000	-0,032	0,078
-126,512	-200,000	0,010	0,069
-125,497	68,931	0,124	-0,093
-124,483	-200,000	0,002	-0,007
-123,468	255,248	-0,032	-0,040
-122,453	-61,014	-0,066	-0,020
-121,439	-200,000	-0,016	-0,078
-120,424	800,000	-0,050	0,136
-119,410	-134,001	0,079	0,007
-118,395	-65,130	0,038	0,011
-117,380	-200,000	0,027	0,118
-116,366	-200,000	-0,006	-0,092
-115,351	5,146	-0,107	-0,057
-114,337	-50,953	-0,060	-0,020
-113,322	-200,000	-0,001	-0,055
-112,307	536,720	-0,064	0,111
-111,293	-127,977	0,089	0,009
-110,278	516,705	0,065	0,111
-109,264	476,365	0,038	0,062
-108,249	-200,000	-0,024	-0,085
-107,234	288,750	0,005	0,006
-106,220	-51,423	0,079	0,027
-105,205	480,245	0,075	-0,124
-104,191	-135,666	0,104	0,009
-103,176	-133,334	0,078	0,007
-102,162	6,924	0,150	-0,081
-101,147	52,719	-0,093	-0,065
-100,132	14,986	-0,070	-0,039
-99,118	494,982	-0,037	-0,062
-98,103	-77,856	-0,079	-0,020
-97,089	-48,692	0,127	-0,044
-96,074	188,005	0,068	0,074
-95,059	54,079	-0,031	-0,022
-94,045	765,463	0,029	0,057
-93,030	472,202	-0,062	-0,101
-92,016	-44,033	0,080	-0,029
-91,001	201,797	0,142	-0,159
-89,986	-200,000	-0,007	-0,057
-88,972	-149,066	-0,160	-0,009
-87,957	800,000	-0,047	-0,106
-86,943	-171,469	0,138	0,003
-85,928	-200,000	-0,024	-0,189
-84,913	-200,000	-0,008	-0,153
-83,899	-200,000	-0,002	-0,171
-82,884	375,573	-0,044	-0,066
-81,870	-200,000	0,008	-0,070
-80,855	-200,000	-0,005	0,034
-79,840	156,149	-0,054	-0,054
-78,826	-20,751	0,050	0,022
-77,811	-200,000	0,012	0,148
-76,797	-154,148	0,110	0,005
-75,782	9,035	0,176	0,096
-74,767	-200,000	0,027	0,131
-73,753	37,416	-0,111	0,071
-72,738	-134,166	-0,130	-0,011
-71,724	-0,010	0,153	-0,079
-70,709	298,919	0,009	0,012
-69,694	800,000	-0,024	0,077
-68,680	800,000	0,025	-0,076
-67,665	160,929	-0,011	0,011
-66,651	209,532	0,145	0,164
-65,636	-74,667	0,056	0,015
-64,622	-99,024	0,101	-0,018
-63,607	-137,924	0,124	0,010
-62,592	-200,000	0,002	0,018
-61,578	800,000	0,029	-0,070
-60,563	-69,394	0,077	0,021
-59,549	-200,000	0,014	-0,107
-58,534	-177,570	-1,327	-0,023
-57,519	714,816	-0,749	-1,445
-56,505	-200,000	-0,787	-4,277
-55,490	-18,125	0,530	-0,239
-54,476	800,000	4,909	11,500
-53,461	-200,000	13,908	250,812
-52,446	-200,000	693,032	2236,424
-51,432	581,118	1621,585	2890,501
-50,417	117,649	1630,238	1453,103
-49,403	74,005	1284,776	975,242
-48,388	37,745	1021,565	655,690
-47,373	23,959	979,961	583,805
-46,359	23,212	969,385	575,041
-45,344	22,189	965,116	569,156
-44,330	22,166	963,653	568,194
-43,315	22,042	962,312	566,980
-42,300	22,026	960,987	566,124
-41,286	22,047	960,064	565,627
-40,271	21,969	959,238	564,865
-39,257	21,949	958,377	564,271
-38,242	21,914	957,490	563,612
-37,227	21,931	956,454	563,036
-36,213	21,927	955,627	562,512
-35,198	21,892	954,814	561,899
-34,184	21,927	954,193	561,626
-33,169	21,893	953,247	560,936
-32,154	21,962	952,413	560,644
-31,140	22,029	951,377	560,228
-30,125	22,057	950,626	559,853
-29,111	21,974	949,892	559,132
-28,096	21,954	949,330	558,716
-27,082	21,964	948,561	558,273
-26,067	21,956	947,658	557,694
-25,052	22,008	946,987	557,444
-24,038	21,979	946,416	556,991
-23,023	21,961	945,845	556,578
-22,009	21,991	944,942	556,119
-20,994	21,974	944,604	555,844
-19,979	22,020	943,885	555,545
-18,965	21,955	943,267	554,952
-17,950	21,959	942,660	554,587
-16,936	21,885	942,022	553,952
-15,921	21,940	941,262	553,658
-14,906	21,841	940,502	552,878
-13,892	21,855	939,834	552,505
-12,877	21,860	939,338	552,206
-11,863	21,862	938,403	551,642
-10,848	21,794	938,317	551,357
-9,833	22,009	937,503	551,536
-8,819	21,951	937,252	551,182
-7,804	21,843	936,350	550,287
-6,790	21,889	935,760	550,065
-5,775	21,910	935,183	549,771
-4,760	21,833	934,644	549,190
-3,746	21,884	933,963	548,926
-2,731	21,777	933,202	548,123
-1,717	21,704	932,556	547,490
-0,702	21,745	931,774	547,140
0,313	21,477	931,248	546,815
1,327	23,955	928,946	553,176
2,342	31,688	806,872	501,360
3,356	26,910	507,732	307,337
4,371	2,961	372,617	195,225
5,386	-0,000	355,522	182,638
6,400	-1,599	349,232	177,470
7,415	-2,604	346,471	174,854
8,429	-2,768	344,863	173,832
9,444	-2,788	343,908	173,312
10,459	-2,614	343,212	173,151
11,473	-2,586	342,711	172,915
12,488	-2,577	342,186	172,645
13,502	-2,523	341,590	172,393
14,517	-2,583	341,134	172,077
15,531	-2,763	340,505	171,534
16,546	-2,864	339,981	171,137
17,561	-2,934	339,618	170,857
18,575	-2,800	339,228	170,802
19,590	-2,840	338,654	170,451
20,604	-2,748	338,650	170,541
21,619	-2,912	338,207	170,112
22,634	-2,940	337,871	169,895
23,648	-2,795	337,406	169,814
24,663	-2,685	337,040	169,743
25,677	-2,828	336,863	169,472
26,692	-2,820	336,529	169,298
27,707	-2,824	336,256	169,142
28,721	-2,876	335,910	168,892
29,736	-2,824	335,554	168,758
30,750	-2,902	335,212	168,482
31,765	-2,893	335,043	168,392
32,780	-2,841	334,726	168,278
33,794	-2,904	334,450	168,051
34,809	-2,911	334,194	167,899
35,823	-2,917	333,956	167,758
36,838	-2,892	333,554	167,570
37,853	-2,909	333,417	167,467
38,867	-2,854	332,975	167,293
39,882	-2,907	332,594	167,026
40,896	-2,836	332,362	166,975
41,911	-2,937	332,163	166,745
42,926	-3,047	331,889	166,468
43,940	-2,941	331,437	166,346
44,955	-3,048	331,531	166,257
45,969	-3,017	331,109	166,066
46,984	-3,162	330,841	165,752
47,999	-3,366	330,476	165,323
49,013	-3,180	330,219	165,391
50,028	-3,377	329,894	164,990
51,042	-3,415	329,577	164,775
52,057	-3,455	329,455	164,654
53,071	-3,444	329,240	164,543
54,086	-3,425	328,929	164,394
55,101	-3,204	328,603	164,466
56,115	-3,225	328,545	164,399
57,130	-3,016	328,388	164,540
58,144	-2,972	328,173	164,467
59,159	-2,819	327,886	164,481
60,174	-2,791	327,672	164,391
61,188	-2,740	327,414	164,304
62,203	-2,704	327,208	164,226
63,217	-2,719	326,901	164,040
64,232	-2,705	326,647	163,914
65,247	-2,595	326,341	163,869
66,261	-2,732	326,098	163,579
67,276	-2,870	325,735	163,229
68,290	-3,123	325,430	162,779
69,305	-3,123	325,331	162,716
70,320	-2,952	324,977	162,714
71,334	-2,929	324,660	162,566
72,349	-2,765	324,621	162,714
73,363	-2,707	324,403	162,655
74,378	-2,740	324,153	162,479
75,393	-2,685	323,807	162,351
76,407	-2,884	323,588	162,007
77,422	-2,839	323,369	161,934
78,436	-2,755	323,119	161,886
79,451	-2,669	322,841	161,827
80,466	-2,751	322,525	161,564
81,480	-2,907	322,111	161,170
82,495	-3,016	321,958	160,960
83,509	-2,967	321,799	160,920
84,524	-3,016	321,523	160,713
85,539	-3,150	321,157	160,369
86,553	-3,289	321,074	160,161
87,568	-3,127	320,831	160,203
88,582	-3,126	320,538	160,043
89,597	-2,958	320,256	160,072
90,611	-2,912	320,106	160,033
91,626	-2,831	319,889	159,999
92,641	-2,870	319,559	159,777
93,655	-2,888	319,365	159,646
94,670	-3,046	319,144	159,349
95,684	-3,063	318,989	159,239
96,699	-2,971	318,811	159,236
97,714	-3,189	318,712	158,935
98,728	-3,181	318,445	158,796
99,743	-2,952	317,832	158,726
100,757	-3,073	317,746	158,537
101,772	-3,093	317,665	158,461
102,787	-3,128	317,223	158,188
103,801	-2,837	316,962	158,358
104,816	-3,145	316,901	157,981
105,830	-2,945	316,720	158,093
106,845	-2,761	316,499	158,167
107,860	-2,875	316,210	157,886
108,874	-2,870	315,950	157,747
109,889	-2,839	315,550	157,567
110,903	-2,932	315,407	157,381
111,918	-3,010	315,312	157,235
112,933	-3,042	315,034	157,049
113,947	-2,733	314,750	157,225
114,962	-2,915	314,591	156,936
115,976	-2,800	314,435	156,967
116,991	-3,011	314,320	156,670
118,006	-2,884	313,848	156,557
119,020	-2,907	313,826	156,507
120,035	-2,905	313,819	156,492
121,049	-2,796	313,499	156,435
122,064	-2,781	313,118	156,247
123,079	-2,893	312,900	156,004
124,093	-2,844	312,533	155,860
125,108	-2,911	312,441	155,730
126,122	-2,942	312,059	155,491
127,137	-3,279	312,003	155,091
128,151	-3,059	311,767	155,194
129,166	-3,262	311,681	154,922
130,181	-3,057	311,230	154,901
131,195	-3,207	311,042	154,635
132,210	-3,039	310,836	154,697
133,224	-2,905	310,648	154,731
134,239	-2,733	310,453	154,802
135,254	-2,944	310,292	154,486
136,268	-2,948	310,033	154,339
137,283	-3,266	309,717	153,832
138,297	-3,166	309,442	153,787
139,312	-3,253	309,349	153,635
140,327	-2,960	309,097	153,804
141,341	-2,871	308,951	153,812
142,356	-2,625	308,809	153,985
143,370	-2,536	308,668	153,996
144,385	-2,697	308,409	153,683
145,400	-2,642	308,170	153,608
146,414	-2,588	307,715	153,424
147,429	-2,590	307,826	153,463
148,443	-2,640	307,582	153,276
149,458	-2,644	307,613	153,274
150,473	-2,535	307,043	153,090
151,487	-2,556	306,822	152,944
152,502	-2,487	306,578	152,880
153,516	-2,555	306,430	152,722
154,531	-2,525	306,268	152,660
155,546	-2,658	306,101	152,424
156,560	-2,920	305,977	152,077
157,575	-2,857	305,511	151,897
158,589	-2,753	305,361	151,917
159,604	-2,680	305,168	151,883
160,619	-2,655	304,959	151,791
161,633	-2,719	304,809	151,636
162,648	-2,503	304,480	151,683
163,662	-2,775	304,587	151,441
164,677	-2,829	304,319	151,239
165,692	-2,696	304,009	151,208
166,706	-2,623	303,782	151,158
167,721	-2,699	303,528	150,939
168,735	-2,595	303,355	150,946
169,750	-2,626	303,327	150,887
170,764	-2,536	303,204	150,905
171,779	-2,512	303,012	150,821
172,794	-2,455	302,695	150,708
173,808	-2,580	302,337	150,388
174,823	-2,907	301,984	149,864
175,837	-3,035	301,821	149,639
176,852	-2,762	301,875	149,932
177,867	-2,542	301,662	150,038
178,881	-2,443	301,598	150,094
179,896	-2,417	301,389	150,003
180,910	-2,563	301,156	149,725
181,925	-2,570	300,797	149,526
182,940	-2,435	300,661	149,582
183,954	-2,439	300,496	149,483
184,969	-2,530	300,229	149,244
185,983	-2,630	300,118	149,074
186,998	-2,665	299,956	148,944
188,013	-2,530	299,530	148,857
189,027	-2,524	299,306	148,738
190,042	-2,600	299,360	148,675
191,056	-2,391	299,104	148,746
192,071	-2,429	298,999	148,642
193,086	-2,472	298,791	148,482
194,100	-2,547	298,503	148,249
195,115	-2,416	298,004	148,121
196,129	-2,468	297,869	147,989
197,144	-2,406	297,669	147,938
198,159	-2,392	297,518	147,864
199,173	-2,344	297,421	147,851
200,188	-2,367	297,227	147,718
201,202	-2,461	297,067	147,531
202,217	-2,797	296,479	146,889
203,232	-3,004	296,332	146,595
204,246	-2,752	296,077	146,709
205,261	-2,513	296,043	146,918
206,275	-2,503	295,931	146,859
207,290	-2,440	295,766	146,827
208,304	-2,509	295,522	146,624
209,319	-2,637	295,304	146,375
210,334	-2,646	295,145	146,274
211,348	-2,706	294,896	146,078
212,363	-2,491	294,730	146,196
213,377	-2,509	294,464	146,034
214,392	-2,503	294,408	145,999
215,407	-2,746	294,137	145,610
216,421	-2,853	293,830	145,339
217,436	-2,793	293,622	145,282
218,450	-2,845	293,444	145,129
219,465	-2,799	293,381	145,131
220,480	-2,618	293,099	145,159
221,494	-2,666	293,085	145,091
222,509	-2,811	292,912	144,848
223,523	-2,498	292,632	145,007
224,538	-2,369	292,514	145,063
225,553	-2,499	292,285	144,808
226,567	-2,481	292,077	144,710
227,582	-2,416	291,971	144,708
228,596	-2,428	291,800	144,599
229,611	-2,459	291,552	144,432
230,626	-2,521	291,332	144,250
231,640	-2,715	291,066	143,914
232,655	-2,966	290,822	143,535
233,669	-3,048	290,534	143,299
234,684	-2,873	290,509	143,446
235,699	-2,966	290,247	143,213
236,713	-2,915	290,034	143,145
237,728	-2,800	289,926	143,191
238,742	-2,761	289,716	143,113
239,757	-2,642	289,550	143,134
240,772	-2,589	289,437	143,117
241,786	-2,705	289,197	142,873
242,801	-2,850	289,023	142,633
243,815	-2,755	288,772	142,589
244,830	-2,591	288,628	142,664
245,844	-2,877	288,533	142,326
246,859	-2,667	288,311	142,409
247,874	-2,720	288,135	142,257
248,888	-2,788	287,996	142,110
249,903	-2,525	287,731	142,222
250,917	-2,436	287,668	142,264
251,932	-2,337	287,525	142,277
252,947	-1,739	287,604	142,882
253,961	-2,174	287,216	142,255
254,976	-1,314	287,545	143,239
255,990	1,378	288,309	146,216
257,005	2,597	288,712	147,588
258,020	3,809	289,031	148,914
259,034	3,886	288,771	148,841
260,049	3,506	288,563	148,352
261,063	3,359	288,359	148,093
262,078	3,622	288,401	148,356
263,093	4,350	288,291	148,989
264,107	4,424	287,985	148,888
265,122	4,402	287,973	148,848
266,136	4,568	287,893	148,953
267,151	4,391	287,580	148,608
268,166	4,280	287,441	148,416
269,180	4,302	287,139	148,267
270,195	4,486	286,962	148,339
271,209	4,438	286,734	148,163
272,224	4,002	286,620	147,672
273,239	4,009	286,187	147,442
274,253	3,938	286,238	147,388
275,268	4,571	286,113	147,916
276,282	4,378	285,809	147,561
277,297	4,360	285,837	147,545
278,312	4,845	285,628	147,887
279,326	4,460	285,385	147,381
280,341	4,176	285,296	147,051
281,355	4,055	284,965	146,752
282,370	4,082	284,803	146,681
283,384	4,116	284,479	146,534
284,399	4,152	284,367	146,497
285,414	4,015	284,294	146,316
286,428	4,118	283,952	146,225
287,443	3,820	283,710	145,805
288,457	3,634	283,434	145,473
289,472	3,803	283,289	145,546
290,487	3,841	283,177	145,512
291,501	3,751	282,887	145,264
292,516	3,403	282,735	144,845
293,530	3,452	282,557	144,787
294,545	3,800	282,458	145,052
295,560	3,953	282,342	145,124
296,574	3,717	282,024	144,725
297,589	3,910	282,022	144,892
298,603	4,279	281,929	145,179
299,618	4,136	281,795	144,963
300,633	4,129	281,526	144,805
301,647	4,103	281,393	144,699
302,662	3,975	281,274	144,505
303,676	3,840	280,813	144,129
304,691	3,639	280,496	143,765
305,706	3,506	280,391	143,573
306,720	3,445	280,166	143,388
307,735	3,627	280,001	143,461
308,749	3,613	280,036	143,453
309,764	3,854	279,781	143,535
310,779	3,688	279,462	143,204
311,793	3,455	279,198	142,839
312,808	3,546	279,048	142,834
313,822	3,667	278,910	142,863
314,837	3,584	278,740	142,686
315,852	3,422	278,475	142,388
316,866	3,391	278,477	142,347
317,881	3,483	278,316	142,337
318,895	3,390	278,000	142,076
319,910	3,266	277,883	141,889
320,925	3,355	277,586	141,808
321,939	3,390	277,636	141,853
322,954	3,637	277,475	141,986
323,968	3,739	277,308	141,983
324,983	3,786	277,009	141,860
325,997	4,028	276,872	142,001
327,012	3,902	276,757	141,813
328,027	3,809	276,569	141,618
329,041	3,804	276,277	141,451
330,056	3,874	276,213	141,470
331,070	3,770	276,067	141,287
332,085	3,752	275,966	141,206
333,100	3,750	275,518	140,963
334,114	3,597	275,510	140,806
335,129	3,437	275,232	140,505
336,143	3,617	275,238	140,660
337,158	3,895	274,999	140,780
338,173	3,835	274,689	140,554
339,187	3,599	274,731	140,346
340,202	3,753	274,464	140,339
341,216	3,733	274,323	140,235
342,231	3,781	274,206	140,207
343,246	3,617	273,917	139,897
344,260	3,748	273,726	139,907
345,275	3,713	273,713	139,856
346,289	4,023	273,598	140,067
347,304	4,143	273,408	140,067
348,319	3,828	273,131	139,626
349,333	3,673	272,951	139,380
350,348	4,019	272,834	139,622
351,362	3,998	272,854	139,600
352,377	3,999	272,595	139,457
353,392	3,980	272,413	139,334
354,406	4,079	272,292	139,349
355,421	191,480	1331,390	1408,469
356,435	154,682	1460,521	1408,571
