DTS Sentinel unit serial number:	SN410029Multiplexer serial number:	ORYXHardware model number:	OX2-SRSoftware version number:	ORYX F/W v4,00 Oryx Data Collector v3.7.2.0data status	okinstallation	B4 Nyhavnadifferential loss correction	single-endedforward channel	channel 2reverse channel	N/Adate	2023/12/18time	22:25:13forward acquisition time	300,00reverse acquisition time	0,00gamma	499,1914k internal	0,3124k external	0,3124temperature offset calibration	1,0000default loss term (dB/km)	0,3820temperature slope calibration	1,0000multiplexer offset coefficient	1,0000multiplexer slope coefficient	1,0000fibre end	0,00T internal ref (°C)	21,87T ext. ref 1 (°C)	7,21T ext. ref 2 (°C)	7,24length (m)	temperature (°C)	Stokes	anti-Stokes-744,400	-200,000	-0,009	-0,055
-743,385	-84,710	-0,208	0,048
-742,371	800,000	0,038	-0,107
-741,356	30,691	-0,151	0,096
-740,342	103,465	-0,064	0,056
-739,327	231,856	-0,162	0,198
-738,312	134,867	0,053	-0,052
-737,298	-123,684	-0,223	0,026
-736,283	800,000	-0,050	-0,142
-735,269	-142,166	-0,174	0,013
-734,254	-101,483	0,116	0,021
-733,239	-83,362	-0,456	-0,108
-732,225	-200,000	-0,046	-0,218
-731,210	-111,230	-0,102	-0,015
-730,196	-200,000	0,002	0,048
-729,181	-48,242	-0,189	-0,068
-728,167	-200,000	0,019	-0,079
-727,152	-200,000	-0,008	-0,095
-726,137	69,231	0,112	-0,086
-725,123	182,352	0,085	-0,093
-724,108	154,003	-0,113	-0,115
-723,094	301,662	-0,079	-0,109
-722,079	-95,097	0,087	-0,017
-721,064	-135,028	0,062	-0,005
-720,050	-67,240	-0,023	0,007
-719,035	-200,000	0,008	-0,106
-718,021	-3,222	-0,013	-0,007
-717,006	601,215	0,011	-0,020
-715,991	223,981	-0,113	-0,136
-714,977	69,675	-0,084	-0,064
-713,962	-98,219	0,076	-0,014
-712,948	-200,000	-0,036	0,237
-711,933	594,014	-0,115	0,212
-710,918	395,570	-0,025	-0,038
-709,904	-200,000	-0,031	-0,134
-708,889	-200,000	0,016	-0,225
-707,875	116,690	-0,122	-0,111
-706,860	289,579	0,048	-0,065
-705,845	-27,859	0,071	0,031
-704,831	81,836	0,025	0,020
-703,816	-105,358	0,072	-0,012
-702,802	-54,529	-0,032	0,011
-701,787	288,272	-0,090	-0,121
-700,772	-200,000	0,015	-0,055
-699,758	-63,475	-0,133	-0,040
-698,743	66,867	0,041	0,031
-697,729	91,466	-0,030	0,025
-696,714	23,286	0,079	-0,048
-695,699	-120,241	0,069	0,009
-694,685	800,000	-0,090	-0,197
-693,670	-200,000	-0,026	-0,144
-692,656	-200,000	-0,014	0,062
-691,641	14,130	0,014	-0,008
-690,627	-200,000	0,011	-0,082
-689,612	-76,253	0,083	-0,022
-688,597	242,562	-0,083	0,104
-687,583	-67,745	-0,141	-0,041
-686,568	197,147	0,055	-0,062
-685,554	-71,883	0,166	-0,045
-684,539	231,161	0,004	0,005
-683,524	-200,000	0,035	0,251
-682,510	800,000	0,031	0,093
-681,495	-66,515	-0,086	0,025
-680,481	205,526	0,038	-0,044
-679,466	-130,988	-0,057	0,006
-678,451	65,988	-0,059	0,044
-677,437	-129,435	0,078	-0,008
-676,422	375,943	-0,043	0,065
-675,408	-32,818	0,065	-0,027
-674,393	303,644	-0,068	-0,094
-673,378	800,000	-0,030	-0,082
-672,364	-25,971	0,084	0,036
-671,349	213,304	0,042	-0,049
-670,335	36,780	0,040	-0,026
-669,320	467,961	-0,105	0,175
-668,305	-54,626	-0,066	0,022
-667,291	-168,106	0,028	-0,001
-666,276	-146,214	0,084	0,005
-665,262	-200,000	-0,016	0,063
-664,247	16,778	-0,076	0,044
-663,232	-30,013	0,109	-0,046
-662,218	467,441	0,062	-0,103
-661,203	162,272	-0,041	0,043
-660,189	-144,564	0,054	-0,004
-659,174	76,464	-0,152	-0,120
-658,159	116,913	-0,058	-0,052
-657,145	290,095	0,018	-0,024
-656,130	800,000	-0,040	0,090
-655,116	-200,000	-0,010	0,073
-654,101	-14,517	0,065	-0,031
-653,086	313,105	-0,093	-0,130
-652,072	800,000	-0,036	0,117
-651,057	459,101	0,031	-0,051
-650,043	-200,000	0,021	-0,122
-649,028	42,080	-0,206	-0,139
-648,014	2,598	0,203	0,109
-646,999	-109,348	0,120	-0,019
-645,984	113,855	0,054	0,049
-644,970	-138,877	-0,178	-0,014
-643,955	800,000	-0,007	-0,021
-642,941	-200,000	-0,008	-0,140
-641,926	-20,898	-0,049	-0,022
-640,911	531,410	-0,074	-0,131
-639,897	-200,000	0,001	-0,063
-638,882	-200,000	0,011	-0,044
-637,868	-95,730	-0,058	-0,011
-636,853	-62,083	-0,105	0,032
-635,838	-200,000	-0,021	0,113
-634,824	-15,489	-0,056	-0,026
-633,809	-200,000	0,006	-0,228
-632,795	298,485	-0,019	-0,026
-631,780	-14,019	-0,125	0,059
-630,765	-130,536	-0,026	0,003
-629,751	-200,000	-0,047	-0,214
-628,736	107,371	0,078	-0,069
-627,722	46,872	-0,068	-0,047
-626,707	-200,000	-0,003	-0,068
-625,692	403,021	-0,037	-0,059
-624,678	31,089	-0,032	-0,020
-623,663	230,855	-0,032	-0,040
-622,649	-7,597	-0,100	0,050
-621,634	-200,000	0,013	-0,213
-620,619	-123,835	-0,055	0,006
-619,605	-200,000	-0,040	-0,264
-618,590	355,263	-0,048	-0,071
-617,576	800,000	-0,033	0,088
-616,561	-65,317	0,079	0,023
-615,546	11,733	-0,084	0,048
-614,532	-200,000	-0,004	-0,097
-613,517	2,285	0,059	-0,032
-612,503	-67,036	-0,032	0,009
-611,488	788,157	0,050	0,102
-610,474	-146,981	0,079	0,005
-609,459	-56,459	-0,054	0,018
-608,444	-18,100	0,071	-0,033
-607,430	-200,000	-0,019	-0,103
-606,415	-200,000	-0,001	-0,079
-605,401	-124,128	-0,085	-0,010
-604,386	130,674	0,045	0,043
-603,371	17,022	-0,127	0,075
-602,357	-200,000	-0,005	-0,072
-601,342	-104,654	-0,086	0,014
-600,328	-17,093	-0,108	0,050
-599,313	-175,237	-0,146	0,003
-598,298	71,666	0,095	-0,073
-597,284	75,696	0,060	-0,047
-596,269	51,295	0,099	0,070
-595,255	333,088	-0,019	0,027
-594,240	800,000	-0,005	0,014
-593,225	-123,510	0,035	0,004
-592,211	-145,694	-0,152	-0,010
-591,196	-200,000	-0,023	-0,091
-590,182	42,294	0,035	0,024
-589,167	123,995	0,071	0,067
-588,152	-200,000	0,036	-0,122
-587,138	-98,230	-0,120	0,023
-586,123	209,698	0,037	0,043
-585,109	-29,199	-0,180	-0,076
-584,094	-84,213	0,124	0,029
-583,079	207,765	-0,053	0,061
-582,065	-36,074	-0,186	-0,074
-581,050	-200,000	-0,014	-0,102
-580,036	278,091	-0,074	0,098
-579,021	-200,000	0,000	-0,012
-578,006	-61,776	0,054	-0,017
-576,992	3,374	-0,009	-0,005
-575,977	800,000	-0,077	0,158
-574,963	800,000	0,032	0,084
-573,948	-200,000	0,011	0,065
-572,934	-64,841	-0,138	-0,041
-571,919	-153,563	-0,180	0,009
-570,904	93,332	-0,045	0,038
-569,890	648,001	-0,024	-0,045
-568,875	-108,551	-0,149	-0,023
-567,861	-45,914	0,022	-0,008
-566,846	141,881	0,093	0,091
-565,831	117,557	-0,047	0,043
-564,817	800,000	-0,023	0,062
-563,802	-42,291	-0,049	-0,018
-562,788	-128,036	-0,116	0,012
-561,773	-94,219	0,149	0,030
-560,758	-36,885	0,058	-0,023
-559,744	536,002	-0,045	-0,079
-558,729	-200,000	-0,009	0,051
-557,715	607,909	-0,049	-0,091
-556,700	58,515	0,034	-0,025
-555,685	324,276	-0,059	0,084
-554,671	-31,660	0,106	0,044
-553,656	-168,170	-0,178	-0,005
-552,642	364,370	-0,053	0,080
-551,627	-142,543	0,021	0,001
-550,612	3,237	0,074	0,040
-549,598	-200,000	-0,006	0,067
-548,583	21,808	-0,037	0,022
-547,569	800,000	-0,024	-0,049
-546,554	64,473	-0,133	0,099
-545,539	-89,068	0,205	-0,044
-544,525	-200,000	-0,000	0,067
-543,510	245,166	0,043	0,053
-542,496	137,684	-0,099	-0,096
-541,481	66,312	-0,109	0,082
-540,466	42,584	-0,066	-0,044
-539,452	800,000	-0,016	-0,036
-538,437	800,000	-0,023	0,065
-537,423	243,767	0,051	0,064
-536,408	-107,635	-0,166	0,027
-535,393	-98,273	0,092	0,017
-534,379	359,762	0,077	-0,115
-533,364	-4,443	-0,030	-0,015
-532,350	-200,000	0,004	0,090
-531,335	-200,000	0,017	0,089
-530,321	6,953	0,088	0,048
-529,306	209,464	-0,119	-0,139
-528,291	800,000	-0,013	0,027
-527,277	-200,000	-0,024	-0,094
-526,262	526,907	0,048	0,083
-525,248	800,000	0,077	0,167
-524,233	-200,000	0,028	0,167
-523,218	18,446	-0,106	0,062
-522,204	-200,000	0,017	-0,088
-521,189	-200,000	-0,012	-0,160
-520,175	-125,944	0,125	0,014
-519,160	-200,000	0,007	-0,070
-518,145	800,000	0,066	-0,136
-517,131	-100,397	0,043	-0,008
-516,116	-103,829	-0,061	0,010
-515,102	-200,000	0,003	0,060
-514,087	-131,990	-0,129	0,012
-513,072	-200,000	-0,012	0,052
-512,058	-125,497	-0,151	-0,017
-511,043	-115,818	0,021	-0,003
-510,029	-83,581	-0,078	0,018
-509,014	162,273	-0,054	0,056
-507,999	-200,000	0,004	-0,062
-506,985	598,113	-0,043	-0,078
-505,970	-200,000	-0,028	-0,136
-504,956	198,543	-0,041	0,046
-503,941	-200,000	-0,006	-0,029
-502,926	800,000	0,015	0,048
-501,912	-200,000	0,029	0,114
-500,897	-65,121	0,117	-0,035
-499,883	150,026	-0,075	0,075
-498,868	-1,108	-0,011	-0,006
-497,853	530,460	0,027	-0,047
-496,839	-200,000	-0,023	-0,078
-495,824	-33,735	0,113	0,046
-494,810	800,000	-0,054	0,119
-493,795	-24,729	-0,049	-0,021
-492,781	-41,661	-0,064	0,024
-491,766	-36,054	-0,076	0,030
-490,751	-37,689	0,018	0,007
-489,737	222,781	-0,090	-0,107
-488,722	-126,904	-0,057	0,006
-487,708	-193,488	-0,071	0,000
-486,693	132,004	0,110	-0,105
-485,678	-22,776	-0,091	0,040
-484,664	-128,288	-0,120	-0,012
-483,649	116,204	-0,070	-0,064
-482,635	-200,000	0,006	0,049
-481,620	-25,098	-0,018	0,008
-480,605	-200,000	-0,015	0,065
-479,591	-200,000	-0,005	0,078
-478,576	178,590	-0,016	-0,017
-477,562	408,728	0,016	0,025
-476,547	-36,033	0,106	0,042
-475,532	518,671	-0,037	0,064
-474,518	247,659	0,073	0,091
-473,503	402,304	-0,026	-0,040
-472,489	-92,833	0,139	-0,028
-471,474	-200,000	0,009	-0,093
-470,459	-81,104	-0,034	-0,008
-469,445	538,884	0,004	0,006
-468,430	-124,238	0,073	-0,008
-467,416	-37,596	0,219	-0,086
-466,401	554,730	-0,095	-0,168
-465,386	-200,000	0,035	0,142
-464,372	800,000	0,038	0,109
-463,357	-129,297	0,149	-0,015
-462,343	144,269	-0,009	-0,008
-461,328	-120,461	-0,036	0,004
-460,313	112,439	0,068	-0,060
-459,299	-152,887	0,244	-0,013
-458,284	43,180	0,095	-0,064
-457,270	-200,000	0,012	-0,049
-456,255	-154,158	0,085	-0,004
-455,241	-200,000	-0,008	0,096
-454,226	-200,000	-0,026	-0,122
-453,211	-24,071	0,129	0,056
-452,197	45,968	0,111	0,076
-451,182	-126,384	0,078	0,008
-450,168	-80,335	0,108	0,026
-449,153	-200,000	0,021	0,093
-448,138	50,032	-0,014	0,010
-447,124	115,798	0,015	0,014
-446,109	-200,000	-0,004	-0,038
-445,095	-14,825	0,028	0,013
-444,080	69,671	-0,035	-0,027
-443,065	-108,862	0,115	0,018
-442,051	319,118	-0,045	-0,063
-441,036	-64,975	-0,087	0,026
-440,022	292,003	-0,034	0,046
-439,007	-65,209	-0,111	0,033
-437,992	-200,000	0,001	-0,021
-436,978	-73,157	0,091	0,024
-435,963	-22,703	-0,073	0,032
-434,949	34,687	0,039	-0,025
-433,934	451,680	-0,006	-0,011
-432,919	-69,389	0,050	0,014
-431,905	282,874	0,113	-0,149
-430,890	-200,000	0,034	0,123
-429,876	63,749	0,081	-0,060
-428,861	71,549	-0,007	0,006
-427,846	-148,895	-0,054	-0,003
-426,832	6,664	-0,044	0,024
-425,817	782,382	-0,031	-0,062
-424,803	800,000	0,034	0,099
-423,788	-200,000	-0,005	-0,087
-422,773	800,000	0,024	-0,061
-421,759	800,000	-0,012	0,035
-420,744	-111,834	0,155	-0,023
-419,730	-200,000	0,010	-0,076
-418,715	297,187	0,031	0,042
-417,701	-200,000	0,025	-0,160
-416,686	-45,509	0,079	-0,028
-415,671	-13,226	0,117	0,056
-414,657	800,000	-0,068	0,153
-413,642	-200,000	-0,011	-0,054
-412,628	-200,000	0,023	0,128
-411,613	-49,055	-0,040	-0,014
-410,598	-200,000	-0,019	-0,097
-409,584	-118,117	0,078	0,010
-408,569	159,653	0,074	0,076
-407,555	-200,000	-0,022	-0,121
-406,540	288,834	-0,066	-0,088
-405,525	-72,195	-0,088	0,024
-404,511	-97,040	-0,042	-0,008
-403,496	-200,000	0,010	-0,041
-402,482	-107,728	0,082	0,013
-401,467	-130,516	0,179	-0,018
-400,452	467,978	-0,038	0,063
-399,438	798,436	0,040	0,082
-398,423	474,178	-0,055	-0,091
-397,409	-27,201	0,035	0,015
-396,394	-82,055	-0,032	-0,008
-395,379	-122,842	-0,045	0,005
-394,365	214,215	-0,087	0,101
-393,350	439,868	0,075	0,120
-392,336	-151,416	0,185	0,010
-391,321	-200,000	0,010	0,036
-390,306	800,000	0,057	-0,131
-389,292	-56,858	-0,151	-0,049
-388,277	204,077	-0,008	-0,009
-387,263	800,000	0,019	-0,052
-386,248	-200,000	-0,008	0,169
-385,233	199,985	0,075	-0,085
-384,219	-10,088	-0,032	-0,015
-383,204	800,000	0,057	-0,150
-382,190	31,830	0,067	-0,042
-381,175	800,000	-0,031	0,080
-380,160	-82,756	0,116	-0,027
-379,146	169,328	-0,093	0,098
-378,131	-200,000	-0,003	0,046
-377,117	-192,511	-0,055	-0,000
-376,102	-200,000	0,020	0,081
-375,088	-200,000	0,031	0,135
-374,073	-200,000	-0,022	-0,073
-373,058	-4,579	-0,120	-0,061
-372,044	-200,000	0,019	0,158
-371,029	-33,514	0,013	-0,005
-370,015	800,000	0,021	0,055
-369,000	800,000	0,041	-0,125
-367,985	212,635	-0,040	-0,047
-366,971	486,806	-0,037	0,062
-365,956	-125,613	0,029	-0,003
-364,942	157,951	-0,047	0,048
-363,927	25,320	0,105	-0,064
-362,912	-200,000	0,010	0,138
-361,898	12,474	-0,094	0,053
-360,883	6,393	0,056	0,030
-359,869	22,277	0,080	-0,048
-358,854	41,617	0,104	0,069
-357,839	-107,611	0,114	-0,018
-356,825	-200,000	0,015	0,069
-355,810	800,000	-0,025	0,054
-354,796	-200,000	-0,007	0,072
-353,781	-110,489	0,105	-0,016
-352,766	551,463	0,038	-0,067
-351,752	348,967	0,063	0,091
-350,737	198,271	0,053	0,060
-349,723	-148,835	-0,043	0,002
-348,708	-59,808	-0,118	-0,037
-347,693	-200,000	0,008	0,075
-346,679	800,000	-0,129	-0,272
-345,664	-200,000	0,003	-0,029
-344,650	800,000	0,022	0,051
-343,635	-200,000	-0,012	0,048
-342,620	-200,000	-0,035	0,180
-341,606	800,000	-0,062	0,170
-340,591	248,291	-0,020	0,025
-339,577	-200,000	-0,018	-0,093
-338,562	-200,000	-0,001	-0,034
-337,548	-200,000	0,002	0,014
-336,533	800,000	0,071	-0,192
-335,518	-123,370	0,193	0,022
-334,504	634,067	-0,058	0,109
-333,489	-117,523	0,028	0,004
-332,475	91,668	-0,043	-0,035
-331,460	55,643	-0,030	-0,022
-330,445	152,413	-0,059	0,059
-329,431	156,520	-0,060	0,061
-328,416	582,272	0,051	-0,092
-327,402	120,558	-0,046	-0,042
-326,387	-34,972	0,061	-0,024
-325,372	800,000	0,010	-0,023
-324,358	306,653	-0,112	-0,153
-323,343	660,815	-0,027	0,051
-322,329	-61,171	0,017	-0,005
-321,314	-200,000	0,008	0,045
-320,299	-28,825	-0,035	0,015
-319,285	166,836	-0,045	-0,047
-318,270	800,000	-0,054	-0,115
-317,256	-103,243	0,104	0,018
-316,241	-200,000	0,019	-0,106
-315,226	-83,854	0,123	0,028
-314,212	297,908	0,073	0,099
-313,197	40,816	-0,206	0,136
-312,183	-200,000	-0,003	-0,009
-311,168	-13,714	-0,127	-0,060
-310,153	195,521	0,051	-0,057
-309,139	65,885	0,062	-0,046
-308,124	-105,182	0,218	0,036
-307,110	-200,000	-0,026	-0,127
-306,095	-7,285	0,097	-0,048
-305,080	-170,575	-0,057	0,001
-304,066	-200,000	-0,014	-0,113
-303,051	-41,488	-0,111	0,042
-302,037	119,431	-0,037	0,034
-301,022	70,932	-0,134	-0,101
-300,008	-154,193	0,090	0,004
-298,993	-168,974	0,125	0,003
-297,978	-200,000	-0,007	-0,046
-296,964	316,265	-0,030	-0,042
-295,949	-200,000	-0,001	0,051
-294,935	-200,000	0,008	-0,047
-293,920	800,000	-0,048	0,156
-292,905	800,000	-0,041	0,085
-291,891	28,334	0,110	0,068
-290,876	800,000	-0,007	-0,017
-289,862	14,895	0,110	0,063
-288,847	208,787	0,012	0,014
-287,832	94,640	-0,136	-0,113
-286,818	-200,000	-0,020	-0,067
-285,803	583,001	0,034	-0,061
-284,789	331,959	-0,116	0,165
-283,774	127,082	0,092	-0,085
-282,759	-58,692	-0,030	-0,009
-281,745	800,000	0,029	-0,073
-280,730	-115,466	-0,203	-0,028
-279,716	-200,000	0,011	0,050
-278,701	-200,000	-0,032	-0,128
-277,686	-151,119	0,093	0,005
-276,672	31,459	0,140	0,088
-275,657	129,072	0,068	0,064
-274,643	-117,556	-0,057	-0,007
-273,628	-200,000	-0,019	0,080
-272,613	800,000	-0,012	0,033
-271,599	-200,000	-0,018	0,071
-270,584	-3,031	0,090	-0,046
-269,570	-40,863	0,019	-0,007
-268,555	-173,814	0,015	-0,000
-267,540	-200,000	-0,021	0,141
-266,526	-200,000	-0,023	-0,080
-265,511	-200,000	-0,006	-0,038
-264,497	-200,000	-0,016	-0,195
-263,482	72,292	0,084	-0,064
-262,467	503,807	-0,039	-0,067
-261,453	286,215	-0,022	-0,029
-260,438	-114,926	0,034	-0,005
-259,424	69,813	-0,058	-0,044
-258,409	-105,211	-0,067	0,011
-257,395	-200,000	0,036	0,127
-256,380	-26,678	0,023	0,010
-255,365	298,378	-0,046	0,061
-254,351	-32,499	-0,035	-0,014
-253,336	800,000	-0,033	0,103
-252,322	-186,687	-0,098	0,001
-251,307	23,156	-0,127	0,076
-250,292	76,993	-0,103	0,080
-249,278	-88,042	0,156	0,034
-248,263	-51,974	0,095	-0,032
-247,249	77,232	0,062	-0,048
-246,234	-200,000	0,033	-0,138
-245,219	325,938	0,034	-0,047
-244,205	-200,000	-0,007	-0,037
-243,190	513,489	-0,031	0,053
-242,176	277,749	0,053	-0,069
-241,161	-79,781	0,118	0,029
-240,146	-200,000	0,028	0,107
-239,132	-200,000	0,013	0,055
-238,117	-200,000	-0,002	-0,054
-237,103	-200,000	-0,018	-0,150
-236,088	-200,000	0,018	-0,165
-235,073	-200,000	0,012	0,224
-234,059	112,055	0,067	-0,059
-233,044	-200,000	-0,007	0,045
-232,030	-138,961	0,081	-0,006
-231,015	800,000	-0,032	-0,075
-230,000	-200,000	0,015	-0,088
-228,986	-65,467	0,020	0,006
-227,971	800,000	-0,023	-0,054
-226,957	-200,000	0,012	0,042
-225,942	253,028	0,034	-0,042
-224,927	-200,000	0,020	0,173
-223,913	771,322	0,019	0,038
-222,898	382,534	-0,027	-0,041
-221,884	800,000	0,023	-0,048
-220,869	-116,534	0,125	-0,017
-219,855	-54,025	-0,056	0,018
-218,840	-200,000	-0,019	0,068
-217,825	149,957	0,025	-0,025
-216,811	-200,000	-0,008	0,063
-215,796	-41,797	-0,083	-0,031
-214,782	-135,738	-0,068	-0,006
-213,767	-18,099	0,071	-0,032
-212,752	107,384	-0,020	-0,017
-211,738	7,408	0,076	0,042
-210,723	18,705	-0,156	-0,091
-209,709	-200,000	-0,032	-0,165
-208,694	-9,008	-0,110	-0,053
-207,679	135,531	0,151	-0,143
-206,665	120,166	0,051	-0,046
-205,650	-89,799	0,104	0,022
-204,636	800,000	0,056	0,132
-203,621	627,711	0,013	-0,023
-202,606	800,000	-0,043	0,109
-201,592	-200,000	-0,004	0,099
-200,577	-72,212	0,067	0,018
-199,563	240,918	-0,028	0,034
-198,548	160,534	-0,081	0,082
-197,533	-63,971	0,162	0,048
-196,519	16,498	-0,060	0,034
-195,504	-200,000	-0,011	-0,126
-194,490	-181,058	-0,147	-0,002
-193,475	-200,000	-0,000	-0,026
-192,460	369,152	0,051	0,076
-191,446	-200,000	0,032	0,141
-190,431	592,639	0,066	0,120
-189,417	-45,148	0,072	0,026
-188,402	-200,000	-0,013	0,081
-187,387	168,779	-0,075	0,079
-186,373	42,650	0,066	-0,043
-185,358	-200,000	0,013	-0,073
-184,344	190,628	0,058	-0,064
-183,329	357,485	0,037	0,054
-182,315	87,437	-0,050	0,040
-181,300	-72,326	-0,058	0,015
-180,285	-200,000	0,006	-0,041
-179,271	-200,000	-0,020	-0,105
-178,256	-32,874	0,089	0,036
-177,242	-140,604	0,119	0,009
-176,227	196,549	0,085	-0,095
-175,212	7,346	0,096	0,052
-174,198	109,035	-0,077	0,067
-173,183	786,743	0,008	-0,017
-172,169	117,768	0,031	0,028
-171,154	-200,000	-0,009	0,059
-170,139	120,390	-0,078	0,071
-169,125	-131,745	0,030	-0,003
-168,110	115,495	0,021	0,019
-167,096	-200,000	0,017	0,087
-166,081	270,352	-0,058	-0,074
-165,066	-134,719	0,040	0,003
-164,052	-200,000	-0,004	0,109
-163,037	398,724	0,048	-0,073
-162,023	448,746	0,037	0,060
-161,008	-82,895	-0,075	0,017
-159,993	13,669	-0,074	-0,042
-158,979	-200,000	-0,039	0,127
-157,964	-50,119	-0,046	0,016
-156,950	23,107	-0,023	-0,014
-155,935	52,605	-0,033	0,023
-154,920	-29,339	0,114	0,047
-153,906	-200,000	0,001	0,076
-152,891	305,742	0,049	-0,066
-151,877	30,138	-0,036	0,022
-150,862	-71,445	-0,082	0,022
-149,847	305,545	-0,054	0,073
-148,833	288,393	-0,062	-0,082
-147,818	113,148	0,026	-0,023
-146,804	-146,616	-0,130	-0,008
-145,789	163,036	0,080	0,082
-144,775	-200,000	-0,021	0,067
-143,760	514,610	-0,054	0,093
-142,745	-138,339	-0,080	-0,006
-141,731	-200,000	-0,035	0,142
-140,716	-72,222	-0,032	0,009
-139,702	-200,000	-0,010	0,139
-138,687	-20,874	0,051	-0,022
-137,672	-1,511	-0,092	0,047
-136,658	-108,666	-0,029	0,004
-135,643	-31,159	0,011	0,005
-134,629	-200,000	0,029	-0,176
-133,614	-60,112	0,042	-0,013
-132,599	-200,000	-0,027	0,125
-131,585	-200,000	0,022	-0,076
-130,570	-109,960	-0,048	0,007
-129,556	86,148	-0,055	0,044
-128,541	-34,272	0,079	-0,031
-127,526	-200,000	0,014	0,049
-126,512	31,914	0,099	-0,062
-125,497	168,837	0,031	-0,033
-124,483	191,355	0,054	-0,059
-123,468	-200,000	-0,012	-0,045
-122,453	-149,631	0,146	0,008
-121,439	-200,000	-0,009	-0,156
-120,424	-200,000	0,002	-0,067
-119,410	-200,000	0,015	-0,051
-118,395	-200,000	-0,020	0,068
-117,380	3,805	-0,041	-0,022
-116,366	-200,000	0,002	-0,024
-115,351	-200,000	0,006	-0,088
-114,337	-44,857	-0,087	-0,032
-113,322	-75,208	-0,142	-0,037
-112,307	336,093	-0,020	-0,028
-111,293	781,497	0,045	-0,089
-110,278	-200,000	0,044	0,159
-109,264	708,915	0,054	0,105
-108,249	-196,311	-0,088	-0,000
-107,234	800,000	-0,028	-0,068
-106,220	345,422	-0,056	-0,080
-105,205	-85,062	-0,105	-0,024
-104,191	-36,283	0,064	-0,025
-103,176	800,000	0,035	0,110
-102,162	-104,399	-0,052	-0,009
-101,147	-69,926	-0,097	-0,027
-100,132	350,529	0,084	-0,121
-99,118	-82,009	-0,043	0,010
-98,103	638,922	-0,021	0,040
-97,089	-200,000	0,056	0,266
-96,074	14,689	-0,024	0,014
-95,059	271,199	-0,033	0,042
-94,045	37,582	-0,077	-0,050
-93,030	27,805	0,069	-0,042
-92,016	-121,993	0,028	-0,003
-91,001	475,260	0,076	-0,125
-89,986	-51,175	0,055	-0,018
-88,972	-200,000	0,040	0,145
-87,957	-200,000	-0,036	0,223
-86,943	-32,449	-0,118	0,048
-85,928	309,525	-0,029	-0,039
-84,913	-117,267	-0,126	0,016
-83,899	-200,000	0,010	0,168
-82,884	223,906	-0,019	0,022
-81,870	282,555	-0,016	0,021
-80,855	-151,609	0,158	-0,008
-79,840	49,096	0,063	0,043
-78,826	361,222	-0,065	-0,095
-77,811	143,154	0,119	0,115
-76,797	-200,000	0,003	-0,038
-75,782	194,207	0,017	0,019
-74,767	92,474	0,092	0,075
-73,753	-200,000	-0,017	0,130
-72,738	-146,585	0,202	-0,013
-71,724	800,000	-0,018	-0,050
-70,709	15,653	0,041	-0,023
-69,694	357,491	-0,024	0,035
-68,680	529,450	0,008	0,014
-67,665	741,751	-0,039	-0,077
-66,651	-200,000	0,001	-0,042
-65,636	145,840	-0,088	0,086
-64,622	141,116	-0,065	0,063
-63,607	-28,284	0,062	0,026
-62,592	487,754	-0,058	-0,097
-61,578	-32,454	-0,112	0,045
-60,563	-146,997	0,064	-0,004
-59,549	310,533	-0,087	0,118
-58,534	-155,911	-1,419	0,064
-57,519	359,811	-0,981	-1,428
-56,505	-200,000	-0,682	-4,243
-55,490	-23,305	0,591	-0,257
-54,476	800,000	4,930	11,697
-53,461	-200,000	14,081	254,746
-52,446	-200,000	694,699	2263,979
-51,432	599,019	1625,047	2935,816
-50,417	117,704	1633,507	1458,358
-49,403	73,642	1287,605	977,314
-48,388	37,420	1023,722	656,910
-47,373	23,909	982,070	585,731
-46,359	23,211	971,598	577,174
-45,344	22,163	967,013	571,005
-44,330	22,081	965,832	570,016
-43,315	21,990	964,242	568,759
-42,300	21,973	963,138	568,029
-41,286	21,859	962,404	567,206
-40,271	21,908	961,406	566,751
-39,257	21,879	960,458	566,076
-38,242	21,885	959,663	565,607
-37,227	21,875	958,618	564,933
-36,213	21,896	957,737	564,462
-35,198	21,858	956,956	563,855
-34,184	21,946	956,282	563,722
-33,169	21,871	955,340	562,902
-32,154	21,941	954,457	562,584
-31,140	21,977	953,561	562,151
-30,125	21,979	952,563	561,545
-29,111	21,876	951,993	560,856
-28,096	21,910	951,193	560,472
-27,082	21,939	950,642	560,217
-26,067	21,928	949,911	559,730
-25,052	21,905	949,086	559,148
-24,038	21,911	948,465	558,779
-23,023	21,887	947,897	558,346
-22,009	21,934	947,206	558,065
-20,994	21,907	946,433	557,502
-19,979	21,853	945,869	556,977
-18,965	21,907	945,289	556,783
-17,950	21,928	944,522	556,378
-16,936	21,876	943,960	555,858
-15,921	21,908	943,202	555,493
-14,906	21,846	942,423	554,812
-13,892	21,791	941,850	554,278
-12,877	21,811	941,280	553,986
-11,863	21,743	940,898	553,522
-10,848	21,800	940,135	553,233
-9,833	21,865	939,615	553,110
-8,819	21,877	939,019	552,775
-7,804	21,718	938,610	552,011
-6,790	21,768	937,943	551,754
-5,775	21,813	937,272	551,480
-4,760	21,820	936,583	551,073
-3,746	21,820	936,110	550,773
-2,731	21,627	935,181	549,595
-1,717	21,659	934,454	549,249
-0,702	21,690	933,925	549,014
0,313	21,410	933,358	548,625
1,327	23,913	931,059	555,096
2,342	31,561	809,090	503,114
3,356	26,457	509,648	308,164
4,371	2,008	374,621	195,330
5,386	-0,994	357,573	182,731
6,400	-2,149	351,634	178,281
7,415	-2,765	348,877	176,125
8,429	-2,937	347,303	175,110
9,444	-2,882	346,368	174,688
10,459	-2,907	345,833	174,373
11,473	-3,076	345,102	173,788
12,488	-2,911	344,665	173,749
13,502	-2,953	344,036	173,366
14,517	-2,962	343,454	173,047
15,531	-2,789	342,916	172,964
16,546	-2,860	342,500	172,656
17,561	-2,880	342,138	172,434
18,575	-2,859	341,679	172,213
19,590	-2,880	341,401	172,032
20,604	-2,713	341,011	172,017
21,619	-2,914	340,694	171,606
22,634	-2,822	340,210	171,454
23,648	-2,828	339,848	171,249
24,663	-2,827	339,643	171,132
25,677	-2,755	339,161	170,958
26,692	-2,906	339,015	170,693
27,707	-2,755	338,679	170,684
28,721	-2,942	338,419	170,321
29,736	-2,706	337,985	170,362
30,750	-2,782	337,680	170,104
31,765	-2,813	337,495	169,960
32,780	-2,810	337,123	169,761
33,794	-2,869	337,064	169,647
34,809	-2,967	336,768	169,369
35,823	-2,746	336,326	169,388
36,838	-2,776	336,029	169,189
37,853	-2,560	335,733	169,274
38,867	-2,792	335,485	168,866
39,882	-2,886	335,354	168,677
40,896	-2,823	335,031	168,571
41,911	-2,720	334,636	168,476
42,926	-2,822	334,509	168,280
43,940	-2,761	334,064	168,112
44,955	-2,689	333,854	168,074
45,969	-2,630	333,552	167,974
46,984	-2,832	333,292	167,597
47,999	-2,884	333,192	167,471
49,013	-2,928	333,003	167,312
50,028	-2,766	332,666	167,312
51,042	-2,799	332,174	167,013
52,057	-2,920	332,060	166,802
53,071	-2,893	331,769	166,672
54,086	-2,874	331,614	166,601
55,101	-2,891	331,427	166,473
56,115	-2,961	331,134	166,231
57,130	-2,851	330,993	166,271
58,144	-2,868	330,525	166,001
59,159	-2,856	330,193	165,834
60,174	-2,732	330,044	165,885
61,188	-2,753	329,760	165,703
62,203	-2,773	329,562	165,567
63,217	-2,688	329,254	165,493
64,232	-2,697	329,068	165,374
65,247	-2,882	328,811	165,022
66,261	-2,695	328,320	164,972
67,276	-2,822	328,204	164,756
68,290	-2,744	327,917	164,684
69,305	-2,887	327,809	164,454
70,320	-2,672	327,399	164,476
71,334	-2,866	327,194	164,141
72,349	-2,710	327,031	164,219
73,363	-2,918	326,809	163,860
74,378	-2,700	326,411	163,890
75,393	-2,732	326,128	163,697
76,407	-2,722	325,984	163,621
77,422	-2,745	325,769	163,473
78,436	-2,604	325,364	163,412
79,451	-2,769	325,169	163,116
80,466	-2,734	324,844	162,978
81,480	-2,741	324,665	162,865
82,495	-3,006	324,504	162,476
83,509	-2,879	324,317	162,508
84,524	-2,734	323,822	162,407
85,539	-2,722	323,610	162,299
86,553	-2,856	323,385	162,023
87,568	-2,849	323,268	161,958
88,582	-2,836	322,986	161,817
89,597	-2,724	322,838	161,852
90,611	-2,772	322,568	161,649
91,626	-2,762	322,337	161,530
92,641	-2,737	322,122	161,435
93,655	-2,843	321,898	161,192
94,670	-2,772	321,716	161,165
95,684	-2,784	321,296	160,927
96,699	-2,864	321,180	160,766
97,714	-2,837	320,923	160,653
98,728	-2,845	320,651	160,493
99,743	-2,854	320,396	160,342
100,757	-2,855	320,175	160,215
101,772	-2,769	319,933	160,175
102,787	-2,887	319,744	159,937
103,801	-2,743	319,550	159,983
104,816	-2,685	319,189	159,851
105,830	-2,829	318,953	159,562
106,845	-2,613	318,713	159,663
107,860	-2,803	318,663	159,417
108,874	-2,665	318,303	159,372
109,889	-2,607	317,984	159,261
110,903	-2,587	317,763	159,158
111,918	-2,705	317,604	158,937
112,933	-2,764	317,310	158,711
113,947	-2,816	317,269	158,620
114,962	-2,881	316,922	158,362
115,976	-2,668	316,662	158,448
116,991	-2,776	316,599	158,286
118,006	-2,780	316,284	158,110
119,020	-2,748	316,125	158,050
120,035	-2,649	315,924	158,044
121,049	-2,876	315,816	157,731
122,064	-2,984	315,558	157,471
123,079	-2,713	315,213	157,577
124,093	-2,755	315,090	157,456
125,108	-2,765	314,783	157,278
126,122	-2,755	314,610	157,188
127,137	-2,959	314,512	156,907
128,151	-2,806	314,192	156,897
129,166	-2,745	313,940	156,822
130,181	-2,864	313,670	156,545
131,195	-2,685	313,471	156,624
132,210	-2,935	313,249	156,232
133,224	-2,716	313,040	156,348
134,239	-2,822	312,773	156,087
135,254	-2,777	312,570	156,020
136,268	-2,842	312,217	155,761
137,283	-2,886	312,099	155,641
138,297	-2,746	311,687	155,571
139,312	-2,896	311,495	155,302
140,327	-2,736	311,254	155,337
141,341	-2,742	311,265	155,322
142,356	-2,706	310,970	155,199
143,370	-2,770	310,776	155,021
144,385	-2,667	310,603	155,030
145,400	-2,558	310,291	154,976
146,414	-2,731	310,032	154,650
147,429	-2,620	309,683	154,579
148,443	-2,640	309,585	154,495
149,458	-2,754	309,413	154,275
150,473	-2,640	309,130	154,241
151,487	-2,801	309,025	154,005
152,502	-2,825	308,769	153,838
153,516	-2,698	308,633	153,890
154,531	-2,785	308,327	153,633
155,546	-2,726	308,117	153,576
156,560	-2,680	307,876	153,490
157,575	-2,719	307,695	153,345
158,589	-2,614	307,439	153,315
159,604	-2,594	307,202	153,203
160,619	-2,547	307,010	153,143
161,633	-2,577	306,670	152,929
162,648	-2,575	306,660	152,912
163,662	-2,633	306,291	152,654
164,677	-2,700	306,272	152,561
165,692	-2,615	306,012	152,506
166,706	-2,648	305,915	152,410
167,721	-2,666	305,600	152,221
168,735	-2,667	305,435	152,124
169,750	-2,662	305,259	152,029
170,764	-2,532	305,002	152,022
171,779	-2,509	304,933	151,997
172,794	-2,647	304,737	151,743
173,808	-2,641	304,574	151,654
174,823	-2,708	304,194	151,383
175,837	-2,825	303,890	151,097
176,852	-2,613	303,785	151,249
177,867	-2,671	303,657	151,113
178,881	-2,555	303,476	151,128
179,896	-2,618	303,197	150,911
180,910	-2,571	303,030	150,864
181,925	-2,728	302,748	150,548
182,940	-2,744	302,592	150,441
183,954	-2,699	302,432	150,394
184,969	-2,790	302,278	150,211
185,983	-2,672	302,142	150,251
186,998	-2,608	301,886	150,176
188,013	-2,599	301,614	150,037
189,027	-2,539	301,372	149,963
190,042	-2,597	301,125	149,768
191,056	-2,738	301,063	149,580
192,071	-2,719	300,688	149,399
193,086	-2,533	300,483	149,474
194,100	-2,618	300,362	149,314
195,115	-2,350	300,091	149,439
196,129	-2,480	299,854	149,175
197,144	-2,580	299,661	148,965
198,159	-2,458	299,421	148,955
199,173	-2,599	299,249	148,713
200,188	-2,630	299,118	148,604
201,202	-2,568	298,855	148,523
202,217	-2,624	298,638	148,345
203,232	-2,862	298,535	148,040
204,246	-2,673	298,213	148,058
205,261	-2,632	298,106	148,032
206,275	-2,645	297,885	147,897
207,290	-2,523	297,722	147,925
208,304	-2,706	297,622	147,678
209,319	-2,607	297,274	147,592
210,334	-2,456	296,908	147,549
211,348	-2,597	296,774	147,328
212,363	-2,503	296,729	147,387
213,377	-2,583	296,466	147,163
214,392	-2,462	296,203	147,140
215,407	-2,829	296,135	146,725
216,421	-2,581	295,931	146,859
217,436	-2,594	295,610	146,674
218,450	-2,793	295,593	146,454
219,465	-2,671	295,287	146,411
220,480	-2,502	295,176	146,511
221,494	-2,685	295,022	146,239
222,509	-2,425	294,641	146,297
223,523	-2,397	294,547	146,264
224,538	-2,677	294,420	145,911
225,553	-2,853	294,351	145,687
226,567	-2,632	293,941	145,692
227,582	-2,586	293,858	145,683
228,596	-2,546	293,586	145,575
229,611	-2,632	293,415	145,392
230,626	-2,516	293,187	145,380
231,640	-2,613	293,037	145,197
232,655	-2,565	292,757	145,093
233,669	-2,641	292,486	144,871
234,684	-2,671	292,369	144,770
235,699	-2,624	292,169	144,705
236,713	-2,671	292,045	144,584
237,728	-2,659	291,823	144,473
238,742	-2,469	291,594	144,534
239,757	-2,530	291,406	144,368
240,772	-2,633	291,263	144,182
241,786	-2,591	291,072	144,117
242,801	-2,665	290,891	143,942
243,815	-2,659	290,667	143,824
244,830	-2,573	290,533	143,829
245,844	-2,694	290,325	143,595
246,859	-2,772	290,146	143,417
247,874	-2,644	289,829	143,372
248,888	-2,729	289,715	143,221
249,903	-2,590	289,455	143,215
250,917	-2,386	289,333	143,341
251,932	-2,674	289,368	143,064
252,947	-2,675	289,099	142,917
253,961	-2,641	288,784	142,782
254,976	-2,272	288,813	143,143
255,990	-2,471	288,621	142,842
257,005	-2,511	288,414	142,687
258,020	-0,715	288,890	144,658
259,034	0,765	289,425	146,356
260,049	1,396	289,432	146,960
261,063	1,796	289,425	147,333
262,078	2,029	289,257	147,461
263,093	2,349	289,300	147,780
264,107	2,616	289,036	147,891
265,122	2,916	288,770	148,033
266,136	2,796	288,723	147,880
267,151	2,763	288,575	147,759
268,166	2,753	288,453	147,673
269,180	2,828	288,261	147,634
270,195	2,769	288,057	147,459
271,209	2,739	287,925	147,350
272,224	2,818	287,664	147,279
273,239	2,791	287,578	147,196
274,253	2,674	287,252	146,904
275,268	2,541	287,042	146,655
276,282	2,690	286,842	146,683
277,297	2,527	286,864	146,524
278,312	2,716	286,455	146,483
279,326	2,614	286,174	146,230
280,341	2,568	286,131	146,150
281,355	2,590	286,101	146,143
282,370	2,485	285,834	145,892
283,384	2,532	285,587	145,798
284,399	2,652	285,355	145,782
285,414	2,499	285,252	145,570
286,428	2,557	284,970	145,469
287,443	2,566	284,808	145,382
288,457	2,447	284,555	145,126
289,472	2,666	284,415	145,251
290,487	2,505	284,121	144,934
291,501	2,246	284,009	144,617
292,516	2,362	283,832	144,624
293,530	2,249	283,735	144,455
294,545	2,494	283,478	144,544
295,560	2,354	283,363	144,340
296,574	2,237	283,146	144,105
297,589	2,233	282,889	143,957
298,603	2,284	282,759	143,927
299,618	2,345	282,572	143,877
300,633	2,235	282,498	143,723
301,647	2,384	282,149	143,672
302,662	2,557	282,083	143,789
303,676	2,707	282,019	143,885
304,691	2,459	281,699	143,476
305,706	2,705	281,631	143,660
306,720	2,563	281,620	143,507
307,735	2,655	281,255	143,396
308,749	2,633	281,089	143,277
309,764	2,824	280,829	143,312
310,779	2,739	280,574	143,090
311,793	2,613	280,402	142,870
312,808	2,595	280,226	142,751
313,822	2,626	280,045	142,676
314,837	2,481	279,809	142,406
315,852	2,598	279,725	142,460
316,866	2,571	279,658	142,389
317,881	2,692	279,183	142,246
318,895	2,513	279,218	142,085
319,910	2,691	278,878	142,065
320,925	2,534	278,749	141,840
321,939	2,672	278,548	141,854
322,954	2,594	278,578	141,784
323,968	2,818	278,343	141,860
324,983	2,702	278,117	141,624
325,997	2,685	277,913	141,492
327,012	2,846	277,750	141,546
328,027	2,987	277,587	141,580
329,041	2,801	277,454	141,328
330,056	2,882	277,194	141,258
331,070	2,823	277,005	141,094
332,085	2,918	276,907	141,120
333,100	2,732	276,872	140,917
334,114	2,682	276,606	140,724
335,129	2,798	276,176	140,599
336,143	2,839	276,167	140,620
337,158	2,768	275,927	140,419
338,173	2,946	275,715	140,463
339,187	2,732	275,703	140,247
340,202	2,808	275,491	140,197
341,216	2,565	275,294	139,862
342,231	2,711	275,101	139,885
343,246	2,658	275,010	139,777
344,260	2,805	274,871	139,829
345,275	2,915	274,717	139,839
346,289	2,799	274,331	139,524
347,304	2,731	274,286	139,426
348,319	2,907	273,947	139,403
349,333	2,674	273,938	139,173
350,348	2,785	273,679	139,130
351,362	2,650	273,576	138,942
352,377	2,774	273,457	138,982
353,392	2,725	273,379	138,886
354,406	2,570	273,100	138,590
355,421	191,710	1351,223	1432,257
356,435	154,786	1482,681	1432,394
