DTS Sentinel unit serial number:	SN410029Multiplexer serial number:	ORYXHardware model number:	OX2-SRSoftware version number:	ORYX F/W v4,00 Oryx Data Collector v3.7.2.0data status	okinstallation	B4 Nyhavnadifferential loss correction	single-endedforward channel	channel 2reverse channel	N/Adate	2023/12/19time	06:40:13forward acquisition time	300,00reverse acquisition time	0,00gamma	499,1914k internal	0,3126k external	0,3126temperature offset calibration	1,0000default loss term (dB/km)	0,3820temperature slope calibration	1,0000multiplexer offset coefficient	1,0000multiplexer slope coefficient	1,0000fibre end	0,00T internal ref (°C)	21,19T ext. ref 1 (°C)	6,53T ext. ref 2 (°C)	6,68length (m)	temperature (°C)	Stokes	anti-Stokes-744,400	-200,000	-0,045	-0,149
-743,385	89,535	-0,155	0,128
-742,371	-56,324	0,070	0,023
-741,356	509,141	-0,081	0,140
-740,342	213,011	-0,056	0,066
-739,327	-28,843	-0,190	0,081
-738,312	-200,000	0,004	-0,021
-737,298	-12,695	-0,278	0,135
-736,283	-200,000	0,026	-0,111
-735,269	120,196	-0,135	0,125
-734,254	4,361	-0,100	-0,054
-733,239	-164,151	-0,389	0,013
-732,225	-118,695	0,091	0,012
-731,210	-31,167	-0,086	0,036
-730,196	12,875	-0,065	-0,037
-729,181	557,007	-0,041	-0,074
-728,167	-119,198	0,127	-0,016
-727,152	-27,125	0,101	-0,044
-726,137	-200,000	0,007	-0,043
-725,123	-0,875	-0,134	-0,071
-724,108	-200,000	-0,004	0,022
-723,094	-200,000	0,018	-0,077
-722,079	8,394	-0,124	-0,069
-721,064	-88,020	0,085	-0,019
-720,050	635,774	-0,028	-0,054
-719,035	670,619	-0,027	0,053
-718,021	-200,000	-0,035	-0,151
-717,006	800,000	0,037	-0,111
-715,991	800,000	-0,031	-0,079
-714,977	69,172	-0,068	-0,052
-713,962	749,759	-0,033	0,066
-712,948	629,661	-0,072	0,137
-711,933	102,777	-0,056	0,049
-710,918	-200,000	-0,003	0,095
-709,904	-200,000	0,006	-0,120
-708,889	762,436	-0,074	-0,150
-707,875	-87,915	-0,110	-0,024
-706,860	26,101	-0,028	0,017
-705,845	-83,722	0,033	0,008
-704,831	192,125	0,071	-0,080
-703,816	338,324	-0,055	-0,080
-702,802	83,866	-0,049	-0,040
-701,787	79,382	-0,052	-0,042
-700,772	-65,761	-0,097	-0,029
-699,758	-11,694	-0,109	-0,053
-698,743	-171,834	0,129	0,003
-697,729	360,651	0,026	-0,039
-696,714	36,100	0,085	-0,055
-695,699	800,000	0,026	-0,071
-694,685	-42,662	-0,054	-0,020
-693,670	-200,000	-0,016	-0,095
-692,656	84,633	-0,070	0,057
-691,641	-200,000	0,007	-0,119
-690,627	-50,023	0,005	0,002
-689,612	85,979	0,026	0,021
-688,597	800,000	0,033	0,084
-687,583	-42,314	0,022	-0,008
-686,568	392,902	-0,054	0,084
-685,554	395,133	-0,064	0,099
-684,539	101,100	0,145	-0,125
-683,524	123,137	-0,130	0,121
-682,510	-200,000	0,027	0,101
-681,495	800,000	-0,061	-0,154
-680,481	-200,000	0,007	-0,037
-679,466	-50,997	-0,101	-0,035
-678,451	-141,622	0,099	-0,007
-677,437	-200,000	0,002	-0,074
-676,422	315,155	-0,073	-0,103
-675,408	-200,000	0,024	0,134
-674,393	-35,500	0,117	0,047
-673,378	335,410	0,094	-0,135
-672,364	-64,651	-0,101	-0,030
-671,349	800,000	-0,039	-0,089
-670,335	-94,913	0,098	-0,020
-669,320	93,488	-0,064	-0,054
-668,305	511,462	-0,031	-0,053
-667,291	6,118	-0,144	0,079
-666,276	-79,543	0,097	0,024
-665,262	-71,113	-0,085	-0,024
-664,247	-200,000	-0,032	-0,216
-663,232	-22,552	0,043	0,019
-662,218	-16,035	0,058	0,027
-661,203	-200,000	-0,003	-0,070
-660,189	-88,923	0,121	0,026
-659,174	467,612	-0,022	-0,036
-658,159	110,229	-0,151	-0,134
-657,145	-200,000	-0,003	0,017
-656,130	-69,845	0,027	0,008
-655,116	800,000	0,014	-0,039
-654,101	-200,000	0,027	0,164
-653,086	-116,963	-0,090	-0,012
-652,072	800,000	-0,027	-0,079
-651,057	-200,000	-0,014	-0,098
-650,043	-200,000	-0,020	0,000
-649,028	509,766	0,038	-0,066
-648,014	-200,000	-0,005	0,026
-646,999	-101,981	-0,037	-0,006
-645,984	-132,805	-0,176	0,016
-644,970	-33,458	0,125	-0,051
-643,955	-171,858	-0,080	-0,002
-642,941	-47,231	-0,173	-0,062
-641,926	675,235	0,097	-0,188
-640,911	364,333	0,023	0,035
-639,897	478,187	0,032	-0,054
-638,882	35,188	0,108	-0,070
-637,868	-200,000	-0,004	-0,067
-636,853	65,677	-0,031	-0,023
-635,838	-96,795	-0,064	0,012
-634,824	-28,807	0,051	0,022
-633,809	-44,216	-0,088	0,033
-632,795	-26,689	0,052	0,022
-631,780	60,028	-0,033	0,024
-630,765	-51,100	0,193	0,067
-629,751	800,000	-0,021	-0,068
-628,736	-200,000	-0,047	-0,165
-627,722	-200,000	-0,026	-0,162
-626,707	132,947	0,032	0,030
-625,692	278,525	0,090	0,119
-624,678	12,842	-0,072	0,041
-623,663	132,145	0,097	0,092
-622,649	-200,000	-0,002	0,158
-621,634	158,072	0,038	-0,039
-620,619	800,000	-0,008	0,017
-619,605	800,000	0,043	0,102
-618,590	800,000	0,077	0,161
-617,576	148,925	0,106	0,107
-616,561	-32,559	-0,152	0,063
-615,546	-200,000	0,005	-0,039
-614,532	-18,801	-0,113	-0,052
-613,517	-57,878	-0,020	-0,006
-612,503	220,449	-0,020	-0,023
-611,488	138,403	0,028	-0,027
-610,474	339,422	0,033	0,047
-609,459	-4,528	0,011	0,006
-608,444	-200,000	0,015	-0,077
-607,430	28,533	-0,076	0,048
-606,415	-200,000	-0,011	0,090
-605,401	659,890	-0,016	0,030
-604,386	800,000	-0,034	-0,104
-603,371	-18,286	0,079	-0,036
-602,357	613,698	-0,042	0,078
-601,342	140,131	0,090	-0,088
-600,328	241,569	-0,057	-0,071
-599,313	-12,114	0,048	0,023
-598,298	-93,085	0,048	-0,010
-597,284	-7,054	0,037	-0,019
-596,269	-145,132	0,047	0,003
-595,255	58,430	-0,138	-0,100
-594,240	48,040	0,052	0,036
-593,225	-106,439	-0,099	-0,016
-592,211	-46,990	-0,094	-0,034
-591,196	800,000	0,025	0,065
-590,182	38,390	0,039	0,026
-589,167	-200,000	-0,011	0,132
-588,152	800,000	-0,028	0,067
-587,138	429,210	-0,074	0,119
-586,123	197,553	-0,076	-0,086
-585,109	-18,834	-0,040	0,019
-584,094	-81,842	-0,092	-0,022
-583,079	-151,258	-0,102	-0,006
-582,065	800,000	0,019	0,049
-581,050	800,000	-0,018	0,047
-580,036	-86,632	0,100	0,023
-579,021	60,445	-0,130	-0,095
-578,006	8,435	-0,020	0,011
-576,992	515,389	-0,013	-0,023
-575,977	-200,000	-0,019	-0,108
-574,963	-200,000	-0,017	0,091
-573,948	101,945	-0,127	-0,110
-572,934	709,454	-0,044	-0,086
-571,919	-69,608	-0,158	-0,044
-570,904	-200,000	-0,000	-0,169
-569,890	-200,000	-0,014	-0,121
-568,875	402,679	0,069	-0,108
-567,861	-200,000	0,008	0,105
-566,846	-200,000	-0,013	0,078
-565,831	-53,663	-0,050	-0,017
-564,817	-200,000	0,000	-0,024
-563,802	197,399	-0,042	-0,047
-562,788	104,299	0,037	-0,032
-561,773	40,830	0,128	-0,085
-560,758	-200,000	-0,008	0,179
-559,744	800,000	0,023	0,060
-558,729	-98,621	-0,018	-0,003
-557,715	125,165	-0,053	-0,050
-556,700	197,449	-0,224	-0,254
-555,685	-200,000	0,013	0,058
-554,671	408,831	-0,059	-0,093
-553,656	-200,000	0,003	0,038
-552,642	-200,000	-0,007	-0,103
-551,627	-200,000	-0,010	0,081
-550,612	-200,000	-0,008	-0,096
-549,598	-75,025	-0,097	-0,025
-548,583	-85,305	0,079	0,018
-547,569	544,044	-0,036	0,065
-546,554	152,348	0,133	0,134
-545,539	379,092	-0,074	0,112
-544,525	207,171	-0,072	0,083
-543,510	-127,541	0,114	-0,012
-542,496	-71,772	-0,127	-0,035
-541,481	-127,241	-0,123	-0,013
-540,466	91,563	-0,073	0,061
-539,452	800,000	-0,032	0,078
-538,437	55,834	-0,074	0,053
-537,423	241,821	0,070	-0,087
-536,408	800,000	0,041	-0,107
-535,393	-7,494	-0,101	-0,050
-534,379	72,578	0,112	-0,086
-533,364	18,240	-0,140	-0,082
-532,350	-200,000	0,003	-0,019
-531,335	17,519	0,099	0,058
-530,321	80,496	0,044	-0,035
-529,306	-200,000	0,025	-0,089
-528,291	-200,000	0,004	0,098
-527,277	284,698	0,029	-0,039
-526,262	-14,545	0,121	-0,057
-525,248	800,000	-0,016	0,042
-524,233	800,000	0,078	0,167
-523,218	51,291	0,129	-0,090
-522,204	800,000	0,047	0,118
-521,189	21,443	-0,150	-0,090
-520,175	-103,152	0,056	0,010
-519,160	74,253	0,080	-0,062
-518,145	-107,067	0,040	-0,006
-517,131	-200,000	0,014	-0,050
-516,116	-200,000	-0,002	-0,077
-515,102	-200,000	-0,011	-0,103
-514,087	-150,314	-0,019	-0,001
-513,072	-200,000	-0,007	0,103
-512,058	-200,000	0,004	0,018
-511,043	290,439	0,087	-0,117
-510,029	76,642	-0,030	-0,023
-509,014	422,508	-0,060	0,096
-507,999	-200,000	-0,017	0,092
-506,985	-114,960	0,064	0,009
-505,970	108,990	-0,065	-0,057
-504,956	800,000	-0,035	-0,113
-503,941	-170,394	0,148	-0,004
-502,926	-82,785	0,076	0,018
-501,912	-124,889	0,159	0,018
-500,897	-50,414	-0,092	0,032
-499,883	-57,289	-0,104	0,033
-498,868	74,943	-0,087	0,067
-497,853	800,000	0,052	0,156
-496,839	-200,000	-0,026	-0,124
-495,824	36,669	-0,034	0,022
-494,810	-71,558	0,069	-0,019
-493,795	-35,924	-0,054	-0,021
-492,781	-82,271	0,113	0,027
-491,766	294,969	-0,045	-0,061
-490,751	-129,263	-0,048	0,005
-489,737	800,000	-0,041	-0,104
-488,722	31,643	0,090	0,057
-487,708	-51,187	-0,095	-0,032
-486,693	-58,431	0,165	0,052
-485,678	162,156	0,126	0,130
-484,664	-200,000	0,007	0,061
-483,649	-200,000	0,028	-0,098
-482,635	-112,172	-0,120	0,018
-481,620	41,746	0,105	-0,070
-480,605	-200,000	-0,014	-0,135
-479,591	-64,591	-0,093	-0,028
-478,576	580,458	-0,036	-0,065
-477,562	250,623	0,041	0,051
-476,547	316,140	-0,070	-0,098
-475,532	-200,000	0,000	-0,110
-474,518	-200,000	-0,010	-0,039
-473,503	-153,191	0,161	-0,008
-472,489	157,524	0,034	0,034
-471,474	596,336	0,027	-0,050
-470,459	-200,000	-0,046	-0,157
-469,445	-76,298	0,123	0,032
-468,430	95,309	-0,073	0,061
-467,416	303,204	0,052	0,071
-466,401	-200,000	0,016	0,061
-465,386	-32,880	0,134	0,055
-464,372	15,067	-0,038	-0,022
-463,357	-34,695	-0,075	0,030
-462,343	-200,000	0,005	-0,078
-461,328	6,709	-0,097	-0,053
-460,313	-57,675	0,078	0,025
-459,299	-26,391	-0,015	0,007
-458,284	40,153	0,080	-0,053
-457,270	-200,000	-0,019	0,099
-456,255	-46,915	-0,154	0,055
-455,241	17,632	-0,064	-0,037
-454,226	123,853	-0,150	-0,138
-453,211	-200,000	0,019	0,068
-452,197	89,709	-0,045	0,037
-451,182	-200,000	0,001	-0,019
-450,168	800,000	0,034	0,078
-449,153	-200,000	-0,003	-0,126
-448,138	-140,571	0,056	-0,004
-447,124	506,818	-0,014	0,024
-446,109	-11,785	-0,074	0,036
-445,095	422,217	0,038	0,060
-444,080	-2,486	0,111	0,057
-443,065	-13,490	-0,175	-0,083
-442,051	62,381	0,173	-0,127
-441,036	72,292	-0,097	-0,074
-440,022	-200,000	-0,007	-0,048
-439,007	800,000	-0,036	-0,104
-437,992	-200,000	0,007	0,087
-436,978	800,000	0,038	-0,099
-435,963	333,819	-0,031	-0,044
-434,949	84,835	-0,081	-0,065
-433,934	800,000	-0,044	0,132
-432,919	-11,415	0,111	-0,054
-431,905	629,834	-0,046	-0,086
-430,890	-200,000	-0,041	-0,184
-429,876	-133,207	0,157	-0,014
-428,861	221,639	0,116	0,137
-427,846	97,721	0,067	-0,057
-426,832	-40,326	-0,090	-0,034
-425,817	-200,000	0,009	-0,095
-424,803	-74,209	-0,064	-0,017
-423,788	800,000	0,018	0,048
-422,773	-152,281	0,144	-0,008
-421,759	800,000	0,017	0,043
-420,744	-143,638	-0,039	-0,003
-419,730	675,831	-0,025	-0,049
-418,715	-200,000	0,002	0,030
-417,701	-118,193	-0,077	-0,010
-416,686	318,097	0,106	0,147
-415,671	-200,000	0,001	-0,055
-414,657	-200,000	-0,017	-0,153
-413,642	67,446	0,033	0,025
-412,628	-200,000	0,004	0,064
-411,613	92,459	0,103	-0,085
-410,598	281,578	-0,057	-0,075
-409,584	38,292	0,033	0,021
-408,569	182,483	0,057	-0,062
-407,555	361,525	0,097	0,143
-406,540	-200,000	0,019	0,074
-405,525	297,962	-0,054	0,072
-404,511	-75,280	-0,115	0,030
-403,496	436,644	0,051	0,082
-402,482	-99,839	-0,131	-0,024
-401,467	-97,754	0,083	-0,016
-400,452	-200,000	0,002	0,030
-399,438	-96,464	-0,123	0,024
-398,423	-88,518	-0,071	-0,016
-397,409	349,419	0,028	-0,041
-396,394	-200,000	-0,006	0,073
-395,379	-26,824	0,051	0,022
-394,365	-200,000	0,002	0,135
-393,350	245,956	0,092	0,114
-392,336	-135,384	0,137	-0,012
-391,321	-84,708	-0,160	-0,037
-390,306	-130,600	-0,085	0,008
-389,292	-111,982	-0,082	0,012
-388,277	-129,300	-0,100	0,010
-387,263	-27,897	0,027	0,011
-386,248	752,842	0,033	0,065
-385,233	171,143	-0,031	0,032
-384,219	-200,000	-0,007	-0,057
-383,204	800,000	0,058	-0,141
-382,190	22,214	-0,103	-0,062
-381,175	800,000	-0,012	0,034
-380,160	461,128	0,016	-0,026
-379,146	-39,828	0,070	0,027
-378,131	75,749	0,080	0,062
-377,117	135,909	-0,046	0,044
-376,102	553,017	-0,051	-0,090
-375,088	-200,000	-0,036	-0,161
-374,073	377,369	0,161	0,242
-373,058	522,061	-0,019	0,033
-372,044	-200,000	-0,000	0,136
-371,029	-65,273	0,057	0,017
-370,015	-200,000	-0,001	-0,026
-369,000	155,317	0,036	-0,037
-367,985	-200,000	-0,009	-0,088
-366,971	112,654	0,115	-0,102
-365,956	-101,617	-0,027	0,005
-364,942	21,060	0,077	-0,046
-363,927	685,827	-0,015	0,029
-362,912	584,707	-0,043	0,078
-361,898	-200,000	-0,001	-0,103
-360,883	800,000	-0,095	-0,239
-359,869	745,373	0,025	-0,050
-358,854	795,346	-0,039	0,079
-357,839	-82,148	0,128	0,030
-356,825	-127,371	0,134	0,014
-355,810	-99,246	0,022	-0,004
-354,796	-200,000	0,003	-0,029
-353,781	195,504	-0,119	-0,133
-352,766	383,016	-0,034	-0,052
-351,752	-77,776	-0,108	-0,027
-350,737	800,000	-0,051	0,117
-349,723	-81,274	0,205	0,049
-348,708	519,403	0,011	0,019
-347,693	370,580	0,064	-0,095
-346,679	-108,274	-0,021	-0,003
-345,664	-104,997	-0,174	-0,029
-344,650	800,000	0,019	0,060
-343,635	15,220	-0,136	-0,078
-342,620	-31,179	0,097	0,040
-341,606	-36,583	-0,062	0,024
-340,591	198,388	-0,128	-0,143
-339,577	-200,000	0,018	-0,095
-338,562	364,105	-0,045	-0,066
-337,548	109,427	0,010	0,009
-336,533	-200,000	0,041	-0,155
-335,518	358,248	-0,055	-0,080
-334,504	800,000	0,024	0,059
-333,489	-200,000	0,042	0,155
-332,475	800,000	0,047	0,136
-331,460	205,032	0,066	0,076
-330,445	438,635	-0,078	0,124
-329,431	24,628	-0,033	0,020
-328,416	146,294	0,064	0,063
-327,402	-200,000	0,031	0,176
-326,387	-200,000	0,012	-0,092
-325,372	800,000	0,017	-0,036
-324,358	-103,283	-0,093	-0,016
-323,343	800,000	0,042	-0,092
-322,329	-7,425	-0,128	0,063
-321,314	-200,000	-0,001	0,022
-320,299	-152,244	0,050	-0,003
-319,285	-56,096	0,011	-0,004
-318,270	800,000	0,014	0,028
-317,256	-29,027	0,019	0,008
-316,241	-200,000	-0,023	0,080
-315,226	14,581	0,035	0,020
-314,212	800,000	-0,034	0,079
-313,197	28,939	0,130	0,080
-312,183	216,544	0,066	0,078
-311,168	-69,043	0,117	0,033
-310,153	-29,127	-0,072	-0,030
-309,139	-128,595	-0,076	0,008
-308,124	-36,040	-0,153	0,060
-307,110	37,326	0,123	0,080
-306,095	39,226	0,149	0,098
-305,080	261,342	0,097	-0,124
-304,066	201,190	-0,058	-0,065
-303,051	-200,000	-0,010	-0,048
-302,037	-200,000	0,041	0,193
-301,022	-112,061	0,074	-0,011
-300,008	474,427	0,048	0,079
-298,993	-182,336	-0,084	0,001
-297,978	110,422	-0,064	0,056
-296,964	469,447	0,035	-0,058
-295,949	261,434	0,011	-0,013
-294,935	224,378	-0,096	0,114
-293,920	47,568	-0,039	0,026
-292,905	-200,000	0,001	-0,019
-291,891	-76,227	-0,130	0,033
-290,876	800,000	0,040	0,083
-289,862	800,000	-0,025	-0,060
-288,847	-200,000	0,005	-0,077
-287,832	-200,000	-0,005	-0,017
-286,818	77,614	0,051	-0,040
-285,803	800,000	-0,031	-0,072
-284,789	-61,610	0,038	0,011
-283,774	-111,938	0,166	-0,024
-282,759	267,470	-0,078	0,100
-281,745	53,787	-0,088	0,062
-280,730	-85,278	-0,076	-0,017
-279,716	32,185	-0,021	0,013
-278,701	203,275	-0,006	-0,007
-277,686	-90,591	0,140	0,029
-276,672	198,858	0,099	0,111
-275,657	718,799	0,063	0,122
-274,643	-152,187	-0,017	0,001
-273,628	49,893	-0,024	0,017
-272,613	171,722	0,069	0,073
-271,599	-200,000	0,000	0,026
-270,584	-200,000	-0,037	0,118
-269,570	304,913	0,042	0,057
-268,555	-46,530	0,051	-0,018
-267,540	-48,170	-0,156	0,055
-266,526	-200,000	-0,017	-0,076
-265,511	-200,000	-0,040	-0,163
-264,497	-200,000	0,008	0,063
-263,482	-50,008	0,137	-0,047
-262,467	-200,000	0,030	0,173
-261,453	-200,000	0,012	0,169
-260,438	74,717	0,048	-0,037
-259,424	-10,921	0,072	0,035
-258,409	800,000	0,021	-0,045
-257,395	-90,439	0,123	-0,026
-256,380	-91,206	-0,018	0,004
-255,365	-200,000	-0,010	0,111
-254,351	210,425	0,053	0,061
-253,336	-200,000	-0,002	0,025
-252,322	585,516	0,037	-0,067
-251,307	95,610	0,032	0,027
-250,292	-114,088	0,082	-0,012
-249,278	-97,698	0,157	-0,029
-248,263	-200,000	0,003	0,047
-247,249	-200,000	0,012	0,173
-246,234	800,000	-0,030	0,064
-245,219	800,000	-0,046	0,114
-244,205	246,242	-0,050	0,062
-243,190	107,838	0,045	0,039
-242,176	211,351	-0,063	-0,072
-241,161	-14,269	0,015	0,007
-240,146	0,725	-0,129	-0,067
-239,132	-24,973	-0,084	0,036
-238,117	24,732	0,139	0,084
-237,103	189,166	-0,045	-0,049
-236,088	-200,000	-0,007	-0,027
-235,073	-200,000	0,012	0,045
-234,059	111,511	-0,076	0,067
-233,044	-200,000	-0,015	-0,121
-232,030	-200,000	-0,007	0,117
-231,015	707,890	0,038	0,074
-230,000	253,357	0,059	-0,074
-228,986	232,114	0,103	-0,124
-227,971	359,057	-0,060	-0,087
-226,957	-89,842	-0,092	0,019
-225,942	-94,386	0,121	-0,024
-224,927	-53,420	-0,022	0,007
-223,913	-22,955	-0,160	0,070
-222,898	-200,000	-0,004	0,091
-221,884	75,321	0,065	-0,050
-220,869	-18,360	-0,126	0,057
-219,855	284,813	-0,027	0,035
-218,840	-95,338	0,079	-0,015
-217,825	-81,843	-0,043	-0,010
-216,811	-58,226	0,103	0,033
-215,796	-75,577	-0,044	0,011
-214,782	110,215	0,177	-0,155
-213,767	492,302	0,057	0,096
-212,752	-200,000	-0,011	-0,042
-211,738	110,935	0,119	0,104
-210,723	174,810	0,016	-0,017
-209,709	191,330	0,066	-0,073
-208,694	-200,000	-0,027	-0,126
-207,679	-55,467	-0,066	0,022
-206,665	-60,415	0,123	-0,038
-205,650	131,690	0,032	0,030
-204,636	800,000	0,009	-0,025
-203,621	800,000	0,053	-0,119
-202,606	800,000	-0,034	0,089
-201,592	-14,804	-0,031	0,015
-200,577	366,983	-0,080	-0,118
-199,563	-160,177	-0,032	-0,001
-198,548	-200,000	0,007	-0,050
-197,533	800,000	0,046	0,137
-196,519	653,051	0,032	0,059
-195,504	-95,632	-0,116	0,022
-194,490	3,315	-0,100	-0,053
-193,475	515,364	-0,040	-0,068
-192,460	-28,350	0,060	-0,025
-191,446	21,179	-0,038	0,022
-190,431	80,854	0,055	-0,043
-189,417	-200,000	0,003	0,068
-188,402	391,862	-0,095	0,145
-187,387	-66,600	-0,140	0,040
-186,373	225,770	0,022	-0,026
-185,358	-200,000	0,028	-0,185
-184,344	152,008	0,105	0,104
-183,329	-132,210	0,044	0,004
-182,315	374,508	0,061	-0,091
-181,300	375,489	0,047	-0,070
-180,285	-10,751	-0,114	-0,055
-179,271	111,721	0,040	-0,035
-178,256	-200,000	-0,001	-0,098
-177,242	800,000	-0,057	-0,172
-176,227	371,587	0,039	0,058
-175,212	-81,933	-0,144	0,034
-174,198	-91,942	-0,081	0,017
-173,183	-50,091	0,027	-0,009
-172,169	-15,556	0,137	0,063
-171,154	-150,713	-0,021	-0,001
-170,139	-15,038	0,116	-0,054
-169,125	575,306	-0,016	0,029
-168,110	442,990	-0,025	0,040
-167,096	297,524	0,052	0,070
-166,081	227,017	-0,092	0,110
-165,066	-139,410	-0,108	-0,008
-164,052	558,231	-0,043	-0,076
-163,037	376,546	-0,077	0,115
-162,023	800,000	0,014	0,038
-161,008	-129,686	-0,148	-0,015
-159,993	-200,000	-0,023	-0,097
-158,979	-111,802	0,191	0,028
-157,964	-71,460	-0,109	0,029
-156,950	77,006	0,028	0,022
-155,935	-22,437	-0,119	-0,052
-154,920	779,617	0,029	0,058
-153,906	-62,666	-0,030	-0,009
-152,891	431,958	0,087	-0,138
-151,877	-35,553	0,081	0,032
-150,862	-45,632	-0,050	0,018
-149,847	-200,000	0,025	-0,168
-148,833	376,969	0,056	-0,084
-147,818	-200,000	-0,042	0,140
-146,804	-200,000	-0,001	0,048
-145,789	463,060	-0,063	0,102
-144,775	-34,508	-0,097	-0,039
-143,760	800,000	-0,054	-0,126
-142,745	-69,655	0,057	0,016
-141,731	595,092	-0,080	-0,145
-140,716	-54,361	-0,076	0,025
-139,702	-200,000	-0,013	0,064
-138,687	524,414	-0,068	0,118
-137,672	-200,000	0,002	-0,024
-136,658	-200,000	-0,045	-0,161
-135,643	800,000	-0,048	-0,136
-134,629	-198,483	-0,063	0,000
-133,614	-29,870	0,069	0,028
-132,599	-66,345	-0,018	0,005
-131,585	7,774	-0,110	-0,060
-130,570	111,121	0,039	0,034
-129,556	-127,413	-0,083	0,009
-128,541	153,949	0,087	-0,087
-127,526	56,413	0,108	0,076
-126,512	800,000	0,046	-0,113
-125,497	315,551	0,047	0,065
-124,483	-101,771	0,120	-0,021
-123,468	84,877	0,101	0,081
-122,453	98,232	-0,047	-0,040
-121,439	620,692	0,058	-0,107
-120,424	18,346	0,098	-0,057
-119,410	-200,000	-0,003	0,051
-118,395	-200,000	0,007	-0,125
-117,380	192,300	0,041	0,045
-116,366	-200,000	-0,010	-0,080
-115,351	121,466	-0,046	0,042
-114,337	-200,000	0,030	0,103
-113,322	-200,000	0,009	-0,040
-112,307	-200,000	-0,007	0,108
-111,293	179,275	-0,048	0,051
-110,278	-36,245	0,037	-0,014
-109,264	-28,964	-0,086	0,036
-108,249	0,230	-0,153	-0,079
-107,234	-91,473	0,037	0,008
-106,220	-138,131	0,077	0,006
-105,205	-30,552	0,030	-0,012
-104,191	-200,000	0,011	-0,107
-103,176	73,413	-0,069	0,052
-102,162	731,112	0,061	0,120
-101,147	-63,967	-0,106	-0,031
-100,132	321,466	0,006	-0,009
-99,118	235,482	-0,060	0,072
-98,103	-200,000	0,011	-0,100
-97,089	-20,390	-0,013	0,006
-96,074	-200,000	0,016	0,080
-95,059	-16,693	-0,024	-0,011
-94,045	7,971	-0,101	0,055
-93,030	272,167	-0,073	0,094
-92,016	-177,353	0,132	0,002
-91,001	-200,000	-0,003	-0,154
-89,986	-94,275	0,197	0,039
-88,972	554,338	0,056	0,098
-87,957	-200,000	-0,000	-0,027
-86,943	800,000	0,053	-0,160
-85,928	-151,259	-0,136	0,007
-84,913	112,231	0,073	-0,064
-83,899	-77,048	0,035	0,009
-82,884	-200,000	0,004	0,023
-81,870	248,160	-0,051	-0,063
-80,855	-180,105	-0,007	0,000
-79,840	800,000	0,031	-0,062
-78,826	746,982	-0,060	0,119
-77,811	-167,206	0,133	0,004
-76,797	800,000	0,028	0,082
-75,782	-200,000	0,036	-0,164
-74,767	-200,000	-0,001	0,068
-73,753	-87,875	0,080	0,017
-72,738	800,000	-0,036	-0,073
-71,724	396,205	-0,075	0,113
-70,709	-88,008	0,049	0,011
-69,694	-200,000	0,006	-0,037
-68,680	-4,117	0,033	0,017
-67,665	64,716	-0,145	-0,106
-66,651	800,000	-0,025	0,052
-65,636	-31,467	-0,061	-0,025
-64,622	-35,418	-0,108	0,043
-63,607	-91,939	0,064	0,013
-62,592	-200,000	0,012	-0,112
-61,578	-200,000	0,002	0,126
-60,563	-153,566	0,114	-0,006
-59,549	730,354	0,103	0,201
-58,534	-105,675	-1,448	-0,235
-57,519	535,231	-0,814	-1,405
-56,505	-200,000	-0,793	-4,503
-55,490	-84,182	0,631	-0,144
-54,476	800,000	4,965	11,696
-53,461	-200,000	14,438	260,897
-52,446	-200,000	696,221	2276,233
-51,432	601,739	1622,934	2935,620
-50,417	117,743	1631,473	1455,937
-49,403	75,229	1284,998	981,216
-48,388	37,216	1022,357	654,983
-47,373	23,326	981,541	583,167
-46,359	22,594	970,678	574,293
-45,344	21,417	966,382	567,884
-44,330	21,398	964,920	566,941
-43,315	21,254	963,607	565,678
-42,300	21,249	962,382	564,919
-41,286	21,237	961,398	564,280
-40,271	21,263	960,376	563,744
-39,257	21,254	959,580	563,223
-38,242	21,231	958,567	562,534
-37,227	21,186	957,852	561,944
-36,213	21,182	956,799	561,291
-35,198	21,095	956,010	560,526
-34,184	21,202	955,127	560,331
-33,169	21,197	954,298	559,808
-32,154	21,253	953,429	559,456
-31,140	21,254	952,638	558,972
-30,125	21,241	951,829	558,432
-29,111	21,181	951,175	557,837
-28,096	21,190	950,497	557,444
-27,082	21,209	949,780	557,062
-26,067	21,240	948,896	556,620
-25,052	21,217	948,124	556,072
-24,038	21,287	947,306	555,795
-23,023	21,210	946,911	555,296
-22,009	21,239	946,305	555,010
-20,994	21,315	945,573	554,801
-19,979	21,260	944,998	554,266
-18,965	21,220	944,324	553,721
-17,950	21,214	943,703	553,315
-16,936	21,179	943,219	552,901
-15,921	21,180	942,313	552,350
-14,906	21,093	941,667	551,672
-13,892	21,111	940,936	551,278
-12,877	21,107	940,466	550,969
-11,863	21,094	939,643	550,424
-10,848	21,111	939,219	550,207
-9,833	21,177	938,766	550,130
-8,819	21,212	938,091	549,822
-7,804	21,100	937,612	549,167
-6,790	21,137	936,955	548,877
-5,775	21,148	936,359	548,540
-4,760	21,090	935,888	548,059
-3,746	21,069	935,126	547,525
-2,731	20,972	934,559	546,865
-1,717	20,870	933,592	545,957
-0,702	20,932	933,097	545,840
0,313	20,712	932,356	545,538
1,327	23,315	929,913	552,234
2,342	31,049	807,122	500,234
3,356	25,690	508,282	305,858
4,371	1,229	374,440	194,127
5,386	-1,633	357,269	181,690
6,400	-2,977	351,227	176,974
7,415	-3,637	348,503	174,795
8,429	-3,785	347,071	173,883
9,444	-3,881	346,166	173,300
10,459	-3,783	345,371	173,003
11,473	-3,651	344,834	172,875
12,488	-3,810	344,314	172,410
13,502	-3,782	343,656	172,099
14,517	-3,711	343,117	171,898
15,531	-3,829	342,825	171,597
16,546	-3,716	342,262	171,432
17,561	-3,722	341,951	171,254
18,575	-3,681	341,466	171,045
19,590	-3,671	341,124	170,870
20,604	-3,647	340,670	170,656
21,619	-3,690	340,362	170,436
22,634	-3,779	340,094	170,182
23,648	-3,664	339,526	170,017
24,663	-3,791	339,215	169,698
25,677	-3,687	338,984	169,688
26,692	-3,805	338,827	169,457
27,707	-3,841	338,493	169,233
28,721	-3,638	338,112	169,264
29,736	-3,667	337,836	169,077
30,750	-3,790	337,601	168,801
31,765	-3,720	337,371	168,753
32,780	-3,802	337,220	168,567
33,794	-3,855	336,768	168,264
34,809	-3,643	336,394	168,308
35,823	-3,805	336,188	168,002
36,838	-3,798	335,795	167,799
37,853	-3,724	335,634	167,789
38,867	-3,791	335,313	167,536
39,882	-3,648	334,942	167,501
40,896	-3,727	334,697	167,272
41,911	-3,687	334,440	167,175
42,926	-3,730	334,304	167,042
43,940	-3,742	333,889	166,807
44,955	-3,815	333,595	166,561
45,969	-3,810	333,380	166,445
46,984	-3,740	333,187	166,413
47,999	-3,707	333,010	166,348
49,013	-3,686	332,703	166,204
50,028	-3,632	332,470	166,134
51,042	-3,657	332,171	165,942
52,057	-3,775	332,002	165,707
53,071	-3,770	331,647	165,522
54,086	-3,685	331,393	165,477
55,101	-3,785	331,269	165,287
56,115	-3,704	330,950	165,205
57,130	-3,692	330,588	165,023
58,144	-3,771	330,351	164,800
59,159	-3,844	330,016	164,535
60,174	-3,800	329,743	164,434
61,188	-3,811	329,605	164,338
62,203	-3,570	329,281	164,434
63,217	-3,701	329,138	164,200
64,232	-3,738	328,706	163,929
65,247	-3,654	328,427	163,870
66,261	-3,773	328,172	163,594
67,276	-3,658	327,895	163,571
68,290	-3,754	327,694	163,348
69,305	-3,763	327,609	163,280
70,320	-3,654	327,406	163,288
71,334	-3,682	327,028	163,054
72,349	-3,687	326,640	162,839
73,363	-3,847	326,433	162,543
74,378	-3,847	326,316	162,470
75,393	-3,722	325,894	162,385
76,407	-3,642	325,668	162,348
77,422	-3,679	325,409	162,163
78,436	-3,761	325,254	161,979
79,451	-3,760	324,802	161,741
80,466	-3,567	324,549	161,816
81,480	-3,693	324,448	161,610
82,495	-3,529	323,951	161,531
83,509	-3,721	323,916	161,285
84,524	-3,558	323,578	161,283
85,539	-3,719	323,545	161,074
86,553	-3,621	323,253	161,023
87,568	-3,696	323,022	160,811
88,582	-3,630	322,748	160,733
89,597	-3,762	322,536	160,467
90,611	-3,758	322,206	160,294
91,626	-3,700	321,878	160,180
92,641	-3,648	321,872	160,219
93,655	-3,632	321,480	160,027
94,670	-3,767	321,321	159,786
95,684	-3,771	321,043	159,629
96,699	-3,667	320,917	159,666
97,714	-3,670	320,630	159,506
98,728	-3,670	320,328	159,341
99,743	-3,669	320,044	159,187
100,757	-3,570	319,794	159,156
101,772	-3,657	319,563	158,933
102,787	-3,514	319,377	158,982
103,801	-3,676	319,155	158,680
104,816	-3,670	318,834	158,513
105,830	-3,700	318,798	158,449
106,845	-3,750	318,641	158,302
107,860	-3,605	318,329	158,291
108,874	-3,695	318,063	158,047
109,889	-3,868	317,758	157,693
110,903	-3,842	317,592	157,625
111,918	-3,734	317,382	157,623
112,933	-3,668	317,146	157,564
113,947	-3,667	316,950	157,453
114,962	-3,603	316,700	157,384
115,976	-3,621	316,292	157,149
116,991	-3,782	316,241	156,935
118,006	-3,615	316,001	156,982
119,020	-3,529	315,801	156,961
120,035	-3,684	315,765	156,763
121,049	-3,537	315,320	156,686
122,064	-3,720	315,168	156,400
123,079	-3,694	314,967	156,314
124,093	-3,729	314,632	156,095
125,108	-3,649	314,511	156,107
126,122	-3,761	314,312	155,875
127,137	-3,766	314,095	155,748
128,151	-3,603	313,800	155,762
129,166	-3,548	313,425	155,621
130,181	-3,720	313,329	155,376
131,195	-3,632	313,021	155,303
132,210	-3,547	312,722	155,232
133,224	-3,643	312,513	155,011
134,239	-3,529	312,365	155,045
135,254	-3,606	312,057	154,797
136,268	-3,505	311,848	154,787
137,283	-3,631	311,565	154,499
138,297	-3,628	311,458	154,435
139,312	-3,423	311,082	154,453
140,327	-3,551	311,023	154,273
141,341	-3,638	310,746	154,030
142,356	-3,555	310,602	154,033
143,370	-3,534	310,351	153,918
144,385	-3,559	310,170	153,787
145,400	-3,523	309,950	153,703
146,414	-3,723	309,675	153,341
147,429	-3,635	309,587	153,377
148,443	-3,582	309,302	153,278
149,458	-3,714	309,049	153,000
150,473	-3,642	308,901	152,989
151,487	-3,452	308,755	153,102
152,502	-3,545	308,543	152,887
153,516	-3,602	308,180	152,633
154,531	-3,581	307,888	152,497
155,546	-3,556	307,817	152,474
156,560	-3,376	307,503	152,493
157,575	-3,478	307,460	152,351
158,589	-3,573	306,984	152,004
159,604	-3,640	306,568	151,713
160,619	-3,598	306,592	151,756
161,633	-3,522	306,451	151,752
162,648	-3,651	306,241	151,500
163,662	-3,510	306,026	151,526
164,677	-3,446	305,851	151,493
165,692	-3,478	305,731	151,387
166,706	-3,368	305,346	151,297
167,721	-3,486	305,143	151,061
168,735	-3,629	305,019	150,837
169,750	-3,567	304,909	150,833
170,764	-3,591	304,693	150,689
171,779	-3,530	304,473	150,630
172,794	-3,432	304,196	150,580
173,808	-3,544	304,099	150,403
174,823	-3,599	303,974	150,270
175,837	-3,501	303,626	150,187
176,852	-3,567	303,428	150,008
177,867	-3,465	303,231	150,002
178,881	-3,554	303,054	149,809
179,896	-3,540	302,781	149,675
180,910	-3,694	302,630	149,429
181,925	-3,619	302,346	149,352
182,940	-3,534	302,041	149,275
183,954	-3,610	301,998	149,163
184,969	-3,587	301,792	149,072
185,983	-3,460	301,557	149,072
186,998	-3,560	301,478	148,918
188,013	-3,527	301,230	148,815
189,027	-3,501	301,008	148,719
190,042	-3,344	300,743	148,734
191,056	-3,488	300,466	148,438
192,071	-3,485	300,389	148,390
193,086	-3,556	300,289	148,255
194,100	-3,480	299,924	148,139
195,115	-3,569	299,660	147,905
196,129	-3,515	299,373	147,805
197,144	-3,525	299,142	147,667
198,159	-3,656	299,101	147,501
199,173	-3,621	298,866	147,408
200,188	-3,609	298,728	147,338
201,202	-3,438	298,449	147,360
202,217	-3,461	298,358	147,279
203,232	-3,339	297,950	147,188
204,246	-3,420	297,705	146,972
205,261	-3,623	297,641	146,722
206,275	-3,524	297,409	146,695
207,290	-3,460	297,277	146,681
208,304	-3,405	297,086	146,629
209,319	-3,520	296,703	146,311
210,334	-3,586	296,572	146,168
211,348	-3,488	296,270	146,104
212,363	-3,613	296,188	145,925
213,377	-3,552	296,088	145,925
214,392	-3,383	295,809	145,943
215,407	-3,437	295,640	145,792
216,421	-3,549	295,458	145,578
217,436	-3,482	295,063	145,437
218,450	-3,640	295,019	145,245
219,465	-3,629	294,799	145,134
220,480	-3,611	294,680	145,080
221,494	-3,451	294,542	145,159
222,509	-3,540	294,311	144,944
223,523	-3,628	294,006	144,692
224,538	-3,351	293,796	144,852
225,553	-3,523	293,693	144,618
226,567	-3,465	293,453	144,544
227,582	-3,489	293,288	144,426
228,596	-3,460	293,160	144,379
229,611	-3,376	292,866	144,304
230,626	-3,487	292,683	144,092
231,640	-3,386	292,549	144,112
232,655	-3,427	292,201	143,888
233,669	-3,580	292,089	143,669
234,684	-3,522	291,937	143,639
235,699	-3,469	291,716	143,569
236,713	-3,507	291,539	143,431
237,728	-3,622	291,321	143,199
238,742	-3,465	291,182	143,272
239,757	-3,430	290,752	143,082
240,772	-3,502	290,760	143,002
241,786	-3,430	290,445	142,906
242,801	-3,539	290,422	142,774
243,815	-3,359	290,105	142,782
244,830	-3,412	289,964	142,648
245,844	-3,411	289,836	142,574
246,859	-3,357	289,564	142,480
247,874	-3,470	289,296	142,225
248,888	-3,349	289,085	142,226
249,903	-3,686	289,136	141,910
250,917	-3,344	288,877	142,103
251,932	-3,378	288,666	141,954
252,947	-3,552	288,478	141,679
253,961	-3,419	288,311	141,714
254,976	-3,108	288,193	141,946
255,990	-3,000	287,912	141,900
257,005	-2,618	288,098	142,350
258,020	-0,920	288,653	144,262
259,034	0,242	289,070	145,588
260,049	0,633	288,985	145,912
261,063	1,271	289,048	146,551
262,078	1,582	288,905	146,767
263,093	1,814	288,818	146,934
264,107	2,005	288,732	147,063
265,122	2,073	288,603	147,050
266,136	2,126	288,465	147,018
267,151	2,057	288,362	146,885
268,166	2,435	288,001	147,054
269,180	2,426	287,853	146,956
270,195	2,289	287,833	146,801
271,209	2,277	287,568	146,641
272,224	2,268	287,436	146,553
273,239	2,205	287,163	146,339
274,253	2,175	286,896	146,161
275,268	2,187	286,745	146,083
276,282	2,197	286,476	145,942
277,297	2,355	286,384	146,034
278,312	2,219	286,094	145,743
279,326	2,096	286,057	145,593
280,341	2,156	285,893	145,554
281,355	2,118	285,742	145,428
282,370	2,016	285,491	145,189
283,384	2,169	285,340	145,246
284,399	2,070	285,045	144,988
285,414	2,065	284,907	144,901
286,428	2,076	284,672	144,778
287,443	2,032	284,489	144,630
288,457	1,968	284,357	144,490
289,472	2,046	284,167	144,454
290,487	2,002	283,909	144,268
291,501	2,075	283,632	144,184
292,516	1,901	283,604	143,991
293,530	2,011	283,438	143,999
294,545	1,851	283,184	143,705
295,560	1,984	282,990	143,721
296,574	2,064	282,718	143,645
297,589	2,026	282,514	143,493
298,603	1,989	282,417	143,395
299,618	2,232	282,181	143,492
300,633	2,031	281,966	143,181
301,647	2,065	281,890	143,161
302,662	2,173	281,705	143,156
303,676	2,220	281,539	143,103
304,691	2,337	281,350	143,105
305,706	2,300	281,188	142,975
306,720	2,388	281,118	143,009
307,735	2,239	280,918	142,755
308,749	2,194	280,721	142,600
309,764	2,143	280,496	142,425
310,779	2,266	280,299	142,428
311,793	2,285	280,052	142,307
312,808	2,170	279,806	142,062
313,822	2,228	279,731	142,065
314,837	2,096	279,570	141,847
315,852	2,353	279,335	141,956
316,866	2,274	279,099	141,750
317,881	2,234	279,045	141,672
318,895	2,136	278,711	141,399
319,910	2,156	278,615	141,355
320,925	2,020	278,468	141,142
321,939	2,123	278,396	141,188
322,954	2,194	278,226	141,156
323,968	2,244	278,019	141,085
324,983	2,106	277,823	140,845
325,997	2,255	277,604	140,859
327,012	2,379	277,328	140,821
328,027	2,232	277,348	140,683
329,041	2,331	276,987	140,579
330,056	2,136	276,975	140,380
331,070	2,335	276,612	140,367
332,085	2,224	276,522	140,207
333,100	2,223	276,385	140,124
334,114	2,268	276,100	140,008
335,129	2,189	276,054	139,900
336,143	2,195	275,764	139,745
337,158	2,467	275,652	139,926
338,173	2,543	275,529	139,922
339,187	2,309	275,322	139,588
340,202	2,397	275,060	139,524
341,216	2,343	274,891	139,377
342,231	2,316	274,714	139,250
343,246	2,197	274,612	139,076
344,260	2,424	274,434	139,182
345,275	2,355	274,328	139,052
346,289	2,248	274,153	138,853
347,304	2,312	273,945	138,794
348,319	2,439	273,684	138,766
349,333	2,345	273,466	138,557
350,348	2,273	273,448	138,470
351,362	2,144	273,226	138,228
352,377	2,492	272,988	138,412
353,392	2,330	272,876	138,195
354,406	2,389	272,810	138,203
355,421	191,011	1349,291	1427,118
356,435	154,196	1480,548	1427,252
