DTS Sentinel unit serial number:	SN410029Multiplexer serial number:	ORYXHardware model number:	OX2-SRSoftware version number:	ORYX F/W v4,00 Oryx Data Collector v3.7.2.0data status	okinstallation	B4 Nyhavnadifferential loss correction	single-endedforward channel	channel 2reverse channel	N/Adate	2023/12/16time	09:15:13forward acquisition time	300,00reverse acquisition time	0,00gamma	499,1914k internal	0,3126k external	0,3126temperature offset calibration	1,0000default loss term (dB/km)	0,3820temperature slope calibration	1,0000multiplexer offset coefficient	1,0000multiplexer slope coefficient	1,0000fibre end	0,00T internal ref (°C)	22,93T ext. ref 1 (°C)	8,81T ext. ref 2 (°C)	8,99length (m)	temperature (°C)	Stokes	anti-Stokes-744,400	800,000	-0,019	-0,040
-743,385	190,283	-0,127	0,142
-742,371	-200,000	-0,033	-0,172
-741,356	126,251	-0,184	0,173
-740,342	-200,000	0,005	-0,023
-739,327	-82,503	-0,301	0,072
-738,312	311,142	-0,044	-0,062
-737,298	-76,146	-0,255	0,066
-736,283	173,126	-0,036	-0,038
-735,269	800,000	-0,054	0,126
-734,254	104,817	-0,077	0,068
-733,239	-102,608	-0,334	-0,059
-732,225	800,000	-0,020	-0,054
-731,210	-200,000	0,005	0,027
-730,196	100,169	-0,060	-0,051
-729,181	-200,000	-0,022	-0,127
-728,167	27,907	0,055	0,035
-727,152	-9,734	0,114	0,056
-726,137	27,005	-0,049	0,031
-725,123	-45,883	-0,140	-0,051
-724,108	-135,083	-0,110	-0,010
-723,094	800,000	0,036	-0,097
-722,079	-200,000	0,011	-0,048
-721,064	-200,000	0,006	-0,075
-720,050	-50,540	-0,092	-0,032
-719,035	-200,000	-0,011	0,053
-718,021	800,000	0,028	-0,072
-717,006	800,000	-0,048	-0,135
-715,991	1,075	-0,230	-0,122
-714,977	-92,315	0,113	-0,024
-713,962	-84,964	-0,170	0,039
-712,948	800,000	-0,025	0,080
-711,933	297,997	-0,021	0,028
-710,918	-118,120	-0,052	-0,007
-709,904	800,000	0,024	-0,067
-708,889	-81,240	-0,048	-0,012
-707,875	-200,000	-0,015	-0,165
-706,860	-200,000	-0,014	-0,067
-705,845	-48,257	-0,035	-0,012
-704,831	-74,870	0,127	0,034
-703,816	800,000	-0,043	0,095
-702,802	800,000	-0,031	0,066
-701,787	-200,000	-0,003	-0,053
-700,772	230,094	-0,065	0,079
-699,758	-200,000	-0,002	0,082
-698,743	-86,791	-0,086	0,019
-697,729	-80,099	-0,105	-0,026
-696,714	-34,852	0,111	-0,045
-695,699	-200,000	0,002	-0,142
-694,685	-107,189	-0,037	0,006
-693,670	56,032	-0,113	0,081
-692,656	-20,131	0,081	-0,037
-691,641	-170,656	0,140	-0,004
-690,627	423,783	0,052	0,083
-689,612	-35,895	-0,056	0,022
-688,597	800,000	-0,054	0,124
-687,583	-90,338	-0,110	0,024
-686,568	-200,000	0,011	-0,121
-685,554	-200,000	-0,095	0,000
-684,539	-76,202	-0,143	-0,037
-683,524	-7,168	-0,179	-0,090
-682,510	-189,635	-0,010	0,000
-681,495	87,049	-0,170	-0,140
-680,481	-106,060	0,074	-0,012
-679,466	243,443	0,056	-0,070
-678,451	380,199	-0,085	0,130
-677,437	-78,353	0,121	-0,031
-676,422	800,000	-0,027	-0,083
-675,408	-200,000	-0,022	-0,143
-674,393	114,754	-0,093	-0,085
-673,378	-35,620	-0,084	0,034
-672,364	-84,201	0,068	0,016
-671,349	-118,571	-0,194	0,025
-670,335	-89,495	0,108	-0,023
-669,320	800,000	0,060	-0,126
-668,305	-200,000	0,015	-0,069
-667,291	800,000	-0,079	-0,184
-666,276	-200,000	-0,009	-0,049
-665,262	263,001	-0,094	-0,121
-664,247	58,332	-0,102	-0,074
-663,232	800,000	0,044	-0,108
-662,218	0,421	0,031	-0,016
-661,203	57,842	0,052	-0,038
-660,189	30,359	0,092	-0,059
-659,174	800,000	-0,026	-0,055
-658,159	-200,000	0,008	-0,053
-657,145	-200,000	-0,015	-0,088
-656,130	-123,123	0,040	0,005
-655,116	78,048	-0,052	0,041
-654,101	716,487	-0,018	-0,035
-653,086	368,934	-0,039	0,059
-652,072	800,000	-0,043	-0,096
-651,057	800,000	-0,042	-0,111
-650,043	147,453	0,055	0,055
-649,028	3,075	0,061	-0,033
-648,014	-165,688	0,037	-0,001
-646,999	-35,774	-0,060	-0,024
-645,984	120,723	0,082	0,076
-644,970	-43,975	0,077	-0,028
-643,955	-111,844	-0,068	-0,010
-642,941	-151,612	-0,067	0,004
-641,926	169,048	-0,093	-0,099
-640,911	204,114	-0,063	-0,073
-639,897	-200,000	-0,001	-0,025
-638,882	800,000	-0,074	-0,203
-637,868	-200,000	-0,005	-0,030
-636,853	-58,028	-0,087	-0,028
-635,838	28,095	-0,098	0,061
-634,824	92,631	-0,013	0,011
-633,809	88,623	0,090	-0,074
-632,795	-102,793	0,068	0,012
-631,780	-200,000	-0,010	0,062
-630,765	-146,141	0,115	-0,007
-629,751	-200,000	0,019	-0,072
-628,736	800,000	-0,052	-0,109
-627,722	800,000	0,029	0,060
-626,707	84,875	-0,038	-0,031
-625,692	443,703	0,056	0,091
-624,678	-200,000	0,012	0,056
-623,663	-200,000	0,003	-0,067
-622,649	76,480	-0,037	0,029
-621,634	-200,000	-0,007	-0,054
-620,619	-96,732	-0,060	-0,012
-619,605	169,960	-0,045	-0,047
-618,590	-84,647	-0,109	-0,025
-617,576	-200,000	-0,013	-0,051
-616,561	139,205	0,061	-0,060
-615,546	-40,022	-0,075	0,029
-614,532	256,355	0,053	-0,067
-613,517	-120,405	-0,038	-0,005
-612,503	255,116	0,025	-0,031
-611,488	288,012	0,011	0,015
-610,474	10,536	0,139	0,078
-609,459	-25,838	-0,102	-0,044
-608,444	173,335	-0,097	-0,104
-607,430	-200,000	-0,057	-0,203
-606,415	-65,120	-0,102	-0,030
-605,401	51,222	-0,049	0,035
-604,386	800,000	0,031	0,095
-603,371	-112,212	0,082	-0,012
-602,357	-28,724	0,073	0,031
-601,342	-90,713	-0,084	-0,018
-600,328	-158,501	-0,063	-0,003
-599,313	-70,233	-0,071	-0,020
-598,298	-4,785	0,131	-0,066
-597,284	-200,000	-0,012	0,070
-596,269	24,677	0,042	-0,026
-595,255	-200,000	-0,003	0,033
-594,240	-83,849	0,130	-0,030
-593,225	-200,000	-0,012	-0,097
-592,211	270,555	0,041	-0,054
-591,196	-146,425	0,084	0,005
-590,182	59,514	-0,060	-0,044
-589,167	111,138	0,111	-0,099
-588,152	-200,000	0,008	-0,047
-587,138	800,000	0,012	0,029
-586,123	-200,000	0,004	-0,018
-585,109	42,356	-0,030	-0,020
-584,094	800,000	0,037	-0,109
-583,079	-169,986	0,176	0,005
-582,065	194,184	0,085	0,095
-581,050	78,336	-0,090	0,071
-580,036	800,000	-0,023	-0,072
-579,021	-85,867	-0,060	0,014
-578,006	103,367	-0,062	-0,054
-576,992	40,861	-0,078	0,052
-575,977	-58,417	0,106	-0,034
-574,963	370,692	-0,033	-0,049
-573,948	2,391	-0,048	-0,026
-572,934	2,162	0,130	0,069
-571,919	-124,470	0,027	-0,003
-570,904	121,752	-0,075	-0,069
-569,890	-160,869	0,081	-0,003
-568,875	476,995	0,036	-0,060
-567,861	444,931	0,039	0,063
-566,846	69,307	0,054	-0,041
-565,831	800,000	0,078	0,187
-564,817	-48,124	0,035	0,012
-563,802	15,299	-0,050	0,029
-562,788	60,844	0,112	-0,082
-561,773	-200,000	-0,002	-0,074
-560,758	-25,769	0,050	0,022
-559,744	70,079	0,101	0,077
-558,729	44,303	-0,121	-0,082
-557,715	36,643	-0,018	-0,012
-556,700	-200,000	-0,018	0,062
-555,685	488,498	-0,012	0,020
-554,671	-106,419	-0,033	-0,005
-553,656	434,497	0,114	0,183
-552,642	-200,000	0,013	0,054
-551,627	483,550	0,055	0,092
-550,612	-200,000	0,015	0,103
-549,598	92,754	0,025	-0,021
-548,583	158,137	0,008	0,008
-547,569	178,508	-0,028	0,031
-546,554	800,000	-0,039	0,102
-545,539	-140,751	-0,074	0,006
-544,525	-200,000	0,020	0,084
-543,510	-54,095	-0,093	0,031
-542,496	-200,000	-0,031	-0,113
-541,481	173,466	0,061	-0,065
-540,466	254,308	-0,033	0,041
-539,452	-62,995	0,103	0,031
-538,437	800,000	0,019	0,041
-537,423	102,964	0,025	-0,022
-536,408	-200,000	0,007	-0,074
-535,393	800,000	-0,020	0,063
-534,379	-200,000	0,033	-0,140
-533,364	800,000	0,011	-0,032
-532,350	245,666	0,083	0,104
-531,335	238,137	0,007	0,008
-530,321	-200,000	0,016	0,116
-529,306	-135,558	0,116	0,010
-528,291	70,424	0,073	0,056
-527,277	-200,000	-0,019	-0,072
-526,262	-181,837	-0,100	-0,001
-525,248	167,157	0,047	0,050
-524,233	-200,000	0,002	0,123
-523,218	-200,000	0,034	0,130
-522,204	-43,425	0,135	0,050
-521,189	-7,104	-0,061	-0,031
-520,175	748,667	-0,047	0,095
-519,160	167,349	-0,077	-0,081
-518,145	203,895	0,046	-0,053
-517,131	-130,207	0,111	-0,011
-516,116	43,391	0,038	0,026
-515,102	429,906	0,057	0,092
-514,087	-26,850	-0,067	0,029
-513,072	687,884	-0,070	-0,135
-512,058	-200,000	-0,007	-0,225
-511,043	264,971	-0,026	-0,033
-510,029	137,070	0,093	0,089
-509,014	-200,000	-0,002	0,153
-507,999	196,725	0,079	0,089
-506,985	144,999	0,063	0,062
-505,970	800,000	0,030	0,069
-504,956	800,000	0,025	-0,054
-503,941	800,000	-0,036	0,091
-502,926	-200,000	-0,001	0,123
-501,912	-61,164	0,141	-0,044
-500,897	-58,612	-0,056	0,018
-499,883	800,000	-0,039	-0,086
-498,868	800,000	0,032	-0,076
-497,853	-200,000	0,023	0,173
-496,839	42,022	0,061	0,041
-495,824	101,177	0,042	-0,036
-494,810	91,518	-0,040	-0,033
-493,795	-143,406	0,133	-0,009
-492,781	-36,645	-0,067	-0,026
-491,766	102,902	-0,044	0,038
-490,751	-14,785	0,059	0,028
-489,737	800,000	-0,036	-0,113
-488,722	633,700	0,035	0,066
-487,708	-39,506	-0,104	0,040
-486,693	800,000	-0,031	-0,098
-485,678	290,519	-0,077	-0,104
-484,664	175,121	0,091	-0,097
-483,649	-88,919	0,032	0,007
-482,635	-9,949	0,030	-0,015
-481,620	5,824	0,089	-0,049
-480,605	-121,808	0,010	-0,001
-479,591	-200,000	0,004	0,055
-478,576	139,621	0,082	-0,080
-477,562	233,043	0,030	-0,036
-476,547	800,000	0,024	-0,065
-475,532	-18,566	0,102	-0,047
-474,518	394,360	-0,006	-0,010
-473,503	-94,060	0,041	0,008
-472,489	-200,000	0,006	0,047
-471,474	-200,000	0,006	0,073
-470,459	800,000	-0,003	-0,010
-469,445	800,000	0,017	-0,046
-468,430	511,874	0,035	0,060
-467,416	200,295	0,030	-0,034
-466,401	-139,448	0,115	-0,009
-465,386	-44,561	0,067	0,025
-464,372	-127,693	-0,013	-0,001
-463,357	-38,298	-0,163	0,063
-462,343	168,260	-0,022	0,023
-461,328	83,651	-0,027	0,022
-460,313	123,145	0,109	-0,101
-459,299	-29,152	-0,067	0,028
-458,284	32,132	-0,054	-0,034
-457,270	96,267	0,110	0,093
-456,255	307,116	0,076	0,105
-455,241	-140,475	0,005	0,000
-454,226	633,832	0,010	0,018
-453,211	800,000	-0,030	0,083
-452,197	36,218	0,119	-0,077
-451,182	-38,699	0,054	0,021
-450,168	628,511	-0,039	-0,073
-449,153	159,071	0,022	0,022
-448,138	-200,000	-0,019	-0,078
-447,124	-20,177	-0,096	-0,043
-446,109	105,558	-0,063	-0,054
-445,095	437,995	0,072	-0,116
-444,080	-200,000	0,029	0,099
-443,065	316,843	-0,041	0,057
-442,051	-200,000	-0,015	0,122
-441,036	-138,401	0,066	-0,005
-440,022	-200,000	0,012	-0,164
-439,007	36,731	0,071	0,046
-437,992	191,303	0,114	0,127
-436,978	44,703	0,158	0,107
-435,963	-122,702	-0,166	0,020
-434,949	800,000	0,023	0,065
-433,934	24,996	-0,110	0,067
-432,919	229,126	-0,037	-0,045
-431,905	171,412	-0,045	-0,047
-430,890	721,382	0,022	-0,043
-429,876	4,919	0,120	0,065
-428,861	138,672	0,077	0,075
-427,846	-200,000	-0,020	-0,145
-426,832	31,116	-0,045	0,029
-425,817	238,427	-0,058	0,072
-424,803	121,721	0,029	0,026
-423,788	-200,000	-0,012	-0,043
-422,773	-109,231	0,166	-0,026
-421,759	239,097	-0,052	0,064
-420,744	800,000	-0,014	0,032
-419,730	47,858	-0,089	0,061
-418,715	221,382	0,075	-0,089
-417,701	14,935	0,083	0,048
-416,686	-10,969	0,118	0,057
-415,671	1,270	0,051	0,027
-414,657	47,447	-0,125	0,085
-413,642	-48,234	0,080	-0,028
-412,628	71,837	-0,055	0,042
-411,613	-94,642	-0,049	0,010
-410,598	477,021	-0,091	-0,152
-409,584	278,748	-0,059	0,078
-408,569	54,282	0,014	0,010
-407,555	-200,000	-0,012	-0,058
-406,540	-200,000	0,015	0,052
-405,525	312,735	-0,040	0,055
-404,511	-111,708	-0,158	0,023
-403,496	-200,000	-0,017	0,067
-402,482	201,416	0,109	0,123
-401,467	-200,000	0,006	-0,040
-400,452	24,709	-0,107	0,065
-399,438	139,398	0,094	0,091
-398,423	-29,996	-0,112	0,047
-397,409	-25,923	0,053	0,023
-396,394	800,000	0,037	-0,106
-395,379	-112,515	-0,181	-0,026
-394,365	237,924	-0,043	0,052
-393,350	14,449	0,083	0,047
-392,336	139,114	-0,030	0,029
-391,321	-200,000	-0,039	-0,222
-390,306	492,347	0,038	-0,064
-389,292	-164,906	-0,116	-0,004
-388,277	-135,484	-0,174	0,015
-387,263	44,579	0,032	-0,021
-386,248	-200,000	0,005	0,141
-385,233	27,319	0,088	0,054
-384,219	-200,000	-0,008	-0,158
-383,204	-43,635	-0,066	-0,024
-382,190	-128,258	0,050	-0,005
-381,175	-200,000	0,017	-0,086
-380,160	-200,000	0,034	0,198
-379,146	430,334	0,070	0,111
-378,131	-200,000	-0,028	0,099
-377,117	83,833	-0,079	0,063
-376,102	800,000	0,040	-0,103
-375,088	379,516	-0,014	0,021
-374,073	107,783	-0,112	0,098
-373,058	-17,141	0,076	0,035
-372,044	-200,000	0,074	0,000
-371,029	-48,640	-0,163	-0,057
-370,015	-113,580	-0,148	0,021
-369,000	-200,000	0,006	-0,050
-367,985	459,479	-0,059	-0,096
-366,971	800,000	0,011	-0,035
-365,956	-200,000	0,033	0,164
-364,942	231,995	-0,061	0,073
-363,927	118,222	0,034	0,031
-362,912	-200,000	-0,005	0,141
-361,898	-200,000	0,004	0,053
-360,883	-200,000	0,015	-0,086
-359,869	96,410	-0,100	-0,084
-358,854	-16,482	-0,090	0,042
-357,839	-69,506	-0,077	0,022
-356,825	-200,000	-0,004	0,042
-355,810	122,425	-0,063	0,058
-354,796	55,038	0,010	0,007
-353,781	-97,079	-0,008	0,002
-352,766	-34,215	-0,048	-0,019
-351,752	750,801	0,055	-0,110
-350,737	343,036	0,067	0,097
-349,723	-82,672	0,036	-0,008
-348,708	136,695	-0,068	-0,065
-347,693	230,061	0,044	0,052
-346,679	61,657	-0,175	-0,128
-345,664	-150,052	0,035	0,002
-344,650	-200,000	0,008	0,060
-343,635	-151,473	0,087	0,005
-342,620	170,293	0,049	0,051
-341,606	800,000	0,056	0,113
-340,591	-200,000	0,010	0,150
-339,577	87,776	-0,032	-0,026
-338,562	-113,904	-0,134	-0,019
-337,548	448,790	0,063	0,102
-336,533	-132,510	0,076	0,007
-335,518	48,078	-0,036	0,024
-334,504	727,926	-0,065	0,128
-333,489	67,096	-0,060	-0,045
-332,475	800,000	0,050	-0,113
-331,460	75,739	0,071	0,055
-330,445	304,669	-0,013	-0,018
-329,431	-39,980	-0,111	-0,042
-328,416	80,146	0,090	0,071
-327,402	-131,866	0,065	0,006
-326,387	131,556	0,038	-0,035
-325,372	-5,552	0,073	0,037
-324,358	31,124	-0,106	0,066
-323,343	-200,000	-0,004	-0,125
-322,329	555,529	0,025	0,044
-321,314	-194,504	-0,042	0,000
-320,299	731,765	0,055	0,107
-319,285	136,756	0,059	-0,056
-318,270	198,087	-0,078	-0,087
-317,256	30,914	-0,059	-0,037
-316,241	44,825	0,037	-0,025
-315,226	60,564	0,072	-0,052
-314,212	68,848	-0,023	-0,017
-313,197	-45,467	0,071	-0,025
-312,183	-200,000	0,029	0,131
-311,168	-43,503	-0,066	0,024
-310,153	-200,000	-0,021	-0,071
-309,139	-172,076	0,071	0,002
-308,124	333,922	0,055	0,079
-307,110	-123,535	0,150	-0,017
-306,095	-161,385	-0,196	0,007
-305,080	335,635	-0,053	0,075
-304,066	-73,562	-0,096	0,025
-303,051	228,660	0,110	-0,131
-302,037	638,190	-0,051	-0,095
-301,022	-200,000	-0,017	-0,063
-300,008	800,000	0,046	-0,119
-298,993	94,950	-0,035	-0,029
-297,978	36,418	-0,076	0,049
-296,964	-200,000	-0,022	-0,098
-295,949	100,439	-0,104	-0,089
-294,935	-200,000	-0,034	-0,113
-293,920	-162,852	-0,101	-0,004
-292,905	97,954	0,097	-0,082
-291,891	-83,202	0,042	-0,010
-290,876	-1,838	-0,120	-0,061
-289,862	-21,667	-0,061	0,027
-288,847	641,702	-0,043	-0,080
-287,832	-125,592	-0,061	-0,007
-286,818	-43,071	0,012	-0,005
-285,803	-40,112	0,034	0,013
-284,789	-200,000	0,010	0,102
-283,774	-122,701	0,055	-0,006
-282,759	-84,736	0,018	0,004
-281,745	-200,000	0,003	-0,134
-280,730	-200,000	-0,010	-0,114
-279,716	145,973	-0,026	-0,026
-278,701	-200,000	0,011	0,067
-277,686	-65,598	-0,074	0,022
-276,672	-46,919	0,093	-0,033
-275,657	218,110	0,096	-0,112
-274,643	12,461	0,068	-0,038
-273,628	146,879	-0,019	0,018
-272,613	656,242	0,110	-0,208
-271,599	19,638	-0,050	0,029
-270,584	132,044	0,037	0,035
-269,570	-200,000	-0,008	0,070
-268,555	800,000	-0,063	0,142
-267,540	-200,000	-0,024	0,087
-266,526	76,055	0,119	-0,092
-265,511	-200,000	-0,007	-0,125
-264,497	778,966	-0,081	0,163
-263,482	800,000	-0,013	0,039
-262,467	40,784	-0,159	0,105
-261,453	33,924	0,058	0,037
-260,438	-200,000	-0,004	-0,140
-259,424	103,887	-0,064	-0,055
-258,409	-200,000	0,040	-0,129
-257,395	-1,301	0,146	-0,075
-256,380	48,124	-0,115	0,078
-255,365	-200,000	0,011	0,163
-254,351	-22,677	-0,027	0,012
-253,336	-41,009	-0,059	-0,022
-252,322	800,000	-0,027	0,064
-251,307	-200,000	0,015	0,105
-250,292	349,680	0,017	0,024
-249,278	-66,336	-0,017	0,005
-248,263	-200,000	0,009	0,081
-247,249	800,000	0,043	0,129
-246,234	201,281	-0,066	0,075
-245,219	604,483	-0,024	0,043
-244,205	359,363	-0,064	-0,094
-243,190	71,662	-0,030	0,023
-242,176	-200,000	-0,012	0,075
-241,161	800,000	0,041	0,127
-240,146	-200,000	-0,023	-0,085
-239,132	47,198	0,023	0,015
-238,117	326,587	0,063	0,088
-237,103	800,000	0,041	0,091
-236,088	-200,000	-0,010	0,056
-235,073	-200,000	0,014	0,081
-234,059	369,458	0,074	0,110
-233,044	337,300	-0,059	0,083
-232,030	-15,226	-0,115	0,054
-231,015	-42,126	0,049	-0,018
-230,000	800,000	-0,048	-0,106
-228,986	138,740	-0,057	-0,054
-227,971	-200,000	-0,018	0,076
-226,957	95,407	0,039	0,033
-225,942	255,580	-0,023	-0,028
-224,927	-200,000	-0,008	0,086
-223,913	263,997	-0,021	-0,026
-222,898	-200,000	-0,012	-0,096
-221,884	-138,010	-0,082	0,007
-220,869	-0,576	-0,047	-0,024
-219,855	-88,236	0,075	-0,016
-218,840	-92,559	0,024	-0,005
-217,825	-200,000	0,005	-0,126
-216,811	-16,298	-0,131	-0,060
-215,796	49,723	-0,094	0,065
-214,782	-31,043	-0,057	-0,024
-213,767	397,485	0,093	-0,143
-212,752	-76,621	-0,030	-0,008
-211,738	-19,210	0,151	-0,068
-210,723	-120,641	0,070	-0,009
-209,709	454,522	-0,036	-0,058
-208,694	501,964	-0,019	-0,032
-207,679	800,000	0,014	0,034
-206,665	-192,528	0,076	-0,001
-205,650	800,000	-0,023	-0,048
-204,636	-200,000	-0,061	0,196
-203,621	-100,060	-0,120	-0,022
-202,606	19,100	-0,028	0,016
-201,592	-42,317	0,061	-0,023
-200,577	-200,000	-0,034	-0,122
-199,563	-32,792	-0,049	-0,020
-198,548	-44,812	0,101	0,037
-197,533	-70,188	0,067	0,018
-196,519	-119,458	0,042	0,005
-195,504	-141,444	0,039	0,003
-194,490	201,597	0,026	-0,029
-193,475	-14,193	-0,197	-0,092
-192,460	-31,539	-0,056	-0,023
-191,446	457,856	-0,056	-0,091
-190,431	-128,569	0,113	-0,012
-189,417	-54,419	0,042	0,014
-188,402	349,271	-0,122	-0,176
-187,387	645,353	-0,083	-0,155
-186,373	-200,000	0,008	-0,035
-185,358	31,045	-0,049	-0,031
-184,344	-29,302	0,017	0,007
-183,329	-60,524	-0,040	0,012
-182,315	777,327	-0,029	0,057
-181,300	-200,000	-0,005	0,046
-180,285	753,347	-0,018	-0,036
-179,271	-135,810	-0,099	-0,008
-178,256	-200,000	0,000	0,027
-177,242	-13,199	0,045	-0,021
-176,227	450,698	0,033	-0,054
-175,212	-75,943	-0,140	0,036
-174,198	-200,000	-0,001	0,049
-173,183	-200,000	-0,001	-0,156
-172,169	-58,832	0,014	-0,004
-171,154	61,351	-0,043	0,031
-170,139	-200,000	0,028	-0,096
-169,125	800,000	-0,020	0,055
-168,110	-37,567	0,087	-0,034
-167,096	24,473	0,086	0,052
-166,081	800,000	-0,068	-0,151
-165,066	800,000	-0,048	-0,135
-164,052	-117,159	0,019	-0,002
-163,037	280,870	-0,061	0,079
-162,023	-21,448	0,095	0,042
-161,008	-10,078	-0,084	-0,040
-159,993	-62,748	-0,038	-0,011
-158,979	490,714	-0,043	-0,072
-157,964	800,000	0,059	-0,159
-156,950	-66,273	0,061	-0,017
-155,935	-119,618	-0,076	0,009
-154,920	21,843	0,115	0,068
-153,906	141,061	-0,089	0,086
-152,891	187,083	0,075	0,082
-151,877	-58,690	-0,024	0,007
-150,862	85,631	0,077	0,062
-149,847	222,425	-0,077	0,090
-148,833	-200,000	-0,003	-0,018
-147,818	165,899	-0,040	0,041
-146,804	-105,853	-0,067	0,011
-145,789	-200,000	-0,004	0,050
-144,775	18,243	-0,096	0,056
-143,760	-55,662	0,091	-0,030
-142,745	592,472	0,027	0,048
-141,731	-200,000	0,002	0,036
-140,716	248,858	0,050	-0,062
-139,702	-35,736	-0,098	0,039
-138,687	224,291	-0,039	0,046
-137,672	-200,000	-0,008	-0,054
-136,658	-200,000	0,006	0,276
-135,643	-176,244	-0,037	0,001
-134,629	87,568	0,056	-0,045
-133,614	71,683	-0,100	-0,076
-132,599	8,271	0,015	-0,008
-131,585	347,012	-0,045	0,065
-130,570	222,797	0,142	-0,167
-129,556	-200,000	0,005	-0,094
-128,541	-15,490	-0,105	0,049
-127,526	138,247	0,026	-0,025
-126,512	-200,000	0,002	0,090
-125,497	-200,000	-0,016	-0,087
-124,483	239,886	-0,045	-0,055
-123,468	350,175	-0,054	-0,078
-122,453	800,000	-0,041	-0,095
-121,439	-59,028	-0,121	-0,038
-120,424	-200,000	0,023	-0,104
-119,410	-102,377	-0,057	-0,010
-118,395	96,047	0,057	0,047
-117,380	336,122	0,051	0,072
-116,366	-200,000	-0,009	-0,154
-115,351	167,788	-0,036	-0,037
-114,337	800,000	-0,019	-0,045
-113,322	65,334	-0,075	0,055
-112,307	-125,976	0,106	-0,011
-111,293	-5,131	0,071	-0,035
-110,278	406,922	0,058	0,089
-109,264	-185,850	-0,119	-0,001
-108,249	-200,000	-0,008	-0,052
-107,234	-3,257	0,090	-0,046
-106,220	-200,000	-0,024	0,127
-105,205	-41,957	-0,076	-0,028
-104,191	31,459	0,025	0,015
-103,176	449,850	0,061	0,098
-102,162	11,899	-0,050	-0,028
-101,147	173,784	-0,033	0,035
-100,132	-95,322	0,125	-0,024
-99,118	337,810	0,042	0,059
-98,103	-200,000	0,016	0,217
-97,089	66,262	-0,070	0,052
-96,074	461,888	-0,057	0,093
-95,059	-133,129	-0,055	0,005
-94,045	79,588	0,073	0,057
-93,030	142,693	-0,113	-0,109
-92,016	335,476	0,081	-0,115
-91,001	-88,046	0,042	0,009
-89,986	90,620	-0,025	-0,020
-88,972	162,032	-0,045	-0,046
-87,957	521,099	0,030	0,050
-86,943	-200,000	0,010	0,093
-85,928	800,000	-0,072	-0,168
-84,913	77,995	0,032	-0,024
-83,899	-200,000	0,035	-0,170
-82,884	-200,000	0,004	-0,028
-81,870	-28,585	0,049	-0,020
-80,855	800,000	-0,081	-0,170
-79,840	30,741	0,119	0,074
-78,826	117,744	-0,117	-0,104
-77,811	-75,363	-0,024	0,006
-76,797	800,000	-0,043	0,104
-75,782	-72,312	0,133	0,035
-74,767	98,085	0,103	0,086
-73,753	68,724	-0,112	0,083
-72,738	-199,160	-0,162	-0,001
-71,724	121,478	0,069	-0,063
-70,709	-146,216	-0,045	0,003
-69,694	-200,000	0,002	-0,047
-68,680	-200,000	0,015	0,059
-67,665	-110,602	0,047	0,007
-66,651	-41,684	0,055	0,021
-65,636	162,512	-0,045	0,046
-64,622	506,929	0,076	-0,129
-63,607	-13,238	-0,129	-0,061
-62,592	19,048	-0,186	-0,108
-61,578	-200,000	-0,008	-0,116
-60,563	503,692	-0,132	0,222
-59,549	-200,000	0,001	0,076
-58,534	-167,786	-1,204	-0,034
-57,519	481,316	-0,896	-1,480
-56,505	-200,000	-0,825	-4,398
-55,490	117,589	0,478	-0,426
-54,476	800,000	4,858	11,407
-53,461	-200,000	13,099	249,751
-52,446	-200,000	685,006	2269,833
-51,432	608,644	1618,816	2940,987
-50,417	121,861	1633,989	1477,577
-49,403	74,443	1289,530	981,396
-48,388	38,836	1024,527	661,812
-47,373	24,859	981,852	588,368
-46,359	24,073	971,751	579,720
-45,344	23,144	967,452	574,101
-44,330	23,112	966,140	573,194
-43,315	23,014	964,714	572,006
-42,300	22,956	963,666	571,175
-41,286	23,022	962,624	570,749
-40,271	22,905	961,880	569,906
-39,257	22,949	960,681	569,313
-38,242	22,969	959,890	568,888
-37,227	22,955	959,140	568,375
-36,213	22,906	958,179	567,624
-35,198	22,870	957,378	567,011
-34,184	22,943	956,601	566,765
-33,169	22,907	955,701	566,092
-32,154	22,993	954,706	565,759
-31,140	23,001	953,964	565,320
-30,125	22,967	953,082	564,667
-29,111	23,020	952,338	564,372
-28,096	22,938	951,708	563,714
-27,082	22,948	950,969	563,286
-26,067	22,966	950,279	562,913
-25,052	22,916	949,594	562,326
-24,038	22,953	948,953	562,042
-23,023	23,001	948,205	561,730
-22,009	22,975	947,701	561,327
-20,994	23,015	946,967	560,995
-19,979	22,981	946,385	560,519
-18,965	22,930	945,960	560,086
-17,950	22,990	945,161	559,779
-16,936	23,002	944,383	559,335
-15,921	22,852	943,785	558,483
-14,906	22,876	943,002	558,074
-13,892	22,919	942,214	557,721
-12,877	22,824	941,834	557,172
-11,863	22,782	941,211	556,647
-10,848	22,868	940,527	556,494
-9,833	22,878	940,232	556,330
-8,819	22,917	939,566	556,035
-7,804	22,871	938,956	555,507
-6,790	22,884	938,416	555,207
-5,775	22,946	937,676	554,944
-4,760	22,851	937,243	554,365
-3,746	22,830	936,505	553,841
-2,731	22,742	935,815	553,134
-1,717	22,693	934,992	552,471
-0,702	22,702	934,354	552,098
0,313	22,452	933,794	551,816
1,327	25,018	931,386	558,398
2,342	32,913	810,201	507,136
3,356	28,508	509,316	311,270
4,371	4,472	372,682	197,346
5,386	1,384	355,577	184,502
6,400	-0,308	349,448	179,272
7,415	-1,075	346,648	176,905
8,429	-1,149	345,108	176,015
9,444	-1,163	344,156	175,497
10,459	-1,178	343,384	175,070
11,473	-1,120	342,861	174,856
12,488	-0,860	342,449	174,937
13,502	-0,907	341,989	174,632
14,517	-0,824	341,313	174,369
15,531	-1,246	340,795	173,593
16,546	-1,287	340,324	173,290
17,561	-1,270	339,938	173,097
18,575	-1,276	339,587	172,897
19,590	-1,306	339,197	172,647
20,604	-1,156	338,774	172,592
21,619	-1,324	338,423	172,202
22,634	-1,394	338,203	171,994
23,648	-1,316	337,605	171,765
24,663	-1,332	337,533	171,694
25,677	-1,207	337,126	171,617
26,692	-1,128	336,677	171,464
27,707	-1,271	336,559	171,224
28,721	-1,346	336,272	170,976
29,736	-1,370	335,995	170,792
30,750	-1,329	335,730	170,689
31,765	-1,444	335,466	170,407
32,780	-1,305	335,123	170,378
33,794	-1,214	334,732	170,268
34,809	-1,258	334,413	170,041
35,823	-1,252	334,090	169,868
36,838	-1,437	333,950	169,569
37,853	-1,548	333,782	169,342
38,867	-1,389	333,304	169,266
39,882	-1,374	332,997	169,112
40,896	-1,356	332,768	169,002
41,911	-1,415	332,500	168,783
42,926	-1,356	332,167	168,666
43,940	-1,485	331,988	168,413
44,955	-1,512	331,783	168,263
45,969	-1,539	331,503	168,075
46,984	-1,603	331,107	167,787
47,999	-1,867	330,866	167,351
49,013	-1,989	330,523	167,024
50,028	-1,883	330,242	166,987
51,042	-1,996	329,786	166,614
52,057	-1,993	329,639	166,528
53,071	-2,072	329,321	166,263
54,086	-1,908	329,151	166,348
55,101	-1,930	328,880	166,171
56,115	-1,705	328,972	166,457
57,130	-1,302	328,793	166,805
58,144	-1,232	328,426	166,684
59,159	-1,146	328,331	166,717
60,174	-1,222	328,061	166,479
61,188	-1,217	327,797	166,336
62,203	-1,178	327,381	166,154
63,217	-1,234	327,203	165,986
64,232	-1,234	327,071	165,904
65,247	-1,056	326,775	165,939
66,261	-1,073	326,370	165,698
67,276	-1,296	325,920	165,207
68,290	-1,482	325,758	164,902
69,305	-1,505	325,452	164,707
70,320	-1,579	325,258	164,512
71,334	-1,425	325,169	164,624
72,349	-1,134	324,926	164,809
73,363	-1,264	324,887	164,631
74,378	-1,146	324,451	164,526
75,393	-1,149	324,214	164,387
76,407	-1,147	323,923	164,228
77,422	-1,246	323,683	163,982
78,436	-1,084	323,456	164,032
79,451	-1,006	323,201	163,974
80,466	-1,177	322,839	163,587
81,480	-1,468	322,670	163,165
82,495	-1,572	322,179	162,789
83,509	-1,507	322,105	162,808
84,524	-1,509	321,799	162,636
85,539	-1,697	321,569	162,299
86,553	-1,650	321,220	162,160
87,568	-1,686	321,083	162,037
88,582	-1,540	320,929	162,104
89,597	-1,473	320,575	161,985
90,611	-1,322	320,395	162,044
91,626	-1,201	320,255	162,092
92,641	-1,237	320,122	161,971
93,655	-1,427	319,941	161,657
94,670	-1,441	319,524	161,417
95,684	-1,363	319,308	161,379
96,699	-1,331	319,110	161,299
97,714	-1,457	318,872	161,027
98,728	-1,662	318,713	160,709
99,743	-1,506	318,226	160,619
100,757	-1,617	318,100	160,420
101,772	-1,506	317,836	160,394
102,787	-1,579	317,653	160,207
103,801	-1,437	317,365	160,202
104,816	-1,503	317,475	160,171
105,830	-1,343	317,191	160,187
106,845	-1,063	316,861	160,309
107,860	-1,114	316,691	160,154
108,874	-1,300	316,386	159,784
109,889	-1,453	316,133	159,477
110,903	-1,461	315,884	159,328
111,918	-1,450	315,621	159,193
112,933	-1,197	315,376	159,328
113,947	-1,367	315,237	159,060
114,962	-1,361	315,092	158,980
115,976	-1,297	314,820	158,897
116,991	-1,432	314,636	158,645
118,006	-1,332	314,437	158,638
119,020	-1,215	314,193	158,626
120,035	-1,207	314,084	158,565
121,049	-1,239	313,847	158,397
122,064	-1,163	313,543	158,311
123,079	-1,208	313,377	158,165
124,093	-1,460	313,137	157,761
125,108	-1,609	312,775	157,405
126,122	-1,796	312,502	157,055
127,137	-1,769	312,188	156,911
128,151	-1,713	312,006	156,866
129,166	-1,660	311,981	156,896
130,181	-1,601	311,636	156,771
131,195	-1,635	311,395	156,600
132,210	-1,550	311,189	156,572
133,224	-1,419	311,067	156,636
134,239	-1,276	310,839	156,658
135,254	-1,220	310,633	156,600
136,268	-1,480	310,273	156,129
137,283	-1,694	310,047	155,776
138,297	-1,683	309,848	155,673
139,312	-1,795	309,602	155,418
140,327	-1,438	309,627	155,794
141,341	-1,018	309,361	156,087
142,356	-1,023	309,207	155,991
143,370	-0,934	309,195	156,064
144,385	-0,817	308,864	156,006
145,400	-1,023	308,603	155,645
146,414	-0,956	308,374	155,585
147,429	-1,056	308,189	155,373
148,443	-0,976	308,026	155,361
149,458	-1,080	307,919	155,184
150,473	-0,957	307,701	155,189
151,487	-1,031	307,353	154,922
152,502	-0,974	306,952	154,766
153,516	-1,087	307,014	154,665
154,531	-1,040	306,798	154,591
155,546	-0,949	306,473	154,510
156,560	-1,047	306,245	154,279
157,575	-1,314	305,913	153,819
158,589	-1,094	305,675	153,915
159,604	-0,881	305,390	153,979
160,619	-1,183	305,440	153,677
161,633	-1,066	305,264	153,696
162,648	-0,947	305,014	153,679
163,662	-1,036	304,883	153,508
164,677	-0,929	304,473	153,398
165,692	-0,928	304,339	153,318
166,706	-0,874	304,191	153,285
167,721	-1,074	303,949	152,944
168,735	-1,038	303,748	152,866
169,750	-0,888	303,658	152,962
170,764	-0,873	303,602	152,935
171,779	-1,013	303,418	152,685
172,794	-0,847	303,222	152,744
173,808	-0,965	302,903	152,448
174,823	-1,383	302,470	151,787
175,837	-1,560	302,185	151,449
176,852	-1,115	302,313	151,956
177,867	-0,944	302,227	152,075
178,881	-0,822	301,885	152,014
179,896	-0,729	301,649	151,977
180,910	-0,732	301,445	151,857
181,925	-0,810	301,341	151,711
182,940	-0,763	301,130	151,640
183,954	-0,766	300,962	151,539
184,969	-0,705	300,605	151,407
185,983	-1,105	300,515	150,941
186,998	-0,986	300,319	150,950
188,013	-1,016	300,171	150,832
189,027	-0,851	299,790	150,795
190,042	-0,816	299,724	150,783
191,056	-0,685	299,466	150,773
192,071	-0,812	299,445	150,620
193,086	-0,695	299,175	150,590
194,100	-0,839	299,074	150,380
195,115	-0,701	298,700	150,318
196,129	-0,800	298,491	150,099
197,144	-0,736	298,212	150,010
198,159	-0,851	298,195	149,872
199,173	-0,684	297,965	149,911
200,188	-0,688	297,811	149,816
201,202	-0,825	297,310	149,413
202,217	-1,367	297,006	148,703
203,232	-1,587	296,866	148,399
204,246	-1,028	296,701	148,864
205,261	-0,667	296,708	149,216
206,275	-0,884	296,516	148,889
207,290	-0,803	296,296	148,847
208,304	-0,836	296,031	148,667
209,319	-0,781	295,862	148,624
210,334	-0,712	295,593	148,544
211,348	-0,975	295,528	148,235
212,363	-0,856	295,274	148,214
213,377	-0,912	295,110	148,063
214,392	-0,751	294,907	148,107
215,407	-1,060	294,576	147,621
216,421	-1,033	294,226	147,459
217,436	-1,189	294,165	147,261
218,450	-1,266	294,049	147,112
219,465	-1,086	293,937	147,222
220,480	-0,966	293,718	147,219
221,494	-0,965	293,492	147,093
222,509	-1,116	293,410	146,889
223,523	-0,853	293,080	146,971
224,538	-0,833	293,076	146,975
225,553	-0,697	292,751	146,935
226,567	-0,731	292,734	146,879
227,582	-0,670	292,475	146,796
228,596	-0,835	292,455	146,610
229,611	-0,590	292,296	146,759
230,626	-0,818	291,981	146,363
231,640	-1,193	291,591	145,786
232,655	-1,611	291,298	145,215
233,669	-1,577	290,941	145,058
234,684	-1,503	290,856	145,074
235,699	-1,231	290,626	145,214
236,713	-1,285	290,645	145,157
237,728	-0,979	290,379	145,312
238,742	-1,075	290,377	145,204
239,757	-0,834	290,209	145,342
240,772	-0,913	290,010	145,152
241,786	-0,799	289,688	145,090
242,801	-1,027	289,474	144,747
243,815	-1,144	289,378	144,572
244,830	-0,997	289,122	144,575
245,844	-1,122	288,890	144,324
246,859	-1,085	288,727	144,266
247,874	-1,120	288,513	144,112
248,888	-1,134	288,376	144,017
249,903	-0,794	288,307	144,300
250,917	-0,913	288,173	144,104
251,932	-0,535	287,967	144,355
252,947	-0,062	288,212	144,924
253,961	-0,315	287,793	144,455
254,976	0,682	288,025	145,525
255,990	2,851	288,670	147,942
257,005	3,316	288,625	148,357
258,020	4,127	288,947	149,295
259,034	4,295	289,004	149,475
260,049	4,147	288,603	149,110
261,063	4,015	288,364	148,846
262,078	4,308	288,204	149,033
263,093	5,006	288,341	149,765
264,107	4,705	288,171	149,373
265,122	4,788	288,094	149,400
266,136	5,056	287,918	149,553
267,151	4,772	287,774	149,192
268,166	4,642	287,384	148,851
269,180	4,812	287,121	148,865
270,195	4,714	286,974	148,681
271,209	4,796	286,714	148,612
272,224	4,713	286,557	148,438
273,239	4,489	286,449	148,153
274,253	4,595	286,299	148,165
275,268	5,094	286,104	148,529
276,282	5,212	285,877	148,511
277,297	4,803	285,682	148,004
278,312	4,863	285,676	148,046
279,326	5,006	285,344	147,997
280,341	4,752	285,287	147,712
281,355	4,676	284,822	147,385
282,370	4,602	284,695	147,236
283,384	4,549	284,462	147,052
284,399	4,767	284,285	147,155
285,414	4,544	284,392	146,985
286,428	4,473	284,070	146,737
287,443	4,456	283,773	146,556
288,457	4,257	283,429	146,176
289,472	4,150	283,495	146,095
290,487	4,273	283,167	146,030
291,501	4,317	283,018	145,982
292,516	4,073	282,752	145,600
293,530	4,020	282,655	145,488
294,545	4,493	282,440	145,811
295,560	4,510	282,330	145,757
296,574	4,279	281,906	145,307
297,589	4,288	282,028	145,365
298,603	4,676	282,003	145,705
299,618	4,702	281,892	145,659
300,633	4,567	281,507	145,321
301,647	4,445	281,383	145,129
302,662	4,513	281,143	145,056
303,676	4,409	280,905	144,822
304,691	4,097	280,578	144,349
305,706	4,301	280,294	144,381
306,720	4,152	280,230	144,196
307,735	4,102	280,096	144,067
308,749	4,484	279,841	144,280
309,764	4,330	279,744	144,074
310,779	4,103	279,552	143,750
311,793	3,985	279,116	143,403
312,808	4,203	279,085	143,578
313,822	4,065	278,997	143,390
314,837	4,027	278,738	143,210
315,852	3,934	278,581	143,029
316,866	4,088	278,444	143,089
317,881	4,123	278,279	143,024
318,895	4,206	277,930	142,909
319,910	3,972	277,802	142,614
320,925	4,009	277,567	142,515
321,939	4,150	277,537	142,617
322,954	4,276	277,421	142,661
323,968	4,235	277,286	142,541
324,983	4,467	277,036	142,615
325,997	4,373	276,952	142,471
327,012	4,279	276,815	142,301
328,027	4,383	276,571	142,260
329,041	4,292	276,295	142,021
330,056	4,243	276,312	141,972
331,070	4,179	276,144	141,814
332,085	4,165	275,786	141,605
333,100	4,226	275,659	141,583
334,114	4,021	275,507	141,304
335,129	3,931	275,261	141,082
336,143	4,238	275,310	141,376
337,158	4,449	275,062	141,430
338,173	4,341	274,920	141,246
339,187	4,410	274,573	141,118
340,202	4,380	274,427	141,003
341,216	4,290	274,186	140,784
342,231	4,327	274,168	140,796
343,246	4,333	273,944	140,674
344,260	4,239	273,662	140,431
345,275	4,463	273,717	140,651
346,289	4,616	273,595	140,715
347,304	4,745	273,409	140,724
348,319	4,367	273,221	140,271
349,333	4,461	272,986	140,223
350,348	4,583	272,867	140,261
351,362	4,756	272,718	140,329
352,377	4,443	272,536	139,938
353,392	4,608	272,314	139,962
354,406	4,542	272,254	139,859
355,421	190,667	1334,395	1410,099
356,435	153,977	1463,918	1410,239
