DTS Sentinel unit serial number:	SN410029Multiplexer serial number:	ORYXHardware model number:	OX2-SRSoftware version number:	ORYX F/W v4,00 Oryx Data Collector v3.7.2.0data status	okinstallation	B4 Nyhavnadifferential loss correction	single-endedforward channel	channel 2reverse channel	N/Adate	2023/12/19time	10:40:13forward acquisition time	300,00reverse acquisition time	0,00gamma	499,1914k internal	0,3127k external	0,3127temperature offset calibration	1,0000default loss term (dB/km)	0,3820temperature slope calibration	1,0000multiplexer offset coefficient	1,0000multiplexer slope coefficient	1,0000fibre end	0,00T internal ref (°C)	20,01T ext. ref 1 (°C)	4,73T ext. ref 2 (°C)	4,69length (m)	temperature (°C)	Stokes	anti-Stokes-744,400	315,136	0,051	-0,072
-743,385	-171,651	-0,244	-0,006
-742,371	800,000	0,061	0,161
-741,356	7,913	-0,186	0,103
-740,342	-57,551	0,111	0,036
-739,327	41,766	-0,148	0,100
-738,312	-200,000	-0,014	0,060
-737,298	24,370	-0,347	0,213
-736,283	-95,752	-0,051	0,010
-735,269	-25,860	-0,180	-0,079
-734,254	800,000	0,069	-0,160
-733,239	-1,535	-0,412	-0,215
-732,225	-9,996	0,113	-0,056
-731,210	-4,544	0,059	0,030
-730,196	633,124	-0,042	0,080
-729,181	238,971	-0,071	0,088
-728,167	77,089	-0,025	0,019
-727,152	-121,974	-0,129	-0,016
-726,137	121,501	0,138	-0,128
-725,123	-19,704	-0,146	0,067
-724,108	47,789	-0,055	-0,038
-723,094	94,958	-0,090	-0,076
-722,079	800,000	-0,017	-0,041
-721,064	175,107	-0,088	0,094
-720,050	-135,692	0,080	0,007
-719,035	-200,000	-0,001	-0,099
-718,021	43,955	-0,082	0,056
-717,006	-99,441	-0,158	-0,029
-715,991	-166,667	-0,051	-0,002
-714,977	-110,592	-0,119	-0,018
-713,962	-200,000	-0,002	-0,045
-712,948	-87,051	0,049	-0,011
-711,933	57,708	0,022	0,016
-710,918	474,744	-0,013	0,022
-709,904	7,513	-0,041	-0,023
-708,889	-200,000	0,003	-0,059
-707,875	-200,000	0,025	-0,161
-706,860	-155,076	0,008	0,000
-705,845	770,168	0,055	-0,113
-704,831	652,735	-0,066	0,126
-703,816	292,694	0,041	0,056
-702,802	-99,982	-0,056	-0,010
-701,787	218,499	0,147	-0,175
-700,772	-200,000	0,023	-0,177
-699,758	7,341	-0,123	-0,068
-698,743	800,000	0,097	0,204
-697,729	643,254	-0,025	0,047
-696,714	800,000	0,043	-0,107
-695,699	-200,000	0,021	0,081
-694,685	99,144	-0,038	0,033
-693,670	-33,394	-0,068	-0,028
-692,656	-116,682	-0,066	-0,009
-691,641	800,000	0,052	-0,115
-690,627	800,000	0,033	-0,074
-689,612	65,956	0,114	-0,086
-688,597	291,907	0,004	-0,006
-687,583	-200,000	0,009	-0,126
-686,568	88,819	-0,118	-0,097
-685,554	-200,000	0,006	-0,046
-684,539	-200,000	-0,052	0,199
-683,524	13,538	0,074	0,042
-682,510	-37,058	-0,087	0,035
-681,495	-120,631	0,075	-0,009
-680,481	64,438	-0,069	-0,052
-679,466	-29,124	-0,062	-0,026
-678,451	-129,020	-0,115	-0,012
-677,437	79,388	-0,062	0,049
-676,422	-200,000	0,002	-0,120
-675,408	76,890	-0,089	0,070
-674,393	-69,506	0,030	0,009
-673,378	1,469	-0,144	-0,077
-672,364	-15,142	0,080	-0,038
-671,349	28,782	-0,095	-0,059
-670,335	-83,667	-0,136	0,032
-669,320	800,000	0,033	-0,071
-668,305	-68,745	-0,037	-0,010
-667,291	2,704	-0,019	0,010
-666,276	94,347	0,085	-0,071
-665,262	-78,528	-0,070	0,018
-664,247	800,000	-0,045	0,093
-663,232	800,000	0,065	0,197
-662,218	172,572	0,101	-0,108
-661,203	284,963	-0,059	0,078
-660,189	384,375	0,048	0,073
-659,174	-146,825	0,114	0,007
-658,159	800,000	0,022	-0,051
-657,145	-200,000	-0,012	-0,104
-656,130	-25,533	-0,093	-0,040
-655,116	-200,000	0,023	0,108
-654,101	-130,942	0,146	0,014
-653,086	800,000	-0,037	0,106
-652,072	663,330	-0,037	0,071
-651,057	-130,997	-0,074	0,007
-650,043	-200,000	0,014	0,073
-649,028	-119,818	0,073	-0,009
-648,014	-200,000	-0,037	0,192
-646,999	219,950	0,023	0,028
-645,984	111,945	0,165	-0,148
-644,970	360,228	-0,082	-0,122
-643,955	48,178	-0,159	-0,110
-642,941	-134,110	0,040	-0,004
-641,926	-130,739	-0,005	0,001
-640,911	800,000	0,027	0,076
-639,897	-200,000	-0,004	-0,034
-638,882	-160,345	0,019	0,001
-637,868	800,000	-0,044	-0,096
-636,853	518,008	-0,079	-0,137
-635,838	-66,678	-0,055	0,016
-634,824	247,438	-0,037	0,046
-633,809	-118,936	-0,030	-0,004
-632,795	-20,929	0,111	0,050
-631,780	-200,000	-0,012	-0,081
-630,765	375,167	0,093	-0,142
-629,751	-200,000	-0,034	-0,174
-628,736	-200,000	-0,005	-0,018
-627,722	-8,346	0,084	-0,042
-626,707	-200,000	-0,007	-0,025
-625,692	34,525	-0,077	0,050
-624,678	-200,000	-0,005	0,072
-623,663	102,007	-0,090	-0,078
-622,649	162,411	-0,040	-0,041
-621,634	-200,000	0,012	0,048
-620,619	800,000	0,025	-0,057
-619,605	800,000	0,017	-0,035
-618,590	-34,551	0,056	-0,023
-617,576	-128,872	0,140	0,014
-616,561	307,656	-0,075	0,104
-615,546	-139,657	0,076	0,006
-614,532	-200,000	0,016	-0,092
-613,517	-200,000	0,020	-0,155
-612,503	-92,029	0,028	-0,006
-611,488	-200,000	0,001	-0,042
-610,474	-155,871	0,026	-0,001
-609,459	-96,829	0,020	0,004
-608,444	-41,256	-0,066	-0,025
-607,430	-129,377	-0,167	-0,017
-606,415	-171,187	0,047	0,001
-605,401	-101,652	-0,165	0,029
-604,386	-125,358	-0,134	-0,015
-603,371	443,788	-0,043	0,070
-602,357	191,209	-0,038	0,042
-601,342	-33,815	-0,103	-0,042
-600,328	28,330	0,043	-0,027
-599,313	-200,000	-0,012	0,112
-598,298	-109,058	0,177	-0,028
-597,284	-132,242	0,046	-0,004
-596,269	800,000	0,038	0,097
-595,255	438,217	-0,075	0,122
-594,240	229,327	-0,024	-0,029
-593,225	-48,014	-0,123	0,044
-592,211	113,744	0,108	-0,097
-591,196	85,875	-0,069	0,056
-590,182	-65,133	-0,050	0,015
-589,167	-200,000	0,020	0,084
-588,152	240,606	0,056	-0,069
-587,138	272,149	0,054	-0,071
-586,123	-45,888	-0,097	0,035
-585,109	533,280	-0,036	0,063
-584,094	-185,562	-0,027	0,000
-583,079	-200,000	0,049	0,179
-582,065	-200,000	-0,005	0,210
-581,050	12,606	0,095	0,054
-580,036	182,470	-0,047	-0,051
-579,021	369,750	-0,056	-0,085
-578,006	218,579	-0,076	-0,090
-576,992	643,152	-0,043	0,082
-575,977	-88,187	0,064	0,014
-574,963	-66,208	0,062	0,018
-573,948	-67,602	-0,108	0,031
-572,934	199,064	-0,025	0,028
-571,919	-8,411	-0,060	0,030
-570,904	268,379	-0,086	-0,112
-569,890	584,191	-0,031	-0,056
-568,875	121,953	-0,057	0,052
-567,861	-48,904	0,010	-0,004
-566,846	749,487	0,059	0,118
-565,831	2,580	0,038	0,020
-564,817	-70,917	-0,090	-0,025
-563,802	-67,853	0,080	-0,023
-562,788	22,125	-0,057	0,034
-561,773	800,000	0,011	0,035
-560,758	-57,801	0,084	0,027
-559,744	147,985	0,048	-0,048
-558,729	-47,451	0,097	0,035
-557,715	11,279	-0,047	-0,027
-556,700	-50,337	0,151	-0,052
-555,685	-72,394	-0,134	-0,036
-554,671	800,000	-0,006	0,017
-553,656	800,000	-0,015	0,031
-552,642	-200,000	0,005	0,050
-551,627	-15,814	-0,054	-0,025
-550,612	800,000	0,021	-0,055
-549,598	800,000	-0,073	-0,207
-548,583	-48,099	-0,180	0,064
-547,569	800,000	0,019	-0,057
-546,554	29,629	0,059	0,037
-545,539	-200,000	0,005	0,123
-544,525	-200,000	-0,011	0,051
-543,510	76,288	-0,059	-0,046
-542,496	192,500	0,040	-0,045
-541,481	-169,887	-0,051	-0,001
-540,466	800,000	0,032	0,104
-539,452	86,508	-0,100	-0,082
-538,437	-200,000	-0,040	0,182
-537,423	74,097	0,055	0,043
-536,408	161,429	-0,017	-0,017
-535,393	99,340	-0,091	0,077
-534,379	-110,284	-0,094	0,014
-533,364	-200,000	-0,016	-0,053
-532,350	330,036	0,068	0,097
-531,335	477,849	0,035	0,059
-530,321	-189,268	0,043	-0,000
-529,306	800,000	-0,033	-0,075
-528,291	22,863	-0,039	-0,024
-527,277	-200,000	-0,002	0,044
-526,262	166,977	0,055	0,058
-525,248	-200,000	0,046	0,174
-524,233	800,000	0,043	-0,089
-523,218	6,779	0,153	0,084
-522,204	-83,184	-0,208	-0,049
-521,189	-46,161	-0,137	0,050
-520,175	277,042	0,062	-0,081
-519,160	61,860	-0,050	-0,037
-518,145	-200,000	0,006	-0,021
-517,131	491,329	0,017	-0,029
-516,116	-113,322	-0,010	0,001
-515,102	38,840	0,111	0,073
-514,087	-200,000	0,035	0,156
-513,072	-83,591	-0,189	-0,044
-512,058	-15,825	-0,064	0,030
-511,043	-146,051	0,202	-0,013
-510,029	-13,197	0,062	-0,030
-509,014	437,229	-0,031	0,049
-507,999	800,000	-0,033	0,090
-506,985	209,199	-0,115	0,133
-505,970	245,690	-0,051	-0,064
-504,956	-200,000	-0,014	-0,134
-503,941	458,273	-0,054	0,088
-502,926	800,000	0,050	-0,150
-501,912	568,577	-0,056	0,100
-500,897	-24,942	-0,035	0,015
-499,883	-200,000	0,010	-0,049
-498,868	-192,612	-0,005	0,000
-497,853	41,928	-0,148	-0,099
-496,839	180,065	0,037	-0,040
-495,824	-131,034	-0,119	-0,012
-494,810	226,147	-0,062	0,075
-493,795	-39,032	0,030	0,012
-492,781	-200,000	-0,025	0,120
-491,766	287,211	0,027	-0,036
-490,751	5,736	-0,121	0,066
-489,737	276,786	-0,063	0,082
-488,722	9,472	0,080	-0,044
-487,708	-91,467	0,041	0,009
-486,693	607,589	0,051	0,095
-485,678	129,283	0,016	-0,015
-484,664	800,000	0,019	-0,055
-483,649	800,000	-0,026	0,055
-482,635	-200,000	-0,004	-0,020
-481,620	-200,000	0,006	0,071
-480,605	77,799	0,024	-0,019
-479,591	-84,215	0,062	0,014
-478,576	71,165	-0,074	0,057
-477,562	-200,000	0,001	0,072
-476,547	-111,244	-0,061	0,009
-475,532	-200,000	-0,002	-0,136
-474,518	348,435	-0,035	-0,051
-473,503	-54,011	-0,040	-0,013
-472,489	403,763	0,122	0,189
-471,474	53,827	-0,056	0,039
-470,459	-200,000	-0,014	-0,100
-469,445	800,000	-0,066	-0,180
-468,430	105,310	-0,077	-0,067
-467,416	167,635	0,047	0,049
-466,401	-200,000	0,000	-0,019
-465,386	-200,000	0,000	0,009
-464,372	545,071	0,071	0,125
-463,357	-200,000	0,028	-0,099
-462,343	-200,000	0,003	0,011
-461,328	-187,127	0,084	0,001
-460,313	-39,378	-0,070	0,027
-459,299	-75,500	0,039	0,010
-458,284	225,811	-0,040	-0,047
-457,270	-200,000	0,003	0,030
-456,255	-40,816	0,033	-0,012
-455,241	94,741	-0,046	-0,039
-454,226	67,391	-0,044	-0,033
-453,211	302,974	0,066	-0,090
-452,197	-200,000	0,044	0,145
-451,182	-200,000	0,013	0,167
-450,168	-78,934	-0,052	0,013
-449,153	-126,131	-0,145	0,016
-448,138	343,148	-0,070	-0,102
-447,124	252,619	-0,060	0,076
-446,109	-30,293	-0,075	0,031
-445,095	-31,432	0,068	0,028
-444,080	800,000	-0,043	-0,099
-443,065	-74,268	-0,153	0,040
-442,051	-200,000	-0,004	0,021
-441,036	59,697	0,134	-0,097
-440,022	-200,000	0,027	-0,114
-439,007	688,100	0,021	-0,041
-437,992	116,238	0,129	0,116
-436,978	-11,803	-0,049	-0,024
-435,963	-200,000	0,009	-0,122
-434,949	553,183	-0,050	0,088
-433,934	-200,000	0,011	0,045
-432,919	-200,000	-0,063	-0,246
-431,905	-200,000	-0,005	-0,158
-430,890	-28,661	0,059	0,025
-429,876	552,283	0,026	0,047
-428,861	561,050	-0,086	-0,153
-427,846	-200,000	-0,002	-0,072
-426,832	-123,299	-0,026	0,003
-425,817	266,377	0,091	-0,117
-424,803	-97,271	0,034	0,006
-423,788	-200,000	0,012	-0,055
-422,773	28,686	0,061	0,038
-421,759	-200,000	-0,027	0,102
-420,744	-43,609	-0,062	0,023
-419,730	-200,000	-0,021	0,074
-418,715	67,452	-0,136	0,102
-417,701	-200,000	0,023	-0,155
-416,686	341,111	-0,032	0,046
-415,671	-137,902	0,041	0,003
-414,657	-150,074	-0,134	0,008
-413,642	1,570	-0,030	-0,016
-412,628	-200,000	0,015	0,098
-411,613	423,587	-0,051	0,081
-410,598	800,000	-0,019	-0,057
-409,584	800,000	-0,006	-0,015
-408,569	800,000	0,037	0,085
-407,555	140,660	-0,075	-0,073
-406,540	-6,933	0,024	-0,012
-405,525	429,289	-0,034	-0,054
-404,511	-200,000	-0,032	-0,157
-403,496	216,305	0,098	0,114
-402,482	-8,822	0,102	0,050
-401,467	100,816	-0,074	0,063
-400,452	-35,869	-0,066	-0,026
-399,438	547,243	0,098	-0,172
-398,423	164,320	-0,077	0,079
-397,409	476,936	-0,094	-0,157
-396,394	124,697	-0,041	-0,038
-395,379	800,000	0,013	-0,042
-394,365	-57,857	-0,132	0,042
-393,350	73,558	0,036	0,028
-392,336	162,757	0,092	0,095
-391,321	-52,052	0,055	0,019
-390,306	-200,000	0,013	-0,129
-389,292	47,997	-0,114	0,078
-388,277	-200,000	-0,001	-0,168
-387,263	-86,918	-0,069	-0,015
-386,248	-200,000	0,014	0,121
-385,233	56,429	-0,026	0,018
-384,219	-101,873	0,145	-0,026
-383,204	-114,904	-0,079	0,011
-382,190	18,079	-0,198	-0,116
-381,175	489,765	0,032	-0,053
-380,160	-129,062	0,146	-0,015
-379,146	800,000	-0,059	-0,166
-378,131	-200,000	0,013	-0,087
-377,117	800,000	0,013	0,028
-376,102	-4,217	0,067	-0,034
-375,088	67,013	0,062	0,046
-374,073	-5,057	0,088	0,044
-373,058	-200,000	0,024	0,082
-372,044	-200,000	0,009	0,083
-371,029	137,233	-0,040	0,038
-370,015	-200,000	-0,036	-0,143
-369,000	30,169	-0,105	-0,065
-367,985	-200,000	-0,006	-0,121
-366,971	800,000	0,006	0,013
-365,956	19,530	0,055	0,032
-364,942	77,859	-0,097	0,075
-363,927	-200,000	-0,016	0,057
-362,912	-200,000	0,021	0,097
-361,898	-192,489	-0,075	0,001
-360,883	93,587	-0,094	-0,078
-359,869	-200,000	0,015	0,056
-358,854	-200,000	0,007	0,074
-357,839	800,000	0,024	0,061
-356,825	-200,000	-0,006	0,129
-355,810	131,694	0,042	0,040
-354,796	-200,000	-0,011	-0,071
-353,781	505,480	-0,054	-0,092
-352,766	800,000	0,028	-0,079
-351,752	-200,000	0,006	-0,034
-350,737	800,000	0,045	0,129
-349,723	113,029	-0,021	-0,019
-348,708	268,943	0,037	0,047
-347,693	-94,387	0,026	-0,005
-346,679	13,112	0,074	0,042
-345,664	800,000	0,049	-0,127
-344,650	-200,000	-0,020	-0,164
-343,635	-77,591	0,062	-0,016
-342,620	-200,000	-0,035	0,177
-341,606	-137,146	0,091	-0,007
-340,591	800,000	0,015	-0,041
-339,577	-200,000	-0,005	-0,149
-338,562	81,259	0,022	0,017
-337,548	-200,000	-0,004	-0,030
-336,533	-200,000	0,002	0,033
-335,518	800,000	0,048	0,102
-334,504	-119,590	-0,093	0,012
-333,489	528,681	-0,032	0,056
-332,475	251,764	0,075	-0,093
-331,460	-200,000	0,049	-0,210
-330,445	800,000	-0,041	-0,105
-329,431	249,448	0,079	-0,098
-328,416	153,515	-0,152	0,152
-327,402	-140,083	0,178	-0,014
-326,387	-200,000	0,014	0,050
-325,372	642,165	0,021	0,039
-324,358	-27,737	-0,095	-0,040
-323,343	-46,876	0,030	-0,011
-322,329	-200,000	-0,015	0,090
-321,314	-200,000	0,007	-0,036
-320,299	-61,716	-0,156	-0,047
-319,285	-140,282	0,108	0,008
-318,270	-200,000	0,027	0,167
-317,256	-3,435	0,006	-0,003
-316,241	-200,000	0,028	-0,141
-315,226	524,546	0,050	-0,087
-314,212	542,708	-0,069	-0,121
-313,197	-200,000	0,029	0,115
-312,183	-105,750	0,070	0,012
-311,168	-62,428	0,067	-0,020
-310,153	-133,420	-0,155	-0,014
-309,139	533,264	-0,033	-0,058
-308,124	580,237	-0,044	-0,079
-307,110	237,926	0,039	0,047
-306,095	-200,000	0,005	0,017
-305,080	-42,590	-0,148	0,055
-304,066	800,000	0,023	-0,069
-303,051	-200,000	-0,011	-0,092
-302,037	800,000	0,049	-0,110
-301,022	293,187	-0,058	0,078
-300,008	-100,601	-0,108	0,019
-298,993	-110,915	-0,034	-0,005
-297,978	31,611	0,060	0,038
-296,964	-21,722	-0,062	0,027
-295,949	800,000	-0,003	-0,006
-294,935	190,873	-0,056	0,062
-293,920	274,765	-0,015	0,019
-292,905	90,634	0,100	-0,082
-291,891	77,713	0,104	0,081
-290,876	572,269	-0,027	0,049
-289,862	-131,499	0,190	-0,018
-288,847	-139,368	0,130	-0,010
-287,832	458,562	-0,100	0,164
-286,818	258,478	0,089	0,113
-285,803	248,829	0,059	0,073
-284,789	7,419	0,198	0,108
-283,774	-135,616	-0,144	-0,012
-282,759	-200,000	-0,029	0,167
-281,745	246,253	0,042	-0,052
-280,730	75,352	0,085	-0,065
-279,716	-200,000	0,000	0,010
-278,701	-85,893	0,105	-0,024
-277,686	-168,199	0,114	-0,003
-276,672	800,000	-0,018	-0,037
-275,657	59,309	0,039	0,028
-274,643	-106,879	0,067	-0,011
-273,628	-200,000	-0,017	-0,076
-272,613	269,926	0,042	0,055
-271,599	-72,538	-0,028	-0,007
-270,584	-200,000	0,017	0,107
-269,570	-116,319	-0,035	-0,005
-268,555	153,650	-0,033	0,033
-267,540	87,220	-0,068	0,055
-266,526	-200,000	-0,024	-0,231
-265,511	-159,611	-0,043	0,002
-264,497	800,000	-0,049	0,115
-263,482	-45,020	0,183	0,066
-262,467	-200,000	0,004	-0,061
-261,453	-1,539	-0,061	-0,031
-260,438	-42,040	-0,121	0,045
-259,424	20,183	0,227	0,133
-258,409	-45,474	-0,109	-0,039
-257,395	-10,100	0,065	-0,031
-256,380	-200,000	0,021	0,095
-255,365	-151,952	0,024	0,001
-254,351	800,000	-0,009	-0,022
-253,336	267,868	-0,033	-0,042
-252,322	-19,470	-0,046	-0,021
-251,307	-200,000	-0,056	0,000
-250,292	-55,384	-0,199	0,065
-249,278	481,073	0,092	0,154
-248,263	800,000	0,031	0,072
-247,249	-40,573	0,177	0,067
-246,234	-124,699	-0,176	-0,020
-245,219	-200,000	-0,007	-0,030
-244,205	-2,257	-0,057	0,029
-243,190	119,287	-0,118	-0,106
-242,176	-71,077	0,169	0,046
-241,161	159,351	0,126	-0,128
-240,146	-200,000	0,024	0,099
-239,132	-200,000	-0,018	0,066
-238,117	800,000	-0,015	0,036
-237,103	800,000	0,011	-0,028
-236,088	291,741	0,074	0,099
-235,073	-138,563	0,020	0,002
-234,059	-200,000	-0,017	0,072
-233,044	800,000	-0,011	-0,034
-232,030	55,239	0,039	-0,028
-231,015	-198,880	-0,131	0,001
-230,000	39,239	0,117	-0,076
-228,986	220,595	0,081	0,095
-227,971	-200,000	-0,021	0,151
-226,957	431,375	0,043	0,068
-225,942	-200,000	0,003	-0,215
-224,927	-53,807	0,037	-0,012
-223,913	-68,071	-0,100	-0,028
-222,898	25,277	-0,084	-0,051
-221,884	-42,259	-0,090	0,034
-220,869	134,259	0,083	0,078
-219,855	109,238	-0,041	0,036
-218,840	483,015	0,005	-0,009
-217,825	787,105	0,056	-0,113
-216,811	-127,323	-0,114	0,012
-215,796	-33,529	-0,022	0,009
-214,782	800,000	0,055	-0,138
-213,767	-200,000	0,015	-0,106
-212,752	-116,374	0,096	0,013
-211,738	-62,993	-0,074	-0,022
-210,723	-24,573	0,104	0,045
-209,709	-63,364	0,057	0,017
-208,694	-200,000	0,005	0,020
-207,679	204,504	-0,035	-0,040
-206,665	800,000	0,020	0,046
-205,650	-67,480	0,062	0,018
-204,636	-57,504	-0,111	-0,035
-203,621	-200,000	0,009	0,174
-202,606	-3,805	-0,063	-0,032
-201,592	800,000	0,039	-0,089
-200,577	-116,511	-0,095	-0,013
-199,563	65,200	0,132	-0,097
-198,548	167,818	0,046	-0,048
-197,533	-131,007	0,047	-0,004
-196,519	800,000	0,017	0,052
-195,504	-200,000	0,003	0,074
-194,490	-200,000	-0,010	-0,105
-193,475	-84,349	-0,063	0,014
-192,460	-200,000	0,031	-0,104
-191,446	-61,712	-0,042	-0,013
-190,431	-114,102	0,114	0,016
-189,417	-96,277	0,044	0,008
-188,402	460,268	-0,015	0,024
-187,387	-45,670	0,043	-0,016
-186,373	95,313	0,044	0,037
-185,358	-200,000	-0,000	-0,004
-184,344	-159,488	0,161	-0,006
-183,329	111,685	0,147	-0,130
-182,315	-200,000	0,000	-0,111
-181,300	377,933	-0,115	-0,171
-180,285	800,000	0,057	-0,121
-179,271	104,862	0,042	-0,036
-178,256	800,000	-0,031	-0,064
-177,242	-76,325	0,088	-0,022
-176,227	285,843	0,038	-0,049
-175,212	800,000	-0,008	0,019
-174,198	-200,000	0,022	0,125
-173,183	800,000	0,023	-0,057
-172,169	10,030	-0,096	0,053
-171,154	115,419	-0,078	-0,069
-170,139	-200,000	0,003	-0,053
-169,125	-200,000	-0,016	0,070
-168,110	153,876	0,116	0,116
-167,096	67,633	0,108	-0,080
-166,081	-61,050	-0,110	0,034
-165,066	719,132	0,034	0,067
-164,052	-64,525	0,067	-0,020
-163,037	26,635	0,104	0,063
-162,023	395,374	0,036	0,055
-161,008	-177,524	0,021	-0,000
-159,993	800,000	0,014	0,029
-158,979	-55,377	0,127	-0,041
-157,964	-200,000	-0,017	0,144
-156,950	-9,345	-0,080	-0,039
-155,935	-76,733	0,215	0,054
-154,920	-155,869	0,084	-0,004
-153,906	223,496	0,131	0,153
-152,891	800,000	0,031	0,088
-151,877	765,078	0,039	0,077
-150,862	146,343	-0,022	-0,022
-149,847	-161,275	0,036	-0,001
-148,833	-200,000	0,022	0,106
-147,818	187,959	0,037	-0,040
-146,804	280,272	0,134	-0,174
-145,789	-38,266	-0,169	0,065
-144,775	-200,000	0,006	-0,158
-143,760	-200,000	-0,013	-0,045
-142,745	-100,242	-0,114	0,020
-141,731	-12,147	-0,042	-0,020
-140,716	736,037	0,075	-0,146
-139,702	-88,941	0,161	0,034
-138,687	-200,000	0,000	0,152
-137,672	-200,000	0,022	-0,085
-136,658	-28,663	-0,147	-0,061
-135,643	7,812	0,083	-0,045
-134,629	32,831	-0,062	-0,039
-133,614	-200,000	-0,009	-0,037
-132,599	-200,000	0,016	0,054
-131,585	246,764	0,070	0,085
-130,570	13,335	-0,069	0,039
-129,556	-23,697	-0,087	-0,038
-128,541	130,217	-0,079	-0,074
-127,526	-155,630	-0,043	-0,002
-126,512	194,963	0,069	0,076
-125,497	-200,000	0,000	-0,076
-124,483	-200,000	-0,003	0,031
-123,468	-119,029	0,084	-0,011
-122,453	71,822	0,132	0,099
-121,439	800,000	-0,064	-0,172
-120,424	800,000	0,039	-0,081
-119,410	30,082	0,033	0,021
-118,395	249,292	-0,105	-0,130
-117,380	-119,622	0,044	0,005
-116,366	-200,000	-0,010	-0,078
-115,351	800,000	-0,015	0,048
-114,337	86,703	-0,105	0,084
-113,322	-74,844	0,114	-0,029
-112,307	366,148	0,043	-0,063
-111,293	6,059	0,142	0,076
-110,278	-200,000	-0,014	0,102
-109,264	343,893	-0,081	-0,116
-108,249	-34,809	0,090	0,035
-107,234	-122,437	0,046	-0,005
-106,220	463,609	-0,041	-0,068
-105,205	-124,864	0,101	0,011
-104,191	-200,000	0,005	0,056
-103,176	-200,000	0,001	-0,010
-102,162	-200,000	-0,043	0,141
-101,147	-24,869	0,066	0,028
-100,132	800,000	0,016	-0,044
-99,118	-200,000	-0,007	0,065
-98,103	543,881	-0,060	0,105
-97,089	267,310	0,045	-0,058
-96,074	-200,000	0,001	0,123
-95,059	-200,000	0,001	0,050
-94,045	-65,743	0,055	0,016
-93,030	800,000	-0,008	0,019
-92,016	-8,590	-0,108	0,052
-91,001	101,591	0,033	-0,028
-89,986	-112,434	0,121	-0,017
-88,972	-200,000	0,051	0,166
-87,957	-135,843	0,099	-0,008
-86,943	-125,208	-0,111	-0,012
-85,928	335,318	0,092	-0,130
-84,913	428,429	0,064	-0,101
-83,899	800,000	-0,058	-0,162
-82,884	800,000	0,051	0,143
-81,870	-200,000	0,011	0,078
-80,855	-90,116	0,016	0,003
-79,840	-123,237	-0,050	0,006
-78,826	800,000	-0,018	0,037
-77,811	195,971	0,087	0,096
-76,797	410,566	-0,084	0,130
-75,782	800,000	0,021	-0,068
-74,767	800,000	0,060	0,147
-73,753	-200,000	0,095	0,000
-72,738	169,022	-0,074	0,077
-71,724	2,987	-0,062	-0,032
-70,709	-52,890	-0,139	0,046
-69,694	-200,000	-0,006	0,073
-68,680	-200,000	-0,019	0,161
-67,665	118,720	0,070	-0,062
-66,651	-200,000	0,021	-0,071
-65,636	-200,000	0,018	0,237
-64,622	-83,004	-0,050	-0,011
-63,607	-85,760	-0,086	0,019
-62,592	-48,728	-0,035	-0,012
-61,578	800,000	-0,010	-0,030
-60,563	-200,000	-0,016	0,104
-59,549	466,488	-0,014	0,023
-58,534	-48,698	-1,447	-0,501
-57,519	703,958	-0,712	-1,367
-56,505	-200,000	-0,848	-4,426
-55,490	-165,343	0,638	-0,020
-54,476	800,000	5,060	11,628
-53,461	-200,000	15,169	263,302
-52,446	-200,000	697,988	2237,302
-51,432	584,246	1619,970	2895,058
-50,417	120,020	1627,228	1462,279
-49,403	81,245	1281,801	1002,433
-48,388	37,519	1021,547	655,202
-47,373	22,632	981,944	580,850
-46,359	21,592	971,173	571,043
-45,344	20,245	967,136	564,243
-44,330	20,304	965,567	563,499
-43,315	20,136	964,101	562,071
-42,300	20,120	963,067	561,394
-41,286	20,093	962,109	560,727
-40,271	20,099	961,162	560,170
-39,257	20,149	960,168	559,732
-38,242	20,078	959,448	559,059
-37,227	20,097	958,531	558,565
-36,213	20,067	957,620	557,914
-35,198	20,006	956,677	557,147
-34,184	20,022	956,109	556,845
-33,169	20,039	955,014	556,241
-32,154	20,059	954,184	555,800
-31,140	20,048	953,272	555,210
-30,125	20,111	952,574	554,985
-29,111	20,077	951,661	554,320
-28,096	20,042	951,067	553,839
-27,082	20,074	950,379	553,520
-26,067	20,140	949,245	553,050
-25,052	20,067	948,613	552,427
-24,038	20,037	947,949	551,921
-23,023	20,009	947,439	551,511
-22,009	20,059	946,599	551,161
-20,994	20,040	946,090	550,782
-19,979	19,998	945,777	550,443
-18,965	20,049	945,028	550,149
-17,950	20,062	944,359	549,780
-16,936	20,019	943,741	549,261
-15,921	19,954	943,172	548,700
-14,906	19,890	942,404	548,029
-13,892	19,969	941,665	547,827
-12,877	19,931	941,196	547,414
-11,863	19,881	940,428	546,786
-10,848	19,890	940,068	546,583
-9,833	20,026	939,458	546,640
-8,819	19,981	938,983	546,196
-7,804	19,895	938,420	545,575
-6,790	19,891	937,754	545,153
-5,775	19,929	937,129	544,890
-4,760	19,934	936,439	544,483
-3,746	19,873	935,910	543,962
-2,731	19,826	935,085	543,310
-1,717	19,795	934,298	542,734
-0,702	19,813	933,671	542,404
0,313	19,513	933,169	541,986
1,327	22,062	930,842	548,608
2,342	29,501	805,852	495,054
3,356	23,831	506,539	301,505
4,371	-0,546	373,861	191,458
5,386	-3,366	356,937	179,310
6,400	-4,540	351,265	175,023
7,415	-4,795	348,745	173,446
8,429	-4,559	347,443	173,066
9,444	-4,762	346,513	172,345
10,459	-4,782	345,971	172,036
11,473	-4,683	345,191	171,751
12,488	-4,814	344,581	171,277
13,502	-4,851	344,019	170,938
14,517	-4,814	343,687	170,801
15,531	-4,699	343,146	170,653
16,546	-4,598	342,845	170,607
17,561	-4,504	342,270	170,416
18,575	-4,430	341,793	170,252
19,590	-4,570	341,428	169,889
20,604	-4,520	341,204	169,821
21,619	-4,726	340,753	169,340
22,634	-4,501	340,458	169,443
23,648	-4,695	340,090	169,017
24,663	-4,576	339,754	168,974
25,677	-4,687	339,645	168,775
26,692	-4,634	339,358	168,679
27,707	-4,736	338,886	168,310
28,721	-4,575	338,524	168,304
29,736	-4,593	338,292	168,153
30,750	-4,672	338,018	167,909
31,765	-4,589	337,591	167,779
32,780	-4,558	337,382	167,695
33,794	-4,541	337,049	167,535
34,809	-4,393	336,661	167,499
35,823	-4,470	336,494	167,311
36,838	-4,677	336,375	166,998
37,853	-4,571	336,051	166,944
38,867	-4,545	335,816	166,843
39,882	-4,610	335,446	166,569
40,896	-4,539	335,224	166,526
41,911	-4,572	334,972	166,348
42,926	-4,554	334,746	166,242
43,940	-4,563	334,298	165,994
44,955	-4,674	334,123	165,765
45,969	-4,588	333,928	165,752
46,984	-4,606	333,658	165,582
47,999	-4,659	333,526	165,442
49,013	-4,560	333,290	165,424
50,028	-4,567	332,751	165,133
51,042	-4,596	332,523	164,973
52,057	-4,516	332,288	164,932
53,071	-4,588	332,296	164,839
54,086	-4,497	331,818	164,691
55,101	-4,544	331,624	164,526
56,115	-4,600	331,424	164,349
57,130	-4,559	331,114	164,227
58,144	-4,681	330,649	163,843
59,159	-4,496	330,432	163,931
60,174	-4,796	330,355	163,538
61,188	-4,673	329,989	163,482
62,203	-4,508	329,742	163,531
63,217	-4,571	329,490	163,320
64,232	-4,663	329,318	163,116
65,247	-4,673	328,997	162,932
66,261	-4,625	328,628	162,789
67,276	-4,617	328,451	162,696
68,290	-4,504	328,171	162,669
69,305	-4,443	327,977	162,627
70,320	-4,592	327,774	162,345
71,334	-4,577	327,389	162,156
72,349	-4,711	327,146	161,871
73,363	-4,705	326,928	161,756
74,378	-4,606	326,701	161,739
75,393	-4,609	326,338	161,542
76,407	-4,465	326,089	161,566
77,422	-4,503	325,881	161,406
78,436	-4,452	325,483	161,251
79,451	-4,600	325,381	161,021
80,466	-4,588	325,147	160,904
81,480	-4,612	324,924	160,753
82,495	-4,481	324,476	160,663
83,509	-4,404	324,436	160,714
84,524	-4,435	324,300	160,598
85,539	-4,516	324,029	160,359
86,553	-4,590	323,739	160,119
87,568	-4,519	323,485	160,059
88,582	-4,441	323,146	159,963
89,597	-4,633	322,909	159,618
90,611	-4,493	322,732	159,672
91,626	-4,404	322,554	159,668
92,641	-4,560	322,198	159,306
93,655	-4,486	321,971	159,260
94,670	-4,685	321,766	158,926
95,684	-4,562	321,522	158,926
96,699	-4,550	321,297	158,814
97,714	-4,737	321,240	158,566
98,728	-4,601	320,962	158,565
99,743	-4,690	320,725	158,335
100,757	-4,478	320,454	158,420
101,772	-4,637	320,240	158,125
102,787	-4,690	319,977	157,924
103,801	-4,508	319,641	157,942
104,816	-4,547	319,553	157,843
105,830	-4,507	319,130	157,664
106,845	-4,421	318,781	157,571
107,860	-4,610	318,784	157,351
108,874	-4,593	318,488	157,211
109,889	-4,511	318,285	157,186
110,903	-4,574	318,074	156,999
111,918	-4,517	317,704	156,864
112,933	-4,629	317,595	156,675
113,947	-4,611	317,426	156,597
114,962	-4,564	317,177	156,511
115,976	-4,599	316,952	156,348
116,991	-4,508	316,608	156,262
118,006	-4,632	316,541	156,082
119,020	-4,685	316,293	155,889
120,035	-4,597	316,163	155,905
121,049	-4,452	315,781	155,860
122,064	-4,489	315,565	155,699
123,079	-4,534	315,442	155,576
124,093	-4,527	315,229	155,464
125,108	-4,694	315,016	155,166
126,122	-4,445	314,642	155,235
127,137	-4,500	314,668	155,176
128,151	-4,294	314,094	155,099
129,166	-4,436	314,151	154,961
130,181	-4,558	313,884	154,685
131,195	-4,498	313,539	154,566
132,210	-4,572	313,420	154,414
133,224	-4,568	313,047	154,221
134,239	-4,612	312,898	154,087
135,254	-4,648	312,617	153,896
136,268	-4,503	312,396	153,928
137,283	-4,595	312,196	153,718
138,297	-4,523	311,951	153,660
139,312	-4,424	311,691	153,624
140,327	-4,564	311,593	153,413
141,341	-4,591	311,350	153,250
142,356	-4,546	311,146	153,184
143,370	-4,688	310,852	152,876
144,385	-4,415	310,643	153,048
145,400	-4,587	310,491	152,778
146,414	-4,591	310,227	152,630
147,429	-4,492	309,956	152,587
148,443	-4,629	309,754	152,330
149,458	-4,441	309,389	152,334
150,473	-4,629	309,216	152,038
151,487	-4,600	309,112	152,004
152,502	-4,572	308,876	151,904
153,516	-4,558	308,625	151,781
154,531	-4,620	308,429	151,606
155,546	-4,521	308,203	151,586
156,560	-4,557	308,009	151,439
157,575	-4,418	307,711	151,425
158,589	-4,559	307,559	151,189
159,604	-4,494	307,334	151,133
160,619	-4,535	307,165	150,993
161,633	-4,467	306,984	150,962
162,648	-4,315	306,686	150,960
163,662	-4,397	306,402	150,721
164,677	-4,415	306,324	150,651
165,692	-4,466	306,139	150,494
166,706	-4,454	305,925	150,387
167,721	-4,481	305,735	150,253
168,735	-4,306	305,603	150,356
169,750	-4,505	305,378	150,025
170,764	-4,438	304,974	149,883
171,779	-4,607	304,934	149,675
172,794	-4,553	304,793	149,648
173,808	-4,382	304,556	149,695
174,823	-4,464	304,275	149,459
175,837	-4,480	304,039	149,314
176,852	-4,554	304,033	149,221
177,867	-4,535	303,700	149,064
178,881	-4,490	303,489	148,993
179,896	-4,507	303,232	148,836
180,910	-4,377	303,063	148,874
181,925	-4,523	302,900	148,631
182,940	-4,495	302,552	148,475
183,954	-4,391	302,404	148,496
184,969	-4,480	302,224	148,303
185,983	-4,274	302,037	148,409
186,998	-4,386	301,840	148,184
188,013	-4,370	301,681	148,109
189,027	-4,353	301,487	148,018
190,042	-4,481	301,264	147,765
191,056	-4,580	301,036	147,539
192,071	-4,499	300,827	147,506
193,086	-4,558	300,510	147,277
194,100	-4,571	300,284	147,140
195,115	-4,386	300,095	147,223
196,129	-4,512	299,993	147,031
197,144	-4,510	299,644	146,849
198,159	-4,462	299,312	146,722
199,173	-4,485	299,241	146,650
200,188	-4,543	298,888	146,406
201,202	-4,337	298,916	146,615
202,217	-4,423	298,688	146,403
203,232	-4,363	298,498	146,358
204,246	-4,272	298,152	146,267
205,261	-4,477	298,071	146,007
206,275	-4,576	297,893	145,807
207,290	-4,482	297,710	145,799
208,304	-4,399	297,622	145,826
209,319	-4,452	297,239	145,573
210,334	-4,264	297,025	145,644
211,348	-4,443	296,873	145,377
212,363	-4,542	296,693	145,176
213,377	-4,369	296,472	145,229
214,392	-4,459	296,215	144,999
215,407	-4,449	296,108	144,944
216,421	-4,351	295,828	144,893
217,436	-4,468	295,633	144,667
218,450	-4,475	295,513	144,589
219,465	-4,413	295,226	144,497
220,480	-4,601	295,153	144,261
221,494	-4,574	294,988	144,194
222,509	-4,387	294,611	144,183
223,523	-4,520	294,544	144,005
224,538	-4,387	294,221	143,967
225,553	-4,497	294,186	143,827
226,567	-4,398	293,942	143,794
227,582	-4,353	293,791	143,752
228,596	-4,557	293,572	143,430
229,611	-4,549	293,511	143,394
230,626	-4,441	293,207	143,340
231,640	-4,300	292,842	143,288
232,655	-4,319	292,708	143,191
233,669	-4,431	292,506	142,969
234,684	-4,336	292,399	142,998
235,699	-4,387	292,264	142,869
236,713	-4,377	292,066	142,769
237,728	-4,366	291,817	142,646
238,742	-4,430	291,667	142,496
239,757	-4,604	291,396	142,180
240,772	-4,591	291,233	142,101
241,786	-4,547	291,022	142,028
242,801	-4,584	291,011	141,973
243,815	-4,386	290,569	141,940
244,830	-4,469	290,435	141,781
245,844	-4,355	290,232	141,781
246,859	-4,614	289,992	141,397
247,874	-4,390	289,745	141,483
248,888	-4,407	289,517	141,343
249,903	-4,505	289,427	141,190
250,917	-4,413	289,369	141,239
251,932	-4,639	289,158	140,903
252,947	-4,932	288,908	140,483
253,961	-5,285	288,405	139,883
254,976	-5,400	288,147	139,633
255,990	-5,178	288,260	139,891
257,005	-3,773	288,665	141,443
258,020	-1,263	289,427	144,250
259,034	0,049	289,683	145,644
260,049	0,570	289,639	146,116
261,063	0,963	289,709	146,521
262,078	1,118	289,576	146,592
263,093	1,453	289,704	146,968
264,107	1,718	289,421	147,069
265,122	1,917	289,340	147,209
266,136	1,976	289,305	147,235
267,151	2,059	289,164	147,230
268,166	2,107	288,934	147,147
269,180	2,115	288,538	146,940
270,195	2,074	288,438	146,836
271,209	2,100	288,338	146,798
272,224	2,048	288,113	146,619
273,239	2,020	287,856	146,448
274,253	1,887	287,723	146,240
275,268	2,028	287,416	146,206
276,282	1,914	287,246	145,997
277,297	2,010	287,117	146,011
278,312	1,964	286,909	145,848
279,326	1,801	286,779	145,612
280,341	1,893	286,535	145,564
281,355	1,890	286,309	145,433
282,370	1,931	286,157	145,382
283,384	1,901	285,895	145,207
284,399	1,836	285,644	145,005
285,414	1,988	285,608	145,119
286,428	1,880	285,454	144,924
287,443	1,903	285,316	144,863
288,457	1,920	285,045	144,729
289,472	1,901	284,700	144,523
290,487	1,750	284,590	144,310
291,501	1,920	284,464	144,395
292,516	1,969	284,291	144,342
293,530	1,702	284,159	144,007
294,545	1,664	283,988	143,871
295,560	1,752	283,858	143,876
296,574	1,734	283,523	143,677
297,589	1,682	283,378	143,541
298,603	1,832	283,150	143,555
299,618	1,654	282,934	143,264
300,633	1,681	282,847	143,234
301,647	1,877	282,723	143,343
302,662	1,973	282,427	143,271
303,676	1,763	282,443	143,067
304,691	1,990	282,155	143,123
305,706	1,884	282,070	142,968
306,720	2,002	281,851	142,955
307,735	1,930	281,549	142,721
308,749	1,912	281,351	142,591
309,764	1,933	281,205	142,524
310,779	2,056	281,036	142,541
311,793	1,928	280,871	142,325
312,808	1,879	280,658	142,158
313,822	1,870	280,440	142,027
314,837	1,728	280,336	141,829
315,852	2,086	279,969	141,965
316,866	1,855	279,976	141,739
317,881	1,840	279,722	141,584
318,895	1,904	279,566	141,553
319,910	1,924	279,410	141,479
320,925	1,895	279,146	141,306
321,939	1,831	279,098	141,210
322,954	2,243	278,789	141,424
323,968	1,949	278,718	141,102
324,983	1,918	278,684	141,043
325,997	2,152	278,393	141,102
327,012	2,108	277,982	140,840
328,027	2,112	277,960	140,819
329,041	1,908	277,777	140,525
330,056	2,072	277,649	140,600
331,070	2,019	277,421	140,423
332,085	2,137	277,138	140,377
333,100	2,081	277,043	140,263
334,114	2,223	276,718	140,217
335,129	2,132	276,598	140,061
336,143	2,002	276,544	139,900
337,158	2,149	276,228	139,863
338,173	2,247	276,128	139,891
339,187	2,089	276,083	139,710
340,202	2,222	275,789	139,671
341,216	2,033	275,842	139,512
342,231	2,089	275,455	139,356
343,246	2,140	275,383	139,353
344,260	2,223	275,215	139,331
345,275	2,073	275,031	139,088
346,289	2,273	274,756	139,120
347,304	2,123	274,577	138,880
348,319	2,134	274,446	138,812
349,333	2,121	274,230	138,677
350,348	2,012	274,144	138,523
351,362	2,122	273,989	138,532
352,377	2,175	273,838	138,492
353,392	2,210	273,625	138,404
354,406	2,170	273,377	138,229
355,421	193,695	1347,827	1433,777
356,435	156,500	1478,798	1433,886
