DTS Sentinel unit serial number:	SN410029Multiplexer serial number:	ORYXHardware model number:	OX2-SRSoftware version number:	ORYX F/W v4,00 Oryx Data Collector v3.7.2.0data status	okinstallation	B4 Nyhavnadifferential loss correction	single-endedforward channel	channel 2reverse channel	N/Adate	2023/12/18time	18:15:13forward acquisition time	300,00reverse acquisition time	0,00gamma	499,1914k internal	0,3124k external	0,3124temperature offset calibration	1,0000default loss term (dB/km)	0,3820temperature slope calibration	1,0000multiplexer offset coefficient	1,0000multiplexer slope coefficient	1,0000fibre end	0,00T internal ref (°C)	21,92T ext. ref 1 (°C)	7,18T ext. ref 2 (°C)	7,20length (m)	temperature (°C)	Stokes	anti-Stokes-744,400	-46,116	-0,164	-0,060
-743,385	39,140	-0,232	0,154
-742,371	-200,000	-0,003	-0,042
-741,356	-103,657	-0,167	0,029
-740,342	-200,000	0,001	-0,014
-739,327	0,659	-0,167	0,089
-738,312	380,022	0,058	-0,090
-737,298	-86,113	-0,288	0,066
-736,283	34,738	0,181	-0,117
-735,269	162,548	-0,130	0,136
-734,254	11,644	0,103	-0,059
-733,239	-133,197	-0,239	0,022
-732,225	223,735	0,047	-0,057
-731,210	-45,088	-0,030	0,011
-730,196	-200,000	0,007	0,063
-729,181	399,657	-0,078	-0,122
-728,167	-200,000	-0,004	-0,049
-727,152	-200,000	-0,011	0,175
-726,137	-25,928	-0,105	0,046
-725,123	800,000	0,033	-0,070
-724,108	800,000	0,064	-0,162
-723,094	-200,000	-0,005	0,022
-722,079	623,545	-0,073	-0,138
-721,064	-200,000	0,037	-0,166
-720,050	800,000	-0,048	0,142
-719,035	-162,215	0,056	0,002
-718,021	-63,031	0,098	0,030
-717,006	207,174	-0,072	-0,084
-715,991	-200,000	-0,004	-0,064
-714,977	-65,775	-0,178	-0,053
-713,962	800,000	-0,050	0,108
-712,948	-200,000	0,005	-0,055
-711,933	258,685	-0,032	0,041
-710,918	-153,528	0,085	-0,004
-709,904	-200,000	0,020	-0,175
-708,889	80,323	0,048	0,039
-707,875	539,169	-0,032	0,058
-706,860	223,516	-0,033	0,039
-705,845	-200,000	0,002	0,074
-704,831	-60,174	0,034	-0,011
-703,816	-187,657	0,077	0,001
-702,802	-200,000	-0,008	-0,211
-701,787	587,063	-0,075	-0,137
-700,772	157,327	-0,130	-0,134
-699,758	800,000	-0,019	0,043
-698,743	19,076	0,040	-0,024
-697,729	800,000	0,019	-0,057
-696,714	50,431	0,113	0,080
-695,699	800,000	0,004	0,011
-694,685	259,452	-0,065	0,084
-693,670	-200,000	0,020	0,078
-692,656	-200,000	-0,011	-0,229
-691,641	460,379	-0,051	0,084
-690,627	68,181	-0,113	0,086
-689,612	-17,884	0,019	0,009
-688,597	23,604	0,082	0,050
-687,583	-78,022	0,092	-0,023
-686,568	-200,000	-0,009	-0,060
-685,554	232,851	0,063	-0,077
-684,539	800,000	0,035	-0,081
-683,524	2,147	0,017	0,009
-682,510	-160,654	0,164	-0,006
-681,495	139,715	-0,128	0,125
-680,481	-200,000	-0,012	-0,062
-679,466	10,997	-0,070	0,040
-678,451	174,301	0,042	-0,046
-677,437	241,391	-0,032	-0,039
-676,422	147,072	0,112	0,112
-675,408	-56,548	-0,045	0,015
-674,393	-77,185	-0,030	-0,008
-673,378	129,232	-0,056	-0,053
-672,364	254,250	0,066	-0,084
-671,349	25,552	-0,118	0,073
-670,335	-200,000	0,000	-0,034
-669,320	-113,426	0,042	0,006
-668,305	438,604	-0,024	0,039
-667,291	-122,998	-0,092	0,011
-666,276	-51,324	-0,100	0,035
-665,262	800,000	-0,029	0,064
-664,247	-99,581	0,157	-0,029
-663,232	103,428	-0,070	-0,061
-662,218	800,000	-0,012	0,032
-661,203	800,000	0,061	0,151
-660,189	800,000	-0,070	0,146
-659,174	224,734	-0,041	0,049
-658,159	223,067	0,063	-0,075
-657,145	477,679	0,004	0,007
-656,130	-69,118	-0,171	0,049
-655,116	335,109	-0,028	0,041
-654,101	-11,802	0,107	0,052
-653,086	800,000	-0,043	-0,091
-652,072	-45,730	-0,085	0,031
-651,057	-77,600	-0,138	-0,035
-650,043	-1,231	0,044	-0,023
-649,028	-94,974	-0,195	-0,039
-648,014	222,092	0,095	0,114
-646,999	-155,745	0,077	-0,004
-645,984	800,000	0,015	0,048
-644,970	327,961	-0,086	-0,122
-643,955	-200,000	0,019	-0,136
-642,941	800,000	-0,016	-0,050
-641,926	38,116	-0,133	0,088
-640,911	-200,000	0,029	0,149
-639,897	61,358	-0,029	0,021
-638,882	800,000	-0,007	-0,017
-637,868	-200,000	0,014	-0,086
-636,853	79,100	-0,134	-0,106
-635,838	316,646	0,068	-0,095
-634,824	800,000	0,016	-0,038
-633,809	800,000	0,043	0,093
-632,795	282,240	0,074	-0,098
-631,780	-200,000	-0,039	0,150
-630,765	-200,000	0,004	0,178
-629,751	-26,640	-0,019	-0,008
-628,736	-200,000	-0,021	-0,156
-627,722	76,122	-0,016	0,013
-626,707	-93,772	-0,093	0,019
-625,692	2,465	-0,011	0,006
-624,678	190,129	-0,041	0,046
-623,663	-74,010	-0,070	0,019
-622,649	-200,000	-0,004	-0,040
-621,634	-38,188	-0,126	-0,049
-620,619	96,234	-0,068	-0,057
-619,605	2,705	0,002	0,001
-618,590	55,316	0,078	0,056
-617,576	105,475	0,071	0,062
-616,561	-92,998	-0,070	0,014
-615,546	471,960	0,078	-0,131
-614,532	30,164	-0,056	-0,035
-613,517	-147,837	-0,099	0,006
-612,503	-200,000	0,003	-0,112
-611,488	-66,126	-0,039	-0,012
-610,474	-29,509	0,047	-0,020
-609,459	326,060	0,012	0,017
-608,444	68,766	-0,037	0,028
-607,430	800,000	0,050	-0,161
-606,415	800,000	-0,062	0,140
-605,401	-150,428	-0,071	-0,004
-604,386	68,528	-0,075	0,057
-603,371	800,000	0,014	-0,035
-602,357	341,083	0,024	-0,035
-601,342	-200,000	-0,000	-0,018
-600,328	-10,214	-0,084	-0,041
-599,313	332,966	0,062	-0,088
-598,298	6,328	-0,075	-0,041
-597,284	-200,000	-0,006	-0,049
-596,269	263,855	0,080	0,104
-595,255	-73,675	-0,058	0,015
-594,240	332,135	0,085	-0,121
-593,225	-200,000	0,016	-0,090
-592,211	226,076	-0,064	-0,078
-591,196	237,375	-0,031	0,038
-590,182	46,018	0,165	0,113
-589,167	800,000	0,058	0,168
-588,152	-88,875	0,188	-0,041
-587,138	-200,000	-0,033	0,139
-586,123	800,000	-0,068	-0,187
-585,109	800,000	-0,033	0,081
-584,094	-141,650	-0,115	-0,008
-583,079	116,780	0,024	-0,022
-582,065	-62,789	0,139	-0,042
-581,050	187,916	-0,051	0,056
-580,036	-200,000	-0,002	0,048
-579,021	124,570	0,044	0,041
-578,006	306,220	-0,048	0,066
-576,992	-200,000	-0,025	-0,084
-575,977	31,826	-0,025	0,016
-574,963	-84,539	-0,061	-0,014
-573,948	-200,000	0,016	-0,150
-572,934	285,818	-0,025	0,033
-571,919	800,000	-0,057	0,126
-570,904	-200,000	-0,022	-0,148
-569,890	6,101	-0,042	-0,023
-568,875	-76,603	0,081	0,021
-567,861	-200,000	-0,003	-0,101
-566,846	20,471	0,039	0,023
-565,831	-85,874	-0,057	-0,013
-564,817	800,000	-0,016	-0,042
-563,802	261,968	-0,045	-0,058
-562,788	621,339	0,017	0,032
-561,773	800,000	-0,026	0,082
-560,758	-200,000	-0,021	0,085
-559,744	-34,361	0,059	0,024
-558,729	-24,905	0,030	-0,013
-557,715	49,742	-0,079	0,055
-556,700	-200,000	0,002	-0,041
-555,685	-6,954	-0,111	-0,055
-554,671	135,798	-0,064	0,062
-553,656	800,000	0,021	-0,062
-552,642	-200,000	-0,027	-0,134
-551,627	-90,812	-0,056	0,012
-550,612	-200,000	-0,020	0,141
-549,598	800,000	0,047	-0,121
-548,583	-200,000	0,016	-0,096
-547,569	351,030	0,044	-0,064
-546,554	60,750	0,054	0,039
-545,539	-6,748	0,088	-0,044
-544,525	-166,197	0,067	-0,002
-543,510	270,098	-0,131	0,170
-542,496	-200,000	0,010	0,069
-541,481	388,099	-0,091	0,140
-540,466	-168,329	0,131	0,004
-539,452	800,000	-0,027	0,060
-538,437	-20,257	-0,083	-0,038
-537,423	-8,526	0,115	-0,057
-536,408	269,252	-0,025	-0,033
-535,393	-102,790	-0,048	-0,008
-534,379	-79,771	-0,092	-0,023
-533,364	-200,000	0,000	-0,005
-532,350	272,014	0,087	0,114
-531,335	120,683	0,066	0,060
-530,321	-67,039	-0,060	-0,018
-529,306	-89,031	-0,037	-0,008
-528,291	94,506	-0,121	-0,101
-527,277	497,373	0,071	-0,121
-526,262	-200,000	0,030	-0,214
-525,248	-113,259	-0,061	-0,009
-524,233	-63,265	0,179	0,054
-523,218	-89,979	0,075	-0,016
-522,204	596,739	-0,064	-0,118
-521,189	30,885	-0,067	0,042
-520,175	-47,928	-0,091	0,032
-519,160	-200,000	-0,003	0,039
-518,145	-200,000	-0,006	0,030
-517,131	-32,630	0,099	0,040
-516,116	-36,956	0,058	0,023
-515,102	-57,203	0,077	0,025
-514,087	192,761	0,054	-0,060
-513,072	787,952	-0,095	-0,193
-512,058	-200,000	0,008	-0,139
-511,043	-200,000	-0,004	-0,021
-510,029	-0,850	0,090	-0,047
-509,014	322,012	0,091	-0,128
-507,999	31,288	0,008	-0,005
-506,985	242,175	-0,126	-0,156
-505,970	250,022	0,047	0,059
-504,956	110,019	-0,111	0,098
-503,941	-159,220	-0,090	-0,004
-502,926	500,340	-0,052	0,088
-501,912	-32,352	-0,071	-0,029
-500,897	800,000	0,057	-0,168
-499,883	163,155	-0,100	-0,104
-498,868	257,582	-0,051	-0,064
-497,853	800,000	-0,041	-0,130
-496,839	800,000	-0,041	0,102
-495,824	4,275	0,169	0,091
-494,810	32,770	0,122	0,078
-493,795	-68,690	-0,027	0,008
-492,781	-58,202	-0,120	0,038
-491,766	86,289	-0,034	-0,028
-490,751	-200,000	-0,008	-0,090
-489,737	800,000	0,052	0,112
-488,722	-61,644	0,030	0,009
-487,708	109,211	-0,041	0,036
-486,693	-89,774	-0,074	-0,016
-485,678	-200,000	0,005	-0,045
-484,664	98,140	0,025	-0,021
-483,649	-50,159	-0,076	0,026
-482,635	695,059	-0,038	-0,074
-481,620	55,710	-0,049	0,035
-480,605	-155,894	0,070	0,003
-479,591	-200,000	-0,002	0,064
-478,576	-200,000	0,002	0,071
-477,562	-200,000	-0,041	0,184
-476,547	55,830	-0,033	-0,024
-475,532	247,097	0,018	-0,022
-474,518	-81,890	0,057	-0,014
-473,503	-200,000	0,011	0,045
-472,489	513,578	-0,089	-0,154
-471,474	52,638	-0,042	0,029
-470,459	22,942	0,084	0,051
-469,445	800,000	0,041	-0,091
-468,430	-136,062	0,032	-0,003
-467,416	800,000	-0,016	0,035
-466,401	-200,000	0,001	-0,058
-465,386	312,464	0,087	0,121
-464,372	800,000	-0,014	-0,033
-463,357	-200,000	-0,019	-0,088
-462,343	-200,000	-0,008	-0,049
-461,328	-132,938	0,108	0,010
-460,313	-168,500	-0,028	-0,001
-459,299	-4,729	0,022	-0,011
-458,284	-165,481	0,133	0,004
-457,270	19,081	-0,057	-0,034
-456,255	-200,000	-0,004	0,036
-455,241	800,000	0,024	0,059
-454,226	-200,000	0,003	-0,072
-453,211	0,903	-0,052	-0,028
-452,197	-200,000	0,005	0,102
-451,182	58,133	0,066	0,048
-450,168	331,170	-0,038	0,054
-449,153	65,828	0,100	-0,074
-448,138	207,086	-0,005	-0,005
-447,124	-102,270	-0,073	-0,013
-446,109	-200,000	-0,003	-0,069
-445,095	114,389	0,033	0,030
-444,080	266,926	0,063	0,081
-443,065	-200,000	-0,012	0,054
-442,051	-169,630	-0,065	0,002
-441,036	-83,896	-0,182	-0,042
-440,022	13,061	0,078	0,044
-439,007	800,000	-0,021	-0,056
-437,992	-49,557	-0,107	0,037
-436,978	317,211	0,073	0,102
-435,963	-13,003	0,035	-0,017
-434,949	-10,348	-0,086	-0,042
-433,934	634,357	0,055	-0,103
-432,919	-114,735	-0,067	0,009
-431,905	65,684	0,016	-0,012
-430,890	-102,362	0,088	-0,015
-429,876	554,476	0,064	0,113
-428,861	464,444	0,081	0,134
-427,846	12,025	-0,147	-0,083
-426,832	-30,067	-0,085	0,035
-425,817	-200,000	-0,010	-0,069
-424,803	-149,915	-0,177	0,010
-423,788	459,838	0,097	-0,160
-422,773	-108,134	0,066	0,010
-421,759	-59,253	-0,105	0,033
-420,744	800,000	-0,020	0,041
-419,730	-200,000	-0,013	-0,056
-418,715	103,494	0,043	-0,037
-417,701	6,029	0,063	0,034
-416,686	-200,000	0,011	-0,101
-415,671	-200,000	-0,029	0,220
-414,657	61,098	-0,015	0,011
-413,642	800,000	0,009	-0,028
-412,628	800,000	0,035	-0,088
-411,613	-8,178	-0,063	-0,031
-410,598	-45,600	-0,109	-0,040
-409,584	800,000	0,048	-0,128
-408,569	800,000	0,034	-0,072
-407,555	80,798	0,052	0,041
-406,540	-24,491	0,061	0,027
-405,525	-40,383	-0,018	0,007
-404,511	-200,000	0,006	-0,071
-403,496	1,276	-0,087	0,046
-402,482	-200,000	-0,002	0,072
-401,467	135,448	0,064	0,061
-400,452	-200,000	0,045	0,150
-399,438	48,808	0,116	0,080
-398,423	96,521	-0,049	0,041
-397,409	110,473	0,147	0,130
-396,394	-200,000	0,002	-0,036
-395,379	-81,941	0,068	0,016
-394,365	-200,000	-0,011	0,048
-393,350	275,348	0,022	0,029
-392,336	-158,405	-0,149	0,006
-391,321	-40,464	0,067	-0,025
-390,306	800,000	0,036	-0,104
-389,292	-200,000	0,001	-0,023
-388,277	105,052	-0,121	0,105
-387,263	175,141	0,096	0,103
-386,248	-60,802	0,195	0,060
-385,233	-200,000	-0,012	-0,046
-384,219	800,000	0,032	0,094
-383,204	107,026	-0,072	0,063
-382,190	-85,564	0,037	0,008
-381,175	-200,000	-0,016	-0,125
-380,160	-84,015	-0,112	-0,026
-379,146	-92,393	0,094	-0,019
-378,131	638,482	-0,018	0,033
-377,117	-200,000	-0,003	0,108
-376,102	272,893	0,034	-0,044
-375,088	193,161	-0,036	0,040
-374,073	176,921	0,052	-0,056
-373,058	-7,935	-0,029	-0,014
-372,044	-88,647	0,125	-0,027
-371,029	25,095	-0,076	-0,046
-370,015	418,706	0,014	0,022
-369,000	-200,000	-0,043	-0,243
-367,985	145,988	-0,086	-0,085
-366,971	-139,511	0,024	-0,002
-365,956	100,599	-0,084	-0,072
-364,942	29,000	0,135	-0,084
-363,927	-28,753	0,055	0,023
-362,912	-200,000	0,034	0,134
-361,898	-198,124	-0,105	-0,000
-360,883	-7,061	-0,146	0,073
-359,869	120,820	0,075	-0,068
-358,854	229,131	0,042	0,051
-357,839	368,002	-0,031	0,046
-356,825	-49,747	-0,068	-0,024
-355,810	636,928	0,067	-0,125
-354,796	-46,594	-0,098	0,035
-353,781	-200,000	0,004	-0,051
-352,766	-126,662	0,017	-0,002
-351,752	87,567	0,100	0,081
-350,737	132,964	0,048	-0,045
-349,723	-134,559	0,062	0,006
-348,708	-43,491	0,032	-0,012
-347,693	-173,613	-0,066	-0,001
-346,679	170,723	0,061	0,064
-345,664	-95,161	0,070	0,014
-344,650	-200,000	0,035	-0,146
-343,635	-136,604	0,081	-0,007
-342,620	62,035	0,074	0,054
-341,606	319,765	-0,065	-0,091
-340,591	-200,000	0,035	-0,125
-339,577	82,914	0,093	-0,074
-338,562	-200,000	-0,043	0,151
-337,548	178,360	-0,073	-0,078
-336,533	-200,000	0,001	0,095
-335,518	-48,756	0,130	-0,046
-334,504	-101,274	0,108	0,019
-333,489	800,000	0,049	0,109
-332,475	-200,000	-0,005	0,076
-331,460	-104,885	0,073	-0,012
-330,445	800,000	0,006	0,013
-329,431	-200,000	-0,159	-0,001
-328,416	366,629	0,020	0,030
-327,402	-123,820	-0,065	0,007
-326,387	-200,000	-0,012	0,040
-325,372	800,000	0,041	0,092
-324,358	462,294	0,075	-0,123
-323,343	136,467	0,159	0,152
-322,329	216,000	-0,031	-0,036
-321,314	66,054	0,163	0,121
-320,299	-200,000	-0,003	0,144
-319,285	-117,340	0,025	0,003
-318,270	260,567	-0,055	-0,070
-317,256	-44,656	0,120	0,044
-316,241	284,425	-0,027	-0,035
-315,226	-200,000	0,003	-0,198
-314,212	-23,837	-0,026	-0,011
-313,197	695,926	0,064	0,124
-312,183	-147,062	0,125	-0,008
-311,168	98,833	-0,023	-0,019
-310,153	150,733	-0,109	-0,108
-309,139	800,000	0,059	-0,129
-308,124	104,851	0,079	0,068
-307,110	-153,680	0,109	0,005
-306,095	-106,376	-0,123	0,020
-305,080	413,712	0,016	-0,025
-304,066	-141,661	-0,110	-0,008
-303,051	-200,000	-0,016	-0,056
-302,037	-75,910	-0,107	0,028
-301,022	31,350	0,037	0,023
-300,008	800,000	-0,053	0,122
-298,993	148,668	0,027	0,027
-297,978	800,000	0,036	0,112
-296,964	32,190	-0,028	0,018
-295,949	-126,731	-0,013	0,001
-294,935	-200,000	0,014	0,117
-293,920	-200,000	0,004	-0,208
-292,905	139,965	0,049	0,047
-291,891	-100,006	0,112	-0,020
-290,876	800,000	0,061	0,139
-289,862	800,000	0,050	-0,122
-288,847	157,802	0,083	0,084
-287,832	114,399	0,087	-0,077
-286,818	749,705	-0,048	-0,096
-285,803	800,000	0,024	0,074
-284,789	-110,779	-0,004	-0,001
-283,774	-200,000	0,109	0,000
-282,759	269,932	-0,081	0,104
-281,745	37,936	-0,056	-0,037
-280,730	-200,000	-0,008	-0,034
-279,716	-200,000	0,019	-0,068
-278,701	800,000	0,036	0,098
-277,686	-200,000	0,020	0,095
-276,672	-79,989	-0,112	0,027
-275,657	800,000	0,060	-0,135
-274,643	-200,000	0,000	-0,030
-273,628	-200,000	-0,008	0,083
-272,613	27,319	-0,046	-0,028
-271,599	800,000	-0,004	-0,008
-270,584	-200,000	-0,003	0,113
-269,570	-8,093	0,041	0,020
-268,555	449,072	-0,028	0,046
-267,540	-163,367	-0,105	-0,004
-266,526	800,000	-0,070	-0,179
-265,511	-96,084	-0,076	-0,015
-264,497	164,160	0,082	-0,084
-263,482	-72,418	0,139	-0,037
-262,467	-42,514	0,168	-0,062
-261,453	-54,146	-0,104	-0,034
-260,438	-38,125	0,058	-0,022
-259,424	-174,650	-0,086	-0,002
-258,409	67,628	-0,071	0,053
-257,395	-200,000	0,034	0,170
-256,380	672,592	-0,036	0,069
-255,365	128,752	0,098	0,091
-254,351	-107,110	-0,181	0,029
-253,336	239,527	-0,068	0,083
-252,322	-200,000	0,003	-0,077
-251,307	243,985	0,019	-0,023
-250,292	-64,836	-0,133	-0,039
-249,278	746,888	-0,022	-0,043
-248,263	47,522	-0,023	-0,016
-247,249	-200,000	-0,021	0,110
-246,234	-66,837	-0,093	-0,027
-245,219	-69,355	0,074	0,020
-244,205	800,000	0,013	-0,031
-243,190	-200,000	0,004	0,139
-242,176	-43,853	-0,033	-0,012
-241,161	-117,272	-0,063	-0,008
-240,146	723,268	-0,029	0,058
-239,132	-11,018	-0,161	0,077
-238,117	800,000	0,049	-0,101
-237,103	800,000	0,025	0,069
-236,088	-200,000	0,021	0,070
-235,073	-200,000	-0,016	-0,127
-234,059	788,315	0,037	-0,074
-233,044	-135,473	0,074	-0,006
-232,030	-38,239	-0,054	-0,021
-231,015	-17,867	-0,098	-0,045
-230,000	-200,000	-0,008	-0,131
-228,986	309,915	-0,059	-0,080
-227,971	-200,000	-0,004	-0,038
-226,957	700,131	-0,050	0,096
-225,942	-200,000	0,014	-0,071
-224,927	-12,168	0,140	0,067
-223,913	-34,335	-0,064	-0,026
-222,898	-94,719	-0,011	-0,002
-221,884	-146,242	0,029	-0,002
-220,869	800,000	-0,012	-0,031
-219,855	-200,000	-0,013	0,047
-218,840	93,286	0,040	0,033
-217,825	361,790	0,050	0,074
-216,811	800,000	0,044	0,097
-215,796	-200,000	0,015	0,059
-214,782	303,558	0,073	-0,099
-213,767	-30,653	0,015	0,006
-212,752	418,895	-0,009	0,014
-211,738	800,000	-0,073	0,200
-210,723	-200,000	-0,016	0,153
-209,709	-200,000	-0,008	0,210
-208,694	800,000	-0,041	0,097
-207,679	-103,996	-0,038	-0,006
-206,665	328,706	-0,039	0,055
-205,650	163,847	-0,063	0,065
-204,636	800,000	-0,004	0,013
-203,621	123,059	-0,087	0,080
-202,606	-122,799	-0,143	0,017
-201,592	-200,000	-0,002	-0,106
-200,577	694,701	0,027	-0,052
-199,563	276,644	0,027	0,035
-198,548	-46,699	0,212	-0,075
-197,533	173,213	-0,074	0,078
-196,519	312,834	0,074	0,101
-195,504	58,671	0,058	0,042
-194,490	-200,000	0,003	-0,053
-193,475	417,838	0,048	-0,075
-192,460	593,013	0,053	0,096
-191,446	800,000	-0,029	-0,064
-190,431	-200,000	0,041	0,152
-189,417	-200,000	0,011	0,073
-188,402	-145,127	0,091	-0,006
-187,387	3,767	0,035	-0,018
-186,373	37,591	0,038	-0,024
-185,358	-200,000	-0,007	-0,051
-184,344	202,128	-0,041	-0,046
-183,329	-39,706	0,044	0,017
-182,315	-18,897	0,135	0,061
-181,300	-74,317	-0,196	0,051
-180,285	-92,663	-0,112	-0,023
-179,271	800,000	0,034	-0,096
-178,256	61,922	-0,041	0,030
-177,242	-73,949	0,081	-0,021
-176,227	780,724	0,046	-0,092
-175,212	265,572	0,065	0,083
-174,198	-200,000	-0,008	-0,082
-173,183	800,000	0,037	-0,098
-172,169	138,238	0,064	-0,061
-171,154	60,011	0,084	-0,060
-170,139	-65,160	0,090	-0,026
-169,125	-39,486	0,094	-0,036
-168,110	87,463	0,040	0,032
-167,096	-2,795	-0,116	-0,059
-166,081	31,794	-0,141	0,088
-165,066	655,738	-0,052	-0,098
-164,052	139,689	-0,078	0,075
-163,037	193,647	0,016	0,018
-162,023	80,461	0,081	0,063
-161,008	-40,240	-0,078	0,029
-159,993	196,488	-0,076	0,084
-158,979	658,810	0,052	-0,098
-157,964	800,000	0,010	0,029
-156,950	-119,416	0,020	0,002
-155,935	-200,000	-0,023	-0,101
-154,920	-138,674	-0,136	0,011
-153,906	-81,800	0,043	0,010
-152,891	-152,107	-0,031	-0,002
-151,877	-49,006	-0,016	-0,005
-150,862	116,457	-0,119	0,106
-149,847	-63,720	0,100	0,030
-148,833	-200,000	-0,016	0,118
-147,818	86,420	0,136	0,109
-146,804	800,000	0,051	0,117
-145,789	4,701	-0,044	0,023
-144,775	254,133	-0,080	0,100
-143,760	-200,000	0,008	0,063
-142,745	193,875	-0,025	0,028
-141,731	115,167	0,064	-0,057
-140,716	-22,925	0,053	0,023
-139,702	-56,591	0,025	0,008
-138,687	800,000	-0,011	-0,024
-137,672	-200,000	-0,018	0,080
-136,658	151,188	-0,044	0,043
-135,643	-35,675	-0,057	0,023
-134,629	-106,647	0,079	-0,013
-133,614	-134,557	-0,084	0,007
-132,599	325,582	0,051	0,071
-131,585	-77,690	0,094	-0,023
-130,570	-154,026	0,062	0,003
-129,556	334,769	0,022	0,031
-128,541	213,261	0,055	-0,063
-127,526	-200,000	-0,014	-0,065
-126,512	70,290	0,035	-0,026
-125,497	106,475	0,062	-0,053
-124,483	800,000	-0,027	0,057
-123,468	127,301	-0,042	0,039
-122,453	800,000	-0,048	-0,122
-121,439	151,152	0,023	-0,022
-120,424	-171,295	-0,086	0,002
-119,410	-85,852	0,076	0,017
-118,395	800,000	0,015	0,032
-117,380	-39,417	0,076	0,029
-116,366	-112,476	0,175	-0,025
-115,351	-45,268	-0,068	0,024
-114,337	0,920	-0,090	-0,047
-113,322	-200,000	-0,014	0,120
-112,307	1,549	0,072	-0,037
-111,293	92,015	0,075	0,061
-110,278	800,000	0,037	0,075
-109,264	-200,000	-0,008	0,048
-108,249	-200,000	0,009	-0,091
-107,234	-200,000	-0,004	-0,142
-106,220	-12,396	-0,008	0,004
-105,205	800,000	-0,030	0,066
-104,191	-200,000	-0,013	0,055
-103,176	-7,392	-0,058	0,028
-102,162	-200,000	-0,008	-0,091
-101,147	-70,666	0,153	-0,042
-100,132	25,936	-0,110	-0,067
-99,118	86,099	-0,100	0,080
-98,103	-69,049	0,043	0,012
-97,089	-200,000	-0,009	0,083
-96,074	-89,002	0,148	0,032
-95,059	-86,792	-0,032	0,007
-94,045	-200,000	-0,000	-0,005
-93,030	800,000	-0,065	-0,141
-92,016	-64,131	-0,022	-0,006
-91,001	-29,032	0,127	-0,053
-89,986	304,772	0,077	0,104
-88,972	800,000	0,027	0,061
-87,957	-166,584	0,128	-0,004
-86,943	800,000	-0,005	0,014
-85,928	-100,448	-0,138	-0,025
-84,913	21,941	0,072	0,042
-83,899	1,741	0,088	0,046
-82,884	47,341	-0,135	0,091
-81,870	539,829	-0,073	-0,127
-80,855	-200,000	-0,026	0,090
-79,840	-200,000	0,011	-0,088
-78,826	800,000	-0,038	0,117
-77,811	-200,000	-0,002	-0,154
-76,797	800,000	-0,057	-0,121
-75,782	271,568	0,030	0,039
-74,767	365,872	0,027	0,040
-73,753	-15,952	0,166	0,077
-72,738	-200,000	-0,019	0,187
-71,724	249,921	0,101	0,125
-70,709	203,253	-0,047	0,053
-69,694	-200,000	-0,058	-0,261
-68,680	-36,935	0,145	0,056
-67,665	73,432	0,111	-0,084
-66,651	141,683	0,109	0,105
-65,636	800,000	0,048	-0,098
-64,622	302,359	0,067	0,090
-63,607	-24,098	-0,081	0,035
-62,592	-200,000	-0,025	-0,131
-61,578	-200,000	-0,011	-0,060
-60,563	-200,000	-0,007	0,125
-59,549	-200,000	-0,003	0,166
-58,534	-135,527	-1,348	-0,115
-57,519	771,861	-0,738	-1,465
-56,505	-200,000	-0,757	-4,369
-55,490	-1,435	0,499	-0,254
-54,476	800,000	4,913	11,565
-53,461	-200,000	13,909	253,336
-52,446	-200,000	692,538	2262,778
-51,432	602,188	1623,331	2939,306
-50,417	118,028	1633,250	1459,927
-49,403	73,585	1287,275	977,003
-48,388	37,474	1023,490	657,059
-47,373	23,939	981,551	585,624
-46,359	23,130	971,300	576,831
-45,344	22,197	966,734	571,050
-44,330	22,095	965,548	569,994
-43,315	22,014	963,816	568,685
-42,300	22,009	962,850	568,077
-41,286	21,918	961,979	567,245
-40,271	21,937	960,945	566,673
-39,257	21,966	960,215	566,315
-38,242	21,877	958,999	565,287
-37,227	21,946	958,289	565,069
-36,213	21,867	957,440	564,291
-35,198	21,918	956,304	563,764
-34,184	21,907	955,978	563,511
-33,169	21,855	955,165	562,843
-32,154	22,048	953,904	562,699
-31,140	22,031	953,169	562,190
-30,125	21,964	952,467	561,538
-29,111	21,983	951,678	561,111
-28,096	21,997	950,875	560,659
-27,082	21,934	950,263	560,075
-26,067	21,947	949,511	559,651
-25,052	21,963	948,774	559,246
-24,038	21,933	948,065	558,708
-23,023	22,007	947,209	558,418
-22,009	22,028	946,712	558,172
-20,994	21,992	946,331	557,811
-19,979	21,976	945,625	557,321
-18,965	21,985	944,749	556,810
-17,950	21,941	944,236	556,345
-16,936	21,847	943,665	555,688
-15,921	21,913	942,856	555,401
-14,906	21,826	942,229	554,731
-13,892	21,838	941,694	554,432
-12,877	21,809	940,983	553,899
-11,863	21,777	940,396	553,431
-10,848	21,778	939,906	553,124
-9,833	21,994	939,312	553,437
-8,819	21,888	938,822	552,791
-7,804	21,877	938,065	552,289
-6,790	21,843	937,517	551,837
-5,775	21,939	936,797	551,694
-4,760	21,851	936,148	551,012
-3,746	21,810	935,577	550,524
-2,731	21,712	934,796	549,732
-1,717	21,643	934,340	549,226
-0,702	21,684	933,348	548,751
0,313	21,473	932,904	548,651
1,327	23,951	930,611	555,043
2,342	31,538	809,133	503,164
3,356	26,312	510,067	308,221
4,371	2,095	374,807	195,572
5,386	-1,159	357,991	182,772
6,400	-1,955	351,945	178,704
7,415	-2,005	349,552	177,413
8,429	-1,766	348,051	176,922
9,444	-1,734	347,133	176,478
10,459	-1,776	346,603	176,143
11,473	-1,821	345,981	175,757
12,488	-1,823	345,157	175,320
13,502	-1,989	344,655	174,854
14,517	-1,726	344,171	174,904
15,531	-1,668	343,839	174,788
16,546	-1,561	343,428	174,690
17,561	-1,616	343,025	174,405
18,575	-1,607	342,804	174,287
19,590	-1,640	342,262	173,957
20,604	-1,437	341,926	174,009
21,619	-1,617	341,594	173,613
22,634	-1,594	341,260	173,455
23,648	-1,639	340,836	173,172
24,663	-1,445	340,595	173,261
25,677	-1,553	340,132	172,884
26,692	-1,450	339,801	172,820
27,707	-1,554	339,695	172,630
28,721	-1,615	339,369	172,378
29,736	-1,711	339,132	172,130
30,750	-1,636	338,679	171,971
31,765	-1,557	338,398	171,905
32,780	-1,592	338,109	171,703
33,794	-1,563	337,899	171,614
34,809	-1,612	337,537	171,359
35,823	-1,520	337,338	171,349
36,838	-1,495	336,963	171,172
37,853	-1,723	336,725	170,772
38,867	-1,533	336,421	170,823
39,882	-1,827	336,428	170,470
40,896	-1,568	335,874	170,474
41,911	-1,583	335,563	170,284
42,926	-1,448	335,237	170,258
43,940	-1,605	335,118	170,002
44,955	-1,498	334,810	169,953
45,969	-1,503	334,396	169,723
46,984	-1,469	334,284	169,689
47,999	-1,620	334,049	169,382
49,013	-1,634	333,753	169,201
50,028	-1,847	333,651	168,889
51,042	-1,721	333,105	168,743
52,057	-1,719	332,764	168,558
53,071	-1,611	332,591	168,577
54,086	-1,817	332,701	168,383
55,101	-1,700	332,243	168,270
56,115	-1,723	332,029	168,121
57,130	-1,716	331,914	168,055
58,144	-1,761	331,554	167,806
59,159	-1,809	331,208	167,562
60,174	-1,761	330,705	167,347
61,188	-1,708	330,512	167,294
62,203	-1,613	330,358	167,309
63,217	-1,665	330,201	167,156
64,232	-1,566	329,814	167,057
65,247	-1,611	329,641	166,903
66,261	-1,681	329,282	166,628
67,276	-1,627	329,262	166,664
68,290	-1,625	328,881	166,458
69,305	-1,611	328,483	166,258
70,320	-1,675	328,355	166,106
71,334	-1,558	328,088	166,088
72,349	-1,458	327,703	165,991
73,363	-1,683	327,593	165,668
74,378	-1,639	327,290	165,549
75,393	-1,766	327,120	165,306
76,407	-1,592	326,831	165,340
77,422	-1,707	326,647	165,103
78,436	-1,561	326,277	165,065
79,451	-1,729	326,030	164,737
80,466	-1,654	325,786	164,683
81,480	-1,475	325,534	164,741
82,495	-1,681	325,463	164,460
83,509	-1,569	325,008	164,341
84,524	-1,434	324,831	164,386
85,539	-1,473	324,511	164,166
86,553	-1,542	324,344	163,991
87,568	-1,647	324,030	163,701
88,582	-1,532	323,894	163,745
89,597	-1,529	323,590	163,580
90,611	-1,560	323,517	163,495
91,626	-1,642	323,234	163,246
92,641	-1,386	322,812	163,301
93,655	-1,507	322,585	163,038
94,670	-1,624	322,459	162,831
95,684	-1,685	322,285	162,662
96,699	-1,607	322,064	162,621
97,714	-1,725	321,734	162,310
98,728	-1,532	321,476	162,377
99,743	-1,532	321,273	162,260
100,757	-1,635	321,102	162,047
101,772	-1,489	320,901	162,091
102,787	-1,640	320,622	161,770
103,801	-1,686	320,387	161,588
104,816	-1,635	320,303	161,586
105,830	-1,726	320,099	161,369
106,845	-1,633	319,661	161,235
107,860	-1,599	319,435	161,144
108,874	-1,556	319,133	161,024
109,889	-1,588	318,903	160,859
110,903	-1,856	318,769	160,485
111,918	-1,506	318,493	160,713
112,933	-1,598	318,291	160,497
113,947	-1,610	318,087	160,366
114,962	-1,745	317,763	160,042
115,976	-1,607	317,685	160,138
116,991	-1,551	317,335	160,008
118,006	-1,673	317,336	159,863
119,020	-1,663	317,074	159,726
120,035	-1,485	316,791	159,762
121,049	-1,562	316,733	159,635
122,064	-1,588	316,435	159,443
123,079	-1,460	316,081	159,389
124,093	-1,619	315,923	159,124
125,108	-1,677	315,772	158,971
126,122	-1,605	315,455	158,875
127,137	-1,625	315,258	158,739
128,151	-1,451	314,951	158,758
129,166	-1,647	314,835	158,474
130,181	-1,640	314,555	158,327
131,195	-1,703	314,260	158,096
132,210	-1,698	314,091	158,003
133,224	-1,649	313,755	157,873
134,239	-1,690	313,667	157,771
135,254	-1,696	313,478	157,655
136,268	-1,544	313,093	157,609
137,283	-1,606	312,957	157,461
138,297	-1,747	312,653	157,144
139,312	-1,602	312,340	157,127
140,327	-1,765	312,257	156,898
141,341	-1,657	312,105	156,921
142,356	-1,496	311,739	156,895
143,370	-1,564	311,628	156,753
144,385	-1,615	311,332	156,536
145,400	-1,512	311,149	156,538
146,414	-1,367	310,985	156,596
147,429	-1,503	310,767	156,328
148,443	-1,483	310,418	156,160
149,458	-1,603	310,419	156,020
150,473	-1,579	310,164	155,903
151,487	-1,550	309,861	155,767
152,502	-1,545	309,616	155,635
153,516	-1,520	309,503	155,591
154,531	-1,538	309,212	155,412
155,546	-1,609	309,035	155,235
156,560	-1,649	308,876	155,099
157,575	-1,596	308,502	154,953
158,589	-1,619	308,289	154,808
159,604	-1,429	308,141	154,919
160,619	-1,358	307,835	154,826
161,633	-1,477	307,693	154,616
162,648	-1,256	307,537	154,754
163,662	-1,379	307,338	154,512
164,677	-1,469	307,170	154,320
165,692	-1,664	307,074	154,054
166,706	-1,497	306,920	154,138
167,721	-1,507	306,559	153,933
168,735	-1,424	306,495	153,973
169,750	-1,575	306,260	153,684
170,764	-1,675	306,013	153,442
171,779	-1,582	305,715	153,376
172,794	-1,707	305,524	153,136
173,808	-1,512	305,376	153,251
174,823	-1,512	305,115	153,107
175,837	-1,650	305,014	152,900
176,852	-1,727	304,745	152,670
177,867	-1,549	304,515	152,726
178,881	-1,576	304,425	152,639
179,896	-1,486	304,078	152,545
180,910	-1,567	303,949	152,383
181,925	-1,632	303,662	152,158
182,940	-1,586	303,453	152,087
183,954	-1,642	303,355	151,967
184,969	-1,511	303,182	152,002
185,983	-1,430	303,027	151,993
186,998	-1,365	302,763	151,915
188,013	-1,430	302,664	151,785
189,027	-1,414	302,344	151,627
190,042	-1,604	302,031	151,262
191,056	-1,497	301,810	151,247
192,071	-1,757	301,621	150,873
193,086	-1,522	301,266	150,922
194,100	-1,622	301,323	150,835
195,115	-1,510	301,053	150,800
196,129	-1,461	300,753	150,687
197,144	-1,532	300,587	150,519
198,159	-1,496	300,205	150,350
199,173	-1,535	300,073	150,231
200,188	-1,621	299,802	149,995
201,202	-1,741	299,751	149,834
202,217	-1,565	299,434	149,841
203,232	-1,584	299,282	149,732
204,246	-1,449	298,940	149,684
205,261	-1,683	298,806	149,367
206,275	-1,619	298,676	149,353
207,290	-1,373	298,451	149,476
208,304	-1,511	298,416	149,305
209,319	-1,374	297,998	149,221
210,334	-1,391	297,820	149,101
211,348	-1,428	297,720	149,001
212,363	-1,406	297,476	148,888
213,377	-1,461	297,231	148,696
214,392	-1,593	297,164	148,517
215,407	-1,726	296,978	148,277
216,421	-1,485	296,873	148,453
217,436	-1,488	296,427	148,215
218,450	-1,593	296,295	148,030
219,465	-1,654	296,052	147,835
220,480	-1,404	295,946	148,019
221,494	-1,608	295,787	147,722
222,509	-1,599	295,690	147,668
223,523	-1,467	295,224	147,555
224,538	-1,611	295,228	147,400
225,553	-1,749	294,976	147,124
226,567	-1,460	294,800	147,310
227,582	-1,402	294,557	147,233
228,596	-1,584	294,398	146,960
229,611	-1,629	294,281	146,843
230,626	-1,644	293,996	146,674
231,640	-1,601	293,781	146,596
232,655	-1,509	293,652	146,609
233,669	-1,457	293,304	146,474
234,684	-1,574	293,231	146,309
235,699	-1,533	292,977	146,209
236,713	-1,651	292,961	146,072
237,728	-1,520	292,700	146,058
238,742	-1,564	292,432	145,869
239,757	-1,538	292,215	145,772
240,772	-1,565	291,853	145,553
241,786	-1,627	291,974	145,539
242,801	-1,625	291,733	145,408
243,815	-1,427	291,467	145,457
244,830	-1,663	291,436	145,196
245,844	-1,644	291,144	145,056
246,859	-1,609	290,950	144,981
247,874	-1,893	290,832	144,631
248,888	-1,595	290,442	144,715
249,903	-1,738	290,204	144,445
250,917	-1,642	290,034	144,441
251,932	-1,716	289,821	144,249
252,947	-1,975	289,718	143,933
253,961	-2,711	289,019	142,855
254,976	-3,249	288,581	142,102
255,990	-3,305	288,387	141,940
257,005	-2,296	288,985	143,204
258,020	0,294	289,784	146,116
259,034	1,741	290,039	147,644
260,049	2,193	290,042	148,073
261,063	2,543	290,091	148,425
262,078	2,670	289,976	148,477
263,093	3,164	289,877	148,894
264,107	3,240	289,769	148,900
265,122	3,529	289,720	149,142
266,136	3,381	289,535	148,889
267,151	3,450	289,204	148,773
268,166	3,398	289,147	148,680
269,180	3,588	288,834	148,690
270,195	3,413	288,742	148,460
271,209	3,422	288,410	148,285
272,224	3,288	288,395	148,134
273,239	3,352	288,011	147,985
274,253	3,179	287,837	147,716
275,268	3,137	287,575	147,528
276,282	3,108	287,508	147,452
277,297	3,161	287,303	147,385
278,312	3,341	287,152	147,467
279,326	3,370	287,047	147,429
280,341	3,244	286,836	147,185
281,355	3,193	286,592	146,999
282,370	3,119	286,351	146,791
283,384	3,033	286,244	146,640
284,399	3,051	286,003	146,521
285,414	3,233	285,754	146,554
286,428	3,185	285,521	146,376
287,443	3,239	285,414	146,359
288,457	3,056	285,233	146,079
289,472	3,103	284,888	145,934
290,487	2,794	284,951	145,658
291,501	2,951	284,653	145,643
292,516	2,974	284,447	145,546
293,530	2,951	284,265	145,419
294,545	3,028	283,977	145,331
295,560	2,852	283,955	145,140
296,574	2,762	283,604	144,862
297,589	2,889	283,524	144,929
298,603	2,630	283,370	144,591
299,618	2,912	283,104	144,710
300,633	2,916	283,068	144,683
301,647	3,039	282,822	144,661
302,662	2,938	282,676	144,477
303,676	3,100	282,519	144,537
304,691	3,199	282,347	144,530
305,706	3,334	282,086	144,510
306,720	3,400	282,101	144,568
307,735	3,334	281,833	144,355
308,749	3,312	281,634	144,220
309,764	3,289	281,458	144,095
310,779	3,247	281,118	143,869
311,793	3,110	281,104	143,721
312,808	3,186	280,822	143,634
313,822	3,083	280,525	143,373
314,837	3,321	280,464	143,552
315,852	3,023	280,480	143,268
316,866	3,288	280,160	143,340
317,881	3,318	279,932	143,240
318,895	3,164	279,754	142,992
319,910	3,088	279,568	142,812
320,925	3,156	279,425	142,790
321,939	3,321	279,186	142,809
322,954	3,227	279,257	142,745
323,968	3,260	279,036	142,650
324,983	3,329	278,888	142,625
325,997	3,408	278,571	142,525
327,012	3,288	278,413	142,319
328,027	3,442	278,141	142,310
329,041	3,393	278,066	142,214
330,056	3,339	277,855	142,043
331,070	3,496	277,677	142,086
332,085	3,315	277,572	141,851
333,100	3,380	277,320	141,770
334,114	3,409	277,135	141,689
335,129	3,292	276,983	141,491
336,143	3,366	276,740	141,423
337,158	3,570	276,416	141,433
338,173	3,462	276,507	141,366
339,187	3,301	276,361	141,131
340,202	3,106	276,188	140,850
341,216	3,530	275,911	141,087
342,231	3,216	275,605	140,629
343,246	3,293	275,655	140,713
344,260	3,365	275,452	140,663
345,275	3,505	275,295	140,699
346,289	3,420	275,044	140,480
347,304	3,441	274,839	140,382
348,319	3,281	274,658	140,130
349,333	3,199	274,523	139,974
350,348	3,357	274,440	140,064
351,362	3,503	274,188	140,056
352,377	3,280	273,957	139,722
353,392	3,493	273,781	139,815
354,406	3,307	273,628	139,554
355,421	191,699	1351,979	1433,269
356,435	154,785	1483,471	1433,401
