DTS Sentinel unit serial number:	SN410029Multiplexer serial number:	ORYXHardware model number:	OX2-SRSoftware version number:	ORYX F/W v4,00 Oryx Data Collector v3.7.2.0data status	okinstallation	B4 Nyhavnadifferential loss correction	single-endedforward channel	channel 2reverse channel	N/Adate	2023/12/19time	02:40:13forward acquisition time	300,00reverse acquisition time	0,00gamma	499,1914k internal	0,3125k external	0,3125temperature offset calibration	1,0000default loss term (dB/km)	0,3820temperature slope calibration	1,0000multiplexer offset coefficient	1,0000multiplexer slope coefficient	1,0000fibre end	0,00T internal ref (°C)	21,26T ext. ref 1 (°C)	6,19T ext. ref 2 (°C)	6,27length (m)	temperature (°C)	Stokes	anti-Stokes-744,400	-88,588	-0,102	-0,022
-743,385	-149,035	-0,302	0,018
-742,371	-200,000	-0,001	0,004
-741,356	160,239	-0,075	0,078
-740,342	800,000	-0,057	-0,133
-739,327	-101,162	-0,171	0,031
-738,312	800,000	-0,020	-0,048
-737,298	-158,207	-0,267	0,011
-736,283	430,296	0,063	-0,102
-735,269	-53,292	-0,150	0,051
-734,254	-200,000	0,025	0,155
-733,239	-16,217	-0,386	-0,182
-732,225	800,000	0,013	0,041
-731,210	491,463	-0,061	0,104
-730,196	-74,713	-0,043	0,011
-729,181	17,423	-0,174	-0,103
-728,167	69,793	0,071	-0,055
-727,152	730,935	0,033	0,066
-726,137	-87,544	-0,182	0,041
-725,123	-200,000	0,012	-0,121
-724,108	247,479	-0,009	0,012
-723,094	-200,000	-0,012	-0,094
-722,079	791,928	-0,027	-0,055
-721,064	-81,799	-0,039	-0,010
-720,050	495,204	-0,049	0,084
-719,035	-130,063	0,052	0,005
-718,021	75,859	-0,074	-0,058
-717,006	695,339	-0,034	-0,067
-715,991	-129,429	-0,050	0,005
-714,977	-23,667	-0,085	-0,038
-713,962	63,071	0,096	0,071
-712,948	800,000	-0,041	0,091
-711,933	25,480	0,099	0,061
-710,918	73,789	-0,086	0,067
-709,904	-180,115	-0,196	0,003
-708,889	84,288	-0,035	0,029
-707,875	151,032	-0,083	-0,084
-706,860	-120,620	0,069	0,009
-705,845	-111,863	-0,038	0,006
-704,831	413,762	-0,054	-0,085
-703,816	725,400	0,009	-0,018
-702,802	349,922	-0,090	-0,133
-701,787	169,948	-0,045	-0,047
-700,772	-200,000	-0,021	-0,106
-699,758	-200,000	0,027	0,129
-698,743	-25,618	0,173	-0,075
-697,729	18,050	0,108	-0,064
-696,714	-95,032	0,040	0,008
-695,699	-132,002	-0,097	-0,009
-694,685	304,803	-0,064	-0,088
-693,670	-200,000	-0,013	-0,066
-692,656	-31,584	-0,078	-0,032
-691,641	-125,331	0,074	-0,008
-690,627	-178,188	-0,105	0,002
-689,612	151,723	-0,044	-0,045
-688,597	258,752	0,033	0,043
-687,583	-82,766	-0,162	0,039
-686,568	800,000	-0,027	0,086
-685,554	800,000	0,043	-0,102
-684,539	-39,488	0,080	-0,031
-683,524	-0,683	0,100	-0,053
-682,510	-200,000	0,010	0,081
-681,495	-92,647	0,220	-0,045
-680,481	-53,588	-0,194	-0,065
-679,466	800,000	0,014	-0,038
-678,451	143,727	-0,020	-0,020
-677,437	-47,884	-0,223	-0,080
-676,422	-62,223	-0,016	-0,005
-675,408	107,633	0,078	0,069
-674,393	-200,000	-0,026	-0,127
-673,378	-136,082	-0,081	-0,007
-672,364	174,764	-0,085	-0,092
-671,349	-200,000	-0,015	-0,050
-670,335	-23,344	0,022	-0,010
-669,320	46,881	-0,148	0,102
-668,305	227,033	-0,085	-0,103
-667,291	239,256	0,055	-0,068
-666,276	-139,470	-0,114	0,009
-665,262	20,995	-0,146	0,088
-664,247	51,055	-0,040	-0,028
-663,232	-200,000	-0,027	0,099
-662,218	-20,612	0,055	-0,025
-661,203	47,854	0,012	0,008
-660,189	800,000	0,026	0,074
-659,174	-187,327	-0,090	-0,001
-658,159	626,043	0,026	-0,049
-657,145	800,000	-0,059	-0,142
-656,130	-78,303	-0,114	-0,029
-655,116	42,548	0,134	0,091
-654,101	800,000	-0,058	0,131
-653,086	17,875	0,055	-0,033
-652,072	384,046	-0,080	-0,122
-651,057	751,805	-0,008	-0,016
-650,043	222,194	-0,028	-0,034
-649,028	-200,000	0,015	0,126
-648,014	156,358	0,038	0,039
-646,999	77,148	-0,072	-0,056
-645,984	61,265	-0,085	0,063
-644,970	800,000	0,081	0,174
-643,955	-48,135	-0,059	-0,021
-642,941	628,185	0,053	0,099
-641,926	-71,153	0,045	0,012
-640,911	68,317	0,064	0,048
-639,897	800,000	0,091	0,197
-638,882	-200,000	-0,003	-0,035
-637,868	99,658	-0,066	0,057
-636,853	65,469	-0,123	-0,092
-635,838	-65,692	0,065	-0,019
-634,824	72,525	-0,018	0,014
-633,809	800,000	-0,056	0,145
-632,795	115,555	0,025	0,023
-631,780	-200,000	0,007	0,024
-630,765	-200,000	0,031	-0,112
-629,751	-200,000	-0,034	0,138
-628,736	402,139	0,078	0,121
-627,722	-157,134	-0,140	-0,006
-626,707	-200,000	0,003	0,067
-625,692	32,887	0,118	0,076
-624,678	191,140	-0,094	-0,105
-623,663	-55,698	-0,050	-0,016
-622,649	-200,000	0,007	0,050
-621,634	55,346	-0,110	-0,078
-620,619	121,134	-0,063	0,058
-619,605	800,000	-0,013	0,029
-618,590	143,312	-0,046	-0,045
-617,576	-57,792	-0,147	0,047
-616,561	-200,000	0,019	0,092
-615,546	13,990	0,122	-0,070
-614,532	89,817	-0,103	-0,085
-613,517	32,659	0,045	-0,029
-612,503	800,000	-0,042	-0,095
-611,488	-75,961	-0,037	-0,010
-610,474	-184,165	-0,107	0,001
-609,459	-133,529	0,073	0,007
-608,444	331,759	-0,085	-0,122
-607,430	243,031	-0,092	0,114
-606,415	773,736	0,061	-0,123
-605,401	-167,570	-0,031	-0,001
-604,386	72,460	0,032	0,025
-603,371	62,683	-0,036	0,027
-602,357	-5,892	-0,049	-0,025
-601,342	-30,046	0,016	-0,007
-600,328	-200,000	-0,007	-0,042
-599,313	-137,966	-0,024	-0,002
-598,298	-67,628	-0,204	0,059
-597,284	144,716	0,171	0,169
-596,269	505,570	0,099	0,171
-595,255	800,000	-0,035	0,096
-594,240	303,943	-0,028	-0,039
-593,225	-200,000	-0,004	-0,076
-592,211	800,000	-0,023	-0,050
-591,196	-200,000	-0,006	-0,053
-590,182	-200,000	0,017	0,160
-589,167	-104,547	0,138	0,023
-588,152	152,194	-0,074	-0,075
-587,138	36,435	0,126	-0,082
-586,123	199,958	0,008	0,009
-585,109	772,555	-0,058	-0,118
-584,094	-200,000	0,003	-0,023
-583,079	-200,000	0,009	-0,154
-582,065	352,606	0,063	0,092
-581,050	22,788	0,067	0,041
-580,036	55,950	0,048	0,035
-579,021	46,630	0,091	-0,063
-578,006	-47,823	-0,071	0,025
-576,992	800,000	-0,061	-0,134
-575,977	-102,870	0,066	-0,011
-574,963	334,787	-0,054	-0,078
-573,948	800,000	0,028	-0,081
-572,934	800,000	-0,044	0,115
-571,919	-61,527	-0,157	-0,049
-570,904	-77,468	-0,202	-0,052
-569,890	800,000	-0,048	-0,124
-568,875	-158,088	0,055	0,002
-567,861	-200,000	0,016	-0,058
-566,846	261,815	0,028	0,036
-565,831	-161,086	-0,110	0,004
-564,817	95,122	-0,014	-0,011
-563,802	226,148	-0,075	-0,090
-562,788	0,703	-0,085	-0,045
-561,773	-200,000	0,002	0,110
-560,758	800,000	-0,060	0,168
-559,744	39,808	0,082	0,055
-558,729	-200,000	-0,020	0,100
-557,715	-134,814	-0,152	-0,013
-556,700	6,863	0,173	-0,095
-555,685	96,554	0,019	0,016
-554,671	7,872	0,015	0,008
-553,656	-60,919	0,111	-0,035
-552,642	-68,276	-0,160	-0,046
-551,627	-127,996	0,055	-0,006
-550,612	107,851	-0,112	0,098
-549,598	145,500	-0,098	-0,097
-548,583	-82,173	0,159	0,038
-547,569	31,530	0,068	-0,043
-546,554	-3,991	-0,147	-0,075
-545,539	39,468	0,124	0,082
-544,525	167,119	0,040	0,042
-543,510	-130,806	-0,030	-0,003
-542,496	375,880	0,030	-0,046
-541,481	301,615	-0,035	-0,048
-540,466	-200,000	-0,058	0,190
-539,452	-135,905	0,076	-0,006
-538,437	-60,223	0,111	0,035
-537,423	9,626	0,066	-0,037
-536,408	201,745	-0,046	-0,053
-535,393	658,555	-0,073	-0,139
-534,379	-200,000	-0,025	0,105
-533,364	-200,000	0,001	-0,008
-532,350	-28,151	0,070	0,030
-531,335	274,285	0,086	-0,112
-530,321	-70,973	-0,057	0,016
-529,306	-200,000	-0,001	-0,033
-528,291	-43,623	-0,039	-0,014
-527,277	82,081	-0,149	-0,119
-526,262	231,658	0,021	-0,026
-525,248	-200,000	0,024	0,085
-524,233	78,633	-0,011	-0,009
-523,218	-200,000	-0,004	0,020
-522,204	-45,084	0,093	0,034
-521,189	-152,505	-0,206	-0,011
-520,175	-131,384	0,059	-0,006
-519,160	198,446	0,023	0,026
-518,145	-20,218	0,060	0,027
-517,131	8,008	0,101	0,056
-516,116	44,359	0,072	0,049
-515,102	-200,000	0,012	-0,040
-514,087	119,910	0,023	0,021
-513,072	342,472	-0,030	0,043
-512,058	211,135	-0,142	-0,165
-511,043	-200,000	0,011	0,074
-510,029	618,374	-0,047	0,088
-509,014	103,745	-0,069	0,060
-507,999	509,429	-0,043	0,073
-506,985	-18,927	-0,065	-0,030
-505,970	116,680	0,072	-0,065
-504,956	-54,699	0,123	-0,041
-503,941	44,550	-0,051	0,035
-502,926	800,000	0,071	0,174
-501,912	800,000	0,052	0,135
-500,897	-166,762	0,037	-0,001
-499,883	-200,000	0,039	0,152
-498,868	800,000	-0,041	-0,097
-497,853	336,601	0,121	-0,174
-496,839	-51,169	-0,045	0,015
-495,824	-200,000	-0,004	0,017
-494,810	309,903	0,079	0,110
-493,795	77,139	-0,031	0,024
-492,781	-11,970	0,020	0,010
-491,766	320,396	-0,080	-0,112
-490,751	800,000	-0,054	-0,119
-489,737	-200,000	-0,010	-0,083
-488,722	-200,000	0,046	0,171
-487,708	-73,209	0,133	0,036
-486,693	-159,670	0,080	0,003
-485,678	800,000	-0,012	-0,036
-484,664	521,572	-0,048	-0,084
-483,649	-95,304	-0,144	-0,028
-482,635	-200,000	0,045	0,149
-481,620	-200,000	-0,010	-0,046
-480,605	-93,119	0,099	0,020
-479,591	-200,000	-0,004	0,078
-478,576	40,820	0,108	-0,072
-477,562	-200,000	0,022	-0,109
-476,547	12,783	-0,056	0,032
-475,532	-200,000	0,002	-0,082
-474,518	-117,924	0,092	0,012
-473,503	800,000	-0,049	0,110
-472,489	-61,375	0,073	0,022
-471,474	-5,242	0,146	0,074
-470,459	11,582	0,089	-0,050
-469,445	25,331	0,052	0,032
-468,430	259,432	0,066	0,084
-467,416	-59,938	0,085	-0,027
-466,401	-70,484	-0,081	0,023
-465,386	114,067	0,110	-0,099
-464,372	-200,000	-0,005	0,073
-463,357	-121,453	-0,043	-0,005
-462,343	120,613	-0,031	-0,029
-461,328	-60,749	0,110	0,034
-460,313	-200,000	-0,008	0,158
-459,299	484,871	-0,090	0,151
-458,284	12,962	-0,097	-0,055
-457,270	643,717	-0,042	0,078
-456,255	86,977	-0,001	-0,001
-455,241	800,000	0,001	0,003
-454,226	52,385	-0,087	-0,061
-453,211	754,334	-0,029	-0,058
-452,197	-200,000	-0,008	-0,035
-451,182	-8,592	0,107	-0,053
-450,168	205,882	0,071	-0,082
-449,153	-200,000	0,005	-0,029
-448,138	800,000	0,032	-0,102
-447,124	211,275	0,085	-0,098
-446,109	434,883	-0,046	0,073
-445,095	-200,000	-0,015	0,101
-444,080	-200,000	-0,011	-0,066
-443,065	-105,197	-0,075	-0,012
-442,051	-47,126	-0,139	-0,050
-441,036	-200,000	-0,005	-0,102
-440,022	-200,000	0,007	-0,126
-439,007	800,000	0,012	-0,031
-437,992	800,000	0,021	-0,068
-436,978	94,438	-0,041	-0,034
-435,963	297,974	0,054	-0,073
-434,949	483,068	-0,047	0,078
-433,934	261,933	0,078	0,100
-432,919	134,294	0,032	-0,031
-431,905	-14,666	-0,060	0,028
-430,890	203,058	0,075	0,086
-429,876	-200,000	0,005	-0,103
-428,861	292,286	0,070	-0,094
-427,846	-200,000	0,018	0,124
-426,832	553,359	0,093	0,165
-425,817	-114,610	0,041	-0,006
-424,803	-200,000	0,018	0,064
-423,788	-200,000	-0,035	-0,162
-422,773	-200,000	0,002	-0,122
-421,759	-9,150	0,034	-0,017
-420,744	91,806	-0,115	0,095
-419,730	-100,420	0,037	-0,007
-418,715	207,437	-0,119	-0,137
-417,701	800,000	-0,068	0,185
-416,686	-113,606	0,070	0,010
-415,671	138,468	-0,040	0,039
-414,657	271,542	0,051	0,066
-413,642	307,412	-0,105	0,144
-412,628	15,888	-0,095	0,055
-411,613	-23,741	-0,035	-0,016
-410,598	800,000	0,041	0,088
-409,584	-200,000	-0,022	0,092
-408,569	33,243	-0,093	0,059
-407,555	167,699	-0,096	0,101
-406,540	-24,807	0,125	-0,055
-405,525	-200,000	0,005	-0,116
-404,511	709,941	0,066	-0,129
-403,496	-200,000	0,009	0,058
-402,482	550,046	0,028	-0,050
-401,467	230,784	0,085	0,102
-400,452	332,792	-0,090	0,128
-399,438	-13,381	0,092	0,044
-398,423	311,205	-0,047	0,065
-397,409	103,485	0,053	0,046
-396,394	-200,000	0,003	0,058
-395,379	-5,672	0,108	-0,054
-394,365	534,969	-0,042	0,074
-393,350	800,000	0,037	0,094
-392,336	-73,414	0,125	0,033
-391,321	-200,000	-0,001	-0,039
-390,306	-200,000	-0,014	-0,169
-389,292	248,873	-0,077	-0,096
-388,277	10,500	-0,077	-0,043
-387,263	171,291	0,095	0,100
-386,248	22,614	0,177	0,106
-385,233	800,000	-0,055	0,120
-384,219	-200,000	0,009	-0,032
-383,204	81,504	0,043	0,034
-382,190	800,000	-0,014	0,045
-381,175	-200,000	-0,025	0,092
-380,160	63,691	0,061	0,045
-379,146	33,272	0,212	0,135
-378,131	282,531	0,061	0,080
-377,117	588,783	0,085	-0,155
-376,102	247,750	-0,028	0,035
-375,088	235,856	-0,050	0,060
-374,073	161,041	-0,081	-0,084
-373,058	800,000	0,046	0,105
-372,044	-200,000	0,003	-0,028
-371,029	-98,508	0,039	0,007
-370,015	-8,504	-0,107	0,053
-369,000	56,921	-0,052	-0,037
-367,985	-188,227	-0,056	0,001
-366,971	80,972	-0,053	-0,042
-365,956	15,878	0,066	-0,038
-364,942	9,492	0,065	0,036
-363,927	-164,692	-0,124	-0,004
-362,912	-29,432	-0,072	0,030
-361,898	133,781	-0,070	0,067
-360,883	-32,512	0,013	0,005
-359,869	-148,028	0,065	-0,004
-358,854	53,176	-0,116	0,082
-357,839	230,789	-0,066	0,080
-356,825	-73,369	0,138	-0,037
-355,810	376,337	0,040	0,059
-354,796	-200,000	-0,053	-0,224
-353,781	800,000	-0,039	-0,106
-352,766	100,509	-0,136	-0,116
-351,752	-199,424	-0,126	-0,000
-350,737	245,935	0,063	0,078
-349,723	215,757	-0,094	0,110
-348,708	12,715	-0,058	0,033
-347,693	-77,769	0,073	-0,018
-346,679	-200,000	-0,009	-0,082
-345,664	13,695	-0,110	0,063
-344,650	-46,609	-0,052	0,019
-343,635	92,381	-0,030	-0,025
-342,620	247,336	0,010	-0,013
-341,606	88,223	0,051	-0,042
-340,591	-94,112	-0,133	-0,027
-339,577	44,282	0,043	0,029
-338,562	800,000	0,039	0,082
-337,548	800,000	-0,052	-0,132
-336,533	126,111	0,022	0,020
-335,518	-15,148	-0,096	-0,045
-334,504	564,830	-0,051	-0,091
-333,489	800,000	0,034	0,084
-332,475	602,921	0,040	0,074
-331,460	-0,106	-0,060	0,031
-330,445	-200,000	0,011	0,077
-329,431	435,748	-0,033	0,053
-328,416	-200,000	0,011	0,091
-327,402	686,775	0,086	-0,165
-326,387	574,438	-0,067	-0,121
-325,372	-68,840	0,186	-0,052
-324,358	-1,654	-0,088	-0,045
-323,343	48,665	-0,063	-0,043
-322,329	-159,101	0,178	-0,007
-321,314	-200,000	-0,009	0,041
-320,299	43,120	0,120	0,080
-319,285	800,000	-0,018	-0,057
-318,270	-164,222	-0,052	0,002
-317,256	532,025	-0,074	0,129
-316,241	-82,243	0,099	-0,023
-315,226	520,511	-0,070	-0,121
-314,212	52,688	0,075	-0,053
-313,197	800,000	0,036	-0,097
-312,183	620,874	0,040	0,075
-311,168	271,389	-0,033	0,043
-310,153	87,816	-0,078	-0,063
-309,139	-75,454	-0,059	-0,015
-308,124	203,966	0,079	-0,090
-307,110	-200,000	0,013	-0,143
-306,095	-93,579	0,061	0,012
-305,080	-136,028	-0,190	0,016
-304,066	561,826	0,050	-0,088
-303,051	-20,731	0,101	0,045
-302,037	594,714	-0,038	0,069
-301,022	800,000	-0,046	0,101
-300,008	-81,013	0,157	0,038
-298,993	-55,058	0,076	-0,025
-297,978	11,547	0,148	0,083
-296,964	172,396	0,051	-0,053
-295,949	-130,254	-0,036	-0,004
-294,935	151,478	-0,119	-0,119
-293,920	420,285	0,075	0,119
-292,905	-15,113	0,118	-0,055
-291,891	-200,000	0,011	0,085
-290,876	-200,000	-0,015	0,109
-289,862	-200,000	0,030	-0,195
-288,847	-200,000	0,001	-0,030
-287,832	-100,738	0,052	-0,009
-286,818	-54,424	-0,061	0,020
-285,803	3,926	-0,008	-0,004
-284,789	-76,674	0,131	-0,033
-283,774	-28,021	0,016	0,007
-282,759	425,261	0,029	0,046
-281,745	209,781	-0,101	-0,116
-280,730	-17,049	-0,025	0,012
-279,716	110,762	0,070	-0,062
-278,701	-200,000	0,034	0,158
-277,686	-82,261	0,174	0,041
-276,672	-200,000	-0,001	0,093
-275,657	16,623	0,022	-0,013
-274,643	548,039	-0,050	-0,089
-273,628	355,762	-0,073	0,107
-272,613	40,191	-0,096	-0,063
-271,599	92,862	-0,076	-0,063
-270,584	-200,000	-0,002	-0,123
-269,570	46,736	-0,086	0,058
-268,555	-28,651	-0,024	-0,010
-267,540	-200,000	-0,036	-0,131
-266,526	-200,000	0,022	0,093
-265,511	5,878	0,152	-0,082
-264,497	-200,000	-0,052	-0,209
-263,482	-91,796	0,076	-0,016
-262,467	-71,529	-0,037	0,010
-261,453	217,293	-0,007	0,009
-260,438	-200,000	0,004	-0,140
-259,424	-96,098	-0,064	0,012
-258,409	-200,000	-0,001	-0,083
-257,395	800,000	-0,009	0,024
-256,380	247,850	-0,042	0,052
-255,365	582,272	-0,033	-0,059
-254,351	-200,000	0,009	-0,102
-253,336	138,808	-0,083	-0,080
-252,322	800,000	-0,011	0,033
-251,307	-4,011	0,065	-0,033
-250,292	355,809	-0,056	0,082
-249,278	75,083	-0,135	-0,104
-248,263	-200,000	0,001	-0,052
-247,249	-36,877	0,084	-0,033
-246,234	-178,958	0,051	0,001
-245,219	800,000	-0,040	0,120
-244,205	-200,000	0,007	-0,169
-243,190	534,934	-0,085	-0,148
-242,176	-200,000	0,013	0,100
-241,161	-19,705	-0,094	-0,042
-240,146	-170,604	-0,049	-0,001
-239,132	-200,000	-0,006	-0,150
-238,117	-200,000	0,001	-0,074
-237,103	233,677	-0,017	-0,020
-236,088	800,000	-0,012	0,026
-235,073	22,291	-0,030	0,018
-234,059	-200,000	0,034	0,119
-233,044	48,900	0,089	0,061
-232,030	-79,462	0,046	-0,011
-231,015	-13,495	-0,103	-0,048
-230,000	133,158	0,026	-0,025
-228,986	240,205	0,108	0,132
-227,971	21,908	-0,081	-0,048
-226,957	800,000	0,031	0,071
-225,942	143,417	-0,080	0,078
-224,927	21,191	0,038	-0,022
-223,913	-61,781	0,093	-0,028
-222,898	800,000	-0,054	-0,138
-221,884	-119,385	0,025	-0,003
-220,869	166,137	0,040	-0,041
-219,855	-65,419	0,153	0,045
-218,840	94,586	0,074	0,061
-217,825	800,000	-0,011	-0,025
-216,811	-115,173	-0,050	0,007
-215,796	-43,785	0,083	-0,030
-214,782	-114,561	0,059	-0,008
-213,767	-37,914	0,037	-0,014
-212,752	-200,000	-0,008	0,069
-211,738	-200,000	0,001	0,050
-210,723	216,114	0,053	0,062
-209,709	8,268	-0,089	-0,049
-208,694	-151,322	0,022	0,001
-207,679	-200,000	0,006	-0,086
-206,665	451,145	0,038	-0,061
-205,650	-24,283	0,019	0,008
-204,636	-200,000	-0,004	-0,113
-203,621	81,445	-0,097	-0,076
-202,606	-5,395	-0,121	0,060
-201,592	488,414	-0,025	-0,041
-200,577	-200,000	-0,021	-0,159
-199,563	-72,996	0,081	-0,021
-198,548	-108,293	0,139	0,022
-197,533	-200,000	0,006	0,070
-196,519	-200,000	-0,045	0,181
-195,504	-105,293	-0,026	-0,004
-194,490	160,716	-0,090	-0,091
-193,475	303,927	-0,050	0,068
-192,460	22,649	0,040	-0,024
-191,446	-27,649	0,097	-0,041
-190,431	442,955	0,083	0,133
-189,417	73,454	-0,037	-0,028
-188,402	81,184	-0,152	-0,120
-187,387	131,695	0,102	-0,095
-186,373	-127,736	-0,019	0,002
-185,358	-89,071	0,104	0,022
-184,344	800,000	-0,022	0,058
-183,329	800,000	0,050	-0,107
-182,315	51,342	0,016	-0,011
-181,300	554,726	-0,045	-0,079
-180,285	-155,991	-0,121	0,005
-179,271	51,305	-0,098	-0,068
-178,256	-140,001	-0,052	-0,004
-177,242	-79,547	0,163	0,040
-176,227	800,000	-0,022	0,048
-175,212	208,757	0,093	0,106
-174,198	-109,993	0,097	-0,015
-173,183	800,000	0,028	-0,063
-172,169	800,000	0,023	-0,048
-171,154	-200,000	0,012	-0,110
-170,139	100,322	-0,026	0,022
-169,125	800,000	-0,042	0,093
-168,110	-33,264	-0,108	0,043
-167,096	-104,056	-0,194	0,033
-166,081	-109,520	-0,130	-0,020
-165,066	-136,559	-0,070	0,006
-164,052	319,826	-0,030	-0,042
-163,037	-200,000	-0,002	0,078
-162,023	309,773	-0,080	0,109
-161,008	-200,000	-0,028	-0,136
-159,993	94,171	0,096	-0,079
-158,979	-137,653	0,083	-0,007
-157,964	800,000	-0,040	-0,120
-156,950	6,523	0,134	-0,072
-155,935	-200,000	0,032	0,144
-154,920	124,046	-0,050	0,046
-153,906	-200,000	0,021	0,087
-152,891	2,263	0,100	-0,053
-151,877	686,329	-0,016	0,031
-150,862	800,000	-0,049	-0,121
-149,847	1,836	0,070	-0,037
-148,833	-180,568	0,145	0,002
-147,818	-84,987	-0,149	0,034
-146,804	390,402	0,063	-0,096
-145,789	151,919	0,070	0,069
-144,775	268,244	0,069	-0,088
-143,760	-200,000	-0,005	-0,059
-142,745	316,367	-0,035	-0,048
-141,731	142,130	-0,075	0,072
-140,716	-123,905	0,181	-0,021
-139,702	-187,547	0,185	-0,002
-138,687	-200,000	0,029	-0,097
-137,672	714,767	-0,035	-0,068
-136,658	292,081	-0,037	-0,049
-135,643	-49,393	-0,040	0,014
-134,629	392,753	0,032	0,049
-133,614	-200,000	-0,042	0,152
-132,599	800,000	0,050	-0,102
-131,585	-63,402	0,061	-0,018
-130,570	24,986	-0,058	0,035
-129,556	51,166	-0,083	0,057
-128,541	800,000	-0,057	-0,117
-127,526	-129,931	0,034	0,003
-126,512	800,000	0,009	-0,020
-125,497	-81,243	0,091	-0,022
-124,483	198,509	0,103	0,115
-123,468	159,636	0,086	0,087
-122,453	-200,000	-0,052	-0,173
-121,439	-47,160	-0,058	-0,020
-120,424	-200,000	0,006	-0,044
-119,410	800,000	0,026	0,071
-118,395	63,893	-0,093	0,068
-117,380	-132,418	0,017	0,002
-116,366	-200,000	-0,017	-0,127
-115,351	-200,000	-0,008	-0,111
-114,337	-68,311	-0,130	0,037
-113,322	-53,893	0,089	0,029
-112,307	-130,495	0,033	0,003
-111,293	-1,291	0,107	-0,055
-110,278	207,370	-0,040	0,045
-109,264	-200,000	0,002	-0,066
-108,249	-11,975	0,130	0,062
-107,234	160,937	-0,106	-0,107
-106,220	512,466	0,105	-0,178
-105,205	-148,665	-0,182	-0,011
-104,191	-28,527	0,020	-0,008
-103,176	152,569	0,097	-0,096
-102,162	-200,000	0,004	0,056
-101,147	-2,076	-0,050	0,026
-100,132	-62,814	-0,090	0,027
-99,118	-200,000	-0,001	-0,047
-98,103	70,603	0,023	-0,017
-97,089	35,339	0,112	-0,072
-96,074	-170,080	0,181	-0,005
-95,059	-200,000	0,001	-0,100
-94,045	800,000	-0,043	-0,106
-93,030	-200,000	0,030	-0,153
-92,016	74,235	0,087	-0,066
-91,001	-200,000	-0,018	-0,137
-89,986	33,813	0,032	-0,020
-88,972	-200,000	0,042	-0,134
-87,957	154,709	0,016	0,016
-86,943	-144,362	0,103	-0,007
-85,928	800,000	-0,025	-0,067
-84,913	-200,000	-0,011	0,058
-83,899	-200,000	-0,005	-0,061
-82,884	-200,000	-0,002	0,020
-81,870	49,599	0,059	0,040
-80,855	413,927	-0,073	0,114
-79,840	262,534	-0,082	-0,104
-78,826	-103,730	-0,080	0,013
-77,811	45,636	-0,063	0,042
-76,797	-32,035	0,087	-0,035
-75,782	-123,759	0,101	0,011
-74,767	800,000	0,025	0,053
-73,753	-200,000	-0,029	0,150
-72,738	4,177	0,166	0,088
-71,724	800,000	0,025	-0,053
-70,709	258,182	-0,112	-0,141
-69,694	-6,358	-0,091	-0,045
-68,680	176,002	-0,075	-0,079
-67,665	8,957	0,068	-0,037
-66,651	-34,899	-0,081	0,032
-65,636	-200,000	0,022	0,103
-64,622	-105,078	0,102	0,017
-63,607	-27,548	0,152	-0,064
-62,592	-99,405	0,021	0,004
-61,578	800,000	-0,040	0,086
-60,563	-200,000	0,011	0,068
-59,549	800,000	-0,037	0,086
-58,534	-133,333	-1,349	-0,122
-57,519	800,000	-0,650	-1,473
-56,505	-200,000	-0,875	-4,406
-55,490	-62,046	0,645	-0,194
-54,476	800,000	4,997	11,810
-53,461	-200,000	14,461	261,101
-52,446	-200,000	695,587	2278,193
-51,432	603,950	1622,922	2940,759
-50,417	117,659	1631,857	1456,342
-49,403	74,799	1285,920	980,496
-48,388	37,180	1022,987	655,472
-47,373	23,505	981,981	584,208
-46,359	22,706	971,324	575,225
-45,344	21,485	966,916	568,602
-44,330	21,491	965,541	567,789
-43,315	21,321	963,982	566,296
-42,300	21,300	962,975	565,615
-41,286	21,305	961,957	565,011
-40,271	21,321	960,794	564,356
-39,257	21,279	959,936	563,695
-38,242	21,281	958,995	563,126
-37,227	21,292	958,205	562,674
-36,213	21,228	957,331	561,932
-35,198	21,219	956,394	561,331
-34,184	21,315	955,737	561,232
-33,169	21,206	954,944	560,393
-32,154	21,348	953,902	560,218
-31,140	21,352	953,092	559,733
-30,125	21,339	952,315	559,213
-29,111	21,324	951,507	558,668
-28,096	21,269	951,018	558,180
-27,082	21,276	950,362	557,798
-26,067	21,299	949,356	557,259
-25,052	21,319	948,689	556,908
-24,038	21,312	948,041	556,483
-23,023	21,300	947,335	556,010
-22,009	21,323	946,738	555,710
-20,994	21,326	946,114	555,331
-19,979	21,304	945,497	554,875
-18,965	21,268	945,080	554,495
-17,950	21,355	944,168	554,216
-16,936	21,231	943,600	553,463
-15,921	21,281	942,756	553,108
-14,906	21,212	942,172	552,524
-13,892	21,175	941,581	552,036
-12,877	21,191	940,779	551,595
-11,863	21,093	940,387	551,032
-10,848	21,171	939,782	550,902
-9,833	21,254	939,220	550,814
-8,819	21,217	938,721	550,383
-7,804	21,189	938,067	549,888
-6,790	21,189	937,496	549,534
-5,775	21,247	936,742	549,254
-4,760	21,184	936,469	548,871
-3,746	21,199	935,484	548,321
-2,731	21,014	934,852	547,342
-1,717	20,987	934,275	546,897
-0,702	21,003	933,545	546,501
0,313	20,813	932,885	546,341
1,327	23,389	930,242	552,839
2,342	30,908	807,763	500,411
3,356	25,369	508,328	305,434
4,371	0,916	373,602	193,352
5,386	-2,055	356,719	180,950
6,400	-3,347	350,873	176,406
7,415	-3,576	348,365	174,854
8,429	-3,550	346,808	174,088
9,444	-3,744	346,141	173,506
10,459	-3,488	345,329	173,388
11,473	-3,531	344,810	173,061
12,488	-3,593	343,987	172,560
13,502	-3,717	343,643	172,225
14,517	-3,454	342,943	172,169
15,531	-3,419	342,667	172,056
16,546	-3,496	342,149	171,690
17,561	-3,523	341,745	171,440
18,575	-3,431	341,413	171,368
19,590	-3,418	340,950	171,135
20,604	-3,443	340,760	170,994
21,619	-3,396	340,326	170,816
22,634	-3,356	340,051	170,710
23,648	-3,460	339,462	170,277
24,663	-3,521	339,223	170,071
25,677	-3,467	338,890	169,953
26,692	-3,497	338,632	169,773
27,707	-3,431	338,412	169,723
28,721	-3,248	337,932	169,681
29,736	-3,554	337,670	169,179
30,750	-3,577	337,427	169,016
31,765	-3,532	337,300	168,989
32,780	-3,438	336,920	168,892
33,794	-3,427	336,675	168,767
34,809	-3,593	336,296	168,370
35,823	-3,468	336,124	168,413
36,838	-3,564	335,889	168,170
37,853	-3,322	335,298	168,138
38,867	-3,360	335,217	168,038
39,882	-3,405	334,944	167,835
40,896	-3,409	334,613	167,649
41,911	-3,366	334,324	167,539
42,926	-3,495	334,183	167,306
43,940	-3,498	333,860	167,125
44,955	-3,502	333,639	166,995
45,969	-3,375	333,263	166,938
46,984	-3,444	333,216	166,820
47,999	-3,393	332,863	166,687
49,013	-3,409	332,751	166,598
50,028	-3,446	332,430	166,380
51,042	-3,430	332,027	166,181
52,057	-3,464	331,773	166,001
53,071	-3,294	331,460	166,023
54,086	-3,429	331,486	165,867
55,101	-3,531	331,199	165,593
56,115	-3,605	330,774	165,282
57,130	-3,459	330,518	165,305
58,144	-3,389	330,163	165,191
59,159	-3,519	329,864	164,880
60,174	-3,674	329,669	164,593
61,188	-3,424	329,319	164,685
62,203	-3,593	329,224	164,433
63,217	-3,409	328,869	164,448
64,232	-3,473	328,715	164,284
65,247	-3,359	328,189	164,136
66,261	-3,326	328,013	164,070
67,276	-3,364	327,851	163,932
68,290	-3,492	327,625	163,661
69,305	-3,439	327,408	163,596
70,320	-3,479	327,214	163,441
71,334	-3,422	326,890	163,327
72,349	-3,344	326,319	163,115
73,363	-3,478	326,337	162,960
74,378	-3,534	326,050	162,739
75,393	-3,460	325,918	162,741
76,407	-3,589	325,656	162,452
77,422	-3,358	325,402	162,568
78,436	-3,491	325,109	162,259
79,451	-3,433	324,957	162,233
80,466	-3,350	324,555	162,111
81,480	-3,316	324,311	162,012
82,495	-3,256	324,117	161,967
83,509	-3,266	323,824	161,796
84,524	-3,472	323,683	161,483
85,539	-3,273	323,321	161,508
86,553	-3,301	323,045	161,325
87,568	-3,406	322,942	161,143
88,582	-3,404	322,695	161,007
89,597	-3,578	322,559	160,733
90,611	-3,556	322,241	160,584
91,626	-3,503	321,891	160,453
92,641	-3,373	321,813	160,544
93,655	-3,357	321,578	160,430
94,670	-3,498	321,228	160,086
95,684	-3,532	321,146	159,993
96,699	-3,454	320,781	159,883
97,714	-3,469	320,579	159,751
98,728	-3,375	320,463	159,782
99,743	-3,390	320,245	159,643
100,757	-3,330	319,950	159,548
101,772	-3,313	319,646	159,400
102,787	-3,518	319,468	159,074
103,801	-3,291	319,198	159,172
104,816	-3,352	318,880	158,933
105,830	-3,410	318,733	158,783
106,845	-3,481	318,474	158,562
107,860	-3,411	318,224	158,499
108,874	-3,542	317,998	158,231
109,889	-3,372	317,765	158,285
110,903	-3,472	317,472	158,017
111,918	-3,386	317,234	157,978
112,933	-3,552	317,122	157,728
113,947	-3,440	316,891	157,720
114,962	-3,356	316,591	157,647
115,976	-3,337	316,374	157,546
116,991	-3,602	316,233	157,175
118,006	-3,527	316,133	157,192
119,020	-3,431	315,834	157,134
120,035	-3,356	315,566	157,067
121,049	-3,449	315,509	156,924
122,064	-3,358	315,066	156,789
123,079	-3,473	314,836	156,536
124,093	-3,414	314,576	156,456
125,108	-3,386	314,408	156,389
126,122	-3,245	314,203	156,424
127,137	-3,273	314,036	156,297
128,151	-3,302	313,679	156,074
129,166	-3,479	313,569	155,816
130,181	-3,320	313,300	155,839
131,195	-3,429	313,143	155,629
132,210	-3,248	312,696	155,586
133,224	-3,361	312,621	155,416
134,239	-3,332	312,244	155,245
135,254	-3,424	312,107	155,065
136,268	-3,378	312,001	155,047
137,283	-3,308	311,671	154,944
138,297	-3,396	311,479	154,741
139,312	-3,375	311,199	154,610
140,327	-3,573	311,037	154,306
141,341	-3,494	310,780	154,249
142,356	-3,389	310,523	154,219
143,370	-3,453	310,279	154,016
144,385	-3,353	310,114	154,027
145,400	-3,439	309,951	153,841
146,414	-3,437	309,667	153,688
147,429	-3,219	309,436	153,790
148,443	-3,404	309,293	153,510
149,458	-3,486	309,071	153,300
150,473	-3,318	308,861	153,359
151,487	-3,374	308,530	153,122
152,502	-3,343	308,435	153,093
153,516	-3,363	308,120	152,902
154,531	-3,313	307,895	152,829
155,546	-3,373	307,672	152,642
156,560	-3,321	307,415	152,556
157,575	-3,333	307,295	152,470
158,589	-3,345	306,977	152,286
159,604	-3,286	306,881	152,287
160,619	-3,265	306,726	152,218
161,633	-3,298	306,380	151,998
162,648	-3,166	306,212	152,039
163,662	-3,382	306,139	151,763
164,677	-3,308	305,863	151,691
165,692	-3,190	305,704	151,721
166,706	-3,304	305,482	151,479
167,721	-3,223	305,311	151,464
168,735	-3,193	305,008	151,332
169,750	-3,366	304,962	151,116
170,764	-3,271	304,582	151,013
171,779	-3,284	304,537	150,964
172,794	-3,182	304,271	150,924
173,808	-3,249	303,976	150,695
174,823	-3,326	303,887	150,557
175,837	-3,258	303,480	150,413
176,852	-3,347	303,506	150,320
177,867	-3,322	303,216	150,189
178,881	-3,561	303,216	149,930
179,896	-3,354	302,792	149,919
180,910	-3,325	302,620	149,850
181,925	-3,179	302,440	149,898
182,940	-3,299	302,165	149,625
183,954	-3,244	301,935	149,555
184,969	-3,241	301,869	149,512
185,983	-3,205	301,683	149,443
186,998	-3,218	301,429	149,290
188,013	-3,226	301,300	149,205
189,027	-3,271	300,964	148,980
190,042	-3,239	300,654	148,845
191,056	-3,175	300,469	148,806
192,071	-3,451	300,398	148,476
193,086	-3,328	300,260	148,520
194,100	-3,399	300,009	148,310
195,115	-3,386	299,695	148,155
196,129	-3,126	299,510	148,314
197,144	-3,173	299,181	148,091
198,159	-3,384	298,998	147,773
199,173	-3,329	298,868	147,751
200,188	-3,322	298,529	147,578
201,202	-3,337	298,337	147,455
202,217	-3,020	298,017	147,603
203,232	-3,226	297,881	147,315
204,246	-3,290	297,665	147,130
205,261	-3,445	297,496	146,878
206,275	-3,339	297,409	146,929
207,290	-3,244	297,315	146,964
208,304	-3,256	296,986	146,776
209,319	-3,343	296,857	146,612
210,334	-3,123	296,641	146,713
211,348	-3,148	296,346	146,530
212,363	-3,327	296,219	146,274
213,377	-3,262	296,072	146,253
214,392	-3,261	295,767	146,091
215,407	-3,394	295,569	145,847
216,421	-3,251	295,470	145,928
217,436	-3,120	295,123	145,875
218,450	-3,329	295,034	145,609
219,465	-3,285	294,711	145,480
220,480	-3,270	294,674	145,464
221,494	-3,230	294,496	145,402
222,509	-3,397	294,402	145,178
223,523	-3,226	294,104	145,188
224,538	-3,236	294,020	145,123
225,553	-3,379	293,704	144,812
226,567	-3,214	293,433	144,829
227,582	-3,133	293,257	144,809
228,596	-3,092	293,113	144,766
229,611	-3,350	292,870	144,379
230,626	-3,229	292,804	144,452
231,640	-3,088	292,448	144,403
232,655	-3,294	292,393	144,160
233,669	-3,130	292,024	144,126
234,684	-3,090	291,912	144,098
235,699	-3,211	291,744	143,883
236,713	-3,224	291,557	143,765
237,728	-3,208	291,414	143,698
238,742	-3,169	291,184	143,610
239,757	-3,285	290,986	143,385
240,772	-3,335	290,716	143,190
241,786	-3,338	290,522	143,079
242,801	-3,318	290,500	143,075
243,815	-3,250	290,232	142,997
244,830	-3,295	289,876	142,765
245,844	-3,212	289,758	142,775
246,859	-3,094	289,598	142,799
247,874	-3,215	289,350	142,546
248,888	-3,134	289,212	142,544
249,903	-3,145	289,137	142,484
250,917	-3,088	288,890	142,405
251,932	-3,272	288,750	142,144
252,947	-3,432	288,453	141,829
253,961	-4,014	287,985	141,021
254,976	-4,208	287,726	140,693
255,990	-4,009	287,471	140,749
257,005	-2,952	287,973	142,008
258,020	-0,718	288,758	144,557
259,034	0,663	289,164	146,091
260,049	1,218	289,030	146,549
261,063	1,481	289,056	146,806
262,078	1,876	288,943	147,119
263,093	2,118	288,846	147,291
264,107	2,207	288,753	147,317
265,122	2,335	288,676	147,388
266,136	2,473	288,436	147,387
267,151	2,614	288,297	147,438
268,166	2,631	288,079	147,330
269,180	2,577	287,856	147,152
270,195	2,621	287,816	147,159
271,209	2,568	287,604	146,987
272,224	2,418	287,366	146,707
273,239	2,437	287,229	146,643
274,253	2,360	286,913	146,395
275,268	2,392	286,686	146,296
276,282	2,230	286,589	146,078
277,297	2,234	286,335	145,939
278,312	2,536	286,082	146,087
279,326	2,291	285,969	145,782
280,341	2,338	285,859	145,758
281,355	2,481	285,522	145,710
282,370	2,472	285,487	145,670
283,384	2,134	285,333	145,255
284,399	2,207	285,131	145,209
285,414	2,403	284,837	145,233
286,428	2,399	284,643	145,118
287,443	2,273	284,555	144,940
288,457	2,219	284,387	144,790
289,472	2,383	284,229	144,853
290,487	2,312	283,872	144,591
291,501	2,072	283,691	144,258
292,516	2,218	283,430	144,250
293,530	2,202	283,428	144,221
294,545	2,194	283,220	144,095
295,560	2,184	283,078	144,001
296,574	2,237	282,800	143,896
297,589	2,151	282,405	143,602
298,603	2,063	282,398	143,502
299,618	2,073	282,191	143,394
300,633	2,106	282,156	143,394
301,647	2,147	282,131	143,407
302,662	2,118	281,874	143,236
303,676	2,510	281,615	143,462
304,691	2,412	281,377	143,235
305,706	2,360	281,250	143,109
306,720	2,593	281,036	143,206
307,735	2,431	280,954	142,999
308,749	2,430	280,813	142,914
309,764	2,572	280,536	142,893
310,779	2,440	280,422	142,699
311,793	2,300	280,181	142,432
312,808	2,392	280,007	142,418
313,822	2,396	279,670	142,237
314,837	2,334	279,603	142,132
315,852	2,372	279,363	142,033
316,866	2,564	279,171	142,101
317,881	2,483	279,021	141,938
318,895	2,508	278,831	141,851
319,910	2,237	278,715	141,528
320,925	2,281	278,599	141,497
321,939	2,547	278,428	141,645
322,954	2,309	278,360	141,376
323,968	2,603	278,187	141,549
324,983	2,572	277,813	141,317
325,997	2,568	277,535	141,159
327,012	2,510	277,691	141,172
328,027	2,589	277,353	141,061
329,041	2,390	277,110	140,740
330,056	2,632	276,897	140,844
331,070	2,567	276,730	140,686
332,085	2,496	276,681	140,583
333,100	2,446	276,506	140,436
334,114	2,565	276,170	140,362
335,129	2,410	275,985	140,112
336,143	2,459	275,785	140,044
337,158	2,444	275,718	139,983
338,173	2,533	275,542	139,963
339,187	2,619	275,280	139,897
340,202	2,615	275,166	139,822
341,216	2,530	274,968	139,632
342,231	2,491	274,783	139,490
343,246	2,635	274,608	139,521
344,260	2,399	274,478	139,225
345,275	2,668	274,221	139,329
346,289	2,571	274,182	139,208
347,304	2,551	273,917	139,043
348,319	2,607	273,760	139,002
349,333	2,459	273,569	138,757
350,348	2,545	273,401	138,738
351,362	2,574	273,208	138,654
352,377	2,518	273,119	138,545
353,392	2,458	273,004	138,420
354,406	2,502	272,842	138,365
355,421	192,736	1348,083	1431,986
356,435	155,664	1479,180	1432,107
