DTS Sentinel unit serial number:	SN410029Multiplexer serial number:	ORYXHardware model number:	OX2-SRSoftware version number:	ORYX F/W v4,00 Oryx Data Collector v3.7.2.0data status	okinstallation	B4 Nyhavnadifferential loss correction	single-endedforward channel	channel 2reverse channel	N/Adate	2023/12/19time	12:30:13forward acquisition time	300,00reverse acquisition time	0,00gamma	499,1914k internal	0,3128k external	0,3128temperature offset calibration	1,0000default loss term (dB/km)	0,3820temperature slope calibration	1,0000multiplexer offset coefficient	1,0000multiplexer slope coefficient	1,0000fibre end	0,00T internal ref (°C)	19,57T ext. ref 1 (°C)	4,28T ext. ref 2 (°C)	4,25length (m)	temperature (°C)	Stokes	anti-Stokes-744,400	572,967	0,033	-0,060
-743,385	12,566	-0,263	0,151
-742,371	515,202	0,049	0,086
-741,356	-71,289	-0,199	0,055
-740,342	800,000	0,012	-0,039
-739,327	-60,601	-0,382	0,120
-738,312	172,413	-0,090	0,096
-737,298	-73,161	-0,217	0,059
-736,283	248,917	0,055	-0,070
-735,269	39,220	-0,228	0,151
-734,254	-67,783	0,176	-0,051
-733,239	-100,734	-0,672	-0,122
-732,225	161,589	0,105	0,109
-731,210	800,000	-0,040	0,110
-730,196	326,468	0,061	-0,088
-729,181	284,958	-0,066	-0,088
-728,167	-24,951	-0,114	-0,050
-727,152	800,000	0,033	0,070
-726,137	164,608	-0,023	-0,024
-725,123	800,000	-0,027	0,076
-724,108	186,481	-0,124	-0,137
-723,094	539,595	-0,099	-0,176
-722,079	-87,158	-0,066	-0,015
-721,064	223,655	0,026	-0,031
-720,050	-11,183	-0,031	0,015
-719,035	-35,894	0,056	0,022
-718,021	-200,000	0,009	0,129
-717,006	-200,000	-0,038	-0,170
-715,991	-200,000	-0,015	-0,173
-714,977	-11,519	0,043	-0,021
-713,962	800,000	-0,013	0,029
-712,948	-200,000	0,022	-0,093
-711,933	174,517	0,069	-0,074
-710,918	418,436	-0,086	0,138
-709,904	196,914	-0,144	-0,163
-708,889	-3,847	-0,071	-0,036
-707,875	97,507	0,085	-0,073
-706,860	-53,579	0,060	-0,020
-705,845	513,754	0,030	0,052
-704,831	-168,312	0,130	-0,004
-703,816	-0,995	-0,034	0,018
-702,802	447,085	-0,063	-0,104
-701,787	-200,000	-0,004	-0,048
-700,772	188,666	0,030	-0,034
-699,758	-58,928	-0,138	-0,044
-698,743	64,411	-0,045	-0,033
-697,729	17,588	0,092	-0,054
-696,714	-7,976	-0,123	0,062
-695,699	-200,000	-0,026	-0,123
-694,685	800,000	-0,034	0,080
-693,670	173,247	0,046	0,049
-692,656	-109,921	-0,060	-0,009
-691,641	-142,437	-0,013	0,001
-690,627	-200,000	-0,009	-0,033
-689,612	454,343	0,044	-0,072
-688,597	-79,300	-0,026	0,006
-687,583	800,000	-0,052	-0,169
-686,568	204,104	-0,088	-0,101
-685,554	-200,000	0,012	-0,117
-684,539	-200,000	-0,004	-0,062
-683,524	95,427	-0,060	0,051
-682,510	-10,865	0,083	-0,041
-681,495	-200,000	0,013	-0,210
-680,481	292,732	-0,016	-0,021
-679,466	-24,361	-0,109	0,048
-678,451	-138,526	-0,073	0,006
-677,437	413,306	0,037	0,059
-676,422	227,160	0,014	0,016
-675,408	251,742	0,053	-0,068
-674,393	-175,647	0,060	-0,001
-673,378	-160,108	0,060	-0,002
-672,364	-20,475	-0,021	0,010
-671,349	79,166	-0,119	-0,095
-670,335	800,000	0,033	0,090
-669,320	320,609	0,070	0,099
-668,305	-200,000	0,004	-0,221
-667,291	759,876	0,042	-0,086
-666,276	-34,101	-0,149	-0,060
-665,262	531,570	-0,060	-0,106
-664,247	-6,340	-0,166	-0,084
-663,232	800,000	-0,045	0,137
-662,218	-200,000	0,001	0,210
-661,203	-124,469	0,054	0,006
-660,189	800,000	-0,033	-0,104
-659,174	-105,337	-0,038	0,006
-658,159	-187,503	-0,211	-0,002
-657,145	559,072	-0,056	-0,101
-656,130	800,000	0,057	-0,134
-655,116	-80,242	0,153	-0,038
-654,101	-200,000	0,003	0,050
-653,086	-35,576	0,085	0,034
-652,072	-200,000	0,011	-0,135
-651,057	10,936	0,072	-0,041
-650,043	-98,331	0,096	-0,018
-649,028	23,867	-0,053	0,032
-648,014	337,720	0,063	-0,091
-646,999	-181,729	0,093	-0,001
-645,984	-200,000	0,003	-0,049
-644,970	186,083	-0,122	-0,135
-643,955	238,161	-0,052	0,064
-642,941	800,000	0,053	-0,151
-641,926	800,000	0,044	-0,096
-640,911	-200,000	0,004	0,018
-639,897	-200,000	-0,006	0,160
-638,882	800,000	0,102	0,254
-637,868	-71,934	-0,089	0,024
-636,853	123,729	0,063	-0,058
-635,838	42,772	-0,041	-0,028
-634,824	-200,000	-0,028	-0,120
-633,809	277,168	-0,063	-0,083
-632,795	800,000	0,043	0,101
-631,780	-71,310	0,067	0,018
-630,765	-30,483	0,068	0,028
-629,751	525,175	0,008	0,014
-628,736	-47,026	-0,121	-0,043
-627,722	800,000	-0,028	-0,062
-626,707	69,185	0,139	-0,106
-625,692	197,901	-0,005	-0,005
-624,678	122,573	-0,098	-0,090
-623,663	-89,854	-0,161	-0,035
-622,649	800,000	0,050	-0,146
-621,634	-26,609	-0,089	-0,038
-620,619	48,897	-0,147	0,102
-619,605	272,220	0,102	0,134
-618,590	593,945	0,030	0,055
-617,576	800,000	0,021	-0,051
-616,561	-200,000	0,001	-0,025
-615,546	19,596	0,044	-0,026
-614,532	229,281	-0,120	-0,145
-613,517	-37,068	-0,061	0,024
-612,503	-90,397	-0,012	0,003
-611,488	-87,175	0,102	-0,023
-610,474	356,639	-0,042	-0,062
-609,459	535,697	-0,032	-0,056
-608,444	-200,000	-0,008	0,033
-607,430	-200,000	-0,024	-0,093
-606,415	-132,251	-0,177	-0,017
-605,401	-200,000	-0,011	-0,087
-604,386	71,841	-0,042	-0,032
-603,371	170,831	0,025	0,026
-602,357	80,913	-0,026	0,021
-601,342	-96,638	0,166	0,032
-600,328	300,811	0,090	-0,124
-599,313	-101,786	-0,147	0,026
-598,298	-85,702	-0,148	0,034
-597,284	93,007	0,075	0,063
-596,269	436,255	0,093	0,151
-595,255	800,000	-0,030	-0,063
-594,240	144,120	0,021	0,021
-593,225	-147,345	-0,048	0,003
-592,211	-200,000	-0,168	-0,000
-591,196	566,347	-0,031	0,055
-590,182	800,000	0,061	0,167
-589,167	-9,835	-0,021	0,010
-588,152	108,163	0,061	0,054
-587,138	-130,332	-0,059	-0,006
-586,123	-144,288	-0,018	-0,001
-585,109	-120,901	-0,148	-0,018
-584,094	64,795	0,051	0,038
-583,079	-61,054	0,098	-0,030
-582,065	198,774	-0,053	0,060
-581,050	800,000	-0,031	-0,072
-580,036	-25,240	0,006	-0,003
-579,021	322,439	0,004	-0,006
-578,006	36,576	0,080	-0,052
-576,992	58,774	0,068	0,049
-575,977	-200,000	-0,016	-0,100
-574,963	-200,000	0,017	0,058
-573,948	-131,402	-0,019	-0,002
-572,934	800,000	-0,020	0,045
-571,919	328,765	0,022	-0,031
-570,904	-150,278	-0,104	0,006
-569,890	-200,000	0,024	0,116
-568,875	-49,990	-0,008	-0,003
-567,861	134,061	-0,019	0,019
-566,846	-38,991	-0,030	0,012
-565,831	-200,000	-0,030	-0,106
-564,817	-152,863	-0,141	0,007
-563,802	54,179	-0,131	-0,093
-562,788	603,058	0,071	-0,132
-561,773	145,699	0,088	0,087
-560,758	139,015	0,045	0,044
-559,744	-200,000	-0,012	-0,059
-558,729	251,464	-0,022	-0,028
-557,715	-26,228	-0,091	-0,039
-556,700	55,819	0,060	-0,043
-555,685	-200,000	0,006	-0,132
-554,671	-200,000	-0,014	-0,072
-553,656	-200,000	-0,001	0,028
-552,642	800,000	-0,111	0,268
-551,627	-200,000	-0,005	-0,048
-550,612	-200,000	0,022	-0,081
-549,598	51,282	-0,034	-0,024
-548,583	-42,064	-0,137	-0,051
-547,569	318,203	-0,001	-0,002
-546,554	178,936	0,095	-0,102
-545,539	-59,493	0,070	-0,022
-544,525	640,335	-0,075	0,142
-543,510	236,588	-0,041	-0,050
-542,496	545,164	0,070	-0,124
-541,481	-141,409	-0,242	0,018
-540,466	-5,358	-0,055	-0,028
-539,452	-45,680	0,023	0,009
-538,437	-200,000	-0,018	0,099
-537,423	127,776	-0,052	0,049
-536,408	66,255	0,170	0,127
-535,393	-200,000	-0,034	0,130
-534,379	58,890	-0,053	-0,039
-533,364	-200,000	-0,002	0,135
-532,350	-200,000	-0,019	0,074
-531,335	9,614	0,077	0,043
-530,321	-200,000	0,006	0,143
-529,306	124,024	-0,093	0,086
-528,291	-49,425	-0,062	0,022
-527,277	199,864	-0,041	0,046
-526,262	96,436	0,081	0,068
-525,248	123,070	-0,058	-0,053
-524,233	199,318	0,076	0,086
-523,218	43,559	0,084	-0,057
-522,204	328,049	-0,078	-0,111
-521,189	226,387	-0,095	-0,114
-520,175	800,000	-0,023	-0,060
-519,160	473,604	-0,056	-0,094
-518,145	-130,296	0,058	-0,006
-517,131	-90,164	0,090	0,019
-516,116	-125,298	-0,039	0,004
-515,102	-200,000	-0,004	0,048
-514,087	369,680	-0,023	0,034
-513,072	-26,739	-0,102	0,044
-512,058	800,000	-0,009	0,022
-511,043	-29,625	0,102	0,043
-510,029	-14,898	0,055	0,026
-509,014	-112,594	-0,082	0,012
-507,999	800,000	-0,029	0,080
-506,985	232,328	-0,041	0,050
-505,970	-200,000	0,006	-0,064
-504,956	-200,000	0,022	0,083
-503,941	60,903	-0,017	-0,012
-502,926	-71,795	0,204	0,056
-501,912	81,729	0,039	-0,031
-500,897	69,835	0,060	-0,045
-499,883	-164,056	-0,083	-0,003
-498,868	-153,362	0,028	-0,001
-497,853	371,905	0,039	-0,058
-496,839	137,073	-0,040	-0,039
-495,824	427,382	0,024	0,038
-494,810	2,456	0,101	-0,054
-493,795	-200,000	-0,056	-0,228
-492,781	-59,137	-0,061	-0,019
-491,766	-121,745	-0,037	-0,004
-490,751	383,074	0,075	-0,115
-489,737	800,000	0,051	-0,108
-488,722	800,000	0,034	-0,104
-487,708	482,777	0,052	-0,088
-486,693	530,406	-0,015	0,026
-485,678	226,961	-0,051	0,061
-484,664	800,000	0,035	-0,104
-483,649	-200,000	-0,105	-0,000
-482,635	-200,000	0,010	0,033
-481,620	-42,841	0,082	0,030
-480,605	-139,900	0,048	0,004
-479,591	-200,000	0,023	0,135
-478,576	97,754	-0,059	-0,050
-477,562	-28,551	0,023	-0,010
-476,547	285,958	-0,052	0,069
-475,532	-200,000	0,012	0,050
-474,518	8,256	-0,061	-0,034
-473,503	800,000	0,016	0,041
-472,489	262,918	0,030	-0,039
-471,474	-200,000	0,012	0,184
-470,459	-92,828	0,108	0,022
-469,445	154,107	-0,048	-0,049
-468,430	788,216	-0,058	-0,119
-467,416	-150,191	-0,083	0,005
-466,401	800,000	0,059	0,176
-465,386	-58,179	0,070	-0,022
-464,372	209,386	-0,055	0,064
-463,357	800,000	-0,009	0,024
-462,343	109,584	0,121	0,107
-461,328	84,502	-0,137	-0,110
-460,313	8,609	0,071	0,039
-459,299	335,633	0,052	-0,074
-458,284	70,100	-0,103	-0,078
-457,270	-200,000	0,002	0,008
-456,255	-7,947	-0,067	0,033
-455,241	23,561	0,138	-0,083
-454,226	-68,483	-0,044	0,012
-453,211	63,128	0,092	-0,068
-452,197	800,000	-0,030	0,078
-451,182	-200,000	-0,000	-0,014
-450,168	-200,000	-0,017	0,109
-449,153	800,000	0,043	0,120
-448,138	101,457	-0,015	-0,013
-447,124	-10,621	-0,107	-0,052
-446,109	91,592	0,053	-0,043
-445,095	-200,000	-0,002	-0,093
-444,080	-72,690	-0,051	-0,014
-443,065	-84,300	0,135	0,031
-442,051	800,000	0,024	-0,050
-441,036	30,074	0,052	0,032
-440,022	-200,000	-0,040	-0,148
-439,007	800,000	-0,032	0,072
-437,992	-139,198	0,108	0,008
-436,978	14,918	-0,057	-0,033
-435,963	-41,606	-0,077	-0,029
-434,949	-200,000	-0,033	0,117
-433,934	195,828	0,121	-0,136
-432,919	-200,000	0,017	-0,146
-431,905	-96,369	0,145	0,028
-430,890	220,999	0,028	-0,034
-429,876	187,617	0,026	-0,028
-428,861	-35,373	0,037	0,015
-427,846	-152,668	0,107	0,006
-426,832	-16,489	0,032	-0,015
-425,817	613,756	-0,056	-0,104
-424,803	41,466	0,018	0,012
-423,788	121,619	0,097	0,089
-422,773	-131,165	-0,088	-0,009
-421,759	286,685	0,055	-0,074
-420,744	800,000	-0,007	0,018
-419,730	-125,655	-0,041	0,005
-418,715	288,702	0,022	-0,029
-417,701	338,126	-0,058	-0,083
-416,686	188,768	-0,048	-0,053
-415,671	-200,000	0,038	0,129
-414,657	-200,000	0,018	0,063
-413,642	-200,000	0,014	0,084
-412,628	-80,926	0,036	0,009
-411,613	561,608	-0,109	-0,194
-410,598	43,385	0,028	0,019
-409,584	24,299	0,115	0,070
-408,569	98,418	0,114	0,097
-407,555	38,563	0,084	0,055
-406,540	283,947	-0,070	0,093
-405,525	-71,529	-0,099	-0,027
-404,511	-156,846	0,058	-0,003
-403,496	-200,000	0,027	-0,139
-402,482	221,497	-0,079	-0,094
-401,467	490,262	0,024	-0,040
-400,452	183,759	0,058	0,064
-399,438	39,449	-0,047	-0,031
-398,423	510,250	-0,071	-0,122
-397,409	-192,094	0,032	-0,000
-396,394	51,169	-0,052	-0,036
-395,379	406,422	0,030	0,047
-394,365	-200,000	-0,018	0,066
-393,350	-200,000	0,019	0,101
-392,336	-35,935	0,089	-0,035
-391,321	-130,832	0,046	-0,004
-390,306	-200,000	0,009	-0,060
-389,292	-91,280	-0,148	-0,031
-388,277	-128,739	-0,044	0,004
-387,263	800,000	0,046	0,097
-386,248	624,838	-0,073	-0,135
-385,233	-200,000	0,012	0,066
-384,219	800,000	0,064	0,159
-383,204	800,000	0,032	0,086
-382,190	-8,107	-0,079	0,039
-381,175	-154,235	0,033	0,002
-380,160	-49,815	-0,124	0,043
-379,146	-33,191	0,085	0,034
-378,131	-77,710	-0,110	0,028
-377,117	-69,501	0,027	-0,008
-376,102	82,963	-0,076	0,061
-375,088	636,090	-0,034	0,063
-374,073	221,510	0,071	-0,084
-373,058	800,000	0,001	0,003
-372,044	-200,000	0,052	0,171
-371,029	800,000	-0,053	0,134
-370,015	259,930	0,077	0,098
-369,000	147,355	-0,122	-0,120
-367,985	-200,000	0,026	-0,176
-366,971	695,341	-0,023	0,045
-365,956	-155,694	0,107	-0,005
-364,942	800,000	-0,026	0,057
-363,927	-200,000	0,004	0,046
-362,912	800,000	-0,010	0,027
-361,898	105,852	0,044	-0,038
-360,883	687,755	0,023	0,044
-359,869	11,390	0,010	-0,005
-358,854	29,934	0,053	-0,033
-357,839	-200,000	0,014	0,126
-356,825	559,881	-0,089	0,159
-355,810	-200,000	-0,009	0,113
-354,796	-200,000	-0,001	0,037
-353,781	290,019	0,058	0,078
-352,766	-200,000	-0,014	-0,068
-351,752	800,000	0,024	-0,071
-350,737	-200,000	0,009	-0,031
-349,723	-84,904	0,160	0,037
-348,708	-42,495	0,051	-0,019
-347,693	-137,353	-0,047	-0,004
-346,679	206,031	-0,053	-0,060
-345,664	214,734	0,110	-0,128
-344,650	56,054	-0,053	0,037
-343,635	315,054	0,075	0,104
-342,620	338,157	-0,036	-0,051
-341,606	30,697	-0,084	-0,053
-340,591	624,328	-0,027	-0,050
-339,577	-200,000	-0,034	-0,145
-338,562	800,000	0,062	-0,160
-337,548	-29,992	0,059	-0,024
-336,533	319,906	0,041	-0,058
-335,518	172,929	0,082	-0,087
-334,504	131,252	-0,073	0,068
-333,489	595,571	0,006	0,011
-332,475	47,800	-0,029	-0,020
-331,460	-100,130	-0,231	-0,042
-330,445	234,262	-0,038	-0,046
-329,431	-83,831	-0,062	0,014
-328,416	48,077	0,079	0,054
-327,402	-187,824	0,049	0,000
-326,387	-81,330	-0,069	0,017
-325,372	-135,375	-0,128	0,011
-324,358	800,000	-0,019	-0,057
-323,343	-128,268	-0,077	-0,008
-322,329	-26,093	0,053	-0,023
-321,314	458,046	-0,051	0,084
-320,299	800,000	-0,027	0,087
-319,285	-23,045	0,070	-0,031
-318,270	-51,626	-0,138	-0,047
-317,256	-200,000	0,018	-0,213
-316,241	800,000	-0,047	-0,098
-315,226	296,060	-0,017	0,023
-314,212	63,297	-0,072	0,053
-313,197	-200,000	0,008	-0,136
-312,183	800,000	0,027	-0,058
-311,168	644,338	-0,045	-0,085
-310,153	-200,000	-0,008	0,030
-309,139	-200,000	-0,002	-0,064
-308,124	-200,000	-0,014	-0,121
-307,110	119,517	0,072	0,065
-306,095	596,326	0,045	0,081
-305,080	-24,996	-0,201	0,087
-304,066	92,854	-0,029	0,024
-303,051	-138,623	0,114	0,009
-302,037	800,000	0,011	0,027
-301,022	-200,000	0,014	-0,056
-300,008	-200,000	-0,007	0,083
-298,993	111,555	-0,065	-0,058
-297,978	800,000	-0,062	0,161
-296,964	-200,000	0,029	-0,166
-295,949	453,740	-0,027	-0,044
-294,935	40,641	0,080	-0,053
-293,920	414,096	0,033	0,052
-292,905	-57,574	0,161	0,051
-291,891	800,000	0,040	0,104
-290,876	-200,000	-0,027	0,169
-289,862	78,945	0,085	-0,066
-288,847	80,912	0,053	-0,041
-287,832	26,855	0,095	-0,058
-286,818	-144,892	0,042	-0,003
-285,803	-200,000	-0,010	0,042
-284,789	144,997	0,103	0,100
-283,774	-77,824	-0,060	0,015
-282,759	108,078	0,019	-0,016
-281,745	-200,000	0,022	-0,081
-280,730	79,082	0,149	0,117
-279,716	-67,231	-0,041	-0,012
-278,701	17,491	-0,015	-0,009
-277,686	16,633	0,107	-0,061
-276,672	43,789	0,045	-0,030
-275,657	800,000	0,012	0,035
-274,643	800,000	-0,116	-0,241
-273,628	-145,614	-0,032	0,002
-272,613	-162,769	0,050	0,002
-271,599	91,822	0,149	-0,122
-270,584	-200,000	-0,012	0,103
-269,570	4,020	0,074	-0,039
-268,555	120,505	0,139	-0,126
-267,540	-95,363	0,021	-0,004
-266,526	40,132	0,069	-0,045
-265,511	460,232	0,051	-0,083
-264,497	607,931	0,042	-0,077
-263,482	-75,562	0,034	-0,009
-262,467	-27,639	-0,020	-0,009
-261,453	155,175	0,031	0,031
-260,438	133,941	0,050	0,047
-259,424	167,414	-0,029	0,030
-258,409	-200,000	0,008	0,105
-257,395	208,184	-0,045	0,051
-256,380	800,000	0,023	0,051
-255,365	-131,803	0,040	-0,004
-254,351	46,521	-0,120	-0,081
-253,336	-191,234	0,030	-0,000
-252,322	800,000	0,004	-0,009
-251,307	3,112	-0,107	-0,056
-250,292	800,000	-0,043	0,094
-249,278	-200,000	0,002	0,060
-248,263	12,175	0,138	0,077
-247,249	543,571	0,088	0,153
-246,234	199,084	0,036	0,041
-245,219	-200,000	0,004	-0,137
-244,205	108,527	-0,099	-0,086
-243,190	-200,000	0,008	0,032
-242,176	370,023	0,064	0,095
-241,161	131,240	0,054	-0,051
-240,146	738,543	0,032	0,063
-239,132	81,894	0,045	-0,036
-238,117	30,781	0,070	-0,044
-237,103	-0,791	0,073	-0,037
-236,088	-192,590	-0,063	-0,000
-235,073	-127,910	-0,081	0,008
-234,059	-200,000	-0,015	0,092
-233,044	-17,793	0,112	-0,051
-232,030	783,859	-0,034	-0,068
-231,015	38,411	-0,126	0,082
-230,000	-160,597	-0,032	0,001
-228,986	800,000	0,031	0,077
-227,971	800,000	-0,021	0,058
-226,957	-158,461	0,112	0,005
-225,942	197,595	-0,014	-0,015
-224,927	-152,428	-0,119	0,006
-223,913	-200,000	-0,001	-0,010
-222,898	800,000	0,030	-0,064
-221,884	800,000	-0,017	-0,053
-220,869	-200,000	0,017	0,117
-219,855	-200,000	-0,022	0,095
-218,840	800,000	0,023	0,070
-217,825	53,605	0,068	-0,048
-216,811	800,000	0,091	-0,186
-215,796	-22,450	-0,110	0,049
-214,782	58,222	-0,083	-0,059
-213,767	-110,488	0,065	0,010
-212,752	800,000	0,034	0,098
-211,738	238,015	0,119	0,144
-210,723	122,391	0,022	0,020
-209,709	191,951	-0,021	-0,023
-208,694	14,081	0,050	-0,028
-207,679	135,679	-0,042	0,040
-206,665	236,238	0,141	0,170
-205,650	-200,000	-0,013	0,105
-204,636	-102,112	0,032	-0,006
-203,621	72,557	0,062	-0,047
-202,606	91,709	0,099	-0,081
-201,592	-123,904	-0,124	-0,014
-200,577	-200,000	0,006	0,062
-199,563	413,422	-0,065	0,101
-198,548	800,000	0,010	0,026
-197,533	167,236	-0,079	-0,081
-196,519	155,765	-0,106	0,107
-195,504	-57,989	-0,170	-0,054
-194,490	-50,024	-0,182	-0,062
-193,475	-0,074	-0,088	-0,045
-192,460	800,000	-0,048	0,126
-191,446	800,000	-0,065	0,134
-190,431	611,496	-0,077	0,141
-189,417	300,332	-0,020	-0,026
-188,402	-200,000	-0,013	-0,082
-187,387	-200,000	-0,010	-0,087
-186,373	-54,362	-0,127	0,042
-185,358	800,000	-0,044	0,103
-184,344	-71,751	0,002	0,001
-183,329	-125,183	0,070	-0,008
-182,315	800,000	0,022	-0,063
-181,300	105,929	0,047	-0,040
-180,285	203,645	-0,037	-0,042
-179,271	38,317	-0,106	0,069
-178,256	412,303	0,102	0,158
-177,242	126,789	-0,097	0,090
-176,227	800,000	-0,019	-0,044
-175,212	-152,895	0,052	0,003
-174,198	-54,849	0,023	-0,007
-173,183	57,106	0,096	-0,068
-172,169	-137,472	-0,041	-0,003
-171,154	36,879	-0,026	-0,017
-170,139	66,210	0,086	-0,064
-169,125	-44,901	-0,083	-0,030
-168,110	-93,230	0,175	0,035
-167,096	19,239	-0,036	-0,021
-166,081	-121,419	-0,035	0,004
-165,066	273,203	0,071	-0,091
-164,052	-121,505	-0,174	-0,021
-163,037	149,590	0,178	0,176
-162,023	171,621	0,084	0,088
-161,008	-200,000	0,007	-0,092
-159,993	800,000	0,004	-0,012
-158,979	800,000	-0,035	0,079
-157,964	247,857	-0,048	-0,059
-156,950	352,149	0,049	-0,070
-155,935	-200,000	-0,023	-0,080
-154,920	107,626	-0,027	0,024
-153,906	-200,000	-0,011	0,058
-152,891	17,655	0,108	0,062
-151,877	-93,603	-0,061	-0,012
-150,862	68,161	-0,034	-0,025
-149,847	-107,872	-0,046	-0,007
-148,833	-58,181	0,024	0,008
-147,818	800,000	-0,018	-0,039
-146,804	-77,562	0,225	0,056
-145,789	-154,340	0,034	0,002
-144,775	-200,000	0,004	-0,063
-143,760	800,000	-0,029	0,065
-142,745	800,000	0,033	-0,076
-141,731	20,009	0,055	-0,032
-140,716	-200,000	-0,006	0,030
-139,702	188,166	-0,102	0,110
-138,687	-48,889	0,067	0,023
-137,672	-87,871	0,115	0,025
-136,658	-200,000	-0,004	-0,091
-135,643	-32,882	-0,055	0,022
-134,629	640,147	0,036	0,067
-133,614	479,776	0,020	0,032
-132,599	-200,000	-0,006	0,026
-131,585	-60,354	-0,088	0,027
-130,570	91,678	-0,054	-0,044
-129,556	800,000	-0,030	-0,078
-128,541	105,493	-0,042	-0,036
-127,526	-135,869	0,060	-0,005
-126,512	-200,000	-0,019	0,090
-125,497	207,293	0,130	0,148
-124,483	800,000	-0,040	-0,087
-123,468	517,395	0,068	-0,116
-122,453	335,181	-0,038	0,053
-121,439	-200,000	0,024	-0,108
-120,424	-200,000	-0,152	0,000
-119,410	175,574	-0,039	0,041
-118,395	266,470	-0,045	0,057
-117,380	11,118	0,200	0,111
-116,366	-96,319	-0,112	0,021
-115,351	-42,848	-0,109	0,040
-114,337	401,045	-0,123	-0,189
-113,322	203,478	0,084	-0,094
-112,307	-147,948	0,076	-0,005
-111,293	66,965	0,013	0,010
-110,278	16,819	-0,028	0,016
-109,264	-88,967	0,057	-0,012
-108,249	296,262	-0,018	0,024
-107,234	-29,538	-0,070	-0,029
-106,220	152,921	-0,099	-0,098
-105,205	-200,000	0,000	-0,035
-104,191	9,325	0,092	0,050
-103,176	-99,802	0,064	0,012
-102,162	-200,000	0,025	-0,106
-101,147	397,515	0,031	-0,047
-100,132	-90,702	-0,050	0,010
-99,118	-200,000	-0,000	0,056
-98,103	-187,800	-0,115	-0,001
-97,089	-200,000	0,027	-0,108
-96,074	-200,000	-0,007	0,121
-95,059	800,000	-0,054	0,133
-94,045	152,146	-0,033	0,033
-93,030	-167,077	-0,052	-0,002
-92,016	-70,136	0,087	-0,024
-91,001	-200,000	0,015	-0,071
-89,986	192,139	-0,074	-0,081
-88,972	-75,614	0,030	0,008
-87,957	800,000	0,094	0,210
-86,943	-36,680	0,039	-0,015
-85,928	-149,004	-0,077	0,004
-84,913	364,208	-0,063	-0,092
-83,899	-89,991	-0,062	-0,013
-82,884	204,688	0,017	0,019
-81,870	-200,000	-0,012	0,099
-80,855	435,535	-0,050	0,078
-79,840	-61,358	-0,117	-0,035
-78,826	42,923	-0,075	-0,049
-77,811	-200,000	0,000	-0,024
-76,797	-7,245	0,114	0,056
-75,782	161,251	-0,031	0,031
-74,767	-200,000	-0,012	0,103
-73,753	-200,000	0,002	0,007
-72,738	-50,993	0,005	-0,002
-71,724	18,752	-0,013	-0,008
-70,709	152,418	-0,062	-0,062
-69,694	800,000	-0,022	0,065
-68,680	196,433	0,113	0,125
-67,665	-41,919	0,094	0,035
-66,651	800,000	-0,021	-0,061
-65,636	42,289	-0,171	0,112
-64,622	492,655	0,093	-0,155
-63,607	556,694	-0,054	-0,095
-62,592	169,180	-0,017	0,017
-61,578	148,902	0,117	-0,114
-60,563	10,672	-0,115	-0,063
-59,549	-200,000	-0,033	-0,154
-58,534	-70,504	-1,523	-0,415
-57,519	800,000	-0,663	-1,432
-56,505	-200,000	-0,871	-4,419
-55,490	-106,854	0,533	0,085
-54,476	800,000	5,011	11,807
-53,461	-200,000	15,099	268,172
-52,446	-200,000	695,774	2246,270
-51,432	587,404	1616,282	2894,075
-50,417	121,046	1624,661	1464,515
-49,403	82,881	1281,579	1008,570
-48,388	37,573	1022,059	655,583
-47,373	22,288	983,057	580,251
-46,359	21,304	971,822	570,367
-45,344	19,816	967,582	562,990
-44,330	19,888	966,339	562,479
-43,315	19,637	964,862	560,777
-42,300	19,657	963,836	560,224
-41,286	19,628	962,756	559,479
-40,271	19,547	962,028	558,768
-39,257	19,652	960,949	558,461
-38,242	19,611	960,121	557,827
-37,227	19,679	959,241	557,511
-36,213	19,608	958,351	556,742
-35,198	19,586	957,486	556,147
-34,184	19,628	956,756	555,838
-33,169	19,503	956,086	555,020
-32,154	19,633	955,022	554,802
-31,140	19,649	954,121	554,308
-30,125	19,647	953,305	553,806
-29,111	19,623	952,575	553,283
-28,096	19,648	951,739	552,854
-27,082	19,544	951,331	552,263
-26,067	19,613	950,374	551,907
-25,052	19,608	949,733	551,494
-24,038	19,654	948,951	551,166
-23,023	19,584	948,164	550,464
-22,009	19,678	947,527	550,374
-20,994	19,588	947,082	549,806
-19,979	19,591	946,479	549,442
-18,965	19,576	945,888	549,029
-17,950	19,560	945,280	548,605
-16,936	19,539	944,749	548,208
-15,921	19,509	943,959	547,631
-14,906	19,448	943,090	546,911
-13,892	19,471	942,569	546,659
-12,877	19,491	941,791	546,250
-11,863	19,471	941,214	545,831
-10,848	19,432	940,922	545,515
-9,833	19,539	940,374	545,515
-8,819	19,538	939,842	545,184
-7,804	19,481	939,114	544,557
-6,790	19,449	938,412	544,028
-5,775	19,548	937,840	543,987
-4,760	19,529	937,054	543,452
-3,746	19,490	936,555	543,016
-2,731	19,381	935,855	542,243
-1,717	19,324	935,141	541,628
-0,702	19,415	934,535	541,544
0,313	19,074	934,017	540,985
1,327	21,642	931,461	547,544
2,342	28,971	806,329	493,817
3,356	23,106	506,272	300,051
4,371	-0,931	373,475	190,728
5,386	-3,854	356,811	178,611
6,400	-4,900	351,133	174,488
7,415	-5,102	348,505	172,924
8,429	-5,140	347,092	172,163
9,444	-5,198	346,360	171,715
10,459	-5,195	345,683	171,367
11,473	-5,139	344,866	171,013
12,488	-5,219	344,544	170,744
13,502	-5,358	343,969	170,278
14,517	-5,193	343,366	170,161
15,531	-5,032	342,845	170,076
16,546	-5,075	342,465	169,823
17,561	-5,203	342,184	169,516
18,575	-5,113	341,656	169,346
19,590	-5,029	341,263	169,235
20,604	-5,149	340,930	168,914
21,619	-5,114	340,454	168,704
22,634	-5,179	340,127	168,450
23,648	-5,220	339,903	168,277
24,663	-5,028	339,498	168,285
25,677	-5,133	339,302	168,051
26,692	-5,043	338,924	167,954
27,707	-5,103	338,593	167,705
28,721	-5,056	338,379	167,639
29,736	-5,004	337,845	167,419
30,750	-5,160	337,825	167,214
31,765	-5,122	337,440	167,051
32,780	-5,140	337,155	166,875
33,794	-5,044	336,854	166,822
34,809	-5,075	336,585	166,639
35,823	-5,001	336,176	166,507
36,838	-4,948	335,993	166,463
37,853	-5,043	335,761	166,223
38,867	-5,108	335,445	165,977
39,882	-5,102	335,232	165,863
40,896	-5,020	334,854	165,756
41,911	-5,052	334,676	165,617
42,926	-5,093	334,460	165,447
43,940	-4,929	334,050	165,419
44,955	-5,141	333,821	165,047
45,969	-5,187	333,716	164,928
46,984	-5,053	333,307	164,865
47,999	-5,198	333,141	164,601
49,013	-5,053	333,025	164,695
50,028	-5,100	332,648	164,440
51,042	-4,997	332,418	164,430
52,057	-5,025	332,073	164,213
53,071	-5,047	331,896	164,085
54,086	-5,041	331,689	163,975
55,101	-5,147	331,317	163,656
56,115	-5,101	331,049	163,561
57,130	-4,903	330,712	163,605
58,144	-5,113	330,441	163,218
59,159	-5,144	330,183	163,041
60,174	-5,089	329,971	162,985
61,188	-5,112	329,643	162,781
62,203	-5,129	329,461	162,658
63,217	-5,106	329,226	162,554
64,232	-5,167	329,075	162,396
65,247	-5,067	328,633	162,276
66,261	-5,245	328,413	161,952
67,276	-5,049	328,222	162,064
68,290	-5,067	327,908	161,875
69,305	-5,138	327,854	161,754
70,320	-5,041	327,352	161,601
71,334	-4,970	327,124	161,553
72,349	-5,045	326,942	161,365
73,363	-5,048	326,620	161,187
74,378	-5,120	326,310	160,940
75,393	-5,046	326,120	160,915
76,407	-5,036	326,004	160,855
77,422	-5,035	325,617	160,650
78,436	-5,146	325,338	160,374
79,451	-5,084	325,134	160,328
80,466	-4,914	324,803	160,340
81,480	-5,018	324,590	160,105
82,495	-4,934	324,382	160,082
83,509	-4,920	324,027	159,907
84,524	-5,128	323,943	159,621
85,539	-5,000	323,591	159,575
86,553	-4,985	323,287	159,428
87,568	-4,992	323,127	159,326
88,582	-4,985	322,874	159,196
89,597	-4,897	322,453	159,071
90,611	-4,965	322,438	158,974
91,626	-5,134	322,329	158,720
92,641	-5,179	321,938	158,464
93,655	-4,820	321,568	158,662
94,670	-5,028	321,412	158,342
95,684	-5,041	321,250	158,234
96,699	-5,019	320,978	158,110
97,714	-5,015	320,847	158,036
98,728	-4,972	320,468	157,882
99,743	-5,050	320,417	157,757
100,757	-4,976	320,025	157,632
101,772	-5,032	319,966	157,528
102,787	-5,047	319,540	157,287
103,801	-4,984	319,283	157,216
104,816	-4,960	319,019	157,098
105,830	-5,044	319,089	157,026
106,845	-5,126	318,787	156,774
107,860	-5,010	318,446	156,719
108,874	-4,967	318,255	156,658
109,889	-5,042	317,967	156,421
110,903	-4,913	317,748	156,439
111,918	-5,014	317,468	156,178
112,933	-5,076	317,405	156,065
113,947	-5,147	317,194	155,870
114,962	-4,952	316,808	155,878
115,976	-5,061	316,605	155,646
116,991	-4,990	316,472	155,644
118,006	-5,085	316,209	155,399
119,020	-5,062	315,923	155,268
120,035	-5,075	315,876	155,218
121,049	-5,085	315,749	155,131
122,064	-4,903	315,225	155,056
123,079	-5,085	315,104	154,786
124,093	-5,141	315,017	154,669
125,108	-5,108	314,743	154,557
126,122	-4,764	314,418	154,753
127,137	-4,848	314,301	154,591
128,151	-4,980	313,887	154,232
129,166	-4,990	313,721	154,126
130,181	-5,041	313,488	153,944
131,195	-4,931	313,094	153,854
132,210	-5,125	313,111	153,641
133,224	-4,831	312,633	153,706
134,239	-4,968	312,396	153,430
135,254	-4,959	312,360	153,408
136,268	-5,050	312,233	153,236
137,283	-5,002	311,984	153,151
138,297	-5,041	311,764	152,988
139,312	-5,185	311,593	152,737
140,327	-4,974	311,255	152,781
141,341	-4,882	310,951	152,716
142,356	-4,966	310,744	152,512
143,370	-4,920	310,468	152,412
144,385	-5,056	310,233	152,139
145,400	-4,895	310,017	152,190
146,414	-4,890	309,918	152,132
147,429	-5,002	309,729	151,908
148,443	-5,109	309,482	151,661
149,458	-5,038	309,235	151,601
150,473	-4,958	309,007	151,560
151,487	-5,025	308,974	151,460
152,502	-5,088	308,649	151,220
153,516	-4,951	308,310	151,185
154,531	-4,960	308,258	151,136
155,546	-5,013	307,953	150,918
156,560	-4,938	307,679	150,849
157,575	-4,939	307,445	150,719
158,589	-4,809	307,109	150,676
159,604	-5,023	307,040	150,406
160,619	-5,077	306,882	150,259
161,633	-4,990	306,757	150,275
162,648	-4,939	306,446	150,162
163,662	-5,014	306,301	149,999
164,677	-5,014	306,152	149,913
165,692	-4,917	305,809	149,833
166,706	-4,690	305,741	150,023
167,721	-4,917	305,477	149,644
168,735	-4,930	305,349	149,554
169,750	-5,027	305,128	149,332
170,764	-4,989	304,954	149,273
171,779	-5,064	304,649	149,033
172,794	-4,992	304,479	149,010
173,808	-4,980	304,362	148,953
174,823	-4,961	304,078	148,820
175,837	-4,873	303,799	148,761
176,852	-4,999	303,684	148,561
177,867	-4,953	303,528	148,519
178,881	-4,938	303,226	148,373
179,896	-5,054	303,094	148,177
180,910	-5,001	302,865	148,105
181,925	-4,927	302,564	148,022
182,940	-4,899	302,339	147,926
183,954	-4,978	302,257	147,793
184,969	-4,847	302,045	147,810
185,983	-4,914	301,912	147,663
186,998	-4,875	301,660	147,566
188,013	-4,953	301,596	147,442
189,027	-4,953	301,149	147,211
190,042	-4,952	301,017	147,134
191,056	-4,948	300,795	147,016
192,071	-5,125	300,609	146,732
193,086	-4,892	300,191	146,752
194,100	-5,060	300,201	146,573
195,115	-4,727	299,797	146,700
196,129	-4,904	299,790	146,505
197,144	-4,924	299,358	146,260
198,159	-4,996	299,261	146,127
199,173	-5,026	299,035	145,972
200,188	-5,002	298,729	145,835
201,202	-4,952	298,443	145,733
202,217	-4,889	298,442	145,783
203,232	-4,787	298,190	145,750
204,246	-4,964	297,977	145,454
205,261	-4,804	297,682	145,459
206,275	-4,863	297,562	145,327
207,290	-4,769	297,435	145,347
208,304	-4,748	297,187	145,234
209,319	-4,909	296,942	144,939
210,334	-4,924	296,717	144,801
211,348	-4,752	296,510	144,861
212,363	-4,818	296,312	144,684
213,377	-5,025	296,250	144,434
214,392	-4,987	295,990	144,333
215,407	-4,978	295,782	144,226
216,421	-4,905	295,536	144,167
217,436	-4,884	295,174	143,999
218,450	-5,003	295,083	143,822
219,465	-4,997	295,012	143,781
220,480	-5,172	294,833	143,506
221,494	-4,959	294,603	143,594
222,509	-5,018	294,480	143,462
223,523	-4,869	294,281	143,501
224,538	-4,844	294,045	143,398
225,553	-4,894	293,807	143,219
226,567	-4,919	293,600	143,081
227,582	-4,837	293,492	143,097
228,596	-4,751	293,249	143,051
229,611	-4,866	293,084	142,844
230,626	-4,962	292,929	142,660
231,640	-4,970	292,739	142,548
232,655	-4,897	292,621	142,549
233,669	-4,812	292,350	142,489
234,684	-4,725	292,061	142,420
235,699	-4,840	291,852	142,192
236,713	-4,953	291,730	142,009
237,728	-4,888	291,528	141,962
238,742	-4,811	291,287	141,908
239,757	-4,977	291,065	141,624
240,772	-4,942	290,919	141,574
241,786	-4,927	290,745	141,492
242,801	-4,846	290,530	141,454
243,815	-4,972	290,401	141,256
244,830	-4,858	290,271	141,292
245,844	-4,904	289,925	141,066
246,859	-4,952	289,727	140,909
247,874	-5,032	289,662	140,788
248,888	-4,755	289,277	140,858
249,903	-4,985	289,301	140,632
250,917	-4,989	288,984	140,462
251,932	-4,840	288,702	140,458
252,947	-5,396	288,506	139,809
253,961	-5,612	288,080	139,379
254,976	-5,835	287,826	139,027
255,990	-5,478	287,793	139,346
257,005	-3,960	288,521	141,163
258,020	-1,504	289,279	143,914
259,034	0,042	289,600	145,567
260,049	0,286	289,557	145,769
261,063	0,762	289,498	146,190
262,078	1,183	289,474	146,574
263,093	1,381	289,380	146,706
264,107	1,499	289,366	146,800
265,122	1,763	289,290	147,005
266,136	1,868	289,021	146,957
267,151	1,988	288,930	147,014
268,166	1,901	288,598	146,747
269,180	1,761	288,432	146,514
270,195	1,992	288,250	146,632
271,209	1,990	287,982	146,481
272,224	1,991	287,905	146,430
273,239	1,832	287,676	146,146
274,253	1,821	287,536	146,052
275,268	1,912	287,294	146,004
276,282	1,742	287,053	145,705
277,297	1,611	286,897	145,487
278,312	1,783	286,780	145,580
279,326	1,857	286,564	145,528
280,341	1,871	286,283	145,385
281,355	1,931	286,210	145,393
282,370	1,997	285,971	145,322
283,384	1,849	285,810	145,086
284,399	1,725	285,555	144,824
285,414	1,873	285,444	144,896
286,428	1,647	285,292	144,591
287,443	1,819	285,069	144,629
288,457	1,678	284,922	144,407
289,472	1,533	284,725	144,157
290,487	1,589	284,503	144,084
291,501	1,550	284,241	143,902
292,516	1,617	284,126	143,895
293,530	1,695	283,979	143,882
294,545	1,706	283,762	143,768
295,560	1,696	283,577	143,653
296,574	1,612	283,339	143,440
297,589	1,649	283,183	143,383
298,603	1,877	282,936	143,462
299,618	1,786	282,671	143,228
300,633	1,748	282,557	143,121
301,647	1,722	282,355	142,982
302,662	1,927	282,129	143,048
303,676	1,745	282,159	142,878
304,691	1,895	281,954	142,904
305,706	1,801	281,872	142,761
306,720	1,803	281,592	142,609
307,735	1,746	281,477	142,483
308,749	1,791	281,245	142,396
309,764	1,883	281,066	142,379
310,779	1,743	280,878	142,139
311,793	1,645	280,676	141,932
312,808	1,726	280,532	141,923
313,822	1,835	280,189	141,839
314,837	1,681	280,139	141,657
315,852	1,810	279,972	141,681
316,866	1,831	279,820	141,610
317,881	1,772	279,578	141,420
318,895	1,792	279,408	141,341
319,910	1,639	279,203	141,081
320,925	1,796	278,968	141,096
321,939	1,788	278,817	141,000
322,954	1,750	278,705	140,895
323,968	1,629	278,644	140,739
324,983	1,984	278,237	140,851
325,997	1,905	278,134	140,713
327,012	1,800	278,103	140,587
328,027	1,841	277,812	140,466
329,041	1,757	277,602	140,269
330,056	1,946	277,477	140,368
331,070	1,856	277,300	140,183
332,085	1,991	277,127	140,208
333,100	1,957	276,875	140,037
334,114	1,906	276,748	139,912
335,129	1,806	276,570	139,718
336,143	2,035	276,298	139,779
337,158	2,099	276,166	139,759
338,173	1,828	276,086	139,456
339,187	2,186	275,837	139,648
340,202	2,073	275,600	139,411
341,216	1,876	275,390	139,112
342,231	1,847	275,367	139,061
343,246	1,977	275,057	139,011
344,260	1,904	274,923	138,864
345,275	2,036	274,914	138,968
346,289	2,021	274,718	138,843
347,304	2,077	274,435	138,739
348,319	2,010	274,197	138,545
349,333	2,141	274,134	138,620
350,348	2,036	273,912	138,400
351,362	1,918	273,700	138,173
352,377	2,122	273,553	138,272
353,392	1,931	273,445	138,031
354,406	1,890	273,209	137,863
355,421	191,464	1346,613	1424,871
356,435	154,609	1477,456	1424,966
