DTS Sentinel unit serial number:	SN410029Multiplexer serial number:	ORYXHardware model number:	OX2-SRSoftware version number:	ORYX F/W v4,00 Oryx Data Collector v3.7.2.0data status	okinstallation	B4 Nyhavnadifferential loss correction	single-endedforward channel	channel 2reverse channel	N/Adate	2023/12/15time	18:30:13forward acquisition time	300,00reverse acquisition time	0,00gamma	499,1914k internal	0,3139k external	0,3139temperature offset calibration	1,0000default loss term (dB/km)	0,3820temperature slope calibration	1,0000multiplexer offset coefficient	1,0000multiplexer slope coefficient	1,0000fibre end	0,00T internal ref (°C)	19,20T ext. ref 1 (°C)	5,26T ext. ref 2 (°C)	5,38length (m)	temperature (°C)	Stokes	anti-Stokes-744,400	-200,000	-0,001	-0,158
-743,385	-108,633	-0,224	-0,035
-742,371	-44,152	0,199	-0,074
-741,356	39,663	-0,187	0,124
-740,342	-60,045	-0,073	-0,023
-739,327	-86,815	-0,261	0,059
-738,312	0,877	0,098	-0,052
-737,298	72,603	-0,223	0,173
-736,283	-200,000	-0,019	-0,070
-735,269	-71,186	-0,315	0,087
-734,254	-127,882	0,051	0,005
-733,239	-57,706	-0,547	-0,177
-732,225	178,718	0,137	0,148
-731,210	436,729	-0,066	0,106
-730,196	-200,000	-0,019	-0,086
-729,181	-200,000	-0,006	0,019
-728,167	-3,681	0,124	0,063
-727,152	-111,683	-0,067	0,010
-726,137	-107,733	-0,085	-0,014
-725,123	-200,000	-0,001	0,013
-724,108	800,000	0,046	-0,134
-723,094	64,782	-0,058	-0,043
-722,079	-74,608	-0,014	0,004
-721,064	187,075	-0,063	-0,070
-720,050	152,397	0,078	0,079
-719,035	23,836	0,029	-0,018
-718,021	-197,308	-0,227	-0,001
-717,006	-200,000	-0,006	-0,129
-715,991	-200,000	-0,017	-0,225
-714,977	-200,000	-0,014	-0,084
-713,962	129,124	-0,105	-0,099
-712,948	-153,275	0,111	-0,006
-711,933	200,983	-0,036	0,041
-710,918	-48,853	0,063	-0,022
-709,904	685,752	-0,016	0,031
-708,889	-200,000	0,011	-0,054
-707,875	154,175	-0,027	-0,027
-706,860	-20,296	-0,072	0,033
-705,845	0,653	0,011	-0,006
-704,831	-200,000	0,002	0,122
-703,816	-200,000	-0,032	-0,120
-702,802	38,630	-0,120	-0,079
-701,787	-6,485	-0,127	-0,064
-700,772	171,075	0,068	0,072
-699,758	75,209	-0,064	0,050
-698,743	50,927	-0,083	0,058
-697,729	-144,555	0,137	0,009
-696,714	716,977	0,047	-0,092
-695,699	-176,854	-0,185	0,003
-694,685	-12,023	-0,088	0,043
-693,670	504,598	0,075	-0,128
-692,656	-200,000	-0,003	-0,146
-691,641	800,000	-0,022	-0,062
-690,627	415,413	0,063	0,099
-689,612	800,000	0,024	-0,066
-688,597	-200,000	-0,005	-0,119
-687,583	25,820	-0,061	0,038
-686,568	-200,000	-0,004	-0,091
-685,554	101,747	0,052	0,045
-684,539	23,626	0,050	0,031
-683,524	-200,000	0,009	0,147
-682,510	-37,806	-0,034	-0,014
-681,495	59,983	-0,065	-0,047
-680,481	-200,000	-0,014	-0,054
-679,466	-86,709	-0,121	-0,027
-678,451	285,551	0,052	-0,070
-677,437	189,839	0,048	-0,053
-676,422	800,000	0,026	0,083
-675,408	800,000	-0,044	-0,092
-674,393	-200,000	-0,018	-0,077
-673,378	448,487	0,069	-0,112
-672,364	-80,493	-0,132	-0,032
-671,349	-15,190	-0,076	-0,036
-670,335	-200,000	0,019	0,124
-669,320	-200,000	-0,000	-0,068
-668,305	800,000	-0,039	0,112
-667,291	-200,000	-0,009	0,058
-666,276	-63,339	-0,088	0,027
-665,262	-42,027	-0,152	-0,057
-664,247	221,001	-0,041	0,049
-663,232	213,369	0,056	-0,065
-662,218	-12,361	0,184	0,089
-661,203	429,819	-0,073	0,118
-660,189	-133,081	-0,100	0,009
-659,174	800,000	-0,061	-0,139
-658,159	-104,883	0,108	0,018
-657,145	-200,000	-0,005	0,039
-656,130	-200,000	0,013	0,059
-655,116	-46,742	0,068	-0,024
-654,101	-200,000	-0,014	0,050
-653,086	-112,562	-0,106	0,015
-652,072	-72,357	-0,053	-0,014
-651,057	79,805	-0,168	-0,134
-650,043	708,767	-0,048	-0,093
-649,028	-200,000	-0,011	-0,064
-648,014	-200,000	-0,028	0,117
-646,999	245,061	0,037	0,047
-645,984	-200,000	0,004	0,046
-644,970	-141,095	0,025	-0,002
-643,955	46,613	0,074	-0,051
-642,941	-73,451	-0,245	-0,066
-641,926	-92,831	-0,101	-0,021
-640,911	800,000	0,041	-0,121
-639,897	362,105	0,083	0,123
-638,882	232,389	0,052	0,063
-637,868	-54,785	0,068	-0,022
-636,853	4,319	-0,140	0,076
-635,838	327,911	-0,059	-0,084
-634,824	-200,000	0,015	0,111
-633,809	-87,800	-0,055	0,012
-632,795	-33,814	0,044	0,018
-631,780	46,662	0,029	0,020
-630,765	553,797	-0,036	-0,064
-629,751	90,605	-0,058	-0,048
-628,736	109,530	-0,049	-0,044
-627,722	228,932	-0,034	0,041
-626,707	-200,000	-0,005	-0,038
-625,692	12,393	0,054	0,031
-624,678	-145,169	0,045	-0,003
-623,663	233,749	0,054	-0,066
-622,649	-155,536	-0,054	-0,003
-621,634	93,473	-0,049	-0,041
-620,619	-200,000	0,019	-0,064
-619,605	328,056	0,087	0,123
-618,590	-29,234	-0,122	-0,051
-617,576	-129,943	-0,061	0,006
-616,561	-200,000	0,014	0,082
-615,546	631,468	0,043	-0,081
-614,532	-54,700	-0,115	-0,038
-613,517	-200,000	-0,005	-0,108
-612,503	305,221	-0,073	-0,100
-611,488	-168,403	0,074	-0,002
-610,474	0,844	0,037	0,019
-609,459	-101,007	-0,086	0,015
-608,444	-200,000	-0,004	-0,031
-607,430	386,894	0,052	0,080
-606,415	-72,201	-0,079	0,022
-605,401	246,888	0,060	0,075
-604,386	-200,000	-0,000	0,043
-603,371	132,209	0,082	-0,078
-602,357	-192,371	-0,073	-0,000
-601,342	-112,895	-0,141	0,020
-600,328	-200,000	0,023	-0,090
-599,313	49,722	-0,027	-0,019
-598,298	-46,585	0,088	-0,032
-597,284	-59,329	-0,136	-0,043
-596,269	-110,284	-0,042	-0,006
-595,255	-44,571	-0,058	-0,021
-594,240	-47,328	0,081	-0,029
-593,225	-144,234	-0,110	0,007
-592,211	18,637	0,123	-0,073
-591,196	-110,475	0,086	-0,013
-590,182	-200,000	-0,005	-0,043
-589,167	-105,735	-0,042	0,007
-588,152	-64,214	0,052	-0,015
-587,138	59,878	-0,055	-0,040
-586,123	264,760	-0,069	0,089
-585,109	-92,433	-0,055	-0,011
-584,094	-22,928	0,068	-0,030
-583,079	14,903	0,083	0,048
-582,065	-72,320	0,075	0,020
-581,050	-69,831	0,108	0,030
-580,036	-153,273	-0,089	-0,004
-579,021	-0,848	-0,140	0,073
-578,006	-200,000	0,004	0,016
-576,992	-200,000	0,006	-0,085
-575,977	-200,000	-0,021	-0,105
-574,963	94,336	-0,211	0,177
-573,948	360,499	0,026	0,038
-572,934	-200,000	-0,020	0,075
-571,919	227,758	-0,115	-0,138
-570,904	211,080	0,033	-0,038
-569,890	-151,205	0,047	0,003
-568,875	284,629	0,055	0,073
-567,861	-200,000	-0,037	0,140
-566,846	184,063	0,011	0,012
-565,831	85,067	-0,073	0,059
-564,817	243,476	-0,076	0,094
-563,802	-96,618	-0,117	-0,023
-562,788	-200,000	-0,034	0,136
-561,773	800,000	-0,026	0,082
-560,758	116,245	0,074	0,066
-559,744	800,000	-0,022	0,046
-558,729	-200,000	-0,022	0,120
-557,715	-23,509	0,058	0,026
-556,700	800,000	-0,035	-0,084
-555,685	-142,015	-0,059	0,004
-554,671	157,097	-0,022	-0,022
-553,656	-139,332	0,084	-0,007
-552,642	-200,000	-0,002	0,054
-551,627	763,146	0,018	0,037
-550,612	-33,039	-0,043	-0,017
-549,598	-200,000	0,026	-0,201
-548,583	-200,000	-0,011	-0,063
-547,569	261,505	0,017	0,021
-546,554	-200,000	-0,003	0,133
-545,539	-101,083	-0,078	-0,014
-544,525	-200,000	0,003	-0,113
-543,510	405,037	-0,022	-0,034
-542,496	-132,894	-0,144	0,013
-541,481	400,358	-0,108	-0,167
-540,466	-102,009	-0,077	-0,014
-539,452	-200,000	-0,001	-0,106
-538,437	800,000	0,013	-0,037
-537,423	421,365	0,019	-0,030
-536,408	-165,507	-0,141	0,004
-535,393	-8,296	-0,075	0,037
-534,379	-30,031	-0,050	0,021
-533,364	-32,336	0,064	-0,026
-532,350	252,098	-0,004	0,006
-531,335	42,477	-0,019	0,012
-530,321	-88,350	0,055	-0,012
-529,306	-163,609	0,100	0,003
-528,291	800,000	-0,045	-0,101
-527,277	-200,000	0,009	-0,065
-526,262	144,038	-0,030	-0,030
-525,248	142,706	0,106	0,103
-524,233	-100,992	0,114	0,020
-523,218	-146,587	0,128	-0,008
-522,204	105,339	0,053	0,046
-521,189	101,910	-0,114	0,098
-520,175	-200,000	-0,019	0,109
-519,160	76,220	0,028	-0,022
-518,145	-200,000	-0,002	0,108
-517,131	800,000	0,016	-0,042
-516,116	279,783	-0,065	0,085
-515,102	63,720	-0,081	-0,060
-514,087	69,561	-0,058	-0,044
-513,072	35,069	-0,092	-0,059
-512,058	268,994	-0,027	-0,035
-511,043	-199,429	0,074	-0,000
-510,029	-140,348	0,177	-0,013
-509,014	187,368	-0,041	0,045
-507,999	-200,000	0,009	0,078
-506,985	-9,858	-0,128	0,063
-505,970	234,976	0,136	-0,165
-504,956	-113,869	-0,064	-0,009
-503,941	-156,751	0,141	-0,006
-502,926	-200,000	-0,010	-0,089
-501,912	-200,000	-0,025	0,106
-500,897	-200,000	-0,040	0,137
-499,883	-200,000	0,003	0,034
-498,868	-39,872	-0,039	-0,015
-497,853	-76,433	-0,124	0,032
-496,839	-200,000	0,007	0,025
-495,824	-110,253	0,081	-0,012
-494,810	137,641	0,046	0,044
-493,795	367,223	-0,072	0,107
-492,781	89,521	0,167	-0,137
-491,766	-93,782	-0,042	-0,008
-490,751	800,000	0,071	-0,227
-489,737	301,081	-0,047	-0,064
-488,722	3,040	-0,047	-0,025
-487,708	32,977	0,076	-0,048
-486,693	-200,000	-0,015	0,059
-485,678	62,196	0,134	-0,098
-484,664	46,153	-0,111	0,076
-483,649	404,742	0,069	-0,107
-482,635	33,803	-0,031	0,020
-481,620	83,293	0,058	-0,047
-480,605	106,235	0,030	0,026
-479,591	-17,311	0,064	-0,029
-478,576	-200,000	-0,002	-0,036
-477,562	572,542	-0,034	0,061
-476,547	800,000	-0,055	0,128
-475,532	-41,502	0,083	0,031
-474,518	800,000	-0,032	0,091
-473,503	260,772	-0,053	0,067
-472,489	13,697	-0,018	0,010
-471,474	214,923	0,011	-0,013
-470,459	627,114	-0,017	0,032
-469,445	276,211	-0,082	-0,107
-468,430	-104,055	0,126	-0,021
-467,416	-200,000	-0,008	-0,046
-466,401	701,588	0,030	-0,059
-465,386	-40,892	0,014	-0,005
-464,372	65,156	-0,015	-0,011
-463,357	100,012	0,042	0,035
-462,343	67,613	0,011	-0,008
-461,328	15,565	0,090	-0,052
-460,313	-89,558	-0,048	0,010
-459,299	800,000	0,050	-0,135
-458,284	223,949	-0,022	-0,026
-457,270	-200,000	-0,008	-0,051
-456,255	20,654	-0,094	-0,055
-455,241	417,786	0,041	-0,064
-454,226	-24,937	-0,196	0,085
-453,211	800,000	0,012	0,028
-452,197	-112,400	-0,178	-0,026
-451,182	88,338	0,081	0,066
-450,168	22,526	0,039	-0,023
-449,153	-139,100	-0,045	0,004
-448,138	620,708	-0,082	0,151
-447,124	12,579	0,013	0,007
-446,109	66,449	-0,034	0,025
-445,095	-22,280	0,141	0,062
-444,080	8,692	0,156	0,086
-443,065	460,688	-0,083	0,137
-442,051	-200,000	-0,004	-0,077
-441,036	26,140	-0,028	0,017
-440,022	563,506	-0,013	-0,023
-439,007	800,000	0,052	-0,114
-437,992	-200,000	0,010	0,062
-436,978	171,293	0,079	0,083
-435,963	-43,530	-0,019	-0,007
-434,949	-200,000	0,023	-0,083
-433,934	-40,420	0,083	0,031
-432,919	55,494	0,045	-0,032
-431,905	-117,695	-0,090	-0,012
-430,890	327,621	0,097	0,137
-429,876	800,000	0,056	0,131
-428,861	377,879	-0,048	-0,072
-427,846	-68,230	0,151	-0,043
-426,832	2,142	-0,095	0,050
-425,817	115,118	0,040	-0,036
-424,803	-200,000	-0,013	-0,101
-423,788	-48,020	0,092	0,032
-422,773	-200,000	-0,010	0,098
-421,759	800,000	-0,040	0,084
-420,744	-67,943	-0,062	0,017
-419,730	-153,479	0,044	-0,002
-418,715	145,018	-0,168	-0,164
-417,701	26,773	0,060	0,037
-416,686	-109,437	0,244	0,037
-415,671	316,008	-0,049	-0,068
-414,657	32,984	0,050	0,031
-413,642	-42,516	-0,066	-0,024
-412,628	-185,057	0,057	0,001
-411,613	69,824	-0,134	-0,101
-410,598	800,000	0,047	-0,118
-409,584	-200,000	0,007	0,059
-408,569	393,286	0,027	0,041
-407,555	157,415	0,094	0,095
-406,540	22,846	-0,072	0,043
-405,525	12,253	-0,118	-0,066
-404,511	44,689	0,024	0,016
-403,496	-200,000	-0,042	-0,224
-402,482	335,595	-0,074	-0,106
-401,467	157,473	-0,016	0,017
-400,452	22,304	0,020	0,012
-399,438	-57,411	0,107	0,034
-398,423	141,235	0,109	0,105
-397,409	10,286	-0,107	-0,059
-396,394	-28,430	-0,066	-0,028
-395,379	-121,003	0,094	0,011
-394,365	24,988	0,110	-0,067
-393,350	-23,772	0,045	0,019
-392,336	27,589	-0,033	0,020
-391,321	530,618	0,039	0,069
-390,306	-48,504	-0,100	0,035
-389,292	117,430	0,017	0,016
-388,277	7,194	-0,118	0,064
-387,263	103,382	0,102	-0,088
-386,248	-159,775	0,142	-0,006
-385,233	-94,249	-0,124	0,025
-384,219	7,893	0,121	0,066
-383,204	-200,000	-0,020	0,080
-382,190	800,000	0,050	-0,157
-381,175	-117,370	0,065	0,009
-380,160	-163,637	0,128	-0,004
-379,146	469,928	-0,031	-0,051
-378,131	-114,957	0,047	0,006
-377,117	-200,000	-0,025	0,118
-376,102	128,777	0,062	0,057
-375,088	-17,367	-0,071	0,032
-374,073	800,000	-0,032	0,093
-373,058	696,848	-0,049	0,095
-372,044	781,350	0,050	0,100
-371,029	102,065	-0,068	-0,058
-370,015	148,878	0,036	0,035
-369,000	-15,951	0,126	-0,058
-367,985	304,946	0,031	-0,043
-366,971	-27,768	0,094	0,040
-365,956	-122,548	0,110	0,013
-364,942	203,821	0,085	0,097
-363,927	253,373	0,100	-0,125
-362,912	800,000	-0,035	-0,081
-361,898	-53,771	0,103	-0,034
-360,883	670,527	0,027	0,051
-359,869	235,160	0,050	-0,060
-358,854	611,168	0,039	-0,071
-357,839	198,510	0,022	0,025
-356,825	-200,000	-0,006	0,151
-355,810	49,461	-0,064	0,044
-354,796	121,539	-0,036	-0,033
-353,781	-128,522	-0,192	-0,020
-352,766	-200,000	0,005	0,054
-351,752	406,804	-0,038	-0,058
-350,737	-73,984	0,069	0,018
-349,723	-129,535	0,058	0,006
-348,708	237,302	-0,095	-0,115
-347,693	-200,000	0,030	-0,121
-346,679	-21,418	-0,086	-0,038
-345,664	800,000	-0,014	0,037
-344,650	800,000	-0,050	0,130
-343,635	-36,207	0,127	0,050
-342,620	-53,724	0,131	0,043
-341,606	-91,719	0,135	0,028
-340,591	-200,000	0,013	0,125
-339,577	126,920	0,088	0,081
-338,562	-29,027	0,088	0,037
-337,548	173,501	0,099	0,104
-336,533	-149,554	0,128	-0,007
-335,518	266,638	-0,068	0,087
-334,504	-165,801	0,233	0,007
-333,489	188,114	-0,038	-0,042
-332,475	606,005	-0,071	-0,130
-331,460	800,000	-0,040	-0,106
-330,445	-200,000	0,030	-0,154
-329,431	209,392	0,089	0,102
-328,416	-12,229	0,032	0,015
-327,402	161,372	-0,065	-0,066
-326,387	568,291	0,014	-0,024
-325,372	-52,848	-0,108	0,036
-324,358	792,321	-0,065	0,130
-323,343	800,000	-0,057	-0,172
-322,329	252,962	-0,029	0,037
-321,314	800,000	-0,018	0,045
-320,299	-56,774	0,025	-0,008
-319,285	74,474	-0,064	-0,049
-318,270	800,000	-0,031	-0,092
-317,256	626,177	-0,070	-0,129
-316,241	-200,000	-0,011	0,078
-315,226	284,866	0,097	-0,128
-314,212	-7,579	0,123	-0,061
-313,197	-75,314	-0,135	-0,035
-312,183	800,000	0,003	0,007
-311,168	-200,000	0,012	-0,065
-310,153	-66,800	-0,038	-0,011
-309,139	-200,000	0,004	-0,054
-308,124	89,904	0,042	-0,035
-307,110	197,451	-0,071	-0,079
-306,095	800,000	0,022	-0,050
-305,080	-71,584	-0,079	-0,021
-304,066	-111,235	0,099	0,015
-303,051	348,983	0,018	-0,025
-302,037	43,441	-0,070	-0,047
-301,022	800,000	0,077	0,172
-300,008	244,910	0,034	0,042
-298,993	-200,000	-0,008	-0,040
-297,978	213,473	0,055	-0,063
-296,964	-200,000	-0,005	-0,057
-295,949	408,800	0,039	-0,060
-294,935	53,617	0,049	-0,034
-293,920	-141,048	-0,200	0,015
-292,905	-200,000	-0,012	-0,048
-291,891	-200,000	0,007	0,099
-290,876	-200,000	-0,011	0,073
-289,862	-200,000	-0,038	-0,172
-288,847	-200,000	-0,038	-0,131
-287,832	-200,000	0,022	-0,153
-286,818	111,759	0,048	-0,042
-285,803	-200,000	0,028	-0,102
-284,789	34,732	0,105	0,067
-283,774	17,163	0,107	0,062
-282,759	-23,216	0,157	0,068
-281,745	579,378	0,033	-0,060
-280,730	-200,000	-0,004	0,073
-279,716	-200,000	0,016	0,168
-278,701	-149,397	-0,110	0,006
-277,686	-55,960	0,056	0,018
-276,672	-2,649	0,077	0,039
-275,657	-200,000	0,035	-0,152
-274,643	-69,916	-0,079	-0,022
-273,628	169,285	0,061	0,064
-272,613	-200,000	-0,031	0,137
-271,599	-128,400	0,139	0,014
-270,584	231,993	-0,048	-0,057
-269,570	-200,000	0,010	-0,135
-268,555	-200,000	-0,003	0,120
-267,540	14,652	-0,157	-0,089
-266,526	15,368	0,017	-0,010
-265,511	-126,529	-0,081	-0,009
-264,497	-114,740	-0,081	0,011
-263,482	4,480	0,024	0,013
-262,467	295,280	0,089	-0,119
-261,453	-200,000	0,014	0,061
-260,438	-200,000	-0,010	-0,058
-259,424	-58,373	0,019	0,006
-258,409	655,395	0,063	-0,119
-257,395	-107,306	0,149	0,024
-256,380	42,614	0,010	0,006
-255,365	-12,737	0,109	0,051
-254,351	-200,000	0,014	0,215
-253,336	-200,000	-0,010	0,064
-252,322	-1,990	-0,055	-0,028
-251,307	-76,850	0,059	-0,015
-250,292	65,075	-0,068	-0,050
-249,278	211,237	0,048	0,055
-248,263	75,858	-0,147	0,113
-247,249	-117,215	-0,033	-0,004
-246,234	-36,006	0,071	0,028
-245,219	800,000	-0,031	0,085
-244,205	-200,000	0,038	-0,150
-243,190	800,000	-0,067	0,179
-242,176	232,646	0,060	0,072
-241,161	800,000	0,020	0,043
-240,146	51,227	-0,008	0,006
-239,132	-53,057	0,215	0,072
-238,117	-60,388	-0,117	0,036
-237,103	31,821	-0,069	-0,043
-236,088	-150,765	0,090	-0,005
-235,073	800,000	0,024	0,054
-234,059	-200,000	0,023	0,122
-233,044	-41,954	0,033	0,012
-232,030	-76,573	-0,041	-0,010
-231,015	23,770	-0,140	0,084
-230,000	800,000	-0,058	-0,118
-228,986	-200,000	0,006	-0,021
-227,971	-78,442	-0,204	0,050
-226,957	214,471	0,091	0,105
-225,942	-137,312	0,080	0,006
-224,927	-90,768	0,130	0,027
-223,913	-200,000	-0,032	-0,130
-222,898	-200,000	-0,018	-0,113
-221,884	-200,000	0,018	0,198
-220,869	106,882	0,022	0,019
-219,855	-200,000	0,008	0,086
-218,840	76,287	0,068	0,052
-217,825	-49,891	-0,079	-0,027
-216,811	8,865	-0,078	0,042
-215,796	-166,301	-0,086	0,003
-214,782	800,000	-0,048	-0,106
-213,767	284,002	-0,077	0,101
-212,752	70,205	0,113	-0,085
-211,738	38,447	-0,108	-0,070
-210,723	187,821	-0,073	0,079
-209,709	-200,000	0,024	0,081
-208,694	7,725	-0,007	0,004
-207,679	697,697	0,028	-0,053
-206,665	250,443	-0,095	0,118
-205,650	-87,334	0,068	-0,015
-204,636	-200,000	-0,006	-0,022
-203,621	-200,000	-0,004	-0,045
-202,606	-156,841	0,077	0,003
-201,592	52,343	-0,144	-0,099
-200,577	-200,000	-0,007	-0,044
-199,563	-200,000	-0,039	-0,211
-198,548	656,794	0,065	-0,121
-197,533	402,592	-0,004	-0,006
-196,519	-113,405	-0,089	-0,012
-195,504	364,735	0,043	-0,063
-194,490	582,152	-0,027	0,049
-193,475	-200,000	-0,005	-0,033
-192,460	236,707	-0,016	0,020
-191,446	-200,000	-0,002	0,020
-190,431	-200,000	-0,017	0,083
-189,417	-200,000	0,006	0,090
-188,402	-200,000	-0,006	0,233
-187,387	-140,123	0,088	0,007
-186,373	74,921	-0,059	0,045
-185,358	-200,000	-0,031	0,140
-184,344	-167,933	0,199	0,006
-183,329	800,000	0,031	0,086
-182,315	800,000	0,013	-0,028
-181,300	-117,343	-0,102	-0,013
-180,285	178,268	0,041	-0,044
-179,271	29,926	-0,177	-0,109
-178,256	800,000	-0,020	-0,052
-177,242	304,503	-0,051	-0,068
-176,227	744,661	0,041	-0,080
-175,212	52,472	0,031	0,022
-174,198	-85,118	0,078	0,018
-173,183	-25,684	0,073	0,031
-172,169	319,766	0,043	-0,059
-171,154	-200,000	0,008	0,082
-170,139	312,978	-0,047	0,064
-169,125	499,275	0,040	-0,066
-168,110	-200,000	0,007	0,023
-167,096	164,881	-0,088	-0,090
-166,081	-96,673	-0,127	-0,024
-165,066	151,900	-0,062	-0,062
-164,052	-48,248	-0,122	-0,043
-163,037	718,524	0,042	-0,081
-162,023	317,483	-0,062	0,085
-161,008	-200,000	0,012	0,073
-159,993	63,619	-0,033	-0,024
-158,979	451,246	-0,064	-0,103
-157,964	-2,626	-0,103	-0,052
-156,950	-53,669	0,021	-0,007
-155,935	64,524	-0,069	-0,050
-154,920	-200,000	-0,025	0,095
-153,906	-26,150	0,024	-0,010
-152,891	-111,744	0,039	0,006
-151,877	176,217	-0,121	0,128
-150,862	-200,000	-0,038	0,000
-149,847	-54,273	0,023	-0,007
-148,833	800,000	0,032	0,087
-147,818	800,000	0,032	-0,087
-146,804	110,153	-0,110	-0,095
-145,789	-114,188	0,167	0,023
-144,775	28,363	-0,074	-0,045
-143,760	-80,345	-0,025	-0,006
-142,745	-200,000	-0,022	-0,078
-141,731	207,818	0,052	-0,059
-140,716	-200,000	-0,009	0,049
-139,702	-200,000	0,011	-0,057
-138,687	-124,846	-0,035	0,004
-137,672	-22,289	0,178	-0,078
-136,658	290,992	-0,042	0,055
-135,643	13,048	-0,087	-0,049
-134,629	800,000	-0,070	-0,170
-133,614	-200,000	-0,039	0,159
-132,599	-200,000	-0,005	0,018
-131,585	800,000	0,043	0,131
-130,570	-17,580	0,043	-0,020
-129,556	-200,000	-0,033	0,123
-128,541	-200,000	0,031	0,100
-127,526	800,000	0,065	-0,144
-126,512	-200,000	0,012	0,059
-125,497	70,241	0,043	0,032
-124,483	800,000	0,043	-0,098
-123,468	-43,379	-0,068	-0,025
-122,453	-47,906	-0,057	-0,020
-121,439	13,069	-0,050	-0,028
-120,424	-58,088	-0,101	-0,032
-119,410	-100,066	-0,122	0,022
-118,395	-200,000	-0,030	0,117
-117,380	-102,391	0,086	0,015
-116,366	800,000	0,038	-0,089
-115,351	-43,371	-0,137	-0,050
-114,337	-200,000	-0,012	-0,065
-113,322	800,000	0,031	0,072
-112,307	108,494	0,075	0,065
-111,293	-200,000	0,011	-0,213
-110,278	-7,585	-0,089	0,043
-109,264	567,367	-0,014	0,024
-108,249	-130,777	-0,081	0,008
-107,234	800,000	0,049	0,102
-106,220	252,512	-0,042	-0,052
-105,205	10,225	-0,072	0,039
-104,191	-200,000	0,009	0,105
-103,176	328,716	-0,020	-0,028
-102,162	51,949	-0,139	0,096
-101,147	-27,873	0,117	0,049
-100,132	800,000	-0,068	0,189
-99,118	800,000	0,028	0,084
-98,103	-200,000	-0,011	0,065
-97,089	2,663	0,099	0,052
-96,074	-21,457	0,031	0,014
-95,059	-160,657	0,079	0,003
-94,045	14,832	-0,120	0,068
-93,030	-18,946	0,214	-0,096
-92,016	800,000	-0,044	-0,097
-91,001	-6,601	0,009	-0,004
-89,986	302,638	-0,104	-0,140
-88,972	218,183	0,099	0,114
-87,957	-200,000	0,005	0,141
-86,943	16,715	-0,056	0,032
-85,928	15,249	-0,057	-0,032
-84,913	176,454	-0,087	-0,091
-83,899	800,000	0,091	0,189
-82,884	733,765	0,064	-0,125
-81,870	800,000	0,050	0,111
-80,855	-200,000	-0,026	0,109
-79,840	243,823	-0,081	0,099
-78,826	-136,894	-0,129	-0,011
-77,811	194,383	-0,087	-0,095
-76,797	632,915	-0,034	0,063
-75,782	137,446	0,031	0,030
-74,767	164,265	-0,086	0,088
-73,753	-200,000	0,029	0,110
-72,738	-35,783	0,075	0,029
-71,724	-60,057	-0,042	0,013
-70,709	-132,944	0,067	-0,006
-69,694	-200,000	-0,005	-0,027
-68,680	-200,000	0,001	0,009
-67,665	-200,000	0,005	0,096
-66,651	391,117	0,110	0,166
-65,636	-200,000	-0,001	-0,031
-64,622	-92,863	0,084	-0,017
-63,607	-200,000	-0,013	-0,152
-62,592	-134,678	0,110	0,010
-61,578	190,483	0,107	-0,116
-60,563	-147,033	0,088	-0,005
-59,549	-200,000	-0,011	0,130
-58,534	-56,365	-1,503	-0,479
-57,519	800,000	-0,516	-1,159
-56,505	-200,000	-1,009	-4,604
-55,490	-98,991	0,690	0,125
-54,476	800,000	5,102	11,709
-53,461	-200,000	15,359	270,176
-52,446	-200,000	698,090	2232,603
-51,432	569,611	1615,623	2847,428
-50,417	121,065	1622,401	1457,322
-49,403	81,481	1281,026	998,971
-48,388	37,244	1022,852	652,627
-47,373	22,040	984,114	577,968
-46,359	21,075	972,989	568,253
-45,344	19,491	968,738	560,578
-44,330	19,575	967,391	560,048
-43,315	19,280	965,989	558,252
-42,300	19,272	964,711	557,468
-41,286	19,287	963,794	556,964
-40,271	19,184	963,034	556,168
-39,257	19,263	962,062	555,839
-38,242	19,241	961,205	555,251
-37,227	19,288	960,225	554,816
-36,213	19,218	959,744	554,291
-35,198	19,167	958,808	553,562
-34,184	19,262	957,918	553,333
-33,169	19,201	957,111	552,647
-32,154	19,242	956,161	552,211
-31,140	19,257	955,286	551,731
-30,125	19,235	954,640	551,266
-29,111	19,227	953,678	550,661
-28,096	19,297	952,989	550,467
-27,082	19,217	952,612	549,971
-26,067	19,233	951,689	549,468
-25,052	19,244	950,739	548,934
-24,038	19,237	950,137	548,542
-23,023	19,177	949,664	548,055
-22,009	19,262	949,001	547,922
-20,994	19,297	948,278	547,594
-19,979	19,251	947,653	547,065
-18,965	19,231	947,081	546,649
-17,950	19,247	946,416	546,294
-16,936	19,142	945,756	545,556
-15,921	19,119	945,400	545,255
-14,906	19,146	944,453	544,773
-13,892	19,148	943,708	544,330
-12,877	19,157	943,116	543,994
-11,863	19,029	942,569	543,253
-10,848	19,175	941,896	543,304
-9,833	19,204	941,506	543,149
-8,819	19,201	940,926	542,785
-7,804	19,168	940,281	542,286
-6,790	19,195	939,582	541,946
-5,775	19,081	939,248	541,372
-4,760	19,183	938,609	541,304
-3,746	19,170	937,764	540,756
-2,731	18,982	937,238	539,836
-1,717	18,915	936,400	539,123
-0,702	18,968	935,675	538,852
0,313	18,770	935,129	538,725
1,327	21,199	932,975	545,073
2,342	28,535	807,393	491,519
3,356	23,475	508,240	300,765
4,371	0,680	376,221	193,519
5,386	-1,829	359,378	181,749
6,400	-3,210	353,042	176,855
7,415	-4,154	350,181	174,272
8,429	-4,447	348,701	173,169
9,444	-4,548	347,823	172,597
10,459	-4,531	347,150	172,268
11,473	-4,539	346,388	171,865
12,488	-4,357	345,832	171,790
13,502	-4,397	345,288	171,457
14,517	-4,632	344,946	170,994
15,531	-4,873	344,155	170,302
16,546	-5,027	343,658	169,859
17,561	-5,095	343,312	169,593
18,575	-5,053	343,026	169,486
19,590	-5,171	342,446	169,045
20,604	-5,163	342,331	168,983
21,619	-5,212	341,716	168,607
22,634	-5,139	341,360	168,501
23,648	-5,158	340,920	168,247
24,663	-5,068	340,724	168,241
25,677	-5,015	340,288	168,072
26,692	-5,148	340,102	167,811
27,707	-5,193	339,778	167,583
28,721	-5,119	339,277	167,407
29,736	-5,108	338,854	167,196
30,750	-5,132	338,824	167,138
31,765	-5,222	338,528	166,874
32,780	-5,215	338,290	166,750
33,794	-5,220	337,894	166,533
34,809	-5,093	337,574	166,508
35,823	-5,104	337,238	166,315
36,838	-5,279	337,157	166,058
37,853	-5,224	336,678	165,870
38,867	-5,153	336,533	165,866
39,882	-5,315	336,285	165,542
40,896	-5,204	336,027	165,529
41,911	-5,223	335,606	165,284
42,926	-5,338	335,296	164,984
43,940	-5,296	334,956	164,851
44,955	-5,215	334,740	164,823
45,969	-5,281	334,445	164,587
46,984	-5,340	334,231	164,399
47,999	-5,507	333,915	164,038
49,013	-5,728	333,711	163,672
50,028	-5,702	333,365	163,517
51,042	-5,826	333,012	163,188
52,057	-5,599	332,673	163,266
53,071	-5,812	332,517	162,932
54,086	-5,707	332,273	162,918
55,101	-5,661	331,972	162,808
56,115	-5,420	331,845	163,004
57,130	-5,151	331,720	163,233
58,144	-4,969	331,566	163,349
59,159	-4,958	331,262	163,197
60,174	-5,104	331,144	162,960
61,188	-4,948	330,703	162,904
62,203	-4,962	330,501	162,775
63,217	-4,944	330,164	162,615
64,232	-5,009	330,080	162,486
65,247	-4,928	329,838	162,443
66,261	-4,916	329,422	162,237
67,276	-5,365	329,104	161,562
68,290	-5,377	328,792	161,380
69,305	-5,267	328,640	161,415
70,320	-5,404	328,332	161,095
71,334	-5,247	328,172	161,179
72,349	-4,724	327,730	161,532
73,363	-4,827	327,527	161,302
74,378	-4,927	327,420	161,124
75,393	-4,881	327,027	160,967
76,407	-5,141	326,896	160,598
77,422	-5,094	326,815	160,597
78,436	-4,972	326,404	160,517
79,451	-4,933	326,044	160,368
80,466	-5,183	325,670	159,892
81,480	-5,285	325,446	159,655
82,495	-5,403	325,294	159,435
83,509	-5,324	324,941	159,335
84,524	-5,323	324,690	159,199
85,539	-5,322	324,456	159,071
86,553	-5,369	324,167	158,864
87,568	-5,337	323,986	158,795
88,582	-5,302	323,748	158,704
89,597	-5,372	323,619	158,549
90,611	-5,370	323,434	158,446
91,626	-5,155	323,147	158,529
92,641	-5,133	323,011	158,471
93,655	-5,240	322,721	158,198
94,670	-5,275	322,417	157,996
95,684	-5,151	322,101	157,964
96,699	-5,276	321,955	157,741
97,714	-5,264	321,761	157,644
98,728	-5,394	321,374	157,299
99,743	-5,441	321,164	157,131
100,757	-5,328	320,811	157,067
101,772	-5,311	320,701	157,018
102,787	-5,239	320,421	156,945
103,801	-5,152	320,219	156,928
104,816	-4,970	320,085	157,047
105,830	-5,176	319,818	156,676
106,845	-5,075	319,700	156,715
107,860	-5,084	319,361	156,525
108,874	-4,939	319,120	156,550
109,889	-5,097	318,865	156,240
110,903	-4,998	318,641	156,224
111,918	-5,189	318,523	155,945
112,933	-5,287	318,269	155,700
113,947	-4,984	317,900	155,834
114,962	-5,035	317,802	155,716
115,976	-5,121	317,624	155,523
116,991	-5,165	317,336	155,320
118,006	-5,183	317,117	155,180
119,020	-4,882	316,940	155,403
120,035	-4,905	316,751	155,273
121,049	-5,052	316,605	155,029
122,064	-5,035	316,342	154,904
123,079	-5,166	316,089	154,625
124,093	-5,219	315,888	154,457
125,108	-5,216	315,560	154,286
126,122	-5,425	315,204	153,874
127,137	-5,534	314,971	153,630
128,151	-5,363	314,716	153,675
129,166	-5,239	314,497	153,686
130,181	-5,406	314,383	153,438
131,195	-5,442	314,074	153,236
132,210	-5,379	313,966	153,237
133,224	-5,090	313,682	153,393
134,239	-4,988	313,427	153,362
135,254	-5,006	313,265	153,251
136,268	-5,259	313,016	152,847
137,283	-5,351	312,702	152,582
138,297	-5,229	312,320	152,512
139,312	-5,510	312,210	152,146
140,327	-5,235	312,226	152,431
141,341	-5,045	312,115	152,565
142,356	-4,673	311,848	152,815
143,370	-4,649	311,685	152,747
144,385	-4,784	311,459	152,480
145,400	-4,744	311,197	152,379
146,414	-4,684	310,987	152,327
147,429	-4,720	310,608	152,090
148,443	-4,921	310,547	151,835
149,458	-4,815	310,336	151,829
150,473	-4,685	310,075	151,824
151,487	-4,708	310,036	151,768
152,502	-4,779	309,683	151,508
153,516	-4,680	309,397	151,457
154,531	-4,718	309,170	151,294
155,546	-4,772	309,001	151,140
156,560	-4,911	308,735	150,851
157,575	-4,958	308,542	150,695
158,589	-4,827	308,302	150,701
159,604	-4,821	308,070	150,580
160,619	-4,652	307,958	150,688
161,633	-4,757	307,636	150,408
162,648	-4,699	307,621	150,447
163,662	-4,859	307,286	150,104
164,677	-4,828	307,187	150,074
165,692	-4,705	306,963	150,079
166,706	-4,797	306,832	149,906
167,721	-4,778	306,606	149,802
168,735	-4,771	306,449	149,720
169,750	-4,520	306,223	149,856
170,764	-4,548	305,969	149,690
171,779	-4,704	305,907	149,484
172,794	-4,547	305,601	149,483
173,808	-4,769	305,217	149,052
174,823	-5,051	304,980	148,633
175,837	-5,219	304,607	148,264
176,852	-4,837	304,663	148,672
177,867	-4,752	304,706	148,768
178,881	-4,663	304,448	148,721
179,896	-4,648	304,139	148,572
180,910	-4,669	303,956	148,447
181,925	-4,626	303,751	148,379
182,940	-4,774	303,658	148,167
183,954	-4,590	303,292	148,164
184,969	-4,688	303,271	148,040
185,983	-4,514	303,088	148,116
186,998	-4,753	302,949	147,790
188,013	-4,613	302,626	147,763
189,027	-4,610	302,314	147,601
190,042	-4,620	302,155	147,499
191,056	-4,542	301,980	147,480
192,071	-4,422	301,789	147,496
193,086	-4,374	301,525	147,403
194,100	-4,254	301,295	147,399
195,115	-4,620	301,127	146,932
196,129	-4,493	300,911	146,942
197,144	-4,548	300,754	146,797
198,159	-4,520	300,465	146,671
199,173	-4,321	300,320	146,789
200,188	-4,394	300,066	146,577
201,202	-4,641	299,767	146,168
202,217	-5,149	299,514	145,519
203,232	-5,137	299,151	145,341
204,246	-4,870	299,202	145,623
205,261	-4,692	299,062	145,721
206,275	-4,508	298,787	145,760
207,290	-4,619	298,642	145,564
208,304	-4,597	298,317	145,415
209,319	-4,506	298,215	145,444
210,334	-4,514	297,948	145,293
211,348	-4,654	297,776	145,056
212,363	-4,410	297,627	145,214
213,377	-4,574	297,388	144,920
214,392	-4,684	297,109	144,661
215,407	-4,960	296,956	144,297
216,421	-4,914	296,600	144,158
217,436	-5,002	296,579	144,047
218,450	-4,915	296,433	144,050
219,465	-4,679	296,126	144,124
220,480	-4,709	296,161	144,098
221,494	-4,606	295,792	144,008
222,509	-4,704	295,659	143,833
223,523	-4,641	295,479	143,795
224,538	-4,347	295,219	143,948
225,553	-4,628	295,044	143,570
226,567	-4,570	294,993	143,591
227,582	-4,396	294,795	143,654
228,596	-4,410	294,646	143,555
229,611	-4,446	294,490	143,430
230,626	-4,504	294,239	143,238
231,640	-5,035	293,893	142,531
232,655	-5,098	293,521	142,276
233,669	-4,957	293,005	142,152
234,684	-5,101	293,082	142,035
235,699	-5,045	293,018	142,046
236,713	-5,021	292,888	141,994
237,728	-4,943	292,572	141,906
238,742	-4,686	292,435	142,079
239,757	-4,672	292,426	142,076
240,772	-4,718	292,260	141,937
241,786	-4,651	292,011	141,870
242,801	-4,841	291,919	141,626
243,815	-4,643	291,650	141,677
244,830	-4,676	291,525	141,571
245,844	-4,948	291,212	141,140
246,859	-4,642	291,104	141,375
247,874	-4,850	290,874	141,047
248,888	-4,748	290,687	141,043
249,903	-4,483	290,629	141,261
250,917	-4,480	290,436	141,158
251,932	-4,256	290,350	141,322
252,947	-3,545	290,400	142,028
253,961	-3,697	290,082	141,712
254,976	-2,927	290,683	142,743
255,990	-0,541	291,280	145,356
257,005	-0,093	291,305	145,792
258,020	1,337	291,826	147,438
259,034	2,038	291,707	148,049
260,049	1,895	291,439	147,760
261,063	1,742	291,088	147,420
262,078	1,950	291,202	147,667
263,093	2,764	291,247	148,469
264,107	2,715	291,011	148,288
265,122	2,776	290,842	148,248
266,136	2,828	290,675	148,200
267,151	2,612	290,393	147,833
268,166	2,513	290,399	147,728
269,180	2,500	290,123	147,561
270,195	2,602	289,984	147,576
271,209	2,600	289,778	147,456
272,224	2,586	289,392	147,233
273,239	2,487	289,257	147,056
274,253	2,472	289,107	146,952
275,268	2,696	288,913	147,056
276,282	2,470	288,819	146,778
277,297	2,243	288,525	146,396
278,312	2,523	288,478	146,629
279,326	2,638	288,188	146,579
280,341	2,836	288,054	146,688
281,355	2,668	287,778	146,373
282,370	2,711	287,704	146,364
283,384	2,706	287,572	146,279
284,399	2,584	287,313	146,017
285,414	2,626	287,169	145,971
286,428	2,649	286,951	145,870
287,443	2,330	286,637	145,392
288,457	2,246	286,540	145,249
289,472	2,245	286,261	145,094
290,487	2,239	286,155	145,022
291,501	2,165	285,832	144,774
292,516	1,996	285,630	144,498
293,530	2,230	285,452	144,618
294,545	2,194	285,593	144,642
295,560	2,536	285,190	144,750
296,574	2,311	284,910	144,382
297,589	2,461	284,923	144,518
298,603	2,542	284,872	144,556
299,618	2,664	284,517	144,479
300,633	2,530	284,319	144,238
301,647	2,633	284,182	144,253
302,662	2,578	284,000	144,096
303,676	2,283	283,726	143,666
304,691	2,017	283,405	143,238
305,706	1,754	283,187	142,868
306,720	1,755	282,992	142,757
307,735	1,712	282,756	142,585
308,749	1,905	282,717	142,735
309,764	2,180	282,367	142,804
310,779	1,958	282,164	142,481
311,793	1,770	281,937	142,177
312,808	1,726	281,940	142,123
313,822	1,850	281,726	142,119
314,837	1,880	281,390	141,965
315,852	1,681	281,213	141,677
316,866	1,661	281,116	141,596
317,881	1,786	281,037	141,661
318,895	1,706	280,830	141,470
319,910	1,642	280,651	141,307
320,925	1,752	280,326	141,234
321,939	1,639	280,314	141,110
322,954	1,951	279,994	141,226
323,968	2,083	280,003	141,342
324,983	2,246	279,832	141,394
325,997	2,318	279,572	141,317
327,012	2,022	279,565	141,025
328,027	2,090	279,314	140,949
329,041	1,764	279,172	140,562
330,056	1,814	279,015	140,517
331,070	1,856	278,715	140,393
332,085	1,899	278,718	140,422
333,100	1,980	278,280	140,264
334,114	1,848	278,085	140,031
335,129	1,931	277,840	139,971
336,143	2,134	277,863	140,158
337,158	2,263	277,874	140,270
338,173	2,064	277,468	139,869
339,187	2,061	277,224	139,732
340,202	2,219	277,071	139,787
341,216	2,219	277,021	139,749
342,231	2,061	276,839	139,499
343,246	2,074	276,705	139,432
344,260	1,873	276,539	139,151
345,275	2,284	276,394	139,443
346,289	2,428	276,300	139,515
347,304	2,699	275,950	139,574
348,319	2,168	275,705	138,951
349,333	2,296	275,589	138,997
350,348	2,460	275,512	139,097
351,362	2,556	275,196	139,013
352,377	2,429	275,166	138,869
353,392	2,476	275,099	138,865
354,406	2,573	274,867	138,825
355,421	191,804	1328,507	1401,766
356,435	155,058	1456,920	1401,833
