DTS Sentinel unit serial number:	SN410029Multiplexer serial number:	ORYXHardware model number:	OX2-SRSoftware version number:	ORYX F/W v4,00 Oryx Data Collector v3.7.2.0data status	okinstallation	B4 Nyhavnadifferential loss correction	single-endedforward channel	channel 2reverse channel	N/Adate	2023/12/16time	04:15:13forward acquisition time	300,00reverse acquisition time	0,00gamma	499,1914k internal	0,3128k external	0,3128temperature offset calibration	1,0000default loss term (dB/km)	0,3820temperature slope calibration	1,0000multiplexer offset coefficient	1,0000multiplexer slope coefficient	1,0000fibre end	0,00T internal ref (°C)	22,00T ext. ref 1 (°C)	7,13T ext. ref 2 (°C)	7,31length (m)	temperature (°C)	Stokes	anti-Stokes-744,400	-3,710	-0,062	0,032
-743,385	88,386	-0,194	0,160
-742,371	145,730	0,096	0,096
-741,356	241,219	-0,087	0,108
-740,342	242,940	-0,088	-0,110
-739,327	2,925	-0,130	0,070
-738,312	-146,184	-0,092	0,006
-737,298	-88,593	-0,147	-0,032
-736,283	-200,000	0,019	0,101
-735,269	120,166	-0,141	0,130
-734,254	-28,505	-0,014	0,006
-733,239	-115,683	-0,446	0,062
-732,225	292,201	0,050	0,068
-731,210	-83,284	0,189	-0,045
-730,196	142,483	-0,047	-0,047
-729,181	387,816	0,060	-0,093
-728,167	-200,000	0,017	0,082
-727,152	-20,493	-0,076	0,035
-726,137	-11,112	-0,090	-0,044
-725,123	10,554	-0,069	-0,039
-724,108	-142,428	-0,161	-0,012
-723,094	98,830	-0,119	-0,102
-722,079	54,653	-0,021	0,015
-721,064	202,795	-0,053	-0,061
-720,050	353,439	-0,068	-0,100
-719,035	-145,977	0,059	-0,004
-718,021	797,799	-0,017	0,035
-717,006	800,000	0,028	-0,058
-715,991	368,843	-0,077	-0,117
-714,977	160,292	-0,090	-0,094
-713,962	-200,000	-0,001	-0,006
-712,948	-200,000	-0,003	-0,058
-711,933	-136,382	-0,046	-0,004
-710,918	-17,000	-0,174	0,081
-709,904	-98,063	-0,064	0,012
-708,889	16,885	-0,119	-0,070
-707,875	-17,009	-0,087	-0,041
-706,860	-200,000	-0,006	-0,040
-705,845	45,916	-0,021	0,015
-704,831	24,815	0,014	-0,009
-703,816	800,000	-0,042	0,116
-702,802	414,391	-0,045	0,071
-701,787	-200,000	-0,005	-0,095
-700,772	-135,850	-0,050	-0,004
-699,758	561,189	-0,031	0,056
-698,743	-200,000	0,021	0,080
-697,729	-69,354	-0,049	0,014
-696,714	306,330	0,055	0,076
-695,699	64,021	0,057	0,042
-694,685	44,682	-0,067	-0,045
-693,670	-200,000	-0,032	-0,201
-692,656	177,265	0,066	0,071
-691,641	800,000	0,006	-0,019
-690,627	-173,081	0,132	-0,003
-689,612	-39,240	-0,120	-0,047
-688,597	220,051	0,059	0,070
-687,583	-41,269	-0,100	-0,038
-686,568	-76,692	0,115	-0,030
-685,554	-194,457	0,064	-0,000
-684,539	329,409	-0,067	0,096
-683,524	16,913	-0,132	0,077
-682,510	-150,730	0,079	0,004
-681,495	517,677	0,033	-0,057
-680,481	42,593	0,118	0,079
-679,466	65,342	-0,208	-0,156
-678,451	291,654	0,028	0,038
-677,437	-84,557	-0,090	-0,021
-676,422	-72,708	0,098	-0,027
-675,408	154,241	-0,101	0,103
-674,393	20,424	0,059	0,035
-673,378	-92,617	-0,110	0,023
-672,364	47,550	-0,083	-0,058
-671,349	-85,246	0,077	-0,018
-670,335	50,754	0,014	-0,010
-669,320	389,357	-0,067	0,103
-668,305	-200,000	-0,001	-0,024
-667,291	177,608	0,049	0,053
-666,276	-29,477	-0,080	0,034
-665,262	-53,265	-0,061	-0,021
-664,247	-28,983	0,071	-0,030
-663,232	386,248	-0,036	-0,055
-662,218	-100,685	0,034	-0,006
-661,203	-55,584	0,042	0,014
-660,189	800,000	0,005	-0,013
-659,174	-200,000	-0,000	0,013
-658,159	-200,000	-0,018	-0,136
-657,145	-134,032	0,030	-0,003
-656,130	213,584	-0,104	0,122
-655,116	800,000	0,031	0,095
-654,101	276,553	0,086	-0,113
-653,086	-114,372	-0,021	0,003
-652,072	74,250	0,027	0,021
-651,057	-200,000	0,001	-0,010
-650,043	-139,197	-0,053	0,004
-649,028	17,514	0,085	0,050
-648,014	500,688	-0,035	0,060
-646,999	-79,187	0,144	-0,036
-645,984	146,675	0,051	0,051
-644,970	-1,134	-0,078	-0,041
-643,955	38,049	-0,105	-0,069
-642,941	625,876	-0,036	-0,068
-641,926	52,489	0,135	-0,095
-640,911	187,870	-0,106	-0,118
-639,897	-127,168	0,131	0,014
-638,882	544,195	-0,064	0,113
-637,868	-23,158	-0,105	-0,047
-636,853	95,371	-0,061	0,052
-635,838	800,000	-0,082	-0,227
-634,824	-2,582	0,033	-0,017
-633,809	-200,000	-0,013	-0,077
-632,795	-200,000	-0,047	0,184
-631,780	64,239	-0,117	0,088
-630,765	-90,336	-0,046	-0,010
-629,751	-60,171	-0,092	-0,029
-628,736	-146,200	-0,109	0,007
-627,722	-171,050	0,041	-0,001
-626,707	-200,000	0,008	0,087
-625,692	-15,428	-0,022	0,010
-624,678	800,000	0,069	-0,176
-623,663	301,120	-0,114	0,156
-622,649	101,679	-0,070	0,061
-621,634	800,000	-0,040	-0,104
-620,619	684,326	-0,051	-0,100
-619,605	-200,000	-0,004	-0,028
-618,590	-48,983	-0,032	0,011
-617,576	34,283	-0,134	0,087
-616,561	234,345	-0,072	0,088
-615,546	99,246	0,080	0,069
-614,532	235,883	-0,115	-0,141
-613,517	-132,612	0,143	-0,013
-612,503	800,000	-0,011	0,025
-611,488	-200,000	-0,002	-0,027
-610,474	150,673	-0,046	-0,046
-609,459	102,578	-0,041	-0,036
-608,444	-8,647	-0,087	-0,043
-607,430	342,065	-0,053	-0,077
-606,415	800,000	0,023	0,070
-605,401	-200,000	-0,002	0,055
-604,386	402,470	0,016	0,025
-603,371	-48,804	0,060	-0,021
-602,357	800,000	-0,046	0,102
-601,342	-14,016	-0,077	-0,037
-600,328	705,604	0,038	0,074
-599,313	-200,000	-0,016	-0,124
-598,298	-200,000	-0,050	-0,190
-597,284	-21,861	0,061	0,027
-596,269	-23,864	0,076	-0,033
-595,255	-37,421	0,072	0,028
-594,240	-200,000	0,006	0,032
-593,225	154,394	-0,064	0,065
-592,211	-106,537	-0,053	0,009
-591,196	-200,000	0,045	0,152
-590,182	800,000	0,003	0,008
-589,167	324,505	0,143	0,202
-588,152	800,000	0,050	0,159
-587,138	-13,861	-0,100	0,047
-586,123	107,278	0,028	0,024
-585,109	800,000	-0,065	-0,169
-584,094	167,606	0,004	-0,004
-583,079	-200,000	-0,017	0,102
-582,065	-24,229	0,157	0,069
-581,050	-200,000	0,025	0,134
-580,036	-62,691	-0,094	0,029
-579,021	-114,220	0,059	-0,008
-578,006	-66,892	0,044	-0,013
-576,992	-200,000	0,015	0,058
-575,977	141,309	0,045	0,044
-574,963	-200,000	0,007	-0,032
-573,948	-200,000	0,079	0,275
-572,934	11,110	-0,082	0,046
-571,919	-200,000	0,010	-0,036
-570,904	790,112	-0,057	-0,116
-569,890	-200,000	-0,023	0,087
-568,875	786,033	0,050	-0,102
-567,861	-170,285	0,103	-0,003
-566,846	43,214	0,138	0,093
-565,831	-143,773	-0,027	-0,002
-564,817	17,816	-0,079	-0,046
-563,802	800,000	-0,104	-0,213
-562,788	-200,000	-0,043	-0,151
-561,773	175,542	-0,061	-0,065
-560,758	-142,242	-0,061	0,004
-559,744	-174,589	-0,086	-0,002
-558,729	-200,000	0,016	-0,075
-557,715	-126,317	0,087	0,009
-556,700	800,000	0,039	-0,096
-555,685	362,853	0,052	-0,078
-554,671	-43,733	0,018	-0,007
-553,656	66,983	-0,196	0,147
-552,642	-200,000	0,018	0,064
-551,627	800,000	0,067	0,149
-550,612	119,458	-0,058	-0,053
-549,598	286,257	-0,046	0,061
-548,583	-73,423	0,038	-0,010
-547,569	304,895	0,038	0,052
-546,554	-80,706	0,075	0,018
-545,539	-200,000	-0,021	0,105
-544,525	-200,000	0,029	0,105
-543,510	508,760	-0,082	-0,142
-542,496	487,170	0,056	-0,094
-541,481	800,000	0,048	-0,120
-540,466	-30,176	-0,173	-0,072
-539,452	-200,000	0,027	0,154
-538,437	-51,324	0,038	0,013
-537,423	-96,175	0,013	0,002
-536,408	-20,246	0,047	-0,021
-535,393	382,651	-0,048	-0,073
-534,379	-200,000	-0,017	0,084
-533,364	-180,987	-0,079	0,001
-532,350	800,000	-0,040	0,088
-531,335	298,089	-0,034	-0,046
-530,321	-13,434	-0,076	0,036
-529,306	-153,959	0,071	0,004
-528,291	323,563	-0,055	-0,078
-527,277	601,890	0,067	0,124
-526,262	33,684	-0,145	0,093
-525,248	-200,000	-0,012	0,052
-524,233	-7,351	0,082	0,041
-523,218	109,973	0,080	0,071
-522,204	-54,741	0,054	-0,018
-521,189	-84,167	-0,074	0,017
-520,175	-200,000	-0,008	0,081
-519,160	-87,536	-0,020	-0,004
-518,145	137,665	0,130	0,126
-517,131	-200,000	0,014	0,192
-516,116	431,507	0,081	0,129
-515,102	336,013	-0,048	0,069
-514,087	-33,723	-0,040	-0,016
-513,072	-46,785	-0,105	-0,038
-512,058	52,172	0,067	0,047
-511,043	800,000	-0,011	-0,025
-510,029	-178,553	0,054	-0,001
-509,014	-41,161	0,129	0,049
-507,999	-200,000	-0,019	-0,073
-506,985	800,000	-0,026	0,059
-505,970	63,138	-0,050	0,037
-504,956	800,000	-0,015	0,040
-503,941	-4,379	0,064	-0,033
-502,926	142,155	0,131	-0,128
-501,912	119,298	0,012	0,011
-500,897	-200,000	-0,004	0,061
-499,883	169,997	-0,052	0,055
-498,868	-69,529	-0,089	-0,025
-497,853	-74,483	0,017	-0,004
-496,839	63,566	-0,020	-0,015
-495,824	-200,000	0,004	-0,032
-494,810	4,146	0,065	-0,035
-493,795	44,972	0,071	0,048
-492,781	541,292	0,042	0,075
-491,766	-200,000	-0,016	0,097
-490,751	-147,776	-0,067	0,004
-489,737	800,000	-0,014	0,033
-488,722	-200,000	-0,030	-0,110
-487,708	766,547	-0,065	0,131
-486,693	-30,579	-0,055	-0,023
-485,678	-200,000	-0,014	0,112
-484,664	-88,559	-0,068	-0,015
-483,649	-55,104	0,038	-0,013
-482,635	33,361	-0,052	0,033
-481,620	-129,143	0,048	0,005
-480,605	122,387	0,137	0,126
-479,591	696,582	0,070	0,136
-478,576	-10,626	-0,092	0,045
-477,562	426,603	0,039	0,062
-476,547	79,451	-0,094	-0,075
-475,532	800,000	0,039	-0,102
-474,518	-43,012	0,161	0,060
-473,503	-2,213	0,104	0,054
-472,489	-200,000	0,018	-0,088
-471,474	-42,565	0,046	0,017
-470,459	-102,733	-0,115	0,020
-469,445	-34,532	-0,084	-0,034
-468,430	-200,000	-0,004	-0,057
-467,416	171,801	-0,078	-0,083
-466,401	-149,106	0,060	-0,003
-465,386	66,031	-0,098	0,073
-464,372	-200,000	0,002	-0,015
-463,357	-200,000	0,040	0,135
-462,343	-120,613	-0,088	0,011
-461,328	-170,258	-0,104	-0,003
-460,313	241,146	-0,092	-0,114
-459,299	589,113	0,095	-0,174
-458,284	-200,000	-0,001	0,073
-457,270	-56,283	-0,074	-0,024
-456,255	28,791	-0,071	-0,044
-455,241	-72,434	-0,089	0,024
-454,226	-77,075	-0,068	-0,017
-453,211	76,436	0,142	0,111
-452,197	-38,853	0,079	-0,031
-451,182	571,365	-0,022	0,040
-450,168	-200,000	-0,029	0,119
-449,153	800,000	-0,076	-0,174
-448,138	139,956	-0,073	-0,071
-447,124	258,775	0,010	-0,013
-446,109	-31,546	-0,113	0,046
-445,095	617,427	-0,052	0,096
-444,080	703,526	0,038	0,074
-443,065	-200,000	-0,019	-0,135
-442,051	800,000	0,030	-0,067
-441,036	107,344	-0,180	-0,158
-440,022	-200,000	-0,024	-0,102
-439,007	-200,000	0,012	0,067
-437,992	100,014	0,056	-0,047
-436,978	409,064	-0,040	-0,063
-435,963	6,524	0,032	0,018
-434,949	800,000	-0,025	0,059
-433,934	90,075	0,028	-0,023
-432,919	-103,427	0,031	-0,005
-431,905	84,557	0,074	-0,060
-430,890	-200,000	0,017	0,070
-429,876	-38,503	0,096	0,037
-428,861	16,824	0,097	-0,056
-427,846	447,784	0,052	-0,085
-426,832	503,788	-0,051	0,087
-425,817	-75,992	0,047	-0,012
-424,803	-16,565	0,089	0,041
-423,788	217,620	-0,085	0,100
-422,773	378,513	-0,009	0,014
-421,759	-200,000	-0,030	-0,100
-420,744	145,560	0,084	-0,083
-419,730	-112,764	-0,063	-0,009
-418,715	-133,643	-0,036	0,003
-417,701	-1,479	-0,131	-0,068
-416,686	267,473	-0,040	-0,051
-415,671	-105,407	0,042	0,007
-414,657	-200,000	0,033	0,145
-413,642	-36,884	0,022	0,008
-412,628	800,000	-0,030	-0,083
-411,613	113,030	-0,079	-0,070
-410,598	800,000	-0,039	-0,095
-409,584	-200,000	-0,015	0,052
-408,569	-38,467	0,109	0,042
-407,555	-125,782	-0,057	0,006
-406,540	282,327	0,048	0,064
-405,525	132,023	0,030	-0,028
-404,511	101,344	-0,032	0,027
-403,496	800,000	0,024	-0,073
-402,482	187,557	-0,060	-0,066
-401,467	76,664	0,034	0,027
-400,452	583,074	-0,032	-0,058
-399,438	800,000	0,034	-0,091
-398,423	96,364	0,035	0,029
-397,409	-200,000	0,012	0,045
-396,394	-172,124	-0,123	-0,003
-395,379	13,861	0,034	0,019
-394,365	-200,000	0,008	0,056
-393,350	800,000	-0,060	0,172
-392,336	430,633	-0,062	0,099
-391,321	-200,000	0,006	0,112
-390,306	-200,000	-0,004	-0,059
-389,292	-126,276	0,200	0,022
-388,277	-60,713	0,033	-0,010
-387,263	-68,869	0,087	-0,024
-386,248	-48,145	0,130	-0,046
-385,233	-200,000	0,012	-0,103
-384,219	55,342	0,057	-0,040
-383,204	435,304	-0,034	0,055
-382,190	-200,000	0,027	-0,110
-381,175	260,333	0,097	-0,123
-380,160	-200,000	-0,022	0,108
-379,146	-6,458	0,042	0,021
-378,131	524,401	0,012	-0,022
-377,117	13,862	0,130	0,074
-376,102	800,000	0,016	0,051
-375,088	800,000	-0,038	-0,113
-374,073	-200,000	-0,010	-0,094
-373,058	394,309	0,087	-0,133
-372,044	13,416	0,112	-0,064
-371,029	-49,942	-0,081	-0,028
-370,015	-200,000	-0,020	-0,068
-369,000	29,680	-0,135	0,084
-367,985	800,000	-0,044	-0,095
-366,971	128,764	-0,044	-0,041
-365,956	-130,573	0,050	0,005
-364,942	65,307	0,085	0,063
-363,927	-48,247	-0,149	-0,052
-362,912	196,517	0,072	-0,080
-361,898	-200,000	-0,091	0,000
-360,883	11,907	-0,130	-0,073
-359,869	800,000	-0,012	0,035
-358,854	45,975	0,136	-0,092
-357,839	141,993	0,045	0,044
-356,825	800,000	0,008	-0,016
-355,810	8,984	0,120	0,066
-354,796	-38,662	-0,094	0,036
-353,781	-200,000	-0,020	-0,153
-352,766	-137,256	0,068	-0,006
-351,752	104,649	0,091	0,079
-350,737	-200,000	0,011	0,168
-349,723	119,950	0,087	0,079
-348,708	-172,250	-0,031	0,001
-347,693	156,657	0,128	-0,130
-346,679	-200,000	0,013	-0,053
-345,664	70,435	-0,043	-0,033
-344,650	-200,000	-0,004	-0,137
-343,635	-69,777	0,031	0,009
-342,620	339,722	0,060	0,086
-341,606	-70,144	-0,009	-0,002
-340,591	-84,273	0,060	0,014
-339,577	800,000	-0,036	0,081
-338,562	105,412	-0,046	0,039
-337,548	245,904	-0,022	0,027
-336,533	-200,000	0,005	0,099
-335,518	10,639	0,078	0,043
-334,504	560,538	-0,056	0,100
-333,489	-200,000	-0,022	0,096
-332,475	216,412	-0,050	-0,058
-331,460	447,765	-0,042	0,068
-330,445	800,000	0,045	0,091
-329,431	2,352	0,120	-0,064
-328,416	125,523	0,063	0,058
-327,402	-149,324	0,144	0,008
-326,387	-200,000	0,015	0,059
-325,372	480,671	0,048	-0,079
-324,358	-48,459	-0,034	0,012
-323,343	-85,438	0,010	-0,002
-322,329	787,013	0,044	-0,088
-321,314	-103,820	0,149	0,025
-320,299	800,000	-0,007	-0,020
-319,285	339,270	-0,026	0,037
-318,270	392,673	0,029	-0,044
-317,256	-200,000	-0,099	0,000
-316,241	800,000	-0,008	0,019
-315,226	117,318	0,064	0,058
-314,212	800,000	-0,030	0,090
-313,197	-100,520	-0,031	0,006
-312,183	800,000	0,027	-0,082
-311,168	-200,000	-0,034	0,146
-310,153	414,640	-0,029	0,046
-309,139	-200,000	0,008	-0,083
-308,124	-96,074	-0,115	0,022
-307,110	-200,000	0,021	0,158
-306,095	-200,000	-0,008	-0,041
-305,080	800,000	0,043	0,112
-304,066	17,332	-0,075	0,043
-303,051	24,626	0,060	-0,037
-302,037	440,938	-0,010	-0,016
-301,022	136,030	0,090	-0,086
-300,008	148,215	-0,010	-0,010
-298,993	800,000	0,006	-0,015
-297,978	382,647	-0,029	0,044
-296,964	-200,000	0,001	-0,032
-295,949	800,000	0,025	0,061
-294,935	111,069	-0,035	0,031
-293,920	-200,000	0,028	-0,172
-292,905	23,928	0,109	0,066
-291,891	-78,697	-0,025	-0,006
-290,876	-200,000	0,020	-0,116
-289,862	800,000	-0,063	0,130
-288,847	-200,000	0,023	-0,134
-287,832	-200,000	-0,005	0,045
-286,818	-200,000	0,008	-0,151
-285,803	170,490	0,043	-0,045
-284,789	172,265	-0,040	-0,042
-283,774	-132,250	0,195	-0,018
-282,759	-78,277	-0,041	-0,010
-281,745	314,943	-0,035	0,049
-280,730	-7,689	-0,084	-0,041
-279,716	-200,000	0,004	0,017
-278,701	-200,000	-0,001	0,028
-277,686	94,503	-0,013	-0,011
-276,672	230,939	-0,118	-0,141
-275,657	253,341	0,069	-0,086
-274,643	800,000	-0,028	-0,085
-273,628	-132,839	-0,123	0,011
-272,613	270,150	0,108	0,139
-271,599	173,844	0,064	0,068
-270,584	248,441	0,034	-0,042
-269,570	7,925	-0,068	-0,037
-268,555	-8,137	-0,066	0,032
-267,540	-200,000	0,005	0,025
-266,526	-200,000	-0,040	-0,149
-265,511	317,248	0,019	-0,026
-264,497	-62,217	-0,099	-0,030
-263,482	92,173	-0,066	0,054
-262,467	-117,836	0,046	0,006
-261,453	-71,277	0,068	-0,018
-260,438	-200,000	0,018	-0,074
-259,424	800,000	-0,069	0,167
-258,409	-43,393	0,135	0,050
-257,395	-48,800	-0,091	0,032
-256,380	-200,000	0,037	0,150
-255,365	101,715	0,072	0,061
-254,351	-52,458	-0,147	0,050
-253,336	11,307	0,021	-0,012
-252,322	-200,000	0,010	0,153
-251,307	-6,093	-0,064	0,032
-250,292	-126,893	-0,159	-0,017
-249,278	292,208	0,058	-0,077
-248,263	-75,807	-0,061	0,016
-247,249	-200,000	0,005	-0,038
-246,234	-68,242	-0,039	0,011
-245,219	-113,505	-0,074	0,010
-244,205	-50,733	-0,065	0,022
-243,190	321,723	0,023	-0,032
-242,176	800,000	0,039	-0,081
-241,161	155,145	-0,072	0,073
-240,146	352,741	0,108	0,156
-239,132	-165,875	0,086	-0,003
-238,117	-200,000	-0,003	-0,103
-237,103	-65,874	0,056	-0,016
-236,088	800,000	0,035	-0,106
-235,073	184,705	0,099	-0,107
-234,059	336,001	0,108	0,153
-233,044	200,316	-0,042	0,047
-232,030	-69,378	0,016	0,004
-231,015	-112,983	-0,080	-0,011
-230,000	196,203	-0,054	0,060
-228,986	-200,000	-0,020	-0,151
-227,971	627,533	0,071	0,131
-226,957	-78,024	-0,049	0,012
-225,942	-200,000	-0,005	0,079
-224,927	178,501	0,070	0,075
-223,913	-96,496	-0,124	0,024
-222,898	-102,247	-0,026	-0,004
-221,884	-54,130	-0,084	-0,028
-220,869	150,584	0,109	0,108
-219,855	-0,021	0,086	0,045
-218,840	-61,986	-0,092	0,028
-217,825	290,421	0,089	-0,119
-216,811	678,531	-0,059	-0,112
-215,796	116,648	-0,050	0,045
-214,782	800,000	-0,013	-0,030
-213,767	800,000	0,104	-0,227
-212,752	276,810	0,059	-0,076
-211,738	488,113	0,040	0,068
-210,723	281,467	0,099	0,130
-209,709	59,133	-0,159	-0,114
-208,694	800,000	0,015	-0,037
-207,679	362,331	-0,038	-0,055
-206,665	800,000	0,043	-0,121
-205,650	800,000	0,019	-0,054
-204,636	-48,009	0,035	-0,012
-203,621	-26,915	-0,039	0,017
-202,606	-200,000	-0,001	0,015
-201,592	336,113	-0,110	-0,157
-200,577	800,000	-0,047	-0,114
-199,563	-46,844	-0,084	-0,030
-198,548	18,326	0,122	-0,071
-197,533	119,712	-0,042	-0,038
-196,519	800,000	0,036	-0,109
-195,504	800,000	0,001	0,003
-194,490	-200,000	0,030	-0,117
-193,475	-105,321	-0,273	0,045
-192,460	-200,000	0,012	-0,044
-191,446	-71,283	0,175	0,047
-190,431	-99,955	0,090	-0,016
-189,417	-87,902	0,079	0,017
-188,402	-200,000	-0,005	0,076
-187,387	45,295	-0,123	-0,083
-186,373	-143,519	0,020	0,001
-185,358	-200,000	-0,003	-0,057
-184,344	150,928	0,082	-0,082
-183,329	-200,000	0,009	0,083
-182,315	-200,000	0,010	-0,163
-181,300	-53,282	-0,126	-0,042
-180,285	-76,161	0,135	-0,034
-179,271	96,602	-0,048	-0,040
-178,256	267,271	0,092	0,117
-177,242	51,750	0,081	0,056
-176,227	-35,984	-0,024	0,009
-175,212	-172,052	-0,017	0,000
-174,198	743,277	-0,038	-0,075
-173,183	222,716	-0,094	-0,110
-172,169	-158,368	0,025	0,001
-171,154	-200,000	0,043	-0,155
-170,139	-52,647	-0,033	-0,011
-169,125	-148,330	0,036	0,002
-168,110	800,000	0,043	0,090
-167,096	-200,000	0,027	-0,093
-166,081	283,757	-0,121	-0,158
-165,066	-167,930	0,063	-0,002
-164,052	148,116	-0,141	-0,138
-163,037	800,000	0,030	0,080
-162,023	102,993	0,118	0,101
-161,008	-111,955	-0,009	0,001
-159,993	82,777	0,093	-0,074
-158,979	273,965	-0,020	0,025
-157,964	-130,189	-0,032	0,003
-156,950	228,145	0,025	0,029
-155,935	84,441	0,096	-0,077
-154,920	431,026	-0,022	0,035
-153,906	-200,000	-0,020	0,118
-152,891	-20,285	0,089	0,040
-151,877	138,161	-0,092	-0,088
-150,862	-173,221	-0,091	-0,002
-149,847	16,602	-0,033	0,019
-148,833	800,000	0,005	-0,011
-147,818	800,000	-0,034	0,083
-146,804	-200,000	-0,008	0,100
-145,789	60,929	0,113	0,081
-144,775	78,010	-0,121	-0,094
-143,760	800,000	-0,033	-0,078
-142,745	-86,277	0,034	0,008
-141,731	800,000	0,053	-0,122
-140,716	3,705	-0,033	-0,018
-139,702	380,340	0,072	-0,108
-138,687	-182,713	-0,037	-0,000
-137,672	-38,612	-0,144	-0,055
-136,658	800,000	0,065	-0,186
-135,643	259,752	-0,035	-0,044
-134,629	-200,000	-0,003	0,021
-133,614	-19,816	0,038	-0,017
-132,599	800,000	-0,098	0,223
-131,585	800,000	-0,038	0,080
-130,570	-200,000	-0,008	0,164
-129,556	-57,043	0,061	-0,019
-128,541	124,936	-0,048	-0,044
-127,526	9,555	-0,129	-0,071
-126,512	-200,000	0,035	-0,136
-125,497	-21,313	0,053	0,023
-124,483	-126,974	0,196	0,021
-123,468	297,548	0,127	-0,169
-122,453	-200,000	0,009	-0,057
-121,439	-35,986	0,120	-0,047
-120,424	610,450	0,056	-0,102
-119,410	752,702	-0,055	0,108
-118,395	800,000	-0,022	0,055
-117,380	68,906	-0,063	0,047
-116,366	11,036	-0,108	0,060
-115,351	110,819	-0,099	0,087
-114,337	800,000	0,040	0,129
-113,322	-172,177	-0,083	0,002
-112,307	-66,412	0,070	0,020
-111,293	10,427	0,045	0,025
-110,278	198,317	0,077	-0,086
-109,264	-160,778	0,128	0,005
-108,249	305,527	0,040	-0,054
-107,234	-67,040	-0,116	-0,033
-106,220	-200,000	-0,014	-0,058
-105,205	-29,365	-0,073	-0,030
-104,191	-80,162	-0,041	0,010
-103,176	129,003	0,060	0,055
-102,162	-200,000	-0,008	0,085
-101,147	800,000	0,040	-0,093
-100,132	-200,000	0,020	-0,087
-99,118	-114,764	0,071	-0,010
-98,103	800,000	0,006	-0,014
-97,089	-0,146	0,060	-0,031
-96,074	119,579	-0,161	0,145
-95,059	-34,245	0,134	0,053
-94,045	-139,008	-0,097	-0,007
-93,030	-16,296	0,079	-0,036
-92,016	72,162	-0,050	0,038
-91,001	800,000	0,038	0,076
-89,986	-133,584	0,150	0,013
-88,972	-200,000	-0,006	0,134
-87,957	372,749	0,048	0,072
-86,943	-200,000	0,016	0,098
-85,928	199,218	-0,096	-0,107
-84,913	537,612	0,065	0,112
-83,899	-26,048	0,147	-0,063
-82,884	122,816	-0,171	0,155
-81,870	120,071	0,104	0,093
-80,855	800,000	-0,024	0,053
-79,840	-69,492	-0,053	-0,015
-78,826	-200,000	0,000	-0,003
-77,811	-104,152	-0,121	0,020
-76,797	-146,274	0,177	-0,011
-75,782	-200,000	-0,006	-0,093
-74,767	-37,559	0,091	0,035
-73,753	800,000	-0,006	-0,017
-72,738	-142,593	0,109	-0,008
-71,724	-47,081	-0,144	0,051
-70,709	-37,492	0,067	-0,026
-69,694	-17,029	-0,083	-0,038
-68,680	-6,225	-0,066	0,033
-67,665	15,447	-0,087	-0,049
-66,651	-200,000	-0,006	0,049
-65,636	-151,040	-0,054	0,003
-64,622	725,331	-0,032	-0,063
-63,607	-84,820	-0,073	0,017
-62,592	183,559	0,088	-0,094
-61,578	444,771	-0,090	-0,144
-60,563	184,694	0,066	0,071
-59,549	-84,191	-0,086	0,020
-58,534	-103,752	-1,386	-0,233
-57,519	770,915	-0,713	-1,414
-56,505	-200,000	-0,819	-4,467
-55,490	-66,026	0,608	-0,175
-54,476	800,000	4,923	11,529
-53,461	-200,000	14,098	252,365
-52,446	-200,000	693,323	2243,031
-51,432	583,515	1622,316	2897,288
-50,417	117,956	1631,646	1456,193
-49,403	73,999	1286,054	976,441
-48,388	37,805	1022,442	656,628
-47,373	24,018	980,683	584,581
-46,359	23,314	970,192	576,002
-45,344	22,198	965,927	569,812
-44,330	22,218	964,464	568,991
-43,315	22,047	963,013	567,557
-42,300	22,062	961,882	566,915
-41,286	22,070	960,882	566,331
-40,271	22,029	960,045	565,679
-39,257	21,994	959,168	565,029
-38,242	22,073	958,014	564,583
-37,227	22,017	957,415	564,025
-36,213	22,003	956,268	563,283
-35,198	22,010	955,438	562,795
-34,184	22,042	954,921	562,568
-33,169	21,965	954,226	561,889
-32,154	22,038	952,966	561,359
-31,140	21,994	952,388	560,856
-30,125	22,078	951,507	560,585
-29,111	22,034	950,705	559,948
-28,096	22,011	949,967	559,418
-27,082	22,034	949,279	559,066
-26,067	22,057	948,561	558,692
-25,052	22,046	947,802	558,190
-24,038	22,051	947,094	557,766
-23,023	21,992	946,551	557,236
-22,009	22,058	945,885	557,031
-20,994	22,098	945,135	556,696
-19,979	22,089	944,670	556,371
-18,965	22,079	943,896	555,862
-17,950	22,064	943,449	555,527
-16,936	22,061	942,561	554,973
-15,921	21,947	941,969	554,242
-14,906	21,916	941,256	553,701
-13,892	21,967	940,492	553,392
-12,877	21,889	940,109	552,895
-11,863	21,883	939,356	552,412
-10,848	21,896	938,960	552,199
-9,833	21,967	938,463	552,110
-8,819	22,006	937,701	551,762
-7,804	21,912	937,067	551,070
-6,790	21,928	936,512	550,774
-5,775	21,970	935,969	550,566
-4,760	21,954	935,251	550,068
-3,746	21,964	934,755	549,788
-2,731	21,864	933,950	548,976
-1,717	21,746	933,364	548,241
-0,702	21,780	932,550	547,847
0,313	21,539	932,003	547,594
1,327	24,126	929,597	554,243
2,342	31,987	807,546	502,716
3,356	27,184	507,769	307,908
4,371	3,014	372,627	195,350
5,386	-0,150	355,517	182,500
6,400	-1,632	349,145	177,432
7,415	-2,505	346,306	174,934
8,429	-2,688	344,839	173,960
9,444	-2,821	343,976	173,351
10,459	-2,570	343,170	173,227
11,473	-2,612	342,647	172,898
12,488	-2,399	342,277	172,947
13,502	-2,239	341,575	172,764
14,517	-2,467	341,245	172,314
15,531	-2,713	340,577	171,673
16,546	-2,535	340,063	171,607
17,561	-2,754	339,713	171,159
18,575	-2,576	339,260	171,123
19,590	-2,633	338,895	170,857
20,604	-2,610	338,526	170,683
21,619	-2,899	338,297	170,217
22,634	-2,634	337,749	170,233
23,648	-2,554	337,426	170,147
24,663	-2,453	337,166	170,119
25,677	-2,720	336,862	169,641
26,692	-2,563	336,684	169,718
27,707	-2,641	336,300	169,419
28,721	-2,584	336,043	169,340
29,736	-2,597	335,619	169,097
30,750	-2,580	335,160	168,870
31,765	-2,635	334,989	168,705
32,780	-2,606	334,774	168,615
33,794	-2,493	334,502	168,593
34,809	-2,610	334,245	168,315
35,823	-2,763	333,965	167,983
36,838	-2,824	333,630	167,729
37,853	-2,592	333,236	167,782
38,867	-2,751	333,194	167,564
39,882	-2,766	332,843	167,355
40,896	-2,739	332,464	167,180
41,911	-2,675	332,183	167,097
42,926	-2,880	331,937	166,725
43,940	-2,886	331,735	166,602
44,955	-2,891	331,428	166,427
45,969	-2,901	331,050	166,212
46,984	-2,945	330,953	166,097
47,999	-3,128	330,474	165,635
49,013	-3,188	330,300	165,465
50,028	-3,204	329,869	165,217
51,042	-3,257	329,517	164,966
52,057	-3,330	329,285	164,752
53,071	-3,317	329,028	164,623
54,086	-3,267	329,040	164,671
55,101	-3,065	328,732	164,730
56,115	-3,014	328,437	164,625
57,130	-2,632	328,289	164,966
58,144	-2,616	328,116	164,883
59,159	-2,621	327,902	164,755
60,174	-2,673	327,656	164,558
61,188	-2,478	327,495	164,680
62,203	-2,589	327,079	164,333
63,217	-2,511	326,908	164,319
64,232	-2,576	326,581	164,068
65,247	-2,578	326,435	163,978
66,261	-2,551	326,012	163,781
67,276	-2,786	325,735	163,365
68,290	-3,011	325,510	162,987
69,305	-2,729	325,035	163,048
70,320	-2,847	324,880	162,825
71,334	-2,671	324,608	162,869
72,349	-2,559	324,505	162,928
73,363	-2,556	324,280	162,803
74,378	-2,565	324,062	162,670
75,393	-2,551	323,717	162,498
76,407	-2,665	323,521	162,258
77,422	-2,672	323,401	162,176
78,436	-2,630	323,059	162,037
79,451	-2,632	322,743	161,861
80,466	-2,699	322,508	161,655
81,480	-2,821	322,045	161,274
82,495	-2,787	321,819	161,184
83,509	-2,845	321,848	161,120
84,524	-2,786	321,339	160,916
85,539	-2,925	321,184	160,672
86,553	-2,986	321,046	160,521
87,568	-2,913	320,837	160,482
88,582	-2,887	320,530	160,343
89,597	-2,869	320,229	160,198
90,611	-2,858	320,182	160,172
91,626	-2,710	319,991	160,224
92,641	-2,540	319,495	160,147
93,655	-2,729	319,334	159,846
94,670	-2,721	319,202	159,774
95,684	-2,676	318,817	159,617
96,699	-2,750	318,668	159,447
97,714	-2,862	318,448	159,200
98,728	-2,830	318,031	159,012
99,743	-2,963	317,860	158,768
100,757	-2,917	317,665	158,707
101,772	-2,985	317,385	158,480
102,787	-2,883	317,233	158,500
103,801	-2,739	316,852	158,451
104,816	-2,914	316,831	158,237
105,830	-2,518	316,610	158,541
106,845	-2,605	316,500	158,377
107,860	-2,665	316,096	158,096
108,874	-2,617	315,922	158,046
109,889	-2,712	315,609	157,775
110,903	-2,752	315,431	157,628
111,918	-2,894	315,220	157,356
112,933	-2,639	314,935	157,473
113,947	-2,842	314,909	157,228
114,962	-2,640	314,625	157,289
115,976	-2,830	314,445	156,981
116,991	-2,872	314,218	156,809
118,006	-2,823	314,081	156,779
119,020	-2,688	313,804	156,772
120,035	-2,627	313,593	156,717
121,049	-2,690	313,455	156,567
122,064	-2,749	313,229	156,376
123,079	-2,678	312,991	156,320
124,093	-2,780	312,612	156,009
125,108	-2,796	312,224	155,783
126,122	-2,873	311,993	155,572
127,137	-3,120	311,827	155,214
128,151	-2,937	311,660	155,311
129,166	-2,872	311,518	155,295
130,181	-2,920	311,161	155,052
131,195	-2,697	310,823	155,107
132,210	-2,900	310,743	154,838
133,224	-2,753	310,721	154,968
134,239	-2,782	310,454	154,791
135,254	-2,623	310,195	154,816
136,268	-2,940	310,047	154,393
137,283	-3,009	309,428	153,999
138,297	-2,976	309,404	154,008
139,312	-3,130	309,117	153,689
140,327	-2,617	308,887	154,101
141,341	-2,555	308,975	154,196
142,356	-2,294	308,753	154,345
143,370	-2,413	308,577	154,119
144,385	-2,418	308,474	154,049
145,400	-2,455	308,153	153,835
146,414	-2,416	307,778	153,675
147,429	-2,531	307,775	153,540
148,443	-2,469	307,423	153,416
149,458	-2,627	307,345	153,198
150,473	-2,344	307,064	153,340
151,487	-2,526	306,838	153,023
152,502	-2,344	306,602	153,081
153,516	-2,349	306,460	152,992
154,531	-2,497	306,308	152,748
155,546	-2,528	306,079	152,588
156,560	-2,552	305,712	152,366
157,575	-2,584	305,524	152,226
158,589	-2,575	305,166	152,043
159,604	-2,535	305,124	152,050
160,619	-2,332	304,823	152,097
161,633	-2,493	304,771	151,891
162,648	-2,538	304,571	151,731
163,662	-2,339	304,376	151,827
164,677	-2,477	304,090	151,527
165,692	-2,429	303,994	151,516
166,706	-2,485	303,840	151,367
167,721	-2,562	303,546	151,128
168,735	-2,386	303,327	151,187
169,750	-2,347	303,361	151,231
170,764	-2,320	302,980	151,054
171,779	-2,298	302,904	151,026
172,794	-2,233	302,650	150,953
173,808	-2,542	302,453	150,524
174,823	-2,851	301,932	149,935
175,837	-2,906	301,674	149,737
176,852	-2,608	301,903	150,142
177,867	-2,347	301,635	150,263
178,881	-2,282	301,343	150,171
179,896	-2,452	301,242	149,933
180,910	-2,351	300,982	149,893
181,925	-2,326	300,905	149,867
182,940	-2,285	300,638	149,763
183,954	-2,251	300,413	149,672
184,969	-2,197	300,247	149,630
185,983	-2,336	300,002	149,354
186,998	-2,374	299,896	149,249
188,013	-2,365	299,570	149,083
189,027	-2,388	299,322	148,923
190,042	-2,389	299,260	148,878
191,056	-2,310	298,957	148,793
192,071	-2,156	298,755	148,835
193,086	-2,252	298,693	148,694
194,100	-2,229	298,434	148,575
195,115	-2,233	298,171	148,428
196,129	-2,412	297,875	148,086
197,144	-2,286	297,738	148,131
198,159	-2,202	297,555	148,112
199,173	-2,388	297,445	147,856
200,188	-2,203	297,129	147,872
201,202	-2,325	296,752	147,549
202,217	-2,874	296,508	146,864
203,232	-2,938	296,279	146,673
204,246	-2,504	296,149	147,031
205,261	-2,418	296,065	147,062
206,275	-2,291	295,816	147,052
207,290	-2,171	295,615	147,060
208,304	-2,368	295,528	146,806
209,319	-2,560	295,385	146,531
210,334	-2,361	295,112	146,580
211,348	-2,346	294,816	146,435
212,363	-2,351	294,604	146,312
213,377	-2,224	294,428	146,337
214,392	-2,348	294,223	146,099
215,407	-2,459	294,118	145,924
216,421	-2,659	293,946	145,626
217,436	-2,723	293,627	145,392
218,450	-2,713	293,357	145,255
219,465	-2,669	293,370	145,293
220,480	-2,636	293,152	145,204
221,494	-2,668	292,974	145,071
222,509	-2,378	292,744	145,232
223,523	-2,471	292,570	145,040
224,538	-2,286	292,511	145,181
225,553	-2,314	292,289	145,029
226,567	-2,314	292,152	144,950
227,582	-2,394	291,926	144,745
228,596	-2,381	291,821	144,693
229,611	-2,114	291,675	144,871
230,626	-2,240	291,264	144,530
231,640	-2,715	291,188	144,012
232,655	-2,894	290,705	143,585
233,669	-3,055	290,591	143,358
234,684	-2,942	290,412	143,367
235,699	-2,845	290,264	143,376
236,713	-2,726	290,028	143,363
237,728	-2,640	289,867	143,355
238,742	-2,480	289,676	143,404
239,757	-2,396	289,504	143,389
240,772	-2,473	289,374	143,236
241,786	-2,530	289,218	143,091
242,801	-2,504	288,982	142,987
243,815	-2,587	288,988	142,896
244,830	-2,486	288,624	142,802
245,844	-2,633	288,322	142,496
246,859	-2,629	288,332	142,493
247,874	-2,556	288,059	142,416
248,888	-2,813	288,039	142,144
249,903	-2,463	287,741	142,323
250,917	-2,361	287,672	142,375
251,932	-2,226	287,526	142,421
252,947	-1,749	287,413	142,815
253,961	-2,053	286,989	142,297
254,976	-0,884	287,616	143,727
255,990	1,802	288,293	146,656
257,005	2,546	288,728	147,586
258,020	3,837	289,118	149,024
259,034	3,818	288,945	148,903
260,049	3,900	288,554	148,767
261,063	3,485	288,358	148,252
262,078	4,040	288,249	148,719
263,093	4,561	288,335	149,254
264,107	4,544	288,092	149,098
265,122	4,523	287,884	148,957
266,136	4,735	287,897	149,155
267,151	4,578	287,534	148,802
268,166	4,317	287,302	148,417
269,180	4,291	287,164	148,308
270,195	4,359	286,935	148,243
271,209	4,303	286,818	148,115
272,224	4,328	286,556	147,991
273,239	3,987	286,299	147,517
274,253	4,290	286,163	147,725
275,268	4,656	286,285	148,125
276,282	4,579	285,869	147,823
277,297	4,570	285,808	147,770
278,312	4,813	285,686	147,926
279,326	4,726	285,341	147,651
280,341	4,290	285,256	147,178
281,355	4,259	284,936	146,969
282,370	4,321	284,674	146,881
283,384	4,287	284,485	146,738
284,399	4,240	284,420	146,647
285,414	4,280	284,193	146,554
286,428	4,155	283,989	146,317
287,443	4,160	283,768	146,195
288,457	3,921	283,449	145,791
289,472	4,053	283,363	145,859
290,487	3,855	283,164	145,556
291,501	3,833	283,030	145,453
292,516	3,828	282,678	145,255
293,530	3,740	282,560	145,098
294,545	3,979	282,524	145,292
295,560	4,253	282,277	145,411
296,574	3,963	281,976	144,970
297,589	4,006	281,948	144,982
298,603	4,551	281,854	145,434
299,618	4,161	281,813	145,033
300,633	4,209	281,421	144,864
301,647	4,097	281,361	144,714
302,662	4,137	281,100	144,605
303,676	3,977	280,878	144,328
304,691	3,721	280,461	143,861
305,706	3,553	280,283	143,599
306,720	3,671	280,142	143,625
307,735	3,523	280,088	143,446
308,749	3,902	279,819	143,649
309,764	3,973	279,771	143,679
310,779	3,960	279,512	143,520
311,793	3,739	279,240	143,162
312,808	3,769	279,030	143,069
313,822	3,716	278,910	142,946
314,837	3,735	278,691	142,839
315,852	3,655	278,420	142,613
316,866	3,817	278,267	142,672
317,881	3,810	278,142	142,589
318,895	3,935	278,041	142,640
319,910	3,533	277,830	142,147
320,925	3,629	277,513	142,061
321,939	3,782	277,578	142,223
322,954	3,965	277,407	142,291
323,968	3,914	277,304	142,179
324,983	3,910	277,097	142,057
325,997	3,943	277,000	142,025
327,012	4,066	276,776	142,010
328,027	4,052	276,581	141,885
329,041	3,984	276,363	141,697
330,056	4,105	276,265	141,746
331,070	4,035	276,012	141,540
332,085	3,836	275,674	141,171
333,100	3,951	275,628	141,240
334,114	4,076	275,357	141,204
335,129	3,700	275,202	140,766
336,143	3,952	275,029	140,896
337,158	4,232	275,258	141,258
338,173	4,155	274,803	140,941
339,187	3,914	274,638	140,624
340,202	3,859	274,565	140,524
341,216	3,935	274,273	140,432
342,231	4,000	274,198	140,440
343,246	3,907	273,953	140,216
344,260	3,798	273,666	139,957
345,275	4,102	273,651	140,215
346,289	4,382	273,575	140,418
347,304	4,282	273,413	140,231
348,319	3,960	273,156	139,795
349,333	4,011	272,909	139,702
350,348	4,269	272,877	139,907
351,362	4,135	272,697	139,681
352,377	4,263	272,525	139,697
353,392	4,258	272,364	139,597
354,406	4,389	272,146	139,591
355,421	192,679	1329,367	1410,590
356,435	155,710	1458,260	1410,697
