DTS Sentinel unit serial number:	SN410029Multiplexer serial number:	ORYXHardware model number:	OX2-SRSoftware version number:	ORYX F/W v4,00 Oryx Data Collector v3.7.2.0data status	okinstallation	B4 Nyhavnadifferential loss correction	single-endedforward channel	channel 2reverse channel	N/Adate	2023/12/19time	08:35:13forward acquisition time	300,00reverse acquisition time	0,00gamma	499,1914k internal	0,3127k external	0,3127temperature offset calibration	1,0000default loss term (dB/km)	0,3820temperature slope calibration	1,0000multiplexer offset coefficient	1,0000multiplexer slope coefficient	1,0000fibre end	0,00T internal ref (°C)	20,78T ext. ref 1 (°C)	5,36T ext. ref 2 (°C)	5,36length (m)	temperature (°C)	Stokes	anti-Stokes-744,400	92,572	0,108	0,091
-743,385	-56,771	-0,218	0,071
-742,371	175,178	0,018	0,019
-741,356	73,705	-0,120	0,093
-740,342	-200,000	0,012	-0,047
-739,327	-76,714	-0,219	0,057
-738,312	-27,817	-0,127	0,055
-737,298	19,672	-0,227	0,136
-736,283	86,731	0,101	-0,083
-735,269	-200,000	-0,322	0,000
-734,254	627,605	0,049	-0,093
-733,239	-66,568	-0,417	-0,122
-732,225	187,780	0,053	0,059
-731,210	-110,330	0,033	-0,005
-730,196	-8,922	0,035	-0,017
-729,181	203,459	-0,068	0,079
-728,167	-200,000	-0,009	-0,058
-727,152	-57,095	-0,049	-0,016
-726,137	-58,332	-0,129	-0,041
-725,123	-200,000	0,018	0,068
-724,108	-200,000	0,035	-0,182
-723,094	-200,000	0,040	-0,177
-722,079	-200,000	0,007	-0,103
-721,064	26,796	-0,117	-0,073
-720,050	-200,000	-0,002	-0,023
-719,035	800,000	-0,036	-0,087
-718,021	82,375	-0,108	0,087
-717,006	-68,666	0,073	-0,021
-715,991	186,937	-0,053	-0,059
-714,977	800,000	0,047	-0,103
-713,962	141,629	-0,066	-0,065
-712,948	-200,000	0,014	0,146
-711,933	6,475	0,097	0,053
-710,918	-200,000	-0,000	0,027
-709,904	-200,000	-0,001	0,066
-708,889	6,056	-0,102	-0,056
-707,875	697,940	0,045	-0,088
-706,860	372,538	0,041	0,062
-705,845	-200,000	0,004	0,055
-704,831	140,528	-0,031	0,031
-703,816	277,306	0,024	0,032
-702,802	592,381	0,014	0,026
-701,787	-61,253	-0,087	0,027
-700,772	366,848	-0,045	-0,068
-699,758	18,320	-0,063	-0,038
-698,743	691,721	-0,054	0,106
-697,729	800,000	0,022	0,066
-696,714	127,077	0,034	0,032
-695,699	111,397	-0,050	-0,044
-694,685	800,000	-0,040	-0,105
-693,670	344,758	-0,096	-0,141
-692,656	589,454	0,024	0,045
-691,641	-41,616	0,046	-0,018
-690,627	800,000	0,024	0,077
-689,612	-41,165	0,149	-0,057
-688,597	9,147	0,013	0,007
-687,583	-200,000	0,007	-0,068
-686,568	-200,000	0,015	-0,111
-685,554	-49,065	-0,054	-0,019
-684,539	88,375	0,020	-0,016
-683,524	-200,000	-0,014	-0,046
-682,510	-73,806	0,103	0,028
-681,495	-109,750	-0,113	-0,017
-680,481	800,000	0,030	-0,088
-679,466	340,547	-0,117	-0,171
-678,451	154,602	0,100	-0,102
-677,437	-200,000	-0,038	0,131
-676,422	-123,775	-0,078	-0,009
-675,408	-40,020	0,034	0,013
-674,393	45,613	-0,029	0,020
-673,378	-200,000	-0,021	-0,142
-672,364	-17,536	-0,135	-0,063
-671,349	-162,552	-0,108	-0,004
-670,335	800,000	0,062	0,141
-669,320	123,263	0,075	0,069
-668,305	-29,763	0,121	-0,051
-667,291	-99,706	-0,063	-0,012
-666,276	800,000	0,055	-0,134
-665,262	-7,658	0,076	0,038
-664,247	12,954	-0,108	-0,062
-663,232	364,920	-0,065	-0,097
-662,218	-10,181	0,051	0,025
-661,203	149,576	0,034	0,035
-660,189	-200,000	0,017	-0,082
-659,174	60,568	-0,173	-0,127
-658,159	779,130	-0,062	-0,127
-657,145	3,469	-0,039	-0,021
-656,130	-54,154	-0,042	0,014
-655,116	-200,000	0,007	0,032
-654,101	85,281	0,060	-0,049
-653,086	25,498	0,027	-0,017
-652,072	-200,000	-0,004	-0,039
-651,057	-69,941	0,013	0,004
-650,043	-200,000	-0,153	0,000
-649,028	-75,039	-0,106	0,028
-648,014	-52,771	0,082	0,028
-646,999	58,657	0,066	0,048
-645,984	800,000	-0,034	0,087
-644,970	800,000	-0,047	-0,119
-643,955	-144,818	-0,054	0,004
-642,941	-200,000	-0,003	-0,024
-641,926	83,654	-0,052	-0,042
-640,911	63,953	-0,099	0,074
-639,897	-200,000	-0,017	-0,086
-638,882	252,754	-0,039	0,049
-637,868	146,433	-0,048	-0,048
-636,853	-133,738	-0,043	0,004
-635,838	-67,784	-0,098	0,028
-634,824	-52,572	-0,036	0,012
-633,809	158,684	0,160	0,165
-632,795	-200,000	0,003	0,117
-631,780	-84,558	-0,103	-0,024
-630,765	-200,000	0,012	-0,098
-629,751	-41,041	-0,139	-0,053
-628,736	-139,738	-0,074	-0,006
-627,722	623,580	0,048	-0,091
-626,707	178,516	-0,061	-0,066
-625,692	-200,000	-0,001	-0,053
-624,678	-92,296	0,027	-0,006
-623,663	-13,155	-0,076	0,036
-622,649	381,174	-0,030	-0,046
-621,634	-200,000	0,011	-0,038
-620,619	-26,798	-0,071	-0,031
-619,605	-200,000	-0,009	0,041
-618,590	-18,406	0,155	-0,071
-617,576	150,870	-0,045	-0,046
-616,561	319,933	-0,044	-0,062
-615,546	-200,000	-0,007	-0,091
-614,532	260,700	-0,094	-0,120
-613,517	-95,595	-0,106	-0,021
-612,503	-88,179	0,079	0,017
-611,488	780,067	0,028	-0,056
-610,474	-200,000	0,019	0,065
-609,459	800,000	0,011	0,027
-608,444	800,000	0,019	-0,054
-607,430	800,000	-0,046	-0,114
-606,415	261,207	-0,070	0,090
-605,401	-200,000	0,028	-0,127
-604,386	-200,000	0,023	0,083
-603,371	-179,466	0,117	-0,002
-602,357	-68,874	0,018	0,005
-601,342	56,236	0,203	0,146
-600,328	261,708	-0,059	-0,076
-599,313	0,659	0,113	-0,060
-598,298	-65,508	-0,158	-0,047
-597,284	800,000	0,058	-0,131
-596,269	59,280	0,075	-0,055
-595,255	-9,766	0,016	0,008
-594,240	366,603	-0,038	-0,058
-593,225	-126,604	-0,064	-0,007
-592,211	-200,000	0,003	0,076
-591,196	89,151	-0,040	-0,033
-590,182	127,031	0,064	-0,060
-589,167	34,802	0,022	0,014
-588,152	-200,000	-0,007	-0,033
-587,138	65,723	0,052	0,039
-586,123	-200,000	-0,005	-0,021
-585,109	800,000	-0,004	-0,011
-584,094	190,888	0,072	-0,080
-583,079	145,988	0,079	0,079
-582,065	394,328	-0,035	-0,055
-581,050	800,000	0,031	-0,076
-580,036	258,866	-0,080	-0,103
-579,021	-200,000	0,001	-0,127
-578,006	-200,000	0,008	0,132
-576,992	800,000	-0,016	0,051
-575,977	33,585	0,029	-0,019
-574,963	21,881	0,146	-0,088
-573,948	800,000	0,037	-0,082
-572,934	-200,000	-0,007	0,113
-571,919	291,464	-0,022	-0,030
-570,904	401,548	-0,049	-0,076
-569,890	44,496	-0,085	-0,058
-568,875	221,887	-0,026	0,032
-567,861	-36,874	0,050	0,020
-566,846	268,175	0,042	0,054
-565,831	800,000	-0,029	-0,065
-564,817	800,000	-0,016	0,037
-563,802	124,992	-0,091	-0,085
-562,788	166,924	0,083	-0,087
-561,773	566,354	0,022	-0,040
-560,758	-115,148	-0,040	-0,006
-559,744	95,858	0,055	0,046
-558,729	15,497	0,071	-0,041
-557,715	39,951	-0,078	-0,052
-556,700	145,391	-0,127	-0,126
-555,685	527,669	-0,062	0,108
-554,671	-200,000	-0,008	-0,049
-553,656	-65,237	-0,030	-0,009
-552,642	87,806	0,130	0,106
-551,627	-103,628	-0,108	-0,019
-550,612	-120,662	-0,082	-0,010
-549,598	-116,736	0,027	0,004
-548,583	-200,000	-0,012	-0,107
-547,569	-61,348	0,024	0,007
-546,554	-127,289	0,095	-0,010
-545,539	-37,661	-0,020	0,008
-544,525	760,419	0,050	0,100
-543,510	-7,795	-0,090	-0,045
-542,496	469,332	0,097	-0,161
-541,481	113,353	-0,056	-0,050
-540,466	-132,310	0,042	0,004
-539,452	-110,001	-0,107	0,016
-538,437	800,000	0,036	0,083
-537,423	-200,000	-0,006	-0,049
-536,408	373,044	-0,079	0,118
-535,393	-110,920	-0,083	0,013
-534,379	-200,000	0,034	0,219
-533,364	3,420	-0,042	0,022
-532,350	-200,000	0,015	0,084
-531,335	392,372	0,054	-0,083
-530,321	-190,195	-0,126	-0,001
-529,306	-35,717	-0,022	-0,009
-528,291	-124,074	-0,131	-0,015
-527,277	-138,947	0,138	-0,011
-526,262	-108,012	0,070	-0,011
-525,248	-62,413	0,155	-0,047
-524,233	192,993	0,127	0,142
-523,218	-132,473	-0,107	-0,010
-522,204	49,532	0,053	0,037
-521,189	-85,962	-0,110	-0,025
-520,175	800,000	0,018	-0,045
-519,160	243,142	0,083	-0,103
-518,145	370,499	0,078	-0,117
-517,131	88,192	0,031	-0,025
-516,116	-123,622	0,036	0,004
-515,102	800,000	-0,112	0,231
-514,087	-200,000	0,007	-0,025
-513,072	-200,000	-0,002	0,011
-512,058	-200,000	-0,013	-0,054
-511,043	800,000	0,053	-0,142
-510,029	10,052	0,036	-0,020
-509,014	-113,930	-0,063	-0,009
-507,999	800,000	0,018	-0,049
-506,985	800,000	-0,073	0,176
-505,970	496,680	-0,058	0,099
-504,956	239,511	-0,013	-0,016
-503,941	-200,000	-0,018	0,117
-502,926	371,736	-0,011	-0,017
-501,912	117,520	0,047	0,043
-500,897	-181,409	-0,145	-0,002
-499,883	800,000	-0,072	-0,157
-498,868	-44,296	0,081	-0,030
-497,853	669,463	-0,080	-0,154
-496,839	319,037	0,020	0,029
-495,824	-200,000	-0,010	-0,137
-494,810	79,147	0,099	-0,079
-493,795	800,000	-0,037	-0,107
-492,781	-91,225	0,064	0,013
-491,766	800,000	-0,016	-0,041
-490,751	-0,082	0,025	-0,013
-489,737	59,893	-0,060	0,043
-488,722	-200,000	0,020	0,088
-487,708	175,098	0,052	-0,056
-486,693	-81,142	-0,143	0,035
-485,678	495,840	-0,096	-0,164
-484,664	-36,692	0,070	0,028
-483,649	168,489	-0,090	-0,095
-482,635	-81,410	-0,023	-0,006
-481,620	-200,000	0,007	0,076
-480,605	44,391	0,118	0,079
-479,591	-76,762	0,031	-0,008
-478,576	-130,852	-0,186	-0,018
-477,562	195,205	0,097	0,109
-476,547	717,692	-0,090	0,177
-475,532	124,626	0,014	0,013
-474,518	-68,323	0,057	0,016
-473,503	-200,000	-0,023	0,078
-472,489	-200,000	-0,005	0,041
-471,474	76,843	0,110	0,086
-470,459	259,115	0,061	0,078
-469,445	70,065	0,097	0,073
-468,430	-200,000	-0,006	-0,031
-467,416	-200,000	0,022	0,078
-466,401	-200,000	-0,030	0,100
-465,386	-83,491	-0,069	0,016
-464,372	636,764	0,047	0,089
-463,357	800,000	-0,038	-0,083
-462,343	50,569	0,109	-0,076
-461,328	349,758	0,110	-0,160
-460,313	29,809	0,147	-0,092
-459,299	-46,981	0,098	0,035
-458,284	4,128	0,036	0,019
-457,270	-111,681	-0,134	-0,020
-456,255	183,700	-0,035	0,038
-455,241	800,000	-0,064	0,131
-454,226	800,000	0,026	-0,084
-453,211	-82,264	0,044	-0,011
-452,197	-56,407	0,072	0,023
-451,182	107,360	0,045	0,040
-450,168	761,812	-0,039	0,079
-449,153	-157,711	-0,106	-0,005
-448,138	-33,389	0,147	0,060
-447,124	-92,550	0,048	0,010
-446,109	16,168	0,023	0,013
-445,095	37,064	-0,039	-0,025
-444,080	-200,000	-0,028	0,182
-443,065	-200,000	0,033	0,110
-442,051	800,000	-0,020	0,061
-441,036	9,930	-0,038	-0,021
-440,022	14,983	0,043	-0,025
-439,007	-79,182	-0,189	0,047
-437,992	424,034	0,056	0,089
-436,978	132,468	-0,047	0,044
-435,963	122,978	-0,019	0,017
-434,949	800,000	-0,029	0,064
-433,934	800,000	-0,063	-0,141
-432,919	-191,094	-0,171	0,001
-431,905	130,241	0,056	-0,053
-430,890	211,343	0,076	0,088
-429,876	117,244	-0,111	0,101
-428,861	78,162	0,096	0,075
-427,846	-200,000	-0,001	0,021
-426,832	-126,997	0,091	-0,010
-425,817	-46,939	-0,069	-0,025
-424,803	-107,865	-0,082	0,013
-423,788	88,319	0,039	-0,032
-422,773	48,786	0,085	-0,058
-421,759	-62,479	-0,068	0,021
-420,744	-200,000	0,002	-0,079
-419,730	111,661	-0,097	-0,086
-418,715	205,777	-0,075	-0,086
-417,701	32,134	-0,113	0,071
-416,686	29,410	-0,087	-0,054
-415,671	62,407	0,077	-0,057
-414,657	-22,662	-0,071	-0,031
-413,642	141,001	-0,100	0,098
-412,628	499,569	0,057	-0,096
-411,613	800,000	0,033	0,068
-410,598	-87,826	0,081	-0,018
-409,584	459,750	0,037	-0,061
-408,569	117,806	-0,121	-0,110
-407,555	32,207	0,047	-0,030
-406,540	-43,263	-0,060	-0,022
-405,525	281,058	-0,090	0,119
-404,511	-56,957	0,069	-0,022
-403,496	69,705	-0,087	0,066
-402,482	-200,000	-0,028	0,129
-401,467	465,288	0,065	-0,107
-400,452	160,599	0,115	0,118
-399,438	-200,000	0,009	-0,128
-398,423	108,945	-0,057	-0,050
-397,409	-25,088	0,087	0,038
-396,394	-200,000	0,005	0,088
-395,379	2,360	-0,075	0,040
-394,365	239,021	-0,059	0,072
-393,350	63,678	0,110	-0,081
-392,336	259,741	-0,076	0,097
-391,321	563,996	-0,071	0,126
-390,306	281,023	0,026	0,035
-389,292	-124,435	0,128	0,014
-388,277	556,451	0,042	0,075
-387,263	25,059	0,088	0,053
-386,248	479,045	0,028	0,046
-385,233	-52,556	0,045	0,015
-384,219	284,258	-0,041	-0,054
-383,204	-30,382	0,150	-0,062
-382,190	-200,000	0,001	-0,130
-381,175	-126,663	-0,098	0,010
-380,160	56,376	0,158	0,113
-379,146	67,231	0,165	0,124
-378,131	-200,000	0,012	-0,045
-377,117	441,945	0,043	0,069
-376,102	-129,273	-0,093	0,009
-375,088	250,641	-0,090	0,113
-374,073	-43,958	-0,038	-0,014
-373,058	147,644	0,072	-0,071
-372,044	202,811	0,014	0,016
-371,029	800,000	-0,038	0,079
-370,015	-200,000	0,020	-0,076
-369,000	46,014	0,082	-0,056
-367,985	-133,219	-0,041	0,004
-366,971	3,073	-0,091	-0,048
-365,956	-99,150	-0,089	0,016
-364,942	-200,000	0,001	-0,021
-363,927	-200,000	0,044	0,242
-362,912	-124,637	-0,068	-0,008
-361,898	-73,196	0,084	0,022
-360,883	388,768	-0,068	-0,103
-359,869	120,312	-0,062	-0,057
-358,854	-200,000	0,022	0,136
-357,839	-200,000	-0,009	0,059
-356,825	-27,560	0,119	0,050
-355,810	-57,879	-0,056	-0,018
-354,796	-200,000	0,007	0,046
-353,781	109,960	0,107	-0,094
-352,766	58,213	0,084	-0,060
-351,752	-200,000	-0,013	-0,130
-350,737	231,048	0,051	0,061
-349,723	-200,000	0,019	0,073
-348,708	59,888	0,096	0,070
-347,693	800,000	-0,040	-0,105
-346,679	-200,000	-0,007	-0,101
-345,664	-75,074	-0,097	-0,025
-344,650	167,228	0,106	-0,110
-343,635	6,847	0,096	-0,052
-342,620	800,000	-0,030	0,071
-341,606	344,205	0,028	0,041
-340,591	-7,723	-0,146	-0,072
-339,577	-200,000	-0,004	-0,048
-338,562	-44,378	0,062	0,023
-337,548	-200,000	-0,024	-0,099
-336,533	-33,178	0,025	0,010
-335,518	-200,000	0,014	0,164
-334,504	58,917	0,112	-0,080
-333,489	687,101	-0,055	-0,105
-332,475	-73,880	-0,105	0,028
-331,460	105,946	-0,029	0,025
-330,445	800,000	-0,014	-0,038
-329,431	-72,131	-0,029	-0,008
-328,416	800,000	0,052	0,112
-327,402	388,716	0,108	-0,164
-326,387	325,823	-0,019	-0,027
-325,372	-173,442	-0,106	-0,002
-324,358	248,360	0,057	-0,070
-323,343	-22,727	-0,041	-0,018
-322,329	-107,959	0,093	-0,015
-321,314	-103,849	-0,086	0,015
-320,299	150,226	0,041	-0,041
-319,285	8,788	-0,124	-0,068
-318,270	-200,000	0,007	0,079
-317,256	-200,000	0,014	0,090
-316,241	67,186	-0,054	-0,040
-315,226	-200,000	0,023	-0,091
-314,212	-89,367	-0,025	-0,005
-313,197	-200,000	-0,009	-0,065
-312,183	-0,847	0,086	-0,045
-311,168	-64,937	0,029	-0,009
-310,153	-122,607	-0,051	0,006
-309,139	-200,000	-0,010	-0,055
-308,124	-200,000	0,010	0,055
-307,110	54,947	-0,115	0,081
-306,095	-100,018	0,137	-0,025
-305,080	127,307	0,120	-0,111
-304,066	-112,508	-0,087	0,013
-303,051	450,325	-0,014	0,022
-302,037	-61,052	-0,082	-0,025
-301,022	274,287	0,022	-0,028
-300,008	800,000	0,025	0,064
-298,993	-45,125	0,229	0,083
-297,978	-116,820	-0,046	-0,006
-296,964	160,921	-0,063	-0,064
-295,949	-78,616	0,016	0,004
-294,935	51,952	-0,069	0,048
-293,920	-200,000	0,018	0,081
-292,905	193,716	0,067	0,075
-291,891	236,635	-0,024	0,030
-290,876	800,000	-0,047	0,145
-289,862	170,336	0,081	-0,085
-288,847	122,467	0,051	-0,047
-287,832	-200,000	0,011	-0,096
-286,818	195,667	-0,020	-0,023
-285,803	163,134	-0,050	-0,051
-284,789	-104,233	0,044	-0,007
-283,774	53,617	-0,070	-0,049
-282,759	-200,000	0,001	0,087
-281,745	-141,591	-0,168	-0,012
-280,730	-29,595	-0,075	-0,031
-279,716	389,025	-0,038	0,058
-278,701	352,675	-0,067	0,097
-277,686	142,230	-0,025	0,024
-276,672	-94,794	0,058	0,011
-275,657	-200,000	-0,041	0,179
-274,643	66,181	0,040	-0,030
-273,628	63,045	-0,061	-0,045
-272,613	-33,031	0,094	0,038
-271,599	215,774	-0,061	-0,071
-270,584	-197,157	0,018	0,000
-269,570	-157,453	0,033	-0,001
-268,555	800,000	-0,056	0,129
-267,540	-200,000	-0,009	0,146
-266,526	-200,000	0,006	-0,058
-265,511	-200,000	0,028	-0,140
-264,497	311,268	0,062	0,086
-263,482	800,000	0,089	0,182
-262,467	-43,627	-0,175	0,064
-261,453	-79,182	0,102	-0,025
-260,438	129,659	-0,063	0,059
-259,424	55,891	0,031	0,022
-258,409	618,036	-0,068	0,125
-257,395	-200,000	0,004	-0,106
-256,380	-6,144	0,031	0,015
-255,365	316,243	-0,049	0,067
-254,351	-41,236	-0,037	-0,014
-253,336	-158,723	0,063	0,003
-252,322	-165,708	0,088	-0,003
-251,307	20,986	0,075	-0,045
-250,292	800,000	-0,003	-0,007
-249,278	800,000	0,068	0,140
-248,263	236,828	0,192	0,232
-247,249	2,578	-0,115	0,060
-246,234	-50,204	-0,114	0,039
-245,219	800,000	-0,010	0,032
-244,205	118,094	-0,030	0,027
-243,190	123,143	-0,062	-0,057
-242,176	60,864	0,082	0,059
-241,161	800,000	-0,034	-0,083
-240,146	-148,767	-0,081	0,005
-239,132	571,375	0,060	0,108
-238,117	30,695	-0,055	0,035
-237,103	68,436	-0,079	-0,059
-236,088	155,563	0,069	0,069
-235,073	-200,000	0,014	-0,099
-234,059	29,911	0,087	0,054
-233,044	38,518	0,072	0,046
-232,030	-74,101	0,076	0,020
-231,015	-200,000	0,001	-0,106
-230,000	-200,000	0,024	0,138
-228,986	-200,000	-0,003	-0,113
-227,971	615,079	-0,035	-0,064
-226,957	-44,509	0,108	-0,039
-225,942	-40,625	0,037	-0,014
-224,927	194,865	-0,077	-0,085
-223,913	-200,000	0,002	-0,115
-222,898	-145,273	0,072	0,005
-221,884	-200,000	0,000	0,009
-220,869	277,817	0,117	0,152
-219,855	-139,291	-0,056	0,004
-218,840	114,664	0,027	0,024
-217,825	-72,048	-0,048	-0,013
-216,811	-101,076	-0,030	0,005
-215,796	-37,882	0,066	0,025
-214,782	800,000	0,049	0,140
-213,767	-108,211	-0,105	-0,016
-212,752	55,607	0,058	-0,041
-211,738	-200,000	-0,026	-0,085
-210,723	9,321	0,063	-0,034
-209,709	-104,093	-0,167	-0,028
-208,694	-200,000	-0,051	-0,174
-207,679	-91,999	-0,025	-0,005
-206,665	97,703	-0,092	0,077
-205,650	-133,304	0,075	0,007
-204,636	32,199	0,133	-0,083
-203,621	-38,719	0,100	-0,038
-202,606	800,000	-0,018	0,046
-201,592	21,691	-0,101	-0,060
-200,577	790,441	-0,036	-0,073
-199,563	70,082	-0,056	-0,042
-198,548	-200,000	0,011	-0,143
-197,533	-29,465	0,060	-0,025
-196,519	9,860	-0,074	0,041
-195,504	-155,656	0,091	0,004
-194,490	-0,902	-0,050	0,026
-193,475	-200,000	-0,018	-0,102
-192,460	-200,000	0,014	-0,063
-191,446	67,983	0,145	-0,108
-190,431	800,000	-0,039	0,091
-189,417	73,196	-0,090	-0,069
-188,402	350,939	-0,054	0,078
-187,387	140,972	-0,058	-0,056
-186,373	-200,000	0,048	-0,227
-185,358	-200,000	0,021	-0,134
-184,344	-107,610	0,126	-0,020
-183,329	97,941	-0,065	0,054
-182,315	82,149	-0,072	-0,057
-181,300	-136,345	0,190	-0,016
-180,285	38,986	0,102	0,066
-179,271	-18,852	0,034	-0,015
-178,256	-73,345	0,020	-0,005
-177,242	57,175	-0,013	-0,009
-176,227	800,000	-0,016	0,033
-175,212	800,000	-0,016	0,045
-174,198	800,000	0,005	0,012
-173,183	434,951	-0,032	0,050
-172,169	-200,000	-0,013	-0,153
-171,154	387,244	0,025	0,038
-170,139	-16,270	0,113	-0,052
-169,125	-200,000	0,035	0,123
-168,110	-164,728	0,158	0,005
-167,096	800,000	0,041	-0,116
-166,081	12,768	-0,096	-0,054
-165,066	-200,000	0,018	0,068
-164,052	492,217	-0,088	0,148
-163,037	70,242	0,024	0,018
-162,023	89,660	0,053	0,043
-161,008	-135,264	0,147	0,013
-159,993	-155,610	0,026	-0,001
-158,979	-60,214	-0,088	0,027
-157,964	-200,000	-0,010	0,052
-156,950	-56,742	-0,137	-0,044
-155,935	234,595	-0,136	0,163
-154,920	142,731	-0,123	0,119
-153,906	-200,000	-0,010	0,046
-152,891	174,593	0,070	0,074
-151,877	5,605	-0,060	0,032
-150,862	441,918	0,007	0,011
-149,847	-87,795	-0,085	0,018
-148,833	-4,440	-0,028	-0,014
-147,818	-200,000	0,014	0,063
-146,804	173,843	0,042	0,044
-145,789	-14,598	-0,098	-0,045
-144,775	-14,116	-0,014	0,007
-143,760	-68,470	0,059	0,017
-142,745	-43,563	-0,130	0,047
-141,731	126,905	0,141	0,130
-140,716	-200,000	-0,013	0,293
-139,702	178,990	0,094	0,100
-138,687	-37,153	0,118	0,046
-137,672	99,053	-0,074	0,062
-136,658	-200,000	-0,019	-0,085
-135,643	-28,722	0,100	-0,041
-134,629	129,758	0,081	-0,076
-133,614	-200,000	0,010	0,040
-132,599	682,554	0,058	0,110
-131,585	-112,745	0,075	0,011
-130,570	415,442	-0,017	0,027
-129,556	510,969	0,045	-0,077
-128,541	258,665	0,051	-0,064
-127,526	745,097	-0,027	0,054
-126,512	-146,908	0,084	0,005
-125,497	-200,000	-0,014	0,105
-124,483	55,776	0,112	0,079
-123,468	800,000	0,027	-0,074
-122,453	277,114	-0,086	-0,112
-121,439	116,106	0,039	-0,035
-120,424	-200,000	0,023	-0,090
-119,410	-50,574	-0,045	-0,015
-118,395	47,342	0,075	-0,050
-117,380	-200,000	-0,032	0,144
-116,366	170,971	0,083	0,087
-115,351	-44,320	0,070	-0,025
-114,337	-69,653	-0,129	-0,036
-113,322	462,947	-0,022	-0,035
-112,307	661,634	0,025	-0,047
-111,293	800,000	-0,063	-0,167
-110,278	767,767	0,046	0,091
-109,264	-92,385	0,090	0,018
-108,249	-62,326	0,121	-0,036
-107,234	-40,984	-0,084	-0,031
-106,220	166,418	-0,084	-0,087
-105,205	800,000	0,009	0,021
-104,191	800,000	-0,038	0,112
-103,176	-200,000	-0,007	-0,086
-102,162	46,398	0,027	0,018
-101,147	343,105	0,054	-0,077
-100,132	192,989	-0,092	-0,102
-99,118	-200,000	-0,029	-0,169
-98,103	714,768	-0,053	-0,103
-97,089	-200,000	-0,011	0,129
-96,074	-25,784	-0,165	0,070
-95,059	665,819	0,087	0,164
-94,045	-34,180	-0,045	-0,018
-93,030	800,000	0,037	-0,090
-92,016	800,000	-0,030	0,069
-91,001	800,000	-0,020	0,046
-89,986	138,550	-0,084	-0,080
-88,972	-184,198	0,120	0,001
-87,957	3,784	0,022	-0,012
-86,943	50,305	0,088	-0,060
-85,928	-1,435	-0,056	0,028
-84,913	-75,309	0,054	0,014
-83,899	800,000	0,024	-0,058
-82,884	214,801	0,050	0,057
-81,870	71,001	0,050	0,038
-80,855	-3,184	-0,041	0,021
-79,840	-27,004	-0,070	-0,029
-78,826	235,816	-0,114	-0,137
-77,811	525,941	0,042	-0,071
-76,797	-30,405	0,020	0,008
-75,782	51,047	-0,112	0,077
-74,767	313,088	0,028	0,038
-73,753	800,000	-0,021	0,060
-72,738	110,731	0,099	0,086
-71,724	-85,943	-0,101	-0,022
-70,709	259,106	-0,070	0,087
-69,694	109,499	0,158	0,137
-68,680	291,311	-0,047	0,062
-67,665	-200,000	-0,011	0,069
-66,651	-200,000	-0,018	-0,090
-65,636	-158,834	0,114	0,005
-64,622	-200,000	0,032	-0,114
-63,607	464,774	-0,085	0,138
-62,592	721,790	0,037	0,072
-61,578	502,237	-0,026	0,043
-60,563	-200,000	0,000	0,094
-59,549	-57,862	-0,116	-0,036
-58,534	-80,064	-1,369	-0,330
-57,519	582,596	-0,761	-1,359
-56,505	-200,000	-0,979	-4,435
-55,490	-167,478	0,609	-0,017
-54,476	800,000	4,951	11,835
-53,461	-200,000	14,769	264,948
-52,446	-200,000	698,455	2283,514
-51,432	603,552	1623,334	2938,859
-50,417	119,976	1629,944	1464,687
-49,403	78,415	1282,857	992,065
-48,388	37,713	1021,360	655,819
-47,373	23,190	980,858	582,125
-46,359	22,328	969,941	572,799
-45,344	21,016	965,730	566,009
-44,330	21,038	964,392	565,275
-43,315	20,825	962,960	563,718
-42,300	20,877	961,904	563,248
-41,286	20,889	960,905	562,678
-40,271	20,861	959,633	561,820
-39,257	20,802	958,856	561,152
-38,242	20,791	958,107	560,655
-37,227	20,837	957,081	560,182
-36,213	20,781	956,189	559,458
-35,198	20,753	955,237	558,786
-34,184	20,839	954,556	558,644
-33,169	20,769	953,769	557,935
-32,154	20,855	952,711	557,572
-31,140	20,859	951,870	557,070
-30,125	20,790	951,516	556,620
-29,111	20,815	950,276	555,952
-28,096	20,838	949,780	555,714
-27,082	20,857	949,026	555,311
-26,067	20,837	948,185	554,735
-25,052	20,823	947,535	554,288
-24,038	20,801	946,707	553,711
-23,023	20,836	946,096	553,441
-22,009	20,833	945,534	553,083
-20,994	20,831	944,907	552,687
-19,979	20,796	944,215	552,147
-18,965	20,841	943,823	552,040
-17,950	20,867	942,822	551,516
-16,936	20,758	942,492	550,955
-15,921	20,804	941,622	550,572
-14,906	20,699	940,992	549,846
-13,892	20,694	940,481	549,510
-12,877	20,703	939,695	549,058
-11,863	20,637	939,156	548,512
-10,848	20,717	938,574	548,402
-9,833	20,764	938,227	548,329
-8,819	20,787	937,595	548,010
-7,804	20,718	936,853	547,336
-6,790	20,639	936,567	546,897
-5,775	20,642	935,920	546,506
-4,760	20,672	935,234	546,180
-3,746	20,653	934,593	545,722
-2,731	20,632	933,668	545,095
-1,717	20,589	933,144	544,631
-0,702	20,580	932,325	544,104
0,313	20,324	931,946	543,898
1,327	22,720	929,360	549,863
2,342	29,983	806,016	496,514
3,356	24,370	506,969	302,717
4,371	0,049	373,635	192,130
5,386	-2,597	356,466	180,040
6,400	-3,855	350,499	175,490
7,415	-4,348	348,208	173,737
8,429	-4,195	346,611	173,107
9,444	-4,247	345,858	172,654
10,459	-4,205	345,187	172,352
11,473	-4,114	344,277	171,992
12,488	-4,260	344,046	171,687
13,502	-4,199	343,360	171,402
14,517	-4,163	342,944	171,222
15,531	-4,006	342,399	171,119
16,546	-4,023	341,948	170,859
17,561	-4,038	341,630	170,667
18,575	-3,987	341,198	170,495
19,590	-3,951	340,751	170,300
20,604	-4,030	340,440	170,036
21,619	-4,015	340,002	169,820
22,634	-3,834	339,607	169,819
23,648	-4,062	339,352	169,411
24,663	-4,024	339,128	169,328
25,677	-4,000	338,596	169,075
26,692	-4,075	338,543	168,946
27,707	-4,100	338,235	168,748
28,721	-3,955	337,743	168,656
29,736	-4,072	337,646	168,457
30,750	-3,969	337,170	168,324
31,765	-3,852	336,990	168,354
32,780	-3,916	336,807	168,174
33,794	-3,964	336,443	167,921
34,809	-3,910	336,162	167,829
35,823	-4,002	335,859	167,557
36,838	-4,010	335,566	167,387
37,853	-4,054	335,368	167,222
38,867	-3,882	334,945	167,193
39,882	-4,149	334,761	166,780
40,896	-3,927	334,454	166,867
41,911	-3,940	334,184	166,703
42,926	-3,927	333,878	166,550
43,940	-3,949	333,649	166,396
44,955	-4,093	333,449	166,116
45,969	-4,056	333,166	166,002
46,984	-4,002	333,026	165,980
47,999	-3,946	332,606	165,819
49,013	-3,736	332,408	165,946
50,028	-3,924	332,209	165,618
51,042	-3,834	331,878	165,540
52,057	-3,855	331,614	165,370
53,071	-3,893	331,357	165,183
54,086	-3,858	331,137	165,099
55,101	-3,924	330,826	164,855
56,115	-3,920	330,559	164,711
57,130	-3,903	330,293	164,583
58,144	-4,004	329,883	164,251
59,159	-4,004	329,542	164,065
60,174	-4,061	329,496	163,963
61,188	-4,086	329,142	163,744
62,203	-4,006	328,844	163,671
63,217	-3,972	328,740	163,644
64,232	-4,027	328,441	163,418
65,247	-4,058	328,227	163,262
66,261	-3,907	327,677	163,144
67,276	-4,041	327,668	162,975
68,290	-3,954	327,453	162,951
69,305	-3,966	327,115	162,754
70,320	-4,149	326,991	162,473
71,334	-3,953	326,590	162,479
72,349	-3,994	326,371	162,309
73,363	-4,045	326,151	162,128
74,378	-3,973	325,789	162,014
75,393	-3,905	325,610	161,987
76,407	-3,856	325,249	161,848
77,422	-4,099	325,101	161,489
78,436	-3,837	324,727	161,581
79,451	-3,862	324,443	161,396
80,466	-4,062	324,292	161,084
81,480	-3,967	324,137	161,099
82,495	-3,846	323,837	161,069
83,509	-3,770	323,520	160,982
84,524	-3,912	323,475	160,788
85,539	-3,930	323,267	160,650
86,553	-3,879	323,064	160,591
87,568	-4,024	322,812	160,292
88,582	-3,989	322,486	160,155
89,597	-3,906	322,211	160,095
90,611	-3,977	321,964	159,879
91,626	-3,882	321,656	159,816
92,641	-3,852	321,392	159,704
93,655	-4,006	321,396	159,523
94,670	-3,828	320,882	159,449
95,684	-4,014	320,603	159,092
96,699	-4,049	320,503	158,990
97,714	-3,942	320,346	159,015
98,728	-3,844	320,082	158,977
99,743	-3,933	319,859	158,755
100,757	-3,932	319,555	158,590
101,772	-4,007	319,472	158,454
102,787	-3,962	319,031	158,270
103,801	-3,810	318,652	158,234
104,816	-3,892	318,600	158,104
105,830	-3,966	318,529	157,974
106,845	-3,979	318,216	157,790
107,860	-3,810	318,082	157,894
108,874	-3,826	317,719	157,682
109,889	-3,898	317,484	157,473
110,903	-3,919	317,237	157,313
111,918	-3,782	316,800	157,231
112,933	-3,885	316,854	157,133
113,947	-3,864	316,503	156,967
114,962	-3,871	316,393	156,892
115,976	-3,863	316,116	156,748
116,991	-3,990	315,966	156,524
118,006	-4,056	315,706	156,310
119,020	-4,025	315,570	156,262
120,035	-4,185	315,529	156,055
121,049	-3,917	315,141	156,137
122,064	-3,921	314,963	156,032
123,079	-3,744	314,631	156,042
124,093	-4,011	314,489	155,672
125,108	-3,920	314,147	155,586
126,122	-3,911	313,863	155,441
127,137	-3,844	313,700	155,419
128,151	-3,990	313,618	155,207
129,166	-3,860	313,289	155,170
130,181	-3,987	313,091	154,923
131,195	-3,790	312,774	154,962
132,210	-3,802	312,546	154,822
133,224	-3,898	312,232	154,551
134,239	-3,838	311,950	154,461
135,254	-3,871	312,011	154,443
136,268	-3,917	311,548	154,150
137,283	-3,742	311,430	154,264
138,297	-3,802	311,208	154,076
139,312	-3,902	310,941	153,826
140,327	-3,907	310,756	153,715
141,341	-3,976	310,551	153,527
142,356	-3,997	310,375	153,403
143,370	-3,916	309,990	153,285
144,385	-3,914	309,869	153,214
145,400	-3,915	309,801	153,166
146,414	-3,854	309,511	153,073
147,429	-3,945	309,311	152,864
148,443	-3,909	308,992	152,731
149,458	-3,776	308,748	152,736
150,473	-3,810	308,595	152,612
151,487	-3,896	308,406	152,414
152,502	-3,878	308,225	152,330
153,516	-3,985	307,887	152,038
154,531	-3,878	307,536	151,962
155,546	-3,979	307,348	151,750
156,560	-3,934	307,270	151,746
157,575	-4,045	307,100	151,532
158,589	-3,941	306,843	151,500
159,604	-3,936	306,539	151,342
160,619	-3,763	306,239	151,360
161,633	-3,815	306,164	151,255
162,648	-3,860	306,048	151,138
163,662	-3,772	305,832	151,109
164,677	-3,783	305,612	150,976
165,692	-3,836	305,501	150,853
166,706	-3,820	305,147	150,681
167,721	-4,011	304,988	150,391
168,735	-3,784	304,784	150,512
169,750	-3,806	304,641	150,405
170,764	-3,973	304,380	150,090
171,779	-3,731	304,050	150,164
172,794	-3,915	303,979	149,926
173,808	-3,953	303,816	149,792
174,823	-3,869	303,574	149,746
175,837	-3,840	303,406	149,680
176,852	-3,980	303,159	149,401
177,867	-3,974	302,958	149,295
178,881	-3,920	302,791	149,254
179,896	-3,822	302,499	149,197
180,910	-3,765	302,287	149,138
181,925	-4,058	302,273	148,818
182,940	-3,915	301,872	148,753
183,954	-3,870	301,679	148,691
184,969	-3,866	301,563	148,625
185,983	-3,730	301,428	148,684
186,998	-3,925	301,122	148,320
188,013	-3,769	300,920	148,367
189,027	-3,865	300,803	148,199
190,042	-3,865	300,563	148,067
191,056	-4,150	300,416	147,691
192,071	-4,021	300,148	147,677
193,086	-4,021	299,864	147,524
194,100	-4,110	299,775	147,377
195,115	-3,841	299,506	147,504
196,129	-3,882	299,308	147,352
197,144	-3,747	298,876	147,263
198,159	-3,941	298,826	147,029
199,173	-3,830	298,549	146,992
200,188	-3,992	298,383	146,734
201,202	-3,783	298,125	146,804
202,217	-3,738	298,009	146,779
203,232	-3,742	297,726	146,623
204,246	-3,854	297,476	146,375
205,261	-3,839	297,352	146,315
206,275	-3,743	297,113	146,282
207,290	-3,749	296,918	146,166
208,304	-3,766	296,812	146,084
209,319	-3,788	296,449	145,870
210,334	-3,838	296,314	145,741
211,348	-3,753	296,143	145,729
212,363	-3,799	295,938	145,568
213,377	-3,865	295,779	145,411
214,392	-3,866	295,568	145,293
215,407	-4,016	295,398	145,047
216,421	-3,724	295,205	145,231
217,436	-3,695	294,848	145,072
218,450	-3,836	294,752	144,871
219,465	-3,845	294,478	144,714
220,480	-3,936	294,365	144,555
221,494	-3,793	294,168	144,588
222,509	-3,765	294,138	144,588
223,523	-3,751	293,863	144,454
224,538	-3,928	293,750	144,209
225,553	-3,941	293,546	144,084
226,567	-3,797	293,187	144,037
227,582	-3,967	293,045	143,786
228,596	-3,850	292,893	143,815
229,611	-4,008	292,736	143,568
230,626	-3,868	292,475	143,566
231,640	-3,885	292,254	143,428
232,655	-3,768	292,033	143,422
233,669	-3,840	291,854	143,251
234,684	-3,649	291,499	143,252
235,699	-3,669	291,362	143,152
236,713	-3,710	291,403	143,118
237,728	-3,819	291,150	142,875
238,742	-3,820	290,899	142,737
239,757	-3,891	290,643	142,529
240,772	-3,858	290,621	142,538
241,786	-4,104	290,261	142,108
242,801	-3,886	290,167	142,263
243,815	-3,712	289,909	142,295
244,830	-3,841	289,780	142,092
245,844	-3,863	289,670	142,004
246,859	-3,822	289,405	141,902
247,874	-3,569	289,156	142,013
248,888	-3,842	288,970	141,643
249,903	-3,914	288,728	141,442
250,917	-3,893	288,535	141,355
251,932	-3,959	288,456	141,240
252,947	-4,298	288,074	140,710
253,961	-4,539	287,512	140,190
254,976	-4,742	287,350	139,902
255,990	-4,569	287,260	140,013
257,005	-3,331	287,729	141,429
258,020	-1,182	288,545	143,907
259,034	0,230	288,750	145,368
260,049	0,685	288,695	145,769
261,063	1,092	288,746	146,177
262,078	1,566	288,545	146,521
263,093	1,686	288,661	146,684
264,107	1,989	288,607	146,937
265,122	2,101	288,407	146,929
266,136	1,988	288,424	146,816
267,151	2,203	288,096	146,843
268,166	2,198	287,908	146,730
269,180	2,269	287,770	146,715
270,195	2,260	287,400	146,505
271,209	2,135	287,414	146,378
272,224	2,262	287,269	146,414
273,239	2,122	286,992	146,125
274,253	2,110	286,696	145,949
275,268	2,129	286,568	145,889
276,282	2,062	286,449	145,751
277,297	2,108	286,206	145,660
278,312	2,010	285,984	145,439
279,326	2,168	285,849	145,509
280,341	2,116	285,646	145,343
281,355	2,110	285,467	145,233
282,370	1,893	285,281	144,918
283,384	1,982	285,054	144,875
284,399	2,026	284,884	144,817
285,414	2,082	284,612	144,719
286,428	1,953	284,562	144,559
287,443	2,002	284,467	144,544
288,457	1,905	284,089	144,247
289,472	1,920	283,991	144,198
290,487	1,980	283,740	144,115
291,501	1,925	283,492	143,924
292,516	1,827	283,390	143,766
293,530	1,936	283,153	143,736
294,545	1,877	283,027	143,604
295,560	1,909	282,886	143,550
296,574	1,753	282,675	143,283
297,589	1,914	282,471	143,318
298,603	1,792	282,333	143,121
299,618	1,796	282,171	143,029
300,633	1,926	281,889	142,996
301,647	2,142	281,704	143,093
302,662	2,095	281,505	142,935
303,676	2,118	281,417	142,900
304,691	2,027	281,336	142,760
305,706	1,973	280,910	142,480
306,720	2,061	280,824	142,507
307,735	2,058	280,639	142,397
308,749	2,053	280,590	142,355
309,764	2,245	280,351	142,401
310,779	2,065	280,169	142,127
311,793	2,173	279,972	142,116
312,808	2,046	279,831	141,913
313,822	2,143	279,604	141,875
314,837	1,892	279,483	141,567
315,852	2,075	279,233	141,599
316,866	2,141	279,052	141,556
317,881	2,097	278,746	141,347
318,895	1,963	278,795	141,234
319,910	2,025	278,448	141,103
320,925	1,889	278,261	140,870
321,939	2,117	278,190	141,033
322,954	2,062	278,048	140,897
323,968	2,241	277,865	140,958
324,983	2,157	277,669	140,768
325,997	2,321	277,376	140,759
327,012	2,299	277,109	140,591
328,027	2,072	277,121	140,375
329,041	2,049	276,897	140,227
330,056	2,196	276,789	140,296
331,070	2,285	276,601	140,270
332,085	2,045	276,481	139,975
333,100	2,246	276,188	139,999
334,114	2,113	275,958	139,749
335,129	2,111	275,786	139,647
336,143	2,240	275,648	139,683
337,158	2,192	275,538	139,571
338,173	2,210	275,375	139,492
339,187	2,245	275,046	139,345
340,202	2,203	275,007	139,274
341,216	2,067	274,784	139,025
342,231	2,111	274,636	138,977
343,246	2,250	274,432	138,989
344,260	2,272	274,258	138,909
345,275	2,103	274,179	138,702
346,289	2,383	273,931	138,820
347,304	2,389	273,830	138,762
348,319	2,360	273,588	138,600
349,333	2,130	273,501	138,334
350,348	2,254	273,182	138,274
351,362	2,188	273,085	138,152
352,377	1,998	273,015	137,932
353,392	2,286	272,685	138,014
354,406	2,233	272,499	137,860
355,421	192,181	1348,078	1429,236
356,435	155,188	1479,205	1429,359
