DTS Sentinel unit serial number:	SN410029Multiplexer serial number:	ORYXHardware model number:	OX2-SRSoftware version number:	ORYX F/W v4,00 Oryx Data Collector v3.7.2.0data status	okinstallation	B4 Nyhavnadifferential loss correction	single-endedforward channel	channel 2reverse channel	N/Adate	2023/12/15time	16:45:13forward acquisition time	300,00reverse acquisition time	0,00gamma	499,1914k internal	0,3144k external	0,3144temperature offset calibration	1,0000default loss term (dB/km)	0,3820temperature slope calibration	1,0000multiplexer offset coefficient	1,0000multiplexer slope coefficient	1,0000fibre end	0,00T internal ref (°C)	17,74T ext. ref 1 (°C)	3,57T ext. ref 2 (°C)	3,71length (m)	temperature (°C)	Stokes	anti-Stokes-744,400	-41,622	-0,073	-0,028
-743,385	-31,853	-0,150	0,062
-742,371	404,542	-0,029	0,046
-741,356	-47,901	-0,174	0,062
-740,342	-43,571	0,084	0,031
-739,327	-81,415	-0,287	0,069
-738,312	-200,000	-0,023	-0,104
-737,298	-157,946	-0,320	-0,014
-736,283	-200,000	-0,002	-0,052
-735,269	-9,895	-0,270	0,132
-734,254	242,352	0,016	0,020
-733,239	-72,431	-0,352	-0,096
-732,225	-3,654	0,185	0,095
-731,210	800,000	-0,025	0,054
-730,196	800,000	-0,031	-0,084
-729,181	-123,573	-0,103	0,012
-728,167	185,126	-0,067	-0,073
-727,152	-63,520	-0,069	0,021
-726,137	-46,566	-0,102	0,037
-725,123	167,613	-0,044	0,046
-724,108	75,860	0,045	-0,035
-723,094	26,986	-0,210	-0,130
-722,079	778,446	-0,040	-0,081
-721,064	-13,735	-0,185	-0,088
-720,050	-118,905	-0,051	-0,007
-719,035	-112,486	-0,142	-0,021
-718,021	800,000	-0,035	-0,076
-717,006	-11,667	-0,117	-0,056
-715,991	-200,000	-0,016	-0,124
-714,977	772,649	-0,070	-0,141
-713,962	-200,000	-0,005	-0,026
-712,948	353,275	0,029	-0,042
-711,933	-200,000	0,004	-0,082
-710,918	-22,794	-0,114	-0,051
-709,904	787,113	-0,041	-0,084
-708,889	-12,301	-0,058	0,028
-707,875	-200,000	0,010	-0,049
-706,860	64,360	-0,057	0,043
-705,845	-200,000	-0,002	-0,036
-704,831	-200,000	0,017	0,067
-703,816	-151,898	0,062	-0,003
-702,802	800,000	-0,031	0,083
-701,787	-76,414	-0,102	0,026
-700,772	576,033	0,020	0,036
-699,758	468,075	-0,075	-0,124
-698,743	-200,000	0,026	0,125
-697,729	177,406	-0,080	-0,086
-696,714	584,822	0,027	0,050
-695,699	68,698	-0,018	0,013
-694,685	-77,810	-0,129	0,033
-693,670	637,116	-0,045	-0,086
-692,656	-200,000	0,035	-0,129
-691,641	-162,413	0,152	-0,005
-690,627	411,423	-0,022	0,035
-689,612	196,899	-0,050	0,056
-688,597	305,815	0,041	0,057
-687,583	275,743	-0,023	-0,031
-686,568	-67,962	-0,130	0,037
-685,554	-120,302	-0,036	0,004
-684,539	-33,045	-0,111	0,045
-683,524	305,879	-0,039	0,053
-682,510	85,313	-0,080	-0,065
-681,495	16,173	-0,069	-0,040
-680,481	237,096	-0,038	-0,047
-679,466	18,092	-0,140	-0,082
-678,451	21,287	0,082	-0,049
-677,437	252,419	0,023	-0,029
-676,422	333,491	0,072	0,103
-675,408	800,000	0,043	0,109
-674,393	-112,288	0,135	-0,020
-673,378	-145,429	-0,070	0,005
-672,364	-200,000	0,010	-0,091
-671,349	-53,490	-0,072	-0,024
-670,335	39,256	-0,056	-0,037
-669,320	-87,350	-0,067	0,015
-668,305	278,187	0,032	0,043
-667,291	568,329	0,030	0,055
-666,276	800,000	-0,044	-0,139
-665,262	-119,971	-0,031	0,004
-664,247	-15,527	-0,060	0,028
-663,232	-200,000	-0,010	0,036
-662,218	271,234	0,092	0,120
-661,203	800,000	0,067	0,164
-660,189	67,577	-0,055	0,041
-659,174	-16,119	-0,155	-0,073
-658,159	72,453	-0,118	-0,091
-657,145	-42,059	-0,140	-0,052
-656,130	-86,358	-0,153	0,034
-655,116	348,998	0,055	0,080
-654,101	150,454	0,023	0,023
-653,086	-200,000	0,010	0,081
-652,072	561,832	-0,047	-0,084
-651,057	14,142	-0,194	-0,111
-650,043	800,000	0,023	-0,053
-649,028	56,068	-0,042	-0,030
-648,014	-200,000	-0,051	-0,201
-646,999	480,057	0,033	0,056
-645,984	289,375	-0,008	-0,011
-644,970	-200,000	0,010	0,061
-643,955	102,865	0,063	0,054
-642,941	139,231	-0,054	0,053
-641,926	503,884	-0,071	-0,122
-640,911	62,907	0,063	0,047
-639,897	800,000	0,038	0,077
-638,882	87,595	0,035	0,028
-637,868	206,528	0,088	-0,101
-636,853	-200,000	-0,014	-0,139
-635,838	173,159	-0,124	-0,132
-634,824	42,912	-0,016	-0,011
-633,809	183,875	0,052	0,057
-632,795	22,809	0,062	-0,038
-631,780	67,726	-0,020	0,015
-630,765	714,363	-0,021	-0,041
-629,751	733,116	0,087	-0,173
-628,736	-200,000	-0,010	-0,075
-627,722	133,587	0,045	-0,043
-626,707	-63,972	0,071	-0,021
-625,692	332,850	-0,057	-0,082
-624,678	-120,576	-0,099	0,012
-623,663	134,194	-0,079	-0,075
-622,649	82,269	-0,151	-0,120
-621,634	800,000	-0,016	-0,050
-620,619	-70,211	-0,116	-0,032
-619,605	575,450	0,089	0,161
-618,590	-200,000	0,001	0,022
-617,576	56,764	0,069	0,050
-616,561	309,132	-0,114	-0,158
-615,546	-90,351	-0,183	-0,039
-614,532	-200,000	0,011	-0,063
-613,517	292,422	0,080	0,108
-612,503	-94,824	-0,113	0,022
-611,488	317,715	-0,079	-0,110
-610,474	112,762	-0,102	-0,091
-609,459	245,876	-0,061	-0,075
-608,444	81,740	0,020	-0,016
-607,430	-153,736	-0,048	-0,002
-606,415	-28,890	-0,087	-0,037
-605,401	56,837	-0,103	0,074
-604,386	385,280	-0,085	0,130
-603,371	-200,000	-0,008	0,026
-602,357	-200,000	0,115	0,000
-601,342	-200,000	0,023	0,084
-600,328	80,325	-0,095	-0,076
-599,313	136,512	0,012	-0,012
-598,298	60,601	-0,108	0,078
-597,284	800,000	0,008	-0,022
-596,269	-200,000	0,014	0,169
-595,255	102,100	-0,090	0,077
-594,240	-200,000	0,007	-0,146
-593,225	285,268	-0,066	-0,088
-592,211	-200,000	0,022	-0,109
-591,196	18,756	0,117	-0,069
-590,182	-200,000	-0,047	0,154
-589,167	525,994	0,029	0,051
-588,152	800,000	0,006	-0,017
-587,138	495,342	-0,031	-0,053
-586,123	-200,000	0,001	0,076
-585,109	84,306	0,037	-0,029
-584,094	800,000	0,009	-0,025
-583,079	-54,064	0,038	0,013
-582,065	-134,352	0,016	-0,001
-581,050	-67,553	0,088	0,025
-580,036	800,000	0,046	-0,095
-579,021	800,000	-0,038	-0,084
-578,006	800,000	0,020	-0,047
-576,992	-6,999	0,080	-0,040
-575,977	-55,492	0,053	-0,017
-574,963	-200,000	0,012	-0,091
-573,948	-81,263	0,088	0,021
-572,934	728,790	-0,069	0,137
-571,919	-200,000	0,006	0,046
-570,904	-111,161	-0,025	-0,004
-569,890	-21,953	-0,059	0,026
-568,875	255,271	-0,058	0,073
-567,861	20,223	0,038	0,022
-566,846	73,905	-0,041	0,031
-565,831	-200,000	0,006	-0,049
-564,817	690,743	-0,085	-0,165
-563,802	5,538	-0,108	-0,058
-562,788	377,083	0,031	0,047
-561,773	137,049	0,045	0,043
-560,758	38,890	0,058	0,038
-559,744	135,393	-0,047	0,045
-558,729	135,042	-0,028	0,027
-557,715	14,792	-0,051	0,029
-556,700	-200,000	0,004	-0,050
-555,685	800,000	-0,032	0,098
-554,671	-148,860	0,115	-0,007
-553,656	134,164	0,119	-0,113
-552,642	-3,650	-0,097	0,049
-551,627	-68,330	0,094	0,027
-550,612	-118,288	0,100	0,013
-549,598	32,325	-0,083	0,052
-548,583	-16,283	0,045	0,021
-547,569	-200,000	0,021	0,074
-546,554	-200,000	0,003	0,022
-545,539	-200,000	-0,055	0,185
-544,525	-200,000	0,027	0,111
-543,510	-121,038	-0,062	0,008
-542,496	-200,000	-0,002	0,013
-541,481	800,000	-0,036	0,077
-540,466	-46,731	0,173	-0,062
-539,452	234,291	0,069	0,084
-538,437	800,000	0,039	0,103
-537,423	800,000	-0,021	0,057
-536,408	800,000	0,040	-0,097
-535,393	58,105	0,129	-0,092
-534,379	-27,102	-0,092	0,039
-533,364	148,254	0,107	0,106
-532,350	92,152	0,050	0,041
-531,335	375,378	0,033	0,049
-530,321	800,000	-0,009	0,020
-529,306	-54,259	-0,090	-0,030
-528,291	-141,419	-0,150	-0,011
-527,277	-143,370	0,083	0,006
-526,262	800,000	0,013	0,035
-525,248	180,910	0,050	-0,054
-524,233	656,774	-0,044	0,084
-523,218	66,808	0,038	-0,028
-522,204	138,337	0,022	-0,021
-521,189	-57,429	-0,036	-0,011
-520,175	187,046	-0,016	-0,018
-519,160	133,059	-0,068	0,065
-518,145	-200,000	0,027	0,115
-517,131	19,903	-0,050	-0,030
-516,116	-101,595	0,066	0,012
-515,102	22,383	0,033	-0,020
-514,087	800,000	0,025	-0,076
-513,072	458,851	0,045	0,074
-512,058	800,000	-0,024	-0,068
-511,043	-70,698	0,126	-0,035
-510,029	-200,000	-0,021	0,146
-509,014	167,732	0,058	0,061
-507,999	-148,226	-0,054	0,003
-506,985	-114,719	-0,077	-0,011
-505,970	144,065	0,028	0,027
-504,956	-200,000	0,004	-0,036
-503,941	-200,000	-0,023	-0,077
-502,926	350,054	0,037	-0,054
-501,912	800,000	0,042	0,113
-500,897	54,486	-0,074	-0,052
-499,883	190,856	0,057	-0,063
-498,868	-79,972	-0,202	-0,049
-497,853	-200,000	0,003	-0,085
-496,839	-102,665	0,091	0,016
-495,824	-200,000	-0,040	0,155
-494,810	800,000	0,049	0,142
-493,795	-200,000	0,021	0,157
-492,781	800,000	-0,071	-0,149
-491,766	-200,000	-0,008	-0,068
-490,751	147,966	-0,109	-0,108
-489,737	109,798	-0,075	0,066
-488,722	-140,320	-0,045	-0,003
-487,708	233,612	0,054	0,065
-486,693	671,672	-0,067	0,128
-485,678	-54,479	0,102	-0,034
-484,664	-200,000	-0,012	-0,052
-483,649	308,401	0,035	0,048
-482,635	800,000	-0,033	0,086
-481,620	-1,312	0,054	-0,028
-480,605	235,368	0,051	0,062
-479,591	-94,804	0,093	-0,018
-478,576	147,692	0,056	-0,055
-477,562	-45,069	-0,081	-0,029
-476,547	-200,000	-0,009	-0,084
-475,532	197,640	0,015	0,017
-474,518	-200,000	-0,026	0,216
-473,503	365,583	0,015	0,022
-472,489	-200,000	-0,009	-0,075
-471,474	-200,000	-0,029	0,195
-470,459	299,599	-0,107	0,145
-469,445	-107,884	-0,067	-0,011
-468,430	-116,720	-0,065	-0,009
-467,416	14,206	0,142	-0,081
-466,401	-54,923	-0,063	-0,021
-465,386	-200,000	0,011	-0,051
-464,372	-200,000	0,020	0,072
-463,357	-200,000	0,017	-0,081
-462,343	364,544	-0,049	-0,073
-461,328	150,718	-0,069	0,068
-460,313	115,978	0,080	-0,072
-459,299	-75,105	0,078	-0,020
-458,284	110,392	0,055	0,048
-457,270	-50,157	-0,017	0,006
-456,255	90,080	-0,010	-0,008
-455,241	373,459	-0,083	-0,124
-454,226	70,558	-0,114	-0,086
-453,211	327,349	0,077	0,108
-452,197	800,000	-0,029	0,075
-451,182	153,540	0,053	0,053
-450,168	246,302	0,083	0,103
-449,153	55,544	-0,050	0,036
-448,138	-200,000	-0,024	-0,124
-447,124	-200,000	-0,001	-0,084
-446,109	-200,000	0,019	-0,088
-445,095	-71,466	0,139	-0,038
-444,080	-102,609	0,069	-0,012
-443,065	-54,582	0,100	0,033
-442,051	52,976	-0,051	-0,036
-441,036	-200,000	-0,021	-0,086
-440,022	-200,000	-0,024	-0,137
-439,007	378,072	0,042	0,063
-437,992	182,821	0,051	-0,055
-436,978	49,929	0,003	0,002
-435,963	-91,025	0,043	0,009
-434,949	-82,759	0,080	-0,019
-433,934	-24,500	-0,090	0,039
-432,919	145,634	-0,009	-0,008
-431,905	-104,943	-0,071	0,012
-430,890	-200,000	-0,020	-0,105
-429,876	-149,270	0,095	-0,005
-428,861	-29,516	0,056	-0,023
-427,846	800,000	0,021	-0,048
-426,832	39,339	0,100	-0,066
-425,817	-20,940	-0,116	0,052
-424,803	45,024	-0,162	-0,109
-423,788	360,784	0,070	0,102
-422,773	85,151	0,157	0,126
-421,759	5,540	0,026	0,014
-420,744	-200,000	-0,042	0,206
-419,730	800,000	0,025	0,052
-418,715	-50,109	0,124	-0,043
-417,701	-67,590	0,027	0,008
-416,686	-80,813	-0,098	-0,024
-415,671	73,859	0,046	-0,035
-414,657	-147,428	0,039	0,002
-413,642	209,923	-0,026	-0,029
-412,628	800,000	0,017	-0,050
-411,613	800,000	0,012	-0,037
-410,598	215,937	-0,023	-0,027
-409,584	-25,359	0,063	0,027
-408,569	52,456	0,063	0,044
-407,555	-72,261	0,075	-0,020
-406,540	-108,908	-0,043	0,007
-405,525	45,590	0,107	-0,072
-404,511	452,210	-0,039	0,063
-403,496	71,118	-0,052	0,040
-402,482	-25,516	0,167	-0,072
-401,467	800,000	0,033	0,086
-400,452	-77,540	-0,023	0,006
-399,438	-39,771	-0,081	-0,031
-398,423	746,920	-0,053	0,105
-397,409	-26,573	0,032	-0,014
-396,394	404,710	0,067	0,103
-395,379	-200,000	-0,011	0,047
-394,365	31,540	-0,047	-0,029
-393,350	250,883	0,050	0,063
-392,336	-66,023	0,122	-0,035
-391,321	56,015	0,019	0,013
-390,306	390,922	0,066	-0,100
-389,292	139,673	-0,065	-0,063
-388,277	-69,919	0,111	0,031
-387,263	127,958	0,052	0,048
-386,248	800,000	0,035	0,080
-385,233	-134,765	0,038	0,003
-384,219	-200,000	0,001	-0,043
-383,204	37,544	0,053	0,034
-382,190	-83,260	-0,036	-0,008
-381,175	84,155	0,047	0,037
-380,160	-78,542	0,072	0,018
-379,146	55,191	-0,120	0,085
-378,131	800,000	0,034	0,083
-377,117	-200,000	0,023	-0,091
-376,102	-58,696	0,089	-0,028
-375,088	-190,520	-0,049	0,000
-374,073	-50,231	0,126	-0,043
-373,058	800,000	0,033	-0,089
-372,044	19,714	0,100	-0,058
-371,029	800,000	0,035	0,082
-370,015	-10,929	-0,059	0,028
-369,000	800,000	-0,030	-0,072
-367,985	800,000	0,038	-0,105
-366,971	-200,000	-0,013	-0,160
-365,956	-60,479	-0,111	0,034
-364,942	157,123	0,088	0,089
-363,927	-200,000	0,023	0,136
-362,912	-186,013	-0,077	0,001
-361,898	-154,840	-0,048	-0,002
-360,883	-15,899	-0,077	-0,036
-359,869	247,655	-0,066	-0,081
-358,854	100,930	0,185	-0,157
-357,839	138,874	0,058	-0,056
-356,825	736,267	0,056	0,110
-355,810	-52,131	0,055	-0,018
-354,796	-59,978	0,017	-0,005
-353,781	-33,809	0,040	0,016
-352,766	249,266	-0,045	-0,056
-351,752	-200,000	0,002	0,065
-350,737	153,709	0,069	0,069
-349,723	481,021	0,035	-0,057
-348,708	-6,345	-0,090	-0,045
-347,693	-200,000	-0,023	0,090
-346,679	800,000	-0,048	0,100
-345,664	-71,036	0,086	0,024
-344,650	-200,000	-0,007	0,083
-343,635	-200,000	0,082	-0,000
-342,620	64,870	-0,039	0,029
-341,606	800,000	-0,055	-0,132
-340,591	575,798	-0,061	-0,108
-339,577	315,172	-0,088	0,121
-338,562	-200,000	-0,004	-0,039
-337,548	-200,000	-0,024	-0,171
-336,533	26,270	0,028	-0,017
-335,518	455,301	-0,061	0,100
-334,504	-64,081	0,067	-0,020
-333,489	-200,000	-0,007	0,061
-332,475	667,352	-0,068	-0,129
-331,460	-200,000	0,009	-0,139
-330,445	-36,864	-0,082	-0,032
-329,431	-200,000	0,024	0,098
-328,416	-200,000	0,028	0,143
-327,402	-118,576	0,048	-0,006
-326,387	-115,265	0,140	0,019
-325,372	71,286	-0,095	-0,072
-324,358	800,000	0,080	-0,168
-323,343	-200,000	-0,005	-0,062
-322,329	-24,066	-0,005	-0,002
-321,314	-157,782	0,157	0,007
-320,299	-73,971	0,053	0,014
-319,285	800,000	-0,004	0,010
-318,270	-200,000	-0,030	-0,105
-317,256	71,518	-0,072	-0,054
-316,241	-41,207	0,052	0,019
-315,226	-200,000	-0,003	-0,125
-314,212	-24,011	0,130	0,057
-313,197	800,000	0,082	0,168
-312,183	-41,600	-0,049	0,018
-311,168	-80,519	-0,032	0,008
-310,153	-88,165	-0,171	-0,037
-309,139	77,491	0,036	-0,028
-308,124	-111,711	0,135	-0,020
-307,110	126,168	-0,049	0,045
-306,095	740,878	-0,040	0,078
-305,080	-28,110	0,121	-0,051
-304,066	261,163	-0,053	0,067
-303,051	-92,960	-0,046	-0,009
-302,037	800,000	0,038	-0,093
-301,022	-101,153	-0,126	-0,022
-300,008	800,000	-0,017	-0,038
-298,993	-200,000	-0,008	0,090
-297,978	103,472	0,045	-0,038
-296,964	-200,000	0,021	0,069
-295,949	-200,000	-0,014	-0,062
-294,935	-65,523	-0,035	-0,010
-293,920	422,390	0,039	0,062
-292,905	200,835	0,065	-0,073
-291,891	-200,000	0,023	0,089
-290,876	353,063	0,130	0,189
-289,862	-200,000	-0,007	-0,085
-288,847	-200,000	0,013	0,061
-287,832	800,000	0,025	-0,069
-286,818	519,830	0,035	0,059
-285,803	-40,134	0,118	0,044
-284,789	800,000	-0,064	0,173
-283,774	-200,000	-0,021	0,157
-282,759	-200,000	0,016	0,104
-281,745	800,000	-0,017	0,041
-280,730	23,387	-0,208	-0,124
-279,716	-65,327	0,091	-0,027
-278,701	-122,023	0,103	-0,012
-277,686	-200,000	0,013	0,042
-276,672	-21,715	-0,020	0,009
-275,657	480,696	-0,013	0,022
-274,643	-40,978	-0,016	-0,006
-273,628	438,020	-0,035	-0,056
-272,613	16,056	0,086	-0,049
-271,599	-17,633	0,050	0,023
-270,584	-91,687	0,030	-0,006
-269,570	-200,000	-0,012	-0,057
-268,555	198,267	0,062	0,069
-267,540	-70,085	-0,050	-0,014
-266,526	800,000	0,032	0,083
-265,511	-200,000	0,019	-0,088
-264,497	253,967	-0,031	0,039
-263,482	-135,478	0,054	-0,005
-262,467	182,198	-0,029	-0,031
-261,453	800,000	0,010	-0,024
-260,438	200,521	-0,038	-0,042
-259,424	65,943	0,071	-0,052
-258,409	-43,226	0,063	-0,023
-257,395	-121,208	-0,028	0,003
-256,380	-120,479	0,079	-0,010
-255,365	-200,000	-0,004	0,049
-254,351	7,022	-0,114	0,062
-253,336	-200,000	0,000	-0,071
-252,322	-200,000	0,021	-0,091
-251,307	534,937	-0,048	0,083
-250,292	-200,000	0,023	-0,107
-249,278	71,326	0,039	-0,029
-248,263	-200,000	-0,007	0,042
-247,249	-200,000	0,033	0,198
-246,234	-200,000	0,006	-0,053
-245,219	-66,044	0,188	0,054
-244,205	97,140	-0,100	-0,083
-243,190	156,127	0,043	-0,043
-242,176	-69,393	0,084	-0,023
-241,161	-111,286	0,127	-0,019
-240,146	-200,000	-0,016	-0,081
-239,132	277,665	-0,076	-0,098
-238,117	574,025	0,013	-0,023
-237,103	-49,970	-0,069	-0,024
-236,088	356,920	0,056	0,081
-235,073	-26,722	0,109	0,046
-234,059	431,351	-0,051	0,080
-233,044	800,000	-0,041	0,114
-232,030	-166,324	0,040	-0,001
-231,015	30,474	-0,116	0,072
-230,000	-200,000	-0,017	-0,155
-228,986	-49,556	-0,025	0,009
-227,971	-200,000	0,019	0,146
-226,957	-200,000	0,028	0,230
-225,942	800,000	-0,051	-0,127
-224,927	157,079	-0,032	0,032
-223,913	150,758	0,035	-0,035
-222,898	331,023	0,019	-0,027
-221,884	-42,129	-0,058	-0,021
-220,869	-11,178	0,118	0,056
-219,855	800,000	-0,052	0,112
-218,840	800,000	-0,040	-0,114
-217,825	-72,004	-0,071	-0,019
-216,811	6,059	0,079	-0,042
-215,796	-60,109	-0,138	0,042
-214,782	23,686	-0,105	-0,062
-213,767	55,082	-0,077	0,054
-212,752	-69,942	0,129	0,035
-211,738	-35,898	-0,082	-0,032
-210,723	77,198	0,062	-0,047
-209,709	-200,000	-0,021	-0,075
-208,694	-106,091	-0,122	-0,020
-207,679	338,303	-0,034	0,048
-206,665	-182,230	-0,127	-0,002
-205,650	-200,000	0,002	-0,012
-204,636	-149,489	0,045	0,003
-203,621	-192,281	-0,112	0,001
-202,606	-103,555	-0,052	0,009
-201,592	800,000	0,047	0,107
-200,577	2,148	-0,021	0,011
-199,563	229,219	-0,141	-0,167
-198,548	-118,095	0,167	0,021
-197,533	-200,000	-0,023	-0,075
-196,519	-104,223	-0,152	-0,025
-195,504	129,664	-0,069	-0,063
-194,490	-55,281	-0,103	-0,033
-193,475	-138,155	-0,112	0,009
-192,460	-80,309	-0,096	-0,023
-191,446	-200,000	-0,012	-0,161
-190,431	91,568	0,128	0,104
-189,417	-156,247	-0,087	0,004
-188,402	-200,000	0,004	-0,140
-187,387	-130,774	-0,095	-0,009
-186,373	413,859	-0,031	0,048
-185,358	426,980	-0,057	-0,089
-184,344	227,034	0,059	-0,070
-183,329	-136,966	-0,111	0,009
-182,315	800,000	-0,022	0,058
-181,300	520,232	-0,068	0,116
-180,285	-34,044	-0,062	0,024
-179,271	-200,000	-0,021	0,084
-178,256	378,773	-0,095	-0,141
-177,242	264,191	-0,050	0,063
-176,227	-57,609	0,123	0,039
-175,212	800,000	0,014	0,038
-174,198	-115,128	0,085	0,012
-173,183	-200,000	0,011	-0,038
-172,169	-57,743	-0,074	0,023
-171,154	161,627	-0,018	0,018
-170,139	146,043	-0,095	0,092
-169,125	-21,880	0,032	0,014
-168,110	-54,424	0,071	-0,023
-167,096	-200,000	-0,024	0,077
-166,081	-142,926	-0,148	0,010
-165,066	52,490	-0,071	-0,049
-164,052	800,000	0,033	-0,079
-163,037	-200,000	0,029	0,106
-162,023	173,753	0,047	0,049
-161,008	388,982	-0,020	-0,030
-159,993	800,000	0,028	0,059
-158,979	5,216	0,081	-0,043
-157,964	-200,000	-0,018	-0,142
-156,950	-18,453	-0,152	-0,068
-155,935	-200,000	-0,028	0,093
-154,920	-200,000	0,019	-0,062
-153,906	19,354	0,044	-0,026
-152,891	-10,316	-0,202	0,097
-151,877	-200,000	0,000	0,003
-150,862	-191,694	-0,061	0,000
-149,847	-71,109	-0,059	0,016
-148,833	-156,481	-0,207	0,009
-147,818	-200,000	-0,001	0,109
-146,804	-200,000	-0,006	0,000
-145,789	-200,000	-0,010	0,052
-144,775	800,000	0,027	0,055
-143,760	376,727	0,020	0,030
-142,745	153,702	-0,033	-0,032
-141,731	-35,395	0,095	0,037
-140,716	224,818	-0,030	0,035
-139,702	-200,000	0,002	0,081
-138,687	-11,936	0,078	-0,037
-137,672	-200,000	-0,009	-0,060
-136,658	68,614	-0,031	-0,023
-135,643	-41,766	0,133	-0,049
-134,629	410,834	-0,038	-0,059
-133,614	-200,000	0,040	0,000
-132,599	16,419	0,088	0,050
-131,585	-60,717	0,082	0,025
-130,570	52,063	-0,049	0,034
-129,556	-46,145	-0,035	-0,012
-128,541	-113,318	-0,091	0,013
-127,526	800,000	0,055	-0,122
-126,512	625,423	0,028	0,051
-125,497	-25,536	0,085	0,036
-124,483	-29,450	-0,125	0,052
-123,468	365,402	-0,101	-0,148
-122,453	-14,444	-0,134	0,062
-121,439	800,000	0,072	0,160
-120,424	800,000	0,037	-0,098
-119,410	-200,000	0,001	-0,019
-118,395	-68,037	0,115	0,032
-117,380	800,000	-0,011	-0,028
-116,366	-200,000	0,004	0,061
-115,351	-200,000	-0,015	-0,075
-114,337	73,714	-0,121	-0,091
-113,322	96,220	-0,046	-0,038
-112,307	465,827	-0,051	0,083
-111,293	-121,095	0,102	-0,012
-110,278	-200,000	0,011	0,069
-109,264	-200,000	-0,004	0,089
-108,249	800,000	-0,037	0,108
-107,234	-110,615	-0,109	-0,016
-106,220	800,000	-0,062	-0,158
-105,205	177,686	0,130	-0,137
-104,191	258,186	0,043	0,053
-103,176	-200,000	-0,021	0,091
-102,162	-87,231	-0,149	-0,032
-101,147	144,011	0,018	-0,018
-100,132	167,200	-0,093	-0,095
-99,118	800,000	0,024	-0,056
-98,103	800,000	-0,022	-0,057
-97,089	728,423	-0,017	-0,033
-96,074	-200,000	0,005	-0,029
-95,059	124,253	-0,044	0,040
-94,045	800,000	-0,042	-0,104
-93,030	116,302	-0,052	-0,046
-92,016	61,807	-0,018	-0,013
-91,001	63,322	0,031	0,022
-89,986	-151,874	-0,075	0,004
-88,972	800,000	0,061	0,130
-87,957	43,966	-0,041	0,027
-86,943	438,452	0,015	-0,023
-85,928	-200,000	0,006	0,030
-84,913	-131,157	-0,023	0,002
-83,899	277,304	0,092	0,118
-82,884	-71,637	0,097	0,026
-81,870	86,628	0,056	0,045
-80,855	-117,813	0,106	0,014
-79,840	79,261	0,070	-0,054
-78,826	30,026	0,074	-0,046
-77,811	800,000	0,014	0,032
-76,797	-200,000	-0,042	-0,167
-75,782	-200,000	-0,016	0,074
-74,767	-109,797	0,154	-0,023
-73,753	-1,890	-0,108	0,055
-72,738	-40,098	0,077	0,029
-71,724	118,766	-0,039	-0,035
-70,709	276,503	0,014	-0,018
-69,694	32,850	0,078	-0,049
-68,680	537,152	0,042	-0,073
-67,665	113,781	0,102	0,089
-66,651	680,031	-0,062	0,116
-65,636	800,000	-0,016	-0,046
-64,622	-163,512	-0,089	-0,003
-63,607	-200,000	-0,016	-0,153
-62,592	800,000	0,049	0,151
-61,578	225,696	-0,088	-0,103
-60,563	-99,900	0,159	0,028
-59,549	800,000	-0,026	-0,075
-58,534	-18,206	-1,729	-0,777
-57,519	692,363	-0,586	-1,112
-56,505	-200,000	-1,117	-4,738
-55,490	-11,091	0,673	0,319
-54,476	800,000	5,092	11,706
-53,461	-200,000	16,326	275,028
-52,446	800,000	709,534	2227,255
-51,432	560,159	1623,061	2836,899
-50,417	122,842	1620,448	1461,550
-49,403	86,685	1281,324	1018,144
-48,388	37,094	1027,526	654,065
-47,373	21,295	990,133	578,107
-46,359	20,147	978,317	567,408
-45,344	18,110	974,261	558,347
-44,330	18,266	972,997	558,115
-43,315	17,880	971,268	555,834
-42,300	17,825	970,332	555,098
-41,286	17,846	969,276	554,539
-40,271	17,809	968,290	553,833
-39,257	17,808	967,422	553,311
-38,242	17,808	966,701	552,878
-37,227	17,771	966,011	552,340
-36,213	17,750	965,117	551,738
-35,198	17,779	964,159	551,262
-34,184	17,818	963,363	550,912
-33,169	17,759	962,400	550,150
-32,154	17,822	961,556	549,850
-31,140	17,786	960,666	549,201
-30,125	17,825	960,066	548,962
-29,111	17,813	959,239	548,430
-28,096	17,868	958,494	548,158
-27,082	17,831	957,808	547,626
-26,067	17,744	957,213	546,983
-25,052	17,754	956,373	546,513
-24,038	17,772	955,670	546,149
-23,023	17,731	954,825	545,511
-22,009	17,826	954,327	545,511
-20,994	17,791	953,641	544,985
-19,979	17,780	952,916	544,515
-18,965	17,726	952,384	544,015
-17,950	17,757	951,923	543,829
-16,936	17,699	951,198	543,207
-15,921	17,708	950,548	542,845
-14,906	17,649	949,665	542,128
-13,892	17,635	949,121	541,753
-12,877	17,621	948,531	541,348
-11,863	17,600	947,848	540,872
-10,848	17,607	947,238	540,523
-9,833	17,763	946,762	540,727
-8,819	17,681	946,192	540,120
-7,804	17,642	945,742	539,718
-6,790	17,636	945,025	539,267
-5,775	17,669	944,506	539,056
-4,760	17,744	943,652	538,784
-3,746	17,648	943,145	538,168
-2,731	17,514	942,488	537,348
-1,717	17,508	941,831	536,931
-0,702	17,537	940,935	536,492
0,313	17,272	940,328	536,115
1,327	19,829	938,155	542,913
2,342	26,989	810,842	488,659
3,356	21,195	513,922	299,716
4,371	-0,988	384,824	195,435
5,386	-3,624	368,129	183,617
6,400	-4,862	361,982	178,997
7,415	-5,527	359,010	176,694
8,429	-5,767	357,400	175,592
9,444	-5,791	356,328	175,020
10,459	-6,080	355,764	174,374
11,473	-5,984	355,002	174,102
12,488	-5,849	354,364	173,938
13,502	-5,962	353,874	173,545
14,517	-6,238	353,319	172,923
15,531	-6,612	352,798	172,199
16,546	-6,603	352,174	171,890
17,561	-6,521	351,554	171,671
18,575	-6,714	351,592	171,443
19,590	-6,768	351,048	171,096
20,604	-6,588	350,552	171,056
21,619	-6,770	350,108	170,605
22,634	-6,660	349,829	170,587
23,648	-6,701	349,334	170,281
24,663	-6,849	349,184	170,015
25,677	-6,656	348,613	169,953
26,692	-6,812	348,598	169,744
27,707	-6,698	348,148	169,646
28,721	-6,863	348,011	169,367
29,736	-6,754	347,484	169,225
30,750	-6,590	347,039	169,189
31,765	-6,758	346,838	168,875
32,780	-6,882	346,682	168,638
33,794	-6,890	346,343	168,448
34,809	-6,772	346,033	168,422
35,823	-6,868	345,701	168,132
36,838	-6,765	345,606	168,192
37,853	-6,807	344,926	167,797
38,867	-6,849	344,838	167,690
39,882	-6,882	344,594	167,517
40,896	-6,808	344,243	167,419
41,911	-6,930	343,946	167,115
42,926	-6,865	343,525	166,973
43,940	-7,003	343,357	166,714
44,955	-6,970	343,123	166,624
45,969	-6,947	342,608	166,386
46,984	-7,190	342,367	165,969
47,999	-7,289	342,025	165,673
49,013	-7,489	341,752	165,293
50,028	-7,515	341,713	165,228
51,042	-7,453	341,246	165,060
52,057	-7,509	341,048	164,884
53,071	-7,475	340,817	164,798
54,086	-7,522	340,419	164,536
55,101	-7,381	340,246	164,602
56,115	-7,101	339,959	164,774
57,130	-6,817	340,067	165,141
58,144	-6,460	339,687	165,357
59,159	-6,365	339,382	165,303
60,174	-6,593	339,361	165,015
61,188	-6,460	338,992	164,974
62,203	-6,704	338,725	164,547
63,217	-6,578	338,400	164,520
64,232	-6,657	337,971	164,206
65,247	-6,421	337,835	164,397
66,261	-6,491	337,484	164,131
67,276	-6,901	337,244	163,528
68,290	-7,038	336,858	163,169
69,305	-6,971	336,609	163,110
70,320	-6,992	336,297	162,920
71,334	-6,911	336,148	162,926
72,349	-6,608	336,059	163,217
73,363	-6,474	335,688	163,176
74,378	-6,566	335,484	162,956
75,393	-6,578	335,134	162,758
76,407	-6,629	334,879	162,561
77,422	-6,693	334,558	162,318
78,436	-6,571	334,294	162,315
79,451	-6,460	334,116	162,340
80,466	-6,910	333,681	161,602
81,480	-7,033	333,379	161,302
82,495	-7,146	333,200	161,072
83,509	-6,859	332,898	161,238
84,524	-7,186	332,614	160,714
85,539	-7,354	332,393	160,403
86,553	-7,324	332,044	160,255
87,568	-7,159	331,928	160,371
88,582	-7,117	331,672	160,281
89,597	-7,004	331,373	160,250
90,611	-6,804	331,365	160,457
91,626	-6,803	331,116	160,324
92,641	-6,696	330,685	160,221
93,655	-6,824	330,497	159,972
94,670	-6,914	330,190	159,708
95,684	-6,950	329,990	159,556
96,699	-6,842	329,800	159,571
97,714	-6,937	329,494	159,302
98,728	-7,293	329,084	158,691
99,743	-7,168	328,825	158,692
100,757	-7,284	328,657	158,467
101,772	-7,042	328,358	158,579
102,787	-7,041	328,165	158,473
103,801	-7,064	327,965	158,336
104,816	-6,963	327,796	158,354
105,830	-6,903	327,771	158,394
106,845	-6,668	327,442	158,482
107,860	-6,753	327,293	158,302
108,874	-6,852	326,929	158,002
109,889	-6,797	326,609	157,894
110,903	-6,803	326,368	157,757
111,918	-6,927	326,172	157,510
112,933	-6,784	325,827	157,488
113,947	-6,847	325,830	157,406
114,962	-6,654	325,435	157,415
115,976	-6,666	325,290	157,317
116,991	-6,784	325,037	157,050
118,006	-6,850	324,859	156,877
119,020	-6,660	324,689	156,991
120,035	-6,530	324,497	157,028
121,049	-6,700	324,205	156,685
122,064	-6,622	324,071	156,692
123,079	-6,734	323,688	156,370
124,093	-7,002	323,424	155,933
125,108	-6,946	323,028	155,790
126,122	-7,126	322,716	155,429
127,137	-7,282	322,653	155,213
128,151	-7,206	322,353	155,138
129,166	-6,977	322,012	155,212
130,181	-7,002	321,803	155,069
131,195	-7,150	321,686	154,837
132,210	-7,035	321,519	154,868
133,224	-6,819	321,271	154,971
134,239	-6,703	321,115	155,008
135,254	-6,742	320,806	154,802
136,268	-6,872	320,552	154,525
137,283	-7,265	320,388	154,004
138,297	-7,155	319,844	153,849
139,312	-7,032	319,724	153,910
140,327	-6,661	319,643	154,260
141,341	-6,385	319,611	154,531
142,356	-6,374	319,517	154,483
143,370	-6,213	319,272	154,525
144,385	-6,216	318,974	154,364
145,400	-6,430	318,768	154,020
146,414	-6,173	318,457	154,132
147,429	-6,415	318,326	153,794
148,443	-6,465	318,179	153,656
149,458	-6,457	317,827	153,481
150,473	-6,310	317,528	153,481
151,487	-6,502	317,400	153,199
152,502	-6,451	317,150	153,119
153,516	-6,330	316,917	153,123
154,531	-6,304	316,712	153,039
155,546	-6,546	316,598	152,709
156,560	-6,483	316,333	152,636
157,575	-6,468	315,820	152,391
158,589	-6,423	315,686	152,360
159,604	-6,379	315,701	152,401
160,619	-6,343	315,375	152,269
161,633	-6,243	315,158	152,258
162,648	-6,421	315,137	152,044
163,662	-6,312	314,784	151,976
164,677	-6,466	314,618	151,718
165,692	-6,499	314,616	151,669
166,706	-6,331	314,348	151,704
167,721	-6,179	313,963	151,667
168,735	-6,020	313,718	151,704
169,750	-6,332	313,737	151,368
170,764	-6,176	313,521	151,416
171,779	-6,124	313,249	151,327
172,794	-6,193	313,050	151,143
173,808	-6,608	312,831	150,585
174,823	-7,020	312,303	149,882
175,837	-6,918	312,037	149,849
176,852	-6,561	312,107	150,247
177,867	-6,230	311,944	150,504
178,881	-6,207	311,772	150,432
179,896	-6,221	311,557	150,300
180,910	-6,169	311,355	150,243
181,925	-6,109	311,079	150,160
182,940	-6,070	310,986	150,142
183,954	-6,106	310,725	149,965
184,969	-6,131	310,478	149,807
185,983	-6,198	310,334	149,653
186,998	-6,123	310,187	149,647
188,013	-6,202	309,942	149,433
189,027	-6,107	309,681	149,393
190,042	-6,008	309,467	149,380
191,056	-5,877	309,338	149,442
192,071	-5,834	309,135	149,376
193,086	-5,968	308,888	149,103
194,100	-5,894	308,655	149,054
195,115	-6,006	308,467	148,833
196,129	-6,040	308,103	148,609
197,144	-6,013	307,938	148,544
198,159	-5,922	307,776	148,547
199,173	-6,066	307,444	148,225
200,188	-5,816	307,164	148,335
201,202	-6,208	306,931	147,804
202,217	-6,970	306,617	146,851
203,232	-6,751	306,291	146,908
204,246	-6,469	306,335	147,207
205,261	-5,913	306,071	147,642
206,275	-6,120	305,965	147,364
207,290	-5,897	305,721	147,462
208,304	-6,103	305,589	147,174
209,319	-5,914	305,425	147,276
210,334	-6,003	305,136	147,033
211,348	-6,147	305,044	146,827
212,363	-6,011	304,936	146,902
213,377	-6,158	304,680	146,614
214,392	-6,085	304,340	146,512
215,407	-6,384	304,028	146,042
216,421	-6,681	303,805	145,619
217,436	-6,545	303,553	145,624
218,450	-6,497	303,409	145,591
219,465	-6,343	303,347	145,705
220,480	-6,304	303,022	145,576
221,494	-6,299	302,936	145,527
222,509	-6,351	302,785	145,389
223,523	-6,202	302,738	145,505
224,538	-6,198	302,603	145,431
225,553	-6,159	302,343	145,333
226,567	-5,913	302,208	145,505
227,582	-5,884	301,933	145,389
228,596	-6,031	301,839	145,181
229,611	-5,803	301,472	145,223
230,626	-6,003	301,222	144,887
231,640	-6,564	300,929	144,166
232,655	-6,889	300,414	143,577
233,669	-6,960	300,340	143,457
234,684	-6,743	300,043	143,522
235,699	-6,944	300,035	143,302
236,713	-6,737	299,813	143,392
237,728	-6,609	299,827	143,516
238,742	-6,507	299,650	143,520
239,757	-6,240	299,412	143,663
240,772	-6,234	299,449	143,674
241,786	-6,218	299,011	143,467
242,801	-6,395	298,648	143,103
243,815	-6,501	298,599	142,960
244,830	-6,393	298,395	142,958
245,844	-6,552	298,216	142,699
246,859	-6,360	297,897	142,727
247,874	-6,327	297,643	142,625
248,888	-6,276	297,684	142,683
249,903	-6,171	297,571	142,721
250,917	-6,107	297,453	142,716
251,932	-5,774	297,328	142,975
252,947	-4,927	297,541	143,911
253,961	-4,691	297,299	144,017
254,976	-4,215	297,485	144,569
255,990	-3,472	297,572	145,339
257,005	-3,669	297,404	145,048
258,020	-1,282	298,170	147,793
259,034	-0,392	298,433	148,799
260,049	-0,268	298,199	148,792
261,063	-0,072	298,180	148,966
262,078	0,413	298,162	149,427
263,093	0,377	297,972	149,283
264,107	0,495	297,782	149,291
265,122	0,352	297,578	149,033
266,136	0,509	297,459	149,117
267,151	0,631	297,040	149,014
268,166	0,609	296,987	148,953
269,180	0,650	296,846	148,909
270,195	0,668	296,693	148,837
271,209	0,576	296,484	148,628
272,224	0,540	296,288	148,481
273,239	0,736	296,158	148,596
274,253	0,598	295,975	148,355
275,268	0,642	295,646	148,220
276,282	0,569	295,566	148,094
277,297	0,662	295,276	148,028
278,312	0,618	295,080	147,873
279,326	0,670	294,910	147,826
280,341	0,655	294,761	147,723
281,355	0,716	294,589	147,684
282,370	0,865	294,245	147,644
283,384	0,660	294,155	147,385
284,399	0,523	293,929	147,124
285,414	0,476	293,657	146,929
286,428	0,595	293,642	147,025
287,443	0,487	293,550	146,860
288,457	0,517	293,191	146,697
289,472	0,432	293,040	146,525
290,487	0,745	292,770	146,682
291,501	0,506	292,719	146,410
292,516	0,597	292,309	146,281
293,530	0,443	292,276	146,101
294,545	0,520	292,112	146,082
295,560	0,530	291,893	145,968
296,574	0,675	291,776	146,038
297,589	0,752	291,470	145,946
298,603	0,660	291,222	145,720
299,618	0,467	291,160	145,489
300,633	0,566	291,032	145,508
301,647	0,440	290,842	145,278
302,662	0,501	290,562	145,184
303,676	0,560	290,282	145,089
304,691	0,561	290,345	145,107
305,706	0,588	289,963	144,931
306,720	0,507	289,799	144,756
307,735	0,445	289,636	144,603
308,749	0,506	289,536	144,599
309,764	0,463	289,221	144,387
310,779	0,472	288,987	144,266
311,793	0,792	288,769	144,452
312,808	0,719	288,565	144,266
313,822	0,568	288,433	144,043
314,837	0,713	288,258	144,082
315,852	0,604	287,994	143,833
316,866	0,444	288,069	143,704
317,881	0,606	287,800	143,713
318,895	0,531	287,535	143,495
319,910	0,485	287,377	143,360
320,925	0,557	287,097	143,276
321,939	0,520	287,073	143,215
322,954	0,587	286,963	143,213
323,968	0,661	286,672	143,125
324,983	0,510	286,607	142,936
325,997	0,558	286,303	142,816
327,012	0,546	286,033	142,659
328,027	0,582	285,786	142,556
329,041	0,655	285,796	142,618
330,056	0,612	285,650	142,492
331,070	0,653	285,379	142,383
332,085	0,757	285,056	142,307
333,100	0,569	285,001	142,089
334,114	0,665	284,777	142,056
335,129	0,606	284,607	141,902
336,143	0,703	284,340	141,848
337,158	0,605	284,216	141,681
338,173	0,657	283,953	141,586
339,187	0,472	283,932	141,389
340,202	0,756	283,665	141,510
341,216	0,693	283,647	141,430
342,231	0,735	283,300	141,283
343,246	0,617	283,263	141,142
344,260	0,754	282,956	141,105
345,275	0,708	282,922	141,032
346,289	0,541	282,730	140,767
347,304	0,548	282,512	140,652
348,319	0,683	282,343	140,682
349,333	0,814	282,025	140,634
350,348	0,632	281,759	140,319
351,362	0,873	281,576	140,440
352,377	0,646	281,628	140,242
353,392	0,811	281,551	140,345
354,406	0,871	281,215	140,221
355,421	192,252	1327,806	1400,262
356,435	155,636	1455,324	1400,288
