DTS Sentinel unit serial number:	SN410029Multiplexer serial number:	ORYXHardware model number:	OX2-SRSoftware version number:	ORYX F/W v4,00 Oryx Data Collector v3.7.2.0data status	okinstallation	B4 Nyhavnadifferential loss correction	single-endedforward channel	channel 2reverse channel	N/Adate	2023/12/15time	16:50:13forward acquisition time	300,00reverse acquisition time	0,00gamma	499,1914k internal	0,3144k external	0,3144temperature offset calibration	1,0000default loss term (dB/km)	0,3820temperature slope calibration	1,0000multiplexer offset coefficient	1,0000multiplexer slope coefficient	1,0000fibre end	0,00T internal ref (°C)	17,82T ext. ref 1 (°C)	3,67T ext. ref 2 (°C)	3,82length (m)	temperature (°C)	Stokes	anti-Stokes-744,400	-43,557	0,091	-0,034
-743,385	-11,546	-0,213	0,103
-742,371	-76,500	0,109	-0,028
-741,356	-46,999	-0,147	0,053
-740,342	126,913	0,158	0,148
-739,327	-36,539	-0,289	0,115
-738,312	28,465	0,150	0,094
-737,298	-92,577	-0,351	0,072
-736,283	-200,000	0,019	0,123
-735,269	-74,651	-0,274	0,072
-734,254	-200,000	0,018	0,094
-733,239	-116,288	-0,401	-0,054
-732,225	-64,459	0,169	0,050
-731,210	-4,479	-0,092	-0,047
-730,196	761,802	-0,045	0,091
-729,181	-200,000	-0,015	0,084
-728,167	385,266	0,033	-0,051
-727,152	-8,125	-0,124	-0,062
-726,137	5,986	-0,101	0,055
-725,123	130,527	-0,091	0,087
-724,108	-200,000	0,011	-0,089
-723,094	-200,000	-0,033	-0,209
-722,079	800,000	-0,029	-0,081
-721,064	605,984	-0,054	0,100
-720,050	-200,000	0,013	0,196
-719,035	13,126	-0,168	0,096
-718,021	-200,000	0,003	-0,030
-717,006	446,934	0,057	-0,093
-715,991	800,000	0,052	-0,160
-714,977	800,000	0,056	-0,157
-713,962	-26,561	-0,073	0,031
-712,948	-200,000	0,030	-0,118
-711,933	-200,000	0,002	-0,056
-710,918	-133,284	-0,041	0,004
-709,904	800,000	-0,059	-0,151
-708,889	-61,945	-0,151	-0,046
-707,875	-115,624	-0,137	-0,019
-706,860	139,215	-0,100	-0,097
-705,845	-200,000	-0,010	0,045
-704,831	-200,000	0,020	0,120
-703,816	-117,471	-0,082	-0,011
-702,802	-15,515	-0,060	0,028
-701,787	41,009	-0,083	-0,055
-700,772	584,258	-0,036	-0,066
-699,758	-200,000	0,011	-0,096
-698,743	-24,814	-0,053	0,023
-697,729	800,000	-0,033	0,079
-696,714	338,841	-0,047	0,068
-695,699	-200,000	-0,000	-0,127
-694,685	800,000	-0,056	-0,132
-693,670	514,797	-0,030	-0,053
-692,656	-200,000	0,006	-0,025
-691,641	-23,603	0,085	0,038
-690,627	491,677	-0,051	0,087
-689,612	53,410	-0,140	-0,099
-688,597	800,000	-0,030	0,077
-687,583	-35,736	0,116	0,046
-686,568	54,296	-0,034	-0,024
-685,554	-51,616	0,144	-0,049
-684,539	137,238	0,013	0,012
-683,524	334,357	-0,045	0,065
-682,510	-115,687	0,071	0,010
-681,495	146,720	-0,087	-0,086
-680,481	-4,189	-0,114	-0,058
-679,466	-200,000	-0,014	0,084
-678,451	-200,000	-0,029	-0,214
-677,437	800,000	-0,030	-0,063
-676,422	-94,577	0,102	0,020
-675,408	-200,000	0,018	0,142
-674,393	-77,937	-0,107	-0,027
-673,378	-66,494	-0,085	0,025
-672,364	65,328	-0,071	-0,053
-671,349	-92,764	-0,070	-0,014
-670,335	176,189	0,015	0,016
-669,320	48,597	0,047	-0,033
-668,305	120,598	0,077	0,071
-667,291	-44,451	0,075	0,028
-666,276	-89,249	-0,194	0,042
-665,262	-177,707	-0,056	0,001
-664,247	-180,612	0,107	-0,002
-663,232	800,000	-0,021	-0,064
-662,218	121,724	0,043	-0,040
-661,203	29,819	-0,127	0,080
-660,189	-48,755	-0,112	0,040
-659,174	295,166	-0,116	-0,158
-658,159	112,219	0,075	-0,067
-657,145	800,000	-0,055	-0,147
-656,130	-41,816	-0,064	-0,024
-655,116	269,912	-0,078	0,102
-654,101	-59,592	0,083	0,026
-653,086	-29,657	0,089	-0,037
-652,072	145,415	-0,057	-0,056
-651,057	76,560	-0,111	-0,087
-650,043	22,291	-0,072	-0,043
-649,028	800,000	0,034	-0,098
-648,014	-200,000	0,019	0,081
-646,999	438,795	0,012	-0,020
-645,984	-200,000	-0,018	-0,063
-644,970	372,379	-0,104	-0,157
-643,955	356,122	0,060	-0,088
-642,941	-200,000	0,010	-0,040
-641,926	432,972	0,037	0,059
-640,911	175,494	-0,032	-0,034
-639,897	16,066	-0,064	-0,037
-638,882	-200,000	-0,017	-0,074
-637,868	-200,000	-0,025	-0,098
-636,853	-25,208	0,064	-0,028
-635,838	294,972	-0,059	-0,080
-634,824	463,879	0,029	-0,048
-633,809	-9,660	0,035	0,017
-632,795	-200,000	0,023	-0,084
-631,780	800,000	0,021	0,059
-630,765	115,446	-0,068	-0,061
-629,751	-114,171	-0,067	0,009
-628,736	216,023	-0,054	-0,063
-627,722	800,000	0,076	-0,162
-626,707	-79,684	-0,081	-0,020
-625,692	325,550	0,068	-0,096
-624,678	395,624	0,044	-0,068
-623,663	800,000	-0,035	0,076
-622,649	-99,938	0,056	0,010
-621,634	682,095	0,034	-0,065
-620,619	-47,383	0,124	-0,044
-619,605	-200,000	-0,002	0,010
-618,590	300,605	0,061	0,083
-617,576	706,854	-0,060	0,118
-616,561	11,622	-0,021	-0,012
-615,546	-121,667	-0,104	-0,012
-614,532	268,633	-0,062	-0,080
-613,517	325,570	-0,009	-0,013
-612,503	800,000	-0,033	-0,099
-611,488	184,384	-0,051	-0,056
-610,474	89,850	-0,034	0,028
-609,459	-200,000	-0,017	0,055
-608,444	-30,808	-0,085	0,035
-607,430	171,488	-0,033	-0,035
-606,415	-97,911	-0,147	0,028
-605,401	-12,611	0,063	-0,030
-604,386	50,863	0,135	-0,094
-603,371	14,141	-0,031	0,018
-602,357	-167,151	-0,129	-0,004
-601,342	325,834	-0,104	-0,147
-600,328	409,649	0,051	0,081
-599,313	-200,000	0,039	-0,152
-598,298	41,067	-0,048	-0,032
-597,284	-200,000	0,015	0,058
-596,269	231,432	0,005	0,006
-595,255	196,558	0,080	0,090
-594,240	-4,975	-0,139	0,070
-593,225	418,110	-0,031	0,048
-592,211	800,000	0,064	-0,148
-591,196	-101,550	-0,094	0,017
-590,182	108,133	0,039	0,035
-589,167	-200,000	0,006	-0,091
-588,152	-135,910	0,127	-0,011
-587,138	542,574	-0,088	-0,155
-586,123	-200,000	-0,014	-0,051
-585,109	468,987	0,032	-0,053
-584,094	800,000	-0,036	-0,110
-583,079	335,538	0,032	-0,046
-582,065	-148,402	0,056	-0,003
-581,050	-2,840	0,053	0,027
-580,036	-100,714	0,028	0,005
-579,021	800,000	0,011	-0,023
-578,006	0,450	0,026	-0,013
-576,992	-125,431	0,014	0,002
-575,977	-200,000	0,020	-0,150
-574,963	428,630	-0,033	0,053
-573,948	800,000	-0,021	-0,052
-572,934	-200,000	0,007	0,050
-571,919	800,000	0,034	-0,109
-570,904	-200,000	-0,007	-0,055
-569,890	-200,000	0,015	-0,102
-568,875	800,000	-0,031	-0,074
-567,861	-100,132	0,089	-0,016
-566,846	59,994	0,146	0,106
-565,831	-200,000	0,013	0,088
-564,817	723,732	0,011	0,022
-563,802	800,000	-0,019	0,043
-562,788	793,096	-0,049	0,100
-561,773	-200,000	-0,041	0,188
-560,758	133,130	0,121	0,115
-559,744	-65,004	-0,155	0,046
-558,729	241,195	0,089	-0,110
-557,715	-85,673	-0,015	0,003
-556,700	145,479	-0,087	-0,085
-555,685	-34,431	-0,092	-0,037
-554,671	116,721	-0,046	-0,042
-553,656	-200,000	-0,010	0,046
-552,642	-200,000	-0,003	-0,024
-551,627	-200,000	0,006	-0,099
-550,612	69,394	0,049	0,037
-549,598	154,018	-0,122	-0,123
-548,583	356,877	0,031	-0,045
-547,569	132,857	0,090	-0,085
-546,554	96,686	0,090	-0,075
-545,539	116,438	-0,047	-0,043
-544,525	-191,604	0,065	0,000
-543,510	-173,367	0,119	-0,003
-542,496	-8,238	0,020	0,010
-541,481	36,921	0,032	0,021
-540,466	66,681	0,037	0,028
-539,452	-200,000	-0,016	-0,071
-538,437	306,098	0,060	0,082
-537,423	-61,103	0,106	-0,033
-536,408	-40,843	-0,023	-0,009
-535,393	373,798	-0,003	0,005
-534,379	18,965	0,026	-0,015
-533,364	161,199	-0,069	0,071
-532,350	-93,194	0,301	0,061
-531,335	53,930	-0,055	-0,039
-530,321	800,000	0,057	0,138
-529,306	437,603	0,041	0,065
-528,291	-37,687	-0,105	-0,041
-527,277	-135,195	-0,120	-0,010
-526,262	-200,000	-0,002	-0,050
-525,248	800,000	0,060	-0,166
-524,233	-59,167	0,012	-0,004
-523,218	46,904	0,127	-0,086
-522,204	800,000	-0,017	0,043
-521,189	-200,000	-0,033	-0,117
-520,175	216,842	0,055	0,065
-519,160	440,881	-0,034	-0,055
-518,145	245,856	-0,022	0,027
-517,131	503,547	0,082	-0,140
-516,116	284,578	0,040	0,053
-515,102	-124,424	0,061	0,007
-514,087	70,918	0,047	0,035
-513,072	145,262	0,017	-0,016
-512,058	-146,752	0,032	0,002
-511,043	288,900	0,054	0,072
-510,029	139,107	0,127	0,123
-509,014	87,872	-0,112	0,091
-507,999	624,452	-0,054	-0,101
-506,985	720,263	0,022	0,044
-505,970	350,053	-0,116	0,168
-504,956	-200,000	0,010	-0,169
-503,941	-200,000	-0,017	0,066
-502,926	-95,162	0,074	0,015
-501,912	800,000	0,026	-0,055
-500,897	-3,538	-0,074	0,038
-499,883	345,918	-0,053	0,077
-498,868	-116,126	0,116	-0,016
-497,853	-138,201	-0,060	-0,005
-496,839	-200,000	-0,007	-0,032
-495,824	-35,035	0,074	0,029
-494,810	-30,519	0,149	0,062
-493,795	800,000	-0,003	-0,009
-492,781	279,446	0,075	0,098
-491,766	350,153	-0,094	-0,136
-490,751	-200,000	-0,010	0,049
-489,737	23,515	-0,129	-0,078
-488,722	78,549	0,143	0,112
-487,708	12,641	0,120	0,068
-486,693	157,389	0,031	-0,031
-485,678	-12,918	-0,121	0,057
-484,664	800,000	0,028	-0,058
-483,649	14,771	0,079	0,045
-482,635	4,714	-0,104	0,056
-481,620	63,339	-0,066	0,048
-480,605	-71,453	0,023	0,006
-479,591	259,240	0,129	0,164
-478,576	-141,102	-0,031	-0,002
-477,562	-200,000	0,016	-0,075
-476,547	-93,712	-0,108	0,022
-475,532	-200,000	0,021	-0,078
-474,518	800,000	0,012	-0,030
-473,503	89,607	-0,062	0,050
-472,489	-200,000	-0,002	0,053
-471,474	-200,000	0,029	-0,139
-470,459	-200,000	0,005	0,018
-469,445	-58,660	0,047	0,015
-468,430	-200,000	-0,002	-0,013
-467,416	800,000	-0,014	0,035
-466,401	-76,672	-0,058	-0,015
-465,386	71,117	0,093	-0,071
-464,372	-0,813	-0,130	0,067
-463,357	-104,662	-0,098	-0,016
-462,343	-2,479	-0,088	-0,045
-461,328	554,579	-0,038	-0,067
-460,313	800,000	-0,013	0,034
-459,299	-175,523	-0,048	-0,001
-458,284	-4,379	0,085	-0,043
-457,270	-22,800	0,114	0,050
-456,255	800,000	-0,006	0,012
-455,241	-200,000	0,009	-0,050
-454,226	-57,025	-0,088	-0,028
-453,211	-163,713	0,091	0,003
-452,197	16,526	-0,105	-0,061
-451,182	165,940	0,015	0,015
-450,168	-22,402	-0,042	0,018
-449,153	340,302	-0,039	-0,056
-448,138	-7,500	-0,104	-0,052
-447,124	-200,000	0,017	-0,078
-446,109	149,066	-0,062	0,062
-445,095	-200,000	-0,010	0,074
-444,080	-200,000	0,030	0,097
-443,065	-200,000	-0,002	0,042
-442,051	-174,557	0,206	-0,004
-441,036	-4,852	-0,054	-0,027
-440,022	17,257	-0,049	-0,028
-439,007	-200,000	-0,038	-0,130
-437,992	-105,604	0,055	0,009
-436,978	-74,405	-0,045	-0,012
-435,963	-22,293	-0,086	0,038
-434,949	-84,705	0,068	0,015
-433,934	95,588	0,034	-0,029
-432,919	800,000	-0,059	-0,164
-431,905	-200,000	-0,030	0,136
-430,890	665,660	0,034	-0,064
-429,876	154,410	-0,148	0,148
-428,861	-101,991	-0,118	-0,021
-427,846	66,007	-0,137	0,102
-426,832	-28,007	0,139	-0,058
-425,817	-98,339	0,104	-0,019
-424,803	17,261	-0,085	-0,049
-423,788	800,000	-0,084	0,191
-422,773	800,000	-0,023	0,053
-421,759	-200,000	-0,016	-0,076
-420,744	285,157	-0,060	-0,080
-419,730	-91,629	0,076	0,016
-418,715	-200,000	0,028	-0,157
-417,701	800,000	-0,045	-0,100
-416,686	494,431	0,047	0,079
-415,671	267,453	0,074	0,095
-414,657	650,826	0,032	0,060
-413,642	800,000	-0,008	0,017
-412,628	91,799	0,086	0,071
-411,613	-200,000	0,026	-0,100
-410,598	309,130	0,050	0,068
-409,584	712,405	0,016	0,031
-408,569	800,000	-0,045	0,113
-407,555	-86,554	0,125	0,028
-406,540	231,139	-0,064	0,077
-405,525	24,522	-0,067	-0,041
-404,511	-33,371	-0,113	0,045
-403,496	60,221	-0,050	-0,036
-402,482	-200,000	0,020	0,097
-401,467	-2,019	0,125	-0,064
-400,452	363,188	-0,029	-0,042
-399,438	241,272	-0,086	0,105
-398,423	43,001	-0,077	-0,051
-397,409	256,184	0,100	-0,125
-396,394	-23,811	0,033	-0,014
-395,379	638,499	0,029	-0,054
-394,365	238,680	-0,040	-0,049
-393,350	-64,540	-0,052	0,015
-392,336	-200,000	0,040	0,168
-391,321	-173,215	-0,124	0,003
-390,306	-83,380	-0,161	0,037
-389,292	-128,998	-0,007	0,001
-388,277	-46,522	0,101	-0,036
-387,263	105,554	-0,072	0,062
-386,248	182,282	0,060	0,065
-385,233	-38,272	0,101	0,039
-384,219	316,440	-0,062	0,086
-383,204	315,977	0,051	-0,071
-382,190	-200,000	-0,003	0,014
-381,175	-57,985	0,054	0,017
-380,160	-200,000	-0,028	0,197
-379,146	-200,000	-0,021	-0,087
-378,131	-44,613	0,100	-0,036
-377,117	-92,779	-0,121	0,024
-376,102	26,765	-0,031	-0,019
-375,088	20,758	0,048	0,028
-374,073	-200,000	-0,049	0,163
-373,058	-200,000	-0,026	0,094
-372,044	106,158	-0,022	0,019
-371,029	-200,000	0,026	-0,127
-370,015	97,597	-0,039	-0,032
-369,000	-66,087	0,129	0,037
-367,985	-200,000	-0,004	0,067
-366,971	342,946	0,035	0,049
-365,956	392,234	0,100	0,152
-364,942	63,114	0,078	0,057
-363,927	800,000	0,023	0,047
-362,912	-200,000	0,021	0,070
-361,898	-200,000	0,016	-0,101
-360,883	-32,925	-0,083	0,034
-359,869	219,473	0,050	-0,058
-358,854	800,000	0,037	-0,090
-357,839	69,902	-0,097	-0,073
-356,825	-140,367	-0,027	0,002
-355,810	216,857	0,068	-0,079
-354,796	-51,632	-0,078	-0,026
-353,781	-27,896	0,031	-0,013
-352,766	-200,000	0,002	0,007
-351,752	309,434	-0,018	0,025
-350,737	-189,342	0,091	-0,001
-349,723	-9,997	-0,077	0,037
-348,708	-133,900	0,103	-0,009
-347,693	-72,880	0,079	-0,021
-346,679	38,849	0,070	-0,045
-345,664	215,946	-0,062	0,072
-344,650	-200,000	0,012	0,074
-343,635	-21,562	0,109	-0,048
-342,620	-200,000	0,009	-0,131
-341,606	800,000	-0,015	0,044
-340,591	580,379	0,028	-0,051
-339,577	-79,053	0,095	-0,023
-338,562	297,646	0,079	-0,106
-337,548	637,506	0,052	-0,097
-336,533	-200,000	-0,012	-0,099
-335,518	30,467	0,080	0,049
-334,504	77,701	0,036	-0,028
-333,489	6,220	0,037	0,020
-332,475	-120,192	-0,087	-0,011
-331,460	-26,523	-0,089	-0,038
-330,445	143,185	0,089	0,086
-329,431	-136,044	0,021	0,002
-328,416	-51,474	0,059	0,020
-327,402	37,968	-0,120	-0,078
-326,387	291,095	0,030	0,040
-325,372	-200,000	0,008	-0,114
-324,358	-114,318	-0,058	0,008
-323,343	236,759	0,124	-0,149
-322,329	2,475	-0,043	0,023
-321,314	-200,000	-0,006	-0,029
-320,299	-200,000	0,021	0,101
-319,285	-45,566	0,153	-0,055
-318,270	69,248	-0,114	0,085
-317,256	800,000	0,037	-0,089
-316,241	-85,786	-0,099	-0,022
-315,226	105,140	0,076	0,065
-314,212	-200,000	0,002	0,073
-313,197	76,336	0,106	0,082
-312,183	-50,074	0,098	-0,034
-311,168	70,978	-0,038	0,029
-310,153	338,186	-0,022	0,032
-309,139	211,729	-0,007	-0,008
-308,124	97,589	0,104	-0,087
-307,110	-93,134	0,088	0,018
-306,095	205,932	-0,080	0,090
-305,080	378,705	-0,103	-0,153
-304,066	54,551	-0,027	-0,019
-303,051	-200,000	-0,013	-0,123
-302,037	-74,265	0,020	0,005
-301,022	-200,000	-0,034	0,149
-300,008	63,871	-0,039	0,029
-298,993	-126,001	-0,066	0,007
-297,978	-200,000	0,009	-0,053
-296,964	266,562	0,030	-0,039
-295,949	-99,506	0,119	-0,021
-294,935	142,372	-0,048	-0,047
-293,920	-36,686	-0,122	0,047
-292,905	36,977	0,063	-0,040
-291,891	-82,067	0,065	0,015
-290,876	800,000	-0,009	-0,028
-289,862	50,750	0,066	-0,045
-288,847	-120,183	0,030	-0,004
-287,832	159,696	-0,045	0,045
-286,818	-108,006	0,029	0,004
-285,803	-200,000	-0,050	0,201
-284,789	576,102	0,053	0,095
-283,774	-32,156	-0,108	-0,044
-282,759	-94,242	-0,055	0,011
-281,745	-200,000	-0,023	-0,094
-280,730	48,747	-0,079	0,054
-279,716	695,945	-0,027	-0,052
-278,701	-198,012	0,069	-0,000
-277,686	-200,000	0,019	-0,065
-276,672	-48,069	-0,121	0,042
-275,657	-200,000	-0,001	0,172
-274,643	-54,277	-0,121	-0,040
-273,628	800,000	0,020	0,051
-272,613	-34,742	0,091	0,036
-271,599	318,929	0,055	0,076
-270,584	-200,000	0,033	0,108
-269,570	-28,728	0,038	-0,016
-268,555	10,433	-0,068	-0,038
-267,540	183,036	-0,036	0,038
-266,526	-94,755	-0,029	0,006
-265,511	23,796	0,050	-0,030
-264,497	-200,000	0,008	0,070
-263,482	-144,309	-0,045	0,003
-262,467	571,938	-0,011	0,020
-261,453	-200,000	-0,016	0,085
-260,438	-200,000	-0,020	-0,148
-259,424	116,616	-0,074	-0,066
-258,409	45,780	-0,051	-0,035
-257,395	253,041	-0,041	-0,051
-256,380	44,846	0,057	0,038
-255,365	549,400	-0,040	0,070
-254,351	202,681	0,037	-0,042
-253,336	-200,000	-0,023	-0,078
-252,322	112,257	-0,106	-0,093
-251,307	-19,586	0,058	-0,026
-250,292	236,243	-0,149	0,179
-249,278	28,786	0,078	-0,048
-248,263	-200,000	-0,025	0,107
-247,249	69,239	0,178	0,133
-246,234	-200,000	-0,001	-0,068
-245,219	332,986	-0,080	0,112
-244,205	-165,309	-0,078	-0,002
-243,190	673,504	0,086	0,164
-242,176	-200,000	0,005	-0,026
-241,161	759,540	0,044	0,086
-240,146	176,234	0,080	0,084
-239,132	381,734	0,051	-0,076
-238,117	-200,000	-0,005	-0,105
-237,103	-75,555	-0,102	-0,026
-236,088	-69,659	0,096	0,027
-235,073	118,793	0,044	0,039
-234,059	-200,000	0,013	0,085
-233,044	800,000	0,060	0,159
-232,030	800,000	-0,074	0,153
-231,015	-200,000	0,016	-0,101
-230,000	800,000	-0,029	-0,089
-228,986	-200,000	-0,020	0,086
-227,971	-200,000	0,002	0,095
-226,957	-2,277	0,061	0,031
-225,942	-18,113	-0,088	0,040
-224,927	116,376	0,108	0,096
-223,913	-200,000	0,014	-0,147
-222,898	630,884	-0,002	0,003
-221,884	-74,289	-0,034	-0,009
-220,869	524,214	0,029	0,049
-219,855	57,197	0,084	0,059
-218,840	481,943	-0,016	-0,027
-217,825	800,000	-0,035	0,073
-216,811	-200,000	0,003	-0,077
-215,796	590,841	0,002	-0,004
-214,782	37,647	0,023	0,015
-213,767	554,222	0,018	0,031
-212,752	-200,000	0,035	0,126
-211,738	-200,000	0,034	0,162
-210,723	-102,675	-0,104	0,018
-209,709	189,079	0,034	-0,037
-208,694	-159,726	-0,154	0,006
-207,679	63,666	0,042	-0,030
-206,665	226,550	-0,009	-0,011
-205,650	537,045	0,041	0,070
-204,636	-74,067	-0,114	0,030
-203,621	-12,901	-0,087	0,041
-202,606	-23,295	-0,147	-0,064
-201,592	485,001	-0,058	-0,095
-200,577	77,965	-0,063	0,048
-199,563	24,345	-0,100	0,060
-198,548	-200,000	-0,008	0,151
-197,533	-155,732	-0,127	-0,006
-196,519	800,000	-0,046	-0,107
-195,504	228,921	-0,050	0,059
-194,490	-25,741	0,090	0,038
-193,475	-200,000	0,008	0,042
-192,460	540,053	-0,017	-0,030
-191,446	36,514	0,048	0,030
-190,431	587,616	-0,039	0,069
-189,417	-119,899	0,064	0,008
-188,402	427,768	-0,015	-0,024
-187,387	-140,378	-0,157	0,012
-186,373	49,254	-0,078	0,053
-185,358	-200,000	0,014	-0,108
-184,344	-200,000	-0,002	0,056
-183,329	556,178	0,040	0,070
-182,315	431,976	-0,107	0,168
-181,300	375,802	-0,074	-0,110
-180,285	-200,000	0,019	-0,129
-179,271	-57,408	-0,075	-0,024
-178,256	-115,874	-0,096	-0,013
-177,242	-138,193	-0,024	0,002
-176,227	320,069	0,031	-0,042
-175,212	24,232	-0,071	0,042
-174,198	0,037	-0,078	0,040
-173,183	-95,724	-0,056	-0,011
-172,169	-45,529	0,062	-0,022
-171,154	800,000	-0,064	-0,163
-170,139	78,900	0,142	-0,110
-169,125	1,472	0,085	-0,044
-168,110	800,000	0,026	0,061
-167,096	800,000	0,024	0,065
-166,081	41,384	0,054	-0,035
-165,066	13,787	0,035	0,019
-164,052	-200,000	0,011	0,037
-163,037	-77,145	0,072	0,018
-162,023	-164,225	0,046	0,002
-161,008	-55,694	0,054	-0,017
-159,993	800,000	0,024	-0,072
-158,979	-200,000	-0,042	-0,173
-157,964	-103,214	-0,105	-0,018
-156,950	800,000	0,009	-0,024
-155,935	-200,000	0,015	0,191
-154,920	-200,000	0,003	-0,016
-153,906	-59,698	0,163	0,050
-152,891	427,565	-0,054	0,084
-151,877	-80,881	0,047	-0,011
-150,862	237,857	-0,066	-0,079
-149,847	-40,890	-0,026	-0,010
-148,833	-179,797	-0,111	-0,002
-147,818	-200,000	0,001	-0,090
-146,804	-175,950	-0,059	0,001
-145,789	309,484	0,026	0,036
-144,775	2,159	-0,092	0,048
-143,760	402,628	0,040	-0,061
-142,745	-200,000	-0,023	-0,109
-141,731	800,000	0,015	-0,044
-140,716	188,682	-0,041	0,044
-139,702	21,988	0,067	0,039
-138,687	-200,000	0,013	-0,057
-137,672	115,917	0,013	0,011
-136,658	236,795	-0,041	-0,049
-135,643	-200,000	0,036	0,182
-134,629	-200,000	-0,007	-0,046
-133,614	-200,000	0,039	0,168
-132,599	227,999	0,043	0,051
-131,585	80,277	0,055	0,043
-130,570	416,554	-0,015	-0,023
-129,556	36,260	-0,032	-0,021
-128,541	150,238	-0,035	-0,035
-127,526	254,677	0,123	0,152
-126,512	241,760	-0,052	0,063
-125,497	60,712	0,097	0,069
-124,483	800,000	0,015	-0,035
-123,468	-200,000	-0,105	0,000
-122,453	156,073	0,081	0,081
-121,439	49,099	-0,113	-0,077
-120,424	223,832	0,055	-0,065
-119,410	-200,000	0,006	0,047
-118,395	-97,844	0,043	-0,008
-117,380	800,000	0,016	0,037
-116,366	494,857	-0,017	0,029
-115,351	26,307	0,092	-0,055
-114,337	800,000	0,007	0,015
-113,322	446,919	-0,041	-0,065
-112,307	-41,864	-0,099	0,036
-111,293	662,966	0,040	-0,074
-110,278	-200,000	-0,040	-0,161
-109,264	95,984	0,079	0,065
-108,249	-84,780	-0,087	0,020
-107,234	-14,495	0,030	-0,014
-106,220	550,002	-0,078	-0,136
-105,205	800,000	-0,011	-0,024
-104,191	8,501	-0,056	-0,031
-103,176	-155,516	-0,038	-0,002
-102,162	168,853	-0,044	0,046
-101,147	-66,279	-0,185	0,053
-100,132	56,786	0,038	-0,027
-99,118	128,640	-0,124	-0,114
-98,103	-74,577	-0,008	0,002
-97,089	724,735	0,044	0,085
-96,074	-76,440	-0,048	0,012
-95,059	26,568	0,032	0,019
-94,045	246,483	-0,073	-0,089
-93,030	78,808	0,055	-0,042
-92,016	-22,265	-0,115	0,050
-91,001	-200,000	0,007	0,054
-89,986	-200,000	0,017	-0,078
-88,972	15,146	0,067	-0,038
-87,957	719,885	-0,044	-0,085
-86,943	800,000	-0,035	-0,071
-85,928	800,000	0,010	0,031
-84,913	800,000	-0,031	0,096
-83,899	-200,000	-0,028	-0,150
-82,884	562,975	0,054	0,094
-81,870	-113,411	0,054	0,008
-80,855	135,078	0,036	-0,034
-79,840	276,080	0,044	0,056
-78,826	502,773	-0,078	-0,131
-77,811	114,095	0,068	-0,059
-76,797	-153,979	0,110	0,005
-75,782	129,721	-0,076	0,070
-74,767	737,106	-0,043	-0,084
-73,753	-51,322	-0,052	0,017
-72,738	-200,000	0,003	-0,027
-71,724	-200,000	-0,005	-0,088
-70,709	744,568	-0,036	-0,070
-69,694	44,996	-0,025	0,017
-68,680	-0,476	-0,060	0,031
-67,665	611,061	-0,029	0,053
-66,651	-200,000	-0,009	0,080
-65,636	76,523	-0,151	0,115
-64,622	537,020	0,016	0,028
-63,607	-127,844	-0,174	-0,018
-62,592	257,046	-0,045	-0,056
-61,578	653,487	-0,029	-0,053
-60,563	-200,000	-0,061	0,216
-59,549	220,963	0,074	0,086
-58,534	-55,243	-1,806	-0,582
-57,519	800,000	-0,482	-1,054
-56,505	-200,000	-1,006	-4,813
-55,490	-9,819	0,647	0,309
-54,476	800,000	5,147	11,746
-53,461	-200,000	16,293	275,743
-52,446	800,000	708,509	2231,621
-51,432	562,960	1622,035	2841,169
-50,417	123,414	1620,278	1464,246
-49,403	86,994	1281,320	1019,485
-48,388	37,294	1026,985	654,482
-47,373	21,366	989,564	578,086
-46,359	20,090	978,150	567,199
-45,344	18,209	973,740	558,448
-44,330	18,308	972,592	558,092
-43,315	17,938	970,846	555,857
-42,300	17,918	969,903	555,230
-41,286	17,919	968,875	554,621
-40,271	17,868	967,906	553,878
-39,257	17,919	967,114	553,568
-38,242	17,826	966,453	552,867
-37,227	17,862	965,651	552,504
-36,213	17,811	964,657	551,746
-35,198	17,863	963,625	551,302
-34,184	17,937	962,817	551,057
-33,169	17,836	961,945	550,212
-32,154	17,929	961,095	550,002
-31,140	17,880	960,237	549,331
-30,125	17,896	959,600	548,996
-29,111	17,847	958,961	548,451
-28,096	17,831	958,290	547,995
-27,082	17,850	957,528	547,599
-26,067	17,872	956,639	547,137
-25,052	17,844	955,869	546,587
-24,038	17,856	955,166	546,203
-23,023	17,838	954,402	545,684
-22,009	17,914	953,829	545,580
-20,994	17,879	953,302	545,146
-19,979	17,880	952,367	544,593
-18,965	17,862	951,955	544,277
-17,950	17,822	951,417	543,820
-16,936	17,792	950,759	543,324
-15,921	17,818	949,939	542,919
-14,906	17,736	949,383	542,316
-13,892	17,753	948,608	541,907
-12,877	17,740	947,940	541,464
-11,863	17,674	947,491	540,974
-10,848	17,689	946,861	540,640
-9,833	17,831	946,338	540,773
-8,819	17,811	945,717	540,333
-7,804	17,723	945,186	539,729
-6,790	17,731	944,660	539,433
-5,775	17,739	944,143	539,140
-4,760	17,796	943,286	538,811
-3,746	17,763	942,736	538,372
-2,731	17,587	942,130	537,443
-1,717	17,595	941,312	536,981
-0,702	17,534	940,732	536,437
0,313	17,352	940,033	536,271
1,327	19,795	938,072	542,827
2,342	27,083	810,478	488,757
3,356	21,353	513,485	299,771
4,371	-0,974	384,481	195,305
5,386	-3,620	367,824	183,493
6,400	-4,715	361,670	179,049
7,415	-5,552	358,753	176,560
8,429	-5,911	357,194	175,336
9,444	-6,050	356,371	174,747
10,459	-5,829	355,326	174,488
11,473	-6,088	354,875	173,935
12,488	-5,847	354,308	173,935
13,502	-6,044	353,826	173,444
14,517	-6,044	353,080	173,063
15,531	-6,284	352,384	172,416
16,546	-6,509	351,992	171,938
17,561	-6,461	351,393	171,688
18,575	-6,543	351,075	171,419
19,590	-6,582	350,780	171,212
20,604	-6,559	350,189	170,936
21,619	-6,744	349,935	170,574
22,634	-6,677	349,479	170,417
23,648	-6,613	349,120	170,303
24,663	-6,488	348,932	170,346
25,677	-6,647	348,565	169,963
26,692	-6,605	348,233	169,835
27,707	-6,711	347,870	169,517
28,721	-6,819	347,649	169,265
29,736	-6,662	347,255	169,245
30,750	-6,723	346,979	169,024
31,765	-6,794	346,766	168,819
32,780	-6,646	346,236	168,722
33,794	-6,754	346,127	168,526
34,809	-6,724	345,766	168,370
35,823	-6,620	345,435	168,318
36,838	-6,821	345,314	168,006
37,853	-6,800	344,882	167,805
38,867	-6,718	344,506	167,704
39,882	-6,761	344,258	167,518
40,896	-6,957	343,989	167,142
41,911	-6,730	343,677	167,242
42,926	-6,791	343,392	167,017
43,940	-6,805	342,942	166,766
44,955	-6,868	342,827	166,622
45,969	-6,977	342,448	166,295
46,984	-7,183	342,132	165,885
47,999	-7,378	341,865	165,514
49,013	-7,368	341,558	165,362
50,028	-7,330	341,260	165,247
51,042	-7,286	341,020	165,167
52,057	-7,413	340,706	164,852
53,071	-7,327	340,436	164,808
54,086	-7,313	340,371	164,777
55,101	-7,308	339,813	164,498
56,115	-7,310	339,859	164,504
57,130	-6,602	339,666	165,218
58,144	-6,472	339,374	165,211
59,159	-6,420	339,325	165,233
60,174	-6,339	338,818	165,065
61,188	-6,468	338,791	164,889
62,203	-6,672	338,519	164,505
63,217	-6,619	338,126	164,361
64,232	-6,668	337,970	164,213
65,247	-6,384	337,692	164,392
66,261	-6,412	337,346	164,176
67,276	-6,779	336,824	163,485
68,290	-6,939	336,589	163,173
69,305	-6,811	336,284	163,157
70,320	-7,055	336,097	162,773
71,334	-6,894	335,949	162,870
72,349	-6,344	335,831	163,430
73,363	-6,486	335,644	163,162
74,378	-6,466	335,270	162,988
75,393	-6,394	334,874	162,863
76,407	-6,615	334,714	162,518
77,422	-6,621	334,436	162,361
78,436	-6,473	334,051	162,329
79,451	-6,535	333,980	162,210
80,466	-6,686	333,426	161,755
81,480	-6,810	333,229	161,503
82,495	-7,030	332,807	161,035
83,509	-6,985	332,683	161,012
84,524	-7,039	332,379	160,789
85,539	-7,167	332,063	160,477
86,553	-7,179	331,860	160,350
87,568	-7,088	331,627	160,327
88,582	-7,006	331,414	160,302
89,597	-6,893	331,181	160,302
90,611	-6,601	330,878	160,471
91,626	-6,679	330,800	160,331
92,641	-6,584	330,505	160,281
93,655	-6,746	330,226	159,948
94,670	-6,849	330,065	159,741
95,684	-6,791	329,760	159,644
96,699	-6,904	329,577	159,415
97,714	-6,856	329,235	159,288
98,728	-7,059	328,966	158,916
99,743	-7,194	328,777	158,659
100,757	-7,120	328,360	158,527
101,772	-7,106	328,241	158,471
102,787	-7,087	328,016	158,370
103,801	-6,930	327,860	158,456
104,816	-6,925	327,717	158,378
105,830	-6,675	327,307	158,444
106,845	-6,597	327,165	158,449
107,860	-6,671	326,961	158,253
108,874	-6,858	326,698	157,904
109,889	-6,682	326,400	157,942
110,903	-6,671	326,154	157,820
111,918	-6,839	325,892	157,493
112,933	-6,809	325,836	157,485
113,947	-6,828	325,668	157,369
114,962	-6,480	325,221	157,524
115,976	-6,656	325,132	157,272
116,991	-6,713	324,885	157,075
118,006	-6,680	324,659	156,989
119,020	-6,808	324,495	156,754
120,035	-6,533	324,287	156,943
121,049	-6,556	324,206	156,864
122,064	-6,487	323,794	156,726
123,079	-6,800	323,520	156,236
124,093	-6,761	323,195	156,108
125,108	-7,088	322,913	155,599
126,122	-7,084	322,527	155,404
127,137	-7,182	322,313	155,180
128,151	-7,138	322,079	155,101
129,166	-7,090	321,925	155,065
130,181	-7,049	321,767	155,021
131,195	-7,114	321,421	154,769
132,210	-6,807	321,370	155,065
133,224	-6,758	321,283	155,063
134,239	-6,700	321,018	154,985
135,254	-6,638	320,639	154,856
136,268	-6,833	320,329	154,480
137,283	-7,033	320,021	154,100
138,297	-7,012	319,815	154,011
139,312	-7,127	319,579	153,758
140,327	-6,635	319,496	154,238
141,341	-6,286	319,394	154,553
142,356	-6,141	319,201	154,603
143,370	-6,309	319,104	154,360
144,385	-6,327	318,913	154,235
145,400	-6,309	318,527	154,053
146,414	-6,308	318,340	153,950
147,429	-6,317	318,139	153,830
148,443	-6,288	317,876	153,720
149,458	-6,290	317,688	153,614
150,473	-6,308	317,472	153,476
151,487	-6,374	317,149	153,235
152,502	-6,428	317,134	153,156
153,516	-6,310	316,868	153,141
154,531	-6,360	316,428	152,861
155,546	-6,429	316,388	152,755
156,560	-6,383	316,108	152,654
157,575	-6,466	315,772	152,390
158,589	-6,470	315,512	152,246
159,604	-6,230	315,372	152,421
160,619	-6,141	315,193	152,416
161,633	-6,131	314,976	152,308
162,648	-6,164	314,811	152,180
163,662	-6,289	314,663	151,962
164,677	-6,383	314,396	151,719
165,692	-6,262	314,049	151,666
166,706	-6,093	313,916	151,768
167,721	-6,238	313,839	151,564
168,735	-6,333	313,537	151,304
169,750	-6,173	313,448	151,417
170,764	-6,235	313,318	151,275
171,779	-6,063	313,105	151,341
172,794	-5,863	312,788	151,385
173,808	-6,180	312,546	150,920
174,823	-6,867	312,086	149,960
175,837	-7,094	311,923	149,628
176,852	-6,309	311,887	150,425
177,867	-6,063	311,751	150,605
178,881	-6,101	311,592	150,476
179,896	-6,136	311,453	150,358
180,910	-6,112	311,130	150,214
181,925	-5,999	311,011	150,262
182,940	-5,929	310,753	150,197
183,954	-6,020	310,491	149,962
184,969	-6,050	310,389	149,868
185,983	-6,093	310,126	149,682
186,998	-6,176	309,967	149,505
188,013	-6,134	309,812	149,461
189,027	-6,047	309,554	149,414
190,042	-6,049	309,253	149,253
191,056	-5,913	309,135	149,325
192,071	-5,836	309,050	149,351
193,086	-5,985	308,878	149,100
194,100	-5,976	308,653	148,987
195,115	-5,862	308,113	148,831
196,129	-5,928	308,117	148,752
197,144	-5,917	307,733	148,564
198,159	-6,009	307,650	148,415
199,173	-5,843	307,349	148,429
200,188	-5,774	307,188	148,410
201,202	-6,217	306,936	147,816
202,217	-6,729	306,431	147,030
203,232	-6,905	306,194	146,721
204,246	-6,343	306,199	147,292
205,261	-6,003	306,073	147,568
206,275	-5,809	305,764	147,607
207,290	-6,025	305,572	147,279
208,304	-6,076	305,530	147,192
209,319	-6,004	305,323	147,154
210,334	-6,062	305,114	146,980
211,348	-5,899	304,800	146,983
212,363	-6,039	304,659	146,759
213,377	-6,017	304,591	146,735
214,392	-6,009	304,297	146,589
215,407	-6,332	303,987	146,096
216,421	-6,499	303,571	145,712
217,436	-6,500	303,345	145,589
218,450	-6,384	303,335	145,690
219,465	-6,310	303,200	145,687
220,480	-6,136	303,110	145,809
221,494	-6,223	302,876	145,594
222,509	-6,487	302,752	145,253
223,523	-6,006	302,363	145,543
224,538	-6,062	302,349	145,466
225,553	-5,994	302,187	145,444
226,567	-5,877	301,898	145,411
227,582	-5,860	301,734	145,337
228,596	-5,830	301,615	145,297
229,611	-5,906	301,434	145,120
230,626	-5,967	301,082	144,875
231,640	-6,467	300,624	144,137
232,655	-6,877	300,444	143,623
233,669	-6,782	300,143	143,561
234,684	-7,004	299,916	143,217
235,699	-6,752	299,778	143,392
236,713	-6,579	299,706	143,519
237,728	-6,528	299,624	143,518
238,742	-6,406	299,505	143,571
239,757	-6,188	299,295	143,678
240,772	-6,200	299,283	143,647
241,786	-6,181	298,841	143,441
242,801	-6,348	298,599	143,145
243,815	-6,546	298,474	142,873
244,830	-6,305	298,320	143,029
245,844	-6,500	298,167	142,747
246,859	-6,224	297,815	142,842
247,874	-6,599	297,701	142,399
248,888	-6,322	297,564	142,598
249,903	-6,008	297,348	142,796
250,917	-6,095	297,315	142,680
251,932	-5,634	297,249	143,095
252,947	-4,728	297,288	144,006
253,961	-4,747	297,195	143,929
254,976	-4,219	297,256	144,473
255,990	-3,097	297,336	145,617
257,005	-3,459	297,414	145,282
258,020	-1,281	297,973	147,715
259,034	-0,372	298,107	148,676
260,049	-0,319	298,236	148,779
261,063	0,198	298,047	149,187
262,078	0,405	297,951	149,332
263,093	0,379	297,687	149,161
264,107	0,323	297,643	149,070
265,122	0,415	297,314	148,983
266,136	0,471	297,175	148,956
267,151	0,580	297,016	148,971
268,166	0,492	296,892	148,808
269,180	0,628	296,563	148,765
270,195	0,650	296,318	148,651
271,209	0,572	296,250	148,525
272,224	0,662	296,037	148,494
273,239	0,457	296,043	148,281
274,253	0,675	295,715	148,320
275,268	0,744	295,480	148,256
276,282	0,626	295,363	148,068
277,297	0,489	295,141	147,809
278,312	0,630	294,977	147,852
279,326	0,602	294,789	147,717
280,341	0,460	294,600	147,470
281,355	0,716	294,386	147,601
282,370	0,653	294,124	147,394
283,384	0,345	294,040	147,037
284,399	0,540	293,770	147,081
285,414	0,556	293,584	146,989
286,428	0,540	293,342	146,840
287,443	0,579	293,162	146,774
288,457	0,466	293,094	146,617
289,472	0,292	292,900	146,338
290,487	0,481	292,565	146,341
291,501	0,453	292,432	146,234
292,516	0,857	291,974	146,386
293,530	0,626	291,993	146,157
294,545	0,641	291,859	146,092
295,560	0,593	291,666	145,935
296,574	0,500	291,563	145,780
297,589	0,806	291,157	145,861
298,603	0,492	291,196	145,563
299,618	0,468	290,935	145,396
300,633	0,789	290,598	145,526
301,647	0,642	290,487	145,315
302,662	0,494	290,536	145,183
303,676	0,533	290,173	145,027
304,691	0,387	289,921	144,746
305,706	0,520	289,713	144,758
306,720	0,523	289,624	144,704
307,735	0,599	289,454	144,679
308,749	0,535	289,190	144,473
309,764	0,504	289,045	144,358
310,779	0,639	288,854	144,379
311,793	0,602	288,555	144,181
312,808	0,401	288,551	143,973
313,822	0,458	288,237	143,859
314,837	0,441	287,976	143,699
315,852	0,537	287,900	143,740
316,866	0,557	287,820	143,707
317,881	0,569	287,412	143,501
318,895	0,657	287,350	143,542
319,910	0,701	287,047	143,420
320,925	0,584	286,846	143,195
321,939	0,596	286,760	143,151
322,954	0,680	286,671	143,173
323,968	0,552	286,398	142,903
324,983	0,501	286,319	142,802
325,997	0,559	286,028	142,699
327,012	0,498	285,963	142,596
328,027	0,505	285,693	142,455
329,041	0,474	285,445	142,290
330,056	0,712	285,353	142,457
331,070	0,547	285,159	142,190
332,085	0,559	284,919	142,070
333,100	0,759	284,570	142,072
334,114	0,651	284,541	141,943
335,129	0,518	284,402	141,736
336,143	0,725	284,164	141,800
337,158	0,641	284,027	141,639
338,173	0,665	283,913	141,592
339,187	0,403	283,853	141,302
340,202	0,628	283,507	141,330
341,216	0,857	283,294	141,426
342,231	0,580	283,206	141,110
343,246	0,752	282,944	141,128
344,260	0,744	282,822	141,047
345,275	0,661	282,595	140,843
346,289	0,570	282,442	140,670
347,304	0,604	282,146	140,541
348,319	0,810	282,049	140,672
349,333	0,745	281,814	140,482
350,348	0,545	281,800	140,276
351,362	0,721	281,416	140,236
352,377	0,772	281,289	140,208
353,392	0,738	281,195	140,118
354,406	0,687	281,110	140,015
355,421	193,057	1326,903	1402,086
356,435	156,320	1454,334	1402,114
