DTS Sentinel unit serial number:	SN410029Multiplexer serial number:	ORYXHardware model number:	OX2-SRSoftware version number:	ORYX F/W v4,00 Oryx Data Collector v3.7.2.0data status	okinstallation	B4 Nyhavnadifferential loss correction	single-endedforward channel	channel 2reverse channel	N/Adate	2023/12/18time	20:40:13forward acquisition time	300,00reverse acquisition time	0,00gamma	499,1914k internal	0,3124k external	0,3124temperature offset calibration	1,0000default loss term (dB/km)	0,3820temperature slope calibration	1,0000multiplexer offset coefficient	1,0000multiplexer slope coefficient	1,0000fibre end	0,00T internal ref (°C)	21,85T ext. ref 1 (°C)	7,03T ext. ref 2 (°C)	6,98length (m)	temperature (°C)	Stokes	anti-Stokes-744,400	518,586	-0,025	-0,044
-743,385	-20,687	-0,287	0,131
-742,371	800,000	0,070	0,213
-741,356	194,369	-0,211	0,238
-740,342	307,414	0,059	0,083
-739,327	-56,159	-0,250	0,082
-738,312	800,000	0,067	-0,166
-737,298	-86,680	-0,304	0,069
-736,283	16,456	0,031	0,018
-735,269	-16,354	-0,213	0,101
-734,254	-36,252	-0,057	-0,023
-733,239	-107,986	-0,415	-0,067
-732,225	-76,207	0,149	-0,039
-731,210	-36,417	0,120	-0,048
-730,196	52,335	-0,089	-0,063
-729,181	800,000	0,024	-0,051
-728,167	-200,000	0,019	0,088
-727,152	-132,619	-0,102	-0,010
-726,137	800,000	0,055	-0,142
-725,123	-200,000	-0,001	0,087
-724,108	4,675	-0,060	-0,033
-723,094	-200,000	-0,135	-0,000
-722,079	-153,869	-0,228	-0,011
-721,064	-144,595	-0,064	0,004
-720,050	94,270	-0,059	-0,050
-719,035	180,063	-0,033	0,036
-718,021	38,410	-0,205	0,135
-717,006	-200,000	0,027	-0,104
-715,991	-200,000	-0,037	-0,141
-714,977	14,916	0,122	-0,071
-713,962	69,730	-0,120	-0,092
-712,948	-200,000	0,026	0,092
-711,933	1,884	0,146	0,078
-710,918	800,000	-0,006	-0,019
-709,904	58,319	-0,088	-0,064
-708,889	-200,000	-0,018	-0,132
-707,875	-105,292	-0,093	-0,016
-706,860	-10,987	0,071	-0,035
-705,845	-26,812	-0,123	-0,053
-704,831	800,000	-0,050	0,131
-703,816	59,253	0,119	-0,087
-702,802	-115,457	-0,067	0,009
-701,787	193,947	-0,079	-0,090
-700,772	-15,575	-0,158	-0,075
-699,758	256,291	0,103	-0,132
-698,743	-200,000	-0,010	0,052
-697,729	-200,000	-0,011	0,075
-696,714	566,965	0,070	0,127
-695,699	-63,284	0,057	-0,017
-694,685	-200,000	0,029	-0,116
-693,670	308,723	-0,044	0,061
-692,656	268,258	0,036	-0,047
-691,641	-200,000	-0,013	-0,113
-690,627	62,269	0,027	0,020
-689,612	-74,761	0,116	-0,031
-688,597	-112,175	-0,137	-0,020
-687,583	-200,000	0,012	-0,146
-686,568	-152,020	-0,065	-0,003
-685,554	-72,810	-0,081	0,022
-684,539	-42,542	0,096	-0,036
-683,524	-60,221	-0,088	0,028
-682,510	217,304	0,089	-0,106
-681,495	-200,000	-0,028	-0,107
-680,481	84,362	0,031	-0,025
-679,466	-175,695	-0,079	0,002
-678,451	800,000	-0,020	-0,052
-677,437	-110,789	0,141	-0,021
-676,422	245,711	0,025	-0,032
-675,408	3,073	0,139	-0,075
-674,393	429,088	-0,004	-0,006
-673,378	-200,000	-0,004	0,200
-672,364	-44,837	-0,066	-0,024
-671,349	-104,035	0,010	-0,002
-670,335	800,000	0,026	-0,082
-669,320	-115,251	-0,063	-0,009
-668,305	-200,000	0,008	0,069
-667,291	-47,433	-0,062	0,022
-666,276	695,635	-0,045	-0,088
-665,262	800,000	0,031	0,081
-664,247	514,299	-0,110	-0,191
-663,232	119,564	-0,114	-0,105
-662,218	-200,000	-0,002	0,027
-661,203	228,224	0,039	-0,047
-660,189	78,477	0,056	-0,045
-659,174	-60,410	0,051	0,016
-658,159	-200,000	0,019	-0,096
-657,145	-200,000	0,068	-0,232
-656,130	-85,468	-0,162	0,037
-655,116	800,000	-0,009	-0,022
-654,101	-124,303	0,093	0,011
-653,086	-84,986	0,013	0,003
-652,072	283,856	-0,104	0,139
-651,057	-17,143	-0,034	-0,016
-650,043	171,655	-0,034	-0,036
-649,028	-35,059	-0,113	-0,045
-648,014	-200,000	-0,017	0,121
-646,999	109,750	0,107	-0,096
-645,984	800,000	-0,027	-0,078
-644,970	800,000	0,020	-0,054
-643,955	142,395	-0,068	-0,067
-642,941	-89,610	-0,147	-0,032
-641,926	800,000	-0,009	0,025
-640,911	71,664	-0,024	-0,018
-639,897	443,892	0,033	-0,054
-638,882	302,907	-0,038	-0,052
-637,868	-200,000	-0,021	-0,088
-636,853	72,286	-0,107	-0,083
-635,838	249,277	-0,046	-0,058
-634,824	-90,523	0,060	-0,013
-633,809	642,078	0,062	-0,118
-632,795	235,626	0,082	-0,101
-631,780	69,167	0,052	0,040
-630,765	-13,548	0,028	0,014
-629,751	-86,749	-0,062	-0,014
-628,736	-3,957	-0,059	-0,030
-627,722	-123,731	0,055	0,006
-626,707	159,771	-0,137	0,142
-625,692	800,000	-0,017	0,045
-624,678	141,687	0,034	-0,034
-623,663	800,000	0,098	-0,267
-622,649	-200,000	-0,007	-0,086
-621,634	-99,463	-0,110	-0,020
-620,619	414,009	-0,096	0,152
-619,605	-75,756	0,048	0,012
-618,590	-59,587	0,122	0,038
-617,576	-200,000	0,007	0,042
-616,561	19,821	-0,112	0,067
-615,546	478,502	0,052	-0,087
-614,532	511,623	-0,041	-0,071
-613,517	800,000	-0,062	-0,189
-612,503	496,572	-0,053	-0,091
-611,488	356,864	0,065	0,097
-610,474	368,889	0,031	-0,047
-609,459	800,000	-0,053	0,143
-608,444	253,389	-0,044	0,056
-607,430	-25,875	-0,151	0,066
-606,415	800,000	0,036	-0,106
-605,401	72,414	0,181	-0,140
-604,386	-200,000	-0,019	0,153
-603,371	-148,589	0,121	0,007
-602,357	-47,869	0,030	-0,011
-601,342	7,400	-0,109	0,060
-600,328	-200,000	0,028	-0,157
-599,313	-111,793	-0,086	-0,013
-598,298	87,134	-0,059	-0,048
-597,284	103,588	0,079	-0,068
-596,269	-200,000	0,009	-0,084
-595,255	-33,705	-0,157	-0,064
-594,240	800,000	0,016	0,041
-593,225	-200,000	0,016	-0,058
-592,211	336,651	-0,021	0,031
-591,196	-200,000	0,001	0,018
-590,182	-147,679	-0,059	-0,004
-589,167	-200,000	0,005	-0,065
-588,152	-200,000	-0,026	-0,117
-587,138	-16,107	-0,150	-0,070
-586,123	-59,757	-0,014	0,004
-585,109	-200,000	-0,008	-0,043
-584,094	-137,954	-0,104	0,008
-583,079	77,016	-0,066	-0,052
-582,065	-200,000	-0,005	-0,073
-581,050	-94,938	0,085	0,017
-580,036	76,746	-0,095	-0,074
-579,021	227,772	0,101	-0,122
-578,006	800,000	0,018	-0,038
-576,992	-116,164	-0,196	0,027
-575,977	-152,199	-0,077	0,004
-574,963	-200,000	-0,009	-0,043
-573,948	80,507	0,165	0,132
-572,934	211,408	-0,023	0,026
-571,919	-92,390	-0,053	-0,011
-570,904	527,807	-0,080	-0,140
-569,890	-114,721	-0,179	-0,025
-568,875	-187,661	-0,069	-0,001
-567,861	133,296	0,013	-0,013
-566,846	57,044	0,078	0,056
-565,831	7,023	0,167	0,092
-564,817	737,797	-0,092	-0,184
-563,802	-200,000	-0,035	-0,306
-562,788	-200,000	-0,015	0,060
-561,773	46,171	0,039	-0,027
-560,758	-200,000	0,014	0,185
-559,744	204,452	0,040	0,046
-558,729	163,747	0,023	-0,024
-557,715	-136,525	0,089	-0,008
-556,700	-38,803	-0,101	-0,039
-555,685	-38,087	-0,068	0,026
-554,671	-200,000	0,003	0,054
-553,656	423,787	0,033	0,052
-552,642	147,105	0,056	0,056
-551,627	-200,000	0,015	0,065
-550,612	254,326	-0,053	-0,067
-549,598	-200,000	0,011	-0,142
-548,583	36,461	-0,028	0,018
-547,569	800,000	-0,035	-0,097
-546,554	-86,884	0,102	0,023
-545,539	-200,000	0,009	-0,046
-544,525	-200,000	0,037	-0,000
-543,510	-93,849	-0,037	-0,007
-542,496	-200,000	-0,025	0,109
-541,481	-170,833	-0,042	-0,001
-540,466	-56,010	-0,036	-0,012
-539,452	-200,000	0,005	-0,070
-538,437	-200,000	0,005	0,055
-537,423	112,453	0,035	-0,031
-536,408	0,486	0,052	0,028
-535,393	-6,589	-0,115	0,058
-534,379	-50,305	-0,059	-0,021
-533,364	800,000	0,044	-0,094
-532,350	219,383	0,077	0,091
-531,335	7,732	0,065	0,036
-530,321	-200,000	-0,006	-0,065
-529,306	239,271	-0,104	0,129
-528,291	164,384	-0,033	0,034
-527,277	-77,023	0,048	-0,012
-526,262	132,695	-0,035	-0,033
-525,248	800,000	-0,004	0,012
-524,233	320,056	0,091	0,128
-523,218	21,712	-0,061	0,036
-522,204	699,702	-0,025	-0,048
-521,189	413,347	-0,055	0,087
-520,175	157,868	-0,053	0,054
-519,160	-200,000	0,002	-0,100
-518,145	253,172	0,069	0,087
-517,131	89,778	0,040	0,033
-516,116	-200,000	-0,004	-0,017
-515,102	-200,000	-0,045	0,173
-514,087	-76,945	-0,063	-0,016
-513,072	-200,000	0,012	0,069
-512,058	800,000	-0,053	-0,129
-511,043	789,751	0,038	-0,078
-510,029	-112,418	0,041	0,006
-509,014	800,000	0,035	0,114
-507,999	27,577	0,013	0,008
-506,985	-200,000	0,028	-0,124
-505,970	-136,381	-0,135	0,011
-504,956	-200,000	0,013	0,079
-503,941	100,881	-0,028	0,024
-502,926	800,000	-0,032	0,088
-501,912	-142,814	-0,151	-0,011
-500,897	257,808	-0,109	-0,138
-499,883	370,661	-0,018	-0,027
-498,868	694,863	-0,046	0,089
-497,853	-200,000	0,000	-0,025
-496,839	59,327	0,013	-0,009
-495,824	27,894	0,019	0,012
-494,810	96,984	0,126	-0,106
-493,795	247,010	-0,027	0,034
-492,781	-107,482	-0,126	0,020
-491,766	-139,119	-0,113	-0,009
-490,751	16,495	-0,069	-0,040
-489,737	-85,265	-0,069	-0,016
-488,722	91,728	0,066	0,055
-487,708	800,000	-0,043	0,104
-486,693	38,254	-0,074	-0,048
-485,678	-130,515	0,113	0,011
-484,664	-39,737	-0,096	-0,037
-483,649	-101,528	-0,125	0,022
-482,635	-86,198	0,017	-0,004
-481,620	-200,000	-0,008	0,131
-480,605	125,651	-0,062	-0,058
-479,591	-130,299	0,102	-0,010
-478,576	-12,568	-0,072	0,035
-477,562	391,127	-0,096	-0,148
-476,547	-38,590	-0,125	0,049
-475,532	-200,000	0,011	0,094
-474,518	800,000	-0,027	-0,059
-473,503	800,000	0,013	-0,035
-472,489	-200,000	-0,021	0,178
-471,474	-200,000	-0,021	-0,114
-470,459	-200,000	-0,015	-0,075
-469,445	37,792	0,060	0,039
-468,430	-67,903	-0,083	0,024
-467,416	-200,000	0,002	-0,086
-466,401	800,000	-0,031	0,074
-465,386	221,019	-0,124	0,147
-464,372	-65,080	-0,102	-0,030
-463,357	-200,000	0,004	0,171
-462,343	-32,974	-0,097	0,040
-461,328	462,739	-0,034	-0,057
-460,313	-200,000	-0,004	0,068
-459,299	377,090	0,014	0,021
-458,284	-81,517	0,086	0,021
-457,270	-80,791	0,219	-0,053
-456,255	-182,443	-0,109	0,001
-455,241	-40,858	-0,033	-0,013
-454,226	54,557	-0,095	0,068
-453,211	-200,000	-0,033	0,128
-452,197	-133,354	0,093	-0,008
-451,182	-116,502	0,156	-0,021
-450,168	-39,001	-0,057	0,022
-449,153	0,234	0,099	0,052
-448,138	97,214	-0,083	-0,070
-447,124	271,224	0,082	-0,106
-446,109	-200,000	0,019	0,095
-445,095	-130,222	0,152	0,015
-444,080	-39,443	0,113	-0,043
-443,065	-47,134	-0,093	0,033
-442,051	121,768	-0,192	-0,177
-441,036	800,000	-0,010	-0,025
-440,022	-47,709	-0,184	-0,065
-439,007	502,857	-0,019	-0,033
-437,992	-200,000	0,028	0,136
-436,978	40,349	-0,007	0,005
-435,963	22,773	0,122	0,073
-434,949	230,132	-0,093	0,112
-433,934	171,067	0,091	-0,096
-432,919	160,665	0,018	0,019
-431,905	-200,000	-0,002	-0,036
-430,890	-81,854	0,024	-0,006
-429,876	-200,000	-0,057	0,189
-428,861	49,386	0,017	0,012
-427,846	-200,000	0,019	-0,090
-426,832	127,479	-0,036	0,034
-425,817	56,755	-0,055	0,039
-424,803	-1,297	-0,045	0,023
-423,788	-200,000	0,022	-0,138
-422,773	135,726	-0,042	0,040
-421,759	5,301	0,120	-0,065
-420,744	-148,163	0,119	0,007
-419,730	-200,000	0,006	-0,095
-418,715	-140,029	0,049	0,004
-417,701	270,382	-0,033	0,043
-416,686	-97,239	-0,028	-0,005
-415,671	-115,389	0,115	-0,016
-414,657	-17,905	-0,023	0,010
-413,642	-200,000	0,003	0,033
-412,628	-15,777	0,028	0,013
-411,613	-105,019	0,055	0,009
-410,598	800,000	0,025	-0,060
-409,584	-200,000	0,020	0,130
-408,569	-42,853	0,086	0,032
-407,555	94,482	-0,069	0,057
-406,540	314,279	0,010	-0,014
-405,525	176,694	0,081	-0,086
-404,511	50,094	-0,025	-0,017
-403,496	-69,600	-0,032	-0,009
-402,482	800,000	-0,068	0,189
-401,467	-200,000	-0,015	0,134
-400,452	-200,000	0,023	-0,096
-399,438	-200,000	0,008	0,070
-398,423	-200,000	-0,044	-0,150
-397,409	800,000	0,056	-0,141
-396,394	800,000	0,033	-0,095
-395,379	-144,081	0,038	-0,003
-394,365	-200,000	-0,018	0,095
-393,350	96,381	-0,094	0,079
-392,336	-200,000	0,011	0,124
-391,321	-135,448	-0,061	-0,005
-390,306	158,448	0,067	-0,068
-389,292	800,000	0,026	-0,071
-388,277	3,626	0,099	-0,053
-387,263	617,970	0,081	0,151
-386,248	800,000	0,056	0,145
-385,233	-200,000	0,018	0,078
-384,219	150,954	-0,071	0,071
-383,204	259,473	0,030	0,038
-382,190	250,843	-0,039	0,049
-381,175	-200,000	-0,005	-0,089
-380,160	249,370	-0,053	0,066
-379,146	85,005	0,053	0,043
-378,131	800,000	0,041	-0,129
-377,117	-200,000	0,027	0,089
-376,102	-200,000	0,001	-0,089
-375,088	-200,000	0,020	-0,105
-374,073	800,000	-0,033	-0,087
-373,058	164,750	0,045	0,046
-372,044	2,685	0,163	-0,086
-371,029	800,000	-0,029	0,093
-370,015	-200,000	0,013	0,066
-369,000	381,419	-0,034	-0,051
-367,985	800,000	-0,021	0,051
-366,971	-200,000	0,006	0,135
-365,956	-116,083	-0,058	-0,008
-364,942	84,445	0,035	-0,028
-363,927	-46,901	0,064	-0,023
-362,912	105,711	0,063	0,055
-361,898	-124,745	-0,052	-0,006
-360,883	480,885	-0,030	0,051
-359,869	-200,000	-0,015	-0,083
-358,854	-200,000	-0,023	0,088
-357,839	-110,416	0,111	0,017
-356,825	409,924	0,048	0,075
-355,810	157,070	0,102	0,103
-354,796	-200,000	-0,015	-0,077
-353,781	-165,051	-0,010	-0,000
-352,766	-71,069	0,067	-0,018
-351,752	-200,000	-0,010	-0,047
-350,737	-200,000	-0,007	0,029
-349,723	-200,000	-0,008	0,208
-348,708	108,728	-0,079	0,070
-347,693	-106,939	0,063	-0,010
-346,679	800,000	-0,026	-0,059
-345,664	233,539	0,071	-0,086
-344,650	-200,000	0,005	0,041
-343,635	418,787	0,051	-0,080
-342,620	32,357	0,078	0,049
-341,606	-200,000	-0,014	0,000
-340,591	-15,277	-0,149	-0,070
-339,577	800,000	-0,023	-0,064
-338,562	-200,000	0,012	0,065
-337,548	-200,000	0,024	-0,190
-336,533	-200,000	-0,021	-0,099
-335,518	800,000	0,065	0,155
-334,504	-200,000	0,000	-0,026
-333,489	634,544	-0,052	0,098
-332,475	-200,000	0,009	-0,115
-331,460	-29,391	-0,069	-0,029
-330,445	29,785	0,094	-0,059
-329,431	3,448	-0,026	0,014
-328,416	-200,000	-0,016	0,072
-327,402	-200,000	0,016	0,073
-326,387	181,092	0,046	-0,050
-325,372	-19,940	0,070	-0,032
-324,358	130,017	-0,103	0,097
-323,343	95,672	0,038	0,032
-322,329	-82,572	0,071	-0,017
-321,314	800,000	0,027	-0,083
-320,299	800,000	0,033	0,085
-319,285	800,000	0,033	-0,084
-318,270	-90,381	0,080	-0,017
-317,256	-200,000	-0,005	-0,084
-316,241	-79,087	0,097	0,024
-315,226	-152,222	0,139	-0,007
-314,212	800,000	-0,014	-0,040
-313,197	-103,263	-0,075	-0,013
-312,183	67,453	0,012	-0,009
-311,168	-66,842	0,135	0,039
-310,153	16,929	0,012	-0,007
-309,139	-115,853	-0,063	-0,009
-308,124	-110,827	0,061	0,009
-307,110	485,180	0,050	0,083
-306,095	-151,183	0,177	0,010
-305,080	-200,000	-0,007	-0,121
-304,066	-117,499	-0,104	-0,014
-303,051	558,914	-0,058	-0,102
-302,037	-87,496	0,131	-0,029
-301,022	-200,000	0,036	0,147
-300,008	-29,572	-0,109	0,045
-298,993	-69,719	-0,191	0,053
-297,978	9,013	-0,040	0,022
-296,964	191,934	-0,023	-0,025
-295,949	98,544	0,117	-0,098
-294,935	164,300	-0,023	-0,024
-293,920	3,898	-0,083	0,044
-292,905	-200,000	0,033	0,118
-291,891	91,379	0,158	0,130
-290,876	-200,000	-0,001	-0,035
-289,862	-200,000	0,001	0,057
-288,847	22,891	-0,072	0,043
-287,832	800,000	0,020	-0,041
-286,818	-73,497	-0,075	-0,020
-285,803	-147,466	-0,029	0,002
-284,789	-200,000	0,013	0,176
-283,774	795,291	0,019	0,039
-282,759	348,685	0,078	0,112
-281,745	351,721	-0,053	-0,077
-280,730	167,112	-0,090	-0,093
-279,716	639,481	0,040	-0,075
-278,701	-16,678	-0,102	0,047
-277,686	-60,282	0,056	0,017
-276,672	-65,667	-0,184	0,054
-275,657	180,029	0,031	0,034
-274,643	-200,000	0,038	-0,249
-273,628	-200,000	0,004	-0,174
-272,613	-36,432	0,077	-0,030
-271,599	-200,000	0,033	0,132
-270,584	-47,697	0,128	0,045
-269,570	800,000	0,049	-0,152
-268,555	80,619	0,141	-0,111
-267,540	111,899	0,023	-0,021
-266,526	-200,000	-0,137	-0,000
-265,511	324,495	0,041	-0,057
-264,497	202,900	-0,067	-0,075
-263,482	23,928	0,106	-0,064
-262,467	554,397	0,051	-0,091
-261,453	73,769	-0,083	-0,064
-260,438	-200,000	0,038	0,144
-259,424	602,305	-0,018	-0,032
-258,409	-200,000	0,061	-0,216
-257,395	51,237	0,025	0,017
-256,380	78,561	-0,045	0,035
-255,365	-200,000	0,013	0,104
-254,351	-100,165	-0,130	0,023
-253,336	-84,217	0,081	-0,019
-252,322	30,578	0,039	0,024
-251,307	-171,256	0,056	0,001
-250,292	-200,000	-0,005	-0,031
-249,278	-200,000	-0,029	0,103
-248,263	437,498	0,058	0,092
-247,249	309,171	0,026	0,036
-246,234	-66,118	-0,067	0,020
-245,219	189,832	0,050	-0,055
-244,205	-70,018	-0,080	-0,022
-243,190	-200,000	-0,016	0,110
-242,176	800,000	0,018	-0,055
-241,161	480,489	0,054	0,089
-240,146	-48,993	0,151	0,053
-239,132	-70,216	0,030	-0,008
-238,117	73,641	-0,102	0,078
-237,103	70,687	-0,031	-0,023
-236,088	136,016	-0,025	0,024
-235,073	-200,000	0,000	-0,042
-234,059	-200,000	0,010	0,086
-233,044	-150,498	0,178	-0,010
-232,030	-154,079	-0,062	-0,003
-231,015	800,000	-0,016	-0,033
-230,000	800,000	-0,028	-0,081
-228,986	800,000	0,056	-0,134
-227,971	-1,790	-0,074	0,038
-226,957	-113,577	0,082	-0,012
-225,942	-200,000	0,028	0,105
-224,927	-13,269	0,169	-0,080
-223,913	36,694	0,105	0,067
-222,898	747,304	-0,018	0,035
-221,884	516,056	0,028	-0,048
-220,869	434,606	-0,020	-0,031
-219,855	23,971	0,108	-0,065
-218,840	-200,000	-0,014	0,049
-217,825	-75,316	0,068	0,018
-216,811	-24,036	-0,049	-0,021
-215,796	-200,000	-0,004	-0,082
-214,782	800,000	0,020	-0,054
-213,767	94,196	0,006	0,005
-212,752	188,637	0,069	-0,075
-211,738	-200,000	0,024	0,129
-210,723	-43,204	0,051	0,019
-209,709	118,186	0,048	-0,043
-208,694	-146,810	0,092	-0,006
-207,679	129,176	-0,090	-0,084
-206,665	-200,000	-0,020	0,124
-205,650	-200,000	0,001	0,089
-204,636	240,204	-0,106	-0,129
-203,621	189,897	0,041	-0,045
-202,606	488,563	0,055	0,092
-201,592	-18,909	0,105	-0,048
-200,577	800,000	-0,023	0,063
-199,563	36,592	0,074	-0,048
-198,548	-113,420	0,167	-0,024
-197,533	161,251	0,093	0,094
-196,519	585,592	0,017	0,031
-195,504	-200,000	-0,011	0,072
-194,490	-200,000	-0,024	-0,098
-193,475	-0,621	0,021	-0,011
-192,460	248,307	-0,148	0,183
-191,446	-54,959	0,184	0,060
-190,431	-200,000	0,020	0,100
-189,417	-200,000	0,008	0,096
-188,402	800,000	0,028	-0,071
-187,387	-53,347	-0,059	-0,020
-186,373	-200,000	0,003	-0,106
-185,358	-74,789	-0,167	-0,043
-184,344	237,249	-0,061	0,074
-183,329	-200,000	0,006	0,024
-182,315	-200,000	0,005	0,106
-181,300	-100,638	-0,068	0,012
-180,285	800,000	0,005	-0,016
-179,271	65,160	-0,077	0,057
-178,256	-200,000	0,001	-0,021
-177,242	-200,000	-0,003	0,042
-176,227	56,679	-0,101	0,072
-175,212	-200,000	-0,003	0,039
-174,198	-54,110	-0,103	0,034
-173,183	800,000	0,030	0,084
-172,169	85,378	0,096	-0,077
-171,154	800,000	-0,026	0,076
-170,139	-98,932	-0,047	0,009
-169,125	687,876	0,062	-0,118
-168,110	-200,000	-0,022	0,080
-167,096	118,204	-0,034	-0,030
-166,081	-10,828	0,096	0,046
-165,066	800,000	0,025	0,065
-164,052	-38,468	-0,142	-0,054
-163,037	-62,079	0,044	0,013
-162,023	85,795	0,046	0,037
-161,008	-78,739	0,131	-0,032
-159,993	116,998	0,042	0,037
-158,979	800,000	-0,042	-0,103
-157,964	-121,711	-0,032	-0,004
-156,950	-123,690	-0,062	-0,007
-155,935	24,070	0,047	0,028
-154,920	-200,000	0,000	0,003
-153,906	-200,000	0,010	0,048
-152,891	496,627	-0,038	0,063
-151,877	-200,000	0,003	0,062
-150,862	118,325	-0,019	0,017
-149,847	22,243	-0,192	0,114
-148,833	406,165	0,073	-0,113
-147,818	800,000	-0,076	0,160
-146,804	800,000	0,012	-0,025
-145,789	800,000	-0,029	0,084
-144,775	513,869	0,074	-0,125
-143,760	-90,350	-0,141	0,030
-142,745	58,768	-0,156	0,112
-141,731	-80,696	0,040	-0,010
-140,716	29,077	-0,078	0,048
-139,702	-200,000	0,023	-0,096
-138,687	229,824	0,024	0,029
-137,672	393,562	0,027	0,042
-136,658	-6,720	-0,131	-0,065
-135,643	556,828	0,013	-0,022
-134,629	-200,000	0,011	0,068
-133,614	125,124	-0,069	-0,063
-132,599	535,180	0,033	-0,057
-131,585	-62,207	-0,081	0,024
-130,570	483,329	0,086	-0,143
-129,556	-200,000	0,004	0,066
-128,541	-0,302	0,058	0,030
-127,526	-200,000	-0,034	-0,131
-126,512	-78,106	0,166	0,041
-125,497	150,819	0,013	-0,013
-124,483	186,971	-0,027	0,029
-123,468	-200,000	-0,020	0,079
-122,453	146,301	-0,098	0,096
-121,439	128,077	-0,063	-0,058
-120,424	-200,000	0,003	0,089
-119,410	51,113	0,046	-0,031
-118,395	800,000	0,077	-0,182
-117,380	449,741	0,022	0,035
-116,366	281,869	-0,056	-0,074
-115,351	-118,341	0,120	-0,015
-114,337	-44,049	-0,131	-0,048
-113,322	-200,000	0,005	0,046
-112,307	58,558	-0,151	0,108
-111,293	-200,000	0,007	0,056
-110,278	-66,684	0,055	0,016
-109,264	81,503	-0,088	0,069
-108,249	-111,197	-0,127	0,019
-107,234	800,000	0,024	0,053
-106,220	-35,679	-0,067	0,026
-105,205	-200,000	-0,003	0,099
-104,191	11,521	0,015	-0,008
-103,176	-200,000	-0,020	0,089
-102,162	79,769	0,042	0,033
-101,147	122,848	-0,071	-0,065
-100,132	19,866	-0,169	-0,099
-99,118	52,525	-0,044	0,030
-98,103	-200,000	0,003	0,082
-97,089	-159,669	0,119	-0,005
-96,074	67,192	-0,119	-0,088
-95,059	-137,791	0,129	-0,010
-94,045	18,847	-0,064	0,037
-93,030	-200,000	-0,007	0,103
-92,016	-92,112	-0,071	0,014
-91,001	800,000	0,028	-0,084
-89,986	-30,224	-0,092	-0,038
-88,972	-200,000	-0,006	0,059
-87,957	206,349	-0,047	0,054
-86,943	793,584	-0,027	0,054
-85,928	-60,237	-0,142	-0,044
-84,913	-104,385	0,164	-0,027
-83,899	-37,600	0,131	-0,051
-82,884	303,014	0,085	0,115
-81,870	66,938	-0,085	0,063
-80,855	800,000	0,037	0,093
-79,840	-23,444	-0,088	-0,038
-78,826	-200,000	0,008	-0,050
-77,811	800,000	-0,021	0,063
-76,797	800,000	0,048	-0,120
-75,782	-151,008	0,112	0,006
-74,767	21,410	0,094	0,055
-73,753	-112,799	-0,114	0,016
-72,738	-158,805	0,020	-0,001
-71,724	-17,994	0,053	-0,024
-70,709	-69,108	-0,096	-0,027
-69,694	-26,742	-0,085	0,036
-68,680	525,472	-0,061	0,105
-67,665	-200,000	-0,008	-0,031
-66,651	-92,544	0,064	0,013
-65,636	198,667	0,032	0,035
-64,622	-143,775	-0,127	0,009
-63,607	493,184	0,073	-0,123
-62,592	800,000	0,018	-0,047
-61,578	-200,000	0,017	-0,116
-60,563	-200,000	-0,019	0,093
-59,549	-200,000	0,003	0,084
-58,534	-146,729	-1,408	-0,087
-57,519	720,123	-0,818	-1,585
-56,505	-200,000	-0,959	-4,453
-55,490	-71,561	0,768	-0,207
-54,476	800,000	4,935	11,627
-53,461	-200,000	14,151	254,705
-52,446	-200,000	694,302	2263,412
-51,432	598,745	1624,538	2935,063
-50,417	117,648	1633,435	1458,376
-49,403	73,525	1287,489	976,983
-48,388	37,341	1023,624	656,734
-47,373	23,906	981,931	585,780
-46,359	23,150	971,417	577,003
-45,344	22,107	967,167	571,047
-44,330	22,061	965,752	570,039
-43,315	21,924	964,155	568,628
-42,300	21,883	963,212	567,916
-41,286	21,877	962,362	567,372
-40,271	21,850	961,487	566,746
-39,257	21,819	960,455	566,015
-38,242	21,829	959,559	565,497
-37,227	21,912	958,495	565,117
-36,213	21,893	957,609	564,510
-35,198	21,802	956,895	563,774
-34,184	21,893	956,369	563,736
-33,169	21,891	955,264	563,054
-32,154	21,842	954,480	562,412
-31,140	21,915	953,319	561,941
-30,125	21,869	952,697	561,404
-29,111	21,870	951,817	560,865
-28,096	21,938	951,029	560,597
-27,082	21,944	950,270	560,146
-26,067	21,912	949,694	559,685
-25,052	21,857	949,076	559,118
-24,038	21,915	948,325	558,841
-23,023	21,867	947,831	558,374
-22,009	21,950	947,019	558,140
-20,994	21,873	946,564	557,603
-19,979	21,860	945,806	557,093
-18,965	21,873	945,172	556,740
-17,950	21,880	944,698	556,459
-16,936	21,816	943,923	555,778
-15,921	21,827	943,265	555,402
-14,906	21,777	942,415	554,720
-13,892	21,881	941,677	554,596
-12,877	21,749	941,313	553,937
-11,863	21,750	940,479	553,428
-10,848	21,816	939,858	553,253
-9,833	21,867	939,633	553,259
-8,819	21,815	939,000	552,698
-7,804	21,794	938,250	552,169
-6,790	21,851	937,596	551,944
-5,775	21,822	937,059	551,513
-4,760	21,818	936,357	551,064
-3,746	21,794	935,876	550,684
-2,731	21,621	935,176	549,703
-1,717	21,543	934,431	548,998
-0,702	21,651	933,669	548,869
0,313	21,413	933,160	548,650
1,327	23,908	930,586	554,931
2,342	31,348	808,860	502,514
3,356	26,048	509,757	307,601
4,371	1,725	374,606	195,003
5,386	-1,076	357,588	182,681
6,400	-2,228	351,782	178,302
7,415	-2,801	349,176	176,276
8,429	-2,763	347,764	175,592
9,444	-2,597	346,959	175,369
10,459	-2,587	346,037	174,899
11,473	-2,732	345,530	174,455
12,488	-2,832	345,030	174,068
13,502	-2,738	344,321	173,806
14,517	-2,772	343,913	173,544
15,531	-2,639	343,356	173,406
16,546	-2,479	343,027	173,412
17,561	-2,590	342,533	173,016
18,575	-2,437	342,358	173,093
19,590	-2,570	341,671	172,574
20,604	-2,613	341,481	172,412
21,619	-2,695	341,179	172,147
22,634	-2,601	340,719	172,010
23,648	-2,566	340,397	171,874
24,663	-2,564	340,126	171,724
25,677	-2,620	339,885	171,521
26,692	-2,648	339,560	171,310
27,707	-2,617	339,226	171,162
28,721	-2,556	338,835	171,021
29,736	-2,532	338,526	170,878
30,750	-2,438	338,148	170,781
31,765	-2,576	337,914	170,487
32,780	-2,548	337,815	170,454
33,794	-2,610	337,360	170,137
34,809	-2,592	337,137	170,030
35,823	-2,446	336,712	169,970
36,838	-2,565	336,490	169,706
37,853	-2,453	336,210	169,678
38,867	-2,666	336,036	169,330
39,882	-2,548	335,763	169,313
40,896	-2,609	335,481	169,085
41,911	-2,536	335,122	168,974
42,926	-2,510	334,890	168,872
43,940	-2,474	334,520	168,710
44,955	-2,562	334,429	168,549
45,969	-2,612	334,214	168,369
46,984	-2,365	333,808	168,432
47,999	-2,535	333,716	168,175
49,013	-2,691	333,450	167,848
50,028	-2,572	333,107	167,796
51,042	-2,664	332,733	167,488
52,057	-2,699	332,472	167,301
53,071	-2,607	332,315	167,313
54,086	-2,687	332,162	167,129
55,101	-2,680	331,818	166,950
56,115	-2,600	331,534	166,882
57,130	-2,634	331,301	166,712
58,144	-2,548	330,913	166,599
59,159	-2,483	330,624	166,512
60,174	-2,737	330,598	166,196
61,188	-2,672	330,142	166,026
62,203	-2,576	330,064	166,081
63,217	-2,411	329,644	166,041
64,232	-2,747	329,623	165,636
65,247	-2,439	329,030	165,671
66,261	-2,581	328,873	165,417
67,276	-2,636	328,677	165,242
68,290	-2,732	328,385	164,972
69,305	-2,639	328,132	164,935
70,320	-2,730	327,997	164,749
71,334	-2,471	327,566	164,810
72,349	-2,497	327,335	164,650
73,363	-2,763	327,321	164,330
74,378	-2,632	326,806	164,203
75,393	-2,643	326,655	164,100
76,407	-2,710	326,386	163,875
77,422	-2,461	326,039	163,965
78,436	-2,568	325,838	163,730
79,451	-2,609	325,590	163,544
80,466	-2,495	325,215	163,468
81,480	-2,517	325,074	163,358
82,495	-2,605	325,040	163,228
83,509	-2,534	324,652	163,099
84,524	-2,516	324,369	162,962
85,539	-2,419	324,059	162,899
86,553	-2,359	323,786	162,813
87,568	-2,511	323,636	162,556
88,582	-2,584	323,438	162,360
89,597	-2,528	323,163	162,271
90,611	-2,637	323,150	162,129
91,626	-2,557	322,816	162,035
92,641	-2,482	322,624	162,007
93,655	-2,558	322,361	161,777
94,670	-2,609	322,023	161,537
95,684	-2,516	321,768	161,496
96,699	-2,599	321,614	161,313
97,714	-2,663	321,463	161,152
98,728	-2,476	321,264	161,245
99,743	-2,490	320,710	160,936
100,757	-2,544	320,599	160,807
101,772	-2,681	320,490	160,588
102,787	-2,417	320,078	160,656
103,801	-2,542	319,940	160,436
104,816	-2,605	319,741	160,253
105,830	-2,617	319,539	160,124
106,845	-2,466	319,172	160,091
107,860	-2,617	319,046	159,848
108,874	-2,666	318,726	159,621
109,889	-2,545	318,500	159,625
110,903	-2,421	318,274	159,632
111,918	-2,565	317,960	159,305
112,933	-2,596	317,896	159,224
113,947	-2,397	317,530	159,242
114,962	-2,601	317,459	158,972
115,976	-2,501	317,108	158,890
116,991	-2,633	316,919	158,639
118,006	-2,556	316,738	158,617
119,020	-2,398	316,663	158,736
120,035	-2,422	316,400	158,564
121,049	-2,381	316,227	158,507
122,064	-2,457	315,996	158,296
123,079	-2,524	315,842	158,132
124,093	-2,519	315,441	157,923
125,108	-2,632	315,259	157,696
126,122	-2,399	314,863	157,734
127,137	-2,564	314,788	157,505
128,151	-2,504	314,549	157,436
129,166	-2,552	314,280	157,236
130,181	-2,331	313,939	157,288
131,195	-2,409	313,756	157,098
132,210	-2,401	313,604	157,016
133,224	-2,491	313,443	156,826
134,239	-2,716	313,195	156,448
135,254	-2,496	312,803	156,473
136,268	-2,620	312,647	156,248
137,283	-2,572	312,500	156,212
138,297	-2,586	312,263	156,065
139,312	-2,482	311,999	156,030
140,327	-2,433	311,793	155,965
141,341	-2,608	311,528	155,633
142,356	-2,430	311,340	155,714
143,370	-2,548	311,262	155,536
144,385	-2,593	311,072	155,379
145,400	-2,770	310,943	155,113
146,414	-2,563	310,625	155,159
147,429	-2,714	310,382	154,865
148,443	-2,404	310,162	155,068
149,458	-2,367	309,937	154,982
150,473	-2,512	309,755	154,724
151,487	-2,472	309,474	154,612
152,502	-2,710	309,392	154,306
153,516	-2,397	308,978	154,415
154,531	-2,625	308,912	154,129
155,546	-2,530	308,504	154,011
156,560	-2,509	308,332	153,934
157,575	-2,499	308,215	153,872
158,589	-2,421	307,731	153,699
159,604	-2,389	307,721	153,713
160,619	-2,658	307,533	153,324
161,633	-2,378	307,397	153,535
162,648	-2,340	307,023	153,375
163,662	-2,307	306,798	153,283
164,677	-2,539	306,720	152,988
165,692	-2,428	306,600	153,031
166,706	-2,348	306,328	152,965
167,721	-2,267	306,064	152,903
168,735	-2,464	305,844	152,576
169,750	-2,428	305,766	152,560
170,764	-2,642	305,592	152,237
171,779	-2,459	305,400	152,318
172,794	-2,592	305,166	152,050
173,808	-2,353	304,822	152,112
174,823	-2,400	304,604	151,941
175,837	-2,500	304,455	151,750
176,852	-2,532	304,407	151,680
177,867	-2,371	304,030	151,645
178,881	-2,352	303,861	151,566
179,896	-2,424	303,706	151,401
180,910	-2,401	303,506	151,311
181,925	-2,465	303,298	151,129
182,940	-2,451	303,117	151,039
183,954	-2,556	302,858	150,789
184,969	-2,282	302,677	150,967
185,983	-2,445	302,458	150,676
186,998	-2,423	302,262	150,588
188,013	-2,426	302,201	150,541
189,027	-2,419	301,909	150,389
190,042	-2,484	301,601	150,155
191,056	-2,402	301,380	150,117
192,071	-2,518	301,193	149,891
193,086	-2,405	300,931	149,863
194,100	-2,304	300,744	149,859
195,115	-2,384	300,681	149,733
196,129	-2,477	300,437	149,503
197,144	-2,535	300,136	149,281
198,159	-2,458	300,098	149,328
199,173	-2,363	299,619	149,173
200,188	-2,381	299,344	149,004
201,202	-2,405	299,181	148,885
202,217	-2,514	299,056	148,699
203,232	-2,446	298,870	148,663
204,246	-2,520	298,726	148,503
205,261	-2,523	298,514	148,381
206,275	-2,377	298,365	148,441
207,290	-2,422	298,217	148,309
208,304	-2,152	297,980	148,450
209,319	-2,476	297,912	148,076
210,334	-2,518	297,425	147,779
211,348	-2,300	297,323	147,934
212,363	-2,291	297,077	147,808
213,377	-2,327	296,808	147,625
214,392	-2,405	296,766	147,512
215,407	-2,374	296,527	147,411
216,421	-2,537	296,418	147,181
217,436	-2,402	295,990	147,090
218,450	-2,366	295,925	147,081
219,465	-2,496	295,694	146,823
220,480	-2,441	295,602	146,819
221,494	-2,463	295,441	146,704
222,509	-2,455	295,136	146,548
223,523	-2,506	294,913	146,373
224,538	-2,454	294,780	146,346
225,553	-2,341	294,462	146,287
226,567	-2,380	294,353	146,181
227,582	-2,476	294,284	146,038
228,596	-2,461	293,945	145,872
229,611	-2,326	293,881	145,961
230,626	-2,414	293,640	145,742
231,640	-2,451	293,486	145,616
232,655	-2,388	293,221	145,533
233,669	-2,591	293,063	145,240
234,684	-2,399	292,704	145,239
235,699	-2,479	292,673	145,132
236,713	-2,498	292,547	145,038
237,728	-2,422	292,300	144,977
238,742	-2,284	292,062	144,983
239,757	-2,409	291,887	144,760
240,772	-2,483	291,700	144,582
241,786	-2,356	291,462	144,576
242,801	-2,532	291,365	144,341
243,815	-2,408	291,160	144,349
244,830	-2,395	290,952	144,245
245,844	-2,481	290,742	144,044
246,859	-2,390	290,407	143,954
247,874	-2,423	290,232	143,823
248,888	-2,477	290,135	143,708
249,903	-2,429	289,855	143,604
250,917	-2,571	289,801	143,426
251,932	-2,495	289,695	143,434
252,947	-2,524	289,284	143,191
253,961	-2,869	289,058	142,729
254,976	-3,070	288,649	142,319
255,990	-3,098	288,567	142,238
257,005	-2,790	288,794	142,638
258,020	-0,717	289,412	144,952
259,034	0,898	289,716	146,667
260,049	1,541	289,922	147,385
261,063	2,029	289,851	147,811
262,078	2,280	289,739	147,985
263,093	2,602	289,583	148,206
264,107	2,901	289,602	148,494
265,122	2,866	289,521	148,405
266,136	3,097	289,216	148,459
267,151	2,951	289,230	148,312
268,166	3,044	289,030	148,286
269,180	2,952	288,861	148,097
270,195	3,057	288,485	147,992
271,209	3,051	288,273	147,865
272,224	3,193	288,099	147,899
273,239	3,092	287,742	147,606
274,253	2,825	287,550	147,236
275,268	2,864	287,425	147,197
276,282	2,665	287,327	146,942
277,297	2,780	287,127	146,938
278,312	2,841	286,958	146,897
279,326	2,796	286,761	146,739
280,341	2,912	286,496	146,701
281,355	2,882	286,384	146,603
282,370	2,849	286,090	146,407
283,384	2,800	285,941	146,271
284,399	2,536	285,907	145,988
285,414	2,636	285,608	145,917
286,428	2,691	285,424	145,864
287,443	2,623	285,310	145,727
288,457	2,626	285,163	145,641
289,472	2,754	284,913	145,623
290,487	2,619	284,611	145,327
291,501	2,539	284,454	145,158
292,516	2,412	284,360	144,976
293,530	2,420	284,105	144,841
294,545	2,440	283,910	144,747
295,560	2,627	283,700	144,805
296,574	2,533	283,397	144,549
297,589	2,365	283,323	144,338
298,603	2,554	283,051	144,366
299,618	2,505	282,956	144,258
300,633	2,523	282,874	144,221
301,647	2,644	282,638	144,202
302,662	2,805	282,497	144,269
303,676	2,700	282,278	144,045
304,691	2,929	282,066	144,141
305,706	2,723	281,968	143,883
306,720	3,098	281,682	144,078
307,735	2,957	281,665	143,924
308,749	2,962	281,384	143,771
309,764	2,863	281,237	143,591
310,779	2,786	281,039	143,404
311,793	2,710	280,770	143,183
312,808	2,818	280,685	143,229
313,822	2,705	280,611	143,072
314,837	2,752	280,310	142,949
315,852	2,614	280,163	142,733
316,866	2,684	280,016	142,711
317,881	3,005	279,731	142,853
318,895	2,739	279,638	142,544
319,910	2,771	279,433	142,456
320,925	2,873	279,123	142,381
321,939	2,892	279,020	142,334
322,954	2,715	278,950	142,120
323,968	2,903	278,792	142,202
324,983	2,728	278,599	141,928
325,997	3,033	278,243	142,017
327,012	2,953	278,165	141,891
328,027	2,954	277,987	141,788
329,041	3,093	277,799	141,808
330,056	2,855	277,668	141,508
331,070	2,784	277,521	141,354
332,085	2,671	277,462	141,207
333,100	2,781	277,148	141,137
334,114	2,871	276,957	141,111
335,129	2,821	276,695	140,918
336,143	2,813	276,561	140,830
337,158	3,005	276,393	140,909
338,173	2,908	276,294	140,756
339,187	2,999	276,026	140,691
340,202	3,186	275,825	140,748
341,216	2,790	275,736	140,325
342,231	2,912	275,503	140,307
343,246	3,033	275,146	140,224
344,260	2,912	275,111	140,082
345,275	2,841	275,175	140,037
346,289	3,004	274,889	140,028
347,304	3,027	274,685	139,933
348,319	2,828	274,459	139,624
349,333	2,876	274,379	139,615
350,348	2,891	274,194	139,522
351,362	2,831	273,949	139,330
352,377	3,018	273,847	139,436
353,392	3,030	273,589	139,303
354,406	2,942	273,456	139,142
355,421	191,098	1349,503	1428,750
356,435	154,287	1480,704	1428,878
