DTS Sentinel unit serial number:	SN410029Multiplexer serial number:	ORYXHardware model number:	OX2-SRSoftware version number:	ORYX F/W v4,00 Oryx Data Collector v3.7.2.0data status	okinstallation	B4 Nyhavnadifferential loss correction	single-endedforward channel	channel 2reverse channel	N/Adate	2023/12/16time	05:55:13forward acquisition time	300,00reverse acquisition time	0,00gamma	499,1914k internal	0,3128k external	0,3128temperature offset calibration	1,0000default loss term (dB/km)	0,3820temperature slope calibration	1,0000multiplexer offset coefficient	1,0000multiplexer slope coefficient	1,0000fibre end	0,00T internal ref (°C)	22,22T ext. ref 1 (°C)	7,48T ext. ref 2 (°C)	7,67length (m)	temperature (°C)	Stokes	anti-Stokes-744,400	45,529	0,094	-0,064
-743,385	-5,174	-0,105	0,054
-742,371	-57,571	0,137	0,044
-741,356	800,000	-0,104	0,291
-740,342	-48,694	0,063	0,023
-739,327	-78,950	-0,201	0,051
-738,312	-200,000	0,012	0,084
-737,298	149,738	-0,136	0,137
-736,283	552,312	0,046	-0,083
-735,269	50,804	-0,279	0,197
-734,254	152,044	-0,051	-0,052
-733,239	-127,907	-0,448	-0,047
-732,225	93,577	-0,067	0,057
-731,210	800,000	-0,020	0,056
-730,196	90,233	0,063	-0,052
-729,181	-160,577	-0,206	0,008
-728,167	185,345	-0,020	0,022
-727,152	-76,145	0,159	-0,042
-726,137	-200,000	-0,001	0,008
-725,123	-200,000	0,018	-0,102
-724,108	334,777	-0,066	-0,095
-723,094	-116,793	-0,043	0,006
-722,079	291,337	0,038	0,051
-721,064	28,715	0,092	0,058
-720,050	425,421	0,072	0,116
-719,035	122,194	0,067	0,062
-718,021	-200,000	-0,032	-0,144
-717,006	-200,000	-0,008	-0,061
-715,991	800,000	-0,017	-0,046
-714,977	245,049	0,039	-0,049
-713,962	84,833	-0,150	-0,122
-712,948	-81,089	0,150	-0,037
-711,933	-140,823	0,068	-0,005
-710,918	770,098	0,073	-0,148
-709,904	800,000	-0,040	-0,130
-708,889	800,000	-0,035	-0,099
-707,875	-49,519	-0,090	-0,032
-706,860	771,062	0,004	0,009
-705,845	-64,857	0,177	-0,053
-704,831	47,875	0,068	0,047
-703,816	51,227	0,037	0,026
-702,802	800,000	0,059	0,131
-701,787	263,588	0,079	-0,102
-700,772	442,378	0,030	-0,049
-699,758	41,222	0,047	-0,032
-698,743	-169,287	0,114	0,003
-697,729	-200,000	-0,005	0,093
-696,714	-200,000	-0,089	-0,000
-695,699	110,617	-0,075	0,067
-694,685	279,624	-0,068	-0,090
-693,670	-200,000	-0,034	-0,141
-692,656	-76,806	-0,158	0,041
-691,641	-200,000	0,003	-0,019
-690,627	800,000	-0,030	0,083
-689,612	67,780	0,037	0,028
-688,597	171,666	-0,041	0,044
-687,583	581,417	0,049	-0,089
-686,568	-68,245	0,061	-0,017
-685,554	-155,200	-0,062	-0,003
-684,539	800,000	-0,040	0,096
-683,524	442,020	0,057	-0,094
-682,510	79,364	0,057	0,045
-681,495	423,253	-0,079	-0,126
-680,481	-109,525	-0,119	0,018
-679,466	-40,866	0,107	-0,041
-678,451	-200,000	0,007	0,052
-677,437	-191,296	-0,083	0,001
-676,422	-22,228	-0,110	-0,049
-675,408	-200,000	-0,006	-0,025
-674,393	-200,000	-0,019	0,062
-673,378	20,050	-0,206	-0,123
-672,364	800,000	-0,058	-0,120
-671,349	-40,961	-0,080	0,031
-670,335	-146,979	-0,062	0,004
-669,320	467,256	-0,056	-0,093
-668,305	800,000	0,039	0,103
-667,291	680,700	0,064	-0,125
-666,276	216,207	-0,038	0,045
-665,262	567,409	0,097	-0,176
-664,247	-93,231	-0,115	-0,024
-663,232	222,750	-0,070	0,084
-662,218	173,597	0,070	0,075
-661,203	27,175	-0,014	0,009
-660,189	800,000	-0,006	-0,016
-659,174	27,457	-0,120	-0,075
-658,159	13,358	-0,206	-0,118
-657,145	-36,358	0,104	-0,041
-656,130	800,000	0,008	-0,022
-655,116	-61,987	0,162	-0,050
-654,101	-200,000	0,018	0,100
-653,086	-200,000	0,006	-0,051
-652,072	209,777	-0,134	-0,157
-651,057	-120,944	-0,049	-0,006
-650,043	-22,740	-0,094	-0,042
-649,028	780,194	-0,041	0,084
-648,014	19,889	0,106	-0,063
-646,999	-200,000	0,002	-0,109
-645,984	800,000	-0,022	0,055
-644,970	-108,560	-0,042	0,007
-643,955	-157,901	-0,171	0,007
-642,941	339,302	-0,061	-0,088
-641,926	-200,000	0,009	-0,071
-640,911	7,396	-0,121	-0,067
-639,897	-200,000	-0,011	0,062
-638,882	-34,778	0,073	-0,029
-637,868	-200,000	0,019	0,119
-636,853	-104,673	-0,170	-0,029
-635,838	-200,000	-0,040	-0,185
-634,824	-197,888	0,083	-0,000
-633,809	52,536	0,038	0,027
-632,795	234,741	0,059	-0,073
-631,780	-98,459	-0,015	-0,003
-630,765	96,772	-0,127	0,108
-629,751	-68,650	-0,107	-0,031
-628,736	39,682	0,077	0,051
-627,722	-71,030	0,174	0,048
-626,707	126,100	-0,041	-0,038
-625,692	21,466	-0,069	0,042
-624,678	-200,000	0,022	-0,125
-623,663	800,000	0,013	-0,035
-622,649	800,000	0,034	-0,076
-621,634	395,561	0,023	-0,035
-620,619	-46,055	-0,079	-0,029
-619,605	-16,665	0,129	0,060
-618,590	-37,495	-0,088	0,035
-617,576	-200,000	0,008	-0,038
-616,561	-29,112	0,159	-0,067
-615,546	61,030	0,019	-0,014
-614,532	-156,298	-0,132	0,006
-613,517	102,865	0,016	-0,014
-612,503	619,017	-0,043	-0,081
-611,488	-200,000	-0,005	-0,066
-610,474	800,000	0,017	0,042
-609,459	145,828	-0,085	0,085
-608,444	-200,000	-0,011	-0,086
-607,430	-200,000	0,001	0,017
-606,415	-36,304	-0,042	-0,017
-605,401	12,802	-0,113	0,065
-604,386	-200,000	0,037	0,195
-603,371	-200,000	0,014	0,057
-602,357	-98,234	-0,173	-0,033
-601,342	0,123	0,040	-0,021
-600,328	800,000	0,036	-0,111
-599,313	-4,157	0,070	-0,036
-598,298	741,034	0,030	-0,061
-597,284	-13,885	0,071	0,034
-596,269	-13,894	-0,056	-0,027
-595,255	-174,391	-0,105	0,002
-594,240	14,431	0,087	-0,050
-593,225	181,833	-0,115	-0,125
-592,211	800,000	-0,020	0,048
-591,196	544,926	-0,088	0,156
-590,182	76,237	-0,036	0,028
-589,167	191,173	0,112	-0,125
-588,152	360,146	0,030	-0,045
-587,138	707,075	0,025	0,049
-586,123	-141,592	-0,048	-0,003
-585,109	123,228	0,053	-0,049
-584,094	69,373	0,088	-0,067
-583,079	-93,343	0,080	-0,016
-582,065	30,812	0,060	-0,038
-581,050	-67,889	-0,016	0,005
-580,036	-200,000	0,039	-0,129
-579,021	107,732	-0,066	-0,058
-578,006	203,443	-0,040	-0,046
-576,992	-200,000	-0,007	-0,043
-575,977	800,000	-0,031	0,064
-574,963	-200,000	0,009	0,119
-573,948	151,376	0,020	-0,020
-572,934	800,000	-0,039	-0,097
-571,919	-128,460	-0,114	-0,012
-570,904	356,277	-0,050	0,074
-569,890	196,966	-0,086	-0,097
-568,875	-26,473	-0,069	-0,030
-567,861	-200,000	0,003	0,094
-566,846	-6,255	0,132	0,066
-565,831	18,346	0,036	0,021
-564,817	-165,445	-0,044	-0,001
-563,802	373,494	-0,024	-0,037
-562,788	83,694	0,032	0,026
-561,773	-200,000	0,019	0,113
-560,758	-200,000	0,044	0,000
-559,744	-200,000	-0,004	0,064
-558,729	6,186	-0,022	-0,012
-557,715	140,293	-0,082	-0,080
-556,700	-31,812	-0,024	-0,010
-555,685	-200,000	-0,014	0,079
-554,671	-200,000	-0,015	-0,167
-553,656	800,000	0,067	-0,144
-552,642	-86,564	0,055	-0,012
-551,627	-154,861	-0,096	0,005
-550,612	715,635	-0,019	-0,037
-549,598	536,679	-0,077	-0,136
-548,583	-109,144	0,049	-0,008
-547,569	-67,825	0,097	0,028
-546,554	800,000	-0,060	-0,162
-545,539	-48,400	0,170	0,060
-544,525	207,384	-0,113	-0,130
-543,510	800,000	0,091	-0,188
-542,496	466,725	-0,108	-0,179
-541,481	325,386	-0,121	-0,172
-540,466	-71,752	0,034	-0,009
-539,452	-161,303	0,058	-0,002
-538,437	-200,000	-0,012	-0,042
-537,423	-77,626	0,117	-0,030
-536,408	71,563	0,041	0,032
-535,393	88,963	-0,070	-0,058
-534,379	165,479	-0,046	-0,049
-533,364	800,000	-0,032	0,098
-532,350	94,238	-0,066	-0,055
-531,335	93,637	0,082	-0,068
-530,321	110,740	-0,138	-0,122
-529,306	800,000	0,035	0,097
-528,291	54,848	-0,019	-0,013
-527,277	-10,053	-0,070	0,034
-526,262	-82,562	-0,027	-0,006
-525,248	-46,711	0,025	0,009
-524,233	-200,000	0,019	0,195
-523,218	-155,928	-0,060	0,003
-522,204	-44,864	-0,076	-0,028
-521,189	389,033	-0,069	0,106
-520,175	44,757	-0,031	0,021
-519,160	-42,353	-0,123	-0,046
-518,145	-200,000	0,011	0,061
-517,131	-93,657	0,054	-0,011
-516,116	37,345	0,072	0,047
-515,102	-200,000	0,032	-0,114
-514,087	-200,000	-0,019	-0,068
-513,072	1,390	-0,086	-0,045
-512,058	156,065	0,101	0,103
-511,043	-58,314	0,132	0,042
-510,029	-14,020	0,042	-0,020
-509,014	-200,000	-0,013	0,158
-507,999	-46,276	-0,056	-0,020
-506,985	367,597	-0,049	-0,073
-505,970	52,679	0,131	-0,092
-504,956	134,839	-0,104	-0,100
-503,941	800,000	0,013	0,026
-502,926	239,761	-0,036	0,044
-501,912	-200,000	0,009	0,066
-500,897	-200,000	0,024	-0,110
-499,883	123,491	-0,040	-0,037
-498,868	800,000	-0,039	-0,104
-497,853	-147,311	-0,015	-0,001
-496,839	289,863	-0,087	-0,116
-495,824	152,811	0,102	0,103
-494,810	800,000	-0,027	0,055
-493,795	256,669	-0,090	0,114
-492,781	-116,523	0,069	-0,009
-491,766	20,292	-0,035	-0,020
-490,751	-200,000	0,038	-0,141
-489,737	-200,000	0,002	-0,042
-488,722	-21,048	0,116	0,052
-487,708	627,831	-0,068	-0,128
-486,693	-40,325	-0,098	0,037
-485,678	-163,182	0,105	-0,004
-484,664	-200,000	0,022	-0,153
-483,649	-200,000	0,010	-0,090
-482,635	467,724	0,026	-0,043
-481,620	10,796	0,078	-0,044
-480,605	264,516	-0,047	-0,061
-479,591	143,917	-0,040	0,039
-478,576	-81,487	-0,049	0,012
-477,562	-94,030	-0,134	0,027
-476,547	-200,000	-0,010	-0,121
-475,532	-54,075	-0,039	-0,013
-474,518	-26,943	-0,174	0,075
-473,503	800,000	0,022	-0,058
-472,489	-200,000	0,009	0,051
-471,474	44,509	-0,063	0,042
-470,459	-157,390	-0,164	-0,007
-469,445	800,000	-0,041	-0,100
-468,430	623,746	0,028	0,052
-467,416	-88,926	-0,034	0,007
-466,401	-76,672	0,062	-0,016
-465,386	-200,000	-0,004	0,116
-464,372	-60,995	-0,045	0,014
-463,357	-63,988	-0,095	-0,028
-462,343	256,350	0,019	-0,024
-461,328	-25,662	-0,019	0,008
-460,313	-200,000	0,025	-0,098
-459,299	76,671	0,051	0,040
-458,284	1,848	0,054	0,029
-457,270	106,607	-0,110	0,096
-456,255	87,392	-0,069	-0,056
-455,241	-200,000	-0,006	0,050
-454,226	31,635	0,054	-0,034
-453,211	272,988	-0,104	0,136
-452,197	669,457	0,008	0,015
-451,182	419,880	0,045	0,071
-450,168	-200,000	0,006	0,081
-449,153	-159,108	0,044	-0,002
-448,138	-54,455	-0,057	-0,019
-447,124	219,912	-0,082	-0,097
-446,109	800,000	0,013	0,042
-445,095	265,115	-0,064	0,082
-444,080	-200,000	0,017	0,164
-443,065	308,575	0,034	0,046
-442,051	285,995	0,034	0,045
-441,036	-27,866	-0,089	0,038
-440,022	345,812	0,062	-0,090
-439,007	290,724	0,054	0,073
-437,992	37,399	0,050	0,032
-436,978	-39,372	0,131	-0,050
-435,963	-32,589	-0,058	-0,024
-434,949	800,000	-0,033	0,074
-433,934	-55,561	-0,037	-0,012
-432,919	116,467	-0,049	-0,044
-431,905	-50,776	0,024	-0,008
-430,890	716,029	-0,036	-0,071
-429,876	455,863	0,111	-0,182
-428,861	-92,664	0,049	0,010
-427,846	316,102	0,024	-0,033
-426,832	800,000	-0,031	0,076
-425,817	755,793	-0,042	-0,084
-424,803	-200,000	0,045	-0,155
-423,788	-200,000	0,025	0,089
-422,773	800,000	-0,049	0,148
-421,759	101,587	-0,087	0,074
-420,744	143,299	-0,073	0,072
-419,730	164,123	0,014	0,014
-418,715	-200,000	0,033	-0,148
-417,701	-171,868	-0,054	0,001
-416,686	-145,701	0,030	-0,002
-415,671	-160,484	0,108	0,004
-414,657	-146,343	0,041	0,003
-413,642	-200,000	-0,008	-0,115
-412,628	-71,080	-0,067	-0,018
-411,613	-200,000	-0,024	-0,121
-410,598	-47,754	-0,126	-0,044
-409,584	349,351	-0,083	0,121
-408,569	-200,000	-0,001	0,080
-407,555	5,010	-0,036	0,020
-406,540	-34,887	-0,078	0,031
-405,525	-84,432	-0,103	0,024
-404,511	604,355	0,018	0,032
-403,496	-200,000	-0,032	-0,107
-402,482	350,755	0,094	0,137
-401,467	-59,473	0,084	-0,026
-400,452	112,943	-0,024	-0,022
-399,438	31,712	0,121	0,076
-398,423	800,000	-0,012	-0,029
-397,409	-199,029	0,149	-0,001
-396,394	200,739	-0,009	-0,010
-395,379	350,789	-0,047	0,068
-394,365	-200,000	0,024	0,089
-393,350	632,292	-0,022	-0,041
-392,336	105,390	0,050	0,043
-391,321	345,115	-0,096	0,139
-390,306	-47,994	0,089	-0,032
-389,292	85,385	0,076	0,061
-388,277	183,074	0,030	-0,032
-387,263	-98,247	0,118	-0,022
-386,248	387,223	0,060	-0,091
-385,233	-200,000	0,047	0,174
-384,219	-200,000	0,005	0,164
-383,204	-200,000	0,020	-0,085
-382,190	-200,000	0,002	-0,090
-381,175	19,611	-0,075	0,044
-380,160	800,000	0,011	-0,035
-379,146	234,766	0,095	0,115
-378,131	-118,663	0,045	-0,006
-377,117	800,000	-0,068	-0,143
-376,102	-200,000	-0,014	-0,217
-375,088	-200,000	0,003	-0,104
-374,073	92,426	0,019	0,016
-373,058	-200,000	0,030	0,258
-372,044	-200,000	0,009	0,049
-371,029	-200,000	0,011	-0,074
-370,015	113,282	0,051	0,046
-369,000	-200,000	0,012	0,055
-367,985	-200,000	-0,003	-0,058
-366,971	-83,966	-0,060	0,014
-365,956	49,404	0,023	-0,016
-364,942	192,471	0,089	0,099
-363,927	-200,000	0,023	0,092
-362,912	248,415	0,083	0,103
-361,898	-200,000	-0,040	0,000
-360,883	204,266	-0,116	0,131
-359,869	-200,000	-0,025	0,092
-358,854	-200,000	-0,023	-0,076
-357,839	-126,848	0,120	0,013
-356,825	-115,288	0,157	0,022
-355,810	-35,323	-0,056	-0,022
-354,796	-94,017	0,109	0,022
-353,781	336,017	-0,060	-0,085
-352,766	-200,000	-0,023	-0,094
-351,752	800,000	0,033	-0,083
-350,737	800,000	-0,012	-0,033
-349,723	296,062	0,093	0,126
-348,708	800,000	0,015	-0,041
-347,693	38,338	0,063	-0,041
-346,679	-200,000	0,013	-0,213
-345,664	82,190	-0,101	-0,080
-344,650	469,380	-0,017	0,028
-343,635	-200,000	0,016	-0,156
-342,620	-93,168	0,093	-0,019
-341,606	-66,350	0,056	0,016
-340,591	-143,093	-0,051	0,004
-339,577	-8,189	0,052	0,025
-338,562	403,990	0,058	-0,090
-337,548	702,512	-0,042	-0,081
-336,533	-143,411	-0,053	0,004
-335,518	-200,000	0,002	-0,044
-334,504	9,224	0,042	0,023
-333,489	-111,508	0,024	-0,004
-332,475	800,000	-0,055	0,116
-331,460	609,421	-0,080	-0,146
-330,445	-0,421	-0,057	-0,030
-329,431	178,966	0,052	0,056
-328,416	-200,000	0,045	-0,163
-327,402	-163,332	0,051	0,002
-326,387	800,000	-0,056	0,176
-325,372	-23,646	-0,071	-0,031
-324,358	-200,000	-0,014	0,080
-323,343	6,021	-0,025	-0,014
-322,329	800,000	0,070	0,157
-321,314	-200,000	-0,001	0,121
-320,299	-101,121	0,033	-0,006
-319,285	301,743	0,073	0,099
-318,270	-128,020	-0,069	0,007
-317,256	42,898	0,093	-0,062
-316,241	-165,313	-0,071	0,002
-315,226	-200,000	0,001	0,033
-314,212	-66,231	0,095	0,028
-313,197	6,241	-0,122	0,066
-312,183	-186,727	0,111	-0,001
-311,168	-200,000	-0,009	0,042
-310,153	800,000	-0,042	-0,110
-309,139	-8,469	0,027	0,013
-308,124	800,000	-0,016	-0,047
-307,110	599,740	0,030	0,055
-306,095	330,172	0,077	0,109
-305,080	-55,174	0,116	-0,038
-304,066	-200,000	0,008	0,083
-303,051	-17,336	-0,074	0,034
-302,037	-72,362	-0,184	0,050
-301,022	800,000	-0,041	-0,110
-300,008	-132,730	0,065	0,006
-298,993	-93,462	0,104	0,021
-297,978	-93,945	0,068	-0,014
-296,964	-78,154	-0,036	-0,009
-295,949	-167,900	-0,132	-0,004
-294,935	106,221	-0,037	-0,032
-293,920	119,633	0,079	-0,072
-292,905	416,011	0,096	0,150
-291,891	800,000	0,066	-0,141
-290,876	180,043	0,073	0,079
-289,862	800,000	0,007	0,022
-288,847	800,000	0,025	0,078
-287,832	-22,663	0,025	-0,011
-286,818	157,221	-0,032	0,033
-285,803	800,000	0,025	-0,079
-284,789	800,000	-0,017	0,041
-283,774	152,615	0,060	0,060
-282,759	-140,755	-0,114	0,008
-281,745	-200,000	-0,016	-0,084
-280,730	693,928	-0,063	0,121
-279,716	-23,225	-0,079	-0,035
-278,701	151,362	-0,021	-0,020
-277,686	800,000	-0,022	-0,047
-276,672	800,000	0,046	0,145
-275,657	-23,501	0,129	0,056
-274,643	341,159	0,075	-0,107
-273,628	216,106	-0,140	-0,163
-272,613	41,567	-0,099	-0,065
-271,599	-8,402	-0,087	0,042
-270,584	-70,217	0,088	-0,024
-269,570	724,109	0,087	-0,170
-268,555	762,083	0,014	-0,027
-267,540	-200,000	0,028	0,164
-266,526	-115,059	-0,041	0,006
-265,511	322,009	-0,105	0,146
-264,497	800,000	0,016	0,039
-263,482	800,000	0,026	0,054
-262,467	110,912	-0,092	0,080
-261,453	-200,000	-0,009	0,115
-260,438	800,000	0,054	-0,116
-259,424	-21,230	-0,087	-0,039
-258,409	800,000	-0,040	0,100
-257,395	214,385	0,043	0,050
-256,380	-157,146	0,096	-0,004
-255,365	-200,000	-0,005	0,148
-254,351	-200,000	0,007	0,047
-253,336	-200,000	-0,004	-0,016
-252,322	800,000	-0,011	0,026
-251,307	419,239	-0,064	0,100
-250,292	-200,000	-0,008	0,027
-249,278	147,504	0,065	-0,064
-248,263	-124,996	0,083	-0,009
-247,249	-4,347	0,144	-0,072
-246,234	-144,323	-0,067	-0,005
-245,219	-200,000	0,006	0,020
-244,205	251,072	-0,080	-0,100
-243,190	87,906	0,064	-0,051
-242,176	-200,000	-0,026	-0,089
-241,161	800,000	0,031	0,090
-240,146	13,093	0,119	0,067
-239,132	-91,375	0,084	0,017
-238,117	84,045	0,054	0,043
-237,103	-132,939	-0,248	-0,023
-236,088	-200,000	-0,004	-0,070
-235,073	-200,000	0,007	0,081
-234,059	-86,280	0,083	0,018
-233,044	99,943	0,021	0,018
-232,030	146,530	-0,058	0,057
-231,015	425,915	-0,057	0,090
-230,000	800,000	0,041	-0,085
-228,986	-200,000	-0,003	-0,021
-227,971	25,525	0,163	-0,099
-226,957	763,188	-0,045	0,090
-225,942	-200,000	-0,001	0,056
-224,927	800,000	-0,036	0,091
-223,913	-16,291	-0,045	0,021
-222,898	-200,000	-0,005	0,050
-221,884	-200,000	-0,007	0,048
-220,869	142,892	0,055	0,054
-219,855	-17,843	0,056	-0,025
-218,840	-200,000	-0,025	0,206
-217,825	198,111	-0,033	-0,036
-216,811	-33,042	0,063	-0,026
-215,796	-3,366	0,028	-0,014
-214,782	437,623	-0,029	0,046
-213,767	-105,772	-0,106	-0,017
-212,752	429,434	0,041	0,065
-211,738	-70,968	0,028	-0,008
-210,723	-61,333	-0,218	-0,066
-209,709	-12,572	-0,017	0,008
-208,694	-92,845	0,092	0,019
-207,679	-200,000	0,004	-0,078
-206,665	-178,345	0,134	0,002
-205,650	797,850	0,075	0,152
-204,636	-200,000	-0,013	-0,086
-203,621	-200,000	0,002	0,085
-202,606	-200,000	-0,006	0,061
-201,592	800,000	0,041	-0,084
-200,577	-160,108	-0,076	-0,003
-199,563	-113,960	0,102	-0,014
-198,548	-190,978	0,034	-0,000
-197,533	45,996	0,076	0,051
-196,519	-200,000	-0,001	0,022
-195,504	106,581	-0,054	-0,047
-194,490	107,619	-0,087	-0,076
-193,475	446,864	-0,073	-0,117
-192,460	800,000	0,087	-0,190
-191,446	256,849	-0,026	0,032
-190,431	196,055	0,081	0,090
-189,417	422,268	-0,048	0,076
-188,402	-86,407	-0,115	0,026
-187,387	285,967	-0,042	-0,055
-186,373	800,000	-0,056	-0,119
-185,358	139,902	0,015	-0,015
-184,344	-200,000	0,007	-0,147
-183,329	28,195	0,035	-0,021
-182,315	-200,000	0,003	0,100
-181,300	-200,000	-0,030	-0,112
-180,285	-200,000	0,003	0,051
-179,271	192,330	-0,071	-0,079
-178,256	663,180	0,032	0,060
-177,242	367,636	-0,061	0,090
-176,227	-200,000	0,002	0,188
-175,212	-200,000	-0,029	0,173
-174,198	-31,382	0,063	-0,026
-173,183	-128,658	-0,074	0,007
-172,169	72,439	0,085	-0,064
-171,154	-178,465	0,217	0,004
-170,139	-173,219	-0,122	0,003
-169,125	363,392	0,039	0,057
-168,110	521,957	0,065	0,112
-167,096	-200,000	-0,000	0,092
-166,081	-39,603	0,045	0,017
-165,066	282,570	-0,029	-0,038
-164,052	-200,000	0,001	0,093
-163,037	-36,023	0,123	-0,048
-162,023	800,000	0,024	0,069
-161,008	90,189	0,053	0,043
-159,993	36,102	0,116	0,074
-158,979	-96,731	-0,160	-0,030
-157,964	84,265	0,040	0,031
-156,950	-200,000	0,005	-0,057
-155,935	42,105	0,068	0,045
-154,920	-200,000	0,011	0,101
-153,906	187,821	0,137	0,149
-152,891	160,137	0,061	-0,062
-151,877	-96,753	-0,076	0,014
-150,862	213,685	-0,046	-0,053
-149,847	26,369	0,094	0,057
-148,833	129,033	-0,013	0,012
-147,818	241,586	0,055	0,067
-146,804	-200,000	0,003	0,149
-145,789	67,320	0,058	0,043
-144,775	-200,000	-0,006	-0,059
-143,760	657,048	0,035	0,065
-142,745	221,055	-0,088	0,103
-141,731	282,880	0,018	0,024
-140,716	146,080	0,061	-0,059
-139,702	43,053	0,108	-0,072
-138,687	-161,166	0,121	-0,005
-137,672	280,890	0,068	0,088
-136,658	-71,142	-0,076	-0,021
-135,643	-18,978	0,070	0,032
-134,629	-66,401	0,108	0,031
-133,614	-200,000	-0,016	0,055
-132,599	-172,558	0,086	-0,002
-131,585	-75,009	-0,053	-0,014
-130,570	-130,539	0,009	-0,001
-129,556	-3,383	-0,071	-0,036
-128,541	-200,000	0,026	0,093
-127,526	116,400	-0,103	-0,092
-126,512	143,668	-0,036	0,035
-125,497	-145,843	0,142	0,009
-124,483	110,641	0,056	-0,049
-123,468	-74,502	0,102	0,027
-122,453	-104,576	-0,146	0,024
-121,439	-15,977	0,013	-0,006
-120,424	378,690	-0,076	-0,113
-119,410	-56,969	-0,078	-0,025
-118,395	69,717	0,051	-0,038
-117,380	81,325	0,188	-0,148
-116,366	106,827	-0,047	-0,040
-115,351	-43,235	0,079	-0,029
-114,337	596,369	-0,016	-0,030
-113,322	-147,874	0,091	-0,005
-112,307	-200,000	0,008	0,066
-111,293	259,335	0,056	0,070
-110,278	-62,646	-0,087	0,026
-109,264	87,782	-0,023	0,018
-108,249	-200,000	0,007	-0,138
-107,234	20,381	0,009	-0,005
-106,220	-72,446	-0,081	-0,022
-105,205	800,000	-0,049	0,151
-104,191	165,589	0,078	0,080
-103,176	-113,679	0,137	-0,019
-102,162	332,320	0,065	0,092
-101,147	-25,240	-0,084	-0,036
-100,132	-200,000	-0,018	-0,120
-99,118	800,000	0,015	0,044
-98,103	-103,051	-0,075	-0,013
-97,089	-200,000	-0,024	-0,141
-96,074	-200,000	0,019	0,066
-95,059	-200,000	-0,023	0,103
-94,045	-200,000	-0,023	0,098
-93,030	-42,769	-0,130	-0,048
-92,016	-33,165	0,109	-0,043
-91,001	-87,646	0,055	0,012
-89,986	217,346	0,092	-0,106
-88,972	60,564	0,083	0,060
-87,957	-95,644	-0,124	-0,024
-86,943	-200,000	-0,005	-0,034
-85,928	-200,000	0,010	0,184
-84,913	800,000	-0,050	0,133
-83,899	-148,111	0,048	0,003
-82,884	208,406	-0,051	0,058
-81,870	800,000	-0,029	-0,090
-80,855	-200,000	-0,032	0,145
-79,840	800,000	0,069	0,144
-78,826	-200,000	-0,026	-0,095
-77,811	800,000	-0,033	-0,098
-76,797	66,336	-0,014	0,010
-75,782	154,863	-0,034	-0,034
-74,767	444,311	-0,028	-0,045
-73,753	604,431	-0,043	-0,079
-72,738	-200,000	-0,023	0,114
-71,724	-77,335	-0,108	-0,027
-70,709	280,006	0,024	-0,031
-69,694	95,236	0,059	-0,049
-68,680	26,527	0,049	-0,030
-67,665	-22,774	0,085	-0,037
-66,651	-200,000	-0,025	0,129
-65,636	98,670	0,065	0,054
-64,622	-200,000	0,021	-0,100
-63,607	-20,180	-0,085	-0,038
-62,592	-200,000	0,036	-0,178
-61,578	-193,044	-0,038	0,000
-60,563	-0,046	0,057	0,030
-59,549	26,161	-0,095	-0,057
-58,534	-117,215	-1,346	-0,175
-57,519	748,251	-0,712	-1,397
-56,505	-200,000	-0,929	-4,340
-55,490	-110,512	0,678	-0,101
-54,476	800,000	4,894	11,500
-53,461	-200,000	13,857	251,344
-52,446	-200,000	690,455	2245,050
-51,432	588,347	1620,583	2904,068
-50,417	118,839	1631,464	1460,425
-49,403	74,015	1286,132	976,699
-48,388	38,095	1022,328	657,628
-47,373	24,232	980,383	585,192
-46,359	23,490	970,008	576,549
-45,344	22,491	965,540	570,615
-44,330	22,439	964,222	569,645
-43,315	22,329	962,907	568,487
-42,300	22,305	961,741	567,700
-41,286	22,289	960,620	566,962
-40,271	22,272	959,892	566,455
-39,257	22,257	958,923	565,814
-38,242	22,204	957,930	565,035
-37,227	22,226	957,114	564,602
-36,213	22,246	956,309	564,168
-35,198	22,224	955,398	563,538
-34,184	22,230	954,896	563,237
-33,169	22,153	954,043	562,463
-32,154	22,289	952,929	562,225
-31,140	22,266	952,044	561,605
-30,125	22,278	951,358	561,216
-29,111	22,231	950,482	560,528
-28,096	22,268	949,748	560,190
-27,082	22,232	949,129	559,688
-26,067	22,241	948,401	559,266
-25,052	22,289	947,680	558,971
-24,038	22,249	947,033	558,441
-23,023	22,247	946,329	557,996
-22,009	22,310	945,624	557,759
-20,994	22,317	944,955	557,365
-19,979	22,308	944,347	556,956
-18,965	22,318	943,794	556,637
-17,950	22,265	943,174	556,081
-16,936	22,207	942,541	555,504
-15,921	22,184	941,771	554,952
-14,906	22,094	941,140	554,275
-13,892	22,093	940,444	553,840
-12,877	22,200	939,824	553,791
-11,863	22,083	939,325	553,104
-10,848	22,116	938,820	552,891
-9,833	22,170	938,256	552,708
-8,819	22,255	937,578	552,554
-7,804	22,154	936,859	551,791
-6,790	22,132	936,460	551,462
-5,775	22,152	935,745	551,082
-4,760	22,110	935,266	550,648
-3,746	22,154	934,442	550,278
-2,731	22,035	933,671	549,427
-1,717	21,941	933,081	548,762
-0,702	21,986	932,297	548,420
0,313	21,764	931,781	548,247
1,327	24,288	929,662	554,867
2,342	32,220	808,134	503,780
3,356	27,463	508,539	308,892
4,371	3,223	373,235	195,963
5,386	0,205	356,103	183,259
6,400	-1,344	350,063	178,271
7,415	-2,143	347,128	175,806
8,429	-2,318	345,693	174,855
9,444	-2,419	344,657	174,195
10,459	-2,357	344,073	173,959
11,473	-2,269	343,454	173,734
12,488	-2,136	343,118	173,706
13,502	-2,098	342,497	173,421
14,517	-2,137	341,957	173,086
15,531	-2,319	341,324	172,537
16,546	-2,347	340,984	172,316
17,561	-2,418	340,532	171,990
18,575	-2,468	340,118	171,706
19,590	-2,325	339,726	171,660
20,604	-2,189	339,382	171,630
21,619	-2,309	339,004	171,283
22,634	-2,371	338,565	170,974
23,648	-2,537	338,312	170,638
24,663	-2,321	337,991	170,712
25,677	-2,318	337,733	170,570
26,692	-2,462	337,480	170,260
27,707	-2,343	336,998	170,139
28,721	-2,469	336,816	169,886
29,736	-2,327	336,388	169,820
30,750	-2,334	336,081	169,641
31,765	-2,516	335,781	169,265
32,780	-2,340	335,604	169,364
33,794	-2,308	335,203	169,183
34,809	-2,420	334,964	168,918
35,823	-2,385	334,704	168,812
36,838	-2,458	334,344	168,532
37,853	-2,528	334,104	168,315
38,867	-2,464	333,799	168,221
39,882	-2,543	333,593	168,011
40,896	-2,595	333,332	167,805
41,911	-2,458	333,126	167,843
42,926	-2,464	332,701	167,607
43,940	-2,569	332,472	167,356
44,955	-2,540	332,126	167,201
45,969	-2,585	331,902	167,022
46,984	-2,719	331,644	166,725
47,999	-2,976	331,264	166,227
49,013	-2,946	330,979	166,103
50,028	-3,024	330,659	165,839
51,042	-3,145	330,461	165,588
52,057	-3,167	330,062	165,349
53,071	-2,957	329,866	165,473
54,086	-3,090	329,765	165,258
55,101	-3,018	329,551	165,216
56,115	-2,732	329,214	165,355
57,130	-2,414	329,033	165,609
58,144	-2,209	329,030	165,824
59,159	-2,257	328,771	165,624
60,174	-2,270	328,314	165,364
61,188	-2,283	328,190	165,273
62,203	-2,297	327,823	165,057
63,217	-2,137	327,494	165,057
64,232	-2,273	327,340	164,812
65,247	-2,295	327,285	164,745
66,261	-2,333	326,899	164,494
67,276	-2,402	326,334	164,117
68,290	-2,683	326,105	163,674
69,305	-2,657	326,041	163,656
70,320	-2,571	325,615	163,523
71,334	-2,532	325,589	163,540
72,349	-2,212	325,358	163,765
73,363	-2,164	325,003	163,625
74,378	-2,210	324,720	163,417
75,393	-2,198	324,635	163,373
76,407	-2,352	324,272	163,005
77,422	-2,352	324,155	162,931
78,436	-2,329	323,837	162,783
79,451	-2,161	323,519	162,794
80,466	-2,365	323,244	162,416
81,480	-2,523	322,962	162,084
82,495	-2,642	322,568	161,741
83,509	-2,538	322,458	161,786
84,524	-2,598	322,251	161,602
85,539	-2,817	322,049	161,245
86,553	-2,742	321,700	161,138
87,568	-2,679	321,602	161,144
88,582	-2,635	321,233	160,993
89,597	-2,549	321,004	160,958
90,611	-2,522	320,927	160,936
91,626	-2,360	320,662	160,966
92,641	-2,548	320,462	160,645
93,655	-2,420	320,056	160,567
94,670	-2,483	319,832	160,371
95,684	-2,522	319,754	160,275
96,699	-2,484	319,420	160,136
97,714	-2,534	319,018	159,865
98,728	-2,633	318,798	159,633
99,743	-2,681	318,636	159,485
100,757	-2,680	318,431	159,369
101,772	-2,820	318,226	159,101
102,787	-2,752	318,008	159,051
103,801	-2,522	317,809	159,188
104,816	-2,540	317,667	159,082
105,830	-2,402	317,574	159,171
106,845	-2,189	317,251	159,225
107,860	-2,464	317,035	158,805
108,874	-2,461	316,615	158,584
109,889	-2,507	316,485	158,455
110,903	-2,478	316,141	158,300
111,918	-2,444	315,959	158,231
112,933	-2,449	315,891	158,178
113,947	-2,477	315,526	157,950
114,962	-2,410	315,423	157,957
115,976	-2,367	315,106	157,831
116,991	-2,602	314,907	157,464
118,006	-2,526	314,621	157,389
119,020	-2,435	314,388	157,356
120,035	-2,471	314,331	157,274
121,049	-2,429	314,180	157,230
122,064	-2,458	313,919	157,055
123,079	-2,409	313,541	156,904
124,093	-2,387	313,358	156,822
125,108	-2,660	313,093	156,384
126,122	-2,848	312,806	156,026
127,137	-2,951	312,527	155,763
128,151	-2,784	312,315	155,821
129,166	-2,632	312,248	155,936
130,181	-2,731	311,925	155,656
131,195	-2,747	311,564	155,444
132,210	-2,691	311,549	155,482
133,224	-2,493	311,460	155,634
134,239	-2,438	311,116	155,507
135,254	-2,439	310,909	155,388
136,268	-2,488	310,646	155,191
137,283	-2,755	310,270	154,708
138,297	-2,848	309,979	154,451
139,312	-2,702	309,820	154,512
140,327	-2,555	309,689	154,587
141,341	-2,091	309,636	155,036
142,356	-2,140	309,491	154,897
143,370	-2,174	309,297	154,752
144,385	-2,065	309,103	154,755
145,400	-2,176	308,870	154,508
146,414	-2,181	308,554	154,331
147,429	-2,075	308,472	154,387
148,443	-2,065	308,255	154,275
149,458	-2,165	308,148	154,103
150,473	-1,958	307,809	154,136
151,487	-2,063	307,478	153,848
152,502	-2,250	307,392	153,595
153,516	-2,108	307,125	153,597
154,531	-1,953	306,873	153,619
155,546	-2,172	306,747	153,313
156,560	-2,273	306,525	153,083
157,575	-2,424	306,247	152,774
158,589	-2,261	306,055	152,834
159,604	-2,020	305,711	152,898
160,619	-2,068	305,407	152,683
161,633	-2,097	305,388	152,630
162,648	-2,180	305,188	152,431
163,662	-2,238	305,197	152,361
164,677	-2,300	304,929	152,150
165,692	-2,270	304,788	152,097
166,706	-2,158	304,625	152,118
167,721	-2,040	304,351	152,089
168,735	-2,178	304,193	151,854
169,750	-2,148	304,062	151,806
170,764	-2,149	303,892	151,707
171,779	-2,082	303,639	151,636
172,794	-1,992	303,317	151,554
173,808	-2,161	303,084	151,251
174,823	-2,505	302,707	150,696
175,837	-2,611	302,482	150,462
176,852	-2,461	302,506	150,614
177,867	-2,145	302,504	150,923
178,881	-1,921	302,055	150,915
179,896	-1,900	301,854	150,823
180,910	-2,056	301,875	150,661
181,925	-2,093	301,610	150,477
182,940	-1,750	301,326	150,672
183,954	-1,973	301,056	150,296
184,969	-2,189	300,985	150,027
185,983	-1,922	300,518	150,053
186,998	-1,988	300,444	149,935
188,013	-2,193	300,355	149,669
189,027	-2,041	300,183	149,724
190,042	-2,112	300,112	149,604
191,056	-1,986	299,705	149,515
192,071	-1,926	299,502	149,462
193,086	-1,700	299,417	149,635
194,100	-1,876	299,195	149,332
195,115	-1,934	298,899	149,113
196,129	-1,978	298,608	148,910
197,144	-2,045	298,488	148,770
198,159	-1,928	298,372	148,816
199,173	-1,733	298,017	148,823
200,188	-1,772	297,783	148,653
201,202	-1,983	297,478	148,275
202,217	-2,600	297,284	147,544
203,232	-2,641	297,063	147,380
204,246	-2,223	296,972	147,742
205,261	-1,807	296,729	148,025
206,275	-1,952	296,594	147,799
207,290	-2,108	296,612	147,639
208,304	-1,901	296,239	147,647
209,319	-1,938	295,951	147,454
210,334	-2,119	295,907	147,237
211,348	-2,176	295,722	147,076
212,363	-2,095	295,453	147,009
213,377	-1,998	295,242	146,988
214,392	-2,000	295,181	146,942
215,407	-2,218	294,844	146,545
216,421	-2,331	294,629	146,312
217,436	-2,261	294,460	146,284
218,450	-2,324	294,236	146,097
219,465	-2,187	294,064	146,136
220,480	-2,135	293,853	146,069
221,494	-2,178	293,674	145,924
222,509	-2,301	293,571	145,739
223,523	-2,081	293,225	145,772
224,538	-1,944	293,203	145,883
225,553	-1,911	292,858	145,731
226,567	-2,010	292,783	145,583
227,582	-1,964	292,770	145,609
228,596	-1,952	292,563	145,504
229,611	-1,891	292,366	145,454
230,626	-1,841	292,104	145,360
231,640	-2,473	291,822	144,584
232,655	-2,578	291,317	144,218
233,669	-2,488	291,095	144,184
234,684	-2,578	291,053	144,061
235,699	-2,514	290,811	143,992
236,713	-2,378	290,687	144,050
237,728	-2,276	290,505	144,048
238,742	-2,126	290,376	144,118
239,757	-2,212	290,308	143,987
240,772	-2,123	290,116	143,966
241,786	-2,187	289,888	143,778
242,801	-2,150	289,692	143,703
243,815	-2,380	289,484	143,363
244,830	-2,279	289,333	143,374
245,844	-2,329	289,075	143,184
246,859	-2,187	288,946	143,246
247,874	-2,263	288,713	143,045
248,888	-2,332	288,551	142,884
249,903	-2,225	288,379	142,890
250,917	-2,018	288,231	143,004
251,932	-1,768	288,218	143,229
252,947	-1,167	288,298	143,839
253,961	-1,783	287,843	143,003
254,976	-0,586	288,426	144,441
255,990	1,996	289,076	147,263
257,005	2,713	289,378	148,100
258,020	3,979	289,596	149,429
259,034	4,193	289,449	149,548
260,049	3,878	289,054	149,024
261,063	3,829	288,884	148,876
262,078	3,959	288,861	148,977
263,093	4,351	288,948	149,388
264,107	4,455	288,656	149,324
265,122	4,568	288,641	149,413
266,136	4,889	288,452	149,612
267,151	4,801	288,157	149,361
268,166	4,597	287,923	149,029
269,180	4,583	287,648	148,860
270,195	4,379	287,534	148,591
271,209	4,555	287,256	148,604
272,224	4,493	287,094	148,447
273,239	4,281	286,943	148,152
274,253	4,167	286,701	147,905
275,268	4,766	286,684	148,457
276,282	4,667	286,564	148,287
277,297	4,438	286,239	147,886
278,312	4,793	286,223	148,204
279,326	4,847	285,893	148,073
280,341	4,460	285,890	147,687
281,355	4,409	285,603	147,477
282,370	4,477	285,312	147,379
283,384	4,309	285,205	147,150
284,399	4,451	285,058	147,197
285,414	4,295	284,853	146,929
286,428	4,303	284,522	146,753
287,443	4,046	284,306	146,384
288,457	3,902	284,166	146,162
289,472	4,085	283,858	146,164
290,487	4,135	283,652	146,093
291,501	3,879	283,516	145,767
292,516	3,667	283,281	145,432
293,530	3,735	283,140	145,411
294,545	4,074	283,039	145,668
295,560	4,200	282,969	145,737
296,574	4,172	282,715	145,567
297,589	4,172	282,514	145,450
298,603	4,329	282,449	145,552
299,618	4,573	282,208	145,645
300,633	4,355	282,104	145,373
301,647	4,281	281,949	145,210
302,662	4,095	281,807	144,949
303,676	4,075	281,455	144,736
304,691	3,928	281,136	144,421
305,706	3,605	280,939	144,004
306,720	3,834	280,802	144,136
307,735	3,780	280,662	144,000
308,749	4,123	280,460	144,206
309,764	4,167	280,283	144,143
310,779	4,064	280,055	143,916
311,793	3,724	279,800	143,455
312,808	3,749	279,637	143,382
313,822	3,831	279,573	143,412
314,837	3,764	279,383	143,240
315,852	3,581	279,053	142,887
316,866	3,753	278,964	142,990
317,881	3,712	278,736	142,822
318,895	3,911	278,634	142,942
319,910	3,691	278,381	142,595
320,925	3,683	278,098	142,429
321,939	4,015	277,831	142,588
322,954	3,742	278,093	142,457
323,968	4,054	277,750	142,557
324,983	4,132	277,671	142,576
325,997	3,992	277,445	142,318
327,012	4,237	277,334	142,475
328,027	4,154	277,269	142,352
329,041	4,066	276,940	142,089
330,056	4,064	276,786	141,996
331,070	4,220	276,591	142,026
332,085	3,818	276,441	141,566
333,100	4,069	276,247	141,686
334,114	4,096	275,963	141,552
335,129	3,851	275,711	141,185
336,143	3,971	275,822	141,340
337,158	4,262	275,584	141,473
338,173	4,256	275,343	141,331
339,187	3,861	275,162	140,863
340,202	4,243	274,990	141,112
341,216	4,229	274,733	140,955
342,231	4,050	274,661	140,742
343,246	3,923	274,565	140,564
344,260	3,824	274,266	140,308
345,275	4,041	274,238	140,479
346,289	4,400	274,072	140,709
347,304	4,323	273,837	140,506
348,319	3,946	273,727	140,093
349,333	4,059	273,472	140,053
350,348	4,356	273,263	140,204
351,362	4,385	273,203	140,186
352,377	4,271	272,937	139,935
353,392	4,314	272,913	139,948
354,406	4,275	272,843	139,865
355,421	192,871	1330,122	1412,210
356,435	155,894	1459,023	1412,334
