DTS Sentinel unit serial number:	SN410029Multiplexer serial number:	ORYXHardware model number:	OX2-SRSoftware version number:	ORYX F/W v4,00 Oryx Data Collector v3.7.2.0data status	okinstallation	B4 Nyhavnadifferential loss correction	single-endedforward channel	channel 2reverse channel	N/Adate	2023/12/18time	21:10:13forward acquisition time	300,00reverse acquisition time	0,00gamma	499,1914k internal	0,3124k external	0,3124temperature offset calibration	1,0000default loss term (dB/km)	0,3820temperature slope calibration	1,0000multiplexer offset coefficient	1,0000multiplexer slope coefficient	1,0000fibre end	0,00T internal ref (°C)	21,84T ext. ref 1 (°C)	7,19T ext. ref 2 (°C)	7,17length (m)	temperature (°C)	Stokes	anti-Stokes-744,400	497,507	-0,048	-0,083
-743,385	188,551	-0,159	0,178
-742,371	-200,000	0,036	-0,154
-741,356	-37,013	-0,260	0,103
-740,342	37,286	-0,034	0,022
-739,327	-79,736	-0,302	0,075
-738,312	-200,000	0,002	-0,135
-737,298	32,387	-0,333	0,214
-736,283	-200,000	-0,018	-0,148
-735,269	-168,730	-0,132	0,004
-734,254	800,000	0,006	0,020
-733,239	-17,577	-0,234	-0,109
-732,225	163,920	-0,057	0,060
-731,210	-48,712	-0,083	0,030
-730,196	615,595	-0,045	0,085
-729,181	800,000	0,022	-0,045
-728,167	-200,000	0,007	0,074
-727,152	32,950	0,053	-0,034
-726,137	243,465	-0,123	-0,154
-725,123	-200,000	-0,026	-0,112
-724,108	415,017	-0,094	-0,150
-723,094	30,010	-0,066	0,042
-722,079	80,957	-0,098	0,079
-721,064	746,596	0,071	-0,144
-720,050	-200,000	0,007	-0,029
-719,035	77,284	-0,080	-0,063
-718,021	800,000	-0,072	-0,171
-717,006	73,959	-0,125	-0,098
-715,991	148,795	-0,129	-0,130
-714,977	181,207	0,053	-0,058
-713,962	-49,836	-0,021	0,007
-712,948	18,153	-0,114	0,067
-711,933	800,000	0,027	-0,079
-710,918	-108,399	-0,172	-0,027
-709,904	-95,701	0,066	0,013
-708,889	-160,151	-0,126	-0,005
-707,875	-132,622	-0,049	0,005
-706,860	89,518	0,025	0,020
-705,845	-27,845	0,123	0,053
-704,831	-200,000	-0,032	-0,148
-703,816	273,505	-0,042	0,055
-702,802	-200,000	0,019	-0,122
-701,787	-11,923	0,044	-0,021
-700,772	648,595	-0,068	-0,130
-699,758	800,000	0,050	-0,108
-698,743	36,002	-0,070	0,046
-697,729	17,873	0,041	0,024
-696,714	-200,000	-0,011	-0,161
-695,699	-77,150	-0,042	0,011
-694,685	18,234	-0,084	0,050
-693,670	-200,000	-0,005	0,042
-692,656	-200,000	0,010	0,070
-691,641	621,929	0,030	0,057
-690,627	179,522	-0,084	0,092
-689,612	800,000	-0,054	0,134
-688,597	-96,740	0,118	-0,023
-687,583	-200,000	-0,025	-0,098
-686,568	800,000	0,040	0,096
-685,554	180,487	0,038	0,042
-684,539	302,001	0,029	0,040
-683,524	119,508	-0,055	-0,051
-682,510	-200,000	-0,006	0,072
-681,495	532,781	-0,091	-0,162
-680,481	800,000	0,029	-0,087
-679,466	-117,538	-0,163	0,022
-678,451	51,071	0,050	0,035
-677,437	-200,000	0,014	-0,093
-676,422	154,127	0,033	0,034
-675,408	-143,618	-0,065	-0,005
-674,393	-140,576	-0,144	-0,011
-673,378	92,343	-0,026	-0,022
-672,364	283,119	-0,040	-0,053
-671,349	800,000	-0,062	-0,159
-670,335	170,465	-0,031	-0,033
-669,320	-148,532	-0,058	0,003
-668,305	-168,101	-0,134	-0,004
-667,291	267,032	0,033	0,043
-666,276	84,381	-0,047	-0,038
-665,262	193,158	-0,077	-0,087
-664,247	149,378	-0,012	-0,012
-663,232	-91,949	0,111	-0,023
-662,218	-150,138	0,062	0,004
-661,203	75,897	-0,050	0,040
-660,189	-200,000	-0,017	0,186
-659,174	-200,000	0,025	0,136
-658,159	-51,459	0,031	-0,011
-657,145	-19,125	-0,110	0,051
-656,130	-93,507	-0,125	0,026
-655,116	538,312	0,018	-0,032
-654,101	-21,344	0,077	-0,035
-653,086	383,901	0,028	-0,043
-652,072	-48,411	-0,045	-0,016
-651,057	-200,000	0,018	0,076
-650,043	169,291	0,062	0,066
-649,028	-200,000	-0,017	0,090
-648,014	-200,000	0,010	-0,051
-646,999	-200,000	-0,004	-0,034
-645,984	-79,008	-0,080	0,020
-644,970	-114,806	0,036	-0,005
-643,955	171,183	0,009	0,009
-642,941	97,407	-0,092	-0,079
-641,926	-200,000	0,044	-0,182
-640,911	-105,180	-0,083	-0,014
-639,897	708,001	0,027	0,053
-638,882	-120,848	0,199	-0,025
-637,868	-95,950	0,151	0,030
-636,853	-41,169	-0,153	-0,058
-635,838	167,585	-0,077	-0,081
-634,824	172,485	0,029	-0,031
-633,809	-200,000	-0,009	-0,074
-632,795	-9,068	0,046	0,023
-631,780	125,247	0,084	0,078
-630,765	204,569	0,022	0,026
-629,751	526,962	-0,018	-0,032
-628,736	84,758	0,042	0,034
-627,722	800,000	-0,035	-0,095
-626,707	-200,000	0,005	-0,043
-625,692	-107,201	0,090	-0,014
-624,678	497,390	0,023	0,039
-623,663	-21,779	-0,106	0,048
-622,649	273,294	-0,008	-0,011
-621,634	5,999	-0,036	-0,020
-620,619	-200,000	0,009	0,037
-619,605	479,308	-0,052	-0,088
-618,590	76,380	0,085	-0,067
-617,576	375,400	0,025	-0,038
-616,561	-20,579	-0,059	0,027
-615,546	-200,000	-0,014	-0,176
-614,532	165,152	-0,066	-0,069
-613,517	800,000	-0,060	-0,136
-612,503	130,722	0,032	0,030
-611,488	-200,000	-0,008	-0,168
-610,474	126,380	-0,022	0,021
-609,459	-123,813	-0,106	-0,012
-608,444	-22,628	-0,107	0,048
-607,430	-200,000	0,029	-0,149
-606,415	-139,661	-0,061	-0,005
-605,401	800,000	0,044	0,099
-604,386	-65,804	0,021	-0,006
-603,371	-200,000	0,000	0,003
-602,357	-200,000	0,004	0,083
-601,342	477,203	0,038	-0,064
-600,328	755,356	-0,029	-0,059
-599,313	165,169	-0,110	-0,116
-598,298	471,890	0,051	-0,085
-597,284	621,444	-0,026	0,048
-596,269	16,883	0,072	-0,042
-595,255	800,000	-0,038	0,097
-594,240	267,850	0,061	-0,079
-593,225	-200,000	0,014	-0,111
-592,211	800,000	-0,051	0,123
-591,196	-161,893	-0,146	0,005
-590,182	-48,971	0,047	0,017
-589,167	-27,841	0,160	-0,068
-588,152	-11,245	-0,164	0,080
-587,138	175,854	0,029	-0,032
-586,123	166,157	-0,113	-0,119
-585,109	-7,152	-0,087	0,044
-584,094	-200,000	-0,000	0,015
-583,079	275,874	0,035	-0,046
-582,065	-57,516	-0,158	0,051
-581,050	102,195	-0,080	0,069
-580,036	-18,685	0,017	-0,008
-579,021	24,300	-0,135	0,083
-578,006	-200,000	-0,018	-0,128
-576,992	106,561	0,072	0,064
-575,977	-200,000	0,001	-0,108
-574,963	-200,000	0,015	0,110
-573,948	172,910	-0,066	-0,071
-572,934	-113,906	0,004	-0,001
-571,919	800,000	0,034	0,070
-570,904	135,988	-0,076	0,073
-569,890	800,000	0,028	0,088
-568,875	-58,250	0,246	0,079
-567,861	-64,360	0,044	0,013
-566,846	800,000	0,017	-0,052
-565,831	800,000	-0,034	-0,087
-564,817	99,207	-0,094	0,080
-563,802	70,427	-0,040	0,031
-562,788	-8,955	-0,009	-0,005
-561,773	-148,378	0,069	-0,004
-560,758	-200,000	0,009	0,079
-559,744	175,980	0,047	-0,050
-558,729	-74,327	-0,154	-0,041
-557,715	114,179	-0,047	0,043
-556,700	800,000	0,019	0,061
-555,685	-114,438	-0,088	-0,012
-554,671	-128,338	-0,139	-0,014
-553,656	15,307	0,081	0,047
-552,642	645,078	-0,048	0,091
-551,627	78,526	0,025	0,020
-550,612	-139,458	-0,051	0,004
-549,598	-106,206	-0,041	0,007
-548,583	-70,769	-0,127	-0,035
-547,569	97,074	0,024	-0,021
-546,554	-200,000	-0,008	0,057
-545,539	313,308	0,076	0,105
-544,525	-111,486	-0,046	-0,007
-543,510	47,990	-0,072	-0,050
-542,496	-47,548	0,043	0,016
-541,481	-101,417	-0,079	0,014
-540,466	55,366	-0,029	-0,021
-539,452	127,397	0,034	-0,032
-538,437	253,032	0,077	0,097
-537,423	226,267	0,053	0,063
-536,408	800,000	-0,044	0,093
-535,393	-71,974	-0,164	-0,045
-534,379	-200,000	0,004	-0,124
-533,364	-200,000	0,000	0,036
-532,350	-161,336	0,045	0,002
-531,335	190,562	0,065	-0,072
-530,321	583,777	-0,042	0,077
-529,306	402,126	0,038	0,059
-528,291	78,554	-0,044	0,035
-527,277	160,703	-0,130	0,135
-526,262	529,884	-0,096	-0,168
-525,248	-64,911	-0,115	0,034
-524,233	336,848	-0,056	0,080
-523,218	-200,000	0,027	-0,111
-522,204	77,009	0,070	0,055
-521,189	-64,786	0,078	0,023
-520,175	-40,562	-0,127	-0,048
-519,160	-48,661	0,078	0,028
-518,145	-23,337	-0,014	0,006
-517,131	23,653	-0,093	0,057
-516,116	-78,555	-0,045	-0,011
-515,102	-200,000	-0,020	0,146
-514,087	-26,329	-0,057	-0,025
-513,072	-200,000	0,026	-0,106
-512,058	575,759	0,057	-0,104
-511,043	-53,859	-0,060	-0,020
-510,029	526,313	-0,030	0,052
-509,014	-14,837	0,086	-0,041
-507,999	546,312	0,054	0,096
-506,985	-200,000	0,019	-0,115
-505,970	179,637	0,109	-0,118
-504,956	1,030	-0,169	-0,089
-503,941	-165,085	0,083	0,003
-502,926	387,129	0,022	0,034
-501,912	766,406	0,056	0,113
-500,897	-200,000	-0,007	0,090
-499,883	-200,000	0,010	0,067
-498,868	-94,875	-0,043	-0,009
-497,853	50,057	-0,059	-0,041
-496,839	-7,781	0,040	-0,020
-495,824	-58,935	0,084	0,027
-494,810	-16,999	0,070	0,032
-493,795	-52,162	-0,087	-0,030
-492,781	57,524	0,047	0,034
-491,766	-200,000	0,019	-0,109
-490,751	800,000	-0,040	-0,096
-489,737	-69,503	0,043	0,012
-488,722	800,000	0,017	0,046
-487,708	800,000	-0,051	-0,123
-486,693	650,323	-0,014	0,026
-485,678	-8,996	-0,160	0,079
-484,664	-200,000	0,024	0,140
-483,649	59,048	0,150	-0,109
-482,635	195,735	0,063	-0,070
-481,620	84,697	0,076	-0,062
-480,605	-200,000	0,016	0,087
-479,591	-200,000	0,026	0,133
-478,576	-200,000	0,040	0,154
-477,562	344,412	0,078	0,113
-476,547	-200,000	-0,025	0,119
-475,532	-200,000	0,000	-0,020
-474,518	154,750	0,112	-0,113
-473,503	-200,000	0,021	-0,074
-472,489	-200,000	0,022	0,087
-471,474	125,204	0,059	-0,055
-470,459	613,784	-0,051	0,095
-469,445	471,303	-0,082	-0,137
-468,430	78,340	0,128	-0,101
-467,416	-104,980	-0,039	0,007
-466,401	-200,000	-0,015	-0,048
-465,386	-200,000	-0,007	0,078
-464,372	-177,264	-0,073	0,001
-463,357	199,436	-0,097	-0,110
-462,343	352,352	-0,076	-0,111
-461,328	-72,343	0,137	0,037
-460,313	14,407	0,133	-0,076
-459,299	662,381	0,052	0,100
-458,284	107,611	0,131	0,115
-457,270	-200,000	0,008	0,186
-456,255	-114,869	-0,120	-0,017
-455,241	32,578	0,018	0,012
-454,226	-200,000	-0,004	-0,023
-453,211	-29,099	-0,069	0,029
-452,197	-55,479	0,127	-0,042
-451,182	9,450	0,109	0,060
-450,168	98,067	-0,042	0,036
-449,153	-64,394	0,088	0,026
-448,138	-200,000	0,005	-0,082
-447,124	128,665	0,049	-0,046
-446,109	-200,000	-0,031	-0,106
-445,095	-200,000	-0,013	0,096
-444,080	-155,289	0,147	-0,007
-443,065	355,881	0,080	0,117
-442,051	-200,000	0,033	-0,157
-441,036	-200,000	-0,006	-0,130
-440,022	800,000	-0,028	-0,082
-439,007	28,318	-0,100	-0,062
-437,992	594,470	-0,041	0,074
-436,978	-46,608	0,137	0,049
-435,963	35,619	0,049	0,032
-434,949	800,000	0,014	0,046
-433,934	-200,000	-0,000	-0,088
-432,919	-119,041	-0,101	-0,013
-431,905	800,000	-0,014	-0,029
-430,890	-48,893	-0,117	-0,041
-429,876	-14,173	-0,043	0,020
-428,861	111,029	0,100	0,088
-427,846	800,000	-0,091	-0,195
-426,832	136,273	-0,020	-0,019
-425,817	-200,000	0,019	-0,099
-424,803	-29,809	-0,112	-0,047
-423,788	-200,000	-0,008	-0,098
-422,773	800,000	-0,060	-0,155
-421,759	190,576	-0,112	-0,124
-420,744	-83,683	-0,036	0,008
-419,730	-170,237	-0,161	-0,004
-418,715	-200,000	-0,011	-0,074
-417,701	-200,000	0,004	-0,167
-416,686	320,619	-0,025	-0,035
-415,671	-200,000	-0,004	0,067
-414,657	800,000	0,015	-0,048
-413,642	577,698	0,068	0,123
-412,628	30,252	0,109	0,068
-411,613	-21,808	0,094	0,042
-410,598	61,686	0,016	-0,012
-409,584	422,065	0,047	-0,074
-408,569	-157,324	0,146	-0,006
-407,555	-200,000	0,007	-0,088
-406,540	-200,000	0,015	0,100
-405,525	61,344	-0,065	0,048
-404,511	3,406	0,060	0,032
-403,496	30,464	0,070	0,044
-402,482	139,377	0,052	-0,051
-401,467	-200,000	-0,008	-0,032
-400,452	745,444	0,042	0,085
-399,438	23,453	-0,080	0,048
-398,423	8,571	-0,045	-0,025
-397,409	-33,228	-0,044	-0,018
-396,394	-164,696	0,057	-0,002
-395,379	498,575	0,014	0,024
-394,365	-200,000	0,010	0,147
-393,350	-200,000	-0,017	0,058
-392,336	-200,000	-0,009	-0,060
-391,321	-88,773	-0,059	-0,013
-390,306	-59,083	-0,073	-0,023
-389,292	9,035	-0,110	-0,061
-388,277	-200,000	0,005	0,047
-387,263	223,904	0,066	0,079
-386,248	-26,751	0,026	0,011
-385,233	-200,000	0,028	0,128
-384,219	-43,507	0,044	0,016
-383,204	707,379	-0,044	-0,085
-382,190	800,000	-0,011	-0,030
-381,175	-200,000	0,022	0,081
-380,160	225,338	-0,004	-0,005
-379,146	-21,436	-0,218	-0,097
-378,131	35,316	-0,026	-0,017
-377,117	797,990	-0,048	-0,098
-376,102	11,446	-0,102	0,057
-375,088	238,635	-0,036	-0,044
-374,073	24,652	0,157	0,095
-373,058	-200,000	-0,022	-0,102
-372,044	-27,064	-0,045	0,019
-371,029	340,671	-0,028	0,040
-370,015	-28,887	0,059	0,025
-369,000	-126,162	0,061	-0,007
-367,985	-148,645	0,016	0,001
-366,971	800,000	-0,074	-0,164
-365,956	-30,187	0,183	-0,076
-364,942	232,837	-0,049	0,060
-363,927	161,704	0,032	-0,033
-362,912	-23,664	0,077	0,034
-361,898	800,000	0,033	0,068
-360,883	-200,000	0,004	-0,086
-359,869	193,922	-0,024	-0,026
-358,854	301,784	-0,009	0,012
-357,839	-89,506	0,080	-0,017
-356,825	83,542	0,127	0,101
-355,810	-110,880	0,109	0,016
-354,796	-103,190	0,013	0,002
-353,781	84,541	0,084	0,068
-352,766	-200,000	-0,021	-0,144
-351,752	87,568	0,001	-0,001
-350,737	-93,309	0,120	-0,024
-349,723	-200,000	-0,027	0,089
-348,708	-200,000	0,021	0,080
-347,693	-200,000	0,008	-0,164
-346,679	-200,000	-0,007	-0,041
-345,664	-200,000	-0,001	-0,031
-344,650	-200,000	-0,002	-0,128
-343,635	800,000	0,018	0,047
-342,620	40,176	-0,111	-0,073
-341,606	14,291	-0,039	-0,022
-340,591	695,579	0,028	0,054
-339,577	177,943	0,057	0,061
-338,562	800,000	0,035	0,073
-337,548	800,000	0,057	-0,164
-336,533	-200,000	-0,013	0,053
-335,518	-200,000	0,009	-0,055
-334,504	-25,766	0,132	0,057
-333,489	-133,745	-0,078	0,007
-332,475	-70,991	-0,065	-0,018
-331,460	57,157	0,064	-0,046
-330,445	-200,000	-0,001	-0,101
-329,431	110,719	-0,069	0,061
-328,416	-200,000	0,008	0,084
-327,402	121,854	-0,033	0,030
-326,387	-200,000	-0,005	0,098
-325,372	82,923	0,062	-0,050
-324,358	-116,610	0,081	-0,011
-323,343	186,304	-0,026	0,029
-322,329	-200,000	0,011	0,051
-321,314	123,395	-0,023	-0,021
-320,299	513,795	0,044	0,076
-319,285	-200,000	0,026	0,096
-318,270	194,859	-0,052	-0,057
-317,256	-86,685	-0,112	-0,025
-316,241	25,466	0,055	-0,033
-315,226	194,571	0,069	-0,077
-314,212	-9,605	0,067	-0,033
-313,197	800,000	-0,015	-0,039
-312,183	800,000	-0,026	0,054
-311,168	229,112	-0,061	-0,072
-310,153	-30,387	0,062	-0,026
-309,139	110,552	0,038	0,033
-308,124	125,526	0,071	-0,066
-307,110	102,177	0,098	0,084
-306,095	-145,318	0,073	0,005
-305,080	23,409	-0,063	0,038
-304,066	-200,000	0,010	0,084
-303,051	800,000	0,046	-0,109
-302,037	-102,846	-0,075	-0,013
-301,022	217,441	0,016	-0,019
-300,008	-200,000	0,000	-0,025
-298,993	-200,000	-0,003	0,128
-297,978	-2,946	0,158	-0,080
-296,964	800,000	-0,038	-0,110
-295,949	-171,533	-0,132	0,003
-294,935	-131,899	-0,126	0,012
-293,920	-132,170	-0,120	0,011
-292,905	23,296	0,113	0,068
-291,891	-200,000	-0,005	0,071
-290,876	-200,000	0,004	-0,109
-289,862	800,000	-0,071	0,186
-288,847	30,205	0,033	0,021
-287,832	-192,829	0,134	0,001
-286,818	202,786	-0,030	0,034
-285,803	-200,000	0,004	0,084
-284,789	-64,614	-0,009	0,003
-283,774	139,517	0,031	-0,030
-282,759	-10,761	0,045	0,022
-281,745	-14,478	-0,071	0,033
-280,730	-200,000	-0,027	0,183
-279,716	-200,000	0,008	-0,130
-278,701	-122,689	-0,097	-0,011
-277,686	-88,240	0,161	0,035
-276,672	800,000	0,010	0,028
-275,657	582,251	-0,030	-0,053
-274,643	-200,000	-0,021	-0,086
-273,628	310,610	-0,102	-0,140
-272,613	-200,000	0,002	-0,160
-271,599	110,952	0,077	-0,068
-270,584	-115,612	0,102	-0,014
-269,570	39,488	0,040	-0,026
-268,555	-38,134	-0,056	-0,022
-267,540	-200,000	0,009	0,071
-266,526	470,441	0,048	-0,079
-265,511	-200,000	0,009	0,052
-264,497	-200,000	-0,017	0,076
-263,482	-54,792	-0,083	0,027
-262,467	-88,026	0,044	-0,010
-261,453	-34,207	0,073	0,029
-260,438	800,000	-0,006	-0,016
-259,424	800,000	-0,044	0,124
-258,409	23,166	0,058	0,035
-257,395	63,851	0,063	-0,046
-256,380	-67,331	-0,048	-0,014
-255,365	122,901	0,025	0,023
-254,351	-116,759	-0,074	0,010
-253,336	9,332	-0,088	0,048
-252,322	365,385	-0,016	0,024
-251,307	-200,000	0,012	-0,097
-250,292	-58,165	-0,058	-0,018
-249,278	800,000	0,036	0,109
-248,263	-200,000	0,021	0,076
-247,249	-200,000	0,024	0,139
-246,234	250,215	0,105	0,131
-245,219	-171,427	-0,122	-0,003
-244,205	406,457	-0,023	0,035
-243,190	141,390	-0,079	0,077
-242,176	800,000	-0,048	-0,122
-241,161	-13,068	0,066	0,031
-240,146	-200,000	-0,012	-0,131
-239,132	111,219	-0,029	0,026
-238,117	800,000	-0,033	-0,071
-237,103	166,717	0,028	0,029
-236,088	-200,000	0,018	0,077
-235,073	25,702	0,054	-0,033
-234,059	202,978	0,118	0,134
-233,044	42,897	0,034	0,023
-232,030	-118,938	-0,073	-0,009
-231,015	78,990	-0,073	-0,057
-230,000	509,989	0,056	-0,095
-228,986	-200,000	0,013	0,050
-227,971	800,000	-0,010	-0,033
-226,957	367,605	0,099	0,147
-225,942	55,910	-0,076	0,053
-224,927	-18,124	0,090	-0,041
-223,913	125,631	-0,066	0,061
-222,898	800,000	0,027	0,058
-221,884	-200,000	0,028	0,096
-220,869	-142,807	0,072	0,005
-219,855	-200,000	0,002	0,067
-218,840	-142,976	0,158	0,011
-217,825	-200,000	0,005	-0,092
-216,811	105,071	-0,028	0,024
-215,796	456,177	-0,010	0,017
-214,782	522,002	0,010	-0,017
-213,767	410,749	-0,075	0,116
-212,752	518,148	-0,050	0,085
-211,738	591,677	0,027	0,049
-210,723	496,907	-0,013	-0,023
-209,709	96,797	-0,134	-0,112
-208,694	691,279	-0,052	0,100
-207,679	261,017	0,028	0,036
-206,665	787,239	0,027	-0,055
-205,650	320,958	0,012	-0,016
-204,636	-105,497	0,107	0,017
-203,621	-200,000	0,036	0,170
-202,606	37,777	-0,022	0,014
-201,592	518,336	0,070	0,120
-200,577	496,260	-0,119	0,201
-199,563	800,000	0,036	-0,106
-198,548	-63,888	-0,040	-0,012
-197,533	7,240	-0,126	0,068
-196,519	-200,000	0,001	0,121
-195,504	50,905	-0,152	-0,105
-194,490	151,845	0,075	-0,075
-193,475	144,230	-0,013	-0,013
-192,460	45,411	-0,079	0,053
-191,446	47,986	0,097	0,066
-190,431	-200,000	-0,014	0,097
-189,417	-21,036	-0,104	0,046
-188,402	-200,000	0,025	-0,133
-187,387	54,559	-0,094	-0,066
-186,373	-116,764	-0,189	-0,025
-185,358	13,301	0,043	-0,024
-184,344	155,162	0,045	0,046
-183,329	-153,185	0,097	-0,005
-182,315	-42,108	0,106	0,040
-181,300	20,348	0,020	0,012
-180,285	-38,508	-0,091	0,035
-179,271	80,013	0,116	-0,091
-178,256	679,349	-0,038	-0,073
-177,242	-45,981	0,111	-0,040
-176,227	-100,430	-0,030	0,005
-175,212	144,872	0,010	-0,010
-174,198	800,000	-0,004	-0,010
-173,183	-200,000	-0,008	0,080
-172,169	-145,029	0,069	0,005
-171,154	-182,236	-0,034	-0,000
-170,139	444,487	0,068	-0,110
-169,125	-200,000	-0,004	0,047
-168,110	-200,000	-0,019	0,119
-167,096	485,247	0,066	0,111
-166,081	-200,000	-0,015	-0,083
-165,066	-200,000	0,012	-0,088
-164,052	-5,636	0,010	-0,005
-163,037	-110,034	-0,087	-0,013
-162,023	-63,934	0,049	-0,014
-161,008	-43,286	0,049	-0,018
-159,993	110,259	-0,019	-0,017
-158,979	290,114	-0,069	0,091
-157,964	110,656	0,016	0,014
-156,950	-184,070	-0,117	0,001
-155,935	-52,978	0,089	-0,030
-154,920	-14,744	0,068	-0,032
-153,906	-111,355	-0,072	-0,011
-152,891	-65,387	-0,075	-0,022
-151,877	-143,330	-0,071	0,005
-150,862	427,708	-0,073	-0,115
-149,847	800,000	-0,053	0,141
-148,833	-28,661	0,038	0,016
-147,818	-200,000	0,005	0,066
-146,804	-200,000	0,008	0,204
-145,789	23,792	0,074	0,044
-144,775	800,000	-0,080	0,205
-143,760	-101,084	-0,069	-0,012
-142,745	25,469	0,049	-0,030
-141,731	800,000	-0,011	0,023
-140,716	-55,891	0,056	-0,018
-139,702	100,325	0,055	0,047
-138,687	800,000	0,044	0,128
-137,672	172,055	0,070	0,073
-136,658	-19,656	0,115	0,052
-135,643	-200,000	0,029	0,103
-134,629	800,000	0,083	-0,221
-133,614	230,391	0,058	0,069
-132,599	-134,020	0,176	0,016
-131,585	-200,000	0,026	0,126
-130,570	62,272	-0,152	0,111
-129,556	-200,000	-0,007	-0,123
-128,541	587,692	0,082	-0,147
-127,526	-83,241	-0,047	0,011
-126,512	6,184	-0,010	0,005
-125,497	-200,000	-0,010	0,066
-124,483	-115,330	0,091	-0,012
-123,468	-34,829	0,156	0,062
-122,453	-200,000	0,006	0,134
-121,439	206,474	0,053	-0,060
-120,424	446,040	0,038	-0,061
-119,410	800,000	-0,041	0,109
-118,395	15,631	-0,039	-0,022
-117,380	-200,000	0,013	-0,055
-116,366	35,762	-0,095	-0,060
-115,351	216,127	0,047	0,054
-114,337	173,848	0,012	-0,013
-113,322	51,830	0,030	0,021
-112,307	-200,000	0,002	-0,157
-111,293	96,516	0,053	-0,044
-110,278	621,386	0,045	-0,083
-109,264	113,842	-0,069	-0,061
-108,249	-200,000	-0,006	-0,023
-107,234	111,577	-0,108	0,095
-106,220	540,353	0,093	-0,161
-105,205	4,047	0,021	-0,011
-104,191	-200,000	0,003	0,018
-103,176	15,873	-0,043	0,025
-102,162	156,344	0,150	0,150
-101,147	-200,000	0,037	0,184
-100,132	-141,164	0,043	-0,003
-99,118	34,187	0,075	0,048
-98,103	29,580	-0,039	-0,024
-97,089	50,174	-0,097	0,066
-96,074	-21,275	0,126	0,056
-95,059	-200,000	0,007	0,044
-94,045	134,832	-0,086	0,081
-93,030	-36,947	0,080	0,031
-92,016	100,609	-0,025	0,021
-91,001	305,365	0,100	-0,136
-89,986	162,794	0,014	-0,014
-88,972	-79,183	0,198	-0,048
-87,957	89,223	0,123	0,100
-86,943	27,795	0,089	0,054
-85,928	165,086	-0,035	-0,036
-84,913	-148,690	-0,208	0,012
-83,899	800,000	0,029	-0,092
-82,884	-2,294	0,046	-0,023
-81,870	289,352	-0,102	-0,135
-80,855	800,000	-0,004	0,012
-79,840	-16,624	-0,072	0,033
-78,826	258,306	-0,032	-0,040
-77,811	248,724	-0,069	0,085
-76,797	511,292	0,072	0,122
-75,782	40,353	0,146	-0,095
-74,767	437,281	0,090	0,143
-73,753	88,945	0,138	0,112
-72,738	-200,000	-0,012	-0,063
-71,724	-200,000	-0,002	-0,050
-70,709	231,554	-0,056	-0,067
-69,694	337,114	-0,030	-0,042
-68,680	353,338	0,071	0,102
-67,665	-200,000	0,003	0,084
-66,651	-200,000	-0,018	0,060
-65,636	-200,000	-0,011	-0,062
-64,622	-138,074	-0,064	-0,005
-63,607	108,509	-0,073	-0,063
-62,592	-200,000	-0,013	-0,120
-61,578	-200,000	-0,008	-0,207
-60,563	-154,069	0,098	-0,005
-59,549	-200,000	-0,011	0,089
-58,534	-141,109	-1,250	-0,091
-57,519	509,851	-0,803	-1,360
-56,505	-200,000	-0,925	-4,319
-55,490	-70,959	0,837	-0,227
-54,476	800,000	4,796	11,715
-53,461	-200,000	14,034	254,162
-52,446	-200,000	694,376	2262,381
-51,432	599,151	1624,294	2935,466
-50,417	117,628	1633,172	1458,077
-49,403	73,647	1287,205	977,284
-48,388	37,422	1023,523	656,957
-47,373	23,918	981,814	585,761
-46,359	23,193	971,230	577,047
-45,344	22,080	967,040	570,897
-44,330	22,022	965,544	569,803
-43,315	21,933	963,987	568,570
-42,300	21,865	963,054	567,776
-41,286	21,795	962,304	567,084
-40,271	21,829	961,167	566,500
-39,257	21,842	960,362	566,045
-38,242	21,814	959,488	565,418
-37,227	21,866	958,521	564,993
-36,213	21,762	957,666	564,131
-35,198	21,834	956,701	563,772
-34,184	21,804	956,285	563,409
-33,169	21,855	955,161	562,890
-32,154	21,940	954,124	562,530
-31,140	21,889	953,368	561,897
-30,125	21,932	952,680	561,608
-29,111	21,902	951,906	561,033
-28,096	21,930	950,960	560,544
-27,082	21,828	950,516	559,931
-26,067	21,914	949,514	559,595
-25,052	21,876	949,005	559,151
-24,038	21,868	948,387	558,740
-23,023	21,850	947,673	558,237
-22,009	21,864	946,936	557,827
-20,994	21,934	946,152	557,567
-19,979	21,864	945,853	557,143
-18,965	21,911	944,978	556,756
-17,950	21,942	944,386	556,487
-16,936	21,858	943,805	555,852
-15,921	21,831	943,096	555,328
-14,906	21,767	942,400	554,690
-13,892	21,758	941,669	554,212
-12,877	21,730	941,204	553,826
-11,863	21,746	940,462	553,418
-10,848	21,748	939,999	553,132
-9,833	21,861	939,520	553,184
-8,819	21,841	939,065	552,833
-7,804	21,807	938,273	552,237
-6,790	21,744	937,551	551,591
-5,775	21,829	936,801	551,395
-4,760	21,833	936,283	551,080
-3,746	21,776	935,628	550,494
-2,731	21,613	935,099	549,645
-1,717	21,548	934,479	549,054
-0,702	21,593	933,796	548,774
0,313	21,417	932,959	548,554
1,327	23,894	930,808	555,030
2,342	31,481	808,891	502,903
3,356	26,123	509,629	307,658
4,371	1,668	374,615	194,939
5,386	-1,230	357,742	182,573
6,400	-2,378	351,843	178,155
7,415	-2,678	349,122	176,400
8,429	-2,825	347,633	175,456
9,444	-2,897	346,828	174,948
10,459	-2,780	346,153	174,732
11,473	-2,743	345,482	174,421
12,488	-2,799	344,834	174,012
13,502	-3,005	344,355	173,510
14,517	-2,681	343,697	173,547
15,531	-2,787	343,456	173,285
16,546	-2,654	342,880	173,136
17,561	-2,600	342,540	173,012
18,575	-2,531	342,012	172,811
19,590	-2,673	341,754	172,498
20,604	-2,621	341,454	172,393
21,619	-2,713	341,056	172,068
22,634	-2,677	340,749	171,941
23,648	-2,637	340,274	171,732
24,663	-2,659	340,051	171,579
25,677	-2,731	339,869	171,386
26,692	-2,710	339,444	171,182
27,707	-2,685	339,130	171,037
28,721	-2,648	338,816	170,907
29,736	-2,710	338,471	170,645
30,750	-2,739	338,212	170,466
31,765	-2,685	337,928	170,370
32,780	-2,701	337,659	170,201
33,794	-2,757	337,346	169,962
34,809	-2,693	336,992	169,844
35,823	-2,720	336,754	169,678
36,838	-2,636	336,471	169,617
37,853	-2,590	336,023	169,429
38,867	-2,620	335,810	169,272
39,882	-2,695	335,690	169,111
40,896	-2,677	335,406	168,972
41,911	-2,668	335,107	168,817
42,926	-2,574	334,733	168,721
43,940	-2,753	334,677	168,473
44,955	-2,692	334,170	168,273
45,969	-2,732	333,988	168,119
46,984	-2,672	333,885	168,122
47,999	-2,567	333,599	168,083
49,013	-2,651	333,256	167,800
50,028	-2,595	333,062	167,751
51,042	-2,794	332,753	167,353
52,057	-3,033	332,652	167,013
53,071	-2,719	332,112	167,086
54,086	-2,742	331,959	166,967
55,101	-2,816	331,809	166,793
56,115	-2,713	331,596	166,789
57,130	-2,636	331,116	166,619
58,144	-2,649	330,920	166,491
59,159	-2,638	330,557	166,306
60,174	-2,729	330,375	166,097
61,188	-2,616	330,103	166,074
62,203	-2,705	329,971	165,891
63,217	-2,594	329,621	165,827
64,232	-2,732	329,524	165,607
65,247	-2,664	329,093	165,452
66,261	-2,661	328,914	165,351
67,276	-2,635	328,548	165,181
68,290	-2,720	328,343	164,967
69,305	-2,788	328,127	164,768
70,320	-2,687	327,811	164,708
71,334	-2,642	327,503	164,590
72,349	-2,645	327,262	164,450
73,363	-2,711	327,131	164,295
74,378	-2,729	326,802	164,095
75,393	-2,627	326,565	164,076
76,407	-2,501	326,239	164,038
77,422	-2,666	326,060	163,750
78,436	-2,703	325,835	163,580
79,451	-2,513	325,485	163,603
80,466	-2,698	325,228	163,253
81,480	-2,697	325,165	163,207
82,495	-2,614	324,732	163,068
83,509	-2,656	324,590	162,935
84,524	-2,799	324,404	162,668
85,539	-2,752	324,146	162,577
86,553	-2,762	324,043	162,499
87,568	-2,662	323,619	162,383
88,582	-2,721	323,344	162,166
89,597	-2,615	323,013	162,103
90,611	-2,592	322,886	162,049
91,626	-2,659	322,759	161,897
92,641	-2,650	322,476	161,750
93,655	-2,524	322,112	161,693
94,670	-2,695	322,030	161,449
95,684	-2,574	321,806	161,456
96,699	-2,736	321,701	161,210
97,714	-2,520	321,112	161,137
98,728	-2,584	320,951	160,973
99,743	-2,642	320,822	160,829
100,757	-2,692	320,616	160,657
101,772	-2,649	320,364	160,563
102,787	-2,524	320,067	160,537
103,801	-2,606	319,825	160,312
104,816	-2,878	319,712	159,944
105,830	-2,474	319,439	160,234
106,845	-2,719	319,174	159,820
107,860	-2,760	318,919	159,632
108,874	-2,741	318,779	159,569
109,889	-2,838	318,369	159,244
110,903	-2,646	318,236	159,372
111,918	-2,591	317,943	159,271
112,933	-2,733	317,823	159,043
113,947	-2,618	317,588	159,035
114,962	-2,513	317,361	159,021
115,976	-2,675	317,053	158,678
116,991	-2,506	316,852	158,745
118,006	-2,524	316,740	158,656
119,020	-2,599	316,479	158,430
120,035	-2,657	316,285	158,256
121,049	-2,741	316,339	158,178
122,064	-2,760	315,879	157,914
123,079	-2,722	315,643	157,822
124,093	-2,593	315,419	157,835
125,108	-2,754	315,230	157,553
126,122	-2,781	315,011	157,401
127,137	-2,764	314,767	157,283
128,151	-2,637	314,531	157,287
129,166	-2,552	314,234	157,216
130,181	-2,507	313,920	157,093
131,195	-2,779	313,808	156,732
132,210	-2,556	313,488	156,796
133,224	-2,626	313,330	156,629
134,239	-2,815	313,109	156,302
135,254	-2,632	312,989	156,424
136,268	-2,514	312,624	156,353
137,283	-2,577	312,340	156,130
138,297	-2,533	312,044	156,015
139,312	-2,765	311,984	155,725
140,327	-2,630	311,784	155,754
141,341	-2,668	311,553	155,585
142,356	-2,638	311,397	155,525
143,370	-2,743	311,186	155,294
144,385	-2,640	310,839	155,216
145,400	-2,497	310,650	155,260
146,414	-2,635	310,468	155,009
147,429	-2,563	310,156	154,915
148,443	-2,560	309,874	154,764
149,458	-2,499	309,877	154,815
150,473	-2,493	309,526	154,633
151,487	-2,462	309,261	154,519
152,502	-2,630	309,292	154,344
153,516	-2,621	308,923	154,155
154,531	-2,639	308,782	154,053
155,546	-2,630	308,502	153,909
156,560	-2,714	308,296	153,704
157,575	-2,637	307,956	153,602
158,589	-2,710	307,896	153,481
159,604	-2,638	307,555	153,373
160,619	-2,508	307,291	153,364
161,633	-2,622	307,286	153,228
162,648	-2,547	307,081	153,190
163,662	-2,468	306,731	153,085
164,677	-2,640	306,661	152,857
165,692	-2,578	306,537	152,845
166,706	-2,562	306,250	152,706
167,721	-2,476	306,016	152,665
168,735	-2,496	305,804	152,525
169,750	-2,551	305,791	152,447
170,764	-2,597	305,349	152,166
171,779	-2,568	305,386	152,201
172,794	-2,549	305,260	152,145
173,808	-2,685	304,933	151,827
174,823	-2,604	304,714	151,788
175,837	-2,711	304,448	151,532
176,852	-2,612	304,053	151,423
177,867	-2,549	304,037	151,467
178,881	-2,565	303,925	151,382
179,896	-2,575	303,588	151,190
180,910	-2,444	303,354	151,195
181,925	-2,661	303,066	150,815
182,940	-2,553	303,014	150,886
183,954	-2,417	302,765	150,889
184,969	-2,504	302,555	150,681
185,983	-2,513	302,384	150,573
186,998	-2,532	302,264	150,481
188,013	-2,263	301,835	150,529
189,027	-2,396	301,759	150,341
190,042	-2,494	301,629	150,162
191,056	-2,623	301,397	149,902
192,071	-2,615	301,232	149,815
193,086	-2,686	301,052	149,640
194,100	-2,775	300,786	149,403
195,115	-2,401	300,523	149,641
196,129	-2,473	300,276	149,431
197,144	-2,467	299,982	149,278
198,159	-2,556	299,804	149,085
199,173	-2,467	299,630	149,076
200,188	-2,655	299,574	148,843
201,202	-2,476	299,205	148,828
202,217	-2,613	299,096	148,622
203,232	-2,556	298,662	148,450
204,246	-2,652	298,603	148,311
205,261	-2,545	298,398	148,304
206,275	-2,489	298,274	148,286
207,290	-2,592	298,006	148,036
208,304	-2,476	297,792	148,033
209,319	-2,514	297,544	147,858
210,334	-2,472	297,397	147,814
211,348	-2,608	297,259	147,596
212,363	-2,619	297,098	147,492
213,377	-2,415	296,730	147,500
214,392	-2,384	296,621	147,464
215,407	-2,524	296,387	147,194
216,421	-2,430	296,270	147,217
217,436	-2,692	296,106	146,860
218,450	-2,595	295,791	146,788
219,465	-2,579	295,668	146,730
220,480	-2,604	295,544	146,630
221,494	-2,559	295,297	146,540
222,509	-2,529	295,030	146,424
223,523	-2,533	294,871	146,328
224,538	-2,472	294,557	146,220
225,553	-2,422	294,518	146,238
226,567	-2,559	294,265	145,962
227,582	-2,456	294,069	145,954
228,596	-2,475	294,037	145,907
229,611	-2,605	293,834	145,664
230,626	-2,583	293,588	145,551
231,640	-2,422	293,266	145,538
232,655	-2,497	293,095	145,366
233,669	-2,593	292,947	145,184
234,684	-2,565	292,686	145,069
235,699	-2,317	292,520	145,219
236,713	-2,380	292,338	145,054
237,728	-2,442	292,071	144,847
238,742	-2,500	291,936	144,710
239,757	-2,664	291,823	144,479
240,772	-2,512	291,527	144,470
241,786	-2,541	291,434	144,382
242,801	-2,564	291,352	144,306
243,815	-2,473	291,071	144,244
244,830	-2,548	290,833	144,039
245,844	-2,534	290,596	143,923
246,859	-2,561	290,451	143,812
247,874	-2,647	290,318	143,649
248,888	-2,436	290,085	143,727
249,903	-2,576	289,891	143,481
250,917	-2,446	289,736	143,518
251,932	-2,528	289,515	143,316
252,947	-2,757	289,352	142,999
253,961	-2,778	288,940	142,762
254,976	-2,995	288,701	142,420
255,990	-3,261	288,429	142,015
257,005	-2,636	288,555	142,673
258,020	-0,815	289,298	144,803
259,034	0,901	289,657	146,643
260,049	1,462	289,793	147,246
261,063	1,899	289,715	147,619
262,078	2,380	289,651	148,041
263,093	2,515	289,514	148,089
264,107	2,768	289,631	148,382
265,122	2,931	289,378	148,398
266,136	2,874	289,198	148,237
267,151	2,921	288,982	148,158
268,166	2,984	288,986	148,208
269,180	2,914	288,592	147,925
270,195	2,850	288,511	147,809
271,209	2,915	288,341	147,771
272,224	2,970	288,068	147,671
273,239	2,885	287,950	147,516
274,253	2,912	287,552	147,325
275,268	2,866	287,428	147,203
276,282	2,696	287,291	146,956
277,297	2,639	287,077	146,778
278,312	2,711	286,891	146,740
279,326	2,782	286,773	146,735
280,341	2,936	286,449	146,703
281,355	2,645	286,424	146,399
282,370	2,818	286,051	146,361
283,384	2,597	285,883	146,050
284,399	2,670	285,734	146,031
285,414	2,849	285,449	146,043
286,428	2,436	285,445	145,632
287,443	2,385	285,308	145,501
288,457	2,590	284,997	145,526
289,472	2,647	284,631	145,381
290,487	2,602	284,421	145,217
291,501	2,420	284,229	144,933
292,516	2,605	284,002	144,980
293,530	2,479	283,923	144,806
294,545	2,430	283,817	144,693
295,560	2,489	283,677	144,665
296,574	2,540	283,478	144,599
297,589	2,279	283,371	144,284
298,603	2,403	283,028	144,214
299,618	2,467	282,925	144,209
300,633	2,646	282,742	144,272
301,647	2,732	282,617	144,277
302,662	2,619	282,453	144,074
303,676	2,641	282,285	143,996
304,691	2,713	282,081	143,947
305,706	2,697	281,918	143,836
306,720	2,805	281,672	143,799
307,735	2,966	281,539	143,870
308,749	2,697	281,391	143,528
309,764	2,875	281,187	143,579
310,779	2,742	281,022	143,357
311,793	2,693	280,827	143,198
312,808	2,746	280,705	143,174
313,822	2,554	280,448	142,850
314,837	2,664	280,268	142,848
315,852	2,706	280,128	142,804
316,866	2,889	279,958	142,875
317,881	2,748	279,686	142,592
318,895	2,609	279,466	142,338
319,910	2,747	279,442	142,442
320,925	2,649	279,113	142,170
321,939	2,820	278,971	142,244
322,954	2,813	278,892	142,185
323,968	2,879	278,739	142,155
324,983	2,809	278,476	141,943
325,997	2,817	278,412	141,906
327,012	2,902	278,225	141,876
328,027	3,045	277,901	141,831
329,041	2,884	277,806	141,621
330,056	2,881	277,730	141,567
331,070	2,788	277,410	141,305
332,085	2,860	277,304	141,304
333,100	2,968	276,949	141,211
334,114	3,044	276,793	141,189
335,129	2,822	276,657	140,903
336,143	2,790	276,566	140,814
337,158	2,773	276,382	140,692
338,173	2,769	276,140	140,553
339,187	2,960	275,969	140,629
340,202	2,823	275,778	140,393
341,216	2,712	275,721	140,250
342,231	2,788	275,516	140,202
343,246	2,875	275,206	140,112
344,260	2,864	274,985	139,977
345,275	2,963	274,887	140,005
346,289	2,997	274,876	140,019
347,304	2,993	274,546	139,834
348,319	2,825	274,458	139,624
349,333	2,875	274,247	139,549
350,348	2,923	274,126	139,520
351,362	2,751	274,003	139,287
352,377	2,909	273,872	139,352
353,392	2,789	273,682	139,134
354,406	2,918	273,395	139,093
355,421	191,832	1348,498	1430,141
356,435	154,912	1479,594	1430,273
