DTS Sentinel unit serial number:	SN410029Multiplexer serial number:	ORYXHardware model number:	OX2-SRSoftware version number:	ORYX F/W v4,00 Oryx Data Collector v3.7.2.0data status	okinstallation	B4 Nyhavnadifferential loss correction	single-endedforward channel	channel 2reverse channel	N/Adate	2023/12/16time	13:30:13forward acquisition time	300,00reverse acquisition time	0,00gamma	499,1914k internal	0,3126k external	0,3126temperature offset calibration	1,0000default loss term (dB/km)	0,3820temperature slope calibration	1,0000multiplexer offset coefficient	1,0000multiplexer slope coefficient	1,0000fibre end	0,00T internal ref (°C)	24,82T ext. ref 1 (°C)	11,18T ext. ref 2 (°C)	11,40length (m)	temperature (°C)	Stokes	anti-Stokes-744,400	459,142	-0,062	-0,104
-743,385	-90,515	-0,268	0,057
-742,371	24,515	-0,023	0,014
-741,356	128,708	-0,152	0,144
-740,342	800,000	-0,055	-0,164
-739,327	386,726	-0,133	0,205
-738,312	800,000	-0,031	-0,100
-737,298	7,421	-0,167	0,093
-736,283	-108,185	-0,100	-0,016
-735,269	-172,820	-0,120	-0,003
-734,254	-91,159	0,114	0,024
-733,239	-61,881	-0,411	-0,127
-732,225	-78,815	0,086	0,022
-731,210	-200,000	0,006	0,062
-730,196	-27,313	-0,066	0,028
-729,181	-200,000	-0,022	0,075
-728,167	-200,000	-0,016	-0,124
-727,152	54,862	-0,104	-0,075
-726,137	800,000	-0,030	-0,096
-725,123	204,651	-0,090	-0,104
-724,108	151,948	-0,056	-0,057
-723,094	-200,000	-0,003	-0,033
-722,079	-200,000	-0,041	-0,154
-721,064	-66,915	0,154	-0,045
-720,050	800,000	-0,031	-0,081
-719,035	-71,019	-0,030	0,008
-718,021	174,988	0,048	0,052
-717,006	-200,000	0,001	-0,030
-715,991	-200,000	-0,024	-0,144
-714,977	245,069	-0,101	-0,127
-713,962	-53,149	0,126	-0,043
-712,948	-200,000	0,011	-0,142
-711,933	-138,630	-0,053	0,004
-710,918	-156,834	-0,210	-0,009
-709,904	-115,428	-0,085	-0,012
-708,889	459,376	-0,064	-0,106
-707,875	263,904	-0,089	-0,115
-706,860	-124,170	-0,099	0,011
-705,845	-54,318	-0,005	-0,002
-704,831	-71,178	0,051	0,014
-703,816	60,741	0,111	-0,081
-702,802	-121,612	-0,060	-0,007
-701,787	-26,567	0,091	-0,039
-700,772	-86,382	-0,057	-0,013
-699,758	-200,000	-0,013	-0,116
-698,743	624,432	0,024	0,044
-697,729	-200,000	0,020	0,148
-696,714	-200,000	-0,009	-0,196
-695,699	-193,530	-0,028	-0,000
-694,685	-106,401	-0,175	-0,029
-693,670	-26,360	-0,074	0,032
-692,656	-130,890	-0,091	0,009
-691,641	-65,407	0,085	-0,025
-690,627	86,725	-0,038	-0,031
-689,612	-33,469	-0,029	-0,012
-688,597	-200,000	-0,008	-0,046
-687,583	40,660	-0,110	0,074
-686,568	135,017	-0,078	-0,075
-685,554	-101,801	0,194	-0,035
-684,539	227,642	0,084	0,102
-683,524	-0,206	0,023	-0,012
-682,510	115,269	0,071	0,064
-681,495	-96,010	-0,093	-0,018
-680,481	2,324	-0,117	0,063
-679,466	790,000	-0,032	0,067
-678,451	-200,000	0,010	-0,130
-677,437	-45,536	-0,155	-0,057
-676,422	-200,000	0,001	0,034
-675,408	15,044	-0,031	0,018
-674,393	-200,000	0,006	-0,029
-673,378	105,023	-0,100	-0,088
-672,364	141,375	-0,056	-0,056
-671,349	-69,048	-0,119	-0,034
-670,335	800,000	0,062	0,134
-669,320	-200,000	0,001	-0,040
-668,305	81,019	-0,017	0,013
-667,291	-200,000	0,014	-0,139
-666,276	72,794	0,079	-0,062
-665,262	58,277	0,028	0,020
-664,247	542,007	-0,051	-0,091
-663,232	-200,000	0,029	0,113
-662,218	129,773	0,013	-0,012
-661,203	800,000	0,057	0,140
-660,189	178,858	-0,031	-0,033
-659,174	22,533	0,097	-0,059
-658,159	218,156	0,004	0,005
-657,145	800,000	-0,031	-0,089
-656,130	297,157	0,023	-0,031
-655,116	-200,000	-0,013	-0,073
-654,101	-95,642	-0,040	0,008
-653,086	88,848	-0,119	0,098
-652,072	-154,056	-0,103	-0,005
-651,057	-147,369	0,013	0,001
-650,043	-200,000	0,024	-0,085
-649,028	-7,856	0,019	-0,010
-648,014	-141,229	0,093	-0,007
-646,999	-72,487	0,066	0,018
-645,984	800,000	-0,026	0,068
-644,970	262,935	-0,060	-0,077
-643,955	800,000	0,061	-0,130
-642,941	385,406	-0,095	-0,146
-641,926	145,113	0,053	0,053
-640,911	-44,207	-0,051	0,019
-639,897	-123,408	-0,045	-0,005
-638,882	-23,364	0,128	0,057
-637,868	41,618	-0,052	0,035
-636,853	216,227	-0,084	-0,099
-635,838	298,191	-0,043	-0,059
-634,824	91,064	-0,137	-0,114
-633,809	481,417	-0,038	0,064
-632,795	-74,105	0,083	0,022
-631,780	-200,000	0,028	0,091
-630,765	-59,695	-0,051	-0,016
-629,751	-200,000	-0,026	-0,140
-628,736	-200,000	-0,007	0,092
-627,722	672,403	-0,034	0,066
-626,707	-200,000	0,002	-0,029
-625,692	-200,000	0,042	0,168
-624,678	0,525	0,095	-0,050
-623,663	480,331	0,060	-0,100
-622,649	-79,450	-0,062	0,015
-621,634	-43,720	-0,079	0,029
-620,619	-38,115	-0,062	-0,024
-619,605	-200,000	0,000	-0,134
-618,590	-200,000	0,005	-0,061
-617,576	180,838	0,106	0,116
-616,561	-200,000	-0,027	-0,121
-615,546	74,939	-0,139	-0,108
-614,532	-27,055	-0,123	-0,053
-613,517	-200,000	0,004	-0,146
-612,503	800,000	0,016	0,045
-611,488	235,743	0,015	0,018
-610,474	87,410	0,023	0,019
-609,459	62,731	-0,042	0,031
-608,444	589,421	-0,059	-0,108
-607,430	433,702	-0,031	-0,050
-606,415	-200,000	0,020	-0,172
-605,401	274,193	0,046	0,060
-604,386	800,000	0,049	0,111
-603,371	21,552	0,082	-0,049
-602,357	800,000	-0,032	-0,096
-601,342	15,162	-0,082	-0,048
-600,328	489,465	0,031	0,053
-599,313	-147,960	-0,092	0,006
-598,298	-200,000	-0,005	-0,171
-597,284	543,160	0,052	0,093
-596,269	200,650	-0,058	0,066
-595,255	7,174	0,063	0,035
-594,240	790,111	-0,033	-0,067
-593,225	800,000	0,028	0,085
-592,211	766,705	-0,083	-0,168
-591,196	-92,619	0,014	-0,003
-590,182	56,985	0,182	0,131
-589,167	-115,402	0,134	0,019
-588,152	315,211	-0,046	-0,065
-587,138	800,000	-0,044	0,104
-586,123	553,624	-0,082	0,147
-585,109	-67,777	0,093	-0,027
-584,094	323,080	0,071	-0,100
-583,079	-129,715	0,213	-0,021
-582,065	-158,318	0,029	0,001
-581,050	317,889	0,037	0,052
-580,036	50,997	-0,031	-0,021
-579,021	-160,466	-0,146	0,006
-578,006	38,825	0,027	-0,018
-576,992	385,587	-0,029	-0,045
-575,977	464,504	0,076	-0,126
-574,963	65,721	0,060	0,045
-573,948	7,103	0,030	-0,016
-572,934	-98,929	-0,043	-0,008
-571,919	800,000	-0,025	0,071
-570,904	-186,825	-0,062	0,001
-569,890	66,678	0,087	-0,065
-568,875	-119,440	0,004	-0,000
-567,861	84,631	0,061	-0,049
-566,846	497,658	0,042	0,071
-565,831	-200,000	-0,021	-0,122
-564,817	-200,000	0,033	-0,182
-563,802	132,229	-0,067	0,064
-562,788	-146,168	-0,046	-0,003
-561,773	-200,000	-0,000	0,049
-560,758	-200,000	0,015	0,063
-559,744	-30,653	-0,066	-0,027
-558,729	-33,046	0,025	-0,010
-557,715	781,983	-0,030	-0,062
-556,700	-95,556	-0,035	0,007
-555,685	-53,786	-0,111	-0,037
-554,671	800,000	0,035	0,075
-553,656	779,217	-0,084	0,171
-552,642	-5,319	0,063	-0,032
-551,627	-15,254	-0,117	0,055
-550,612	-32,102	0,088	-0,036
-549,598	-196,343	-0,057	-0,000
-548,583	217,880	0,074	0,087
-547,569	-122,460	-0,043	-0,005
-546,554	-200,000	0,007	-0,040
-545,539	122,597	0,072	0,066
-544,525	14,602	0,052	0,030
-543,510	275,667	0,084	-0,111
-542,496	15,795	0,054	0,032
-541,481	800,000	-0,008	0,025
-540,466	-200,000	0,015	-0,093
-539,452	-200,000	0,002	0,061
-538,437	-3,935	0,071	-0,036
-537,423	464,542	-0,069	0,115
-536,408	-4,166	0,051	0,026
-535,393	800,000	-0,014	0,030
-534,379	-200,000	0,015	0,122
-533,364	524,615	0,015	0,026
-532,350	-35,847	-0,037	-0,015
-531,335	235,412	-0,016	-0,019
-530,321	53,398	-0,025	0,017
-529,306	99,767	0,025	0,021
-528,291	-200,000	0,010	0,065
-527,277	-120,128	0,103	-0,013
-526,262	639,145	-0,040	-0,076
-525,248	-200,000	0,025	-0,136
-524,233	-136,726	0,114	0,010
-523,218	107,923	0,021	-0,018
-522,204	-95,953	0,089	-0,017
-521,189	-43,086	-0,057	0,021
-520,175	-136,797	-0,050	0,004
-519,160	-200,000	-0,017	0,119
-518,145	664,613	-0,072	0,137
-517,131	-79,341	0,055	0,014
-516,116	143,006	-0,012	0,012
-515,102	325,483	0,038	0,053
-514,087	-200,000	0,012	0,127
-513,072	-30,503	-0,046	0,019
-512,058	8,916	0,084	-0,047
-511,043	800,000	0,018	-0,052
-510,029	490,481	0,049	0,083
-509,014	800,000	-0,028	-0,077
-507,999	-98,271	0,039	-0,007
-506,985	128,700	-0,059	0,055
-505,970	800,000	0,016	0,038
-504,956	-200,000	-0,001	0,024
-503,941	183,083	0,033	-0,036
-502,926	800,000	0,025	0,072
-501,912	-150,576	-0,084	-0,005
-500,897	-200,000	-0,018	0,129
-499,883	622,078	0,032	-0,060
-498,868	161,565	-0,065	-0,068
-497,853	-200,000	-0,037	0,129
-496,839	-119,831	0,105	-0,013
-495,824	211,061	-0,030	-0,034
-494,810	-84,484	0,141	0,033
-493,795	-200,000	0,001	-0,021
-492,781	-200,000	-0,021	-0,142
-491,766	254,698	-0,089	-0,113
-490,751	800,000	-0,055	-0,126
-489,737	268,778	-0,065	-0,085
-488,722	800,000	0,026	-0,076
-487,708	18,928	0,055	0,032
-486,693	-3,536	0,059	0,030
-485,678	145,809	0,131	0,130
-484,664	-51,833	-0,143	-0,049
-483,649	800,000	-0,080	-0,172
-482,635	-37,543	0,086	0,034
-481,620	-200,000	0,010	0,056
-480,605	27,620	-0,108	0,067
-479,591	-56,200	-0,070	-0,023
-478,576	138,125	-0,036	-0,034
-477,562	61,508	-0,080	-0,059
-476,547	-200,000	-0,008	-0,057
-475,532	15,864	0,036	0,021
-474,518	19,100	-0,072	0,043
-473,503	150,931	-0,016	-0,016
-472,489	-50,422	0,076	0,026
-471,474	-115,211	-0,080	0,011
-470,459	800,000	0,015	-0,043
-469,445	-200,000	-0,010	-0,104
-468,430	178,031	-0,067	0,072
-467,416	-200,000	0,014	0,174
-466,401	-85,172	0,014	-0,003
-465,386	-200,000	-0,001	0,082
-464,372	-200,000	0,015	-0,078
-463,357	800,000	-0,036	-0,116
-462,343	629,777	-0,016	0,029
-461,328	-81,326	-0,054	-0,013
-460,313	-62,409	0,101	0,031
-459,299	-65,512	0,103	0,030
-458,284	228,659	-0,065	-0,078
-457,270	362,325	-0,062	-0,091
-456,255	-77,839	0,068	0,017
-455,241	-151,338	-0,134	0,007
-454,226	-40,384	-0,054	-0,021
-453,211	29,780	-0,082	-0,051
-452,197	800,000	0,049	0,121
-451,182	-200,000	0,007	0,046
-450,168	-158,384	-0,187	-0,008
-449,153	-200,000	-0,001	-0,061
-448,138	-200,000	-0,013	-0,067
-447,124	44,353	-0,129	-0,087
-446,109	55,122	0,100	0,071
-445,095	165,517	-0,087	-0,090
-444,080	-135,728	0,018	0,002
-443,065	729,964	0,028	-0,055
-442,051	37,774	0,109	0,071
-441,036	585,212	-0,032	-0,058
-440,022	-200,000	0,043	-0,223
-439,007	432,715	-0,035	0,057
-437,992	-120,983	0,183	-0,022
-436,978	105,121	0,009	0,007
-435,963	800,000	0,021	-0,052
-434,949	241,384	0,005	-0,006
-433,934	-200,000	-0,015	0,069
-432,919	800,000	0,051	-0,106
-431,905	-61,151	0,156	0,048
-430,890	2,656	-0,049	-0,026
-429,876	-200,000	0,033	0,193
-428,861	236,447	0,063	0,077
-427,846	-200,000	-0,005	-0,048
-426,832	-200,000	0,006	0,058
-425,817	800,000	-0,005	0,011
-424,803	-200,000	0,012	0,065
-423,788	800,000	0,041	0,105
-422,773	-34,515	0,056	0,023
-421,759	264,133	0,085	0,109
-420,744	340,385	-0,072	0,104
-419,730	800,000	-0,041	0,118
-418,715	800,000	-0,054	-0,133
-417,701	218,681	-0,066	-0,078
-416,686	-19,443	0,102	-0,046
-415,671	-51,954	0,135	0,046
-414,657	64,101	0,157	0,116
-413,642	-200,000	-0,003	-0,013
-412,628	-168,162	-0,051	-0,001
-411,613	2,658	-0,160	-0,085
-410,598	117,945	0,031	0,028
-409,584	-200,000	-0,012	0,178
-408,569	800,000	-0,029	0,079
-407,555	800,000	-0,030	0,064
-406,540	-73,106	-0,015	-0,004
-405,525	-200,000	-0,003	0,023
-404,511	169,358	0,013	-0,014
-403,496	-200,000	0,010	0,057
-402,482	681,191	0,014	-0,028
-401,467	342,072	0,042	-0,060
-400,452	-147,946	0,043	-0,003
-399,438	800,000	-0,017	0,044
-398,423	-200,000	0,015	-0,261
-397,409	395,965	0,076	-0,118
-396,394	421,010	-0,086	-0,136
-395,379	110,344	0,068	0,060
-394,365	271,308	0,038	0,049
-393,350	-17,504	0,167	0,077
-392,336	800,000	0,012	0,031
-391,321	-78,980	-0,153	-0,038
-390,306	185,670	-0,012	0,013
-389,292	-200,000	-0,037	-0,122
-388,277	194,912	0,064	0,071
-387,263	79,435	-0,103	0,081
-386,248	-66,827	0,077	0,022
-385,233	66,060	0,077	0,057
-384,219	388,553	0,032	-0,049
-383,204	-159,873	-0,193	-0,008
-382,190	107,462	-0,067	0,059
-381,175	-58,550	-0,111	0,035
-380,160	-75,539	0,139	0,036
-379,146	-200,000	-0,010	0,159
-378,131	800,000	-0,018	-0,047
-377,117	-200,000	0,007	0,091
-376,102	12,388	-0,090	0,051
-375,088	22,298	-0,127	-0,076
-374,073	307,970	0,066	-0,091
-373,058	-90,259	0,031	-0,007
-372,044	74,248	-0,065	0,050
-371,029	-15,979	-0,069	-0,032
-370,015	-200,000	0,017	-0,111
-369,000	-126,386	-0,100	0,011
-367,985	323,664	0,039	0,055
-366,971	186,475	0,029	-0,032
-365,956	1,638	-0,058	0,031
-364,942	-200,000	0,006	0,044
-363,927	-114,101	0,062	0,009
-362,912	-63,480	0,128	-0,038
-361,898	800,000	-0,015	-0,033
-360,883	800,000	-0,058	-0,135
-359,869	800,000	-0,043	-0,118
-358,854	61,625	-0,042	-0,031
-357,839	488,303	-0,056	0,094
-356,825	-200,000	-0,014	0,145
-355,810	97,186	-0,077	0,065
-354,796	127,181	-0,040	-0,038
-353,781	21,433	-0,086	-0,051
-352,766	333,371	-0,089	0,127
-351,752	21,975	-0,023	0,014
-350,737	264,363	0,085	0,109
-349,723	-33,721	0,037	0,015
-348,708	-200,000	-0,011	0,072
-347,693	-91,724	-0,065	-0,014
-346,679	197,691	-0,189	-0,212
-345,664	-200,000	-0,007	-0,079
-344,650	88,059	0,048	-0,039
-343,635	87,767	-0,127	0,104
-342,620	3,872	0,095	-0,050
-341,606	53,695	0,064	0,045
-340,591	800,000	0,031	-0,100
-339,577	-8,375	0,067	-0,033
-338,562	-28,313	0,010	0,004
-337,548	-53,849	0,020	-0,007
-336,533	-200,000	0,010	0,140
-335,518	74,038	0,098	-0,075
-334,504	-77,298	-0,100	0,025
-333,489	-23,327	0,068	-0,030
-332,475	316,531	-0,015	0,021
-331,460	800,000	-0,039	-0,083
-330,445	-200,000	0,001	-0,062
-329,431	99,838	0,100	-0,085
-328,416	-136,985	-0,058	0,005
-327,402	121,342	-0,059	0,054
-326,387	-78,365	0,042	0,011
-325,372	18,301	0,040	0,024
-324,358	-200,000	0,008	-0,054
-323,343	-80,408	-0,055	-0,013
-322,329	-63,456	-0,049	0,015
-321,314	85,400	0,079	-0,063
-320,299	-200,000	0,005	-0,058
-319,285	-200,000	0,007	0,040
-318,270	-69,666	-0,037	0,010
-317,256	800,000	-0,035	-0,103
-316,241	800,000	0,020	-0,050
-315,226	-200,000	-0,005	0,033
-314,212	113,093	0,080	-0,071
-313,197	800,000	-0,032	-0,086
-312,183	-69,746	0,076	-0,021
-311,168	-200,000	0,008	0,110
-310,153	96,350	0,036	-0,030
-309,139	-200,000	0,007	-0,188
-308,124	173,920	-0,046	0,049
-307,110	-200,000	-0,044	0,161
-306,095	-55,291	-0,035	0,012
-305,080	-135,957	0,013	-0,001
-304,066	-200,000	-0,000	0,080
-303,051	-35,211	-0,069	0,027
-302,037	-106,180	0,048	-0,008
-301,022	538,106	0,047	0,082
-300,008	39,382	-0,081	0,053
-298,993	-200,000	-0,036	0,171
-297,978	-25,209	0,065	-0,028
-296,964	800,000	0,044	-0,110
-295,949	674,057	-0,038	-0,072
-294,935	75,425	-0,068	0,053
-293,920	407,532	-0,031	0,049
-292,905	-169,451	0,077	0,002
-291,891	-121,161	-0,163	-0,020
-290,876	800,000	0,054	-0,128
-289,862	103,303	-0,038	0,033
-288,847	66,965	-0,011	0,008
-287,832	40,623	-0,076	0,050
-286,818	254,361	0,074	-0,092
-285,803	16,022	0,115	-0,066
-284,789	11,431	-0,028	0,016
-283,774	78,384	-0,094	0,073
-282,759	-200,000	-0,016	-0,074
-281,745	74,574	-0,016	-0,012
-280,730	12,035	-0,070	-0,040
-279,716	83,987	-0,012	0,009
-278,701	-36,377	0,048	-0,019
-277,686	-48,727	-0,051	0,018
-276,672	107,996	0,075	0,066
-275,657	37,096	0,093	-0,060
-274,643	-200,000	-0,008	-0,027
-273,628	10,455	0,153	0,085
-272,613	800,000	0,014	0,033
-271,599	800,000	0,043	0,094
-270,584	-23,651	0,125	-0,055
-269,570	342,968	0,017	0,024
-268,555	800,000	0,045	-0,111
-267,540	146,397	-0,078	-0,077
-266,526	73,643	-0,065	0,050
-265,511	-8,928	-0,070	0,034
-264,497	346,639	-0,020	-0,028
-263,482	31,906	-0,026	-0,016
-262,467	-200,000	-0,015	0,100
-261,453	201,129	0,061	0,068
-260,438	-21,285	-0,089	-0,040
-259,424	-84,269	-0,092	-0,021
-258,409	-137,220	-0,118	0,010
-257,395	603,726	0,020	0,037
-256,380	-133,590	0,123	0,011
-255,365	411,595	0,022	0,035
-254,351	-3,247	-0,127	0,065
-253,336	800,000	-0,023	-0,059
-252,322	-150,153	-0,046	0,003
-251,307	-99,780	-0,151	-0,027
-250,292	486,082	0,085	0,142
-249,278	-200,000	-0,004	0,065
-248,263	-101,424	0,100	0,018
-247,249	35,268	-0,034	0,022
-246,234	-18,154	-0,063	-0,029
-245,219	800,000	0,017	0,036
-244,205	751,486	0,053	-0,106
-243,190	33,709	0,135	-0,086
-242,176	-200,000	0,019	-0,137
-241,161	411,514	0,033	0,052
-240,146	-84,780	-0,076	0,017
-239,132	47,700	0,082	0,056
-238,117	-25,317	-0,030	0,013
-237,103	-3,132	-0,045	0,023
-236,088	-200,000	0,014	0,048
-235,073	549,389	0,011	-0,019
-234,059	-1,021	0,041	-0,021
-233,044	124,728	0,048	0,044
-232,030	506,691	-0,029	-0,050
-231,015	559,980	0,024	0,042
-230,000	-24,374	-0,039	0,017
-228,986	800,000	-0,027	0,062
-227,971	-200,000	-0,006	-0,070
-226,957	800,000	-0,057	0,151
-225,942	97,633	-0,027	0,022
-224,927	95,853	0,069	-0,057
-223,913	48,416	-0,022	0,015
-222,898	-42,837	-0,140	-0,052
-221,884	19,340	-0,123	-0,072
-220,869	-200,000	0,013	0,117
-219,855	-8,649	0,144	-0,070
-218,840	-124,646	0,134	0,015
-217,825	-39,659	-0,100	0,038
-216,811	210,415	0,023	0,026
-215,796	800,000	0,031	-0,091
-214,782	18,919	-0,056	-0,032
-213,767	128,392	-0,118	-0,110
-212,752	800,000	0,059	0,122
-211,738	-113,584	-0,028	-0,004
-210,723	-88,951	0,179	0,038
-209,709	200,931	-0,051	0,057
-208,694	-41,508	0,026	0,010
-207,679	-200,000	0,114	-0,000
-206,665	-3,048	0,101	-0,051
-205,650	254,396	0,030	0,038
-204,636	-95,060	0,120	-0,023
-203,621	-33,018	-0,105	0,042
-202,606	800,000	0,020	-0,047
-201,592	800,000	-0,015	-0,032
-200,577	-97,491	0,049	0,009
-199,563	800,000	0,011	0,033
-198,548	350,858	-0,097	0,140
-197,533	-200,000	-0,002	0,095
-196,519	-78,614	0,091	0,022
-195,504	800,000	0,027	0,072
-194,490	-200,000	-0,004	-0,029
-193,475	184,330	-0,073	-0,079
-192,460	-169,742	-0,082	-0,002
-191,446	-200,000	0,011	0,065
-190,431	159,926	0,107	-0,108
-189,417	-200,000	0,014	0,045
-188,402	683,379	-0,041	-0,078
-187,387	-136,424	-0,241	-0,020
-186,373	677,718	0,023	-0,043
-185,358	24,817	-0,083	0,050
-184,344	98,877	-0,083	-0,070
-183,329	54,036	0,156	0,109
-182,315	800,000	0,019	-0,063
-181,300	180,654	-0,026	0,028
-180,285	-200,000	-0,014	0,083
-179,271	-9,401	-0,068	-0,033
-178,256	-200,000	0,028	-0,098
-177,242	-114,371	-0,031	-0,004
-176,227	70,252	0,017	0,013
-175,212	-97,642	0,074	-0,014
-174,198	-130,223	0,147	-0,014
-173,183	-200,000	0,003	0,061
-172,169	-200,000	0,019	-0,201
-171,154	351,790	-0,014	-0,020
-170,139	735,181	0,066	-0,129
-169,125	122,065	0,067	0,061
-168,110	-200,000	0,018	0,211
-167,096	-89,103	-0,040	0,009
-166,081	-95,168	-0,022	-0,004
-165,066	-110,274	-0,096	0,014
-164,052	333,837	-0,034	-0,047
-163,037	-200,000	-0,001	0,076
-162,023	-56,604	0,189	-0,061
-161,008	338,114	0,055	0,078
-159,993	-57,648	-0,067	0,021
-158,979	217,958	0,068	-0,079
-157,964	-35,311	0,098	-0,039
-156,950	14,360	-0,094	0,053
-155,935	236,881	-0,045	0,054
-154,920	142,517	0,074	0,071
-153,906	511,199	-0,063	0,108
-152,891	-68,766	0,051	0,014
-151,877	369,540	-0,028	-0,041
-150,862	-51,503	-0,147	-0,050
-149,847	-200,000	-0,006	0,085
-148,833	-200,000	-0,001	0,058
-147,818	-48,256	0,090	-0,031
-146,804	128,067	0,056	0,052
-145,789	-51,307	0,019	0,006
-144,775	115,135	-0,092	-0,082
-143,760	800,000	-0,039	0,113
-142,745	-200,000	0,008	0,125
-141,731	768,541	-0,034	-0,068
-140,716	129,361	0,104	-0,097
-139,702	20,050	0,141	0,083
-138,687	-135,837	0,101	-0,009
-137,672	800,000	0,015	0,046
-136,658	197,435	-0,021	0,024
-135,643	-200,000	0,012	-0,073
-134,629	-79,509	0,010	-0,003
-133,614	-101,526	0,072	0,013
-132,599	-200,000	0,005	0,089
-131,585	327,462	0,037	0,051
-130,570	487,795	-0,019	-0,031
-129,556	-200,000	0,016	0,082
-128,541	-49,355	-0,054	0,019
-127,526	-48,680	-0,046	0,016
-126,512	800,000	0,021	0,049
-125,497	-103,775	0,019	0,003
-124,483	-200,000	-0,009	-0,079
-123,468	797,955	0,034	0,068
-122,453	-200,000	-0,035	0,155
-121,439	-12,672	-0,051	-0,024
-120,424	800,000	0,029	-0,090
-119,410	359,991	-0,036	-0,052
-118,395	299,633	0,085	0,114
-117,380	218,988	0,013	0,015
-116,366	-17,850	-0,079	0,036
-115,351	609,950	-0,059	-0,107
-114,337	-200,000	0,004	-0,024
-113,322	-120,742	0,202	0,024
-112,307	84,453	-0,043	-0,034
-111,293	-17,790	0,105	0,048
-110,278	163,945	0,063	-0,065
-109,264	48,828	-0,024	0,016
-108,249	352,292	-0,011	-0,015
-107,234	-200,000	-0,031	-0,105
-106,220	127,520	-0,111	-0,103
-105,205	-200,000	0,021	0,071
-104,191	83,781	-0,052	0,042
-103,176	-18,495	0,028	0,012
-102,162	-176,935	-0,146	-0,003
-101,147	-200,000	-0,014	0,064
-100,132	-74,040	-0,207	0,054
-99,118	800,000	-0,030	0,095
-98,103	-200,000	-0,003	0,026
-97,089	-42,582	0,092	0,034
-96,074	-33,168	0,061	0,024
-95,059	365,552	0,053	0,077
-94,045	325,411	0,044	-0,062
-93,030	146,418	-0,150	-0,146
-92,016	800,000	0,046	-0,093
-91,001	-200,000	0,015	-0,071
-89,986	135,379	0,053	-0,050
-88,972	-200,000	0,010	0,120
-87,957	-86,750	0,020	0,004
-86,943	800,000	-0,045	-0,141
-85,928	-200,000	0,002	-0,027
-84,913	-173,743	0,043	0,001
-83,899	107,997	-0,060	-0,052
-82,884	-200,000	-0,002	-0,046
-81,870	61,754	0,029	-0,021
-80,855	98,467	0,005	0,004
-79,840	-126,270	0,183	-0,020
-78,826	-200,000	0,011	0,055
-77,811	-200,000	-0,024	-0,158
-76,797	-200,000	0,008	-0,078
-75,782	-200,000	-0,024	0,108
-74,767	-6,329	0,092	-0,045
-73,753	9,477	-0,064	0,035
-72,738	-132,754	-0,081	0,007
-71,724	-6,920	-0,064	-0,031
-70,709	-80,599	0,103	-0,025
-69,694	800,000	-0,014	0,037
-68,680	-200,000	-0,003	0,022
-67,665	-76,804	0,026	0,007
-66,651	-89,136	0,082	0,017
-65,636	202,124	-0,053	-0,060
-64,622	43,107	-0,041	0,027
-63,607	-95,492	-0,123	0,024
-62,592	-5,925	0,046	0,023
-61,578	-200,000	0,012	0,092
-60,563	-74,815	0,052	0,013
-59,549	50,018	-0,093	0,064
-58,534	-88,935	-1,044	0,222
-57,519	372,726	-1,127	-1,665
-56,505	-200,000	-0,653	-4,248
-55,490	316,262	0,388	-0,532
-54,476	800,000	4,833	11,482
-53,461	-200,000	11,750	225,675
-52,446	-200,000	674,123	2194,280
-51,432	590,125	1621,466	2910,978
-50,417	124,325	1651,618	1505,646
-49,403	77,768	1307,316	1008,817
-48,388	41,522	1039,060	680,603
-47,373	26,637	994,824	602,245
-46,359	25,778	984,907	593,372
-45,344	25,106	980,539	588,499
-44,330	24,981	979,068	587,179
-43,315	24,889	977,707	586,037
-42,300	24,846	976,625	585,225
-41,286	24,888	975,776	584,832
-40,271	24,851	974,828	584,116
-39,257	24,878	973,698	583,506
-38,242	24,855	972,948	582,959
-37,227	24,838	972,038	582,333
-36,213	24,857	971,122	581,825
-35,198	24,765	970,214	580,956
-34,184	24,877	969,352	580,784
-33,169	24,808	968,425	579,978
-32,154	24,829	967,565	579,511
-31,140	24,825	966,667	578,935
-30,125	24,885	965,837	578,613
-29,111	24,903	964,892	578,080
-28,096	24,822	964,515	577,569
-27,082	24,850	963,558	577,063
-26,067	24,880	962,761	576,662
-25,052	24,863	962,004	576,128
-24,038	24,813	961,502	575,644
-23,023	24,824	960,811	575,244
-22,009	24,879	960,097	574,969
-20,994	24,859	959,381	574,456
-19,979	24,879	958,781	574,135
-18,965	24,906	957,971	573,716
-17,950	24,847	957,342	573,126
-16,936	24,838	956,786	572,743
-15,921	24,825	956,128	572,284
-14,906	24,769	955,284	571,574
-13,892	24,726	954,736	571,086
-12,877	24,739	954,108	570,728
-11,863	24,700	953,484	570,209
-10,848	24,686	953,130	569,929
-9,833	24,841	952,478	570,015
-8,819	24,816	951,933	569,584
-7,804	24,752	951,382	569,028
-6,790	24,699	950,843	568,515
-5,775	24,861	949,901	568,446
-4,760	24,799	949,289	567,859
-3,746	24,714	948,862	567,308
-2,731	24,620	948,059	566,508
-1,717	24,528	947,572	565,900
-0,702	24,581	946,742	565,550
0,313	24,393	946,003	565,364
1,327	26,861	943,916	571,905
2,342	34,944	823,535	521,186
3,356	31,037	518,134	321,126
4,371	6,826	377,158	202,810
5,386	3,717	359,621	189,528
6,400	2,179	353,416	184,375
7,415	1,239	350,465	181,687
8,429	1,081	348,974	180,709
9,444	1,109	348,040	180,242
10,459	1,039	347,174	179,694
11,473	0,847	346,820	179,267
12,488	1,247	346,150	179,380
13,502	1,210	345,654	179,064
14,517	1,112	345,030	178,609
15,531	0,857	344,400	177,965
16,546	0,733	343,888	177,536
17,561	0,695	343,554	177,305
18,575	0,733	343,147	177,123
19,590	0,535	342,819	176,704
20,604	0,680	342,429	176,658
21,619	0,669	341,961	176,388
22,634	0,686	341,571	176,191
23,648	0,772	341,275	176,124
24,663	0,747	340,874	175,872
25,677	0,663	340,740	175,689
26,692	0,657	340,551	175,569
27,707	0,719	340,108	175,397
28,721	0,600	339,792	175,080
29,736	0,696	339,283	174,914
30,750	0,553	339,138	174,657
31,765	0,649	338,664	174,509
32,780	0,686	338,658	174,533
33,794	0,580	338,380	174,252
34,809	0,727	338,004	174,213
35,823	0,720	337,624	173,993
36,838	0,600	337,420	173,733
37,853	0,542	337,159	173,516
38,867	0,586	336,807	173,371
39,882	0,416	336,608	173,057
40,896	0,588	336,222	173,040
41,911	0,463	336,026	172,780
42,926	0,442	335,663	172,555
43,940	0,483	335,404	172,452
44,955	0,456	335,145	172,273
45,969	0,561	334,868	172,236
46,984	0,253	334,647	171,754
47,999	0,111	334,165	171,329
49,013	-0,066	334,078	171,067
50,028	-0,105	333,649	170,787
51,042	-0,190	333,447	170,571
52,057	-0,138	332,976	170,374
53,071	-0,223	332,772	170,157
54,086	-0,065	332,565	170,217
55,101	-0,031	332,526	170,220
56,115	0,131	332,160	170,202
57,130	0,675	332,143	170,797
58,144	0,792	331,868	170,773
59,159	0,971	331,553	170,798
60,174	0,847	331,392	170,560
61,188	0,772	331,183	170,352
62,203	0,723	330,948	170,161
63,217	0,783	330,638	170,054
64,232	0,626	330,364	169,720
65,247	0,778	330,250	169,818
66,261	0,877	329,798	169,683
67,276	0,526	329,536	169,137
68,290	0,404	329,190	168,807
69,305	0,404	328,913	168,650
70,320	0,303	328,612	168,367
71,334	0,637	328,388	168,612
72,349	0,762	328,363	168,725
73,363	0,900	328,106	168,732
74,378	0,902	327,791	168,558
75,393	0,790	327,624	168,331
76,407	0,719	327,316	168,078
77,422	0,717	327,140	167,971
78,436	0,946	326,641	167,955
79,451	0,830	326,569	167,774
80,466	0,654	326,309	167,429
81,480	0,452	326,008	167,035
82,495	0,247	325,779	166,675
83,509	0,422	325,573	166,749
84,524	0,360	325,263	166,507
85,539	0,305	324,845	166,216
86,553	0,327	324,635	166,119
87,568	0,350	324,516	166,068
88,582	0,352	324,201	165,895
89,597	0,369	324,019	165,806
90,611	0,579	323,878	165,951
91,626	0,794	323,651	166,057
92,641	0,835	323,439	165,979
93,655	0,703	323,137	165,663
94,670	0,618	322,964	165,467
95,684	0,571	322,630	165,229
96,699	0,454	322,609	165,074
97,714	0,547	322,104	164,904
98,728	0,354	321,873	164,558
99,743	0,246	321,850	164,414
100,757	0,324	321,445	164,278
101,772	0,230	321,413	164,144
102,787	0,392	320,991	164,090
103,801	0,446	320,887	164,082
104,816	0,436	320,662	163,941
105,830	0,636	320,594	164,110
106,845	0,825	320,340	164,172
107,860	0,844	320,046	164,027
108,874	0,640	319,886	163,709
109,889	0,605	319,615	163,518
110,903	0,530	319,353	163,287
111,918	0,477	319,060	163,065
112,933	0,550	318,784	162,989
113,947	0,626	318,615	162,970
114,962	0,581	318,365	162,780
115,976	0,623	318,207	162,730
116,991	0,752	317,908	162,701
118,006	0,618	317,622	162,396
119,020	0,705	317,631	162,480
120,035	0,750	317,477	162,436
121,049	0,645	317,271	162,202
122,064	0,806	317,045	162,246
123,079	0,710	316,623	161,912
124,093	0,637	316,413	161,712
125,108	0,466	316,034	161,319
126,122	0,198	315,729	160,862
127,137	0,082	315,392	160,551
128,151	0,206	315,401	160,674
129,166	0,380	315,093	160,689
130,181	0,180	314,977	160,401
131,195	0,310	314,642	160,356
132,210	0,515	314,538	160,508
133,224	0,794	314,306	160,673
134,239	0,717	314,239	160,542
135,254	0,828	313,963	160,506
136,268	0,419	313,737	159,940
137,283	0,291	313,294	159,563
138,297	0,092	312,945	159,160
139,312	0,192	312,824	159,190
140,327	0,518	312,887	159,554
141,341	0,922	312,606	159,826
142,356	1,036	312,479	159,868
143,370	1,097	312,328	159,841
144,385	1,044	312,166	159,688
145,400	1,012	311,824	159,465
146,414	0,943	311,691	159,310
147,429	0,949	311,416	159,161
148,443	1,107	311,199	159,203
149,458	0,966	311,052	158,965
150,473	1,150	310,738	158,984
151,487	0,919	310,671	158,692
152,502	0,951	310,458	158,603
153,516	1,004	310,056	158,439
154,531	0,868	309,930	158,218
155,546	0,948	309,744	158,193
156,560	0,957	309,389	158,006
157,575	0,864	309,238	157,818
158,589	1,063	308,914	157,847
159,604	1,097	308,843	157,833
160,619	0,993	308,607	157,589
161,633	0,712	308,439	157,195
162,648	0,809	308,337	157,230
163,662	1,004	307,970	157,233
164,677	0,931	307,887	157,100
165,692	1,108	307,712	157,182
166,706	0,951	307,498	156,894
167,721	0,997	307,256	156,805
168,735	1,035	307,044	156,722
169,750	1,047	306,946	156,671
170,764	1,071	306,821	156,618
171,779	1,023	306,585	156,433
172,794	1,102	306,296	156,354
173,808	0,980	306,088	156,108
174,823	0,658	305,540	155,481
175,837	0,409	305,333	155,104
176,852	0,791	305,424	155,532
177,867	1,155	305,294	155,827
178,881	1,281	305,058	155,824
179,896	1,064	304,944	155,528
180,910	1,312	304,620	155,604
181,925	1,230	304,448	155,418
182,940	1,147	304,329	155,259
183,954	1,179	304,173	155,198
184,969	1,085	303,808	154,901
185,983	0,895	303,729	154,651
186,998	1,033	303,518	154,672
188,013	1,259	303,095	154,674
189,027	1,069	303,111	154,474
190,042	1,187	302,745	154,395
191,056	1,352	302,675	154,514
192,071	1,406	302,475	154,453
193,086	1,221	302,364	154,193
194,100	1,494	302,027	154,287
195,115	1,175	301,956	153,911
196,129	1,019	301,657	153,586
197,144	1,163	301,446	153,612
198,159	1,142	301,239	153,471
199,173	1,184	301,162	153,461
200,188	1,390	300,722	153,432
201,202	1,081	300,485	152,984
202,217	0,580	300,066	152,249
203,232	0,391	300,006	152,013
204,246	0,896	299,745	152,379
205,261	1,130	299,663	152,560
206,275	1,105	299,597	152,488
207,290	1,205	299,352	152,451
208,304	1,244	299,119	152,358
209,319	1,151	298,870	152,124
210,334	1,118	298,701	151,991
211,348	1,104	298,657	151,941
212,363	1,130	298,497	151,872
213,377	1,115	298,242	151,713
214,392	1,172	297,935	151,601
215,407	1,136	297,607	151,385
216,421	0,888	297,395	151,014
217,436	0,851	297,166	150,848
218,450	0,898	297,034	150,814
219,465	1,088	297,103	151,026
220,480	1,215	296,775	150,973
221,494	1,156	296,654	150,839
222,509	1,116	296,431	150,672
223,523	1,093	296,304	150,572
224,538	1,174	296,317	150,645
225,553	1,293	295,901	150,540
226,567	1,334	295,782	150,506
227,582	1,303	295,580	150,360
228,596	1,366	295,463	150,349
229,611	1,467	295,196	150,300
230,626	1,338	294,956	150,037
231,640	0,915	294,514	149,378
232,655	0,463	294,179	148,747
233,669	0,385	294,024	148,578
234,684	0,520	293,839	148,605
235,699	0,743	293,553	148,667
236,713	0,753	293,586	148,681
237,728	0,795	293,509	148,670
238,742	0,997	293,151	148,676
239,757	1,068	293,071	148,691
240,772	1,162	292,982	148,725
241,786	1,046	292,968	148,591
242,801	0,949	292,541	148,266
243,815	0,901	292,326	148,096
244,830	1,032	292,140	148,117
245,844	0,784	291,926	147,752
246,859	1,003	291,765	147,873
247,874	0,833	291,443	147,529
248,888	0,924	291,471	147,620
249,903	1,245	291,304	147,837
250,917	1,257	291,105	147,734
251,932	1,493	291,031	147,914
252,947	2,055	291,134	148,504
253,961	2,000	290,918	148,326
254,976	2,007	290,974	148,349
255,990	3,245	291,115	149,618
257,005	3,903	291,211	150,297
258,020	4,392	291,333	150,825
259,034	4,225	291,109	150,532
260,049	4,390	290,859	150,550
261,063	4,226	290,610	150,249
262,078	4,560	290,524	150,516
263,093	4,879	290,645	150,876
264,107	4,984	290,402	150,839
265,122	4,975	290,208	150,716
266,136	5,309	290,060	150,950
267,151	5,218	289,773	150,700
268,166	4,888	289,655	150,304
269,180	4,788	289,222	149,969
270,195	4,923	289,216	150,083
271,209	5,003	288,987	150,029
272,224	4,722	288,854	149,674
273,239	4,589	288,587	149,394
274,253	4,703	288,538	149,465
275,268	5,278	288,270	149,868
276,282	5,197	287,984	149,629
277,297	5,327	287,878	149,685
278,312	5,256	287,817	149,571
279,326	4,977	287,539	149,145
280,341	4,992	287,359	149,053
281,355	4,798	287,116	148,728
282,370	4,575	286,845	148,360
283,384	4,572	286,698	148,267
284,399	4,882	286,610	148,506
285,414	5,036	286,428	148,546
286,428	4,706	286,239	148,118
287,443	4,534	285,960	147,797
288,457	4,359	285,691	147,477
289,472	4,432	285,451	147,409
290,487	4,512	285,389	147,441
291,501	4,603	284,993	147,310
292,516	4,396	284,843	147,022
293,530	4,378	284,741	146,939
294,545	4,590	284,674	147,093
295,560	4,677	284,460	147,052
296,574	4,424	284,159	146,643
297,589	4,449	284,129	146,639
298,603	4,757	284,173	146,941
299,618	4,976	283,863	146,975
300,633	4,764	283,728	146,691
301,647	4,702	283,422	146,461
302,662	4,877	283,171	146,484
303,676	4,699	282,949	146,187
304,691	4,299	282,769	145,704
305,706	4,277	282,480	145,522
306,720	4,251	282,259	145,370
307,735	4,065	282,227	145,165
308,749	4,315	282,105	145,325
309,764	4,618	281,853	145,467
310,779	4,309	281,648	145,058
311,793	4,293	281,456	144,931
312,808	4,311	281,255	144,831
313,822	4,319	281,108	144,751
314,837	4,273	280,797	144,534
315,852	4,218	280,599	144,368
316,866	4,212	280,583	144,342
317,881	4,293	280,414	144,317
318,895	4,418	280,213	144,318
319,910	4,276	279,958	144,040
320,925	3,956	279,754	143,624
321,939	4,142	279,636	143,725
322,954	4,308	279,485	143,789
323,968	4,464	279,295	143,824
324,983	4,501	279,190	143,791
325,997	4,601	279,078	143,814
327,012	4,658	278,900	143,762
328,027	4,520	278,613	143,473
329,041	4,366	278,387	143,201
330,056	4,560	278,338	143,343
331,070	4,674	278,135	143,332
332,085	4,379	277,929	142,939
333,100	4,537	277,766	142,989
334,114	4,375	277,604	142,743
335,129	4,234	277,274	142,430
336,143	4,463	277,212	142,598
337,158	4,693	277,147	142,763
338,173	4,558	276,976	142,538
339,187	4,194	276,748	142,072
340,202	4,466	276,533	142,200
341,216	4,352	276,424	142,027
342,231	4,570	276,323	142,163
343,246	4,695	275,990	142,093
344,260	4,501	275,748	141,777
345,275	4,733	275,724	141,966
346,289	4,862	275,681	142,049
347,304	5,055	275,397	142,068
348,319	4,719	275,089	141,588
349,333	4,437	275,007	141,276
350,348	4,766	274,905	141,511
351,362	4,861	274,791	141,527
352,377	4,893	274,484	141,385
353,392	4,646	274,511	141,161
354,406	4,734	274,207	141,072
355,421	191,378	1335,027	1413,448
356,435	154,637	1464,418	1413,619
