DTS Sentinel unit serial number:	SN410029Multiplexer serial number:	ORYXHardware model number:	OX2-SRSoftware version number:	ORYX F/W v4,00 Oryx Data Collector v3.7.2.0data status	okinstallation	B4 Nyhavnadifferential loss correction	single-endedforward channel	channel 2reverse channel	N/Adate	2023/12/19time	06:45:14forward acquisition time	300,00reverse acquisition time	0,00gamma	499,1914k internal	0,3126k external	0,3126temperature offset calibration	1,0000default loss term (dB/km)	0,3820temperature slope calibration	1,0000multiplexer offset coefficient	1,0000multiplexer slope coefficient	1,0000fibre end	0,00T internal ref (°C)	21,19T ext. ref 1 (°C)	6,55T ext. ref 2 (°C)	6,65length (m)	temperature (°C)	Stokes	anti-Stokes-744,400	-49,486	0,049	0,017
-743,385	158,776	-0,170	0,176
-742,371	-111,638	0,061	0,009
-741,356	-149,222	-0,212	0,012
-740,342	-9,502	0,083	0,041
-739,327	-61,130	-0,142	0,044
-738,312	-139,251	-0,061	-0,005
-737,298	-115,766	-0,225	0,031
-736,283	-200,000	-0,006	-0,149
-735,269	203,657	-0,177	0,204
-734,254	-17,986	-0,087	0,040
-733,239	-56,204	-0,435	-0,143
-732,225	22,853	0,145	-0,088
-731,210	76,242	0,019	0,015
-730,196	-41,392	0,134	0,051
-729,181	-200,000	0,002	-0,040
-728,167	-57,455	-0,066	-0,021
-727,152	-89,960	-0,104	-0,022
-726,137	-114,326	-0,070	0,010
-725,123	-133,422	-0,129	0,012
-724,108	10,111	-0,215	-0,121
-723,094	-86,904	-0,068	0,015
-722,079	11,306	-0,097	-0,055
-721,064	194,449	-0,094	0,106
-720,050	-200,000	0,021	0,073
-719,035	-200,000	0,012	0,147
-718,021	-200,000	0,001	0,031
-717,006	-102,698	-0,166	0,029
-715,991	-200,000	-0,012	-0,081
-714,977	233,462	-0,080	-0,098
-713,962	411,317	-0,099	0,157
-712,948	755,650	0,025	-0,050
-711,933	-200,000	0,000	-0,065
-710,918	6,677	-0,121	0,066
-709,904	69,221	-0,038	-0,029
-708,889	-200,000	-0,014	-0,099
-707,875	-101,396	0,065	-0,012
-706,860	800,000	-0,028	-0,085
-705,845	107,797	0,055	-0,048
-704,831	800,000	0,081	-0,201
-703,816	-22,061	0,071	-0,032
-702,802	-200,000	-0,004	-0,097
-701,787	-200,000	-0,008	-0,046
-700,772	-7,703	-0,024	0,012
-699,758	800,000	-0,028	-0,087
-698,743	407,793	0,055	0,086
-697,729	190,798	0,067	0,075
-696,714	-200,000	0,022	-0,101
-695,699	-200,000	-0,008	-0,103
-694,685	-200,000	0,009	0,068
-693,670	-34,973	0,025	-0,010
-692,656	-12,238	-0,085	0,041
-691,641	345,650	-0,024	0,035
-690,627	-75,514	-0,026	-0,007
-689,612	-6,411	0,106	-0,054
-688,597	-200,000	-0,003	-0,142
-687,583	-200,000	-0,018	-0,135
-686,568	800,000	-0,040	-0,084
-685,554	800,000	-0,030	-0,090
-684,539	4,221	-0,059	0,032
-683,524	-91,851	0,061	0,013
-682,510	408,466	-0,056	0,088
-681,495	89,537	-0,053	-0,044
-680,481	-200,000	-0,014	-0,095
-679,466	21,242	0,117	-0,070
-678,451	283,271	0,029	-0,038
-677,437	-31,119	-0,093	0,039
-676,422	-155,960	-0,130	0,006
-675,408	800,000	0,006	0,014
-674,393	43,528	0,087	-0,059
-673,378	-200,000	-0,013	-0,057
-672,364	-95,573	-0,059	-0,012
-671,349	800,000	0,023	-0,052
-670,335	304,747	0,035	-0,049
-669,320	-200,000	-0,040	0,137
-668,305	109,870	0,101	0,090
-667,291	17,002	-0,060	0,035
-666,276	-10,669	-0,138	-0,068
-665,262	72,434	-0,131	-0,102
-664,247	295,474	-0,065	-0,089
-663,232	-108,715	0,104	0,016
-662,218	-117,894	-0,083	0,011
-661,203	-200,000	0,003	0,124
-660,189	133,181	0,049	-0,047
-659,174	129,658	-0,046	-0,044
-658,159	-60,081	-0,025	0,008
-657,145	-182,406	-0,110	-0,001
-656,130	370,742	0,011	0,017
-655,116	-66,463	-0,077	-0,023
-654,101	44,066	0,032	-0,022
-653,086	-124,624	0,107	0,012
-652,072	800,000	0,018	0,056
-651,057	257,303	-0,043	-0,056
-650,043	325,540	0,034	0,048
-649,028	-70,828	-0,031	-0,009
-648,014	-200,000	0,013	-0,105
-646,999	-200,000	0,031	0,101
-645,984	-86,245	0,058	0,013
-644,970	97,467	0,047	-0,040
-643,955	-200,000	0,008	-0,116
-642,941	36,936	-0,125	-0,082
-641,926	800,000	-0,024	-0,079
-640,911	704,660	0,017	-0,033
-639,897	800,000	0,017	-0,043
-638,882	485,610	-0,036	-0,061
-637,868	134,133	-0,057	-0,054
-636,853	-200,000	0,008	-0,146
-635,838	-200,000	0,005	-0,034
-634,824	180,549	-0,057	-0,062
-633,809	59,271	-0,048	0,035
-632,795	-200,000	0,015	-0,080
-631,780	645,218	-0,038	0,073
-630,765	6,243	-0,032	-0,018
-629,751	432,151	0,060	-0,097
-628,736	49,986	-0,189	-0,132
-627,722	95,010	0,155	0,131
-626,707	19,841	-0,053	-0,031
-625,692	-1,286	0,035	0,018
-624,678	-200,000	-0,013	0,106
-623,663	32,597	-0,093	-0,060
-622,649	18,435	0,041	0,024
-621,634	-200,000	0,047	-0,166
-620,619	302,861	-0,094	-0,130
-619,605	800,000	0,038	-0,087
-618,590	113,187	0,048	0,043
-617,576	414,438	-0,040	-0,064
-616,561	-84,470	-0,068	-0,016
-615,546	38,645	0,025	-0,016
-614,532	-94,916	-0,169	-0,034
-613,517	-22,092	0,097	0,044
-612,503	-200,000	0,005	-0,021
-611,488	23,181	0,092	0,056
-610,474	-200,000	-0,017	0,061
-609,459	38,144	-0,089	0,058
-608,444	800,000	0,022	-0,071
-607,430	-200,000	0,052	-0,188
-606,415	-21,784	-0,155	-0,069
-605,401	-200,000	0,005	-0,068
-604,386	-29,502	0,063	-0,027
-603,371	-10,995	-0,046	-0,023
-602,357	350,325	-0,039	0,057
-601,342	183,246	-0,059	0,065
-600,328	131,899	-0,086	-0,082
-599,313	-101,294	-0,155	0,028
-598,298	163,956	-0,030	-0,031
-597,284	482,417	0,047	0,079
-596,269	361,415	-0,026	-0,038
-595,255	-200,000	-0,006	-0,064
-594,240	151,487	-0,071	0,071
-593,225	541,459	-0,028	-0,049
-592,211	148,374	-0,059	-0,059
-591,196	-46,115	0,103	-0,037
-590,182	-200,000	-0,000	0,126
-589,167	-47,423	0,172	-0,062
-588,152	-92,895	0,142	0,029
-587,138	-126,538	0,145	-0,016
-586,123	68,445	-0,078	-0,059
-585,109	-200,000	-0,014	-0,062
-584,094	-200,000	-0,001	0,012
-583,079	-49,488	0,118	-0,041
-582,065	117,919	0,040	0,037
-581,050	455,693	-0,047	0,078
-580,036	23,605	-0,041	0,025
-579,021	28,320	-0,036	0,023
-578,006	800,000	-0,069	-0,142
-576,992	-119,584	-0,126	-0,016
-575,977	-137,654	-0,142	-0,012
-574,963	800,000	0,063	0,144
-573,948	-174,924	-0,158	-0,003
-572,934	-98,457	-0,110	-0,021
-571,919	-16,031	0,126	-0,059
-570,904	326,510	0,023	0,033
-569,890	305,375	-0,013	-0,019
-568,875	236,670	-0,083	0,102
-567,861	-62,922	-0,079	-0,024
-566,846	-59,380	0,150	0,047
-565,831	-64,716	-0,026	-0,008
-564,817	-200,000	0,010	-0,068
-563,802	800,000	-0,040	-0,103
-562,788	800,000	0,050	-0,134
-561,773	235,120	-0,090	-0,110
-560,758	237,526	0,059	-0,072
-559,744	-200,000	0,019	0,095
-558,729	800,000	-0,027	0,079
-557,715	225,497	0,042	0,050
-556,700	-89,066	0,099	-0,022
-555,685	-200,000	0,007	0,046
-554,671	239,412	-0,061	-0,075
-553,656	482,623	0,020	0,034
-552,642	-200,000	-0,008	0,069
-551,627	-88,816	0,076	-0,016
-550,612	800,000	0,048	0,100
-549,598	54,940	-0,093	0,066
-548,583	264,037	0,056	-0,072
-547,569	-200,000	0,009	-0,106
-546,554	800,000	-0,036	0,086
-545,539	-200,000	0,009	0,130
-544,525	615,645	0,042	0,078
-543,510	106,593	-0,054	-0,047
-542,496	-200,000	0,003	-0,080
-541,481	239,444	-0,091	-0,112
-540,466	137,244	-0,053	-0,051
-539,452	154,161	0,047	-0,047
-538,437	177,486	0,086	-0,093
-537,423	-200,000	-0,015	-0,081
-536,408	800,000	-0,057	0,165
-535,393	298,055	0,033	0,045
-534,379	-36,334	0,080	0,032
-533,364	800,000	-0,034	-0,082
-532,350	152,174	0,033	-0,033
-531,335	-94,773	0,113	-0,023
-530,321	-31,383	-0,056	0,023
-529,306	-200,000	-0,001	-0,093
-528,291	-155,663	-0,130	0,006
-527,277	92,575	-0,085	-0,071
-526,262	-200,000	0,027	-0,135
-525,248	-84,089	0,017	0,004
-524,233	-200,000	0,042	0,169
-523,218	386,045	0,024	-0,037
-522,204	33,763	-0,010	-0,007
-521,189	15,318	0,061	-0,035
-520,175	-200,000	0,003	-0,086
-519,160	271,068	0,053	-0,068
-518,145	800,000	0,047	0,120
-517,131	353,231	-0,034	-0,049
-516,116	-200,000	0,020	0,089
-515,102	-5,028	0,138	0,070
-514,087	36,035	-0,170	0,110
-513,072	-142,421	-0,170	0,012
-512,058	-76,361	0,090	-0,023
-511,043	329,397	0,012	-0,017
-510,029	29,259	0,085	0,053
-509,014	312,919	-0,122	0,169
-507,999	-200,000	-0,035	-0,119
-506,985	147,803	0,069	0,069
-505,970	-200,000	0,006	-0,050
-504,956	-82,703	0,070	-0,017
-503,941	418,674	-0,105	0,166
-502,926	-9,724	0,043	-0,021
-501,912	-200,000	0,001	-0,154
-500,897	-200,000	-0,016	-0,059
-499,883	-125,867	0,077	0,008
-498,868	-172,057	-0,021	-0,000
-497,853	800,000	0,042	-0,132
-496,839	-32,581	-0,007	-0,003
-495,824	57,264	-0,031	-0,022
-494,810	102,215	-0,096	-0,083
-493,795	-83,378	0,114	-0,027
-492,781	-136,112	-0,093	-0,008
-491,766	4,186	-0,031	-0,017
-490,751	-75,565	-0,110	-0,029
-489,737	47,605	0,119	0,082
-488,722	98,219	0,061	-0,051
-487,708	-86,934	0,106	-0,024
-486,693	-200,000	0,007	-0,051
-485,678	170,323	0,089	0,094
-484,664	33,675	-0,100	-0,064
-483,649	135,425	-0,077	-0,074
-482,635	-96,039	0,100	0,019
-481,620	-200,000	0,024	-0,153
-480,605	350,296	-0,075	0,110
-479,591	-200,000	0,002	-0,019
-478,576	-135,340	0,038	0,003
-477,562	110,209	-0,045	-0,040
-476,547	312,332	-0,063	-0,088
-475,532	-76,880	0,079	0,020
-474,518	137,292	0,039	0,038
-473,503	800,000	0,020	0,050
-472,489	188,021	-0,041	-0,046
-471,474	800,000	-0,022	0,055
-470,459	800,000	-0,056	-0,166
-469,445	800,000	-0,016	-0,036
-468,430	49,888	0,096	0,067
-467,416	104,269	-0,020	-0,018
-466,401	-200,000	-0,003	0,119
-465,386	510,062	-0,076	0,130
-464,372	420,173	0,089	0,141
-463,357	-75,050	-0,168	0,044
-462,343	66,245	0,009	-0,007
-461,328	19,460	-0,050	0,030
-460,313	800,000	0,026	0,082
-459,299	525,152	0,077	0,135
-458,284	52,798	0,085	-0,060
-457,270	96,330	0,019	0,016
-456,255	122,687	0,089	-0,082
-455,241	694,299	-0,018	0,035
-454,226	216,892	0,096	-0,112
-453,211	-99,478	-0,108	-0,020
-452,197	148,393	0,084	0,083
-451,182	-86,751	-0,075	0,017
-450,168	-112,141	-0,065	-0,009
-449,153	358,302	-0,042	-0,062
-448,138	-200,000	-0,003	-0,073
-447,124	-200,000	-0,005	-0,048
-446,109	-66,701	0,067	0,019
-445,095	-87,384	-0,075	0,017
-444,080	-200,000	0,020	0,065
-443,065	-1,685	-0,038	-0,020
-442,051	-24,457	-0,007	-0,003
-441,036	-122,449	-0,122	-0,014
-440,022	-200,000	-0,020	0,079
-439,007	137,294	0,119	0,114
-437,992	-200,000	0,022	0,098
-436,978	-200,000	-0,005	0,068
-435,963	-200,000	0,003	0,129
-434,949	-52,774	0,082	-0,028
-433,934	-200,000	-0,025	-0,132
-432,919	-200,000	-0,009	-0,092
-431,905	1,744	-0,035	-0,019
-430,890	-115,856	0,048	0,007
-429,876	628,974	0,044	-0,083
-428,861	-200,000	0,021	0,069
-427,846	2,105	-0,024	0,013
-426,832	-200,000	0,014	-0,054
-425,817	695,272	-0,071	0,137
-424,803	86,662	-0,097	-0,078
-423,788	66,559	0,134	0,100
-422,773	-123,286	0,064	-0,007
-421,759	-200,000	0,005	0,053
-420,744	-200,000	-0,014	0,065
-419,730	656,703	-0,022	-0,041
-418,715	800,000	-0,010	-0,024
-417,701	-71,880	0,066	0,018
-416,686	56,883	0,107	-0,076
-415,671	56,550	0,108	0,077
-414,657	165,110	0,072	0,075
-413,642	800,000	0,028	-0,066
-412,628	-200,000	-0,024	0,125
-411,613	-59,403	-0,158	-0,050
-410,598	-9,184	0,028	-0,014
-409,584	-1,131	0,105	-0,054
-408,569	800,000	0,018	0,046
-407,555	-200,000	-0,001	-0,059
-406,540	-200,000	0,033	0,285
-405,525	-28,355	0,107	0,045
-404,511	46,379	-0,102	0,070
-403,496	-55,686	-0,097	-0,032
-402,482	164,840	0,061	-0,064
-401,467	55,217	0,059	0,042
-400,452	-138,371	0,188	0,015
-399,438	-165,208	-0,012	-0,000
-398,423	-200,000	-0,038	-0,168
-397,409	-200,000	-0,012	-0,043
-396,394	800,000	0,064	-0,147
-395,379	800,000	0,051	-0,149
-394,365	-200,000	0,002	-0,208
-393,350	-200,000	0,013	0,119
-392,336	-200,000	-0,033	0,161
-391,321	225,913	-0,030	-0,036
-390,306	4,225	0,134	-0,072
-389,292	-147,710	0,053	-0,003
-388,277	-200,000	0,001	-0,139
-387,263	19,292	-0,097	0,057
-386,248	47,319	0,092	0,062
-385,233	-4,782	-0,083	0,042
-384,219	298,802	-0,008	-0,011
-383,204	81,401	-0,111	-0,088
-382,190	-200,000	-0,010	0,067
-381,175	800,000	-0,041	0,102
-380,160	-62,850	0,117	0,035
-379,146	-120,787	-0,018	0,002
-378,131	-200,000	-0,003	0,040
-377,117	84,684	0,040	0,032
-376,102	494,672	-0,085	-0,144
-375,088	215,917	-0,088	-0,102
-374,073	-200,000	0,009	0,048
-373,058	-32,087	0,028	0,011
-372,044	3,611	-0,026	0,014
-371,029	-127,361	0,104	-0,011
-370,015	-200,000	-0,014	0,069
-369,000	-128,797	0,083	-0,008
-367,985	347,618	-0,038	-0,055
-366,971	-9,684	-0,020	0,010
-365,956	521,635	-0,036	-0,062
-364,942	36,719	-0,018	0,012
-363,927	0,188	-0,061	0,032
-362,912	79,188	0,031	0,025
-361,898	-200,000	-0,001	-0,087
-360,883	800,000	-0,048	-0,101
-359,869	-73,797	-0,237	-0,063
-358,854	692,452	-0,061	0,118
-357,839	-128,389	0,083	0,009
-356,825	-85,844	0,127	-0,029
-355,810	-200,000	-0,003	0,059
-354,796	123,819	0,056	-0,051
-353,781	800,000	-0,044	-0,103
-352,766	514,761	0,043	-0,073
-351,752	-165,696	0,146	-0,005
-350,737	-81,085	0,192	0,046
-349,723	62,078	0,199	0,145
-348,708	-63,391	0,055	0,016
-347,693	86,044	0,062	0,050
-346,679	-200,000	0,013	0,152
-345,664	-200,000	0,008	-0,094
-344,650	106,421	0,043	0,037
-343,635	569,066	0,021	0,037
-342,620	494,768	0,049	-0,083
-341,606	516,382	-0,095	-0,163
-340,591	-2,318	0,016	-0,008
-339,577	233,301	-0,031	-0,037
-338,562	527,334	0,024	0,042
-337,548	-16,290	-0,127	0,059
-336,533	199,274	0,061	-0,069
-335,518	155,897	-0,037	-0,037
-334,504	-71,627	-0,045	0,012
-333,489	-2,276	-0,056	-0,029
-332,475	555,302	-0,040	-0,071
-331,460	107,298	-0,159	0,138
-330,445	-153,295	0,104	-0,005
-329,431	236,906	-0,039	0,048
-328,416	80,060	0,042	0,033
-327,402	-200,000	-0,175	0,000
-326,387	-95,354	-0,048	0,009
-325,372	-200,000	-0,018	-0,106
-324,358	132,957	-0,065	0,061
-323,343	735,938	-0,003	-0,005
-322,329	157,602	0,100	0,101
-321,314	-67,446	0,071	0,020
-320,299	-200,000	0,021	0,072
-319,285	85,300	-0,055	0,044
-318,270	286,598	-0,051	0,068
-317,256	146,572	-0,073	0,072
-316,241	-147,234	0,103	0,006
-315,226	-52,170	0,089	-0,030
-314,212	273,785	0,053	-0,069
-313,197	-108,022	-0,109	-0,017
-312,183	612,823	0,023	0,043
-311,168	-171,237	0,058	0,001
-310,153	135,023	-0,178	-0,170
-309,139	529,668	0,031	-0,055
-308,124	-80,805	-0,061	0,015
-307,110	-108,445	-0,069	-0,011
-306,095	-126,966	0,002	0,000
-305,080	29,109	-0,058	0,036
-304,066	-200,000	0,037	-0,240
-303,051	-75,660	-0,135	-0,035
-302,037	-200,000	0,008	0,064
-301,022	294,634	-0,021	-0,028
-300,008	800,000	0,098	0,201
-298,993	-200,000	0,035	0,146
-297,978	800,000	0,030	0,082
-296,964	309,738	-0,103	-0,142
-295,949	46,268	0,045	-0,030
-294,935	800,000	0,022	-0,054
-293,920	-132,088	-0,063	0,006
-292,905	151,129	0,021	0,020
-291,891	-200,000	-0,006	0,045
-290,876	470,713	-0,067	0,110
-289,862	102,981	0,097	-0,083
-288,847	-99,186	-0,052	0,009
-287,832	408,537	0,052	-0,080
-286,818	6,522	0,133	-0,072
-285,803	-200,000	-0,038	0,158
-284,789	-200,000	0,010	0,124
-283,774	417,296	-0,015	0,024
-282,759	-200,000	0,026	-0,144
-281,745	108,210	-0,052	-0,046
-280,730	800,000	-0,068	0,144
-279,716	86,022	0,119	-0,096
-278,701	269,047	0,063	0,081
-277,686	-61,196	0,151	0,046
-276,672	530,650	-0,046	-0,079
-275,657	-200,000	-0,008	0,091
-274,643	-200,000	0,010	-0,089
-273,628	118,990	-0,081	0,073
-272,613	-112,589	-0,092	0,013
-271,599	-147,417	0,079	-0,005
-270,584	-48,617	-0,094	-0,033
-269,570	-1,133	0,008	0,004
-268,555	-200,000	-0,032	0,148
-267,540	-126,453	0,191	-0,020
-266,526	800,000	0,010	-0,028
-265,511	20,759	-0,038	0,022
-264,497	73,543	-0,011	0,009
-263,482	800,000	-0,017	-0,052
-262,467	-23,894	0,107	0,047
-261,453	641,710	-0,051	0,096
-260,438	87,162	0,014	0,012
-259,424	-97,082	-0,131	-0,025
-258,409	-200,000	-0,014	0,053
-257,395	8,649	-0,030	0,017
-256,380	711,487	0,027	0,053
-255,365	-200,000	0,033	0,122
-254,351	156,368	-0,033	-0,033
-253,336	800,000	-0,076	-0,168
-252,322	-41,683	-0,118	0,044
-251,307	73,288	0,096	-0,073
-250,292	-72,819	0,144	-0,038
-249,278	1,411	-0,085	0,045
-248,263	-200,000	0,002	0,023
-247,249	-18,888	0,099	0,045
-246,234	191,245	0,032	0,036
-245,219	-165,160	-0,077	-0,002
-244,205	3,172	-0,154	0,082
-243,190	73,340	0,109	0,083
-242,176	81,710	0,064	-0,051
-241,161	153,583	-0,107	0,108
-240,146	-151,138	0,119	-0,006
-239,132	-59,655	-0,046	0,014
-238,117	548,970	0,052	-0,091
-237,103	26,266	-0,092	-0,056
-236,088	744,038	-0,036	0,072
-235,073	-79,334	0,230	0,057
-234,059	541,044	0,097	0,169
-233,044	800,000	-0,008	0,016
-232,030	-0,568	-0,175	-0,090
-231,015	-200,000	-0,018	0,092
-230,000	-59,233	-0,060	0,019
-228,986	75,129	-0,061	0,047
-227,971	253,058	-0,048	0,060
-226,957	800,000	-0,013	0,036
-225,942	329,031	0,026	-0,036
-224,927	163,299	-0,028	0,029
-223,913	86,622	-0,092	-0,074
-222,898	20,031	-0,137	0,081
-221,884	-200,000	-0,011	-0,055
-220,869	-50,907	-0,097	-0,033
-219,855	-200,000	0,084	-0,000
-218,840	-200,000	-0,035	0,143
-217,825	-131,219	0,035	0,003
-216,811	800,000	-0,010	0,030
-215,796	-200,000	-0,011	-0,088
-214,782	800,000	0,056	-0,134
-213,767	108,543	-0,094	-0,082
-212,752	-115,429	0,057	0,008
-211,738	-200,000	-0,042	0,150
-210,723	-200,000	-0,038	0,145
-209,709	85,672	-0,022	-0,018
-208,694	32,870	0,104	-0,066
-207,679	93,503	0,077	0,064
-206,665	-8,071	-0,075	-0,037
-205,650	39,890	-0,064	0,042
-204,636	800,000	0,064	0,156
-203,621	-54,177	-0,027	-0,009
-202,606	146,554	0,076	0,074
-201,592	65,409	-0,063	0,047
-200,577	-7,863	-0,088	0,043
-199,563	800,000	0,035	0,103
-198,548	800,000	0,045	-0,093
-197,533	290,326	0,080	0,107
-196,519	-200,000	0,011	-0,145
-195,504	-200,000	0,007	0,062
-194,490	-200,000	0,004	-0,032
-193,475	234,622	-0,114	-0,137
-192,460	151,775	-0,057	0,056
-191,446	-125,059	0,181	-0,020
-190,431	469,799	-0,060	0,098
-189,417	73,943	0,031	-0,024
-188,402	-200,000	0,002	-0,029
-187,387	268,907	-0,077	-0,099
-186,373	-14,998	-0,060	0,028
-185,358	800,000	-0,065	-0,177
-184,344	-200,000	0,018	0,214
-183,329	498,544	-0,027	0,046
-182,315	-160,026	0,035	-0,001
-181,300	-89,903	0,124	-0,026
-180,285	744,739	-0,034	-0,066
-179,271	-200,000	-0,002	-0,016
-178,256	468,692	0,030	0,049
-177,242	800,000	0,037	0,090
-176,227	-92,839	0,090	-0,018
-175,212	284,867	0,103	0,135
-174,198	-95,000	-0,118	0,023
-173,183	-200,000	0,001	0,110
-172,169	-46,552	-0,056	-0,020
-171,154	-200,000	-0,024	0,080
-170,139	167,399	0,049	-0,051
-169,125	-42,165	-0,068	0,025
-168,110	-200,000	0,001	0,071
-167,096	150,524	0,035	-0,035
-166,081	-200,000	0,006	0,043
-165,066	-200,000	-0,042	-0,176
-164,052	-200,000	0,011	0,043
-163,037	-160,215	-0,030	0,001
-162,023	210,416	0,126	0,144
-161,008	98,160	0,100	0,084
-159,993	-200,000	0,011	-0,059
-158,979	90,116	0,018	0,014
-157,964	-200,000	0,012	-0,055
-156,950	800,000	-0,070	-0,153
-155,935	-41,116	0,128	-0,048
-154,920	-200,000	-0,006	0,080
-153,906	-66,609	0,128	-0,037
-152,891	-200,000	-0,009	0,082
-151,877	-200,000	-0,001	0,051
-150,862	130,398	0,093	-0,087
-149,847	-112,882	0,171	0,024
-148,833	-200,000	0,000	0,102
-147,818	309,125	-0,042	0,058
-146,804	445,053	0,075	0,120
-145,789	800,000	0,027	0,069
-144,775	800,000	-0,029	0,064
-143,760	17,786	-0,107	0,062
-142,745	-200,000	-0,014	-0,105
-141,731	24,891	0,116	-0,070
-140,716	465,182	0,072	0,117
-139,702	-14,324	0,060	0,028
-138,687	-23,317	-0,047	0,020
-137,672	-200,000	0,027	-0,131
-136,658	-124,810	0,076	0,008
-135,643	611,440	-0,041	0,076
-134,629	501,757	0,076	0,128
-133,614	-200,000	0,024	0,107
-132,599	125,997	0,095	0,087
-131,585	800,000	-0,047	0,146
-130,570	-155,126	-0,077	-0,004
-129,556	127,009	-0,089	0,082
-128,541	185,100	0,060	-0,065
-127,526	-86,145	0,034	0,008
-126,512	-100,967	0,060	0,011
-125,497	-39,793	0,090	-0,034
-124,483	800,000	-0,060	-0,122
-123,468	398,529	-0,056	0,085
-122,453	263,256	-0,064	0,081
-121,439	76,153	-0,075	-0,058
-120,424	406,548	-0,051	-0,078
-119,410	800,000	0,034	0,095
-118,395	42,019	-0,101	0,066
-117,380	-200,000	0,001	0,193
-116,366	195,952	-0,094	0,104
-115,351	94,222	0,050	-0,041
-114,337	9,924	-0,088	-0,049
-113,322	-200,000	0,038	-0,162
-112,307	-92,852	-0,057	-0,011
-111,293	-123,678	-0,180	-0,020
-110,278	-6,499	-0,033	-0,016
-109,264	-200,000	0,001	0,080
-108,249	-48,574	0,013	0,004
-107,234	110,915	-0,126	0,110
-106,220	-144,122	-0,124	0,008
-105,205	-200,000	0,038	0,154
-104,191	-200,000	-0,016	0,159
-103,176	-35,474	-0,049	-0,019
-102,162	271,217	0,051	0,066
-101,147	-200,000	0,021	-0,080
-100,132	559,530	-0,066	-0,116
-99,118	-41,438	0,070	0,026
-98,103	-46,568	-0,043	-0,015
-97,089	144,852	0,087	0,084
-96,074	-155,902	0,138	0,006
-95,059	800,000	0,087	0,179
-94,045	-200,000	0,018	0,074
-93,030	-200,000	-0,005	0,064
-92,016	-115,344	-0,106	-0,014
-91,001	-140,915	0,118	0,009
-89,986	202,112	0,060	-0,067
-88,972	800,000	0,070	-0,169
-87,957	-70,037	0,092	-0,025
-86,943	282,217	0,109	0,142
-85,928	-200,000	0,023	-0,083
-84,913	-200,000	-0,010	0,057
-83,899	-200,000	0,008	0,122
-82,884	-106,535	0,041	-0,007
-81,870	142,764	0,021	0,020
-80,855	12,915	0,082	0,046
-79,840	-161,071	-0,151	-0,006
-78,826	79,039	0,093	-0,072
-77,811	-200,000	0,025	-0,092
-76,797	344,678	-0,027	-0,038
-75,782	800,000	0,049	0,100
-74,767	-200,000	0,005	0,035
-73,753	332,301	0,069	0,098
-72,738	710,200	0,011	-0,021
-71,724	-139,652	-0,036	-0,003
-70,709	-141,075	0,027	0,002
-69,694	800,000	0,031	-0,083
-68,680	166,038	0,054	0,056
-67,665	-200,000	0,002	0,009
-66,651	-200,000	-0,016	0,207
-65,636	-200,000	-0,002	0,085
-64,622	32,361	0,045	-0,028
-63,607	800,000	0,032	0,072
-62,592	-200,000	0,000	-0,037
-61,578	581,136	0,047	0,084
-60,563	-200,000	0,040	0,153
-59,549	-37,959	-0,139	0,053
-58,534	-117,084	-1,508	-0,197
-57,519	480,507	-0,883	-1,458
-56,505	-200,000	-0,887	-4,410
-55,490	-48,005	0,627	-0,218
-54,476	800,000	5,024	11,774
-53,461	-200,000	14,422	260,391
-52,446	-200,000	696,057	2275,374
-51,432	601,932	1622,942	2935,908
-50,417	117,698	1631,457	1455,661
-49,403	75,158	1285,120	980,994
-48,388	37,233	1022,600	655,174
-47,373	23,402	981,585	583,428
-46,359	22,613	970,714	574,356
-45,344	21,421	966,407	567,894
-44,330	21,412	964,992	567,009
-43,315	21,242	963,444	565,525
-42,300	21,275	962,324	564,953
-41,286	21,253	961,456	564,349
-40,271	21,261	960,295	563,672
-39,257	21,209	959,501	563,013
-38,242	21,188	958,671	562,437
-37,227	21,191	957,776	561,898
-36,213	21,201	956,792	561,331
-35,198	21,185	955,946	560,762
-34,184	21,200	955,282	560,398
-33,169	21,148	954,277	559,620
-32,154	21,198	953,524	559,316
-31,140	21,320	952,595	559,141
-30,125	21,201	952,061	558,422
-29,111	21,232	951,035	557,899
-28,096	21,186	950,429	557,372
-27,082	21,192	949,793	556,998
-26,067	21,246	948,747	556,536
-25,052	21,206	948,225	556,078
-24,038	21,209	947,641	555,724
-23,023	21,237	946,968	555,398
-22,009	21,283	946,226	555,086
-20,994	21,263	945,678	554,680
-19,979	21,302	944,904	554,327
-18,965	21,240	944,498	553,869
-17,950	21,232	943,714	553,363
-16,936	21,199	942,978	552,805
-15,921	21,168	942,323	552,299
-14,906	21,084	941,718	551,654
-13,892	21,099	940,928	551,219
-12,877	21,112	940,356	550,903
-11,863	21,079	939,896	550,507
-10,848	21,110	939,229	550,194
-9,833	21,209	938,868	550,274
-8,819	21,200	938,120	549,784
-7,804	21,124	937,465	549,139
-6,790	21,143	937,048	548,931
-5,775	21,130	936,315	548,440
-4,760	21,128	935,790	548,103
-3,746	21,096	935,067	547,560
-2,731	20,978	934,579	546,879
-1,717	20,875	933,741	546,042
-0,702	20,925	932,956	545,719
0,313	20,709	932,605	545,657
1,327	23,268	930,035	552,143
2,342	30,988	807,328	500,181
3,356	25,636	508,182	305,697
4,371	1,193	373,978	193,834
5,386	-1,676	357,241	181,616
6,400	-2,962	351,154	176,950
7,415	-3,652	348,473	174,755
8,429	-3,826	346,949	173,767
9,444	-3,968	346,101	173,158
10,459	-3,938	345,463	172,859
11,473	-3,776	344,712	172,660
12,488	-3,862	344,312	172,343
13,502	-3,792	343,730	172,119
14,517	-3,741	343,264	171,930
15,531	-3,806	342,733	171,573
16,546	-3,679	342,196	171,438
17,561	-3,664	341,780	171,232
18,575	-3,662	341,372	171,015
19,590	-3,870	341,153	170,646
20,604	-3,752	340,775	170,580
21,619	-3,793	340,355	170,306
22,634	-3,771	340,004	170,141
23,648	-3,824	339,708	169,915
24,663	-3,805	339,337	169,737
25,677	-3,805	339,095	169,602
26,692	-3,718	338,778	169,528
27,707	-3,657	338,303	169,347
28,721	-3,708	338,075	169,158
29,736	-3,730	337,925	169,043
30,750	-3,644	337,423	168,876
31,765	-3,714	337,180	168,659
32,780	-3,777	336,957	168,459
33,794	-3,750	336,882	168,438
34,809	-3,833	336,420	168,096
35,823	-3,770	336,059	167,973
36,838	-3,749	335,771	167,838
37,853	-3,706	335,403	167,688
38,867	-3,826	335,131	167,399
39,882	-3,778	335,019	167,384
40,896	-3,549	334,664	167,456
41,911	-3,576	334,455	167,305
42,926	-3,686	334,317	167,094
43,940	-3,643	333,891	166,917
44,955	-3,674	333,623	166,732
45,969	-3,748	333,314	166,477
46,984	-3,828	333,259	166,344
47,999	-3,759	332,947	166,252
49,013	-3,675	332,721	166,220
50,028	-3,623	332,434	166,121
51,042	-3,694	332,217	165,918
52,057	-3,760	331,959	165,698
53,071	-3,810	331,616	165,456
54,086	-3,859	331,385	165,270
55,101	-3,729	331,035	165,228
56,115	-3,653	330,739	165,152
57,130	-3,847	330,721	164,908
58,144	-3,843	330,246	164,661
59,159	-3,691	329,878	164,635
60,174	-3,780	329,683	164,422
61,188	-3,849	329,491	164,233
62,203	-3,837	329,259	164,117
63,217	-3,668	328,984	164,156
64,232	-3,651	328,760	164,048
65,247	-3,758	328,491	163,780
66,261	-3,716	328,026	163,580
67,276	-3,747	327,871	163,453
68,290	-3,717	327,736	163,406
69,305	-3,761	327,470	163,209
70,320	-3,676	327,232	163,171
71,334	-3,703	326,905	162,963
72,349	-3,680	326,666	162,855
73,363	-3,701	326,370	162,670
74,378	-3,726	326,124	162,505
75,393	-3,665	325,830	162,412
76,407	-3,717	325,628	162,238
77,422	-3,659	325,287	162,118
78,436	-3,534	325,068	162,134
79,451	-3,580	324,899	161,985
80,466	-3,562	324,550	161,816
81,480	-3,615	324,244	161,591
82,495	-3,601	324,150	161,544
83,509	-3,758	323,901	161,232
84,524	-3,673	323,702	161,213
85,539	-3,670	323,371	161,036
86,553	-3,719	323,176	160,870
87,568	-3,768	322,919	160,674
88,582	-3,732	322,724	160,602
89,597	-3,767	322,656	160,516
90,611	-3,652	322,212	160,408
91,626	-3,693	322,071	160,278
92,641	-3,540	321,682	160,239
93,655	-3,630	321,455	160,012
94,670	-3,716	321,185	159,769
95,684	-3,727	320,948	159,625
96,699	-3,632	320,795	159,639
97,714	-3,739	320,633	159,426
98,728	-3,880	320,493	159,188
99,743	-3,670	320,111	159,214
100,757	-3,689	319,776	159,013
101,772	-3,658	319,695	158,992
102,787	-3,573	319,331	158,889
103,801	-3,840	319,185	158,511
104,816	-3,697	318,913	158,518
105,830	-3,500	318,528	158,527
106,845	-3,434	318,321	158,481
107,860	-3,742	318,176	158,061
108,874	-3,635	317,870	158,011
109,889	-3,656	317,609	157,843
110,903	-3,772	317,507	157,653
111,918	-3,610	317,266	157,695
112,933	-3,539	316,939	157,596
113,947	-3,634	316,711	157,366
114,962	-3,695	316,697	157,279
115,976	-3,748	316,324	157,022
116,991	-3,745	316,198	156,949
118,006	-3,739	315,901	156,794
119,020	-3,599	315,630	156,796
120,035	-3,540	315,717	156,889
121,049	-3,792	315,444	156,468
122,064	-3,599	315,082	156,482
123,079	-3,634	314,863	156,321
124,093	-3,681	314,580	156,116
125,108	-3,672	314,296	155,971
126,122	-3,726	314,247	155,875
127,137	-3,539	313,965	155,921
128,151	-3,630	313,762	155,710
129,166	-3,515	313,346	155,612
130,181	-3,708	313,394	155,415
131,195	-3,424	312,849	155,435
132,210	-3,735	312,769	155,050
133,224	-3,713	312,506	154,928
134,239	-3,669	312,267	154,843
135,254	-3,535	312,010	154,845
136,268	-3,561	311,829	154,713
137,283	-3,646	311,726	154,558
138,297	-3,712	311,536	154,379
139,312	-3,548	311,148	154,348
140,327	-3,633	311,052	154,196
141,341	-3,707	310,761	153,960
142,356	-3,592	310,513	153,945
143,370	-3,732	310,218	153,637
144,385	-3,682	310,110	153,622
145,400	-3,753	309,837	153,398
146,414	-3,724	309,714	153,355
147,429	-3,583	309,388	153,328
148,443	-3,685	309,278	153,152
149,458	-3,756	308,998	152,925
150,473	-3,637	308,778	152,928
151,487	-3,663	308,568	152,783
152,502	-3,703	308,239	152,565
153,516	-3,712	308,135	152,490
154,531	-3,695	307,978	152,417
155,546	-3,624	307,670	152,325
156,560	-3,799	307,623	152,105
157,575	-3,516	307,333	152,244
158,589	-3,492	307,063	152,122
159,604	-3,614	306,803	151,852
160,619	-3,466	306,358	151,772
161,633	-3,533	306,321	151,671
162,648	-3,603	306,180	151,514
163,662	-3,590	306,033	151,442
164,677	-3,534	305,773	151,358
165,692	-3,459	305,570	151,321
166,706	-3,611	305,418	151,076
167,721	-3,579	305,204	150,989
168,735	-3,683	305,203	150,868
169,750	-3,694	304,800	150,643
170,764	-3,637	304,749	150,664
171,779	-3,568	304,426	150,562
172,794	-3,534	304,254	150,499
173,808	-3,452	303,977	150,432
174,823	-3,632	303,846	150,168
175,837	-3,576	303,613	150,098
176,852	-3,484	303,488	150,118
177,867	-3,642	303,270	149,834
178,881	-3,396	302,845	149,864
179,896	-3,480	302,699	149,691
180,910	-3,581	302,582	149,517
181,925	-3,585	302,413	149,415
182,940	-3,551	302,117	149,290
183,954	-3,755	302,033	149,027
184,969	-3,646	301,774	148,997
185,983	-3,564	301,617	148,990
186,998	-3,524	301,391	148,906
188,013	-3,464	301,054	148,788
189,027	-3,392	300,781	148,713
190,042	-3,448	300,528	148,518
191,056	-3,634	300,566	148,333
192,071	-3,594	300,357	148,258
193,086	-3,567	300,053	148,122
194,100	-3,521	299,964	148,112
195,115	-3,651	299,652	147,813
196,129	-3,378	299,297	147,902
197,144	-3,629	299,093	147,533
198,159	-3,600	298,967	147,486
199,173	-3,549	298,879	147,482
200,188	-3,591	298,720	147,348
201,202	-3,551	298,605	147,318
202,217	-3,503	298,178	147,143
203,232	-3,445	297,897	147,050
204,246	-3,587	297,809	146,850
205,261	-3,668	297,553	146,629
206,275	-3,520	297,293	146,637
207,290	-3,540	297,230	146,573
208,304	-3,461	296,968	146,510
209,319	-3,544	296,799	146,330
210,334	-3,412	296,417	146,261
211,348	-3,466	296,303	146,138
212,363	-3,387	296,060	146,084
213,377	-3,396	295,925	145,995
214,392	-3,540	295,733	145,743
215,407	-3,480	295,578	145,714
216,421	-3,582	295,335	145,479
217,436	-3,396	295,186	145,578
218,450	-3,547	294,941	145,295
219,465	-3,541	294,822	145,229
220,480	-3,520	294,456	145,056
221,494	-3,517	294,609	145,122
222,509	-3,427	294,253	145,023
223,523	-3,450	294,013	144,869
224,538	-3,398	293,923	144,863
225,553	-3,437	293,576	144,641
226,567	-3,556	293,347	144,397
227,582	-3,614	293,209	144,259
228,596	-3,506	293,083	144,290
229,611	-3,421	292,969	144,305
230,626	-3,412	292,645	144,142
231,640	-3,712	292,475	143,749
232,655	-3,506	292,218	143,814
233,669	-3,545	291,924	143,617
234,684	-3,721	291,971	143,454
235,699	-3,574	291,748	143,476
236,713	-3,420	291,458	143,473
237,728	-3,465	291,344	143,359
238,742	-3,482	291,204	143,261
239,757	-3,516	290,978	143,104
240,772	-3,539	290,685	142,925
241,786	-3,481	290,525	142,890
242,801	-3,552	290,412	142,752
243,815	-3,255	290,076	142,865
244,830	-3,446	290,014	142,635
245,844	-3,340	289,765	142,603
246,859	-3,434	289,487	142,362
247,874	-3,420	289,293	142,268
248,888	-3,345	289,055	142,210
249,903	-3,470	289,013	142,056
250,917	-3,321	288,776	142,072
251,932	-3,450	288,776	141,933
252,947	-3,591	288,283	141,542
253,961	-3,321	288,249	141,774
254,976	-3,107	288,265	141,978
255,990	-3,168	287,946	141,749
257,005	-2,806	288,311	142,267
258,020	-0,979	288,798	144,272
259,034	0,199	288,994	145,503
260,049	0,580	288,852	145,788
261,063	1,060	288,884	146,257
262,078	1,345	289,007	146,584
263,093	1,688	288,846	146,822
264,107	1,926	288,745	146,988
265,122	2,309	288,539	147,242
266,136	2,169	288,507	147,076
267,151	2,191	288,246	146,952
268,166	2,282	288,013	146,907
269,180	2,231	287,961	146,819
270,195	2,157	287,735	146,619
271,209	2,279	287,472	146,589
272,224	2,441	287,294	146,642
273,239	2,150	287,168	146,284
274,253	2,228	287,007	146,265
275,268	2,256	286,589	146,065
276,282	2,135	286,472	145,876
277,297	2,037	286,319	145,691
278,312	2,045	286,152	145,600
279,326	2,320	285,840	145,693
280,341	2,222	285,778	145,554
281,355	2,210	285,602	145,440
282,370	2,083	285,350	145,178
283,384	2,206	285,152	145,181
284,399	2,034	285,102	144,978
285,414	2,046	284,811	144,829
286,428	2,047	284,782	144,802
287,443	1,902	284,596	144,557
288,457	2,055	284,184	144,480
289,472	2,007	283,954	144,305
290,487	1,963	283,820	144,182
291,501	2,116	283,554	144,178
292,516	2,096	283,474	144,107
293,530	2,156	283,176	143,998
294,545	2,055	283,060	143,831
295,560	2,001	282,944	143,708
296,574	1,931	282,859	143,586
297,589	1,856	282,593	143,368
298,603	2,049	282,327	143,402
299,618	1,959	282,096	143,187
300,633	1,991	282,076	143,194
301,647	2,012	281,782	143,052
302,662	2,173	281,732	143,166
303,676	2,151	281,552	143,041
304,691	2,203	281,266	142,931
305,706	2,176	281,113	142,816
306,720	2,208	280,913	142,731
307,735	2,181	280,738	142,604
308,749	2,158	280,653	142,527
309,764	2,187	280,316	142,370
310,779	2,122	280,276	142,277
311,793	2,145	280,069	142,180
312,808	2,118	279,907	142,060
313,822	2,133	279,681	141,947
314,837	2,410	279,564	142,134
315,852	2,275	279,308	141,865
316,866	2,149	279,076	141,616
317,881	2,139	278,860	141,485
318,895	2,146	278,627	141,361
319,910	2,223	278,620	141,416
320,925	2,193	278,364	141,246
321,939	2,257	278,175	141,197
322,954	2,148	278,095	141,042
323,968	2,262	278,031	141,103
324,983	2,202	277,691	140,862
325,997	2,260	277,600	140,857
327,012	2,288	277,297	140,718
328,027	2,132	277,323	140,574
329,041	2,233	277,138	140,560
330,056	2,240	276,970	140,469
331,070	2,287	276,766	140,397
332,085	2,186	276,513	140,162
333,100	2,105	276,333	139,983
334,114	2,292	276,125	140,038
335,129	2,396	275,827	139,971
336,143	2,383	275,698	139,880
337,158	2,213	275,671	139,699
338,173	2,275	275,474	139,643
339,187	2,419	275,110	139,578
340,202	2,308	275,106	139,461
341,216	2,404	274,760	139,361
342,231	2,469	274,649	139,352
343,246	2,354	274,501	139,160
344,260	2,267	274,302	138,967
345,275	2,423	274,224	139,058
346,289	2,403	273,968	138,897
347,304	2,150	274,065	138,702
348,319	2,248	273,698	138,594
349,333	2,379	273,498	138,600
350,348	2,423	273,385	138,570
351,362	2,267	273,115	138,279
352,377	2,566	272,964	138,462
353,392	2,205	272,869	138,074
354,406	2,470	272,598	138,165
355,421	191,342	1350,043	1428,964
356,435	154,468	1481,401	1429,093
