DTS Sentinel unit serial number:	SN410029Multiplexer serial number:	ORYXHardware model number:	OX2-SRSoftware version number:	ORYX F/W v4,00 Oryx Data Collector v3.7.2.0data status	okinstallation	B4 Nyhavnadifferential loss correction	single-endedforward channel	channel 2reverse channel	N/Adate	2023/12/19time	00:25:13forward acquisition time	300,00reverse acquisition time	0,00gamma	499,1914k internal	0,3123k external	0,3123temperature offset calibration	1,0000default loss term (dB/km)	0,3820temperature slope calibration	1,0000multiplexer offset coefficient	1,0000multiplexer slope coefficient	1,0000fibre end	0,00T internal ref (°C)	22,14T ext. ref 1 (°C)	6,68T ext. ref 2 (°C)	6,66length (m)	temperature (°C)	Stokes	anti-Stokes-744,400	-200,000	0,014	0,075
-743,385	-200,000	0,018	0,085
-742,371	-105,213	0,172	-0,029
-741,356	572,828	-0,123	0,224
-740,342	-79,483	0,074	0,019
-739,327	62,078	-0,095	0,071
-738,312	-138,995	-0,092	-0,007
-737,298	-162,982	-0,319	-0,011
-736,283	42,098	-0,037	-0,025
-735,269	416,050	-0,184	0,293
-734,254	154,029	-0,025	-0,025
-733,239	-181,482	-0,513	0,007
-732,225	-200,000	0,036	-0,209
-731,210	-177,073	-0,069	-0,001
-730,196	55,312	0,039	0,028
-729,181	-29,613	-0,095	-0,040
-728,167	-200,000	0,019	-0,146
-727,152	97,573	0,024	-0,020
-726,137	118,817	0,078	0,072
-725,123	108,091	0,070	0,062
-724,108	-200,000	-0,035	-0,242
-723,094	24,901	-0,071	-0,044
-722,079	186,209	-0,056	0,062
-721,064	163,435	-0,053	-0,056
-720,050	86,811	0,074	0,061
-719,035	324,423	-0,085	0,121
-718,021	335,831	-0,064	0,092
-717,006	-168,919	-0,172	-0,005
-715,991	66,769	-0,106	-0,080
-714,977	-200,000	-0,017	-0,119
-713,962	-200,000	-0,010	-0,173
-712,948	115,714	-0,044	0,040
-711,933	37,864	-0,096	0,064
-710,918	-30,610	0,154	0,065
-709,904	-200,000	-0,017	-0,062
-708,889	-200,000	0,000	-0,028
-707,875	-9,862	-0,104	-0,051
-706,860	-162,695	0,031	0,001
-705,845	404,616	-0,078	-0,122
-704,831	176,086	0,091	-0,099
-703,816	-169,834	0,122	-0,003
-702,802	800,000	-0,018	-0,041
-701,787	-72,922	-0,060	-0,016
-700,772	-144,915	-0,059	-0,004
-699,758	-200,000	-0,007	-0,042
-698,743	-116,899	0,143	0,019
-697,729	-108,332	-0,103	0,016
-696,714	-47,661	-0,151	-0,054
-695,699	-200,000	0,000	-0,026
-694,685	60,611	-0,079	-0,058
-693,670	800,000	0,074	-0,209
-692,656	101,561	0,050	0,043
-691,641	45,768	0,057	-0,039
-690,627	-118,495	0,111	0,015
-689,612	75,135	0,055	0,043
-688,597	151,641	0,071	-0,072
-687,583	-84,546	0,069	-0,016
-686,568	-200,000	0,029	-0,096
-685,554	198,330	-0,040	-0,045
-684,539	2,691	0,109	-0,059
-683,524	236,808	-0,122	0,150
-682,510	-139,892	-0,116	-0,009
-681,495	-29,329	-0,138	-0,058
-680,481	211,433	-0,071	-0,084
-679,466	-200,000	-0,016	-0,154
-678,451	743,246	0,036	0,072
-677,437	800,000	-0,058	0,134
-676,422	2,254	-0,086	0,046
-675,408	-77,242	-0,079	-0,020
-674,393	611,139	0,030	-0,056
-673,378	6,352	0,031	-0,017
-672,364	257,241	-0,055	-0,070
-671,349	-4,817	-0,124	-0,063
-670,335	580,245	-0,116	-0,212
-669,320	-119,339	0,117	0,015
-668,305	67,417	-0,147	-0,112
-667,291	-200,000	-0,046	-0,152
-666,276	800,000	-0,024	0,057
-665,262	-116,639	-0,125	-0,017
-664,247	363,854	0,064	-0,096
-663,232	800,000	-0,039	-0,088
-662,218	-38,921	0,025	0,010
-661,203	528,736	-0,034	-0,060
-660,189	-100,461	0,033	0,006
-659,174	210,985	-0,057	-0,066
-658,159	650,931	0,055	-0,104
-657,145	-161,798	-0,095	-0,004
-656,130	-200,000	-0,035	-0,119
-655,116	-200,000	-0,000	0,117
-654,101	-200,000	0,000	0,017
-653,086	-51,788	-0,077	0,026
-652,072	349,177	0,015	-0,023
-651,057	800,000	-0,085	-0,238
-650,043	-200,000	-0,032	-0,195
-649,028	393,944	-0,115	-0,178
-648,014	462,182	0,056	-0,094
-646,999	800,000	0,013	-0,030
-645,984	323,808	0,024	-0,034
-644,970	-200,000	0,017	0,060
-643,955	-169,455	-0,096	-0,003
-642,941	-188,165	0,087	0,001
-641,926	-200,000	-0,003	0,144
-640,911	-133,275	0,096	0,009
-639,897	-200,000	0,016	-0,143
-638,882	-114,406	-0,098	-0,014
-637,868	95,973	-0,141	0,119
-636,853	-36,875	-0,117	0,046
-635,838	800,000	-0,027	0,059
-634,824	800,000	0,033	-0,069
-633,809	-200,000	0,008	-0,067
-632,795	-200,000	-0,018	0,061
-631,780	-21,972	0,066	0,030
-630,765	-200,000	-0,001	-0,101
-629,751	-66,785	0,099	0,029
-628,736	85,782	-0,180	-0,147
-627,722	-44,444	0,126	-0,047
-626,707	36,617	-0,081	0,053
-625,692	800,000	0,037	0,115
-624,678	-80,362	0,094	0,023
-623,663	-55,334	-0,093	0,031
-622,649	502,781	-0,089	-0,153
-621,634	-104,218	-0,122	0,021
-620,619	-68,488	-0,178	0,051
-619,605	-200,000	-0,006	0,034
-618,590	336,689	0,066	0,096
-617,576	318,391	0,090	0,126
-616,561	-89,948	-0,139	-0,030
-615,546	-35,576	-0,114	-0,046
-614,532	329,424	0,026	0,037
-613,517	-29,747	-0,066	-0,028
-612,503	41,311	-0,099	-0,066
-611,488	800,000	0,018	0,041
-610,474	-200,000	-0,007	0,114
-609,459	-44,915	0,114	0,042
-608,444	-200,000	0,014	-0,061
-607,430	-78,124	-0,222	-0,056
-606,415	145,241	-0,013	-0,013
-605,401	91,611	-0,062	0,051
-604,386	-200,000	-0,011	0,066
-603,371	800,000	0,038	0,094
-602,357	800,000	0,012	0,029
-601,342	33,185	-0,074	0,047
-600,328	-2,871	-0,107	0,055
-599,313	-200,000	0,014	0,093
-598,298	-58,049	0,031	0,010
-597,284	-7,803	-0,178	0,089
-596,269	-13,445	0,082	-0,039
-595,255	800,000	0,009	-0,024
-594,240	-44,623	-0,094	-0,035
-593,225	800,000	-0,024	-0,074
-592,211	279,019	-0,061	-0,080
-591,196	-87,258	-0,174	-0,039
-590,182	-106,714	-0,035	0,006
-589,167	422,377	-0,078	0,125
-588,152	-200,000	0,015	-0,075
-587,138	-137,599	-0,032	0,003
-586,123	113,782	0,042	0,038
-585,109	800,000	0,070	-0,174
-584,094	800,000	-0,059	-0,133
-583,079	194,004	0,110	-0,124
-582,065	-58,385	0,028	0,009
-581,050	121,037	0,033	0,030
-580,036	-177,726	-0,021	0,000
-579,021	-47,762	-0,129	-0,046
-578,006	44,980	-0,076	0,052
-576,992	-200,000	-0,005	-0,027
-575,977	504,203	0,027	-0,047
-574,963	430,602	-0,025	-0,040
-573,948	214,690	0,042	0,050
-572,934	103,563	0,106	0,092
-571,919	159,647	-0,031	-0,032
-570,904	-200,000	0,001	0,027
-569,890	757,210	-0,044	-0,089
-568,875	76,325	0,007	0,006
-567,861	274,500	0,034	0,044
-566,846	180,279	0,013	-0,014
-565,831	-200,000	0,011	0,051
-564,817	170,137	0,064	-0,067
-563,802	-174,639	0,155	-0,003
-562,788	-69,161	-0,106	-0,030
-561,773	-200,000	-0,007	-0,082
-560,758	800,000	-0,036	0,094
-559,744	800,000	0,035	0,087
-558,729	-193,403	-0,094	0,001
-557,715	-37,953	-0,072	-0,028
-556,700	-138,388	-0,122	-0,010
-555,685	-68,479	-0,067	-0,019
-554,671	402,073	-0,012	-0,019
-553,656	-67,702	0,108	-0,031
-552,642	-52,452	-0,039	0,013
-551,627	295,809	0,057	0,077
-550,612	-180,728	0,047	0,001
-549,598	76,797	-0,054	0,042
-548,583	721,669	-0,044	-0,088
-547,569	49,560	0,070	0,049
-546,554	343,563	0,020	0,028
-545,539	-58,003	0,211	-0,068
-544,525	149,847	-0,023	-0,023
-543,510	-132,061	-0,108	-0,010
-542,496	-200,000	0,008	-0,036
-541,481	-200,000	0,015	-0,061
-540,466	-62,360	-0,111	0,034
-539,452	600,639	0,122	0,225
-538,437	12,515	0,029	0,016
-537,423	-103,896	0,161	-0,028
-536,408	-200,000	0,006	-0,040
-535,393	300,195	-0,027	-0,037
-534,379	-8,929	-0,157	-0,078
-533,364	13,438	0,079	-0,045
-532,350	-27,628	-0,033	0,014
-531,335	-15,386	0,057	0,027
-530,321	-200,000	0,024	-0,155
-529,306	800,000	-0,051	0,119
-528,291	-47,799	-0,078	0,028
-527,277	-54,098	0,009	-0,003
-526,262	-200,000	-0,018	-0,096
-525,248	537,961	0,130	-0,229
-524,233	-200,000	-0,014	-0,052
-523,218	325,814	0,008	-0,012
-522,204	317,662	-0,027	0,038
-521,189	323,181	0,042	-0,059
-520,175	800,000	0,038	-0,096
-519,160	21,078	-0,084	0,050
-518,145	800,000	0,021	0,069
-517,131	800,000	0,039	-0,086
-516,116	-112,426	-0,053	-0,008
-515,102	722,275	0,096	-0,191
-514,087	-200,000	0,012	-0,088
-513,072	-200,000	-0,024	-0,126
-512,058	800,000	0,088	-0,189
-511,043	203,651	0,099	-0,113
-510,029	800,000	0,026	0,061
-509,014	147,393	0,072	0,072
-507,999	528,611	-0,037	0,065
-506,985	-106,976	-0,146	0,024
-505,970	-66,100	0,088	0,026
-504,956	-200,000	0,001	-0,087
-503,941	91,353	0,060	0,050
-502,926	800,000	0,021	0,059
-501,912	-200,000	0,012	0,040
-500,897	160,246	-0,032	0,033
-499,883	180,237	-0,071	-0,077
-498,868	466,550	0,029	-0,048
-497,853	271,136	-0,065	-0,084
-496,839	-200,000	-0,020	-0,102
-495,824	-106,065	0,074	0,012
-494,810	254,737	-0,019	-0,024
-493,795	-159,292	-0,171	0,007
-492,781	168,308	0,062	-0,065
-491,766	-200,000	0,041	-0,196
-490,751	385,902	-0,060	0,092
-489,737	-200,000	0,004	0,096
-488,722	-104,604	0,066	-0,011
-487,708	800,000	0,036	0,094
-486,693	-184,519	-0,098	-0,001
-485,678	-160,587	-0,024	-0,001
-484,664	32,832	0,020	0,013
-483,649	800,000	-0,037	0,080
-482,635	800,000	-0,038	0,086
-481,620	86,996	0,071	0,058
-480,605	138,039	-0,006	-0,006
-479,591	-64,473	0,106	-0,032
-478,576	-200,000	-0,019	-0,157
-477,562	-89,893	-0,021	0,004
-476,547	800,000	0,035	0,090
-475,532	21,990	-0,035	-0,021
-474,518	-200,000	0,006	0,119
-473,503	-61,926	0,023	-0,007
-472,489	42,805	-0,042	-0,028
-471,474	245,737	0,070	0,087
-470,459	800,000	-0,059	-0,126
-469,445	574,108	-0,056	-0,101
-468,430	477,891	-0,029	0,049
-467,416	129,401	0,087	0,082
-466,401	-109,356	0,042	-0,006
-465,386	264,313	-0,017	-0,021
-464,372	60,867	0,060	0,044
-463,357	-143,809	-0,179	-0,012
-462,343	-200,000	0,013	-0,043
-461,328	-200,000	0,012	-0,047
-460,313	689,570	-0,035	-0,069
-459,299	-20,825	-0,137	0,061
-458,284	-123,909	-0,098	0,011
-457,270	462,400	0,076	0,126
-456,255	8,833	0,051	-0,028
-455,241	410,960	0,039	0,061
-454,226	800,000	-0,037	-0,117
-453,211	237,412	0,029	0,035
-452,197	-35,209	0,104	0,042
-451,182	-200,000	-0,006	0,061
-450,168	-38,973	0,096	-0,037
-449,153	-22,347	-0,090	0,040
-448,138	800,000	0,024	0,059
-447,124	-129,420	-0,040	0,004
-446,109	-35,740	0,042	0,017
-445,095	221,180	-0,041	0,048
-444,080	800,000	0,060	0,187
-443,065	-200,000	-0,015	-0,071
-442,051	-200,000	-0,013	0,087
-441,036	-85,533	0,072	-0,016
-440,022	-97,212	-0,040	0,008
-439,007	-200,000	-0,006	0,073
-437,992	-200,000	-0,006	-0,030
-436,978	-13,731	0,097	-0,046
-435,963	204,993	0,038	0,043
-434,949	-47,984	0,062	0,022
-433,934	-140,659	-0,091	-0,007
-432,919	-200,000	-0,025	-0,092
-431,905	-32,527	-0,021	-0,008
-430,890	-151,450	-0,118	-0,006
-429,876	-200,000	-0,006	0,030
-428,861	749,330	0,019	-0,038
-427,846	136,419	0,067	0,064
-426,832	-80,204	-0,200	0,049
-425,817	-200,000	0,008	-0,046
-424,803	800,000	-0,070	-0,189
-423,788	69,665	0,037	-0,028
-422,773	100,117	0,096	0,082
-421,759	307,895	0,069	0,095
-420,744	325,687	0,061	0,087
-419,730	-200,000	0,005	0,033
-418,715	-32,562	0,135	0,055
-417,701	59,811	-0,024	-0,018
-416,686	89,938	0,073	0,060
-415,671	-30,891	0,057	0,024
-414,657	54,130	-0,098	0,069
-413,642	-200,000	-0,003	0,010
-412,628	-39,153	-0,107	-0,041
-411,613	-40,911	0,066	-0,025
-410,598	-31,351	-0,101	-0,042
-409,584	-8,597	0,090	0,044
-408,569	-86,984	-0,068	0,015
-407,555	28,436	-0,081	0,050
-406,540	800,000	-0,024	-0,062
-405,525	33,622	-0,044	0,028
-404,511	800,000	-0,024	0,065
-403,496	-26,076	-0,035	-0,015
-402,482	-200,000	0,026	0,145
-401,467	800,000	-0,070	0,200
-400,452	333,797	-0,098	0,140
-399,438	226,776	-0,047	0,057
-398,423	75,363	0,077	0,060
-397,409	-118,127	-0,210	0,027
-396,394	-131,411	0,108	-0,010
-395,379	800,000	0,033	-0,079
-394,365	7,091	0,063	-0,035
-393,350	-159,431	0,084	0,003
-392,336	-200,000	0,014	-0,103
-391,321	-29,253	0,017	0,007
-390,306	-200,000	0,003	-0,081
-389,292	61,480	-0,089	-0,065
-388,277	-200,000	-0,007	-0,023
-387,263	800,000	0,045	0,099
-386,248	63,253	-0,067	0,050
-385,233	800,000	-0,013	-0,041
-384,219	-200,000	0,017	-0,130
-383,204	-108,597	-0,090	-0,014
-382,190	-87,457	0,104	-0,023
-381,175	53,210	-0,113	0,080
-380,160	728,149	0,045	0,088
-379,146	52,592	0,123	0,086
-378,131	146,457	-0,038	0,038
-377,117	800,000	0,026	-0,076
-376,102	800,000	-0,035	-0,079
-375,088	48,075	0,097	-0,066
-374,073	-162,554	0,150	0,005
-373,058	3,398	-0,017	-0,009
-372,044	696,653	-0,011	0,021
-371,029	-132,304	0,073	-0,007
-370,015	-149,139	0,042	0,002
-369,000	500,298	-0,032	0,055
-367,985	17,526	0,138	-0,081
-366,971	800,000	-0,020	-0,058
-365,956	-122,296	-0,047	0,006
-364,942	-200,000	0,002	0,010
-363,927	-94,592	0,202	0,040
-362,912	696,081	-0,041	0,079
-361,898	-43,869	-0,042	-0,015
-360,883	-152,661	-0,064	-0,003
-359,869	-200,000	-0,008	0,038
-358,854	-113,433	0,183	-0,026
-357,839	-200,000	-0,006	-0,079
-356,825	5,503	-0,036	0,020
-355,810	-200,000	-0,029	0,096
-354,796	-65,916	-0,114	0,033
-353,781	-169,737	0,061	-0,002
-352,766	-57,015	-0,051	0,016
-351,752	800,000	-0,032	0,079
-350,737	-117,316	0,058	0,008
-349,723	-200,000	0,002	0,105
-348,708	-95,440	-0,122	0,024
-347,693	-200,000	-0,008	-0,064
-346,679	380,186	0,110	-0,165
-345,664	-94,143	0,033	0,007
-344,650	623,881	0,009	0,017
-343,635	-68,230	-0,055	0,016
-342,620	261,015	-0,057	0,073
-341,606	146,438	0,060	0,059
-340,591	61,582	-0,111	0,081
-339,577	-98,878	0,067	-0,012
-338,562	-93,639	-0,041	0,008
-337,548	177,847	0,111	0,119
-336,533	576,025	0,017	0,030
-335,518	480,281	0,035	0,058
-334,504	-200,000	-0,029	0,177
-333,489	-200,000	0,031	0,184
-332,475	-65,150	0,121	-0,036
-331,460	334,993	0,107	-0,152
-330,445	668,345	0,090	-0,172
-329,431	800,000	-0,023	-0,059
-328,416	-200,000	0,022	0,086
-327,402	651,841	-0,039	0,073
-326,387	-78,804	0,045	0,011
-325,372	-118,281	0,049	-0,006
-324,358	800,000	0,057	-0,154
-323,343	-200,000	0,002	-0,015
-322,329	-109,154	0,089	-0,014
-321,314	800,000	0,069	0,200
-320,299	-76,342	0,095	0,024
-319,285	-200,000	0,020	0,097
-318,270	-66,333	-0,063	-0,018
-317,256	-154,917	0,160	-0,008
-316,241	-46,878	-0,187	-0,067
-315,226	-88,210	0,127	0,028
-314,212	523,575	-0,023	0,040
-313,197	249,461	0,065	0,081
-312,183	-200,000	-0,018	-0,060
-311,168	-200,000	0,003	-0,077
-310,153	528,341	-0,044	-0,076
-309,139	-142,294	-0,151	0,011
-308,124	-200,000	0,026	0,114
-307,110	-200,000	0,026	0,102
-306,095	-31,366	0,094	0,039
-305,080	240,331	-0,049	-0,059
-304,066	65,111	-0,097	-0,071
-303,051	99,316	0,043	-0,036
-302,037	4,096	0,105	0,056
-301,022	93,579	0,083	0,069
-300,008	-173,253	-0,136	-0,003
-298,993	-1,100	0,098	0,050
-297,978	-79,831	0,030	0,007
-296,964	217,103	0,080	-0,093
-295,949	220,897	0,111	0,130
-294,935	-34,127	-0,038	-0,015
-293,920	-77,708	-0,021	0,005
-292,905	281,826	0,050	0,065
-291,891	-200,000	-0,012	0,136
-290,876	-99,745	0,013	-0,002
-289,862	292,841	0,066	0,089
-288,847	-200,000	-0,026	-0,089
-287,832	-106,069	-0,108	0,018
-286,818	14,741	0,025	0,014
-285,803	779,693	0,021	-0,043
-284,789	-153,016	-0,052	0,003
-283,774	-52,947	0,034	0,011
-282,759	800,000	0,097	-0,203
-281,745	-173,773	0,078	0,002
-280,730	787,693	0,018	-0,036
-279,716	-200,000	-0,003	-0,038
-278,701	331,830	-0,059	0,083
-277,686	-200,000	0,034	0,127
-276,672	-28,460	0,025	-0,011
-275,657	-200,000	0,013	-0,083
-274,643	42,051	-0,156	-0,104
-273,628	7,100	0,079	0,043
-272,613	62,929	-0,070	-0,051
-271,599	-121,106	0,101	0,012
-270,584	119,470	0,027	0,025
-269,570	-83,158	-0,042	0,010
-268,555	800,000	0,037	0,111
-267,540	203,719	-0,036	-0,041
-266,526	800,000	-0,031	-0,092
-265,511	-24,346	0,059	-0,026
-264,497	-132,424	0,057	0,005
-263,482	42,422	0,086	0,057
-262,467	727,492	-0,003	-0,006
-261,453	-39,958	0,063	0,024
-260,438	800,000	0,032	-0,077
-259,424	-200,000	-0,025	-0,094
-258,409	-129,979	-0,048	-0,005
-257,395	129,386	-0,114	0,106
-256,380	-107,144	0,159	-0,025
-255,365	-200,000	0,015	-0,056
-254,351	-200,000	-0,001	0,008
-253,336	-143,033	-0,199	0,014
-252,322	560,035	0,067	-0,119
-251,307	114,133	-0,067	-0,060
-250,292	-200,000	-0,000	0,076
-249,278	-200,000	-0,016	0,087
-248,263	-200,000	0,011	0,052
-247,249	750,785	-0,078	0,155
-246,234	-200,000	-0,004	-0,108
-245,219	280,397	0,076	0,100
-244,205	-16,524	0,094	-0,043
-243,190	-27,481	0,113	0,048
-242,176	800,000	0,043	0,100
-241,161	69,275	0,172	0,129
-240,146	550,871	-0,053	0,094
-239,132	-90,862	-0,086	-0,018
-238,117	346,352	0,063	-0,091
-237,103	-69,283	-0,088	0,025
-236,088	-53,932	0,092	0,030
-235,073	17,197	0,056	-0,033
-234,059	-56,066	0,059	0,019
-233,044	-60,851	-0,054	0,017
-232,030	11,070	0,015	0,008
-231,015	-123,081	0,080	-0,009
-230,000	-200,000	-0,004	-0,079
-228,986	-200,000	0,015	-0,090
-227,971	-34,522	0,019	-0,007
-226,957	-149,950	0,151	0,008
-225,942	-143,708	-0,088	-0,006
-224,927	242,369	0,073	-0,090
-223,913	96,545	-0,044	0,037
-222,898	-200,000	-0,005	0,114
-221,884	11,462	0,079	0,044
-220,869	-200,000	-0,017	-0,095
-219,855	32,997	0,105	0,066
-218,840	35,032	-0,062	0,039
-217,825	-200,000	0,005	-0,055
-216,811	316,941	0,060	-0,083
-215,796	136,215	-0,132	-0,126
-214,782	-128,073	0,103	0,011
-213,767	290,084	-0,033	0,044
-212,752	-200,000	-0,004	0,118
-211,738	800,000	-0,032	0,092
-210,723	168,401	-0,040	-0,042
-209,709	-40,533	-0,167	-0,063
-208,694	668,032	0,023	0,043
-207,679	-200,000	-0,004	-0,048
-206,665	-110,011	-0,107	0,016
-205,650	-59,577	0,160	0,050
-204,636	12,050	0,054	-0,030
-203,621	138,449	0,131	-0,126
-202,606	49,473	-0,128	0,088
-201,592	-186,383	-0,175	-0,002
-200,577	-200,000	-0,003	-0,037
-199,563	72,407	-0,143	-0,108
-198,548	-147,960	0,126	-0,008
-197,533	-150,039	-0,094	0,005
-196,519	77,603	-0,113	-0,088
-195,504	-200,000	-0,039	-0,133
-194,490	800,000	-0,032	-0,100
-193,475	-78,953	-0,156	-0,038
-192,460	406,230	-0,023	0,036
-191,446	46,145	0,133	-0,089
-190,431	-28,856	0,046	0,019
-189,417	-200,000	0,007	0,025
-188,402	800,000	0,022	-0,046
-187,387	499,091	0,006	0,010
-186,373	-79,507	-0,045	-0,011
-185,358	800,000	-0,016	-0,035
-184,344	406,329	-0,038	-0,059
-183,329	281,413	-0,027	0,035
-182,315	-152,894	-0,103	0,005
-181,300	-9,171	0,117	0,057
-180,285	43,889	-0,060	0,040
-179,271	307,249	0,077	-0,104
-178,256	800,000	-0,017	-0,035
-177,242	458,954	0,061	0,100
-176,227	74,460	-0,112	0,085
-175,212	-80,450	0,072	-0,017
-174,198	-200,000	0,004	0,042
-173,183	23,604	0,006	0,004
-172,169	-200,000	-0,015	-0,163
-171,154	13,175	0,119	-0,067
-170,139	800,000	-0,026	-0,063
-169,125	213,064	0,045	-0,052
-168,110	-150,523	-0,025	-0,001
-167,096	170,656	0,072	0,076
-166,081	162,518	-0,066	-0,067
-165,066	-103,757	-0,131	-0,022
-164,052	800,000	0,060	-0,152
-163,037	800,000	-0,012	-0,025
-162,023	-182,488	-0,030	-0,000
-161,008	800,000	0,018	-0,038
-159,993	441,482	0,079	0,126
-158,979	22,990	-0,119	-0,071
-157,964	-200,000	0,008	-0,126
-156,950	-85,413	-0,172	-0,039
-155,935	367,638	-0,053	0,078
-154,920	539,677	0,039	0,068
-153,906	-123,728	0,042	-0,005
-152,891	-165,632	-0,068	-0,002
-151,877	36,998	-0,036	0,023
-150,862	-75,422	-0,101	-0,026
-149,847	-98,535	-0,041	-0,008
-148,833	774,996	-0,046	-0,093
-147,818	542,986	0,032	0,055
-146,804	5,464	0,083	0,045
-145,789	7,888	-0,071	0,039
-144,775	-24,375	-0,085	0,037
-143,760	187,458	0,168	0,183
-142,745	-200,000	0,041	-0,188
-141,731	121,911	-0,074	-0,068
-140,716	-4,925	0,041	-0,020
-139,702	213,539	0,113	0,130
-138,687	-144,261	-0,062	0,004
-137,672	-22,507	0,075	0,033
-136,658	-200,000	-0,015	-0,173
-135,643	573,320	0,077	-0,138
-134,629	-108,024	-0,016	0,003
-133,614	173,961	0,029	-0,030
-132,599	240,929	-0,049	-0,060
-131,585	-200,000	0,000	-0,058
-130,570	-200,000	0,041	-0,222
-129,556	37,096	-0,084	-0,054
-128,541	5,891	0,071	0,038
-127,526	-49,529	0,046	0,016
-126,512	800,000	0,013	-0,032
-125,497	53,338	0,040	0,028
-124,483	438,009	0,116	-0,185
-123,468	-165,552	0,106	-0,003
-122,453	104,871	-0,026	0,022
-121,439	-200,000	-0,003	0,089
-120,424	474,655	0,084	0,138
-119,410	414,280	0,028	-0,044
-118,395	110,346	0,141	0,123
-117,380	-125,217	0,095	0,010
-116,366	800,000	0,022	0,051
-115,351	268,472	0,037	-0,048
-114,337	800,000	-0,020	-0,040
-113,322	800,000	-0,032	-0,100
-112,307	50,991	0,065	-0,045
-111,293	-200,000	0,042	0,174
-110,278	485,778	0,063	0,105
-109,264	66,399	-0,052	-0,039
-108,249	49,960	-0,069	-0,047
-107,234	-117,506	-0,089	-0,012
-106,220	61,045	-0,004	0,003
-105,205	224,751	-0,091	-0,107
-104,191	606,336	-0,018	0,033
-103,176	800,000	0,033	0,073
-102,162	800,000	-0,027	-0,086
-101,147	-200,000	-0,008	-0,078
-100,132	-105,391	-0,101	-0,017
-99,118	-7,469	-0,098	0,048
-98,103	-200,000	0,036	-0,161
-97,089	-172,817	-0,060	0,001
-96,074	-200,000	0,071	-0,000
-95,059	-61,259	-0,073	-0,022
-94,045	-200,000	0,011	-0,040
-93,030	-200,000	-0,020	0,084
-92,016	800,000	-0,084	0,202
-91,001	85,036	0,090	-0,071
-89,986	800,000	0,053	0,166
-88,972	338,143	-0,025	0,036
-87,957	800,000	0,029	0,073
-86,943	256,698	-0,070	0,087
-85,928	50,354	-0,095	-0,065
-84,913	-177,990	-0,125	-0,002
-83,899	474,529	-0,040	0,066
-82,884	-106,661	0,046	0,007
-81,870	97,056	0,013	0,011
-80,855	-28,753	-0,128	0,053
-79,840	-200,000	-0,010	-0,056
-78,826	327,744	0,121	0,168
-77,811	58,788	-0,087	0,062
-76,797	-200,000	-0,029	-0,111
-75,782	-72,277	0,039	-0,011
-74,767	22,503	-0,089	0,053
-73,753	218,751	0,065	0,075
-72,738	-200,000	-0,002	-0,025
-71,724	-101,926	0,064	-0,011
-70,709	303,938	0,133	-0,180
-69,694	130,852	-0,138	-0,129
-68,680	-150,522	0,137	0,007
-67,665	-107,599	0,077	-0,012
-66,651	71,385	-0,032	0,024
-65,636	-36,137	0,058	-0,023
-64,622	470,894	-0,012	-0,020
-63,607	70,810	-0,097	0,073
-62,592	800,000	-0,022	-0,056
-61,578	-200,000	0,009	-0,038
-60,563	-145,980	0,081	-0,005
-59,549	800,000	-0,046	0,110
-58,534	-109,828	-1,324	-0,200
-57,519	563,484	-0,881	-1,555
-56,505	-200,000	-0,925	-4,341
-55,490	-2,570	0,504	-0,255
-54,476	800,000	5,004	11,682
-53,461	-200,000	13,829	252,616
-52,446	-200,000	691,269	2264,725
-51,432	604,686	1622,189	2943,107
-50,417	118,701	1633,268	1463,694
-49,403	74,097	1287,656	979,735
-48,388	37,771	1023,562	658,360
-47,373	24,144	981,633	586,569
-46,359	23,391	971,278	577,891
-45,344	22,369	967,045	572,011
-44,330	22,368	965,357	570,985
-43,315	22,225	963,927	569,651
-42,300	22,200	962,888	568,932
-41,286	22,174	962,104	568,361
-40,271	22,152	960,981	567,604
-39,257	22,180	960,082	567,142
-38,242	22,143	959,342	566,562
-37,227	22,172	958,501	566,138
-36,213	22,145	957,450	565,405
-35,198	22,155	956,643	564,940
-34,184	22,158	956,090	564,602
-33,169	22,133	954,969	563,835
-32,154	22,189	954,130	563,498
-31,140	22,191	953,053	562,848
-30,125	22,206	952,519	562,557
-29,111	22,170	951,536	561,838
-28,096	22,186	951,048	561,580
-27,082	22,190	950,341	561,153
-26,067	22,172	949,417	560,526
-25,052	22,160	948,759	560,078
-24,038	22,165	948,071	559,665
-23,023	22,184	947,461	559,342
-22,009	22,236	946,832	559,118
-20,994	22,236	946,084	558,652
-19,979	22,159	945,554	558,071
-18,965	22,148	944,954	557,661
-17,950	22,137	944,369	557,256
-16,936	22,143	943,573	556,786
-15,921	22,142	942,902	556,363
-14,906	22,128	942,092	555,821
-13,892	22,038	941,615	555,230
-12,877	22,055	940,887	554,832
-11,863	22,011	940,404	554,385
-10,848	22,051	939,843	554,162
-9,833	22,202	939,295	554,294
-8,819	22,115	938,799	553,703
-7,804	22,084	938,193	553,225
-6,790	22,008	937,695	552,669
-5,775	22,048	937,013	552,371
-4,760	22,113	936,236	552,099
-3,746	22,084	935,712	551,673
-2,731	21,909	934,985	550,672
-1,717	21,898	934,117	550,104
-0,702	21,894	933,666	549,803
0,313	21,669	933,162	549,627
1,327	24,150	930,759	555,965
2,342	31,762	808,584	503,618
3,356	26,397	508,707	307,659
4,371	1,490	373,343	194,104
5,386	-1,483	356,002	181,427
6,400	-2,706	350,041	176,898
7,415	-3,038	347,518	175,208
8,429	-2,841	346,009	174,667
9,444	-2,995	345,222	174,071
10,459	-2,975	344,617	173,774
11,473	-2,878	343,749	173,436
12,488	-2,943	343,315	173,125
13,502	-2,949	342,633	172,758
14,517	-3,095	342,402	172,454
15,531	-3,048	342,088	172,336
16,546	-2,760	341,482	172,354
17,561	-2,970	341,140	171,919
18,575	-2,867	340,662	171,784
19,590	-2,986	340,203	171,397
20,604	-2,712	339,915	171,559
21,619	-2,767	339,547	171,294
22,634	-2,895	339,274	170,990
23,648	-2,956	338,806	170,668
24,663	-2,895	338,551	170,596
25,677	-2,916	338,254	170,406
26,692	-2,838	337,870	170,289
27,707	-2,767	337,647	170,244
28,721	-2,849	337,402	170,010
29,736	-2,776	336,928	169,840
30,750	-2,760	336,748	169,753
31,765	-2,944	336,580	169,440
32,780	-2,929	336,175	169,238
33,794	-2,888	335,789	169,076
34,809	-2,863	335,537	168,963
35,823	-2,925	335,332	168,774
36,838	-3,085	335,006	168,409
37,853	-2,951	334,781	168,436
38,867	-2,819	334,415	168,389
39,882	-3,030	334,346	168,096
40,896	-2,904	334,020	168,062
41,911	-2,931	333,621	167,815
42,926	-2,906	333,409	167,723
43,940	-2,971	333,101	167,478
44,955	-2,840	332,811	167,468
45,969	-2,747	332,416	167,359
46,984	-2,758	332,337	167,293
47,999	-2,791	332,104	167,122
49,013	-2,787	331,902	167,010
50,028	-2,794	331,636	166,854
51,042	-2,901	331,300	166,548
52,057	-3,019	331,042	166,270
53,071	-2,861	330,595	166,209
54,086	-2,936	330,595	166,110
55,101	-2,884	330,317	166,014
56,115	-2,797	329,964	165,920
57,130	-2,854	329,785	165,751
58,144	-2,788	329,333	165,584
59,159	-2,871	329,140	165,378
60,174	-2,886	328,847	165,200
61,188	-2,888	328,673	165,094
62,203	-2,800	328,328	165,006
63,217	-2,909	328,122	164,765
64,232	-2,966	327,973	164,611
65,247	-2,903	327,591	164,475
66,261	-2,775	327,197	164,407
67,276	-2,971	326,941	164,044
68,290	-2,820	326,846	164,151
69,305	-2,785	326,571	164,038
70,320	-2,774	326,226	163,862
71,334	-2,880	326,070	163,650
72,349	-2,728	325,790	163,665
73,363	-2,822	325,558	163,429
74,378	-2,819	325,173	163,224
75,393	-2,909	325,133	163,090
76,407	-2,773	324,836	163,077
77,422	-2,820	324,618	162,901
78,436	-2,771	324,376	162,820
79,451	-2,910	324,116	162,520
80,466	-2,777	323,709	162,449
81,480	-2,797	323,466	162,291
82,495	-2,722	323,218	162,235
83,509	-2,827	323,140	162,064
84,524	-2,774	322,931	162,004
85,539	-2,778	322,509	161,774
86,553	-2,735	322,342	161,722
87,568	-2,837	322,251	161,550
88,582	-2,888	321,910	161,309
89,597	-2,791	321,532	161,211
90,611	-2,786	321,571	161,222
91,626	-2,824	321,220	160,990
92,641	-2,898	321,097	160,832
93,655	-2,756	320,863	160,857
94,670	-2,705	320,461	160,698
95,684	-2,859	320,237	160,401
96,699	-2,798	320,087	160,379
97,714	-2,682	319,844	160,370
98,728	-2,930	319,630	159,977
99,743	-2,888	319,308	159,848
100,757	-2,724	319,065	159,891
101,772	-2,959	318,943	159,559
102,787	-2,771	318,578	159,568
103,801	-2,981	318,411	159,241
104,816	-2,870	318,243	159,264
105,830	-2,829	317,897	159,120
106,845	-2,781	317,693	159,056
107,860	-2,890	317,546	158,850
108,874	-2,830	317,253	158,754
109,889	-2,796	316,939	158,620
110,903	-2,826	316,737	158,472
111,918	-2,892	316,710	158,373
112,933	-2,763	316,349	158,318
113,947	-2,853	316,193	158,129
114,962	-2,773	315,894	158,051
115,976	-2,823	315,698	157,885
116,991	-2,798	315,555	157,827
118,006	-2,916	315,253	157,534
119,020	-2,851	315,155	157,541
120,035	-2,887	314,957	157,389
121,049	-2,722	314,686	157,418
122,064	-2,877	314,613	157,200
123,079	-2,821	314,216	157,048
124,093	-2,687	313,887	157,013
125,108	-2,880	313,776	156,737
126,122	-2,939	313,605	156,575
127,137	-2,670	313,321	156,706
128,151	-2,845	313,123	156,406
129,166	-2,791	312,832	156,305
130,181	-2,843	312,648	156,143
131,195	-2,724	312,261	156,063
132,210	-2,706	312,135	156,005
133,224	-2,814	311,795	155,706
134,239	-2,885	311,753	155,596
135,254	-2,829	311,402	155,466
136,268	-2,780	311,117	155,362
137,283	-2,673	310,941	155,374
138,297	-2,800	310,744	155,127
139,312	-2,864	310,614	154,981
140,327	-2,979	310,503	154,789
141,341	-2,710	310,102	154,861
142,356	-2,815	309,938	154,653
143,370	-2,821	309,702	154,516
144,385	-2,684	309,390	154,490
145,400	-2,862	309,273	154,231
146,414	-2,629	308,999	154,325
147,429	-2,764	308,806	154,073
148,443	-2,795	308,554	153,902
149,458	-2,804	308,466	153,834
150,473	-2,835	308,350	153,731
151,487	-2,793	307,906	153,539
152,502	-2,695	307,786	153,569
153,516	-2,738	307,613	153,423
154,531	-2,696	307,230	153,263
155,546	-2,640	306,993	153,190
156,560	-2,656	306,851	153,088
157,575	-2,741	306,614	152,867
158,589	-2,660	306,342	152,803
159,604	-2,727	306,221	152,659
160,619	-2,632	306,025	152,646
161,633	-2,545	305,828	152,625
162,648	-2,827	305,710	152,260
163,662	-2,845	305,416	152,081
164,677	-2,663	305,192	152,144
165,692	-2,672	305,085	152,069
166,706	-2,593	304,722	151,956
167,721	-2,725	304,809	151,849
168,735	-2,710	304,483	151,689
169,750	-2,633	304,219	151,623
170,764	-2,706	304,083	151,467
171,779	-2,779	304,022	151,346
172,794	-2,786	303,673	151,152
173,808	-2,663	303,383	151,121
174,823	-2,703	303,102	150,927
175,837	-2,669	302,897	150,846
176,852	-2,961	302,941	150,554
177,867	-2,830	302,612	150,512
178,881	-2,587	302,449	150,667
179,896	-2,840	302,317	150,328
180,910	-2,765	301,980	150,224
181,925	-2,805	301,738	150,049
182,940	-2,645	301,506	150,084
183,954	-2,819	301,427	149,853
184,969	-2,641	301,193	149,906
185,983	-2,507	300,952	149,909
186,998	-2,632	300,804	149,695
188,013	-2,640	300,682	149,613
189,027	-2,729	300,361	149,348
190,042	-2,654	300,122	149,293
191,056	-2,713	299,939	149,128
192,071	-2,763	299,766	148,978
193,086	-2,721	299,523	148,887
194,100	-2,719	299,337	148,783
195,115	-2,638	299,046	148,707
196,129	-2,509	298,827	148,716
197,144	-2,561	298,627	148,551
198,159	-2,679	298,444	148,327
199,173	-2,749	298,227	148,135
200,188	-2,704	297,954	148,031
201,202	-2,728	297,960	147,998
202,217	-2,709	297,702	147,874
203,232	-2,752	297,496	147,716
204,246	-2,523	297,211	147,792
205,261	-2,682	297,056	147,541
206,275	-2,719	296,921	147,424
207,290	-2,610	296,598	147,360
208,304	-2,607	296,510	147,306
209,319	-2,635	296,249	147,135
210,334	-2,655	296,070	147,014
211,348	-2,612	295,733	146,876
212,363	-2,626	295,742	146,854
213,377	-2,767	295,487	146,573
214,392	-2,655	295,338	146,598
215,407	-2,594	295,113	146,534
216,421	-2,907	294,943	146,124
217,436	-2,739	294,626	146,121
218,450	-2,879	294,498	145,905
219,465	-2,794	294,237	145,847
220,480	-2,666	294,148	145,918
221,494	-2,589	293,865	145,841
222,509	-2,705	293,798	145,679
223,523	-2,590	293,501	145,633
224,538	-2,675	293,375	145,473
225,553	-2,845	293,171	145,191
226,567	-2,750	292,926	145,150
227,582	-2,649	292,758	145,154
228,596	-2,798	292,658	144,945
229,611	-2,786	292,450	144,841
230,626	-2,691	292,181	144,788
231,640	-2,732	291,950	144,620
232,655	-2,643	291,827	144,634
233,669	-2,854	291,689	144,345
234,684	-2,554	291,371	144,470
235,699	-2,655	291,140	144,244
236,713	-2,801	291,139	144,086
237,728	-2,622	290,916	144,140
238,742	-2,658	290,554	143,912
239,757	-2,547	290,388	143,926
240,772	-2,729	290,340	143,710
241,786	-2,698	290,069	143,593
242,801	-2,702	289,862	143,475
243,815	-2,758	289,791	143,372
244,830	-2,574	289,479	143,385
245,844	-2,714	289,402	143,197
246,859	-2,728	289,115	143,028
247,874	-2,559	288,792	143,021
248,888	-2,677	288,740	142,867
249,903	-2,924	288,741	142,614
250,917	-2,701	288,448	142,674
251,932	-2,646	288,056	142,521
252,947	-2,990	287,777	142,035
253,961	-3,534	287,330	141,275
254,976	-4,322	286,917	140,296
255,990	-4,179	286,732	140,331
257,005	-3,230	287,165	141,451
258,020	-0,793	287,960	144,196
259,034	0,725	288,437	145,896
260,049	1,258	288,350	146,357
261,063	1,630	288,346	146,703
262,078	1,889	288,202	146,868
263,093	2,106	288,193	147,060
264,107	2,346	288,151	147,258
265,122	2,570	288,043	147,406
266,136	2,608	287,849	147,331
267,151	2,723	287,736	147,370
268,166	2,816	287,421	147,286
269,180	2,559	287,337	146,981
270,195	2,726	287,049	146,983
271,209	2,593	286,986	146,809
272,224	2,673	286,596	146,674
273,239	2,319	286,692	146,368
274,253	2,428	286,333	146,277
275,268	2,618	286,042	146,298
276,282	2,575	285,849	146,145
277,297	2,396	285,688	145,877
278,312	2,466	285,518	145,844
279,326	2,333	285,451	145,671
280,341	2,577	285,201	145,763
281,355	2,503	284,935	145,544
282,370	2,594	284,727	145,512
283,384	2,682	284,414	145,423
284,399	2,576	284,380	145,291
285,414	2,431	284,185	145,040
286,428	2,325	283,981	144,822
287,443	2,512	283,786	144,888
288,457	2,354	283,476	144,566
289,472	2,326	283,325	144,450
290,487	2,271	283,225	144,334
291,501	2,201	283,074	144,177
292,516	2,466	282,793	144,272
293,530	2,222	282,696	143,979
294,545	2,247	282,489	143,885
295,560	2,330	282,395	143,902
296,574	2,139	282,195	143,607
297,589	2,381	281,925	143,685
298,603	2,236	281,851	143,498
299,618	2,250	281,601	143,371
300,633	2,240	281,397	143,245
301,647	2,289	281,216	143,186
302,662	2,306	281,086	143,123
303,676	2,340	280,916	143,056
304,691	2,492	280,758	143,106
305,706	2,542	280,591	143,055
306,720	2,624	280,386	143,015
307,735	2,565	280,245	142,874
308,749	2,390	280,157	142,653
309,764	2,544	279,830	142,618
310,779	2,579	279,697	142,570
311,793	2,502	279,350	142,309
312,808	2,562	279,125	142,237
313,822	2,527	279,016	142,136
314,837	2,460	278,833	141,968
315,852	2,402	278,805	141,887
316,866	2,370	278,546	141,713
317,881	2,512	278,308	141,711
318,895	2,380	278,225	141,533
319,910	2,541	277,992	141,552
320,925	2,396	277,822	141,317
321,939	2,450	277,880	141,385
322,954	2,638	277,474	141,341
323,968	2,550	277,426	141,222
324,983	2,539	277,260	141,114
325,997	2,572	277,143	141,073
327,012	2,523	276,907	140,894
328,027	2,577	276,694	140,824
329,041	2,464	276,618	140,668
330,056	2,465	276,328	140,509
331,070	2,722	276,266	140,702
332,085	2,463	275,996	140,313
333,100	2,525	275,843	140,279
334,114	2,630	275,559	140,220
335,129	2,321	275,479	139,882
336,143	2,550	275,169	139,922
337,158	2,491	275,106	139,824
338,173	2,641	274,975	139,883
339,187	2,660	274,730	139,763
340,202	2,617	274,533	139,610
341,216	2,596	274,296	139,459
342,231	2,729	274,043	139,439
343,246	2,716	274,033	139,410
344,260	2,723	273,861	139,316
345,275	2,780	273,671	139,259
346,289	2,685	273,556	139,102
347,304	2,568	273,234	138,819
348,319	2,833	273,119	138,989
349,333	2,522	273,024	138,646
350,348	2,668	272,751	138,627
351,362	2,609	272,577	138,473
352,377	2,575	272,472	138,377
353,392	2,545	272,198	138,197
354,406	2,768	272,018	138,296
355,421	192,009	1347,697	1430,289
356,435	155,033	1478,854	1430,440
