DTS Sentinel unit serial number:	SN410029Multiplexer serial number:	ORYXHardware model number:	OX2-SRSoftware version number:	ORYX F/W v4,00 Oryx Data Collector v3.7.2.0data status	okinstallation	B4 Nyhavnadifferential loss correction	single-endedforward channel	channel 2reverse channel	N/Adate	2023/12/18time	14:45:13forward acquisition time	300,00reverse acquisition time	0,00gamma	499,1914k internal	0,3201k external	0,3201temperature offset calibration	1,0000default loss term (dB/km)	0,3820temperature slope calibration	1,0000multiplexer offset coefficient	1,0000multiplexer slope coefficient	1,0000fibre end	0,00T internal ref (°C)	8,43T ext. ref 1 (°C)	7,29T ext. ref 2 (°C)	7,36length (m)	temperature (°C)	Stokes	anti-Stokes-744,400	-74,563	0,336	0,087
-743,385	7,807	-0,478	-0,260
-742,371	511,885	0,125	0,212
-741,356	-37,035	-0,527	-0,204
-740,342	-30,131	0,224	0,092
-739,327	-95,742	-0,588	-0,113
-738,312	3,270	0,272	0,143
-737,298	-69,266	-0,536	-0,149
-736,283	-173,645	0,325	-0,007
-735,269	-88,161	-0,466	-0,101
-734,254	-58,723	0,198	0,062
-733,239	102,301	-0,548	-0,465
-732,225	-22,891	0,287	0,125
-731,210	-200,000	0,014	-0,082
-730,196	404,339	-0,146	-0,225
-729,181	557,026	0,028	-0,049
-728,167	-200,000	-0,004	-0,013
-727,152	-67,290	-0,145	-0,041
-726,137	486,939	-0,047	0,078
-725,123	-168,841	-0,125	0,003
-724,108	-200,000	-0,001	0,026
-723,094	124,681	-0,021	0,019
-722,079	-39,705	-0,158	-0,060
-721,064	37,172	0,025	-0,016
-720,050	527,654	0,039	0,067
-719,035	-200,000	0,000	-0,056
-718,021	-200,000	-0,001	0,128
-717,006	44,709	-0,018	-0,012
-715,991	485,278	-0,031	-0,052
-714,977	-200,000	-0,013	-0,146
-713,962	-200,000	0,009	0,084
-712,948	-174,462	0,064	0,001
-711,933	-11,203	0,084	-0,040
-710,918	233,359	-0,076	0,091
-709,904	277,695	0,078	-0,101
-708,889	9,969	-0,093	-0,051
-707,875	-200,000	0,006	-0,054
-706,860	90,705	-0,011	-0,009
-705,845	-130,384	0,109	0,011
-704,831	800,000	-0,003	-0,007
-703,816	-56,909	-0,100	0,032
-702,802	-26,199	-0,118	0,050
-701,787	127,199	-0,018	0,017
-700,772	75,868	-0,071	0,054
-699,758	-200,000	0,020	0,137
-698,743	55,277	0,104	0,073
-697,729	800,000	-0,071	0,163
-696,714	476,686	0,072	0,118
-695,699	-37,608	0,144	0,055
-694,685	4,584	-0,070	-0,037
-693,670	265,158	-0,041	0,052
-692,656	-116,324	0,082	0,011
-691,641	136,069	0,048	0,045
-690,627	-200,000	-0,020	0,068
-689,612	-23,326	-0,153	0,066
-688,597	800,000	0,033	0,074
-687,583	-200,000	-0,024	-0,080
-686,568	-200,000	0,031	-0,106
-685,554	-200,000	-0,011	-0,101
-684,539	32,411	0,084	0,053
-683,524	-7,229	-0,185	0,091
-682,510	178,337	-0,050	0,053
-681,495	800,000	-0,070	0,145
-680,481	800,000	0,027	-0,056
-679,466	800,000	0,038	0,098
-678,451	325,835	-0,058	-0,081
-677,437	800,000	0,028	-0,088
-676,422	17,328	-0,151	-0,087
-675,408	-200,000	0,018	0,076
-674,393	178,550	0,082	0,087
-673,378	-98,055	-0,155	-0,029
-672,364	511,192	-0,036	0,061
-671,349	-34,321	-0,059	0,023
-670,335	-111,125	0,091	-0,013
-669,320	-200,000	-0,047	-0,152
-668,305	-200,000	-0,003	0,093
-667,291	-46,316	-0,143	-0,051
-666,276	-200,000	0,009	0,070
-665,262	-109,340	-0,162	-0,025
-664,247	-33,341	-0,067	0,027
-663,232	95,684	0,022	-0,018
-662,218	-79,936	0,108	-0,026
-661,203	300,354	0,040	-0,054
-660,189	-47,050	-0,213	0,075
-659,174	-34,115	-0,044	-0,018
-658,159	6,943	-0,149	-0,080
-657,145	518,311	-0,011	0,020
-656,130	-92,231	0,117	-0,024
-655,116	794,412	0,053	-0,106
-654,101	121,875	0,163	0,148
-653,086	-134,053	-0,081	-0,007
-652,072	-200,000	-0,002	-0,060
-651,057	-200,000	-0,028	-0,095
-650,043	-54,230	-0,153	0,050
-649,028	-44,241	0,067	0,024
-648,014	-200,000	0,053	0,172
-646,999	-200,000	-0,013	-0,097
-645,984	-58,324	0,033	0,010
-644,970	490,499	-0,025	-0,041
-643,955	-2,989	-0,099	-0,050
-642,941	800,000	0,050	-0,122
-641,926	-26,485	0,055	-0,023
-640,911	800,000	-0,026	0,056
-639,897	-200,000	0,021	0,090
-638,882	800,000	-0,058	-0,133
-637,868	-106,092	0,069	0,011
-636,853	20,380	-0,057	-0,033
-635,838	800,000	-0,004	0,010
-634,824	374,921	-0,031	-0,047
-633,809	-54,508	-0,062	-0,020
-632,795	-200,000	0,002	0,043
-631,780	-79,455	-0,091	-0,022
-630,765	-141,565	0,045	-0,003
-629,751	24,562	-0,062	-0,037
-628,736	172,629	-0,054	-0,057
-627,722	211,715	-0,039	0,044
-626,707	800,000	-0,010	0,020
-625,692	-200,000	0,013	0,119
-624,678	-200,000	-0,023	0,129
-623,663	-111,909	-0,135	-0,020
-622,649	-63,140	0,167	-0,049
-621,634	59,278	0,022	-0,016
-620,619	-18,767	-0,122	-0,055
-619,605	-200,000	0,004	-0,022
-618,590	-200,000	-0,014	-0,086
-617,576	65,282	0,026	0,019
-616,561	-30,788	0,105	0,043
-615,546	-47,846	0,063	0,022
-614,532	800,000	-0,064	-0,147
-613,517	723,585	0,041	0,080
-612,503	109,800	-0,087	-0,075
-611,488	115,115	-0,086	0,076
-610,474	-43,255	-0,045	-0,017
-609,459	387,530	0,072	0,109
-608,444	-76,739	0,085	0,021
-607,430	800,000	-0,018	-0,049
-606,415	51,804	-0,136	0,093
-605,401	532,748	0,038	-0,066
-604,386	-200,000	0,007	-0,026
-603,371	198,235	-0,059	0,065
-602,357	11,216	0,046	0,025
-601,342	120,948	-0,117	-0,105
-600,328	39,682	-0,078	-0,050
-599,313	582,633	-0,042	-0,075
-598,298	-200,000	0,016	-0,139
-597,284	111,019	0,102	-0,089
-596,269	112,993	-0,008	0,007
-595,255	-200,000	0,006	-0,046
-594,240	143,757	0,015	0,014
-593,225	74,207	0,080	-0,060
-592,211	-200,000	0,017	-0,091
-591,196	-200,000	-0,004	-0,018
-590,182	-200,000	0,017	0,064
-589,167	9,428	-0,087	0,048
-588,152	2,460	0,060	-0,032
-587,138	366,034	0,035	0,052
-586,123	-200,000	-0,122	0,000
-585,109	-200,000	0,042	-0,193
-584,094	-152,607	0,062	-0,003
-583,079	-70,035	0,101	-0,028
-582,065	-200,000	-0,009	-0,138
-581,050	-155,513	0,073	-0,003
-580,036	588,329	-0,027	0,048
-579,021	-200,000	-0,006	0,020
-578,006	-110,505	-0,052	0,008
-576,992	-79,942	-0,091	0,022
-575,977	800,000	-0,036	0,074
-574,963	-200,000	0,028	0,116
-573,948	236,986	-0,063	0,076
-572,934	-200,000	-0,018	0,062
-571,919	121,418	-0,041	-0,037
-570,904	544,309	0,085	-0,148
-569,890	-158,479	-0,100	0,004
-568,875	800,000	-0,048	-0,114
-567,861	-200,000	-0,030	0,103
-566,846	-80,514	0,177	0,042
-565,831	434,181	-0,039	-0,061
-564,817	-200,000	-0,061	-0,229
-563,802	-74,249	0,076	0,020
-562,788	347,646	-0,058	0,083
-561,773	800,000	0,080	-0,180
-560,758	127,899	-0,125	-0,115
-559,744	-200,000	-0,010	0,043
-558,729	-200,000	0,003	-0,029
-557,715	-200,000	0,018	-0,075
-556,700	-74,753	0,078	0,020
-555,685	145,495	-0,081	0,078
-554,671	-200,000	0,027	0,088
-553,656	594,827	-0,025	-0,045
-552,642	416,418	0,060	-0,093
-551,627	46,423	-0,037	-0,024
-550,612	155,061	0,047	-0,046
-549,598	32,057	0,032	0,020
-548,583	-200,000	-0,022	0,131
-547,569	-60,658	0,033	0,010
-546,554	147,660	-0,049	0,048
-545,539	-200,000	-0,006	-0,062
-544,525	792,176	0,031	-0,061
-543,510	171,166	-0,089	-0,093
-542,496	-200,000	-0,013	-0,138
-541,481	-200,000	0,022	-0,075
-540,466	-200,000	0,006	0,087
-539,452	-200,000	0,019	-0,089
-538,437	-200,000	-0,029	0,114
-537,423	395,185	0,043	0,064
-536,408	209,020	0,049	-0,055
-535,393	-200,000	-0,013	0,050
-534,379	800,000	0,050	-0,132
-533,364	-132,750	-0,070	-0,006
-532,350	59,967	0,044	-0,031
-531,335	160,485	-0,070	0,070
-530,321	-200,000	-0,008	0,063
-529,306	159,945	0,024	-0,024
-528,291	-162,387	-0,132	0,005
-527,277	-200,000	-0,060	0,000
-526,262	221,722	0,026	0,030
-525,248	800,000	0,028	-0,085
-524,233	-200,000	-0,007	0,080
-523,218	315,535	0,030	-0,041
-522,204	-200,000	0,031	0,103
-521,189	442,960	0,031	-0,050
-520,175	-134,014	-0,083	-0,007
-519,160	242,239	-0,049	0,059
-518,145	246,100	-0,083	-0,101
-517,131	-135,311	0,057	0,005
-516,116	37,983	-0,029	-0,019
-515,102	-200,000	0,011	0,059
-514,087	-89,287	-0,190	-0,040
-513,072	800,000	0,035	0,110
-512,058	40,920	-0,032	0,021
-511,043	-200,000	0,003	0,010
-510,029	195,076	0,080	0,088
-509,014	-67,551	-0,098	-0,028
-507,999	800,000	-0,064	-0,136
-506,985	13,835	-0,194	-0,108
-505,970	409,241	-0,059	-0,091
-504,956	800,000	0,047	-0,115
-503,941	28,283	-0,047	-0,028
-502,926	-57,248	-0,151	0,048
-501,912	202,519	0,045	0,050
-500,897	146,288	-0,041	-0,039
-499,883	-50,612	-0,119	0,040
-498,868	-8,602	0,126	0,061
-497,853	-200,000	0,013	0,143
-496,839	-130,565	0,100	0,010
-495,824	-200,000	0,031	0,157
-494,810	-98,380	-0,027	0,005
-493,795	-200,000	-0,019	-0,081
-492,781	88,055	0,105	0,084
-491,766	22,047	-0,185	0,108
-490,751	608,987	0,051	0,092
-489,737	291,919	-0,046	-0,061
-488,722	591,686	0,047	-0,083
-487,708	-10,164	0,121	-0,058
-486,693	-200,000	0,003	0,054
-485,678	5,712	-0,105	-0,055
-484,664	-200,000	-0,019	-0,135
-483,649	800,000	-0,054	-0,138
-482,635	800,000	0,050	0,102
-481,620	-183,713	0,064	0,001
-480,605	135,147	-0,060	0,056
-479,591	-200,000	-0,021	0,094
-478,576	48,413	-0,044	-0,030
-477,562	-200,000	0,043	-0,143
-476,547	-133,350	-0,086	0,008
-475,532	12,558	0,089	0,049
-474,518	204,942	0,041	-0,046
-473,503	-200,000	0,002	-0,043
-472,489	-200,000	-0,001	0,096
-471,474	-114,490	0,075	0,010
-470,459	320,275	-0,024	0,033
-469,445	-98,948	-0,130	0,024
-468,430	-78,903	-0,071	-0,017
-467,416	277,908	-0,084	0,108
-466,401	-177,157	0,080	0,001
-465,386	-200,000	0,025	0,158
-464,372	433,449	-0,056	0,087
-463,357	-200,000	-0,019	-0,073
-462,343	-14,828	0,071	-0,033
-461,328	-100,080	-0,136	0,024
-460,313	-85,722	0,073	-0,016
-459,299	-149,736	0,171	0,010
-458,284	-200,000	0,098	0,000
-457,270	800,000	0,008	0,017
-456,255	337,893	-0,110	-0,154
-455,241	-83,016	0,053	-0,012
-454,226	626,300	-0,029	0,053
-453,211	-102,944	0,036	0,006
-452,197	21,269	0,124	0,072
-451,182	-71,746	-0,013	0,004
-450,168	-200,000	0,011	0,093
-449,153	-200,000	-0,000	0,089
-448,138	196,112	-0,092	-0,101
-447,124	127,605	0,128	0,117
-446,109	-75,242	0,059	-0,015
-445,095	-140,956	0,068	0,005
-444,080	-25,246	0,096	0,040
-443,065	254,647	-0,022	0,027
-442,051	-72,225	-0,076	-0,020
-441,036	-144,442	0,021	-0,001
-440,022	-120,635	-0,073	-0,009
-439,007	-153,311	0,160	0,008
-437,992	107,330	0,108	0,092
-436,978	17,114	-0,058	-0,033
-435,963	111,250	-0,081	0,070
-434,949	-141,281	-0,065	0,005
-433,934	-200,000	0,018	-0,069
-432,919	491,003	0,005	-0,007
-431,905	-30,078	-0,044	0,018
-430,890	-15,497	0,071	0,033
-429,876	-67,084	-0,135	0,038
-428,861	-35,345	0,162	-0,063
-427,846	358,915	0,024	0,034
-426,832	-12,615	-0,095	-0,044
-425,817	259,463	0,081	-0,100
-424,803	212,886	-0,052	0,060
-423,788	-200,000	0,006	0,061
-422,773	164,946	-0,048	-0,049
-421,759	49,849	-0,105	-0,071
-420,744	-127,219	0,057	-0,006
-419,730	27,379	-0,053	-0,032
-418,715	-102,347	-0,139	-0,024
-417,701	-59,346	-0,062	-0,019
-416,686	800,000	0,012	0,032
-415,671	-200,000	-0,003	0,082
-414,657	-21,653	-0,104	-0,045
-413,642	66,951	-0,082	0,060
-412,628	346,316	0,011	0,016
-411,613	53,192	-0,094	0,065
-410,598	187,160	0,045	-0,049
-409,584	-200,000	-0,001	0,068
-408,569	-121,302	-0,077	-0,009
-407,555	-200,000	-0,008	0,095
-406,540	111,793	0,089	0,077
-405,525	-57,954	0,055	-0,017
-404,511	-96,612	-0,201	-0,038
-403,496	25,359	-0,036	0,021
-402,482	-84,903	0,045	-0,010
-401,467	-200,000	0,002	-0,012
-400,452	-200,000	0,004	0,027
-399,438	475,119	-0,036	-0,059
-398,423	202,209	-0,002	-0,002
-397,409	-96,382	-0,141	-0,027
-396,394	252,399	-0,076	-0,093
-395,379	203,692	0,021	-0,024
-394,365	36,848	0,069	0,044
-393,350	187,026	0,077	-0,082
-392,336	427,794	0,056	-0,086
-391,321	341,889	-0,041	-0,057
-390,306	11,753	0,113	-0,062
-389,292	-93,875	-0,082	0,016
-388,277	225,255	-0,055	-0,064
-387,263	38,407	-0,014	-0,009
-386,248	-32,081	-0,035	0,014
-385,233	-200,000	0,010	0,097
-384,219	-95,741	0,026	-0,005
-383,204	-200,000	0,014	-0,151
-382,190	-107,981	0,144	0,022
-381,175	-173,677	-0,026	-0,001
-380,160	-200,000	0,039	-0,174
-379,146	-200,000	-0,009	0,071
-378,131	92,731	-0,130	-0,105
-377,117	800,000	0,038	0,084
-376,102	-12,452	0,072	-0,034
-375,088	104,229	-0,154	-0,130
-374,073	-200,000	-0,002	-0,059
-373,058	-200,000	0,036	0,126
-372,044	33,250	0,066	-0,041
-371,029	-200,000	0,007	-0,033
-370,015	800,000	0,025	-0,073
-369,000	-200,000	0,016	0,078
-367,985	800,000	-0,037	-0,105
-366,971	226,991	-0,060	0,070
-365,956	800,000	0,087	0,188
-364,942	78,000	-0,051	-0,039
-363,927	644,190	0,045	-0,083
-362,912	-82,456	-0,110	-0,025
-361,898	-200,000	-0,029	-0,156
-360,883	-81,849	-0,043	0,010
-359,869	612,843	0,043	-0,078
-358,854	120,107	-0,127	-0,113
-357,839	-82,921	-0,087	-0,020
-356,825	634,974	0,059	0,107
-355,810	-107,265	0,100	-0,016
-354,796	800,000	0,002	-0,006
-353,781	360,995	-0,055	0,079
-352,766	-200,000	0,032	-0,131
-351,752	617,603	-0,041	0,075
-350,737	699,026	0,020	0,037
-349,723	-91,919	-0,073	-0,015
-348,708	-96,882	0,185	0,035
-347,693	384,900	-0,101	0,149
-346,679	800,000	-0,034	0,078
-345,664	535,725	-0,083	0,141
-344,650	226,690	-0,027	-0,032
-343,635	714,748	0,066	0,126
-342,620	39,220	-0,114	0,073
-341,606	-200,000	0,010	0,120
-340,591	-153,543	-0,035	0,002
-339,577	800,000	0,102	-0,287
-338,562	800,000	-0,005	-0,013
-337,548	340,551	-0,028	-0,039
-336,533	800,000	-0,031	0,079
-335,518	-200,000	0,006	-0,042
-334,504	213,739	0,055	-0,063
-333,489	-200,000	-0,028	-0,091
-332,475	264,296	0,061	-0,076
-331,460	-105,124	-0,179	0,029
-330,445	-200,000	-0,003	-0,064
-329,431	54,987	-0,049	0,033
-328,416	-200,000	0,006	0,029
-327,402	198,774	-0,131	0,144
-326,387	-8,530	0,069	-0,033
-325,372	190,440	-0,041	-0,044
-324,358	-200,000	0,019	-0,296
-323,343	-87,630	0,046	0,010
-322,329	481,124	0,034	0,056
-321,314	-16,107	-0,015	0,007
-320,299	-15,378	-0,105	0,048
-319,285	-17,021	-0,130	0,059
-318,270	-57,462	-0,116	0,036
-317,256	-85,411	-0,020	0,004
-316,241	180,480	0,045	0,047
-315,226	800,000	0,043	-0,088
-314,212	-200,000	0,002	0,017
-313,197	-200,000	-0,032	-0,134
-312,183	-200,000	0,009	-0,102
-311,168	-200,000	-0,027	-0,089
-310,153	800,000	0,013	-0,036
-309,139	-55,034	0,056	0,018
-308,124	251,915	-0,074	-0,090
-307,110	-129,660	0,061	0,006
-306,095	285,625	0,177	0,229
-305,080	-76,739	-0,126	-0,031
-304,066	-61,563	0,042	-0,012
-303,051	-200,000	0,001	-0,085
-302,037	-200,000	0,017	-0,086
-301,022	-200,000	0,036	0,117
-300,008	211,508	0,039	0,044
-298,993	-20,847	0,135	0,059
-297,978	81,232	-0,074	0,057
-296,964	319,178	0,119	-0,162
-295,949	289,395	0,032	0,042
-294,935	207,870	0,101	-0,113
-293,920	191,699	-0,080	0,086
-292,905	295,919	0,046	0,060
-291,891	800,000	0,047	-0,111
-290,876	-200,000	-0,055	0,215
-289,862	183,882	0,065	0,069
-288,847	127,786	-0,075	-0,068
-287,832	800,000	-0,043	0,123
-286,818	800,000	0,034	-0,086
-285,803	-200,000	-0,011	0,169
-284,789	11,919	0,106	0,058
-283,774	168,958	-0,086	0,087
-282,759	-149,661	-0,091	-0,005
-281,745	442,715	0,049	-0,077
-280,730	205,653	-0,026	-0,029
-279,716	257,598	0,088	0,109
-278,701	158,029	0,126	0,125
-277,686	197,694	0,095	0,104
-276,672	-52,934	-0,097	-0,032
-275,657	-81,501	0,074	0,017
-274,643	800,000	0,028	-0,086
-273,628	105,847	0,026	0,022
-272,613	131,859	0,094	0,087
-271,599	553,094	-0,012	-0,021
-270,584	-200,000	-0,011	0,076
-269,570	517,349	0,135	0,226
-268,555	-111,086	-0,157	0,023
-267,540	87,187	0,157	0,124
-266,526	-113,188	0,120	-0,017
-265,511	-61,273	-0,116	-0,035
-264,497	800,000	-0,024	-0,071
-263,482	12,913	0,128	0,070
-262,467	-200,000	0,007	0,126
-261,453	83,823	0,055	0,042
-260,438	12,814	-0,119	-0,066
-259,424	70,173	0,080	0,059
-258,409	-100,346	-0,030	-0,005
-257,395	69,402	0,072	-0,053
-256,380	-161,341	-0,024	-0,001
-255,365	699,734	0,031	0,058
-254,351	-28,395	-0,031	-0,013
-253,336	-13,672	-0,031	-0,014
-252,322	800,000	-0,030	-0,081
-251,307	154,145	0,062	-0,060
-250,292	-23,066	0,049	-0,021
-249,278	-52,413	0,074	-0,024
-248,263	176,073	0,068	-0,071
-247,249	800,000	0,016	0,051
-246,234	-117,220	-0,035	0,005
-245,219	-200,000	0,001	-0,017
-244,205	4,302	-0,084	-0,044
-243,190	357,623	-0,056	0,079
-242,176	-200,000	0,003	0,059
-241,161	-200,000	-0,004	-0,205
-240,146	-200,000	-0,006	-0,029
-239,132	-16,934	-0,019	-0,009
-238,117	63,576	0,156	0,111
-237,103	482,710	-0,040	-0,066
-236,088	800,000	-0,061	-0,140
-235,073	24,004	0,090	0,053
-234,059	60,509	0,022	0,016
-233,044	126,099	0,107	0,097
-232,030	-200,000	-0,011	0,125
-231,015	-200,000	0,009	-0,206
-230,000	23,757	-0,043	0,025
-228,986	44,548	0,107	0,070
-227,971	-200,000	0,014	-0,133
-226,957	-78,133	0,029	0,007
-225,942	20,953	-0,060	0,035
-224,927	25,553	-0,061	-0,036
-223,913	651,519	-0,039	-0,071
-222,898	156,008	0,018	-0,017
-221,884	1,155	0,098	-0,050
-220,869	-107,528	0,112	0,017
-219,855	-130,741	0,094	-0,009
-218,840	800,000	-0,036	-0,101
-217,825	151,940	0,119	0,116
-216,811	596,685	-0,017	-0,030
-215,796	-90,853	0,024	-0,005
-214,782	332,680	0,007	0,010
-213,767	-115,116	-0,080	-0,011
-212,752	110,160	-0,163	0,139
-211,738	324,887	0,073	0,099
-210,723	-18,949	-0,022	0,009
-209,709	-165,732	0,133	0,004
-208,694	-18,337	0,100	-0,044
-207,679	-200,000	0,022	0,139
-206,665	-200,000	-0,013	-0,055
-205,650	78,120	0,053	0,040
-204,636	153,408	0,124	0,121
-203,621	683,510	0,040	0,074
-202,606	-31,507	0,136	0,054
-201,592	68,444	0,010	0,007
-200,577	11,500	-0,091	-0,050
-199,563	-200,000	0,016	0,103
-198,548	800,000	-0,012	0,036
-197,533	4,459	0,040	0,021
-196,519	800,000	-0,034	0,095
-195,504	-200,000	-0,010	0,094
-194,490	-200,000	-0,029	-0,133
-193,475	-141,714	0,142	-0,010
-192,460	129,395	0,185	-0,168
-191,446	800,000	0,021	-0,054
-190,431	-10,692	-0,019	-0,009
-189,417	-86,984	0,067	-0,014
-188,402	64,561	-0,145	0,104
-187,387	-200,000	-0,004	0,104
-186,373	370,012	0,073	-0,106
-185,358	283,340	-0,056	-0,071
-184,344	-73,092	0,053	0,014
-183,329	19,927	0,061	0,035
-182,315	72,616	-0,054	0,040
-181,300	-71,989	-0,035	-0,009
-180,285	800,000	0,036	-0,072
-179,271	-67,168	-0,164	-0,046
-178,256	-189,422	0,079	0,001
-177,242	-200,000	-0,039	0,166
-176,227	-98,276	0,076	0,014
-175,212	-72,784	0,180	-0,047
-174,198	-67,736	-0,102	0,028
-173,183	286,231	0,032	0,041
-172,169	-200,000	0,015	0,098
-171,154	-90,634	-0,065	-0,013
-170,139	800,000	-0,030	-0,092
-169,125	203,075	-0,067	0,074
-168,110	-200,000	0,004	0,045
-167,096	-184,381	-0,039	0,000
-166,081	133,641	-0,060	-0,055
-165,066	-101,901	0,147	-0,025
-164,052	800,000	0,038	-0,078
-163,037	262,985	-0,025	0,031
-162,023	127,762	0,083	0,075
-161,008	-107,755	0,075	0,012
-159,993	-74,991	0,077	0,019
-158,979	-58,319	0,045	0,014
-157,964	1,321	-0,103	0,053
-156,950	14,163	-0,054	0,030
-155,935	81,696	0,047	-0,037
-154,920	800,000	-0,043	0,108
-153,906	-83,431	0,064	0,014
-152,891	-31,653	-0,106	-0,042
-151,877	62,070	-0,102	0,072
-150,862	655,428	-0,018	0,034
-149,847	164,058	-0,044	0,044
-148,833	607,249	-0,086	-0,153
-147,818	800,000	0,026	-0,052
-146,804	-74,780	-0,122	0,031
-145,789	-112,362	-0,026	-0,004
-144,775	-200,000	0,003	0,062
-143,760	-200,000	-0,006	-0,032
-142,745	97,430	0,037	-0,030
-141,731	-48,759	-0,128	0,044
-140,716	-200,000	-0,031	-0,130
-139,702	-200,000	-0,004	0,021
-138,687	794,354	-0,014	0,027
-137,672	141,786	-0,043	-0,040
-136,658	-35,037	-0,152	-0,059
-135,643	-73,524	0,063	0,016
-134,629	314,176	-0,054	-0,073
-133,614	-200,000	0,028	0,109
-132,599	-171,225	-0,074	0,002
-131,585	-62,072	0,151	-0,044
-130,570	9,296	-0,080	-0,043
-129,556	105,009	-0,054	0,045
-128,541	-200,000	-0,006	-0,098
-127,526	-200,000	-0,026	-0,085
-126,512	800,000	-0,048	-0,113
-125,497	170,245	0,078	0,079
-124,483	-96,937	0,066	-0,012
-123,468	183,419	-0,047	0,049
-122,453	-28,957	-0,070	0,028
-121,439	-123,267	-0,029	-0,003
-120,424	-1,644	-0,108	0,054
-119,410	-192,622	0,069	-0,000
-118,395	-26,131	-0,065	-0,027
-117,380	800,000	0,056	0,127
-116,366	800,000	-0,083	0,240
-115,351	-34,302	-0,157	-0,061
-114,337	211,251	-0,087	-0,098
-113,322	111,670	-0,070	0,060
-112,307	24,495	-0,087	-0,051
-111,293	-90,920	0,034	0,007
-110,278	800,000	0,036	0,089
-109,264	213,587	-0,054	0,061
-108,249	480,091	-0,057	-0,091
-107,234	-85,098	0,157	-0,035
-106,220	6,681	0,036	0,019
-105,205	-102,913	-0,211	0,035
-104,191	57,006	0,094	-0,065
-103,176	-200,000	0,007	0,039
-102,162	800,000	0,038	0,079
-101,147	800,000	0,057	-0,124
-100,132	-200,000	-0,027	-0,194
-99,118	-81,793	0,057	0,013
-98,103	-113,365	0,024	0,003
-97,089	31,749	0,051	0,031
-96,074	113,734	-0,075	0,065
-95,059	-200,000	-0,009	-0,035
-94,045	100,777	-0,093	-0,077
-93,030	354,785	0,036	0,051
-92,016	67,339	-0,032	0,023
-91,001	-90,239	-0,045	-0,009
-89,986	25,530	0,069	0,041
-88,972	113,876	-0,007	0,006
-87,957	-33,902	-0,102	0,040
-86,943	-102,804	0,127	0,021
-85,928	800,000	0,018	-0,039
-84,913	46,713	-0,014	0,009
-83,899	35,543	-0,088	-0,054
-82,884	-200,000	0,005	0,027
-81,870	127,278	0,107	0,096
-80,855	49,169	0,127	0,084
-79,840	-32,811	-0,147	-0,058
-78,826	38,814	0,158	-0,100
-77,811	800,000	0,020	0,052
-76,797	-184,455	0,066	0,001
-75,782	-200,000	-0,023	-0,087
-74,767	-200,000	-0,003	-0,101
-73,753	-106,952	0,096	0,015
-72,738	-144,472	-0,118	0,008
-71,724	-200,000	0,008	-0,097
-70,709	114,836	-0,079	-0,069
-69,694	7,395	0,105	-0,055
-68,680	-200,000	0,038	-0,121
-67,665	-74,409	0,084	0,021
-66,651	-94,020	-0,070	0,013
-65,636	-200,000	-0,003	0,084
-64,622	242,586	0,017	-0,020
-63,607	-137,151	0,096	0,008
-62,592	800,000	-0,022	-0,054
-61,578	-200,000	-0,028	0,163
-60,563	415,765	0,042	-0,064
-59,549	-200,000	0,001	0,145
-58,534	183,029	-3,333	-3,489
-57,519	0,192	1,178	0,593
-56,505	800,000	-2,166	-6,112
-55,490	441,018	1,324	2,058
-54,476	800,000	5,738	12,414
-53,461	-200,000	27,759	409,439
-52,446	800,000	823,715	2420,335
-51,432	500,796	1710,508	2805,153
-50,417	105,959	1642,602	1375,967
-49,403	75,898	1284,943	960,930
-48,388	24,876	1032,191	604,250
-47,373	18,979	998,336	564,978
-46,359	12,379	985,238	535,952
-45,344	9,185	982,321	523,879
-44,330	9,511	979,936	523,653
-43,315	8,607	978,021	519,655
-42,300	8,576	976,910	518,943
-41,286	8,553	975,884	518,304
-40,271	8,481	975,016	517,587
-39,257	8,436	974,068	516,918
-38,242	8,474	973,218	516,568
-37,227	8,454	972,373	516,034
-36,213	8,495	971,628	515,754
-35,198	8,476	970,608	515,131
-34,184	8,519	969,704	514,769
-33,169	8,475	968,765	514,107
-32,154	8,497	967,942	513,721
-31,140	8,495	966,995	513,191
-30,125	8,522	966,138	512,803
-29,111	8,478	965,458	512,279
-28,096	8,495	964,899	512,017
-27,082	8,464	964,119	511,484
-26,067	8,468	963,302	511,041
-25,052	8,466	962,569	510,626
-24,038	8,469	961,886	510,254
-23,023	8,387	961,185	509,598
-22,009	8,373	960,584	509,215
-20,994	8,449	959,580	508,908
-19,979	8,391	959,313	508,560
-18,965	8,359	958,725	508,125
-17,950	8,429	957,961	507,922
-16,936	8,402	957,524	507,587
-15,921	8,364	956,904	507,116
-14,906	8,383	956,109	506,733
-13,892	8,424	955,305	506,418
-12,877	8,369	954,835	505,974
-11,863	8,342	954,417	505,647
-10,848	8,425	953,536	505,424
-9,833	8,428	953,227	505,249
-8,819	8,304	952,397	504,395
-7,804	8,415	951,654	504,336
-6,790	8,408	951,163	504,033
-5,775	8,365	950,567	503,560
-4,760	8,307	949,889	502,998
-3,746	8,350	949,188	502,740
-2,731	8,297	948,658	502,273
-1,717	8,337	948,041	502,053
-0,702	8,308	947,391	501,598
0,313	8,109	946,635	501,326
1,327	11,465	943,917	510,413
2,342	19,870	802,335	456,198
3,356	17,272	509,856	285,489
4,371	0,917	394,637	199,412
5,386	-0,189	379,285	190,228
6,400	-0,151	373,727	187,472
7,415	0,572	371,386	187,183
8,429	0,464	369,561	186,113
9,444	0,439	368,485	185,523
10,459	0,594	367,674	185,291
11,473	0,667	367,127	185,087
12,488	0,654	366,587	184,783
13,502	0,663	365,926	184,444
14,517	0,799	365,591	184,426
15,531	0,830	365,082	184,191
16,546	0,969	364,773	184,189
17,561	0,918	364,278	183,860
18,575	1,074	363,841	183,814
19,590	1,010	363,261	183,426
20,604	0,988	363,141	183,323
21,619	0,934	362,608	182,971
22,634	1,055	362,286	182,940
23,648	0,963	361,797	182,565
24,663	0,996	361,399	182,387
25,677	0,896	361,265	182,183
26,692	0,986	360,831	182,056
27,707	1,106	360,394	181,964
28,721	0,864	360,279	181,598
29,736	0,826	359,972	181,381
30,750	0,887	359,454	181,178
31,765	0,981	359,221	181,157
32,780	0,934	358,890	180,917
33,794	1,061	358,626	180,921
34,809	1,104	358,282	180,782
35,823	0,976	358,021	180,482
36,838	1,032	357,749	180,395
37,853	0,947	357,418	180,111
38,867	1,031	357,149	180,059
39,882	1,007	356,752	179,814
40,896	0,887	356,509	179,532
41,911	0,919	356,212	179,406
42,926	0,938	355,912	179,261
43,940	0,790	355,617	178,920
44,955	0,858	355,333	178,843
45,969	0,876	355,025	178,692
46,984	0,778	355,019	178,557
47,999	0,816	354,424	178,286
49,013	0,679	354,162	177,978
50,028	0,542	353,912	177,673
51,042	0,576	353,455	177,468
52,057	0,532	353,174	177,259
53,071	0,367	353,156	177,040
54,086	0,546	352,700	177,006
55,101	0,624	352,596	177,030
56,115	0,812	352,203	177,039
57,130	1,058	352,116	177,269
58,144	0,893	351,826	176,913
59,159	1,074	351,582	176,987
60,174	1,044	351,282	176,785
61,188	0,908	350,962	176,448
62,203	0,948	350,782	176,389
63,217	0,957	350,517	176,251
64,232	0,964	350,273	176,120
65,247	0,947	349,903	175,900
66,261	0,940	349,571	175,708
67,276	0,889	349,267	175,480
68,290	0,779	349,038	175,222
69,305	0,638	348,837	174,940
70,320	0,866	348,373	174,958
71,334	0,917	348,191	174,910
72,349	1,001	347,976	174,884
73,363	1,004	347,659	174,713
74,378	0,943	347,553	174,573
75,393	0,963	347,346	174,477
76,407	0,896	346,908	174,164
77,422	1,024	346,738	174,210
78,436	1,087	346,524	174,161
79,451	0,979	346,177	173,846
80,466	0,992	345,823	173,667
81,480	0,888	345,672	173,456
82,495	0,968	345,352	173,372
83,509	0,886	345,206	173,190
84,524	0,982	344,723	173,042
85,539	0,867	344,633	172,849
86,553	0,784	344,303	172,573
87,568	1,045	343,995	172,703
88,582	0,932	343,712	172,415
89,597	0,867	343,520	172,229
90,611	0,939	343,315	172,194
91,626	1,002	343,197	172,191
92,641	1,070	342,938	172,123
93,655	1,030	342,598	171,892
94,670	0,904	342,381	171,624
95,684	0,930	342,198	171,546
96,699	1,009	341,711	171,377
97,714	0,851	341,766	171,209
98,728	0,871	341,363	171,015
99,743	0,867	341,124	170,876
100,757	0,751	340,758	170,545
101,772	0,834	340,616	170,554
102,787	0,798	340,431	170,405
103,801	0,786	340,161	170,240
104,816	0,906	339,932	170,246
105,830	1,024	339,757	170,277
106,845	1,149	339,365	170,207
107,860	1,030	339,226	169,988
108,874	0,947	338,787	169,659
109,889	0,902	338,635	169,517
110,903	0,837	338,331	169,276
111,918	1,011	338,135	169,359
112,933	0,896	338,000	169,147
113,947	0,887	337,677	168,960
114,962	1,080	337,423	169,035
115,976	1,041	337,226	168,877
116,991	0,986	337,075	168,724
118,006	0,808	336,846	168,396
119,020	0,896	336,588	168,350
120,035	0,943	336,562	168,375
121,049	1,014	336,161	168,238
122,064	0,860	336,043	167,992
123,079	0,944	335,679	167,890
124,093	1,045	335,410	167,852
125,108	0,731	335,173	167,369
126,122	0,813	334,919	167,318
127,137	0,677	334,719	167,052
128,151	0,749	334,448	166,981
129,166	0,936	334,249	167,075
130,181	0,890	333,906	166,838
131,195	0,797	333,602	166,568
132,210	0,836	333,362	166,477
133,224	0,952	333,233	166,526
134,239	1,040	332,913	166,449
135,254	0,973	332,856	166,331
136,268	0,841	332,471	165,978
137,283	0,721	332,324	165,757
138,297	0,783	331,827	165,563
139,312	0,530	331,772	165,242
140,327	0,891	331,522	165,500
141,341	1,120	331,316	165,634
142,356	0,991	331,275	165,457
143,370	1,014	330,934	165,298
144,385	1,223	330,709	165,400
145,400	1,210	330,374	165,203
146,414	1,025	330,317	164,957
147,429	1,009	329,999	164,767
148,443	1,128	329,762	164,764
149,458	1,051	329,702	164,635
150,473	0,880	329,407	164,286
151,487	0,975	329,053	164,198
152,502	1,113	328,759	164,187
153,516	0,978	328,666	163,979
154,531	1,097	328,413	163,968
155,546	1,040	328,119	163,744
156,560	1,119	327,898	163,705
157,575	0,968	327,751	163,453
158,589	0,951	327,417	163,253
159,604	0,943	327,380	163,213
160,619	1,130	327,017	163,219
161,633	1,147	326,882	163,156
162,648	1,010	326,794	162,949
163,662	1,065	326,392	162,793
164,677	1,111	326,284	162,775
165,692	1,034	325,989	162,530
166,706	1,183	325,635	162,499
167,721	0,979	325,658	162,277
168,735	1,160	325,257	162,257
169,750	1,220	325,199	162,278
170,764	1,102	324,846	161,961
171,779	0,949	324,850	161,784
172,794	1,188	324,561	161,882
173,808	1,051	324,304	161,593
174,823	0,702	323,931	161,019
175,837	0,809	323,672	160,990
176,852	0,886	323,760	161,101
177,867	1,019	323,454	161,077
178,881	1,104	323,327	161,091
179,896	1,066	322,980	160,863
180,910	1,018	322,876	160,745
181,925	1,019	322,582	160,585
182,940	1,202	322,259	160,605
183,954	1,013	322,297	160,409
184,969	1,118	322,040	160,378
185,983	1,263	321,642	160,320
186,998	1,200	321,537	160,186
188,013	1,232	321,294	160,085
189,027	1,123	321,154	159,885
190,042	1,114	320,736	159,653
191,056	1,070	320,711	159,581
192,071	1,030	320,492	159,415
193,086	0,861	320,021	158,987
194,100	0,776	319,923	158,835
195,115	1,109	319,776	159,099
196,129	1,106	319,472	158,930
197,144	1,041	319,219	158,722
198,159	0,985	318,913	158,497
199,173	1,025	318,770	158,454
200,188	0,874	318,458	158,126
201,202	0,946	318,321	158,119
202,217	0,791	317,958	157,762
203,232	0,662	317,837	157,553
204,246	0,989	317,560	157,744
205,261	1,157	317,477	157,865
206,275	1,100	317,157	157,632
207,290	1,204	317,180	157,738
208,304	1,042	316,883	157,407
209,319	0,985	316,769	157,277
210,334	1,105	316,516	157,263
211,348	1,123	316,308	157,163
212,363	1,165	315,967	157,025
213,377	0,986	315,870	156,776
214,392	1,270	315,570	156,908
215,407	1,095	315,341	156,598
216,421	0,941	315,159	156,333
217,436	0,929	315,087	156,272
218,450	0,876	314,783	156,053
219,465	1,122	314,533	156,169
220,480	1,101	314,341	156,038
221,494	1,166	314,104	155,973
222,509	0,938	313,928	155,637
223,523	1,066	313,697	155,641
224,538	1,088	313,750	155,675
225,553	1,186	313,402	155,591
226,567	1,083	313,197	155,369
227,582	1,090	313,013	155,271
228,596	1,117	312,772	155,165
229,611	1,146	312,585	155,088
230,626	1,042	312,423	154,887
231,640	0,945	312,206	154,667
232,655	0,915	311,829	154,435
233,669	0,800	311,479	154,130
234,684	0,741	311,320	153,977
235,699	0,847	311,223	154,024
236,713	0,758	311,067	153,841
237,728	0,730	310,928	153,731
238,742	1,051	310,685	153,925
239,757	0,929	310,553	153,721
240,772	0,910	310,296	153,561
241,786	0,809	310,162	153,378
242,801	0,778	309,863	153,185
243,815	0,931	309,619	153,206
244,830	0,868	309,422	153,031
245,844	0,880	309,201	152,920
246,859	0,785	309,002	152,712
247,874	0,719	308,822	152,542
248,888	0,700	308,734	152,465
249,903	0,891	308,400	152,481
250,917	0,727	308,344	152,274
251,932	0,903	308,041	152,289
252,947	0,504	307,572	151,640
253,961	-0,074	307,079	150,800
254,976	0,725	307,482	151,791
255,990	2,139	307,832	153,379
257,005	2,832	307,965	154,132
258,020	4,006	308,331	155,489
259,034	4,390	308,334	155,864
260,049	4,426	308,313	155,876
261,063	4,665	307,987	155,939
262,078	4,924	307,794	156,087
263,093	5,085	307,738	156,208
264,107	5,030	307,615	156,077
265,122	5,034	307,569	156,043
266,136	5,386	307,361	156,277
267,151	5,283	307,184	156,070
268,166	5,209	306,793	155,783
269,180	5,164	306,563	155,608
270,195	5,170	306,487	155,560
271,209	5,175	306,183	155,398
272,224	5,099	306,043	155,237
273,239	4,846	305,789	154,841
274,253	4,658	305,596	154,542
275,268	5,215	305,204	154,886
276,282	5,053	305,231	154,724
277,297	5,274	304,841	154,732
278,312	5,395	304,791	154,814
279,326	5,247	304,688	154,600
280,341	5,013	304,479	154,248
281,355	4,923	304,173	153,990
282,370	4,860	303,885	153,767
283,384	4,903	303,863	153,785
284,399	5,186	303,628	153,934
285,414	5,110	303,362	153,709
286,428	4,993	303,160	153,477
287,443	4,763	302,886	153,097
288,457	4,750	302,759	153,006
289,472	4,680	302,538	152,812
290,487	4,689	302,295	152,685
291,501	4,456	302,206	152,396
292,516	4,763	301,937	152,549
293,530	4,619	301,590	152,219
294,545	4,575	301,577	152,156
295,560	4,616	301,151	151,967
296,574	4,450	301,030	151,729
297,589	4,398	300,872	151,585
298,603	4,392	300,728	151,494
299,618	4,476	300,581	151,488
300,633	4,605	300,219	151,418
301,647	4,480	300,112	151,228
302,662	4,670	299,850	151,269
303,676	4,821	299,739	151,348
304,691	4,835	299,714	151,334
305,706	4,877	299,464	151,237
306,720	5,000	299,322	151,271
307,735	4,883	299,151	151,056
308,749	5,151	299,008	151,233
309,764	5,154	298,717	151,075
310,779	4,978	298,367	150,714
311,793	4,840	298,357	150,560
312,808	4,846	298,186	150,466
313,822	4,908	297,978	150,408
314,837	4,776	297,771	150,163
315,852	4,883	297,590	150,161
316,866	4,944	297,356	150,090
317,881	4,766	297,223	149,837
318,895	4,878	296,883	149,759
319,910	4,856	296,566	149,565
320,925	4,818	296,577	149,521
321,939	4,882	296,535	149,548
322,954	4,939	296,257	149,449
323,968	4,837	296,245	149,331
324,983	4,983	295,827	149,248
325,997	4,960	295,834	149,217
327,012	4,963	295,651	149,113
328,027	5,049	295,330	149,022
329,041	4,943	295,152	148,816
330,056	4,998	295,006	148,782
331,070	5,023	294,816	148,697
332,085	4,921	294,515	148,434
333,100	5,203	294,510	148,689
334,114	5,044	294,043	148,288
335,129	4,819	294,113	148,094
336,143	5,097	293,791	148,184
337,158	5,141	293,758	148,197
338,173	5,037	293,562	147,986
339,187	4,816	293,337	147,648
340,202	4,946	293,106	147,642
341,216	5,075	292,958	147,677
342,231	4,900	292,722	147,379
343,246	4,918	292,658	147,351
344,260	5,083	292,293	147,311
345,275	5,043	292,190	147,207
346,289	5,432	291,910	147,422
347,304	5,326	291,855	147,281
348,319	5,140	291,566	146,946
349,333	5,001	291,419	146,727
350,348	5,118	291,351	146,790
351,362	5,025	291,192	146,609
352,377	5,004	290,843	146,400
353,392	5,186	290,715	146,494
354,406	5,017	290,589	146,259
355,421	193,283	1336,961	1388,358
356,435	156,724	1464,111	1387,997
