DTS Sentinel unit serial number:	SN410029Multiplexer serial number:	ORYXHardware model number:	OX2-SRSoftware version number:	ORYX F/W v4,00 Oryx Data Collector v3.7.2.0data status	okinstallation	B4 Nyhavnadifferential loss correction	single-endedforward channel	channel 2reverse channel	N/Adate	2023/12/16time	01:20:14forward acquisition time	300,00reverse acquisition time	0,00gamma	499,1914k internal	0,3128k external	0,3128temperature offset calibration	1,0000default loss term (dB/km)	0,3820temperature slope calibration	1,0000multiplexer offset coefficient	1,0000multiplexer slope coefficient	1,0000fibre end	0,00T internal ref (°C)	21,91T ext. ref 1 (°C)	7,05T ext. ref 2 (°C)	7,23length (m)	temperature (°C)	Stokes	anti-Stokes-744,400	-200,000	-0,043	0,175
-743,385	-78,465	-0,229	0,058
-742,371	-200,000	-0,012	-0,055
-741,356	133,018	-0,170	0,163
-740,342	-54,246	0,016	0,005
-739,327	-33,862	-0,192	0,078
-738,312	12,117	-0,133	-0,076
-737,298	42,157	-0,277	0,187
-736,283	800,000	-0,028	-0,070
-735,269	199,208	-0,230	0,263
-734,254	22,543	-0,070	-0,043
-733,239	-178,242	-0,614	0,010
-732,225	141,613	0,110	0,109
-731,210	449,912	-0,033	0,054
-730,196	-174,183	-0,048	0,001
-729,181	800,000	0,009	0,029
-728,167	28,684	0,063	0,039
-727,152	-6,152	-0,024	-0,012
-726,137	37,459	-0,068	-0,045
-725,123	204,811	-0,050	-0,058
-724,108	185,007	-0,050	0,055
-723,094	-65,004	-0,190	-0,057
-722,079	277,218	0,119	-0,158
-721,064	-78,332	0,063	0,016
-720,050	352,011	-0,061	-0,090
-719,035	350,586	0,064	0,095
-718,021	535,432	-0,034	-0,060
-717,006	-86,648	-0,121	-0,027
-715,991	-57,669	-0,075	-0,024
-714,977	-14,066	-0,068	0,033
-713,962	179,656	-0,042	-0,045
-712,948	292,559	0,052	0,071
-711,933	-1,401	-0,087	0,046
-710,918	49,077	0,042	0,029
-709,904	-74,728	-0,085	0,022
-708,889	-85,225	-0,086	-0,020
-707,875	577,875	-0,078	-0,142
-706,860	-70,432	-0,073	-0,020
-705,845	-10,102	-0,074	0,036
-704,831	-73,847	0,034	-0,009
-703,816	582,825	-0,075	-0,137
-702,802	-200,000	-0,014	0,091
-701,787	-200,000	-0,007	0,113
-700,772	83,444	-0,202	-0,164
-699,758	-50,850	0,029	0,010
-698,743	114,195	-0,047	0,043
-697,729	-88,027	0,133	-0,029
-696,714	309,782	-0,063	0,087
-695,699	-200,000	-0,007	-0,095
-694,685	161,539	-0,080	-0,084
-693,670	67,384	-0,018	0,013
-692,656	139,184	-0,077	-0,075
-691,641	-200,000	0,014	0,105
-690,627	-200,000	-0,001	-0,045
-689,612	-60,485	-0,100	0,031
-688,597	312,909	0,083	-0,116
-687,583	-200,000	0,002	-0,093
-686,568	-200,000	-0,033	-0,107
-685,554	52,929	0,057	-0,041
-684,539	-200,000	0,008	-0,124
-683,524	11,234	-0,040	-0,023
-682,510	134,934	0,088	-0,085
-681,495	338,701	0,059	-0,085
-680,481	-119,479	-0,103	-0,013
-679,466	18,429	-0,072	0,042
-678,451	-200,000	0,018	-0,141
-677,437	0,697	0,033	-0,018
-676,422	27,993	-0,066	-0,041
-675,408	33,043	0,061	0,039
-674,393	-200,000	-0,025	-0,103
-673,378	225,492	-0,065	-0,078
-672,364	396,931	-0,093	0,145
-671,349	800,000	-0,052	0,113
-670,335	-200,000	-0,014	-0,057
-669,320	-200,000	0,007	-0,029
-668,305	800,000	-0,059	0,169
-667,291	-3,944	-0,043	-0,022
-666,276	72,322	-0,084	-0,065
-665,262	14,180	-0,079	0,045
-664,247	-200,000	-0,026	-0,117
-663,232	-112,928	0,087	0,013
-662,218	124,281	0,003	0,003
-661,203	800,000	-0,030	-0,061
-660,189	180,518	-0,067	0,073
-659,174	-106,547	-0,022	0,004
-658,159	-200,000	-0,005	-0,041
-657,145	-200,000	-0,001	0,088
-656,130	-154,288	-0,064	-0,003
-655,116	4,616	0,092	0,050
-654,101	-200,000	0,020	0,105
-653,086	-200,000	-0,035	-0,131
-652,072	-3,708	0,217	-0,112
-651,057	-78,214	0,051	-0,013
-650,043	-47,156	-0,133	0,048
-649,028	-46,359	-0,065	0,023
-648,014	-200,000	-0,015	0,147
-646,999	800,000	-0,035	0,081
-645,984	545,865	-0,027	0,048
-644,970	443,563	-0,086	-0,140
-643,955	221,016	-0,151	-0,180
-642,941	616,928	-0,031	-0,058
-641,926	93,532	-0,137	0,115
-640,911	287,559	0,020	-0,027
-639,897	-105,046	0,149	-0,025
-638,882	-200,000	0,045	-0,161
-637,868	139,181	-0,040	-0,039
-636,853	317,658	-0,054	0,076
-635,838	800,000	-0,085	-0,187
-634,824	800,000	-0,051	0,125
-633,809	157,960	0,047	-0,048
-632,795	182,457	0,026	-0,028
-631,780	-200,000	-0,027	-0,109
-630,765	-52,668	-0,124	-0,042
-629,751	800,000	0,028	-0,090
-628,736	24,087	0,112	0,068
-627,722	114,665	-0,101	-0,092
-626,707	-92,699	-0,083	0,017
-625,692	-200,000	0,012	0,045
-624,678	2,191	0,186	0,099
-623,663	800,000	-0,011	-0,028
-622,649	-154,171	-0,176	0,009
-621,634	76,808	-0,048	-0,038
-620,619	236,294	-0,065	-0,080
-619,605	-200,000	-0,001	0,090
-618,590	387,905	0,038	0,058
-617,576	-107,741	-0,044	-0,007
-616,561	674,590	0,021	-0,040
-615,546	330,483	-0,074	-0,106
-614,532	-136,122	0,143	0,012
-613,517	800,000	-0,047	-0,132
-612,503	59,750	0,090	-0,066
-611,488	-200,000	-0,012	-0,110
-610,474	551,428	0,074	0,133
-609,459	133,036	-0,033	-0,031
-608,444	-200,000	-0,023	-0,154
-607,430	-42,692	0,041	-0,015
-606,415	17,243	-0,065	-0,038
-605,401	-200,000	-0,005	-0,046
-604,386	375,301	0,027	0,041
-603,371	-37,495	0,026	0,010
-602,357	-200,000	-0,017	-0,089
-601,342	800,000	0,060	0,145
-600,328	28,915	0,013	-0,008
-599,313	-200,000	0,053	-0,264
-598,298	316,187	0,076	-0,107
-597,284	-200,000	-0,002	-0,052
-596,269	613,401	0,035	0,066
-595,255	-78,529	-0,087	0,022
-594,240	532,306	0,033	-0,058
-593,225	342,247	0,021	-0,030
-592,211	88,923	-0,027	0,022
-591,196	40,695	0,020	0,013
-590,182	800,000	-0,013	0,030
-589,167	367,172	0,065	-0,097
-588,152	83,080	0,076	-0,061
-587,138	800,000	0,050	0,105
-586,123	44,241	-0,123	-0,083
-585,109	232,044	0,048	-0,058
-584,094	86,147	0,070	0,057
-583,079	291,015	0,064	0,086
-582,065	771,765	0,066	0,134
-581,050	-146,638	-0,021	0,001
-580,036	369,869	-0,035	-0,052
-579,021	-54,097	-0,175	-0,059
-578,006	-200,000	0,012	0,115
-576,992	297,126	-0,062	0,085
-575,977	-10,836	0,050	0,024
-574,963	154,177	0,139	0,141
-573,948	-104,618	-0,032	-0,005
-572,934	-103,090	-0,066	-0,011
-571,919	-200,000	0,012	0,081
-570,904	102,691	-0,126	-0,109
-569,890	-103,715	-0,058	0,010
-568,875	800,000	-0,048	0,140
-567,861	-56,640	-0,022	0,007
-566,846	35,307	-0,007	0,005
-565,831	-200,000	0,001	-0,023
-564,817	216,183	-0,040	-0,047
-563,802	244,171	0,077	-0,095
-562,788	-200,000	-0,006	0,069
-561,773	146,754	0,062	0,062
-560,758	-131,347	0,095	-0,009
-559,744	143,393	0,059	0,058
-558,729	-200,000	-0,011	-0,047
-557,715	38,185	-0,034	0,022
-556,700	-200,000	0,005	-0,114
-555,685	-125,535	-0,169	0,019
-554,671	-200,000	0,021	-0,125
-553,656	165,786	-0,069	0,072
-552,642	125,652	-0,071	0,066
-551,627	88,700	-0,130	0,107
-550,612	-200,000	-0,006	-0,084
-549,598	27,138	-0,016	0,010
-548,583	-200,000	0,000	0,049
-547,569	-90,937	0,128	0,027
-546,554	-135,961	-0,029	0,002
-545,539	324,250	-0,030	-0,043
-544,525	184,317	0,104	0,114
-543,510	-1,911	-0,142	-0,074
-542,496	800,000	0,019	-0,048
-541,481	-94,132	-0,172	-0,034
-540,466	800,000	0,047	-0,107
-539,452	517,184	-0,095	-0,165
-538,437	200,253	0,007	-0,008
-537,423	118,812	-0,022	0,020
-536,408	682,161	-0,042	-0,082
-535,393	212,016	0,099	-0,116
-534,379	-194,012	-0,090	-0,001
-533,364	-200,000	0,002	-0,035
-532,350	-200,000	-0,017	0,127
-531,335	173,903	-0,146	0,156
-530,321	-200,000	0,018	-0,169
-529,306	-200,000	-0,023	0,102
-528,291	20,954	0,063	0,037
-527,277	205,048	-0,123	-0,141
-526,262	431,030	0,039	0,063
-525,248	146,680	-0,045	-0,045
-524,233	130,040	0,048	0,046
-523,218	47,879	-0,065	0,044
-522,204	-200,000	0,017	0,106
-521,189	82,942	-0,116	-0,093
-520,175	-200,000	0,021	-0,137
-519,160	-200,000	0,002	0,042
-518,145	295,439	0,043	-0,058
-517,131	335,329	0,039	0,057
-516,116	-165,419	0,051	-0,002
-515,102	356,306	0,107	-0,158
-514,087	117,230	0,096	0,087
-513,072	53,508	-0,037	0,026
-512,058	-200,000	0,046	-0,158
-511,043	800,000	-0,039	0,125
-510,029	15,071	0,166	0,096
-509,014	-160,419	-0,134	0,005
-507,999	66,399	0,125	0,093
-506,985	-200,000	-0,006	-0,046
-505,970	-157,978	-0,033	0,001
-504,956	-200,000	-0,021	-0,121
-503,941	146,823	-0,104	0,103
-502,926	123,114	-0,046	0,042
-501,912	-59,885	-0,062	-0,019
-500,897	-102,133	-0,011	-0,002
-499,883	800,000	0,062	0,141
-498,868	452,132	-0,074	0,121
-497,853	-200,000	-0,018	-0,139
-496,839	38,388	0,084	-0,055
-495,824	-24,637	0,066	-0,029
-494,810	6,664	0,192	0,105
-493,795	-200,000	0,001	0,094
-492,781	344,054	-0,071	0,103
-491,766	-63,549	0,070	0,021
-490,751	800,000	-0,027	0,064
-489,737	511,901	0,040	-0,068
-488,722	800,000	0,011	-0,025
-487,708	-56,373	0,039	0,013
-486,693	528,658	-0,059	0,103
-485,678	-195,111	0,041	0,000
-484,664	800,000	-0,031	-0,065
-483,649	5,947	-0,044	-0,024
-482,635	322,645	-0,052	0,074
-481,620	-200,000	-0,012	0,071
-480,605	-111,198	-0,014	0,002
-479,591	-200,000	0,010	0,201
-478,576	-74,044	0,006	0,002
-477,562	-200,000	-0,031	0,117
-476,547	800,000	-0,004	0,013
-475,532	-34,240	-0,037	0,015
-474,518	591,283	-0,046	0,084
-473,503	-18,199	0,067	0,031
-472,489	182,982	-0,060	0,066
-471,474	493,261	-0,037	-0,063
-470,459	-71,892	0,114	0,031
-469,445	-200,000	-0,005	0,124
-468,430	647,078	0,052	0,097
-467,416	-200,000	-0,006	0,148
-466,401	-74,873	-0,039	-0,010
-465,386	-60,066	-0,065	0,020
-464,372	-200,000	0,006	-0,050
-463,357	-200,000	-0,044	-0,158
-462,343	143,150	-0,092	-0,090
-461,328	574,493	-0,014	0,026
-460,313	293,940	0,060	-0,081
-459,299	230,116	-0,079	0,095
-458,284	146,487	0,074	0,074
-457,270	-200,000	0,019	0,063
-456,255	800,000	-0,015	-0,033
-455,241	800,000	-0,038	-0,101
-454,226	-200,000	-0,022	-0,150
-453,211	40,784	0,100	-0,067
-452,197	-119,996	0,124	-0,016
-451,182	113,140	0,080	0,071
-450,168	-12,783	0,201	-0,096
-449,153	219,090	-0,070	-0,083
-448,138	-200,000	0,018	-0,159
-447,124	380,655	0,046	0,069
-446,109	627,146	0,109	-0,203
-445,095	-34,736	0,082	0,033
-444,080	-70,497	0,010	-0,003
-443,065	-13,576	0,059	0,028
-442,051	717,763	0,050	-0,097
-441,036	330,002	-0,059	0,084
-440,022	800,000	-0,066	-0,189
-439,007	198,009	-0,043	-0,048
-437,992	800,000	0,013	-0,041
-436,978	800,000	0,059	0,140
-435,963	-200,000	0,017	0,077
-434,949	269,173	-0,053	0,069
-433,934	13,133	-0,088	-0,050
-432,919	800,000	-0,057	-0,126
-431,905	-200,000	0,024	0,083
-430,890	164,300	-0,052	-0,054
-429,876	289,235	0,082	0,109
-428,861	15,928	0,118	0,068
-427,846	-67,363	-0,035	0,010
-426,832	800,000	0,036	-0,090
-425,817	-32,092	-0,095	-0,039
-424,803	-50,023	0,097	0,034
-423,788	-40,489	0,151	-0,057
-422,773	749,182	0,021	0,041
-421,759	-200,000	-0,020	0,085
-420,744	-200,000	0,033	0,260
-419,730	354,144	-0,086	-0,126
-418,715	83,701	0,004	-0,003
-417,701	800,000	-0,020	0,057
-416,686	404,719	0,088	0,136
-415,671	-140,868	-0,092	-0,007
-414,657	-200,000	-0,005	0,067
-413,642	-89,547	0,057	0,012
-412,628	5,070	0,040	0,022
-411,613	-90,342	-0,116	0,024
-410,598	344,873	0,031	-0,044
-409,584	218,011	-0,018	-0,021
-408,569	162,772	0,071	-0,074
-407,555	-200,000	-0,004	0,074
-406,540	-200,000	-0,015	-0,084
-405,525	-67,930	-0,246	0,070
-404,511	131,084	0,040	-0,037
-403,496	-200,000	-0,050	0,173
-402,482	-200,000	-0,040	-0,154
-401,467	-40,843	0,092	-0,035
-400,452	-83,706	-0,042	-0,010
-399,438	16,007	-0,088	0,051
-398,423	75,856	0,046	-0,035
-397,409	110,188	-0,090	-0,080
-396,394	257,409	-0,068	-0,086
-395,379	800,000	-0,062	-0,148
-394,365	-200,000	0,021	-0,096
-393,350	764,681	0,072	0,145
-392,336	228,065	0,043	0,052
-391,321	-84,436	0,047	-0,011
-390,306	155,086	0,033	-0,033
-389,292	800,000	-0,040	-0,087
-388,277	-0,226	0,061	-0,032
-387,263	-200,000	0,023	-0,120
-386,248	-102,573	-0,143	0,025
-385,233	800,000	0,025	-0,067
-384,219	-130,195	0,059	-0,006
-383,204	-200,000	0,012	-0,164
-382,190	-83,471	-0,085	-0,020
-381,175	800,000	0,019	-0,054
-380,160	334,466	-0,018	0,026
-379,146	271,091	0,071	0,092
-378,131	-144,892	0,109	-0,007
-377,117	800,000	-0,017	-0,036
-376,102	221,390	-0,039	0,046
-375,088	110,396	-0,084	0,074
-374,073	353,728	0,037	-0,053
-373,058	-71,844	0,082	-0,022
-372,044	-200,000	0,011	-0,091
-371,029	-21,558	0,064	0,029
-370,015	-76,452	-0,083	0,021
-369,000	43,261	-0,084	0,056
-367,985	800,000	0,011	-0,029
-366,971	-200,000	-0,024	0,133
-365,956	576,113	-0,043	0,077
-364,942	277,985	-0,134	-0,176
-363,927	-37,642	0,111	-0,043
-362,912	97,206	0,092	0,077
-361,898	800,000	-0,016	0,045
-360,883	324,338	-0,019	-0,027
-359,869	800,000	0,005	0,015
-358,854	624,900	-0,048	-0,090
-357,839	316,896	0,059	0,083
-356,825	-200,000	-0,009	0,096
-355,810	-153,959	-0,009	-0,000
-354,796	800,000	0,048	-0,100
-353,781	-200,000	0,008	-0,029
-352,766	-99,270	-0,107	0,020
-351,752	-73,764	0,179	-0,047
-350,737	34,720	0,021	-0,014
-349,723	-4,777	0,123	0,062
-348,708	363,158	0,025	-0,037
-347,693	200,658	0,038	0,043
-346,679	-14,988	-0,084	0,039
-345,664	382,977	-0,049	-0,074
-344,650	108,202	0,104	0,091
-343,635	-48,240	0,093	-0,033
-342,620	156,743	0,071	0,072
-341,606	-200,000	0,039	0,130
-340,591	316,122	0,035	0,049
-339,577	688,447	-0,010	0,020
-338,562	464,131	0,020	-0,034
-337,548	-77,008	0,032	0,008
-336,533	-51,282	-0,009	-0,003
-335,518	-127,596	-0,069	0,007
-334,504	-200,000	-0,009	0,096
-333,489	-200,000	-0,003	0,021
-332,475	-200,000	-0,038	-0,214
-331,460	-200,000	0,024	-0,082
-330,445	800,000	0,038	0,124
-329,431	-46,985	0,141	0,050
-328,416	-107,863	0,032	0,005
-327,402	84,756	0,019	-0,015
-326,387	-71,432	-0,029	0,008
-325,372	-51,204	-0,121	-0,041
-324,358	600,558	0,058	-0,107
-323,343	63,615	-0,138	-0,101
-322,329	800,000	-0,025	-0,063
-321,314	-200,000	-0,006	0,104
-320,299	-166,276	0,045	-0,001
-319,285	-1,198	0,050	0,026
-318,270	41,733	0,111	-0,073
-317,256	-200,000	-0,007	-0,154
-316,241	-200,000	-0,020	-0,156
-315,226	800,000	-0,060	0,124
-314,212	262,654	0,163	0,207
-313,197	-200,000	0,022	-0,163
-312,183	198,621	-0,014	0,015
-311,168	413,565	0,022	-0,035
-310,153	734,475	0,036	-0,070
-309,139	-200,000	-0,002	0,034
-308,124	-200,000	0,032	-0,129
-307,110	-200,000	-0,035	0,287
-306,095	-200,000	0,073	0,260
-305,080	800,000	0,033	0,085
-304,066	-155,418	0,038	0,002
-303,051	218,352	-0,106	0,124
-302,037	800,000	-0,061	0,126
-301,022	800,000	-0,041	-0,096
-300,008	-175,941	0,072	-0,001
-298,993	153,576	0,049	-0,049
-297,978	525,136	-0,039	0,068
-296,964	800,000	0,043	-0,116
-295,949	-200,000	-0,001	-0,015
-294,935	663,331	0,031	0,060
-293,920	540,581	0,010	-0,018
-292,905	800,000	-0,046	-0,123
-291,891	-106,471	0,015	-0,002
-290,876	-56,229	0,099	0,032
-289,862	41,170	-0,015	-0,010
-288,847	-200,000	-0,003	-0,109
-287,832	342,894	-0,067	-0,097
-286,818	-200,000	0,012	0,090
-285,803	241,239	0,056	0,069
-284,789	145,419	0,124	0,121
-283,774	523,769	-0,017	0,030
-282,759	75,818	-0,072	-0,056
-281,745	800,000	-0,022	-0,064
-280,730	398,361	0,096	-0,148
-279,716	492,913	-0,103	-0,174
-278,701	186,755	-0,032	0,035
-277,686	800,000	0,057	0,132
-276,672	800,000	-0,069	0,191
-275,657	2,480	0,106	0,056
-274,643	-106,942	-0,127	-0,020
-273,628	-117,467	0,093	-0,012
-272,613	-42,176	0,067	-0,025
-271,599	-200,000	0,014	0,109
-270,584	800,000	0,031	0,080
-269,570	-64,232	-0,030	0,009
-268,555	-81,630	0,053	0,013
-267,540	58,261	-0,028	-0,020
-266,526	180,746	-0,020	0,022
-265,511	640,525	0,041	0,077
-264,497	407,777	0,076	0,118
-263,482	-200,000	0,017	-0,087
-262,467	500,407	-0,041	-0,070
-261,453	-200,000	-0,024	0,131
-260,438	36,218	-0,067	-0,043
-259,424	18,294	-0,073	0,043
-258,409	-200,000	0,006	-0,094
-257,395	558,333	-0,017	0,030
-256,380	222,245	0,107	-0,126
-255,365	-103,577	-0,025	0,004
-254,351	-100,002	0,038	-0,007
-253,336	278,033	-0,105	-0,136
-252,322	-29,308	0,025	0,010
-251,307	26,871	-0,099	0,061
-250,292	-90,044	-0,146	0,031
-249,278	22,602	0,132	-0,079
-248,263	-169,307	-0,069	-0,002
-247,249	-49,532	-0,053	0,018
-246,234	204,428	-0,065	0,074
-245,219	308,497	-0,010	-0,014
-244,205	35,320	0,036	0,023
-243,190	800,000	0,023	0,060
-242,176	-200,000	-0,020	0,161
-241,161	-157,122	0,044	-0,002
-240,146	117,333	-0,030	-0,027
-239,132	800,000	-0,033	-0,090
-238,117	132,345	-0,095	-0,089
-237,103	-16,885	-0,108	0,049
-236,088	-200,000	-0,042	-0,192
-235,073	-54,662	0,219	-0,072
-234,059	229,308	-0,068	0,082
-233,044	-160,778	-0,036	-0,001
-232,030	-200,000	0,011	0,079
-231,015	101,954	0,015	-0,013
-230,000	336,050	-0,058	-0,083
-228,986	-114,295	0,050	0,007
-227,971	-200,000	0,000	0,010
-226,957	218,180	0,134	0,157
-225,942	-95,917	0,083	0,016
-224,927	57,897	-0,105	-0,075
-223,913	800,000	-0,074	-0,170
-222,898	-200,000	-0,008	-0,107
-221,884	-200,000	-0,013	0,071
-220,869	-107,541	0,114	0,018
-219,855	-200,000	0,013	-0,111
-218,840	732,271	0,060	0,118
-217,825	111,620	-0,083	0,073
-216,811	-129,309	-0,081	0,008
-215,796	415,702	-0,111	-0,172
-214,782	-37,992	-0,044	-0,017
-213,767	-200,000	-0,002	-0,174
-212,752	-200,000	-0,000	-0,018
-211,738	184,078	0,010	0,010
-210,723	-200,000	-0,020	0,169
-209,709	49,224	-0,076	-0,052
-208,694	-56,492	-0,009	-0,003
-207,679	26,322	-0,034	0,021
-206,665	189,891	-0,138	0,152
-205,650	-4,498	0,061	-0,031
-204,636	800,000	0,056	0,121
-203,621	-200,000	-0,029	0,115
-202,606	800,000	-0,056	-0,162
-201,592	5,017	-0,056	0,030
-200,577	358,402	-0,076	-0,111
-199,563	258,629	0,010	0,012
-198,548	13,192	0,126	0,071
-197,533	800,000	0,038	0,118
-196,519	-200,000	-0,067	0,281
-195,504	-200,000	-0,040	-0,164
-194,490	32,205	0,123	-0,077
-193,475	-200,000	0,017	-0,093
-192,460	78,834	-0,082	-0,064
-191,446	236,929	-0,050	0,061
-190,431	-113,211	0,095	0,013
-189,417	-109,631	-0,056	0,008
-188,402	-200,000	-0,021	0,078
-187,387	121,758	-0,040	0,036
-186,373	-93,465	0,015	0,003
-185,358	-200,000	-0,005	0,102
-184,344	240,123	0,136	0,166
-183,329	800,000	-0,042	0,094
-182,315	-58,256	0,030	-0,009
-181,300	89,867	0,067	0,054
-180,285	-200,000	0,010	-0,169
-179,271	-200,000	-0,000	-0,007
-178,256	701,606	0,078	-0,150
-177,242	-97,658	-0,176	0,033
-176,227	-46,691	0,097	0,034
-175,212	-88,886	0,122	-0,026
-174,198	800,000	0,039	-0,080
-173,183	28,813	0,029	-0,018
-172,169	-33,246	-0,019	0,008
-171,154	10,721	-0,080	-0,044
-170,139	569,798	0,064	0,114
-169,125	-117,395	-0,031	-0,004
-168,110	109,184	0,037	0,032
-167,096	-33,547	0,037	-0,015
-166,081	550,533	-0,032	-0,056
-165,066	-109,297	-0,090	-0,014
-164,052	-60,340	0,032	0,010
-163,037	546,608	0,062	0,108
-162,023	165,632	-0,046	-0,048
-161,008	432,938	0,026	0,041
-159,993	-61,053	0,079	-0,024
-158,979	-125,723	-0,107	-0,012
-157,964	-52,706	0,114	-0,038
-156,950	-200,000	-0,013	-0,069
-155,935	8,965	-0,028	-0,015
-154,920	800,000	0,053	0,120
-153,906	37,494	0,044	0,028
-152,891	-200,000	0,034	0,168
-151,877	-200,000	0,003	0,090
-150,862	-200,000	0,005	0,040
-149,847	-163,868	-0,102	-0,003
-148,833	63,056	-0,147	0,107
-147,818	-157,055	-0,043	0,002
-146,804	-69,098	-0,091	-0,025
-145,789	-42,855	-0,125	0,046
-144,775	75,878	0,035	-0,027
-143,760	-200,000	-0,013	-0,090
-142,745	-64,496	-0,023	-0,007
-141,731	-53,585	-0,095	0,031
-140,716	800,000	0,058	0,133
-139,702	-200,000	-0,001	0,150
-138,687	53,867	0,183	0,128
-137,672	-133,483	-0,022	-0,002
-136,658	202,121	-0,098	-0,110
-135,643	-200,000	0,019	-0,098
-134,629	-33,959	-0,104	-0,042
-133,614	-0,219	0,024	0,012
-132,599	800,000	0,030	-0,068
-131,585	531,191	0,035	0,060
-130,570	-200,000	-0,037	0,169
-129,556	800,000	0,072	-0,185
-128,541	-200,000	0,007	-0,030
-127,526	100,731	-0,095	-0,080
-126,512	6,017	0,089	0,048
-125,497	-106,267	-0,115	0,019
-124,483	800,000	-0,025	0,064
-123,468	800,000	0,004	-0,012
-122,453	424,236	0,036	0,056
-121,439	-24,996	-0,070	0,030
-120,424	145,467	-0,080	0,078
-119,410	406,412	0,018	0,028
-118,395	-200,000	-0,029	0,120
-117,380	800,000	0,082	0,167
-116,366	17,974	-0,035	0,020
-115,351	-20,489	0,067	-0,030
-114,337	721,519	0,060	-0,116
-113,322	-122,538	-0,065	-0,008
-112,307	-200,000	-0,011	0,037
-111,293	47,228	0,071	0,048
-110,278	-200,000	-0,019	-0,070
-109,264	43,860	-0,122	-0,081
-108,249	351,692	-0,026	0,038
-107,234	800,000	-0,032	-0,070
-106,220	557,082	0,064	-0,113
-105,205	679,301	0,032	0,061
-104,191	64,299	0,038	-0,027
-103,176	354,297	0,029	-0,042
-102,162	-174,780	0,081	0,002
-101,147	140,664	-0,062	0,060
-100,132	800,000	0,066	0,144
-99,118	278,257	0,036	-0,046
-98,103	800,000	-0,009	-0,022
-97,089	196,970	0,088	-0,097
-96,074	800,000	0,046	0,115
-95,059	165,160	0,048	0,049
-94,045	41,161	-0,135	0,088
-93,030	800,000	-0,025	0,064
-92,016	800,000	-0,061	-0,160
-91,001	-99,280	0,163	0,030
-89,986	59,328	0,133	0,095
-88,972	800,000	0,057	0,123
-87,957	1,714	-0,127	0,066
-86,943	72,880	-0,111	0,084
-85,928	520,936	-0,031	-0,053
-84,913	-151,006	0,071	0,004
-83,899	184,334	-0,018	-0,020
-82,884	129,148	-0,060	-0,056
-81,870	800,000	-0,017	0,038
-80,855	-200,000	0,026	0,166
-79,840	346,582	-0,047	0,067
-78,826	-87,934	-0,059	0,013
-77,811	800,000	0,074	-0,156
-76,797	-74,019	-0,046	0,012
-75,782	800,000	-0,054	0,146
-74,767	-200,000	-0,008	0,096
-73,753	-200,000	-0,010	0,060
-72,738	-103,225	-0,014	0,002
-71,724	-92,208	-0,063	0,013
-70,709	-109,699	-0,146	-0,022
-69,694	800,000	0,036	-0,089
-68,680	700,625	0,095	-0,182
-67,665	-138,794	0,076	0,006
-66,651	73,304	0,096	0,072
-65,636	58,635	0,034	0,024
-64,622	180,096	-0,072	-0,077
-63,607	786,878	-0,064	-0,128
-62,592	-200,000	0,008	0,033
-61,578	800,000	0,037	-0,083
-60,563	-200,000	0,006	0,087
-59,549	-200,000	0,001	-0,088
-58,534	-113,873	-1,348	-0,188
-57,519	469,741	-0,810	-1,323
-56,505	-200,000	-0,846	-4,402
-55,490	-32,631	0,622	-0,250
-54,476	800,000	4,896	11,443
-53,461	-200,000	14,342	253,100
-52,446	-200,000	693,772	2239,998
-51,432	580,515	1622,063	2890,470
-50,417	117,662	1630,383	1453,449
-49,403	74,005	1284,945	975,477
-48,388	37,766	1021,776	655,969
-47,373	23,934	980,295	583,986
-46,359	23,245	969,703	575,399
-45,344	22,136	965,510	569,278
-44,330	22,069	964,077	568,192
-43,315	21,959	962,656	566,972
-42,300	21,937	961,424	566,155
-41,286	22,039	960,260	565,777
-40,271	21,932	959,613	565,026
-39,257	21,879	958,789	564,349
-38,242	21,923	957,775	563,870
-37,227	21,908	956,880	563,272
-36,213	21,950	955,849	562,778
-35,198	21,871	955,063	562,039
-34,184	21,888	954,382	561,672
-33,169	21,859	953,738	561,177
-32,154	22,003	952,537	560,910
-31,140	21,922	951,750	560,164
-30,125	22,017	950,972	559,988
-29,111	21,968	950,156	559,329
-28,096	21,968	949,358	558,838
-27,082	21,954	948,944	558,527
-26,067	21,966	947,864	557,906
-25,052	21,937	947,464	557,557
-24,038	21,916	946,624	556,974
-23,023	21,947	945,942	556,649
-22,009	22,001	945,343	556,448
-20,994	21,981	944,821	556,052
-19,979	22,010	944,160	555,735
-18,965	21,923	943,575	555,092
-17,950	21,996	942,862	554,881
-16,936	21,957	942,169	554,327
-15,921	21,971	941,348	553,867
-14,906	21,822	940,757	553,025
-13,892	21,761	940,244	552,507
-12,877	21,820	939,528	552,252
-11,863	21,796	939,061	551,881
-10,848	21,864	938,380	551,674
-9,833	21,883	937,850	551,400
-8,819	21,916	937,268	551,140
-7,804	21,736	936,848	550,301
-6,790	21,826	936,152	550,156
-5,775	21,834	935,513	549,783
-4,760	21,868	934,816	549,458
-3,746	21,805	934,151	548,847
-2,731	21,699	933,623	548,182
-1,717	21,650	932,868	547,564
-0,702	21,635	932,202	547,105
0,313	21,486	931,676	547,152
1,327	23,994	929,072	553,432
2,342	31,665	806,989	501,425
3,356	26,827	507,689	307,205
4,371	2,823	372,941	195,240
5,386	-0,043	355,716	182,704
6,400	-1,793	349,380	177,331
7,415	-2,719	346,617	174,808
8,429	-2,715	345,207	174,087
9,444	-2,821	344,187	173,431
10,459	-2,807	343,452	173,062
11,473	-2,848	342,783	172,661
12,488	-2,579	342,326	172,733
13,502	-2,443	341,680	172,552
14,517	-2,675	341,176	172,009
15,531	-2,894	340,595	171,444
16,546	-2,922	340,202	171,198
17,561	-2,846	339,717	171,027
18,575	-2,799	339,362	170,889
19,590	-2,991	339,039	170,487
20,604	-2,857	338,690	170,452
21,619	-2,860	338,266	170,220
22,634	-2,941	337,967	169,961
23,648	-2,997	337,676	169,735
24,663	-2,834	337,259	169,699
25,677	-3,013	337,063	169,378
26,692	-2,860	336,671	169,343
27,707	-2,975	336,455	169,085
28,721	-3,008	336,024	168,816
29,736	-2,944	335,731	168,727
30,750	-3,029	335,397	168,446
31,765	-2,960	335,186	168,405
32,780	-2,968	334,918	168,246
33,794	-2,915	334,615	168,140
34,809	-3,053	334,327	167,822
35,823	-2,929	333,962	167,766
36,838	-2,895	333,553	167,584
37,853	-3,202	333,565	167,224
38,867	-2,994	333,088	167,207
39,882	-3,002	332,868	167,073
40,896	-2,980	332,620	166,959
41,911	-2,999	332,308	166,766
42,926	-2,806	331,975	166,803
43,940	-2,972	331,518	166,370
44,955	-3,057	331,577	166,288
45,969	-3,131	331,266	166,033
46,984	-3,317	330,889	165,618
47,999	-3,272	330,647	165,534
49,013	-3,293	330,253	165,297
50,028	-3,526	330,052	164,918
51,042	-3,541	329,832	164,777
52,057	-3,525	329,520	164,625
53,071	-3,478	329,268	164,537
54,086	-3,312	328,972	164,561
55,101	-3,392	328,857	164,399
56,115	-3,329	328,764	164,409
57,130	-2,883	328,557	164,793
58,144	-2,907	328,395	164,670
59,159	-2,891	327,963	164,457
60,174	-2,781	327,680	164,423
61,188	-2,887	327,452	164,176
62,203	-2,959	327,367	164,038
63,217	-2,961	327,097	163,885
64,232	-2,886	326,738	163,775
65,247	-2,564	326,516	164,010
66,261	-2,717	326,219	163,674
67,276	-3,018	325,948	163,188
68,290	-3,077	325,651	162,959
69,305	-3,059	325,310	162,794
70,320	-3,203	325,210	162,568
71,334	-2,824	324,659	162,700
72,349	-2,895	324,901	162,728
73,363	-2,711	324,414	162,674
74,378	-2,708	324,073	162,492
75,393	-2,833	323,867	162,236
76,407	-2,799	323,716	162,183
77,422	-2,793	323,260	161,946
78,436	-2,856	323,424	161,945
79,451	-2,832	322,947	161,718
80,466	-3,011	322,581	161,323
81,480	-3,020	322,278	161,146
82,495	-3,170	322,030	160,843
83,509	-3,196	322,008	160,790
84,524	-3,164	321,605	160,609
85,539	-3,093	321,405	160,572
86,553	-3,110	321,159	160,417
87,568	-3,145	320,899	160,234
88,582	-3,159	320,630	160,070
89,597	-3,131	320,419	159,981
90,611	-3,148	320,259	159,868
91,626	-2,957	319,992	159,930
92,641	-2,990	319,823	159,796
93,655	-2,961	319,490	159,646
94,670	-3,169	319,255	159,288
95,684	-3,153	319,106	159,216
96,699	-3,037	318,869	159,210
97,714	-3,220	318,716	158,921
98,728	-3,144	318,262	158,762
99,743	-3,202	318,093	158,602
100,757	-3,289	317,844	158,368
101,772	-3,347	317,705	158,223
102,787	-3,106	317,370	158,303
103,801	-2,997	317,146	158,295
104,816	-3,089	316,885	158,051
105,830	-3,008	316,895	158,129
106,845	-2,859	316,642	158,149
107,860	-3,017	316,357	157,822
108,874	-2,949	316,108	157,758
109,889	-2,921	315,793	157,616
110,903	-2,983	315,493	157,386
111,918	-3,003	315,523	157,365
112,933	-3,024	315,183	157,160
113,947	-2,853	314,984	157,230
114,962	-2,992	314,888	157,018
115,976	-3,100	314,668	156,779
116,991	-2,899	314,262	156,778
118,006	-3,119	314,118	156,456
119,020	-2,996	314,016	156,524
120,035	-2,991	313,848	156,431
121,049	-2,784	313,509	156,469
122,064	-3,034	313,316	156,093
123,079	-3,037	313,028	155,931
124,093	-2,987	312,807	155,861
125,108	-2,983	312,561	155,728
126,122	-3,328	312,331	155,234
127,137	-3,306	312,075	155,116
128,151	-3,200	311,764	155,060
129,166	-3,145	311,433	154,939
130,181	-3,251	311,590	154,891
131,195	-3,236	311,116	154,658
132,210	-2,963	310,901	154,826
133,224	-2,988	310,955	154,812
134,239	-3,074	310,645	154,554
135,254	-2,985	310,508	154,566
136,268	-2,989	310,159	154,375
137,283	-3,252	309,847	153,928
138,297	-3,145	309,653	153,931
139,312	-2,973	309,334	153,939
140,327	-2,972	309,164	153,842
141,341	-2,703	309,075	154,067
142,356	-2,833	309,119	153,938
143,370	-2,609	308,752	153,978
144,385	-2,657	308,433	153,754
145,400	-2,876	308,419	153,503
146,414	-2,668	308,160	153,579
147,429	-2,756	308,034	153,410
148,443	-2,812	307,648	153,146
149,458	-2,611	307,399	153,218
150,473	-2,662	307,200	153,052
151,487	-2,632	306,927	152,934
152,502	-2,698	306,762	152,769
153,516	-2,715	306,555	152,634
154,531	-2,682	306,450	152,603
155,546	-2,606	306,114	152,501
156,560	-2,621	305,711	152,272
157,575	-2,836	305,608	151,983
158,589	-2,778	305,380	151,916
159,604	-2,651	305,248	151,968
160,619	-2,799	305,084	151,721
161,633	-2,824	304,916	151,598
162,648	-2,748	304,699	151,555
163,662	-2,604	304,572	151,627
164,677	-2,668	304,320	151,422
165,692	-2,701	304,160	151,294
166,706	-2,779	303,880	151,061
167,721	-2,701	303,631	151,004
168,735	-2,650	303,498	150,977
169,750	-2,662	303,421	150,913
170,764	-2,611	303,366	150,925
171,779	-2,682	303,183	150,747
172,794	-2,677	302,819	150,557
173,808	-2,814	302,522	150,256
174,823	-3,065	302,215	149,833
175,837	-3,161	301,958	149,594
176,852	-2,753	301,831	149,936
177,867	-2,602	301,733	150,028
178,881	-2,558	301,699	150,043
179,896	-2,514	301,376	149,913
180,910	-2,668	301,275	149,693
181,925	-2,656	300,998	149,554
182,940	-2,601	300,745	149,471
183,954	-2,566	300,638	149,440
184,969	-2,646	300,434	149,244
185,983	-2,626	300,153	149,112
186,998	-2,641	299,965	148,989
188,013	-2,658	299,660	148,808
189,027	-2,667	299,524	148,717
190,042	-2,649	299,361	148,642
191,056	-2,402	299,071	148,734
192,071	-2,501	299,055	148,612
193,086	-2,437	298,790	148,533
194,100	-2,354	298,434	148,427
195,115	-2,532	298,289	148,162
196,129	-2,579	298,102	148,008
197,144	-2,522	297,889	147,946
198,159	-2,609	297,659	147,732
199,173	-2,587	297,532	147,677
200,188	-2,426	297,354	147,737
201,202	-2,684	297,024	147,301
202,217	-2,962	296,710	146,853
203,232	-3,092	296,470	146,590
204,246	-2,819	296,266	146,751
205,261	-2,455	296,132	147,036
206,275	-2,519	296,061	146,923
207,290	-2,586	295,946	146,786
208,304	-2,554	295,724	146,694
209,319	-2,496	295,310	146,535
210,334	-2,584	295,158	146,358
211,348	-2,653	295,082	146,239
212,363	-2,504	294,738	146,203
213,377	-2,607	294,540	145,989
214,392	-2,552	294,545	146,034
215,407	-2,659	294,159	145,723
216,421	-2,897	293,956	145,373
217,436	-2,950	293,799	145,229
218,450	-2,823	293,668	145,278
219,465	-2,771	293,508	145,238
220,480	-2,597	293,215	145,252
221,494	-2,508	293,008	145,225
222,509	-2,707	292,884	144,954
223,523	-2,736	292,802	144,871
224,538	-2,479	292,418	144,922
225,553	-2,548	292,417	144,841
226,567	-2,534	292,195	144,732
227,582	-2,502	292,013	144,660
228,596	-2,585	291,822	144,471
229,611	-2,371	291,746	144,631
230,626	-2,641	291,432	144,197
231,640	-2,740	291,056	143,900
232,655	-2,955	290,972	143,636
233,669	-3,034	290,585	143,354
234,684	-2,906	290,413	143,381
235,699	-3,073	290,396	143,197
236,713	-2,864	290,143	143,264
237,728	-2,914	290,021	143,143
238,742	-2,720	289,784	143,201
239,757	-2,668	289,671	143,184
240,772	-2,744	289,433	142,980
241,786	-2,716	289,313	142,935
242,801	-2,790	289,091	142,739
243,815	-2,813	288,940	142,630
244,830	-2,705	288,851	142,679
245,844	-2,910	288,563	142,325
246,859	-2,845	288,428	142,308
247,874	-2,862	288,119	142,126
248,888	-2,800	288,101	142,165
249,903	-2,723	287,843	142,101
250,917	-2,358	287,737	142,389
251,932	-2,385	287,677	142,321
252,947	-1,894	287,745	142,817
253,961	-2,160	287,239	142,296
254,976	-1,171	287,797	143,518
255,990	1,523	288,493	146,465
257,005	2,187	288,848	147,276
258,020	3,739	289,154	148,925
259,034	3,677	289,009	148,777
260,049	3,482	288,712	148,422
261,063	3,333	288,461	148,135
262,078	3,665	288,309	148,365
263,093	4,275	288,345	148,960
264,107	4,248	288,301	148,898
265,122	4,307	288,058	148,816
266,136	4,384	287,988	148,841
267,151	4,577	287,607	148,816
268,166	4,213	287,437	148,365
269,180	4,418	287,211	148,432
270,195	4,223	287,109	148,179
271,209	4,286	286,865	148,100
272,224	4,270	286,526	147,897
273,239	4,036	286,204	147,493
274,253	4,071	286,153	147,487
275,268	4,473	286,250	147,910
276,282	4,469	286,026	147,777
277,297	4,420	285,818	147,608
278,312	4,895	285,723	148,000
279,326	4,558	285,505	147,553
280,341	4,229	285,341	147,141
281,355	3,921	285,039	146,678
282,370	4,103	284,794	146,713
283,384	4,091	284,592	146,584
284,399	4,166	284,422	146,555
285,414	3,948	284,260	146,251
286,428	4,132	284,104	146,332
287,443	3,837	283,846	145,906
288,457	3,819	283,633	145,767
289,472	3,687	283,615	145,619
290,487	3,694	283,212	145,406
291,501	3,671	282,929	145,226
292,516	3,590	282,777	145,058
293,530	3,509	282,603	144,880
294,545	3,771	282,595	145,110
295,560	4,046	282,381	145,246
296,574	3,732	282,216	144,853
297,589	3,748	282,110	144,801
298,603	4,195	281,914	145,109
299,618	4,375	281,599	145,103
300,633	4,073	281,472	144,740
301,647	4,162	281,222	144,683
302,662	4,163	281,169	144,642
303,676	3,888	280,837	144,201
304,691	3,801	280,442	143,904
305,706	3,557	280,370	143,626
306,720	3,534	280,054	143,430
307,735	3,385	280,086	143,295
308,749	3,684	279,995	143,514
309,764	3,602	279,932	143,392
310,779	3,570	279,524	143,141
311,793	3,390	279,480	142,938
312,808	3,563	279,200	142,943
313,822	3,704	278,915	142,916
314,837	3,521	278,750	142,647
315,852	3,345	278,485	142,336
316,866	3,456	278,411	142,388
317,881	3,508	278,239	142,336
318,895	3,491	278,028	142,200
319,910	3,382	277,829	141,984
320,925	3,321	277,648	141,823
321,939	3,544	277,610	141,998
322,954	3,550	277,467	141,917
323,968	3,778	277,347	142,054
324,983	3,642	277,324	141,904
325,997	3,692	277,088	141,817
327,012	3,797	276,863	141,786
328,027	3,740	276,677	141,625
329,041	3,568	276,432	141,329
330,056	3,886	276,201	141,491
331,070	3,782	275,951	141,254
332,085	3,741	275,725	141,088
333,100	3,728	275,797	141,101
334,114	3,560	275,512	140,788
335,129	3,531	275,235	140,607
336,143	3,760	275,179	140,777
337,158	4,037	275,033	140,942
338,173	3,852	274,820	140,651
339,187	3,687	274,681	140,417
340,202	3,630	274,529	140,274
341,216	3,745	274,331	140,266
342,231	3,704	274,227	140,162
343,246	3,780	273,978	140,092
344,260	3,565	273,829	139,808
345,275	3,859	273,630	139,961
346,289	4,003	273,745	140,139
347,304	4,039	273,354	139,959
348,319	3,836	273,012	139,587
349,333	3,779	272,970	139,501
350,348	4,210	272,889	139,838
351,362	4,209	272,779	139,768
352,377	3,969	272,566	139,430
353,392	4,175	272,250	139,442
354,406	4,199	272,225	139,438
355,421	191,880	1330,048	1408,505
356,435	155,033	1459,008	1408,613
