DTS Sentinel unit serial number:	SN410029Multiplexer serial number:	ORYXHardware model number:	OX2-SRSoftware version number:	ORYX F/W v4,00 Oryx Data Collector v3.7.2.0data status	okinstallation	B4 Nyhavnadifferential loss correction	single-endedforward channel	channel 2reverse channel	N/Adate	2023/12/16time	13:55:13forward acquisition time	300,00reverse acquisition time	0,00gamma	499,1914k internal	0,3125k external	0,3125temperature offset calibration	1,0000default loss term (dB/km)	0,3820temperature slope calibration	1,0000multiplexer offset coefficient	1,0000multiplexer slope coefficient	1,0000fibre end	0,00T internal ref (°C)	25,12T ext. ref 1 (°C)	11,30T ext. ref 2 (°C)	11,50length (m)	temperature (°C)	Stokes	anti-Stokes-744,400	-200,000	-0,008	-0,064
-743,385	77,786	-0,174	0,138
-742,371	-200,000	0,014	-0,060
-741,356	227,050	-0,122	0,148
-740,342	-109,650	0,050	0,008
-739,327	-162,099	-0,214	0,008
-738,312	-93,794	-0,075	-0,015
-737,298	800,000	-0,064	0,202
-736,283	800,000	-0,014	0,040
-735,269	95,815	-0,133	0,113
-734,254	289,150	-0,043	-0,058
-733,239	-171,791	-0,404	-0,010
-732,225	254,464	0,046	-0,059
-731,210	210,927	-0,019	0,022
-730,196	92,067	0,042	0,035
-729,181	-135,076	-0,138	-0,012
-728,167	-28,521	-0,061	-0,026
-727,152	800,000	-0,020	0,050
-726,137	-51,287	-0,081	-0,028
-725,123	606,166	-0,064	-0,119
-724,108	54,161	0,149	-0,107
-723,094	800,000	-0,037	-0,091
-722,079	97,044	-0,082	-0,070
-721,064	-110,319	0,117	0,018
-720,050	492,748	0,015	0,026
-719,035	800,000	-0,032	0,092
-718,021	134,704	0,040	0,038
-717,006	800,000	0,004	0,008
-715,991	-33,402	-0,110	-0,045
-714,977	-32,720	-0,127	-0,052
-713,962	800,000	-0,020	-0,061
-712,948	-113,612	0,138	-0,020
-711,933	-60,285	0,072	-0,023
-710,918	41,034	-0,052	-0,035
-709,904	-200,000	-0,036	-0,178
-708,889	-51,571	-0,139	-0,048
-707,875	130,482	-0,022	-0,021
-706,860	800,000	-0,057	-0,125
-705,845	-200,000	-0,001	-0,113
-704,831	800,000	0,005	-0,012
-703,816	800,000	-0,021	0,060
-702,802	-200,000	-0,001	-0,054
-701,787	-89,287	-0,191	0,042
-700,772	149,407	-0,037	0,038
-699,758	37,239	-0,110	-0,072
-698,743	14,787	-0,063	-0,037
-697,729	46,520	-0,099	-0,068
-696,714	800,000	-0,035	0,092
-695,699	138,929	-0,046	-0,045
-694,685	-200,000	-0,058	-0,222
-693,670	383,194	-0,041	-0,063
-692,656	-200,000	0,006	0,025
-691,641	-200,000	0,018	-0,168
-690,627	-200,000	0,018	0,081
-689,612	-31,007	0,066	0,028
-688,597	-200,000	-0,001	0,078
-687,583	-14,540	-0,074	-0,035
-686,568	-141,228	-0,108	-0,008
-685,554	-40,187	-0,079	0,030
-684,539	-141,158	0,153	0,011
-683,524	136,601	-0,112	0,109
-682,510	282,542	-0,034	0,046
-681,495	261,940	-0,071	-0,091
-680,481	-200,000	-0,002	-0,028
-679,466	-103,087	-0,104	-0,018
-678,451	-135,417	0,070	0,006
-677,437	-53,247	-0,139	-0,047
-676,422	43,658	0,033	-0,022
-675,408	-200,000	-0,010	0,045
-674,393	-37,864	0,114	-0,045
-673,378	-30,626	-0,113	-0,047
-672,364	21,823	0,105	-0,064
-671,349	800,000	-0,069	-0,159
-670,335	-118,332	0,033	-0,004
-669,320	273,351	-0,072	-0,095
-668,305	-78,050	-0,075	0,019
-667,291	-200,000	0,026	-0,135
-666,276	102,675	-0,137	-0,119
-665,262	-186,287	-0,061	0,001
-664,247	321,193	-0,044	0,062
-663,232	190,307	-0,064	-0,072
-662,218	72,194	0,081	-0,062
-661,203	800,000	0,029	0,061
-660,189	-200,000	0,007	-0,125
-659,174	-175,181	0,048	0,001
-658,159	116,074	0,009	0,008
-657,145	800,000	0,031	-0,084
-656,130	-25,383	-0,061	-0,027
-655,116	800,000	0,019	-0,049
-654,101	-200,000	-0,004	-0,092
-653,086	-200,000	0,020	0,178
-652,072	701,477	-0,008	-0,016
-651,057	-85,304	-0,134	-0,031
-650,043	800,000	0,061	-0,148
-649,028	800,000	0,021	-0,056
-648,014	645,640	0,009	0,017
-646,999	-124,562	0,144	-0,016
-645,984	-180,191	0,026	0,000
-644,970	-82,086	-0,023	-0,006
-643,955	118,414	-0,106	-0,097
-642,941	9,629	-0,115	-0,065
-641,926	72,738	0,121	-0,094
-640,911	-200,000	-0,004	0,031
-639,897	-127,267	-0,104	0,011
-638,882	206,578	-0,041	0,048
-637,868	113,149	-0,085	0,077
-636,853	800,000	-0,059	-0,166
-635,838	800,000	-0,021	-0,057
-634,824	139,352	0,099	0,096
-633,809	800,000	-0,019	-0,055
-632,795	-23,147	-0,049	0,022
-631,780	800,000	-0,033	0,090
-630,765	800,000	0,010	-0,034
-629,751	-200,000	-0,011	-0,138
-628,736	-200,000	-0,018	-0,072
-627,722	433,507	-0,035	0,056
-626,707	-200,000	0,019	0,096
-625,692	-200,000	-0,030	0,115
-624,678	-65,094	0,029	-0,009
-623,663	234,754	-0,015	0,018
-622,649	142,006	0,048	-0,047
-621,634	-200,000	-0,006	0,033
-620,619	645,386	0,062	-0,117
-619,605	800,000	0,037	-0,094
-618,590	-110,937	-0,073	-0,011
-617,576	-200,000	0,004	0,083
-616,561	-161,939	-0,094	0,003
-615,546	462,705	-0,074	0,123
-614,532	-126,388	-0,065	-0,007
-613,517	-64,189	-0,114	-0,034
-612,503	-24,145	0,075	-0,033
-611,488	-90,644	-0,060	0,013
-610,474	249,462	-0,053	0,067
-609,459	27,468	0,026	-0,016
-608,444	158,721	-0,034	-0,035
-607,430	110,489	-0,083	0,074
-606,415	-200,000	0,004	0,086
-605,401	243,414	-0,053	0,066
-604,386	423,363	-0,085	0,136
-603,371	-200,000	0,010	0,077
-602,357	-200,000	0,018	0,081
-601,342	666,085	-0,043	-0,082
-600,328	-161,315	0,100	-0,004
-599,313	-66,303	-0,190	-0,056
-598,298	107,021	-0,031	-0,027
-597,284	162,477	0,092	0,095
-596,269	55,627	-0,095	0,068
-595,255	-200,000	0,017	-0,058
-594,240	416,640	-0,020	-0,031
-593,225	-95,543	-0,050	0,010
-592,211	-148,059	-0,068	0,004
-591,196	-200,000	0,002	0,200
-590,182	89,963	0,106	0,088
-589,167	-154,416	-0,156	0,008
-588,152	267,051	-0,066	0,086
-587,138	106,019	-0,092	-0,081
-586,123	314,020	-0,059	-0,083
-585,109	169,841	-0,109	0,115
-584,094	31,699	-0,030	0,019
-583,079	-157,281	0,094	-0,004
-582,065	53,726	-0,084	0,060
-581,050	225,839	0,031	0,038
-580,036	316,847	0,053	-0,074
-579,021	199,982	-0,028	-0,032
-578,006	-81,906	-0,080	0,019
-576,992	480,568	0,078	-0,132
-575,977	-122,907	-0,157	-0,018
-574,963	800,000	0,014	-0,037
-573,948	482,954	0,010	0,017
-572,934	59,118	-0,044	0,032
-571,919	339,656	-0,073	-0,105
-570,904	-200,000	-0,001	0,071
-569,890	57,125	-0,051	-0,037
-568,875	-200,000	0,002	0,050
-567,861	1,086	-0,039	0,021
-566,846	-200,000	0,011	0,086
-565,831	800,000	0,073	0,178
-564,817	800,000	0,023	-0,051
-563,802	-181,526	-0,207	0,003
-562,788	-200,000	0,008	-0,046
-561,773	26,349	-0,106	0,066
-560,758	-73,137	0,104	0,028
-559,744	-61,292	0,008	0,003
-558,729	-86,357	0,054	0,012
-557,715	216,751	-0,069	-0,081
-556,700	-200,000	0,031	-0,104
-555,685	-200,000	0,003	-0,195
-554,671	167,912	-0,088	-0,093
-553,656	629,397	-0,066	0,123
-552,642	-58,166	-0,170	0,054
-551,627	521,519	-0,029	0,051
-550,612	-200,000	-0,011	0,098
-549,598	672,271	0,007	-0,013
-548,583	294,829	-0,070	0,095
-547,569	-26,898	-0,157	0,067
-546,554	326,455	0,044	-0,062
-545,539	-24,086	0,091	-0,040
-544,525	-200,000	0,024	0,147
-543,510	-135,479	0,095	-0,008
-542,496	-200,000	-0,015	0,064
-541,481	-18,675	-0,106	0,049
-540,466	58,151	-0,085	-0,061
-539,452	-200,000	0,014	0,066
-538,437	-68,491	0,146	0,041
-537,423	-45,103	0,099	-0,036
-536,408	800,000	-0,025	-0,072
-535,393	-52,511	0,056	-0,019
-534,379	381,468	-0,093	-0,141
-533,364	-200,000	-0,006	-0,070
-532,350	800,000	0,054	0,111
-531,335	-54,871	0,082	0,027
-530,321	3,587	0,017	0,009
-529,306	800,000	0,033	0,088
-528,291	800,000	-0,038	-0,122
-527,277	159,679	0,043	-0,044
-526,262	-61,429	-0,088	-0,027
-525,248	800,000	0,042	0,118
-524,233	-113,758	-0,053	-0,007
-523,218	54,584	-0,083	-0,059
-522,204	278,620	0,020	0,027
-521,189	800,000	-0,052	0,119
-520,175	-107,009	-0,121	-0,020
-519,160	-14,819	-0,131	0,062
-518,145	240,051	0,012	0,015
-517,131	-141,677	0,171	-0,013
-516,116	357,623	-0,043	0,063
-515,102	-81,651	0,073	0,017
-514,087	86,350	-0,048	-0,039
-513,072	-26,744	-0,124	-0,053
-512,058	215,141	-0,035	0,042
-511,043	-94,680	0,047	0,009
-510,029	-46,490	-0,043	0,015
-509,014	-13,138	0,069	-0,033
-507,999	138,911	0,081	0,079
-506,985	-200,000	-0,005	-0,083
-505,970	-200,000	-0,015	-0,171
-504,956	101,677	0,074	-0,064
-503,941	800,000	0,019	-0,057
-502,926	-200,000	0,024	-0,120
-501,912	-200,000	0,005	0,089
-500,897	88,480	0,076	0,062
-499,883	-200,000	-0,011	0,169
-498,868	-90,263	-0,059	-0,013
-497,853	-200,000	0,012	-0,060
-496,839	-39,245	0,069	0,026
-495,824	-109,171	0,108	0,017
-494,810	194,282	0,095	-0,106
-493,795	-9,562	-0,059	0,029
-492,781	1,988	0,033	0,017
-491,766	-113,482	-0,046	-0,007
-490,751	-79,682	-0,098	0,024
-489,737	800,000	0,034	-0,092
-488,722	800,000	0,051	-0,114
-487,708	-200,000	-0,029	0,115
-486,693	-42,120	0,074	0,028
-485,678	395,651	-0,062	0,096
-484,664	-200,000	-0,029	-0,114
-483,649	284,727	-0,058	-0,077
-482,635	8,922	0,004	0,002
-481,620	164,024	0,141	-0,147
-480,605	697,117	-0,009	0,017
-479,591	800,000	0,049	0,111
-478,576	800,000	0,039	-0,084
-477,562	284,056	-0,115	0,153
-476,547	800,000	-0,010	0,024
-475,532	576,427	0,052	0,094
-474,518	-200,000	-0,003	-0,057
-473,503	93,705	0,018	0,015
-472,489	-20,119	-0,147	-0,067
-471,474	-38,250	0,124	0,048
-470,459	-173,768	-0,085	0,002
-469,445	113,394	0,030	-0,027
-468,430	-200,000	-0,007	-0,042
-467,416	275,347	0,042	0,055
-466,401	800,000	-0,028	0,073
-465,386	-32,460	-0,018	-0,007
-464,372	800,000	-0,023	0,062
-463,357	-27,970	0,151	-0,064
-462,343	-62,917	0,057	-0,017
-461,328	333,410	-0,066	-0,094
-460,313	-110,006	0,026	-0,004
-459,299	-200,000	0,020	-0,094
-458,284	11,515	-0,175	-0,098
-457,270	282,421	-0,077	-0,102
-456,255	420,709	-0,071	-0,113
-455,241	109,330	0,047	-0,042
-454,226	800,000	-0,006	0,019
-453,211	-84,907	0,109	-0,025
-452,197	-26,767	0,116	0,050
-451,182	-88,346	0,090	0,020
-450,168	-73,217	0,165	-0,044
-449,153	-200,000	-0,014	0,103
-448,138	800,000	0,009	-0,024
-447,124	-48,225	0,063	0,022
-446,109	-200,000	-0,003	0,035
-445,095	45,626	0,024	0,016
-444,080	-200,000	0,003	0,025
-443,065	-50,880	-0,155	0,053
-442,051	-2,961	0,012	-0,006
-441,036	-200,000	-0,015	-0,132
-440,022	-89,387	0,054	0,012
-439,007	-200,000	0,023	-0,086
-437,992	-200,000	-0,002	-0,038
-436,978	356,810	-0,041	0,061
-435,963	-200,000	0,004	0,027
-434,949	-200,000	0,006	0,127
-433,934	-54,978	-0,068	0,022
-432,919	-197,595	0,042	0,000
-431,905	515,613	-0,045	-0,077
-430,890	-131,839	0,086	-0,008
-429,876	800,000	0,053	0,145
-428,861	800,000	0,030	-0,082
-427,846	-160,490	-0,036	-0,001
-426,832	386,801	-0,058	-0,088
-425,817	291,582	-0,027	-0,036
-424,803	155,671	0,041	-0,041
-423,788	-200,000	0,007	0,057
-422,773	280,778	-0,015	0,020
-421,759	-11,208	0,126	0,061
-420,744	-55,032	-0,074	-0,024
-419,730	-200,000	-0,004	-0,104
-418,715	431,285	-0,018	0,029
-417,701	800,000	-0,062	-0,128
-416,686	257,053	0,067	-0,085
-415,671	-100,904	0,042	-0,008
-414,657	112,654	-0,060	-0,053
-413,642	-72,754	0,155	0,042
-412,628	307,258	0,047	0,065
-411,613	-32,246	-0,018	0,007
-410,598	-200,000	-0,005	-0,117
-409,584	-200,000	0,006	-0,082
-408,569	-101,518	-0,070	-0,012
-407,555	-41,456	-0,072	0,027
-406,540	183,886	-0,081	0,088
-405,525	-36,154	-0,093	0,037
-404,511	40,778	0,119	-0,079
-403,496	800,000	-0,024	-0,072
-402,482	-200,000	-0,018	-0,113
-401,467	675,137	0,071	0,137
-400,452	48,153	0,099	0,068
-399,438	-27,935	-0,127	0,054
-398,423	-90,694	0,118	-0,025
-397,409	-46,858	-0,129	-0,046
-396,394	-200,000	-0,000	0,045
-395,379	338,171	-0,046	-0,065
-394,365	165,760	0,108	-0,112
-393,350	102,659	0,099	0,086
-392,336	250,240	0,093	0,116
-391,321	800,000	0,032	0,097
-390,306	-133,768	0,102	0,009
-389,292	607,481	-0,043	0,079
-388,277	-97,423	-0,032	-0,006
-387,263	-200,000	0,013	0,082
-386,248	-92,517	-0,036	-0,007
-385,233	-59,798	0,080	-0,025
-384,219	-15,469	0,059	0,027
-383,204	-200,000	0,006	-0,026
-382,190	298,056	0,013	0,018
-381,175	-1,336	0,072	0,037
-380,160	-200,000	-0,018	-0,060
-379,146	7,153	0,159	-0,087
-378,131	-200,000	0,004	0,058
-377,117	-110,038	0,066	-0,010
-376,102	-200,000	0,007	-0,126
-375,088	-20,228	-0,153	-0,069
-374,073	800,000	0,025	-0,075
-373,058	-200,000	0,018	0,113
-372,044	-121,928	0,067	0,008
-371,029	800,000	-0,043	-0,102
-370,015	-106,902	-0,050	0,008
-369,000	93,195	-0,085	-0,070
-367,985	643,716	0,040	-0,076
-366,971	-89,113	-0,008	-0,002
-365,956	-30,684	0,023	-0,010
-364,942	442,427	0,047	0,076
-363,927	167,692	0,088	-0,092
-362,912	16,976	0,040	0,023
-361,898	4,875	0,097	-0,052
-360,883	119,083	-0,051	0,046
-359,869	800,000	-0,043	0,112
-358,854	515,363	0,077	-0,132
-357,839	688,790	0,050	0,096
-356,825	216,929	0,016	-0,018
-355,810	-42,824	-0,032	0,012
-354,796	-97,396	-0,059	-0,011
-353,781	-84,794	0,042	-0,010
-352,766	758,068	-0,035	-0,071
-351,752	196,896	-0,037	0,042
-350,737	-200,000	-0,008	0,035
-349,723	-60,118	-0,050	-0,016
-348,708	486,932	-0,098	0,164
-347,693	800,000	-0,013	-0,033
-346,679	-200,000	0,005	-0,084
-345,664	-96,258	0,154	-0,030
-344,650	56,633	-0,018	-0,013
-343,635	35,625	0,085	0,054
-342,620	-200,000	-0,007	0,045
-341,606	95,743	0,049	-0,041
-340,591	800,000	-0,045	0,093
-339,577	-29,070	-0,097	0,041
-338,562	134,908	-0,049	-0,047
-337,548	800,000	0,022	-0,046
-336,533	-61,698	-0,049	0,015
-335,518	197,087	-0,064	-0,072
-334,504	111,631	0,040	0,035
-333,489	-65,013	-0,130	-0,038
-332,475	796,136	-0,018	-0,036
-331,460	-150,035	-0,088	0,005
-330,445	-200,000	0,029	0,122
-329,431	800,000	-0,032	-0,091
-328,416	756,366	0,012	0,023
-327,402	-23,437	0,026	-0,011
-326,387	32,040	-0,063	-0,040
-325,372	57,833	-0,022	0,016
-324,358	-47,314	0,098	0,035
-323,343	78,603	0,068	-0,053
-322,329	-87,744	-0,072	-0,016
-321,314	-200,000	0,024	0,090
-320,299	-88,806	0,137	0,029
-319,285	-200,000	-0,002	-0,083
-318,270	105,106	0,034	-0,030
-317,256	382,808	0,074	0,112
-316,241	-22,967	-0,114	-0,050
-315,226	800,000	0,008	0,021
-314,212	-200,000	-0,000	0,022
-313,197	164,822	0,067	-0,069
-312,183	-200,000	0,006	0,061
-311,168	27,250	0,105	0,065
-310,153	29,501	-0,094	-0,058
-309,139	800,000	0,002	0,004
-308,124	-40,227	-0,027	-0,010
-307,110	-200,000	0,002	-0,038
-306,095	160,004	-0,052	0,053
-305,080	-200,000	0,019	-0,066
-304,066	155,127	-0,072	0,073
-303,051	38,362	0,055	0,036
-302,037	-159,153	-0,032	0,001
-301,022	449,378	0,043	-0,070
-300,008	-200,000	0,000	-0,061
-298,993	110,512	0,105	0,093
-297,978	-36,422	0,145	0,057
-296,964	480,455	-0,071	0,119
-295,949	-80,236	-0,058	0,014
-294,935	173,762	-0,076	0,080
-293,920	195,491	0,064	-0,071
-292,905	290,575	-0,038	-0,051
-291,891	114,215	0,043	0,038
-290,876	-140,283	0,068	-0,005
-289,862	69,519	0,044	0,033
-288,847	105,330	-0,117	-0,101
-287,832	48,698	-0,082	-0,056
-286,818	-58,786	-0,062	0,020
-285,803	800,000	-0,040	-0,112
-284,789	-200,000	0,020	-0,110
-283,774	-200,000	-0,025	0,097
-282,759	40,725	-0,071	0,047
-281,745	-27,005	-0,055	0,023
-280,730	-200,000	0,013	-0,085
-279,716	800,000	-0,035	-0,086
-278,701	-39,015	0,046	0,018
-277,686	-147,440	0,225	-0,014
-276,672	800,000	-0,067	0,139
-275,657	65,666	0,095	-0,070
-274,643	-200,000	-0,031	-0,115
-273,628	-130,706	-0,078	-0,008
-272,613	517,679	-0,124	-0,213
-271,599	94,918	-0,094	0,078
-270,584	46,877	0,100	0,068
-269,570	-200,000	0,010	0,052
-268,555	-66,585	-0,057	0,016
-267,540	800,000	0,018	0,044
-266,526	-79,755	-0,123	-0,030
-265,511	642,051	-0,024	-0,046
-264,497	-200,000	0,016	-0,054
-263,482	-27,948	0,079	0,033
-262,467	687,372	-0,056	0,107
-261,453	-78,125	0,079	-0,020
-260,438	109,581	0,028	-0,025
-259,424	775,874	-0,055	-0,111
-258,409	-120,825	-0,057	-0,007
-257,395	180,052	-0,103	0,110
-256,380	-0,521	-0,027	-0,014
-255,365	800,000	-0,013	0,029
-254,351	-135,760	-0,098	0,008
-253,336	800,000	0,037	-0,110
-252,322	-200,000	0,001	-0,073
-251,307	800,000	0,038	0,115
-250,292	303,750	0,013	0,018
-249,278	262,771	-0,037	-0,047
-248,263	-200,000	-0,004	-0,015
-247,249	-200,000	-0,011	0,062
-246,234	44,448	-0,020	-0,014
-245,219	800,000	0,015	-0,034
-244,205	-62,047	0,069	0,021
-243,190	-151,690	0,088	0,005
-242,176	-200,000	-0,008	-0,096
-241,161	-32,522	0,198	0,080
-240,146	-159,592	0,164	-0,007
-239,132	-200,000	0,014	0,061
-238,117	800,000	0,015	-0,032
-237,103	704,038	-0,086	-0,167
-236,088	4,530	0,040	-0,022
-235,073	800,000	0,058	0,148
-234,059	-200,000	0,006	-0,043
-233,044	20,045	0,147	0,086
-232,030	47,700	0,098	0,067
-231,015	-18,797	-0,030	0,013
-230,000	-200,000	0,020	0,207
-228,986	-200,000	0,004	0,022
-227,971	27,112	-0,042	0,026
-226,957	800,000	0,050	-0,123
-225,942	-66,426	-0,017	0,005
-224,927	-84,997	-0,111	-0,025
-223,913	-151,411	-0,121	0,006
-222,898	-94,316	-0,027	0,005
-221,884	800,000	0,024	-0,059
-220,869	-200,000	-0,001	-0,093
-219,855	800,000	0,038	0,104
-218,840	109,904	0,135	0,118
-217,825	-200,000	-0,012	-0,109
-216,811	-200,000	-0,029	-0,137
-215,796	37,121	0,074	0,047
-214,782	15,927	-0,050	0,028
-213,767	-152,843	0,163	0,008
-212,752	165,363	0,066	-0,069
-211,738	277,228	-0,074	0,096
-210,723	-37,441	0,067	0,026
-209,709	-200,000	-0,043	-0,203
-208,694	-104,111	0,055	0,009
-207,679	800,000	0,024	-0,068
-206,665	-161,378	0,143	0,005
-205,650	241,937	-0,063	0,077
-204,636	-6,132	0,103	0,051
-203,621	-200,000	-0,009	0,129
-202,606	225,520	-0,014	-0,016
-201,592	22,952	-0,062	-0,037
-200,577	51,645	0,066	0,046
-199,563	37,223	0,005	0,003
-198,548	361,417	0,030	-0,044
-197,533	-200,000	0,041	0,149
-196,519	50,918	-0,049	-0,034
-195,504	-200,000	0,018	-0,069
-194,490	800,000	0,024	-0,075
-193,475	-200,000	0,001	0,021
-192,460	800,000	0,077	-0,156
-191,446	8,053	0,155	0,085
-190,431	-200,000	-0,001	0,078
-189,417	27,545	0,083	-0,051
-188,402	520,431	-0,080	0,136
-187,387	79,563	-0,150	0,117
-186,373	170,652	-0,109	-0,114
-185,358	-200,000	0,005	0,021
-184,344	-138,524	0,037	0,003
-183,329	636,437	0,070	0,131
-182,315	136,085	-0,023	0,022
-181,300	-64,722	0,058	0,017
-180,285	-106,730	-0,116	-0,019
-179,271	-158,287	0,103	0,004
-178,256	83,875	-0,041	0,032
-177,242	215,683	0,056	-0,065
-176,227	-200,000	-0,002	-0,084
-175,212	649,232	0,097	-0,182
-174,198	-200,000	0,016	0,095
-173,183	-52,100	-0,184	-0,062
-172,169	311,379	-0,008	0,011
-171,154	-200,000	0,005	0,039
-170,139	-200,000	-0,001	0,132
-169,125	-200,000	0,007	0,097
-168,110	286,106	0,102	0,134
-167,096	-27,796	-0,023	-0,010
-166,081	800,000	-0,069	-0,154
-165,066	-74,779	-0,117	0,030
-164,052	-200,000	-0,002	-0,038
-163,037	-73,140	0,106	-0,028
-162,023	-168,176	0,090	-0,002
-161,008	-200,000	-0,023	-0,076
-159,993	322,511	0,099	0,137
-158,979	-119,706	-0,081	0,010
-157,964	-200,000	0,011	-0,084
-156,950	55,093	-0,085	-0,060
-155,935	800,000	0,047	-0,110
-154,920	-200,000	0,004	0,051
-153,906	-55,374	0,116	0,038
-152,891	15,514	0,137	0,078
-151,877	800,000	-0,022	-0,059
-150,862	106,432	-0,055	-0,047
-149,847	607,866	0,081	-0,147
-148,833	-109,599	-0,034	0,005
-147,818	408,986	-0,044	0,067
-146,804	-56,716	-0,017	-0,005
-145,789	800,000	0,043	0,099
-144,775	-68,961	0,037	-0,010
-143,760	3,780	0,079	0,042
-142,745	800,000	-0,051	-0,109
-141,731	800,000	-0,070	-0,158
-140,716	-200,000	0,009	0,103
-139,702	-200,000	-0,009	0,090
-138,687	-160,401	0,092	0,004
-137,672	-51,551	-0,135	0,046
-136,658	371,828	0,067	-0,099
-135,643	-200,000	-0,017	-0,073
-134,629	171,667	0,034	-0,036
-133,614	-200,000	0,004	0,047
-132,599	-36,280	0,122	0,048
-131,585	46,719	-0,058	0,039
-130,570	-36,819	-0,106	-0,041
-129,556	93,926	-0,071	-0,059
-128,541	197,526	-0,039	-0,043
-127,526	-106,306	0,064	0,010
-126,512	529,356	-0,045	0,077
-125,497	-200,000	-0,009	-0,033
-124,483	-200,000	-0,005	0,129
-123,468	-139,185	-0,045	-0,003
-122,453	-200,000	-0,000	0,122
-121,439	528,374	-0,057	-0,098
-120,424	-200,000	-0,021	0,101
-119,410	68,769	-0,123	-0,092
-118,395	-200,000	0,002	-0,094
-117,380	510,299	0,041	-0,069
-116,366	291,416	0,088	0,116
-115,351	431,720	-0,026	-0,040
-114,337	-200,000	-0,011	-0,063
-113,322	338,518	-0,145	-0,206
-112,307	800,000	0,022	-0,050
-111,293	101,659	-0,037	0,032
-110,278	-71,534	0,068	0,018
-109,264	75,969	0,057	-0,044
-108,249	-200,000	-0,006	0,035
-107,234	-200,000	-0,006	0,096
-106,220	-200,000	0,031	-0,101
-105,205	55,376	0,114	-0,080
-104,191	800,000	0,025	0,060
-103,176	-200,000	-0,023	0,149
-102,162	-35,694	0,020	-0,008
-101,147	-200,000	-0,017	0,125
-100,132	-5,039	-0,089	0,044
-99,118	599,338	-0,083	0,149
-98,103	-43,111	-0,102	0,037
-97,089	800,000	0,023	0,062
-96,074	800,000	-0,050	0,144
-95,059	-140,298	0,015	-0,001
-94,045	392,158	-0,059	-0,089
-93,030	55,026	-0,083	-0,058
-92,016	-11,625	0,142	0,067
-91,001	450,745	-0,087	0,140
-89,986	-200,000	0,003	-0,022
-88,972	-16,685	-0,083	0,038
-87,957	6,468	-0,079	-0,043
-86,943	-25,522	0,036	-0,016
-85,928	-11,056	-0,044	-0,021
-84,913	-132,914	-0,069	-0,006
-83,899	111,279	-0,083	-0,073
-82,884	125,085	0,137	0,125
-81,870	84,823	-0,052	-0,041
-80,855	346,906	0,029	0,042
-79,840	19,348	-0,050	-0,029
-78,826	114,589	-0,053	-0,047
-77,811	-27,592	-0,154	-0,065
-76,797	119,195	0,088	-0,079
-75,782	0,138	-0,111	0,057
-74,767	800,000	0,059	0,134
-73,753	271,345	0,081	0,104
-72,738	-52,751	0,067	-0,022
-71,724	163,224	0,070	-0,071
-70,709	188,889	-0,071	0,077
-69,694	73,578	-0,024	-0,018
-68,680	800,000	-0,059	-0,120
-67,665	-97,264	0,122	-0,023
-66,651	-75,959	0,084	-0,021
-65,636	-86,551	-0,064	-0,014
-64,622	23,557	0,026	0,015
-63,607	-200,000	0,005	0,107
-62,592	-110,155	0,030	0,004
-61,578	-200,000	-0,011	-0,068
-60,563	-200,000	0,003	-0,060
-59,549	31,790	-0,150	0,094
-58,534	-35,627	-1,094	0,428
-57,519	585,851	-0,945	-1,693
-56,505	-200,000	-0,759	-4,132
-55,490	264,576	0,530	-0,671
-54,476	800,000	4,589	11,433
-53,461	-200,000	11,615	224,663
-52,446	-200,000	672,640	2199,793
-51,432	595,114	1622,601	2923,164
-50,417	124,477	1654,638	1509,356
-49,403	76,874	1309,257	1006,807
-48,388	41,486	1040,117	681,276
-47,373	26,871	995,427	603,487
-46,359	26,066	985,659	594,871
-45,344	25,334	981,594	589,977
-44,330	25,233	980,108	588,725
-43,315	25,228	978,485	587,711
-42,300	25,195	977,362	586,904
-41,286	25,141	976,385	586,117
-40,271	25,196	975,404	585,685
-39,257	25,158	974,538	585,018
-38,242	25,230	973,441	584,574
-37,227	25,154	972,887	583,967
-36,213	25,191	971,793	583,409
-35,198	25,135	970,989	582,720
-34,184	25,133	970,387	582,331
-33,169	25,067	969,397	581,497
-32,154	25,157	968,326	581,124
-31,140	25,208	967,485	580,764
-30,125	25,175	966,800	580,221
-29,111	25,159	965,694	579,482
-28,096	25,163	965,077	579,101
-27,082	25,180	964,353	578,701
-26,067	25,139	963,694	578,148
-25,052	25,125	962,926	577,618
-24,038	25,120	962,381	577,253
-23,023	25,089	961,661	576,700
-22,009	25,172	960,856	576,463
-20,994	25,096	960,300	575,860
-19,979	25,165	959,609	575,643
-18,965	25,184	958,863	575,235
-17,950	25,150	958,229	574,723
-16,936	25,061	957,761	574,134
-15,921	25,129	956,845	573,781
-14,906	25,078	956,012	573,095
-13,892	25,046	955,588	572,714
-12,877	25,074	954,810	572,313
-11,863	25,013	954,087	571,663
-10,848	24,919	953,746	571,133
-9,833	25,110	953,170	571,378
-8,819	25,101	952,795	571,103
-7,804	25,075	951,936	570,483
-6,790	25,048	951,440	570,076
-5,775	25,093	950,872	569,857
-4,760	24,994	950,386	569,225
-3,746	25,039	949,658	568,912
-2,731	24,880	948,998	567,986
-1,717	24,860	948,262	567,458
-0,702	24,930	947,492	567,199
0,313	24,678	946,835	566,860
1,327	27,182	944,700	573,488
2,342	35,307	825,227	523,336
3,356	31,439	519,702	322,847
4,371	6,960	378,987	203,998
5,386	3,706	361,385	190,475
6,400	2,201	355,077	185,298
7,415	1,245	352,226	182,636
8,429	1,167	350,607	181,686
9,444	1,006	349,688	181,000
10,459	1,131	349,021	180,789
11,473	1,071	348,483	180,422
12,488	1,476	347,880	180,578
13,502	1,318	347,468	180,160
14,517	1,272	346,868	179,777
15,531	0,931	346,266	179,044
16,546	0,849	345,764	178,671
17,561	0,746	345,364	178,327
18,575	0,899	344,964	178,286
19,590	0,797	344,641	177,981
20,604	0,850	344,241	177,821
21,619	0,804	343,847	177,548
22,634	0,848	343,461	177,385
23,648	0,832	343,073	177,150
24,663	0,994	342,712	177,138
25,677	0,813	342,700	176,903
26,692	0,929	342,275	176,805
27,707	0,885	341,892	176,539
28,721	0,829	341,593	176,303
29,736	0,951	341,252	176,254
30,750	0,830	340,910	175,921
31,765	0,800	340,606	175,713
32,780	0,775	340,432	175,579
33,794	0,849	340,184	175,521
34,809	0,937	339,871	175,447
35,823	0,832	339,399	175,065
36,838	0,765	339,219	174,879
37,853	0,824	338,832	174,731
38,867	0,622	338,815	174,474
39,882	0,822	338,417	174,485
40,896	0,837	338,109	174,328
41,911	0,848	337,739	174,134
42,926	0,907	337,315	173,968
43,940	0,807	337,278	173,818
44,955	0,599	337,131	173,486
45,969	0,499	336,676	173,122
46,984	0,413	336,424	172,878
47,999	0,267	336,128	172,541
49,013	0,176	335,747	172,226
50,028	0,050	335,529	171,954
51,042	0,182	335,091	171,866
52,057	-0,101	335,062	171,511
53,071	0,087	334,653	171,502
54,086	0,051	334,524	171,379
55,101	0,118	334,365	171,359
56,115	0,405	334,052	171,511
57,130	0,655	333,999	171,754
58,144	1,091	333,766	172,117
59,159	1,034	333,736	172,022
60,174	1,098	333,144	171,775
61,188	0,965	332,997	171,531
62,203	0,859	332,779	171,283
63,217	0,876	332,451	171,118
64,232	0,935	332,273	171,078
65,247	1,204	331,961	171,209
66,261	1,147	331,710	170,999
67,276	0,722	331,356	170,320
68,290	0,629	330,941	169,986
69,305	0,436	330,753	169,656
70,320	0,503	330,438	169,554
71,334	0,617	330,359	169,628
72,349	1,054	330,170	170,009
73,363	1,044	329,952	169,870
74,378	1,006	329,754	169,710
75,393	0,989	329,470	169,530
76,407	0,912	329,129	169,253
77,422	1,010	328,873	169,216
78,436	0,967	328,590	169,007
79,451	0,960	328,522	168,949
80,466	0,850	328,025	168,555
81,480	0,672	327,788	168,220
82,495	0,638	327,421	167,978
83,509	0,683	327,290	167,947
84,524	0,718	326,975	167,809
85,539	0,638	326,578	167,501
86,553	0,533	326,502	167,330
87,568	0,541	326,208	167,172
88,582	0,546	326,028	167,072
89,597	0,485	325,975	166,962
90,611	0,713	325,866	167,144
91,626	0,792	325,713	167,139
92,641	0,962	325,142	167,019
93,655	0,730	325,010	166,679
94,670	0,786	324,742	166,589
95,684	0,729	324,428	166,350
96,699	0,813	324,140	166,281
97,714	0,763	323,980	166,128
98,728	0,732	323,641	165,906
99,743	0,422	323,381	165,416
100,757	0,567	323,065	165,398
101,772	0,371	323,062	165,167
102,787	0,617	322,713	165,245
103,801	0,642	322,473	165,134
104,816	0,818	322,304	165,226
105,830	0,902	322,236	165,269
106,845	1,045	322,001	165,290
107,860	0,884	321,769	164,980
108,874	0,939	321,468	164,871
109,889	0,860	321,237	164,652
110,903	0,784	321,021	164,443
111,918	0,648	320,777	164,154
112,933	0,643	320,561	164,024
113,947	0,968	320,299	164,230
114,962	0,958	319,988	164,046
115,976	0,844	319,977	163,901
116,991	0,999	319,461	163,790
118,006	0,868	319,433	163,619
119,020	0,809	319,521	163,585
120,035	0,890	319,136	163,462
121,049	0,926	318,870	163,350
122,064	0,873	318,578	163,128
123,079	0,829	318,350	162,949
124,093	0,647	318,271	162,697
125,108	0,616	317,804	162,410
126,122	0,393	317,445	161,971
127,137	0,502	317,252	161,976
128,151	0,388	317,149	161,786
129,166	0,511	316,879	161,766
130,181	0,518	316,548	161,591
131,195	0,485	316,274	161,402
132,210	0,584	316,319	161,516
133,224	0,692	316,176	161,544
134,239	0,978	315,864	161,678
135,254	0,883	315,591	161,421
136,268	0,711	315,364	161,107
137,283	0,426	315,120	160,662
138,297	0,306	314,846	160,381
139,312	0,345	314,479	160,221
140,327	0,792	314,480	160,684
141,341	1,117	314,416	160,985
142,356	1,174	314,320	160,982
143,370	1,221	314,039	160,875
144,385	1,141	313,936	160,721
145,400	1,108	313,492	160,445
146,414	1,170	313,308	160,402
147,429	1,137	313,230	160,313
148,443	1,233	313,166	160,368
149,458	1,297	312,720	160,194
150,473	1,173	312,515	159,943
151,487	1,016	312,314	159,659
152,502	1,120	312,037	159,613
153,516	1,219	311,752	159,558
154,531	1,277	311,578	159,516
155,546	1,277	311,352	159,385
156,560	1,053	311,269	159,093
157,575	1,002	310,977	158,875
158,589	1,042	310,712	158,768
159,604	1,149	310,442	158,729
160,619	1,258	310,249	158,730
161,633	1,203	309,931	158,496
162,648	1,151	310,025	158,475
163,662	1,146	309,792	158,337
164,677	1,079	309,576	158,142
165,692	1,156	309,483	158,160
166,706	1,252	309,190	158,098
167,721	0,931	309,003	157,652
168,735	1,139	308,709	157,706
169,750	1,205	308,706	157,759
170,764	1,281	308,456	157,697
171,779	1,324	308,309	157,653
172,794	1,212	308,022	157,374
173,808	1,300	307,688	157,282
174,823	0,808	307,255	156,534
175,837	0,472	307,117	156,100
176,852	0,888	307,231	156,578
177,867	1,262	307,044	156,857
178,881	1,243	306,801	156,699
179,896	1,230	306,708	156,624
180,910	1,269	306,307	156,445
181,925	1,285	306,077	156,331
182,940	1,326	306,005	156,323
183,954	1,440	305,741	156,292
184,969	1,293	305,606	156,056
185,983	1,188	305,340	155,798
186,998	1,365	305,057	155,823
188,013	1,310	304,980	155,713
189,027	1,266	304,687	155,504
190,042	1,378	304,641	155,582
191,056	1,565	304,345	155,610
192,071	1,516	304,129	155,436
193,086	1,431	303,988	155,262
194,100	1,513	303,733	155,202
195,115	1,405	303,415	154,915
196,129	1,393	303,207	154,782
197,144	1,328	303,029	154,611
198,159	1,299	303,005	154,556
199,173	1,288	302,701	154,375
200,188	1,489	302,526	154,478
201,202	1,276	302,263	154,112
202,217	0,666	301,894	153,288
203,232	0,752	301,466	153,144
204,246	1,034	301,478	153,424
205,261	1,318	301,367	153,643
206,275	1,399	301,177	153,615
207,290	1,260	300,991	153,365
208,304	1,180	300,901	153,224
209,319	1,337	300,642	153,238
210,334	1,395	300,390	153,155
211,348	1,135	300,364	152,864
212,363	1,302	299,960	152,814
213,377	1,353	299,808	152,775
214,392	1,364	299,650	152,692
215,407	1,131	299,289	152,259
216,421	0,927	299,082	151,934
217,436	0,991	298,904	151,895
218,450	0,877	298,888	151,757
219,465	1,123	298,656	151,875
220,480	1,250	298,479	151,898
221,494	1,241	298,322	151,796
222,509	1,352	297,964	151,712
223,523	1,332	297,978	151,686
224,538	1,324	297,795	151,571
225,553	1,513	297,593	151,644
226,567	1,479	297,371	151,483
227,582	1,441	297,239	151,365
228,596	1,335	297,219	151,234
229,611	1,427	296,847	151,125
230,626	1,448	296,647	151,029
231,640	1,051	296,119	150,351
232,655	0,576	295,818	149,711
233,669	0,531	295,735	149,611
234,684	0,691	295,428	149,602
235,699	0,590	295,385	149,466
236,713	0,617	295,353	149,463
237,728	0,821	295,149	149,550
238,742	1,079	294,910	149,671
239,757	1,183	294,864	149,738
240,772	1,488	294,632	149,909
241,786	1,392	294,419	149,693
242,801	0,922	294,152	149,078
243,815	0,827	293,982	148,884
244,830	1,077	293,798	149,025
245,844	0,977	293,401	148,713
246,859	0,974	293,426	148,709
247,874	0,943	293,033	148,465
248,888	0,911	292,932	148,370
249,903	1,087	292,897	148,512
250,917	1,417	292,831	148,791
251,932	1,544	292,651	148,811
252,947	2,101	292,794	149,419
253,961	1,986	292,447	149,115
254,976	1,747	292,398	148,842
255,990	3,087	292,598	150,248
257,005	3,729	292,785	150,962
258,020	4,496	292,883	151,753
259,034	4,242	292,721	151,405
260,049	4,300	292,227	151,194
261,063	4,249	292,011	151,018
262,078	4,500	292,008	151,250
263,093	4,924	292,136	151,717
264,107	4,811	292,018	151,532
265,122	4,911	291,703	151,453
266,136	5,152	291,600	151,622
267,151	5,016	291,323	151,332
268,166	4,798	291,181	151,031
269,180	4,698	290,910	150,780
270,195	4,673	290,810	150,690
271,209	4,758	290,573	150,637
272,224	4,786	290,371	150,545
273,239	4,553	290,080	150,155
274,253	4,663	289,926	150,169
275,268	5,322	289,971	150,819
276,282	5,035	289,609	150,339
277,297	5,064	289,572	150,334
278,312	5,355	289,357	150,491
279,326	4,856	289,148	149,886
280,341	5,016	288,801	149,848
281,355	4,780	288,670	149,538
282,370	4,677	288,241	149,203
283,384	4,760	288,249	149,274
284,399	5,017	288,193	149,479
285,414	4,864	287,998	149,217
286,428	4,604	287,752	148,827
287,443	4,329	287,447	148,390
288,457	4,310	287,270	148,268
289,472	4,437	287,044	148,261
290,487	4,468	286,906	148,206
291,501	4,531	286,599	148,094
292,516	4,177	286,363	147,620
293,530	4,126	286,334	147,543
294,545	4,486	286,228	147,820
295,560	4,709	285,949	147,876
296,574	4,615	285,700	147,644
297,589	4,403	285,649	147,402
298,603	5,027	285,403	147,857
299,618	4,763	285,377	147,579
300,633	4,726	285,204	147,440
301,647	4,553	285,002	147,158
302,662	4,581	284,950	147,145
303,676	4,494	284,560	146,848
304,691	4,355	284,204	146,520
305,706	4,138	284,044	146,217
306,720	4,229	283,890	146,211
307,735	4,346	283,638	146,180
308,749	4,511	283,586	146,296
309,764	4,429	283,403	146,111
310,779	4,276	283,184	145,841
311,793	4,171	282,828	145,545
312,808	4,056	282,766	145,391
313,822	4,229	282,668	145,491
314,837	4,215	282,394	145,324
315,852	3,890	282,398	145,007
316,866	4,313	281,851	145,111
317,881	4,123	281,883	144,936
318,895	4,326	281,662	145,000
319,910	3,937	281,420	144,497
320,925	3,960	281,124	144,354
321,939	4,200	281,246	144,629
322,954	4,338	281,030	144,634
323,968	4,525	280,924	144,742
324,983	4,415	280,690	144,506
325,997	4,533	280,576	144,545
327,012	4,680	280,369	144,562
328,027	4,524	280,259	144,346
329,041	4,282	280,077	144,014
330,056	4,468	279,934	144,102
331,070	4,453	279,665	143,936
332,085	4,376	279,372	143,701
333,100	4,363	279,248	143,612
334,114	4,354	279,048	143,488
335,129	4,258	278,850	143,284
336,143	4,446	278,756	143,398
337,158	4,679	278,632	143,537
338,173	4,574	278,408	143,312
339,187	4,365	278,202	142,999
340,202	4,557	278,066	143,095
341,216	4,600	277,830	143,000
342,231	4,479	277,648	142,782
343,246	4,348	277,499	142,571
344,260	4,311	277,354	142,450
345,275	4,621	277,144	142,615
346,289	4,833	277,218	142,837
347,304	4,839	276,852	142,641
348,319	4,690	276,603	142,363
349,333	4,611	276,491	142,220
350,348	4,916	276,338	142,408
351,362	4,768	276,278	142,229
352,377	4,672	276,168	142,071
353,392	4,823	275,973	142,097
354,406	4,707	275,899	141,940
355,421	191,679	1335,698	1415,362
356,435	154,940	1464,975	1415,547
