DTS Sentinel unit serial number:	SN410029Multiplexer serial number:	ORYXHardware model number:	OX2-SRSoftware version number:	ORYX F/W v4,00 Oryx Data Collector v3.7.2.0data status	okinstallation	B4 Nyhavnadifferential loss correction	single-endedforward channel	channel 2reverse channel	N/Adate	2023/12/18time	20:50:13forward acquisition time	300,00reverse acquisition time	0,00gamma	499,1914k internal	0,3124k external	0,3124temperature offset calibration	1,0000default loss term (dB/km)	0,3820temperature slope calibration	1,0000multiplexer offset coefficient	1,0000multiplexer slope coefficient	1,0000fibre end	0,00T internal ref (°C)	21,85T ext. ref 1 (°C)	7,05T ext. ref 2 (°C)	6,97length (m)	temperature (°C)	Stokes	anti-Stokes-744,400	182,514	0,003	-0,003
-743,385	17,015	-0,273	0,161
-742,371	38,153	0,120	0,079
-741,356	560,948	-0,105	0,190
-740,342	113,046	-0,080	0,072
-739,327	243,755	-0,215	0,270
-738,312	800,000	-0,065	-0,208
-737,298	-115,677	-0,336	0,046
-736,283	800,000	-0,059	-0,143
-735,269	427,491	-0,166	0,268
-734,254	44,963	0,135	-0,093
-733,239	-31,640	-0,326	-0,136
-732,225	133,517	-0,016	-0,015
-731,210	517,684	0,065	-0,114
-730,196	800,000	-0,019	0,047
-729,181	363,836	-0,083	-0,125
-728,167	243,727	0,036	0,045
-727,152	-145,038	-0,067	-0,004
-726,137	-200,000	0,010	0,065
-725,123	124,996	0,037	0,034
-724,108	132,902	-0,071	-0,068
-723,094	84,164	-0,056	-0,045
-722,079	274,007	-0,045	-0,060
-721,064	-200,000	-0,009	-0,095
-720,050	-200,000	-0,011	-0,065
-719,035	575,014	0,011	0,021
-718,021	-200,000	0,004	0,075
-717,006	47,083	-0,093	-0,064
-715,991	-25,284	-0,096	-0,042
-714,977	133,124	0,051	-0,049
-713,962	-200,000	-0,017	0,104
-712,948	-86,506	-0,105	-0,024
-711,933	17,559	-0,029	0,017
-710,918	-200,000	0,010	-0,081
-709,904	140,496	-0,129	-0,127
-708,889	-9,271	0,043	-0,021
-707,875	490,027	-0,010	0,018
-706,860	-19,414	0,058	-0,027
-705,845	497,366	0,020	0,035
-704,831	-200,000	-0,009	0,077
-703,816	139,032	0,115	0,112
-702,802	-17,834	-0,069	0,032
-701,787	800,000	-0,041	-0,130
-700,772	28,423	0,087	-0,055
-699,758	-151,545	0,056	-0,003
-698,743	-159,426	0,145	0,006
-697,729	-200,000	0,007	0,031
-696,714	800,000	0,049	-0,108
-695,699	-102,786	-0,084	0,015
-694,685	-59,536	-0,137	0,044
-693,670	167,402	-0,084	-0,089
-692,656	-54,842	-0,080	-0,027
-691,641	387,930	0,051	0,079
-690,627	186,727	0,064	-0,071
-689,612	650,264	-0,022	-0,042
-688,597	-200,000	0,027	0,125
-687,583	-43,984	-0,126	-0,047
-686,568	57,689	-0,118	-0,085
-685,554	-200,000	-0,005	0,070
-684,539	800,000	0,021	0,051
-683,524	-200,000	-0,037	-0,129
-682,510	-200,000	0,028	0,104
-681,495	16,276	-0,097	-0,057
-680,481	800,000	-0,016	0,043
-679,466	361,370	-0,109	-0,163
-678,451	-200,000	0,030	-0,105
-677,437	-38,617	0,123	-0,048
-676,422	-200,000	0,014	0,125
-675,408	-200,000	-0,034	0,193
-674,393	334,408	0,029	0,041
-673,378	800,000	-0,076	-0,157
-672,364	-29,629	-0,078	0,033
-671,349	-73,039	0,035	0,009
-670,335	31,785	-0,132	0,084
-669,320	-22,414	-0,100	0,045
-668,305	63,792	-0,060	0,045
-667,291	-4,963	-0,053	-0,027
-666,276	753,155	0,010	-0,021
-665,262	-119,370	-0,070	0,009
-664,247	41,779	-0,085	-0,057
-663,232	-200,000	0,011	0,066
-662,218	800,000	-0,044	0,093
-661,203	-200,000	-0,020	-0,108
-660,189	-91,868	-0,196	-0,041
-659,174	-135,945	0,090	0,008
-658,159	800,000	0,042	-0,114
-657,145	459,502	0,058	-0,097
-656,130	-86,598	0,092	0,021
-655,116	50,892	0,099	0,070
-654,101	-11,031	0,081	-0,039
-653,086	138,352	-0,070	-0,068
-652,072	800,000	-0,061	-0,160
-651,057	-200,000	-0,010	-0,093
-650,043	711,596	0,023	-0,046
-649,028	70,830	0,043	0,033
-648,014	-63,620	0,139	-0,042
-646,999	-200,000	-0,029	-0,120
-645,984	54,546	-0,069	-0,050
-644,970	527,407	-0,036	-0,064
-643,955	409,650	-0,126	-0,199
-642,941	-15,832	-0,082	-0,039
-641,926	198,577	-0,060	-0,068
-640,911	-200,000	0,020	-0,127
-639,897	358,080	0,055	0,082
-638,882	411,602	-0,055	0,087
-637,868	574,051	0,051	0,092
-636,853	-31,838	0,028	0,011
-635,838	800,000	-0,039	-0,089
-634,824	346,389	-0,161	-0,236
-633,809	800,000	-0,028	0,063
-632,795	6,205	-0,079	0,043
-631,780	-200,000	-0,025	0,085
-630,765	-200,000	0,002	0,088
-629,751	-120,978	-0,106	-0,013
-628,736	121,812	-0,099	-0,092
-627,722	13,521	0,176	-0,101
-626,707	237,671	-0,096	0,118
-625,692	800,000	-0,036	0,092
-624,678	-200,000	0,019	0,097
-623,663	-200,000	0,028	0,137
-622,649	-200,000	0,005	-0,140
-621,634	-36,415	-0,115	-0,046
-620,619	71,678	0,025	-0,019
-619,605	409,959	0,074	0,117
-618,590	-25,858	0,099	0,043
-617,576	-200,000	0,001	0,019
-616,561	371,889	-0,064	-0,096
-615,546	-15,576	-0,065	0,031
-614,532	177,629	-0,109	-0,118
-613,517	2,708	-0,105	-0,057
-612,503	28,565	0,072	0,045
-611,488	800,000	0,034	0,089
-610,474	789,248	0,021	-0,044
-609,459	-12,439	0,042	-0,020
-608,444	-30,286	0,106	-0,045
-607,430	-114,365	-0,069	0,010
-606,415	597,490	-0,051	-0,093
-605,401	-53,051	-0,058	-0,020
-604,386	64,122	0,103	0,077
-603,371	-82,029	0,112	-0,027
-602,357	-200,000	-0,018	-0,077
-601,342	319,673	0,044	0,062
-600,328	-200,000	-0,013	0,089
-599,313	228,835	0,060	-0,072
-598,298	-121,184	0,039	0,005
-597,284	-62,988	0,059	0,018
-596,269	126,273	-0,019	-0,018
-595,255	-200,000	-0,002	-0,028
-594,240	17,979	-0,089	-0,052
-593,225	800,000	-0,049	-0,111
-592,211	-133,891	-0,089	-0,008
-591,196	18,206	-0,033	0,020
-590,182	214,492	-0,027	0,031
-589,167	800,000	0,029	0,081
-588,152	-46,487	0,048	0,017
-587,138	-200,000	0,018	0,073
-586,123	-39,759	-0,182	0,070
-585,109	85,434	-0,110	0,090
-584,094	264,866	-0,056	0,072
-583,079	358,334	0,050	-0,074
-582,065	405,287	0,023	0,037
-581,050	197,437	-0,045	0,051
-580,036	-101,142	0,052	0,009
-579,021	-200,000	-0,008	-0,070
-578,006	-200,000	0,005	-0,041
-576,992	88,439	-0,061	-0,050
-575,977	800,000	-0,024	-0,074
-574,963	282,314	-0,042	-0,056
-573,948	-26,646	-0,146	-0,063
-572,934	-99,753	-0,130	-0,024
-571,919	104,278	0,118	-0,103
-570,904	800,000	0,074	-0,182
-569,890	-200,000	0,011	-0,074
-568,875	-173,599	-0,052	-0,001
-567,861	282,614	-0,036	-0,048
-566,846	-79,318	0,093	0,023
-565,831	175,246	-0,076	0,081
-564,817	467,138	-0,066	0,110
-563,802	-3,574	0,038	0,020
-562,788	800,000	0,050	-0,114
-561,773	800,000	0,022	-0,067
-560,758	-200,000	0,027	0,168
-559,744	800,000	-0,060	0,147
-558,729	228,775	-0,087	-0,105
-557,715	79,158	0,041	-0,033
-556,700	94,003	0,086	-0,072
-555,685	131,855	-0,042	0,040
-554,671	800,000	0,068	0,172
-553,656	-89,847	-0,064	-0,014
-552,642	-200,000	0,001	0,053
-551,627	800,000	-0,019	0,040
-550,612	-37,647	0,010	-0,004
-549,598	-200,000	-0,001	0,084
-548,583	46,026	0,029	-0,020
-547,569	-124,193	0,106	-0,012
-546,554	97,213	0,052	0,044
-545,539	448,439	-0,052	-0,084
-544,525	-200,000	-0,010	0,070
-543,510	-47,138	0,107	0,038
-542,496	-200,000	-0,028	-0,096
-541,481	-182,643	0,043	-0,001
-540,466	-200,000	-0,022	0,090
-539,452	800,000	-0,022	-0,048
-538,437	95,461	0,167	0,140
-537,423	-200,000	-0,019	0,068
-536,408	-38,420	-0,062	-0,024
-535,393	-200,000	-0,021	-0,096
-534,379	169,432	0,046	-0,049
-533,364	800,000	-0,063	-0,154
-532,350	-200,000	-0,005	0,068
-531,335	-24,831	0,066	-0,029
-530,321	-200,000	-0,008	-0,042
-529,306	-133,330	-0,070	-0,006
-528,291	543,765	-0,029	-0,052
-527,277	-97,303	-0,096	-0,018
-526,262	-200,000	0,003	-0,060
-525,248	94,181	-0,038	0,032
-524,233	-200,000	0,004	-0,038
-523,218	43,030	0,203	0,137
-522,204	-200,000	-0,006	0,058
-521,189	800,000	-0,040	-0,119
-520,175	499,260	0,030	-0,051
-519,160	16,030	-0,097	-0,056
-518,145	800,000	0,028	-0,069
-517,131	-12,995	0,117	0,056
-516,116	340,012	-0,038	-0,055
-515,102	-23,106	0,168	0,075
-514,087	205,610	0,046	-0,052
-513,072	516,958	0,043	-0,074
-512,058	800,000	-0,040	-0,088
-511,043	-83,216	0,050	-0,012
-510,029	99,489	0,126	0,107
-509,014	-200,000	-0,038	0,127
-507,999	800,000	-0,013	-0,039
-506,985	-200,000	-0,014	-0,156
-505,970	-1,279	-0,132	0,069
-504,956	-1,490	0,153	-0,079
-503,941	-200,000	-0,034	0,141
-502,926	-50,562	0,073	0,025
-501,912	-111,442	0,111	0,016
-500,897	354,739	0,089	-0,131
-499,883	-100,621	-0,123	-0,022
-498,868	110,764	0,041	0,037
-497,853	67,846	-0,062	-0,047
-496,839	800,000	-0,068	0,157
-495,824	-79,133	-0,173	0,043
-494,810	32,270	-0,033	0,021
-493,795	60,096	0,111	-0,081
-492,781	800,000	-0,060	-0,138
-491,766	270,447	-0,153	-0,199
-490,751	-159,092	0,043	-0,002
-489,737	206,827	0,037	-0,043
-488,722	172,429	0,121	0,129
-487,708	800,000	0,039	0,089
-486,693	295,132	-0,025	-0,033
-485,678	269,917	0,040	0,052
-484,664	65,773	-0,103	0,077
-483,649	-200,000	-0,020	-0,087
-482,635	-119,912	0,082	-0,010
-481,620	-200,000	0,002	-0,095
-480,605	-84,606	-0,132	-0,030
-479,591	-200,000	0,004	-0,083
-478,576	-130,312	-0,051	0,005
-477,562	-200,000	-0,004	0,090
-476,547	-200,000	0,005	-0,069
-475,532	-200,000	0,008	0,056
-474,518	-200,000	0,020	-0,107
-473,503	-114,892	0,120	0,017
-472,489	-48,764	0,081	0,028
-471,474	-16,239	-0,041	-0,019
-470,459	-77,809	-0,046	0,012
-469,445	800,000	-0,050	-0,125
-468,430	561,110	0,026	0,047
-467,416	7,666	-0,097	0,054
-466,401	800,000	-0,065	0,170
-465,386	202,370	0,106	0,120
-464,372	-55,938	-0,056	0,018
-463,357	800,000	-0,022	0,061
-462,343	-200,000	0,005	0,030
-461,328	-200,000	-0,010	0,035
-460,313	-200,000	-0,037	0,148
-459,299	-20,122	-0,111	-0,050
-458,284	-200,000	-0,029	-0,146
-457,270	-22,886	0,109	-0,048
-456,255	-200,000	-0,013	-0,087
-455,241	-200,000	-0,016	-0,061
-454,226	-136,812	-0,174	0,015
-453,211	468,516	0,105	0,175
-452,197	430,097	-0,056	-0,089
-451,182	-151,554	0,075	-0,004
-450,168	32,395	0,055	0,035
-449,153	1,896	0,121	-0,064
-448,138	512,877	-0,117	-0,202
-447,124	-34,528	0,021	-0,008
-446,109	-56,371	0,084	-0,027
-445,095	349,845	0,048	0,070
-444,080	-200,000	-0,023	0,116
-443,065	-117,734	-0,092	0,012
-442,051	7,148	-0,028	0,016
-441,036	239,398	-0,042	-0,051
-440,022	800,000	0,051	-0,139
-439,007	-200,000	-0,003	-0,178
-437,992	200,114	0,009	-0,010
-436,978	118,195	0,055	-0,050
-435,963	270,479	-0,099	0,129
-434,949	-44,879	-0,091	-0,033
-433,934	-200,000	0,007	-0,041
-432,919	183,626	-0,076	-0,082
-431,905	386,467	0,054	0,082
-430,890	-96,693	-0,010	0,002
-429,876	800,000	-0,009	-0,021
-428,861	-200,000	0,010	0,063
-427,846	-200,000	-0,018	0,088
-426,832	-200,000	0,035	-0,115
-425,817	-200,000	0,019	-0,073
-424,803	-16,938	0,103	0,048
-423,788	-12,805	0,072	0,035
-422,773	210,418	-0,065	-0,075
-421,759	-200,000	-0,015	0,125
-420,744	-68,361	0,175	-0,050
-419,730	-112,278	-0,056	0,008
-418,715	571,085	-0,050	-0,089
-417,701	-133,492	0,078	0,007
-416,686	-98,037	0,023	-0,004
-415,671	-52,412	0,091	-0,031
-414,657	652,236	-0,053	0,100
-413,642	-200,000	0,023	0,086
-412,628	-200,000	0,005	0,047
-411,613	277,774	0,079	0,104
-410,598	241,515	0,034	-0,041
-409,584	800,000	0,007	0,015
-408,569	-46,915	0,073	0,026
-407,555	-102,915	-0,038	0,007
-406,540	-133,937	-0,028	-0,003
-405,525	64,350	-0,028	-0,021
-404,511	6,468	-0,169	-0,092
-403,496	211,833	-0,038	-0,044
-402,482	-200,000	-0,026	-0,134
-401,467	-200,000	-0,004	0,110
-400,452	-73,814	-0,112	0,030
-399,438	653,829	0,031	0,059
-398,423	526,519	-0,003	-0,006
-397,409	126,201	-0,019	-0,018
-396,394	-59,624	0,110	-0,034
-395,379	-200,000	-0,004	-0,020
-394,365	65,493	0,046	-0,034
-393,350	800,000	0,036	0,110
-392,336	-200,000	0,012	0,083
-391,321	-187,041	-0,118	0,001
-390,306	-25,933	-0,109	0,047
-389,292	800,000	-0,023	-0,061
-388,277	800,000	0,008	-0,017
-387,263	800,000	0,055	-0,137
-386,248	-31,813	-0,047	-0,019
-385,233	129,397	0,034	-0,032
-384,219	2,191	0,087	-0,046
-383,204	82,307	-0,050	-0,040
-382,190	-69,659	0,064	-0,018
-381,175	297,568	0,064	-0,086
-380,160	-155,161	-0,116	0,005
-379,146	800,000	-0,016	-0,037
-378,131	-200,000	-0,026	0,234
-377,117	800,000	0,049	-0,149
-376,102	46,092	-0,016	0,011
-375,088	455,376	-0,055	0,090
-374,073	25,298	-0,099	0,060
-373,058	328,823	0,060	0,085
-372,044	-200,000	0,004	-0,068
-371,029	800,000	-0,034	-0,076
-370,015	800,000	0,033	-0,094
-369,000	-200,000	0,002	-0,117
-367,985	149,473	0,044	-0,044
-366,971	-65,050	0,084	0,025
-365,956	-200,000	0,032	-0,118
-364,942	69,345	-0,111	0,084
-363,927	-21,563	0,057	0,025
-362,912	379,748	-0,082	-0,124
-361,898	196,026	-0,068	0,076
-360,883	-80,622	0,050	-0,012
-359,869	297,441	0,033	-0,045
-358,854	-51,760	0,080	0,027
-357,839	379,138	-0,057	0,087
-356,825	-92,513	-0,090	-0,018
-355,810	-200,000	-0,007	-0,025
-354,796	-200,000	-0,028	0,107
-353,781	234,364	-0,008	0,009
-352,766	629,689	-0,134	0,249
-351,752	-200,000	0,041	0,139
-350,737	-96,107	0,196	0,038
-349,723	192,458	0,107	0,119
-348,708	144,370	-0,091	0,089
-347,693	633,550	-0,028	-0,053
-346,679	63,571	0,059	0,043
-345,664	800,000	0,035	0,097
-344,650	-22,418	0,085	-0,038
-343,635	754,604	0,051	0,103
-342,620	-94,422	0,139	0,028
-341,606	-105,620	0,130	0,021
-340,591	-200,000	-0,000	-0,007
-339,577	141,947	0,044	-0,043
-338,562	-52,643	-0,032	0,011
-337,548	800,000	0,022	0,049
-336,533	85,199	0,030	-0,024
-335,518	107,251	-0,058	0,051
-334,504	-78,353	-0,058	-0,014
-333,489	215,784	-0,053	-0,062
-332,475	401,221	-0,019	-0,030
-331,460	13,410	-0,031	0,018
-330,445	85,470	-0,058	-0,047
-329,431	-62,335	-0,150	-0,046
-328,416	116,111	0,005	-0,004
-327,402	-9,365	-0,074	0,036
-326,387	200,122	-0,045	0,051
-325,372	-26,384	-0,074	0,032
-324,358	231,093	-0,024	-0,029
-323,343	-142,631	0,106	0,008
-322,329	-156,994	-0,052	-0,002
-321,314	-200,000	-0,024	-0,079
-320,299	179,083	0,079	0,084
-319,285	-96,683	-0,064	0,012
-318,270	-95,034	0,038	-0,007
-317,256	-143,896	0,039	-0,003
-316,241	41,778	0,117	-0,078
-315,226	-10,778	-0,039	0,019
-314,212	-200,000	0,022	0,085
-313,197	26,918	0,134	0,082
-312,183	-36,392	-0,076	-0,030
-311,168	-103,111	-0,103	-0,018
-310,153	-200,000	-0,022	-0,256
-309,139	109,280	0,066	-0,058
-308,124	24,544	-0,021	-0,012
-307,110	-200,000	0,007	0,102
-306,095	-200,000	-0,002	-0,138
-305,080	800,000	-0,060	0,156
-304,066	692,587	0,029	-0,055
-303,051	39,818	-0,068	0,044
-302,037	-49,748	-0,056	0,019
-301,022	3,901	0,072	0,038
-300,008	157,572	0,075	0,076
-298,993	139,480	0,082	0,079
-297,978	118,038	-0,028	-0,025
-296,964	496,601	-0,052	0,088
-295,949	190,407	-0,064	0,071
-294,935	-200,000	0,014	0,099
-293,920	-200,000	0,011	0,037
-292,905	153,215	0,088	0,088
-291,891	800,000	0,078	0,202
-290,876	-200,000	0,005	0,040
-289,862	61,194	-0,062	0,045
-288,847	-78,334	-0,054	0,013
-287,832	227,908	0,038	-0,045
-286,818	800,000	-0,085	0,198
-285,803	-200,000	0,028	0,138
-284,789	432,209	0,078	0,124
-283,774	640,181	0,074	-0,138
-282,759	143,345	0,029	0,029
-281,745	289,591	0,070	-0,093
-280,730	73,080	0,059	0,045
-279,716	9,277	-0,015	-0,008
-278,701	-163,522	0,157	-0,005
-277,686	313,520	0,030	0,041
-276,672	-200,000	0,008	-0,044
-275,657	202,323	0,025	0,028
-274,643	-200,000	-0,012	-0,157
-273,628	800,000	-0,046	-0,099
-272,613	-94,727	0,063	-0,012
-271,599	-200,000	-0,014	0,051
-270,584	37,526	-0,026	0,017
-269,570	564,182	-0,005	0,010
-268,555	-159,820	-0,067	-0,003
-267,540	36,073	0,092	0,059
-266,526	-70,321	-0,103	0,028
-265,511	-200,000	0,000	-0,050
-264,497	-20,604	-0,027	-0,012
-263,482	-200,000	-0,001	0,010
-262,467	92,907	0,117	-0,097
-261,453	-159,145	-0,066	0,003
-260,438	800,000	-0,042	0,133
-259,424	-200,000	-0,021	-0,083
-258,409	110,880	0,087	0,077
-257,395	526,534	0,066	0,115
-256,380	-200,000	0,019	0,140
-255,365	-200,000	0,045	0,228
-254,351	-98,002	0,073	0,014
-253,336	-139,564	-0,071	0,005
-252,322	-0,639	-0,065	-0,034
-251,307	-200,000	-0,010	-0,043
-250,292	800,000	0,053	-0,113
-249,278	31,028	0,062	0,039
-248,263	-200,000	-0,002	0,065
-247,249	-200,000	0,001	0,017
-246,234	-13,172	0,083	-0,039
-245,219	356,618	-0,023	0,034
-244,205	-200,000	0,007	0,059
-243,190	440,873	0,021	-0,034
-242,176	418,083	-0,028	0,043
-241,161	800,000	0,064	0,153
-240,146	91,858	-0,081	0,066
-239,132	280,783	0,059	0,077
-238,117	559,012	0,040	-0,071
-237,103	138,242	-0,074	-0,071
-236,088	382,950	-0,045	-0,068
-235,073	-78,310	0,065	-0,016
-234,059	-150,384	-0,079	-0,004
-233,044	-200,000	-0,004	0,025
-232,030	800,000	-0,034	-0,070
-231,015	800,000	-0,042	-0,110
-230,000	174,248	0,027	-0,028
-228,986	-20,442	0,057	-0,025
-227,971	219,140	0,031	0,036
-226,957	798,777	0,070	0,142
-225,942	463,535	0,039	0,064
-224,927	-56,045	-0,175	-0,057
-223,913	-99,984	0,028	0,005
-222,898	-200,000	-0,008	-0,090
-221,884	131,135	-0,049	0,046
-220,869	154,999	0,121	0,122
-219,855	249,829	-0,076	0,094
-218,840	262,530	0,062	-0,079
-217,825	-32,057	-0,122	-0,050
-216,811	-174,320	-0,059	-0,001
-215,796	-200,000	0,017	-0,080
-214,782	52,471	0,028	0,019
-213,767	-200,000	-0,003	-0,058
-212,752	-143,348	-0,064	0,004
-211,738	-54,812	0,086	0,028
-210,723	-124,596	0,132	0,015
-209,709	159,830	0,118	-0,120
-208,694	-200,000	-0,004	0,034
-207,679	252,796	0,028	0,035
-206,665	-166,373	0,166	-0,005
-205,650	306,239	-0,033	0,044
-204,636	-68,919	0,116	-0,032
-203,621	-200,000	-0,005	0,026
-202,606	8,797	-0,042	0,023
-201,592	-66,239	-0,107	-0,031
-200,577	-200,000	-0,004	-0,036
-199,563	176,337	0,128	-0,135
-198,548	-47,855	0,070	0,024
-197,533	214,755	0,053	-0,062
-196,519	-200,000	0,046	0,181
-195,504	118,435	-0,016	-0,015
-194,490	-200,000	0,000	-0,056
-193,475	-200,000	-0,017	-0,062
-192,460	-13,364	0,019	0,009
-191,446	800,000	0,095	-0,227
-190,431	-200,000	0,010	-0,038
-189,417	101,415	0,046	0,039
-188,402	-200,000	-0,022	-0,075
-187,387	-3,906	-0,119	-0,060
-186,373	15,575	-0,082	0,047
-185,358	330,298	0,043	-0,060
-184,344	57,111	0,090	-0,064
-183,329	241,528	0,086	0,105
-182,315	-58,486	-0,081	0,025
-181,300	44,358	-0,058	0,038
-180,285	-200,000	-0,002	0,015
-179,271	230,132	-0,105	-0,125
-178,256	-169,490	0,012	0,000
-177,242	800,000	-0,019	-0,054
-176,227	36,296	-0,091	0,059
-175,212	-200,000	0,020	0,080
-174,198	-57,293	-0,024	-0,008
-173,183	-200,000	-0,019	-0,194
-172,169	89,736	-0,093	-0,075
-171,154	91,780	0,011	-0,009
-170,139	-200,000	0,006	-0,028
-169,125	101,618	0,120	0,102
-168,110	215,185	-0,100	0,115
-167,096	-81,299	-0,074	-0,018
-166,081	-6,459	-0,137	0,068
-165,066	-90,343	0,105	-0,022
-164,052	156,935	0,051	-0,052
-163,037	800,000	-0,042	0,121
-162,023	12,954	0,031	0,018
-161,008	-184,904	-0,111	0,001
-159,993	-200,000	-0,011	0,069
-158,979	800,000	-0,022	-0,053
-157,964	22,508	0,133	-0,079
-156,950	486,526	-0,054	-0,090
-155,935	75,726	0,048	0,037
-154,920	800,000	0,035	-0,110
-153,906	136,196	-0,049	0,046
-152,891	-110,398	-0,096	-0,014
-151,877	-200,000	0,009	-0,059
-150,862	110,196	-0,131	0,114
-149,847	104,069	0,021	0,018
-148,833	-200,000	0,007	0,103
-147,818	-16,597	0,059	-0,027
-146,804	-132,998	0,101	-0,009
-145,789	-95,972	0,072	0,014
-144,775	-144,461	-0,058	-0,004
-143,760	-58,268	-0,086	0,027
-142,745	-114,890	-0,020	-0,003
-141,731	316,533	-0,036	0,050
-140,716	18,073	0,013	0,007
-139,702	328,992	-0,062	-0,086
-138,687	-143,595	0,069	-0,005
-137,672	800,000	-0,030	0,081
-136,658	-200,000	-0,011	0,116
-135,643	112,122	-0,094	0,082
-134,629	800,000	-0,019	0,053
-133,614	800,000	-0,019	0,049
-132,599	378,973	-0,025	0,038
-131,585	-200,000	0,029	-0,221
-130,570	-4,153	0,065	0,032
-129,556	-39,342	-0,087	0,033
-128,541	747,124	-0,013	-0,026
-127,526	800,000	-0,003	0,006
-126,512	54,193	0,015	-0,011
-125,497	169,848	0,036	-0,038
-124,483	-200,000	-0,036	-0,139
-123,468	-82,450	-0,069	0,016
-122,453	11,723	-0,109	-0,061
-121,439	358,156	0,071	-0,103
-120,424	16,524	-0,025	-0,015
-119,410	-191,825	0,081	-0,001
-118,395	319,567	-0,091	-0,126
-117,380	-200,000	-0,005	0,068
-116,366	-37,537	0,122	-0,047
-115,351	480,572	0,075	-0,125
-114,337	-34,260	-0,149	-0,059
-113,322	218,040	0,025	-0,029
-112,307	292,188	0,031	0,042
-111,293	-200,000	0,006	0,113
-110,278	-200,000	0,005	0,038
-109,264	-118,629	0,120	0,015
-108,249	750,988	-0,033	-0,065
-107,234	-200,000	0,015	-0,112
-106,220	-200,000	0,011	-0,076
-105,205	-200,000	0,009	0,119
-104,191	487,523	0,092	0,154
-103,176	-200,000	0,007	0,084
-102,162	-152,550	-0,111	0,006
-101,147	-85,809	-0,053	0,012
-100,132	247,468	-0,039	-0,048
-99,118	-157,231	0,087	0,004
-98,103	10,127	-0,141	-0,077
-97,089	-200,000	0,013	-0,045
-96,074	-200,000	-0,004	0,069
-95,059	207,756	0,091	0,104
-94,045	590,094	-0,016	0,029
-93,030	-200,000	-0,001	-0,045
-92,016	-113,930	-0,077	0,011
-91,001	800,000	-0,044	0,094
-89,986	-24,579	0,060	0,026
-88,972	106,681	0,102	0,088
-87,957	43,290	0,093	-0,062
-86,943	11,389	-0,037	0,020
-85,928	102,942	-0,144	-0,122
-84,913	-104,159	-0,094	-0,016
-83,899	230,585	0,039	-0,046
-82,884	-39,596	-0,095	0,036
-81,870	-22,688	-0,036	-0,016
-80,855	125,343	-0,078	0,072
-79,840	11,432	0,037	0,021
-78,826	704,773	0,066	0,127
-77,811	-61,051	-0,053	0,016
-76,797	175,628	0,027	0,028
-75,782	100,406	-0,062	-0,053
-74,767	-200,000	0,014	0,048
-73,753	-162,054	0,113	0,004
-72,738	800,000	0,020	0,050
-71,724	270,493	-0,015	-0,020
-70,709	-200,000	-0,013	0,060
-69,694	-200,000	-0,002	-0,082
-68,680	-134,044	-0,112	0,010
-67,665	-31,694	-0,054	0,022
-66,651	-22,190	0,175	0,077
-65,636	-200,000	0,019	0,060
-64,622	800,000	-0,033	0,067
-63,607	91,599	-0,029	0,023
-62,592	82,295	-0,145	0,114
-61,578	70,342	-0,046	0,035
-60,563	-46,696	0,147	0,052
-59,549	-200,000	-0,023	0,176
-58,534	-143,628	-1,220	-0,083
-57,519	684,115	-0,813	-1,547
-56,505	-200,000	-0,847	-4,299
-55,490	-36,429	0,567	-0,220
-54,476	800,000	4,873	11,678
-53,461	-200,000	13,916	253,756
-52,446	-200,000	694,117	2261,572
-51,432	598,697	1624,147	2934,066
-50,417	117,573	1632,933	1457,471
-49,403	73,547	1287,102	976,715
-48,388	37,337	1023,486	656,587
-47,373	23,897	981,668	585,551
-46,359	23,128	971,353	576,855
-45,344	22,109	966,976	570,904
-44,330	22,049	965,168	569,618
-43,315	21,891	963,940	568,355
-42,300	21,895	963,016	567,800
-41,286	21,872	961,957	567,078
-40,271	21,924	960,998	566,662
-39,257	21,824	960,133	565,803
-38,242	21,883	959,182	565,412
-37,227	21,864	958,342	564,832
-36,213	21,875	957,267	564,212
-35,198	21,794	956,721	563,604
-34,184	21,857	956,033	563,382
-33,169	21,850	955,051	562,757
-32,154	21,875	954,287	562,364
-31,140	21,904	953,196	561,793
-30,125	21,909	952,556	561,412
-29,111	21,862	951,501	560,615
-28,096	21,870	950,948	560,292
-27,082	21,903	950,229	559,953
-26,067	21,923	949,377	559,494
-25,052	21,905	948,723	559,027
-24,038	21,885	948,005	558,520
-23,023	21,898	947,584	558,291
-22,009	21,909	946,716	557,791
-20,994	21,928	946,173	557,510
-19,979	21,917	945,492	557,051
-18,965	21,890	944,861	556,573
-17,950	21,863	944,342	556,159
-16,936	21,902	943,496	555,761
-15,921	21,847	942,675	555,081
-14,906	21,756	942,169	554,471
-13,892	21,795	941,560	554,215
-12,877	21,836	940,901	553,935
-11,863	21,768	940,304	553,345
-10,848	21,766	939,782	553,010
-9,833	21,864	939,369	553,057
-8,819	21,799	938,745	552,462
-7,804	21,775	937,938	551,890
-6,790	21,742	937,545	551,532
-5,775	21,827	936,730	551,297
-4,760	21,764	936,294	550,822
-3,746	21,757	935,645	550,395
-2,731	21,599	934,935	549,455
-1,717	21,588	934,317	549,036
-0,702	21,644	933,447	548,681
0,313	21,387	932,880	548,365
1,327	23,940	930,394	554,878
2,342	31,486	808,720	502,766
3,356	26,133	509,318	307,461
4,371	1,640	374,549	194,852
5,386	-1,312	357,529	182,347
6,400	-2,390	351,792	178,098
7,415	-2,841	349,212	176,233
8,429	-2,630	347,715	175,716
9,444	-2,669	346,841	175,212
10,459	-2,654	346,125	174,852
11,473	-2,855	345,477	174,270
12,488	-2,767	344,970	174,103
13,502	-2,628	344,217	173,873
14,517	-2,641	343,734	173,598
15,531	-2,689	343,352	173,333
16,546	-2,559	342,892	173,238
17,561	-2,511	342,521	173,092
18,575	-2,588	342,099	172,773
19,590	-2,549	341,658	172,580
20,604	-2,632	341,576	172,426
21,619	-2,640	341,180	172,201
22,634	-2,658	340,692	171,918
23,648	-2,614	340,171	171,692
24,663	-2,509	339,779	171,602
25,677	-2,662	339,827	171,432
26,692	-2,529	339,292	171,301
27,707	-2,626	339,105	171,079
28,721	-2,629	338,886	170,949
29,736	-2,506	338,387	170,826
30,750	-2,610	338,142	170,566
31,765	-2,509	337,819	170,505
32,780	-2,649	337,751	170,293
33,794	-2,591	337,313	170,124
34,809	-2,578	337,045	169,989
35,823	-2,627	336,715	169,750
36,838	-2,615	336,478	169,630
37,853	-2,661	336,166	169,404
38,867	-2,657	335,865	169,243
39,882	-2,647	335,654	169,132
40,896	-2,603	335,337	169,008
41,911	-2,655	335,131	168,830
42,926	-2,622	334,885	168,729
43,940	-2,637	334,499	168,501
44,955	-2,560	334,205	168,427
45,969	-2,619	334,141	168,313
46,984	-2,708	333,737	167,991
47,999	-2,606	333,704	168,076
49,013	-2,626	333,247	167,809
50,028	-2,662	333,080	167,668
51,042	-2,810	332,797	167,341
52,057	-2,732	332,464	167,248
53,071	-2,788	332,204	167,039
54,086	-2,790	332,100	166,970
55,101	-2,703	331,716	166,861
56,115	-2,645	331,557	166,831
57,130	-2,579	331,126	166,675
58,144	-2,649	330,926	166,480
59,159	-2,694	330,782	166,342
60,174	-2,673	330,330	166,123
61,188	-2,610	330,048	166,038
62,203	-2,542	329,984	166,067
63,217	-2,510	329,590	165,891
64,232	-2,637	329,508	165,691
65,247	-2,518	329,077	165,594
66,261	-2,521	328,814	165,443
67,276	-2,508	328,342	165,206
68,290	-2,708	328,445	165,018
69,305	-2,846	328,142	164,695
70,320	-2,639	327,761	164,722
71,334	-2,572	327,605	164,705
72,349	-2,686	327,429	164,473
73,363	-2,493	326,873	164,396
74,378	-2,615	326,814	164,215
75,393	-2,540	326,388	164,070
76,407	-2,549	326,363	164,033
77,422	-2,582	326,061	163,829
78,436	-2,563	325,683	163,646
79,451	-2,526	325,393	163,527
80,466	-2,822	325,392	163,182
81,480	-2,518	324,947	163,283
82,495	-2,609	324,886	163,136
83,509	-2,637	324,600	162,946
84,524	-2,611	324,308	162,815
85,539	-2,614	324,080	162,682
86,553	-2,615	323,863	162,558
87,568	-2,584	323,618	162,455
88,582	-2,612	323,427	162,313
89,597	-2,571	323,187	162,224
90,611	-2,650	323,069	162,063
91,626	-2,585	322,653	161,911
92,641	-2,407	322,459	161,996
93,655	-2,591	322,332	161,715
94,670	-2,481	321,903	161,606
95,684	-2,542	321,819	161,483
96,699	-2,613	321,603	161,281
97,714	-2,607	321,296	161,120
98,728	-2,485	321,010	161,096
99,743	-2,494	320,762	160,948
100,757	-2,680	320,575	160,635
101,772	-2,601	320,408	160,624
102,787	-2,545	320,119	160,526
103,801	-2,469	319,717	160,393
104,816	-2,624	319,706	160,204
105,830	-2,661	319,422	160,007
106,845	-2,625	319,228	159,935
107,860	-2,533	319,016	159,915
108,874	-2,602	318,694	159,664
109,889	-2,439	318,490	159,724
110,903	-2,721	318,071	159,194
111,918	-2,614	318,083	159,302
112,933	-2,659	317,840	159,117
113,947	-2,594	317,651	159,079
114,962	-2,793	317,425	158,736
115,976	-2,465	317,174	158,952
116,991	-2,570	316,946	158,709
118,006	-2,757	316,729	158,385
119,020	-2,556	316,469	158,457
120,035	-2,517	316,315	158,408
121,049	-2,498	316,101	158,307
122,064	-2,531	315,896	158,155
123,079	-2,623	315,632	157,909
124,093	-2,594	315,455	157,839
125,108	-2,643	315,131	157,609
126,122	-2,588	314,989	157,583
127,137	-2,525	314,666	157,475
128,151	-2,427	314,480	157,473
129,166	-2,492	314,262	157,281
130,181	-2,460	313,884	157,111
131,195	-2,705	313,929	156,858
132,210	-2,725	313,581	156,649
133,224	-2,698	313,387	156,566
134,239	-2,518	313,008	156,555
135,254	-2,463	312,805	156,498
136,268	-2,596	312,613	156,246
137,283	-2,614	312,540	156,177
138,297	-2,655	312,185	155,942
139,312	-2,609	311,887	155,828
140,327	-2,660	311,810	155,722
141,341	-2,548	311,684	155,763
142,356	-2,500	311,288	155,603
143,370	-2,563	311,110	155,433
144,385	-2,500	310,997	155,430
145,400	-2,354	310,614	155,379
146,414	-2,512	310,539	155,161
147,429	-2,533	310,271	154,991
148,443	-2,514	310,071	154,897
149,458	-2,617	310,027	154,752
150,473	-2,541	309,670	154,640
151,487	-2,518	309,324	154,478
152,502	-2,704	309,230	154,221
153,516	-2,681	309,084	154,159
154,531	-2,679	308,784	153,998
155,546	-2,552	308,576	154,014
156,560	-2,612	308,418	153,859
157,575	-2,441	308,134	153,882
158,589	-2,577	307,830	153,574
159,604	-2,578	307,668	153,478
160,619	-2,521	307,402	153,391
161,633	-2,510	307,228	153,302
162,648	-2,440	307,054	153,275
163,662	-2,496	306,863	153,108
164,677	-2,644	306,652	152,834
165,692	-2,590	306,450	152,777
166,706	-2,565	306,294	152,711
167,721	-2,460	306,084	152,702
168,735	-2,489	306,004	152,619
169,750	-2,344	305,681	152,595
170,764	-2,612	305,442	152,184
171,779	-2,513	305,405	152,254
172,794	-2,359	305,151	152,274
173,808	-2,496	304,876	151,981
174,823	-2,580	304,525	151,705
175,837	-2,531	304,424	151,692
176,852	-2,443	304,259	151,687
177,867	-2,394	303,929	151,560
178,881	-2,446	303,965	151,511
179,896	-2,394	303,524	151,331
180,910	-2,438	303,313	151,167
181,925	-2,518	303,192	151,011
182,940	-2,499	303,009	150,926
183,954	-2,544	302,822	150,772
184,969	-2,476	302,527	150,683
185,983	-2,454	302,454	150,656
186,998	-2,414	302,148	150,531
188,013	-2,357	301,918	150,461
189,027	-2,550	301,893	150,237
190,042	-2,531	301,725	150,159
191,056	-2,586	301,327	149,892
192,071	-2,521	301,167	149,866
193,086	-2,536	301,027	149,767
194,100	-2,491	300,752	149,663
195,115	-2,367	300,535	149,668
196,129	-2,473	300,323	149,441
197,144	-2,560	300,073	149,215
198,159	-2,613	300,006	149,114
199,173	-2,510	299,705	149,055
200,188	-2,442	299,359	148,940
201,202	-2,516	299,299	148,821
202,217	-2,494	298,966	148,665
203,232	-2,589	298,929	148,537
204,246	-2,446	298,600	148,505
205,261	-2,541	298,493	148,343
206,275	-2,543	298,278	148,220
207,290	-2,386	298,126	148,290
208,304	-2,299	297,914	148,260
209,319	-2,464	297,753	148,000
210,334	-2,325	297,547	148,023
211,348	-2,432	297,178	147,720
212,363	-2,451	296,968	147,583
213,377	-2,478	296,862	147,490
214,392	-2,405	296,634	147,437
215,407	-2,495	296,511	147,272
216,421	-2,459	296,178	147,130
217,436	-2,555	296,103	146,984
218,450	-2,564	295,962	146,891
219,465	-2,388	295,661	146,904
220,480	-2,513	295,508	146,690
221,494	-2,500	295,293	146,583
222,509	-2,579	295,217	146,454
223,523	-2,410	294,987	146,495
224,538	-2,503	294,767	146,281
225,553	-2,620	294,466	146,001
226,567	-2,363	294,272	146,148
227,582	-2,440	294,178	146,011
228,596	-2,322	294,087	146,071
229,611	-2,504	293,896	145,782
230,626	-2,435	293,525	145,653
231,640	-2,480	293,336	145,502
232,655	-2,530	293,129	145,336
233,669	-2,561	292,931	145,195
234,684	-2,474	292,738	145,172
235,699	-2,613	292,636	144,972
236,713	-2,386	292,437	145,084
237,728	-2,336	292,181	144,994
238,742	-2,613	292,009	144,623
239,757	-2,482	291,758	144,614
240,772	-2,616	291,636	144,409
241,786	-2,465	291,421	144,438
242,801	-2,429	291,295	144,398
243,815	-2,618	291,275	144,190
244,830	-2,528	290,862	144,060
245,844	-2,658	290,666	143,822
246,859	-2,529	290,408	143,809
247,874	-2,416	290,263	143,835
248,888	-2,530	290,104	143,632
249,903	-2,515	289,966	143,565
250,917	-2,405	289,738	143,548
251,932	-2,634	289,619	143,251
252,947	-2,615	289,288	143,094
253,961	-2,840	288,985	142,712
254,976	-2,867	288,672	142,518
255,990	-3,142	288,516	142,161
257,005	-2,564	288,493	142,700
258,020	-0,591	289,242	144,981
259,034	0,820	289,689	146,567
260,049	1,462	289,939	147,307
261,063	1,819	289,830	147,586
262,078	2,325	289,535	147,915
263,093	2,428	289,611	148,042
264,107	2,660	289,544	148,219
265,122	3,029	289,326	148,453
266,136	3,126	289,142	148,439
267,151	3,050	289,072	148,317
268,166	3,158	288,860	148,299
269,180	3,047	288,621	148,056
270,195	2,999	288,473	147,920
271,209	3,040	288,206	147,810
272,224	2,969	287,996	147,620
273,239	2,726	287,834	147,290
274,253	2,791	287,673	147,256
275,268	2,601	287,435	146,938
276,282	2,819	287,220	147,026
277,297	2,807	286,956	146,866
278,312	2,780	286,908	146,802
279,326	2,882	286,680	146,771
280,341	2,908	286,507	146,694
281,355	2,728	286,317	146,411
282,370	2,619	286,161	146,213
283,384	2,851	285,835	146,256
284,399	2,733	285,690	146,056
285,414	2,824	285,531	146,048
286,428	2,671	285,304	145,773
287,443	2,777	285,108	145,762
288,457	2,624	284,937	145,515
289,472	2,724	284,586	145,418
290,487	2,660	284,596	145,349
291,501	2,551	284,329	145,096
292,516	2,591	284,084	144,996
293,530	2,494	284,019	144,857
294,545	2,641	283,850	144,898
295,560	2,558	283,717	144,738
296,574	2,509	283,454	144,545
297,589	2,502	283,181	144,386
298,603	2,504	283,162	144,366
299,618	2,716	282,791	144,365
300,633	2,480	282,743	144,103
301,647	2,626	282,619	144,165
302,662	2,785	282,323	144,152
303,676	2,828	282,311	144,174
304,691	2,879	282,049	144,075
305,706	2,897	281,820	143,962
306,720	2,933	281,671	143,908
307,735	2,912	281,525	143,800
308,749	2,900	281,524	143,775
309,764	2,688	281,313	143,456
310,779	2,732	281,016	143,332
311,793	2,839	280,695	143,256
312,808	2,719	280,547	143,055
313,822	2,750	280,397	142,994
314,837	2,770	280,305	142,954
315,852	2,861	280,069	142,906
316,866	2,704	279,985	142,703
317,881	2,772	279,655	142,587
318,895	2,828	279,585	142,590
319,910	2,740	279,330	142,365
320,925	2,686	279,155	142,213
321,939	2,869	278,972	142,278
322,954	2,812	278,860	142,155
323,968	2,947	278,641	142,156
324,983	2,953	278,486	142,070
325,997	2,816	278,423	141,897
327,012	3,030	278,112	141,925
328,027	2,794	278,136	141,706
329,041	3,094	277,757	141,778
330,056	3,056	277,687	141,694
331,070	2,969	277,387	141,448
332,085	2,832	277,261	141,245
333,100	3,010	276,959	141,243
334,114	2,955	276,765	141,081
335,129	2,770	276,587	140,807
336,143	3,023	276,495	140,981
337,158	3,003	276,342	140,871
338,173	2,916	276,181	140,697
339,187	2,904	276,078	140,621
340,202	2,957	275,860	140,546
341,216	2,778	275,615	140,244
342,231	2,835	275,436	140,193
343,246	2,905	275,222	140,136
344,260	2,688	275,204	139,915
345,275	2,832	275,116	139,989
346,289	2,877	274,812	139,864
347,304	2,917	274,499	139,728
348,319	2,974	274,380	139,708
349,333	2,986	274,198	139,613
350,348	2,876	274,116	139,459
351,362	2,777	273,803	139,197
352,377	2,933	273,722	139,285
353,392	3,172	273,514	139,385
354,406	2,963	273,449	139,149
355,421	190,835	1349,710	1428,003
356,435	154,063	1480,940	1428,133
