DTS Sentinel unit serial number:	SN410029Multiplexer serial number:	ORYXHardware model number:	OX2-SRSoftware version number:	ORYX F/W v4,00 Oryx Data Collector v3.7.2.0data status	okinstallation	B4 Nyhavnadifferential loss correction	single-endedforward channel	channel 2reverse channel	N/Adate	2023/12/16time	03:35:13forward acquisition time	300,00reverse acquisition time	0,00gamma	499,1914k internal	0,3128k external	0,3128temperature offset calibration	1,0000default loss term (dB/km)	0,3820temperature slope calibration	1,0000multiplexer offset coefficient	1,0000multiplexer slope coefficient	1,0000fibre end	0,00T internal ref (°C)	22,00T ext. ref 1 (°C)	7,05T ext. ref 2 (°C)	7,25length (m)	temperature (°C)	Stokes	anti-Stokes-744,400	-200,000	0,014	-0,090
-743,385	40,538	-0,197	0,132
-742,371	13,883	0,110	-0,063
-741,356	94,880	-0,176	0,149
-740,342	-109,001	0,083	0,013
-739,327	154,649	-0,204	0,208
-738,312	-200,000	0,015	0,118
-737,298	-72,085	-0,069	0,019
-736,283	-200,000	-0,035	-0,179
-735,269	-45,848	-0,136	0,050
-734,254	104,386	0,117	-0,103
-733,239	-30,975	-0,418	-0,175
-732,225	-127,596	0,217	-0,023
-731,210	39,854	-0,127	-0,085
-730,196	800,000	0,025	-0,067
-729,181	308,560	-0,044	-0,062
-728,167	800,000	-0,038	-0,098
-727,152	800,000	0,032	-0,101
-726,137	800,000	0,027	-0,065
-725,123	-127,098	-0,060	-0,006
-724,108	-106,221	-0,183	-0,030
-723,094	6,949	-0,086	-0,047
-722,079	-134,317	-0,081	-0,007
-721,064	800,000	-0,057	-0,185
-720,050	391,901	-0,015	0,023
-719,035	265,775	0,056	0,073
-718,021	-33,926	-0,078	-0,032
-717,006	104,747	0,012	-0,011
-715,991	-200,000	-0,037	-0,145
-714,977	800,000	0,029	-0,085
-713,962	-126,222	0,073	-0,008
-712,948	800,000	0,032	0,102
-711,933	-200,000	0,012	0,067
-710,918	576,832	0,015	0,027
-709,904	800,000	-0,049	0,120
-708,889	-26,663	-0,024	-0,010
-707,875	194,760	-0,141	0,159
-706,860	-111,780	0,146	0,022
-705,845	800,000	0,022	0,048
-704,831	-112,412	0,057	0,008
-703,816	413,724	-0,008	0,013
-702,802	800,000	-0,047	-0,109
-701,787	800,000	-0,040	-0,115
-700,772	-200,000	0,030	-0,113
-699,758	79,802	-0,046	0,037
-698,743	-200,000	-0,020	0,109
-697,729	424,364	-0,048	0,078
-696,714	86,936	-0,049	0,040
-695,699	93,201	0,061	0,051
-694,685	209,980	-0,074	-0,087
-693,670	-30,809	-0,141	-0,059
-692,656	800,000	0,011	-0,030
-691,641	-94,466	-0,055	-0,011
-690,627	169,626	-0,098	0,104
-689,612	800,000	-0,055	0,151
-688,597	-86,571	-0,048	-0,011
-687,583	800,000	0,049	-0,154
-686,568	676,781	0,066	-0,128
-685,554	177,487	-0,068	0,073
-684,539	800,000	0,056	0,127
-683,524	-200,000	0,000	0,075
-682,510	0,583	0,142	0,075
-681,495	92,640	0,033	-0,028
-680,481	85,301	0,032	-0,026
-679,466	-103,669	-0,061	0,010
-678,451	18,225	-0,128	-0,076
-677,437	57,640	0,106	0,077
-676,422	-200,000	-0,022	0,084
-675,408	-45,368	0,096	0,035
-674,393	47,851	-0,134	-0,093
-673,378	-200,000	-0,030	-0,100
-672,364	800,000	-0,030	-0,066
-671,349	-65,499	-0,095	-0,028
-670,335	-200,000	-0,016	0,088
-669,320	-200,000	0,019	0,091
-668,305	-68,658	0,108	0,031
-667,291	194,344	-0,082	0,093
-666,276	-103,867	0,041	-0,007
-665,262	-35,706	-0,056	-0,022
-664,247	135,070	0,024	0,023
-663,232	-101,601	-0,075	-0,013
-662,218	-38,327	0,105	0,041
-661,203	80,853	-0,085	-0,068
-660,189	602,058	-0,077	0,143
-659,174	673,603	0,076	-0,146
-658,159	61,508	-0,104	-0,076
-657,145	-163,584	0,062	-0,002
-656,130	-200,000	-0,006	0,091
-655,116	-200,000	0,008	0,093
-654,101	-99,337	0,074	-0,014
-653,086	280,180	-0,053	-0,071
-652,072	529,088	-0,017	-0,030
-651,057	97,774	-0,076	-0,064
-650,043	141,715	0,107	0,105
-649,028	149,946	-0,099	-0,100
-648,014	413,160	-0,053	0,084
-646,999	175,681	0,046	0,049
-645,984	105,301	-0,152	0,133
-644,970	739,921	-0,049	0,097
-643,955	400,749	0,114	-0,177
-642,941	17,330	0,062	0,036
-641,926	21,738	0,069	0,042
-640,911	622,847	0,078	-0,145
-639,897	-200,000	0,025	-0,123
-638,882	-200,000	0,018	0,100
-637,868	800,000	0,037	-0,086
-636,853	-110,166	-0,110	-0,017
-635,838	215,715	-0,066	-0,078
-634,824	123,320	0,082	-0,076
-633,809	290,136	-0,008	-0,011
-632,795	-63,952	-0,033	0,010
-631,780	125,926	-0,070	0,065
-630,765	14,053	-0,019	-0,011
-629,751	-200,000	0,005	-0,018
-628,736	2,767	-0,170	-0,091
-627,722	110,522	0,034	0,030
-626,707	268,194	0,036	0,047
-625,692	-200,000	0,009	0,049
-624,678	3,514	0,095	0,051
-623,663	-200,000	0,001	0,044
-622,649	800,000	-0,042	-0,123
-621,634	323,555	-0,061	-0,087
-620,619	-200,000	0,029	-0,097
-619,605	487,533	0,026	-0,044
-618,590	-200,000	-0,019	0,133
-617,576	800,000	0,007	-0,021
-616,561	256,354	-0,042	-0,054
-615,546	-200,000	-0,014	-0,109
-614,532	711,827	-0,076	-0,150
-613,517	225,577	-0,022	-0,026
-612,503	212,984	-0,036	0,042
-611,488	-88,784	0,115	0,025
-610,474	137,734	-0,050	0,049
-609,459	-200,000	0,009	-0,125
-608,444	96,364	0,103	-0,087
-607,430	800,000	-0,036	0,102
-606,415	-200,000	-0,010	-0,037
-605,401	-200,000	-0,061	-0,233
-604,386	-102,551	0,204	-0,036
-603,371	150,799	0,032	0,032
-602,357	-200,000	0,040	0,000
-601,342	404,948	0,048	-0,074
-600,328	20,605	0,045	-0,027
-599,313	692,379	0,045	-0,088
-598,298	-200,000	-0,021	-0,173
-597,284	43,129	-0,104	-0,070
-596,269	800,000	-0,009	0,025
-595,255	189,364	-0,049	0,054
-594,240	-110,423	-0,145	-0,022
-593,225	-200,000	-0,007	-0,145
-592,211	-200,000	0,010	-0,088
-591,196	800,000	-0,015	-0,042
-590,182	-200,000	-0,009	0,063
-589,167	-200,000	0,000	-0,039
-588,152	110,166	-0,046	0,041
-587,138	16,805	0,011	0,006
-586,123	800,000	-0,030	-0,097
-585,109	-4,694	-0,072	-0,037
-584,094	800,000	-0,097	-0,204
-583,079	800,000	0,063	-0,134
-582,065	800,000	0,018	-0,050
-581,050	-140,345	0,067	0,005
-580,036	52,324	-0,107	0,076
-579,021	121,976	-0,036	0,034
-578,006	-200,000	0,066	0,000
-576,992	632,669	0,009	0,016
-575,977	716,919	0,045	-0,089
-574,963	-73,414	0,111	0,030
-573,948	10,146	-0,077	0,043
-572,934	-54,772	0,123	0,041
-571,919	800,000	-0,021	-0,062
-570,904	-200,000	-0,013	0,057
-569,890	-200,000	-0,011	-0,059
-568,875	-200,000	0,003	-0,031
-567,861	800,000	0,031	-0,081
-566,846	800,000	-0,040	-0,103
-565,831	-86,584	0,113	-0,025
-564,817	800,000	0,018	-0,039
-563,802	800,000	0,012	-0,039
-562,788	-152,908	0,104	0,005
-561,773	151,767	0,075	0,076
-560,758	113,979	-0,050	0,045
-559,744	88,763	-0,072	0,060
-558,729	119,338	0,086	-0,079
-557,715	-116,008	-0,029	-0,004
-556,700	13,945	-0,059	0,034
-555,685	800,000	-0,031	-0,067
-554,671	117,854	0,034	-0,031
-553,656	800,000	0,022	0,060
-552,642	-200,000	-0,017	-0,077
-551,627	-100,429	-0,080	-0,014
-550,612	800,000	0,017	-0,038
-549,598	-70,538	-0,079	-0,022
-548,583	-78,119	-0,128	-0,032
-547,569	300,614	-0,024	0,033
-546,554	318,369	-0,065	0,091
-545,539	90,480	0,077	-0,064
-544,525	-200,000	0,018	0,087
-543,510	-200,000	0,024	-0,146
-542,496	-111,233	0,104	0,016
-541,481	-18,586	-0,018	-0,008
-540,466	-200,000	-0,013	-0,061
-539,452	75,658	-0,049	-0,038
-538,437	800,000	-0,023	0,063
-537,423	-200,000	-0,029	0,108
-536,408	-200,000	-0,031	0,114
-535,393	800,000	0,024	-0,056
-534,379	-200,000	0,006	-0,072
-533,364	-200,000	-0,006	0,032
-532,350	42,176	0,022	0,015
-531,335	-114,656	0,118	0,017
-530,321	-200,000	0,015	0,060
-529,306	-200,000	0,016	0,089
-528,291	37,609	0,151	0,099
-527,277	800,000	-0,038	-0,087
-526,262	-84,268	-0,099	-0,023
-525,248	-90,056	0,116	-0,025
-524,233	-6,558	0,024	-0,012
-523,218	-200,000	-0,001	-0,145
-522,204	103,985	-0,077	-0,067
-521,189	17,393	-0,189	-0,110
-520,175	3,655	0,035	-0,019
-519,160	800,000	0,018	-0,038
-518,145	-200,000	-0,000	0,233
-517,131	254,831	0,075	0,095
-516,116	800,000	-0,076	0,189
-515,102	-200,000	0,006	0,094
-514,087	112,309	0,087	-0,078
-513,072	-10,501	-0,101	0,049
-512,058	530,169	-0,080	-0,140
-511,043	-200,000	0,019	-0,089
-510,029	-200,000	0,036	0,164
-509,014	-170,842	-0,069	-0,002
-507,999	-142,886	-0,068	-0,005
-506,985	800,000	-0,009	-0,027
-505,970	-200,000	0,001	-0,053
-504,956	800,000	0,047	-0,141
-503,941	238,783	-0,050	0,061
-502,926	-200,000	-0,016	0,055
-501,912	-66,271	-0,049	-0,014
-500,897	800,000	-0,022	0,064
-499,883	-134,882	0,113	-0,010
-498,868	-155,394	-0,059	-0,003
-497,853	234,342	-0,059	-0,072
-496,839	132,999	0,067	0,064
-495,824	9,338	-0,055	0,030
-494,810	-37,944	-0,061	0,024
-493,795	-121,453	0,034	-0,004
-492,781	800,000	0,014	0,037
-491,766	2,399	-0,141	-0,075
-490,751	800,000	0,019	-0,043
-489,737	-200,000	-0,023	0,076
-488,722	800,000	0,048	0,120
-487,708	453,488	-0,062	0,101
-486,693	581,571	0,073	0,133
-485,678	-200,000	0,023	-0,162
-484,664	107,719	-0,071	-0,063
-483,649	800,000	-0,014	0,029
-482,635	-118,153	-0,077	0,010
-481,620	521,485	-0,055	0,096
-480,605	197,300	-0,059	0,067
-479,591	-46,547	0,064	0,023
-478,576	201,867	-0,039	0,044
-477,562	4,315	-0,039	-0,021
-476,547	220,919	-0,077	-0,091
-475,532	-48,853	-0,075	0,026
-474,518	-146,718	0,026	0,002
-473,503	220,303	0,018	0,021
-472,489	2,931	0,057	-0,030
-471,474	178,776	-0,041	0,044
-470,459	-200,000	-0,005	0,034
-469,445	102,026	0,086	-0,074
-468,430	88,837	-0,047	-0,038
-467,416	74,732	-0,087	-0,067
-466,401	254,961	0,045	0,057
-465,386	-200,000	0,012	0,161
-464,372	-98,232	0,036	-0,007
-463,357	-200,000	-0,022	-0,195
-462,343	69,019	0,042	-0,031
-461,328	-200,000	0,017	-0,104
-460,313	650,864	0,087	-0,165
-459,299	-200,000	-0,019	0,152
-458,284	9,494	0,157	-0,087
-457,270	-6,775	0,027	-0,014
-456,255	234,986	0,038	0,046
-455,241	269,797	-0,057	-0,073
-454,226	208,950	-0,045	-0,052
-453,211	800,000	-0,021	0,049
-452,197	241,654	0,034	-0,042
-451,182	50,726	-0,067	0,047
-450,168	-23,076	0,154	0,068
-449,153	-200,000	-0,016	0,093
-448,138	103,470	-0,097	0,084
-447,124	-200,000	-0,014	-0,134
-446,109	-7,677	0,145	0,072
-445,095	98,115	-0,089	-0,076
-444,080	69,070	0,065	-0,049
-443,065	-200,000	-0,000	-0,056
-442,051	-200,000	0,001	-0,002
-441,036	-10,984	-0,008	-0,004
-440,022	-155,280	0,048	-0,002
-439,007	-29,325	-0,108	-0,045
-437,992	780,069	0,051	-0,104
-436,978	800,000	-0,010	0,025
-435,963	-25,875	0,059	0,026
-434,949	417,201	-0,048	-0,076
-433,934	-184,788	-0,078	0,001
-432,919	-200,000	0,001	0,132
-431,905	161,592	0,062	-0,064
-430,890	-200,000	-0,035	0,123
-429,876	800,000	-0,034	0,079
-428,861	800,000	0,036	-0,100
-427,846	800,000	-0,033	-0,084
-426,832	-200,000	-0,015	-0,112
-425,817	-109,169	-0,098	-0,015
-424,803	444,722	-0,106	-0,171
-423,788	-200,000	0,040	0,130
-422,773	-12,531	0,184	0,088
-421,759	271,874	0,089	-0,115
-420,744	-127,325	-0,116	-0,012
-419,730	-19,434	0,099	0,045
-418,715	592,145	-0,020	-0,036
-417,701	-100,611	-0,079	0,014
-416,686	128,897	0,021	-0,019
-415,671	43,047	-0,091	-0,061
-414,657	-200,000	0,017	0,058
-413,642	472,578	0,042	-0,070
-412,628	233,114	-0,031	-0,038
-411,613	-200,000	0,002	0,090
-410,598	-200,000	0,030	-0,105
-409,584	-170,634	0,164	-0,004
-408,569	118,472	-0,075	0,068
-407,555	-200,000	-0,008	-0,050
-406,540	322,830	0,032	0,044
-405,525	-128,540	0,041	0,004
-404,511	-92,371	0,040	0,008
-403,496	-200,000	0,009	0,031
-402,482	-67,396	0,003	-0,001
-401,467	148,907	-0,023	-0,023
-400,452	116,295	0,080	0,072
-399,438	257,407	0,028	0,035
-398,423	-200,000	0,040	-0,154
-397,409	-62,625	-0,048	0,014
-396,394	187,483	-0,114	-0,125
-395,379	-37,630	-0,065	0,025
-394,365	741,616	-0,056	0,111
-393,350	-23,528	0,125	0,055
-392,336	800,000	0,023	-0,071
-391,321	-200,000	0,022	-0,132
-390,306	160,873	0,066	-0,068
-389,292	87,099	-0,159	0,129
-388,277	385,601	0,064	0,098
-387,263	310,800	0,029	-0,040
-386,248	440,941	-0,018	0,030
-385,233	21,114	0,111	-0,066
-384,219	61,330	-0,053	0,038
-383,204	-98,140	0,074	0,014
-382,190	-200,000	-0,008	0,042
-381,175	-200,000	-0,003	0,037
-380,160	-14,248	0,057	-0,027
-379,146	213,401	0,063	0,073
-378,131	-78,429	-0,086	-0,022
-377,117	-83,627	0,072	-0,017
-376,102	-37,057	-0,166	0,065
-375,088	-166,747	-0,075	-0,002
-374,073	-200,000	0,022	0,080
-373,058	-179,598	0,082	-0,001
-372,044	97,383	-0,101	0,085
-371,029	-200,000	0,013	0,098
-370,015	-200,000	-0,008	0,099
-369,000	74,825	0,026	-0,020
-367,985	800,000	0,031	0,082
-366,971	88,817	-0,071	0,058
-365,956	-200,000	0,002	0,079
-364,942	-130,772	0,039	-0,004
-363,927	85,244	0,120	0,096
-362,912	-200,000	-0,033	0,137
-361,898	-200,000	-0,179	0,000
-360,883	-200,000	-0,027	0,105
-359,869	91,069	-0,122	-0,100
-358,854	313,110	-0,039	-0,053
-357,839	-88,788	0,078	0,017
-356,825	-154,830	-0,079	-0,004
-355,810	-99,830	-0,045	-0,008
-354,796	-145,911	-0,050	-0,003
-353,781	-157,765	-0,034	0,001
-352,766	-200,000	-0,000	0,073
-351,752	-200,000	0,013	-0,086
-350,737	-200,000	-0,008	-0,068
-349,723	-90,094	0,065	0,014
-348,708	76,815	0,047	0,037
-347,693	-200,000	0,023	-0,108
-346,679	-200,000	-0,007	-0,036
-345,664	-200,000	0,004	-0,023
-344,650	35,340	0,017	0,011
-343,635	188,443	-0,058	-0,064
-342,620	58,406	0,069	0,050
-341,606	-200,000	0,002	0,115
-340,591	-39,283	-0,126	0,048
-339,577	126,238	-0,116	-0,108
-338,562	-200,000	0,009	0,045
-337,548	-120,991	0,112	0,014
-336,533	800,000	0,059	0,149
-335,518	-200,000	-0,006	-0,068
-334,504	-200,000	-0,020	-0,101
-333,489	411,567	0,067	-0,105
-332,475	68,394	-0,044	-0,033
-331,460	85,516	-0,032	0,026
-330,445	-75,969	0,118	0,030
-329,431	80,607	0,100	0,079
-328,416	-200,000	0,038	0,187
-327,402	-200,000	-0,002	0,112
-326,387	84,028	-0,043	-0,034
-325,372	-99,139	0,051	0,009
-324,358	61,871	-0,107	0,078
-323,343	-154,356	0,039	0,002
-322,329	-145,471	0,066	-0,004
-321,314	121,927	0,120	0,110
-320,299	246,298	-0,058	-0,072
-319,285	13,136	0,141	0,080
-318,270	-200,000	0,028	-0,094
-317,256	800,000	0,046	-0,113
-316,241	73,315	0,075	-0,057
-315,226	-200,000	-0,031	0,135
-314,212	-17,967	-0,117	0,054
-313,197	21,528	0,066	0,039
-312,183	-134,718	-0,219	0,019
-311,168	800,000	0,030	0,085
-310,153	44,949	-0,109	-0,074
-309,139	61,943	-0,120	0,087
-308,124	-149,207	0,040	0,002
-307,110	167,065	0,044	0,046
-306,095	-61,460	0,040	0,012
-305,080	22,277	-0,034	-0,020
-304,066	-71,020	-0,087	-0,024
-303,051	-200,000	-0,010	-0,061
-302,037	-91,443	-0,091	-0,019
-301,022	800,000	0,024	0,060
-300,008	34,758	-0,124	0,079
-298,993	800,000	0,084	0,179
-297,978	533,390	0,024	0,042
-296,964	140,294	-0,059	0,057
-295,949	-200,000	-0,002	-0,114
-294,935	17,028	-0,189	-0,109
-293,920	-200,000	0,005	-0,067
-292,905	154,879	0,112	0,113
-291,891	533,292	0,025	0,044
-290,876	606,276	-0,023	-0,041
-289,862	-146,812	0,104	-0,006
-288,847	-160,662	0,106	0,004
-287,832	800,000	-0,061	-0,129
-286,818	192,810	-0,094	0,104
-285,803	33,231	-0,029	0,019
-284,789	-200,000	0,019	0,070
-283,774	-200,000	0,015	0,079
-282,759	-123,333	-0,136	0,016
-281,745	-115,945	-0,103	-0,014
-280,730	-200,000	-0,020	-0,086
-279,716	469,423	0,060	-0,098
-278,701	-200,000	0,002	0,051
-277,686	800,000	-0,007	-0,017
-276,672	796,352	0,016	-0,032
-275,657	221,695	0,119	-0,140
-274,643	98,312	0,027	-0,022
-273,628	79,446	-0,052	0,041
-272,613	231,895	0,079	-0,094
-271,599	800,000	0,016	0,033
-270,584	33,683	-0,090	-0,057
-269,570	-200,000	0,001	0,170
-268,555	-65,632	-0,033	-0,010
-267,540	34,378	-0,041	0,026
-266,526	310,956	-0,008	0,011
-265,511	-124,919	-0,193	0,021
-264,497	-68,830	0,134	-0,037
-263,482	-200,000	0,005	0,063
-262,467	685,485	-0,038	0,072
-261,453	-200,000	0,047	0,196
-260,438	20,032	0,027	0,016
-259,424	95,704	-0,075	-0,063
-258,409	-86,705	-0,203	0,045
-257,395	-2,524	0,121	0,061
-256,380	243,563	-0,020	0,025
-255,365	-21,510	0,003	0,001
-254,351	299,288	-0,106	-0,143
-253,336	-200,000	0,007	0,059
-252,322	79,272	0,098	-0,076
-251,307	125,527	0,058	-0,053
-250,292	295,632	0,051	0,068
-249,278	-200,000	-0,010	-0,063
-248,263	-72,057	0,100	-0,027
-247,249	341,107	0,028	0,041
-246,234	183,936	-0,027	-0,029
-245,219	-4,005	-0,105	-0,053
-244,205	173,875	0,033	-0,035
-243,190	-151,909	-0,057	-0,003
-242,176	-200,000	0,007	0,064
-241,161	-23,037	0,108	-0,047
-240,146	46,490	0,099	-0,067
-239,132	-19,226	0,048	-0,022
-238,117	54,489	0,062	-0,044
-237,103	-65,327	0,119	-0,035
-236,088	-200,000	-0,008	0,047
-235,073	17,731	0,102	-0,059
-234,059	-90,512	0,085	0,018
-233,044	115,661	0,096	-0,086
-232,030	800,000	-0,042	0,115
-231,015	790,605	0,012	0,024
-230,000	-200,000	0,015	-0,066
-228,986	800,000	-0,056	0,160
-227,971	80,647	0,131	0,103
-226,957	38,392	0,049	-0,032
-225,942	-43,061	-0,066	0,024
-224,927	-152,716	-0,065	-0,003
-223,913	-200,000	0,026	-0,108
-222,898	-200,000	0,001	0,016
-221,884	-90,519	-0,095	-0,020
-220,869	-119,639	-0,067	-0,008
-219,855	-200,000	0,000	0,086
-218,840	784,401	0,049	0,098
-217,825	132,152	-0,087	-0,082
-216,811	227,790	-0,038	0,046
-215,796	-200,000	-0,004	0,088
-214,782	137,294	0,043	0,041
-213,767	-36,697	0,125	0,049
-212,752	-200,000	0,007	0,115
-211,738	166,489	-0,042	0,043
-210,723	520,459	-0,054	0,092
-209,709	382,901	-0,069	-0,104
-208,694	800,000	0,060	-0,131
-207,679	-128,879	0,123	0,012
-206,665	62,356	0,070	0,051
-205,650	-200,000	-0,015	0,165
-204,636	-200,000	0,041	0,138
-203,621	800,000	0,040	0,104
-202,606	-83,538	-0,026	-0,006
-201,592	61,940	0,077	-0,056
-200,577	441,749	0,058	0,092
-199,563	129,212	0,057	0,053
-198,548	-193,709	0,058	0,000
-197,533	-44,973	0,146	0,053
-196,519	-200,000	0,025	0,101
-195,504	-159,555	-0,118	0,005
-194,490	116,208	-0,090	0,080
-193,475	-10,288	0,074	0,036
-192,460	800,000	-0,024	0,064
-191,446	-63,316	0,129	-0,038
-190,431	37,298	-0,076	0,049
-189,417	-200,000	-0,012	0,112
-188,402	-199,945	0,085	-0,000
-187,387	22,389	-0,091	-0,054
-186,373	-93,613	-0,069	0,014
-185,358	-45,261	-0,054	0,019
-184,344	800,000	-0,034	0,085
-183,329	175,103	0,097	-0,102
-182,315	95,136	0,066	-0,054
-181,300	-118,121	0,115	-0,015
-180,285	-33,726	-0,073	-0,029
-179,271	-54,885	0,078	0,025
-178,256	800,000	0,005	-0,012
-177,242	-35,729	0,101	-0,040
-176,227	97,651	0,106	0,089
-175,212	340,737	0,023	-0,033
-174,198	-200,000	-0,011	-0,043
-173,183	180,497	-0,036	-0,038
-172,169	-35,085	-0,022	-0,009
-171,154	360,419	-0,058	-0,084
-170,139	-98,228	0,103	0,019
-169,125	-200,000	-0,021	-0,067
-168,110	166,012	-0,027	-0,027
-167,096	800,000	0,037	0,093
-166,081	-12,380	-0,042	0,020
-165,066	-200,000	0,018	-0,060
-164,052	-21,551	0,032	0,014
-163,037	29,074	-0,143	-0,088
-162,023	175,618	0,080	0,084
-161,008	-123,569	-0,081	0,009
-159,993	-72,324	-0,159	-0,043
-158,979	-19,503	-0,036	0,016
-157,964	-66,826	-0,134	-0,038
-156,950	-71,420	0,112	-0,030
-155,935	-200,000	0,033	-0,139
-154,920	193,420	0,124	0,137
-153,906	-152,822	-0,081	0,004
-152,891	17,434	0,017	-0,010
-151,877	754,276	0,065	-0,127
-150,862	667,686	0,020	0,038
-149,847	800,000	-0,008	0,024
-148,833	19,722	0,049	-0,028
-147,818	-41,430	0,083	-0,031
-146,804	-18,962	0,154	0,069
-145,789	5,835	-0,066	0,035
-144,775	800,000	-0,029	-0,074
-143,760	-13,797	0,086	-0,040
-142,745	548,529	0,025	0,044
-141,731	-200,000	0,031	0,175
-140,716	-96,963	0,079	-0,015
-139,702	-70,935	0,076	0,021
-138,687	86,746	-0,046	-0,037
-137,672	122,979	0,022	0,020
-136,658	-200,000	-0,004	-0,092
-135,643	43,883	-0,083	-0,055
-134,629	-104,013	-0,058	-0,010
-133,614	-200,000	0,105	-0,000
-132,599	-200,000	-0,010	0,054
-131,585	-200,000	-0,005	0,065
-130,570	-182,955	0,047	-0,001
-129,556	800,000	0,040	0,111
-128,541	367,346	0,028	-0,041
-127,526	800,000	0,028	0,089
-126,512	195,536	0,078	0,086
-125,497	-200,000	0,035	0,124
-124,483	800,000	0,050	0,121
-123,468	551,796	-0,022	-0,039
-122,453	800,000	0,035	0,082
-121,439	182,324	-0,099	-0,106
-120,424	-181,495	0,168	0,002
-119,410	-39,615	0,066	-0,025
-118,395	-200,000	-0,004	-0,060
-117,380	70,889	-0,067	0,050
-116,366	-148,340	-0,128	-0,008
-115,351	-134,430	-0,042	0,004
-114,337	-49,780	-0,026	-0,009
-113,322	-200,000	-0,006	-0,030
-112,307	318,599	0,025	0,034
-111,293	-53,621	0,120	-0,040
-110,278	139,215	0,116	0,111
-109,264	800,000	-0,017	-0,049
-108,249	-76,898	0,038	0,009
-107,234	800,000	-0,062	-0,140
-106,220	46,800	0,110	-0,074
-105,205	408,909	-0,048	-0,074
-104,191	800,000	-0,038	0,100
-103,176	-193,332	-0,066	-0,000
-102,162	11,117	0,078	-0,043
-101,147	-200,000	-0,045	0,149
-100,132	-66,092	-0,100	0,029
-99,118	143,067	-0,050	0,048
-98,103	-38,053	0,060	-0,023
-97,089	155,604	-0,129	0,129
-96,074	-200,000	-0,016	-0,087
-95,059	28,152	-0,140	0,085
-94,045	98,617	-0,009	-0,007
-93,030	95,065	0,025	-0,020
-92,016	-200,000	0,005	0,082
-91,001	56,312	-0,029	-0,020
-89,986	-200,000	0,025	0,124
-88,972	411,167	-0,068	0,105
-87,957	-200,000	-0,035	0,156
-86,943	105,070	0,047	-0,040
-85,928	-200,000	0,008	-0,048
-84,913	800,000	0,026	-0,068
-83,899	680,310	0,050	0,095
-82,884	638,315	0,060	0,111
-81,870	-67,921	0,084	0,023
-80,855	-200,000	-0,001	-0,150
-79,840	572,881	-0,068	0,120
-78,826	15,104	-0,073	0,041
-77,811	-21,274	-0,109	-0,048
-76,797	143,529	0,038	-0,037
-75,782	-108,650	0,075	-0,011
-74,767	-17,576	0,078	-0,035
-73,753	-200,000	0,014	0,178
-72,738	-26,873	-0,076	0,032
-71,724	318,864	-0,042	0,058
-70,709	310,494	-0,080	0,109
-69,694	-200,000	0,008	0,079
-68,680	-152,319	0,172	-0,009
-67,665	-200,000	0,005	0,068
-66,651	800,000	0,019	0,042
-65,636	425,224	-0,009	0,014
-64,622	-200,000	0,017	0,068
-63,607	509,192	0,025	-0,043
-62,592	-200,000	0,009	-0,050
-61,578	-101,562	0,178	0,031
-60,563	487,988	-0,047	0,078
-59,549	-6,648	0,061	-0,030
-58,534	-122,560	-1,281	-0,149
-57,519	546,614	-0,745	-1,297
-56,505	-200,000	-0,753	-4,314
-55,490	-66,232	0,714	-0,205
-54,476	800,000	4,790	11,579
-53,461	-200,000	13,900	251,288
-52,446	-200,000	692,822	2239,781
-51,432	583,228	1621,829	2895,596
-50,417	117,920	1630,841	1455,175
-49,403	73,939	1285,302	975,541
-48,388	37,775	1022,088	656,240
-47,373	24,049	980,279	584,392
-46,359	23,309	969,435	575,486
-45,344	22,277	965,411	569,713
-44,330	22,158	963,983	568,461
-43,315	22,121	962,552	567,474
-42,300	22,064	961,434	566,607
-41,286	22,061	960,600	566,084
-40,271	22,072	959,620	565,518
-39,257	21,990	958,659	564,665
-38,242	21,981	957,682	564,039
-37,227	22,058	956,715	563,694
-36,213	21,991	956,048	563,063
-35,198	21,998	954,987	562,439
-34,184	21,972	954,518	562,057
-33,169	21,982	953,584	561,518
-32,154	22,014	952,669	561,058
-31,140	22,087	951,742	560,725
-30,125	22,032	951,083	560,139
-29,111	22,024	950,189	559,564
-28,096	22,034	949,362	559,085
-27,082	22,072	948,785	558,845
-26,067	22,062	947,981	558,317
-25,052	22,045	947,392	557,896
-24,038	22,060	946,774	557,558
-23,023	22,071	945,968	557,096
-22,009	22,105	945,322	556,801
-20,994	22,031	944,902	556,295
-19,979	22,088	944,103	555,985
-18,965	22,097	943,338	555,539
-17,950	22,043	942,997	555,145
-16,936	21,976	942,174	554,425
-15,921	21,983	941,619	554,101
-14,906	21,909	940,850	553,392
-13,892	21,950	940,042	553,024
-12,877	21,939	939,507	552,653
-11,863	21,896	938,961	552,174
-10,848	21,876	938,427	551,775
-9,833	22,022	937,958	551,938
-8,819	21,981	937,369	551,438
-7,804	21,924	936,841	550,928
-6,790	21,942	935,978	550,454
-5,775	21,935	935,461	550,106
-4,760	21,914	934,870	549,671
-3,746	21,861	934,297	549,146
-2,731	21,730	933,640	548,327
-1,717	21,768	932,812	547,935
-0,702	21,767	932,143	547,518
0,313	21,569	931,499	547,343
1,327	24,168	929,145	554,057
2,342	31,962	807,266	502,428
3,356	27,086	507,616	307,620
4,371	2,910	372,238	194,995
5,386	-0,157	355,242	182,334
6,400	-1,748	349,125	177,268
7,415	-2,528	346,424	174,951
8,429	-2,884	344,858	173,721
9,444	-2,801	343,880	173,311
10,459	-2,634	343,170	173,136
11,473	-2,565	342,425	172,825
12,488	-2,459	342,131	172,786
13,502	-2,442	341,523	172,484
14,517	-2,582	341,009	172,045
15,531	-2,815	340,474	171,487
16,546	-2,848	340,063	171,226
17,561	-2,692	339,466	171,092
18,575	-2,576	339,211	171,084
19,590	-2,757	338,778	170,639
20,604	-2,609	338,373	170,592
21,619	-2,800	338,181	170,258
22,634	-2,753	337,779	170,095
23,648	-2,706	337,262	169,875
24,663	-2,617	337,078	169,869
25,677	-2,723	336,917	169,651
26,692	-2,636	336,526	169,539
27,707	-2,765	336,315	169,268
28,721	-2,803	335,873	168,987
29,736	-2,737	335,497	168,860
30,750	-2,657	335,149	168,761
31,765	-2,729	334,944	168,559
32,780	-2,708	334,632	168,411
33,794	-2,677	334,467	168,350
34,809	-2,602	333,964	168,167
35,823	-2,608	333,749	168,038
36,838	-2,639	333,386	167,804
37,853	-2,741	333,226	167,591
38,867	-2,875	332,797	167,208
39,882	-2,775	332,577	167,196
40,896	-2,882	332,260	166,900
41,911	-2,807	332,041	166,860
42,926	-2,714	331,789	166,826
43,940	-2,841	331,421	166,480
44,955	-2,807	331,267	166,428
45,969	-2,966	331,053	166,124
46,984	-3,012	330,683	165,872
47,999	-3,141	330,407	165,572
49,013	-3,260	330,087	165,262
50,028	-3,258	329,781	165,096
51,042	-3,211	329,366	164,928
52,057	-3,403	329,240	164,633
53,071	-3,429	329,118	164,528
54,086	-3,014	328,673	164,758
55,101	-3,176	328,475	164,462
56,115	-3,132	328,428	164,473
57,130	-2,827	328,194	164,684
58,144	-2,787	328,155	164,695
59,159	-2,669	327,867	164,668
60,174	-2,535	327,409	164,574
61,188	-2,572	327,111	164,368
62,203	-2,608	326,996	164,255
63,217	-2,730	326,772	163,991
64,232	-2,610	326,518	163,984
65,247	-2,643	326,400	163,873
66,261	-2,573	325,896	163,684
67,276	-2,842	325,579	163,210
68,290	-2,935	325,317	162,961
69,305	-2,703	325,104	163,097
70,320	-2,769	324,738	162,825
71,334	-2,807	324,637	162,719
72,349	-2,718	324,347	162,657
73,363	-2,701	324,401	162,689
74,378	-2,662	324,033	162,533
75,393	-2,576	323,699	162,446
76,407	-2,513	323,312	162,307
77,422	-2,679	323,237	162,071
78,436	-2,646	322,866	161,908
79,451	-2,530	322,552	161,864
80,466	-2,760	322,216	161,427
81,480	-2,937	322,035	161,127
82,495	-2,916	321,612	160,924
83,509	-2,875	321,540	160,919
84,524	-2,880	321,263	160,760
85,539	-2,980	321,014	160,512
86,553	-3,009	320,853	160,385
87,568	-2,867	320,681	160,440
88,582	-2,842	320,339	160,283
89,597	-2,985	320,211	160,047
90,611	-2,805	319,896	160,072
91,626	-2,687	319,761	160,119
92,641	-2,837	319,524	159,823
93,655	-2,844	319,307	159,693
94,670	-2,867	318,967	159,483
95,684	-2,818	318,775	159,426
96,699	-2,737	318,503	159,364
97,714	-2,932	318,342	159,057
98,728	-3,001	318,053	158,824
99,743	-3,030	317,691	158,597
100,757	-2,880	317,542	158,671
101,772	-2,909	317,250	158,481
102,787	-2,887	317,013	158,372
103,801	-2,871	316,800	158,268
104,816	-2,750	316,693	158,331
105,830	-2,568	316,517	158,426
106,845	-2,749	316,411	158,163
107,860	-2,793	316,091	157,942
108,874	-2,934	315,777	157,619
109,889	-2,999	315,634	157,463
110,903	-2,905	315,122	157,295
111,918	-2,859	315,063	157,301
112,933	-2,967	314,714	156,997
113,947	-2,771	314,780	157,226
114,962	-2,830	314,498	157,008
115,976	-2,737	314,160	156,925
116,991	-2,943	314,084	156,652
118,006	-2,768	313,672	156,620
119,020	-2,740	313,570	156,586
120,035	-2,722	313,468	156,540
121,049	-2,627	313,132	156,458
122,064	-2,703	313,062	156,329
123,079	-2,715	312,733	156,138
124,093	-2,883	312,588	155,872
125,108	-2,930	312,042	155,537
126,122	-3,025	311,902	155,352
127,137	-3,146	311,679	155,099
128,151	-3,137	311,602	155,056
129,166	-2,950	311,257	155,069
130,181	-3,019	310,941	154,824
131,195	-3,015	310,794	154,742
132,210	-2,860	310,503	154,747
133,224	-2,670	310,316	154,841
134,239	-2,906	310,166	154,502
135,254	-2,752	309,996	154,567
136,268	-2,654	309,722	154,520
137,283	-2,831	309,433	154,175
138,297	-3,002	309,183	153,857
139,312	-2,971	309,080	153,825
140,327	-2,827	308,979	153,912
141,341	-2,421	308,753	154,213
142,356	-2,450	308,548	154,066
143,370	-2,397	308,468	154,067
144,385	-2,458	308,259	153,886
145,400	-2,398	307,947	153,779
146,414	-2,463	307,811	153,629
147,429	-2,455	307,405	153,421
148,443	-2,499	307,368	153,343
149,458	-2,379	307,061	153,301
150,473	-2,330	306,884	153,250
151,487	-2,494	306,690	152,970
152,502	-2,388	306,444	152,943
153,516	-2,324	306,370	152,959
154,531	-2,348	305,983	152,727
155,546	-2,463	305,775	152,491
156,560	-2,560	305,612	152,295
157,575	-2,779	305,351	151,924
158,589	-2,548	305,106	152,028
159,604	-2,528	304,977	151,971
160,619	-2,563	304,796	151,831
161,633	-2,538	304,429	151,661
162,648	-2,421	304,404	151,755
163,662	-2,463	304,212	151,603
164,677	-2,711	304,106	151,280
165,692	-2,551	303,885	151,322
166,706	-2,470	303,633	151,266
167,721	-2,661	303,531	151,005
168,735	-2,500	303,285	151,035
169,750	-2,269	302,926	151,080
170,764	-2,349	302,953	150,998
171,779	-2,378	302,705	150,831
172,794	-2,262	302,486	150,828
173,808	-2,297	302,167	150,619
174,823	-2,872	301,833	149,851
175,837	-2,724	301,483	149,815
176,852	-2,670	301,545	149,888
177,867	-2,386	301,482	150,133
178,881	-2,534	301,386	149,921
179,896	-2,075	300,873	150,121
180,910	-2,165	300,753	149,956
181,925	-2,359	300,667	149,701
182,940	-2,198	300,395	149,717
183,954	-2,302	300,295	149,547
184,969	-2,544	300,053	149,168
185,983	-2,475	299,997	149,197
186,998	-2,421	299,674	149,078
188,013	-2,476	299,438	148,892
189,027	-2,470	299,277	148,804
190,042	-2,239	299,028	148,900
191,056	-2,429	298,839	148,602
192,071	-2,369	298,659	148,559
193,086	-2,374	298,474	148,448
194,100	-2,205	298,274	148,507
195,115	-2,370	298,057	148,219
196,129	-2,402	297,832	148,061
197,144	-2,184	297,693	148,198
198,159	-2,211	297,428	148,027
199,173	-2,326	297,202	147,785
200,188	-2,268	297,007	147,734
201,202	-2,335	296,494	147,398
202,217	-2,799	296,357	146,851
203,232	-2,793	296,169	146,751
204,246	-2,597	296,121	146,911
205,261	-2,471	295,900	146,914
206,275	-2,409	295,745	146,886
207,290	-2,420	295,500	146,740
208,304	-2,406	295,431	146,707
209,319	-2,234	295,080	146,691
210,334	-2,389	294,970	146,468
211,348	-2,352	294,803	146,409
212,363	-2,562	294,654	146,113
213,377	-2,366	294,416	146,177
214,392	-2,335	294,095	146,036
215,407	-2,319	293,946	145,965
216,421	-2,640	293,772	145,546
217,436	-2,690	293,571	145,384
218,450	-2,607	293,221	145,280
219,465	-2,458	293,150	145,379
220,480	-2,704	292,927	145,013
221,494	-2,624	292,740	144,986
222,509	-2,756	292,611	144,779
223,523	-2,614	292,625	144,913
224,538	-2,411	292,429	145,004
225,553	-2,380	292,179	144,897
226,567	-2,291	291,829	144,799
227,582	-2,532	291,801	144,534
228,596	-2,375	291,539	144,547
229,611	-2,325	291,468	144,548
230,626	-2,305	291,108	144,376
231,640	-2,592	290,822	143,939
232,655	-2,990	290,753	143,502
233,669	-3,050	290,462	143,287
234,684	-3,048	290,410	143,249
235,699	-2,928	289,991	143,148
236,713	-2,922	289,844	143,068
237,728	-2,788	289,680	143,106
238,742	-2,742	289,708	143,151
239,757	-2,580	289,400	143,145
240,772	-2,565	289,222	143,059
241,786	-2,451	289,026	143,060
242,801	-2,537	288,749	142,826
243,815	-2,774	288,730	142,574
244,830	-2,444	288,568	142,802
245,844	-2,541	288,200	142,513
246,859	-2,571	288,065	142,404
247,874	-2,523	287,776	142,295
248,888	-2,623	287,711	142,154
249,903	-2,597	287,723	142,172
250,917	-2,428	287,667	142,295
251,932	-2,453	287,444	142,148
252,947	-1,740	287,456	142,832
253,961	-2,374	286,791	141,876
254,976	-1,493	287,538	143,086
255,990	1,561	288,253	146,389
257,005	2,647	288,543	147,576
258,020	4,048	288,853	149,079
259,034	3,929	288,630	148,835
260,049	3,651	288,401	148,435
261,063	3,581	288,077	148,187
262,078	3,934	288,071	148,512
263,093	4,403	288,144	148,989
264,107	4,487	287,954	148,959
265,122	4,454	287,893	148,882
266,136	4,482	287,767	148,831
267,151	4,556	287,427	148,713
268,166	4,396	287,219	148,438
269,180	4,383	287,036	148,317
270,195	4,407	286,682	148,144
271,209	4,343	286,560	148,007
272,224	4,296	286,457	147,895
273,239	4,039	286,219	147,513
274,253	4,271	285,986	147,602
275,268	4,696	286,014	148,010
276,282	4,385	285,739	147,557
277,297	4,545	285,591	147,621
278,312	4,679	285,598	147,739
279,326	4,653	285,184	147,487
280,341	4,335	285,007	147,079
281,355	4,288	284,846	146,938
282,370	4,239	284,653	146,778
283,384	4,082	284,478	146,526
284,399	4,222	284,228	146,517
285,414	4,299	284,038	146,479
286,428	4,186	283,792	146,232
287,443	3,876	283,520	145,785
288,457	3,835	283,321	145,631
289,472	3,889	283,183	145,598
290,487	3,905	282,988	145,500
291,501	3,744	282,787	145,231
292,516	3,718	282,573	145,084
293,530	3,719	282,374	144,970
294,545	4,058	282,355	145,267
295,560	4,145	282,268	145,291
296,574	3,889	281,762	144,777
297,589	3,890	281,829	144,799
298,603	4,345	281,661	145,128
299,618	4,450	281,523	145,143
300,633	4,191	281,393	144,820
301,647	4,277	281,196	144,786
302,662	4,165	281,000	144,567
303,676	3,836	280,655	144,069
304,691	3,763	280,393	143,853
305,706	3,500	280,208	143,498
306,720	3,619	279,923	143,451
307,735	3,591	279,827	143,363
308,749	3,874	279,636	143,517
309,764	3,975	279,460	143,508
310,779	3,861	279,263	143,287
311,793	3,569	279,239	142,990
312,808	3,580	278,853	142,790
313,822	3,742	278,776	142,889
314,837	3,626	278,632	142,694
315,852	3,446	278,384	142,387
316,866	3,909	278,184	142,702
317,881	3,731	278,023	142,442
318,895	3,801	277,843	142,401
319,910	3,455	277,628	141,958
320,925	3,415	277,400	141,792
321,939	3,629	277,354	141,954
322,954	3,842	277,235	142,077
323,968	3,780	277,024	141,899
324,983	3,770	276,946	141,837
325,997	3,867	276,809	141,844
327,012	4,158	276,477	141,929
328,027	4,142	276,360	141,842
329,041	3,916	276,278	141,579
330,056	4,082	276,037	141,596
331,070	3,907	275,888	141,345
332,085	3,882	275,642	141,184
333,100	3,746	275,422	140,935
334,114	3,889	275,209	140,943
335,129	3,743	274,906	140,642
336,143	3,898	274,999	140,819
337,158	4,221	274,866	141,034
338,173	3,747	274,718	140,512
339,187	3,738	274,476	140,368
340,202	3,697	274,467	140,313
341,216	4,101	274,037	140,450
342,231	4,002	273,942	140,298
343,246	3,928	273,774	140,131
344,260	3,761	273,599	139,878
345,275	4,075	273,326	140,011
346,289	4,173	273,434	140,143
347,304	4,314	273,187	140,132
348,319	4,205	272,926	139,886
349,333	3,930	272,829	139,575
350,348	4,060	272,719	139,625
351,362	4,175	272,618	139,664
352,377	4,222	272,262	139,512
353,392	4,128	272,138	139,351
354,406	4,099	272,067	139,276
355,421	192,924	1329,182	1411,065
356,435	155,920	1458,057	1411,181
