DTS Sentinel unit serial number:	SN410029Multiplexer serial number:	ORYXHardware model number:	OX2-SRSoftware version number:	ORYX F/W v4,00 Oryx Data Collector v3.7.2.0data status	okinstallation	B4 Nyhavnadifferential loss correction	single-endedforward channel	channel 2reverse channel	N/Adate	2023/12/18time	15:00:13forward acquisition time	300,00reverse acquisition time	0,00gamma	499,1914k internal	0,3201k external	0,3201temperature offset calibration	1,0000default loss term (dB/km)	0,3820temperature slope calibration	1,0000multiplexer offset coefficient	1,0000multiplexer slope coefficient	1,0000fibre end	0,00T internal ref (°C)	10,32T ext. ref 1 (°C)	7,10T ext. ref 2 (°C)	7,19length (m)	temperature (°C)	Stokes	anti-Stokes-744,400	-200,000	-0,003	0,083
-743,385	-36,938	-0,260	-0,101
-742,371	800,000	0,016	-0,046
-741,356	-102,665	-0,316	-0,054
-740,342	137,834	0,092	0,087
-739,327	-127,363	-0,385	0,040
-738,312	39,866	0,071	0,046
-737,298	-123,467	-0,465	-0,053
-736,283	79,327	0,209	0,163
-735,269	17,212	-0,217	0,125
-734,254	-92,044	0,077	-0,016
-733,239	-60,860	-0,577	-0,176
-732,225	-153,677	0,224	-0,011
-731,210	-87,035	0,093	-0,020
-730,196	-200,000	-0,012	0,044
-729,181	219,928	0,036	-0,043
-728,167	181,310	0,045	-0,048
-727,152	-0,691	-0,043	-0,022
-726,137	-42,533	-0,183	0,068
-725,123	800,000	-0,087	0,225
-724,108	-200,000	-0,025	-0,139
-723,094	-38,043	0,075	0,029
-722,079	388,255	-0,102	-0,154
-721,064	-200,000	-0,003	-0,024
-720,050	-200,000	0,004	-0,077
-719,035	-27,232	-0,107	0,045
-718,021	105,878	-0,068	0,058
-717,006	301,780	-0,060	-0,081
-715,991	800,000	-0,014	-0,029
-714,977	328,547	0,061	-0,086
-713,962	-200,000	-0,027	0,141
-712,948	627,514	-0,050	-0,091
-711,933	148,745	0,115	0,113
-710,918	-200,000	-0,007	-0,110
-709,904	-200,000	-0,004	-0,020
-708,889	25,363	-0,018	-0,011
-707,875	-200,000	-0,026	-0,099
-706,860	-109,513	0,079	0,012
-705,845	307,954	-0,127	0,173
-704,831	-162,232	-0,049	-0,002
-703,816	-9,042	-0,060	-0,029
-702,802	372,722	-0,020	-0,029
-701,787	-127,326	-0,228	0,024
-700,772	50,746	-0,111	-0,076
-699,758	31,555	0,054	-0,034
-698,743	429,528	0,097	-0,153
-697,729	737,018	-0,011	0,021
-696,714	-200,000	-0,008	0,077
-695,699	-200,000	-0,016	-0,079
-694,685	-78,279	0,063	0,016
-693,670	205,187	-0,041	-0,046
-692,656	-200,000	0,023	-0,085
-691,641	10,207	0,161	-0,088
-690,627	-200,000	-0,010	-0,198
-689,612	-200,000	-0,031	0,127
-688,597	-56,623	-0,090	0,029
-687,583	11,241	-0,084	-0,046
-686,568	277,200	0,090	-0,117
-685,554	278,042	-0,031	-0,041
-684,539	-39,930	-0,194	0,073
-683,524	-38,237	0,133	-0,051
-682,510	-107,611	-0,082	-0,013
-681,495	800,000	0,030	-0,084
-680,481	281,526	-0,018	-0,023
-679,466	664,138	0,031	-0,059
-678,451	220,961	-0,093	-0,108
-677,437	-200,000	-0,022	0,076
-676,422	-91,528	0,130	-0,027
-675,408	-200,000	-0,039	0,125
-674,393	-47,116	-0,083	0,029
-673,378	-200,000	-0,014	-0,073
-672,364	-25,070	-0,103	0,044
-671,349	-200,000	-0,013	0,048
-670,335	-137,359	0,106	0,009
-669,320	-138,493	-0,041	-0,003
-668,305	-200,000	0,013	-0,130
-667,291	7,341	0,015	0,008
-666,276	-200,000	-0,002	-0,044
-665,262	233,285	-0,031	-0,038
-664,247	559,710	-0,020	0,035
-663,232	-200,000	-0,010	-0,090
-662,218	-196,828	0,069	0,000
-661,203	31,762	-0,071	0,044
-660,189	-200,000	-0,001	0,149
-659,174	157,049	-0,096	-0,096
-658,159	800,000	0,052	-0,131
-657,145	13,398	0,073	-0,041
-656,130	468,496	0,033	-0,054
-655,116	-200,000	0,023	0,088
-654,101	6,627	-0,052	0,028
-653,086	-200,000	-0,008	-0,077
-652,072	-96,584	0,074	0,014
-651,057	-15,329	-0,178	-0,082
-650,043	550,739	0,070	-0,122
-649,028	-6,418	0,119	0,058
-648,014	159,398	-0,034	0,034
-646,999	18,053	0,039	0,023
-645,984	60,356	0,117	0,084
-644,970	-135,488	-0,129	0,011
-643,955	800,000	-0,045	-0,091
-642,941	425,144	-0,072	-0,113
-641,926	44,898	0,148	-0,099
-640,911	-75,225	0,093	0,024
-639,897	260,332	-0,041	0,051
-638,882	-134,828	0,128	-0,011
-637,868	199,150	-0,015	-0,017
-636,853	-146,284	-0,074	-0,005
-635,838	-34,502	-0,090	0,036
-634,824	24,721	-0,055	-0,033
-633,809	2,902	-0,020	0,010
-632,795	-119,392	-0,125	-0,016
-631,780	-200,000	-0,016	-0,114
-630,765	-200,000	-0,014	0,056
-629,751	-200,000	0,012	-0,182
-628,736	-69,432	-0,260	-0,072
-627,722	800,000	-0,063	0,158
-626,707	-200,000	0,003	-0,081
-625,692	-25,775	-0,054	0,023
-624,678	800,000	0,004	0,010
-623,663	298,857	0,020	0,027
-622,649	-200,000	0,003	0,060
-621,634	212,470	-0,100	0,114
-620,619	800,000	0,059	-0,127
-619,605	52,731	0,039	-0,027
-618,590	32,471	0,088	-0,055
-617,576	-42,690	0,131	0,048
-616,561	-200,000	0,065	-0,000
-615,546	800,000	-0,046	0,108
-614,532	114,948	0,023	-0,020
-613,517	-200,000	-0,002	-0,151
-612,503	209,861	-0,068	-0,077
-611,488	187,034	0,042	0,045
-610,474	-200,000	-0,029	0,141
-609,459	800,000	0,056	-0,131
-608,444	-200,000	-0,020	-0,231
-607,430	49,390	-0,088	0,060
-606,415	-76,317	-0,101	0,026
-605,401	800,000	-0,031	0,077
-604,386	85,455	-0,060	0,048
-603,371	-77,144	-0,020	-0,005
-602,357	-112,651	0,139	-0,020
-601,342	552,859	-0,045	0,078
-600,328	263,705	-0,074	0,093
-599,313	194,608	0,052	0,057
-598,298	68,323	0,040	-0,029
-597,284	-196,641	0,091	0,000
-596,269	-200,000	0,010	0,040
-595,255	199,798	-0,041	0,045
-594,240	-57,226	-0,045	0,014
-593,225	537,879	-0,069	-0,119
-592,211	-11,152	-0,104	0,049
-591,196	-150,529	0,103	-0,006
-590,182	92,902	-0,061	0,050
-589,167	-137,783	-0,030	-0,002
-588,152	-200,000	-0,013	-0,056
-587,138	-109,441	-0,133	0,020
-586,123	-200,000	-0,032	0,176
-585,109	139,036	-0,046	-0,044
-584,094	-200,000	0,010	0,065
-583,079	-65,822	0,016	-0,005
-582,065	-117,620	-0,053	0,007
-581,050	-115,560	-0,125	-0,017
-580,036	800,000	0,040	-0,105
-579,021	120,144	-0,082	-0,073
-578,006	74,852	-0,075	0,057
-576,992	-122,484	0,071	0,008
-575,977	-140,253	0,110	-0,008
-574,963	800,000	0,083	-0,168
-573,948	461,378	0,096	0,155
-572,934	139,381	-0,062	-0,059
-571,919	372,553	-0,019	-0,028
-570,904	231,498	-0,120	-0,142
-569,890	-200,000	0,013	-0,078
-568,875	235,338	-0,076	-0,091
-567,861	320,803	-0,038	0,052
-566,846	529,669	-0,091	0,156
-565,831	123,904	-0,091	0,082
-564,817	-58,624	-0,014	0,004
-563,802	-167,236	-0,094	-0,003
-562,788	495,869	-0,056	0,094
-561,773	-153,476	0,097	0,005
-560,758	120,802	0,053	0,048
-559,744	105,644	0,056	-0,048
-558,729	-200,000	0,015	0,072
-557,715	-200,000	-0,011	0,064
-556,700	-101,524	-0,145	0,025
-555,685	-200,000	-0,000	0,036
-554,671	61,721	-0,092	-0,066
-553,656	2,512	0,105	0,055
-552,642	174,315	0,029	0,030
-551,627	-56,987	0,047	-0,015
-550,612	141,731	-0,045	-0,043
-549,598	-45,102	0,032	-0,011
-548,583	-3,192	-0,070	-0,035
-547,569	15,302	0,058	-0,033
-546,554	-81,686	0,097	0,023
-545,539	-200,000	0,017	0,092
-544,525	-72,333	0,131	-0,035
-543,510	800,000	-0,056	-0,123
-542,496	-200,000	0,004	-0,099
-541,481	800,000	-0,064	-0,166
-540,466	800,000	0,019	-0,040
-539,452	758,626	0,013	0,026
-538,437	118,001	0,067	-0,060
-537,423	-20,318	-0,176	-0,078
-536,408	800,000	-0,024	-0,070
-535,393	-25,535	0,047	0,020
-534,379	114,344	-0,055	-0,048
-533,364	-25,051	-0,098	-0,042
-532,350	800,000	-0,048	0,105
-531,335	800,000	0,006	-0,015
-530,321	-112,534	0,246	0,035
-529,306	-200,000	-0,005	0,024
-528,291	-68,444	-0,043	0,012
-527,277	316,992	-0,055	-0,075
-526,262	800,000	0,047	0,116
-525,248	11,807	0,102	0,057
-524,233	800,000	0,054	0,127
-523,218	800,000	-0,038	0,109
-522,204	-51,128	0,038	0,013
-521,189	-200,000	-0,008	-0,026
-520,175	-22,604	-0,162	0,070
-519,160	-200,000	-0,038	0,180
-518,145	127,683	-0,032	-0,030
-517,131	-200,000	-0,007	0,091
-516,116	121,020	0,110	0,099
-515,102	-200,000	-0,008	0,046
-514,087	-200,000	0,003	0,033
-513,072	800,000	0,004	-0,010
-512,058	157,110	0,121	-0,121
-511,043	600,553	0,041	-0,073
-510,029	800,000	0,013	0,032
-509,014	77,255	0,037	-0,029
-507,999	-200,000	0,005	0,109
-506,985	-104,551	0,103	-0,017
-505,970	-200,000	0,010	0,051
-504,956	800,000	-0,045	-0,116
-503,941	-200,000	-0,018	0,198
-502,926	800,000	0,026	-0,070
-501,912	141,350	0,030	0,029
-500,897	393,980	-0,045	0,067
-499,883	-200,000	0,004	0,027
-498,868	115,032	-0,020	-0,017
-497,853	23,813	-0,027	0,016
-496,839	-200,000	-0,010	-0,042
-495,824	-200,000	0,004	-0,117
-494,810	173,781	-0,044	-0,046
-493,795	-52,254	-0,074	-0,025
-492,781	-32,225	-0,059	-0,024
-491,766	161,618	0,064	-0,064
-490,751	60,751	-0,119	-0,085
-489,737	800,000	0,047	0,108
-488,722	-101,212	0,048	0,008
-487,708	-200,000	-0,002	-0,082
-486,693	-152,804	0,062	-0,003
-485,678	-200,000	0,028	0,117
-484,664	78,308	-0,070	0,054
-483,649	-200,000	-0,002	0,052
-482,635	-86,596	0,051	0,011
-481,620	15,131	-0,051	0,028
-480,605	800,000	0,016	-0,039
-479,591	-95,895	0,157	-0,030
-478,576	-130,678	0,124	0,012
-477,562	-125,555	-0,048	-0,005
-476,547	137,679	-0,029	0,027
-475,532	-21,389	-0,024	-0,011
-474,518	-200,000	0,002	-0,008
-473,503	-40,308	-0,020	0,007
-472,489	-200,000	0,029	-0,107
-471,474	-112,503	-0,014	-0,002
-470,459	-200,000	0,006	-0,030
-469,445	-159,571	0,121	0,005
-468,430	-15,875	0,065	0,030
-467,416	-200,000	-0,027	0,131
-466,401	188,057	0,084	-0,090
-465,386	-200,000	-0,003	0,097
-464,372	800,000	-0,028	-0,066
-463,357	43,261	-0,048	0,031
-462,343	562,572	-0,049	-0,085
-461,328	337,538	0,055	0,078
-460,313	385,579	-0,027	-0,041
-459,299	800,000	0,024	-0,048
-458,284	-66,663	0,122	-0,035
-457,270	98,740	-0,098	-0,082
-456,255	-6,058	0,112	-0,055
-455,241	-2,391	-0,066	-0,033
-454,226	258,650	-0,085	0,105
-453,211	-200,000	0,018	0,074
-452,197	335,590	-0,076	-0,107
-451,182	800,000	0,041	0,120
-450,168	-200,000	0,005	0,121
-449,153	-23,205	-0,055	-0,024
-448,138	556,361	0,018	0,031
-447,124	-200,000	-0,007	0,040
-446,109	-200,000	0,034	0,118
-445,095	-6,781	0,156	-0,076
-444,080	-45,403	0,058	-0,021
-443,065	-200,000	-0,006	0,063
-442,051	-200,000	0,002	-0,089
-441,036	154,125	-0,041	-0,040
-440,022	-138,585	-0,097	0,008
-439,007	-200,000	-0,005	-0,089
-437,992	800,000	-0,050	0,118
-436,978	578,036	0,028	-0,050
-435,963	-200,000	0,002	0,006
-434,949	-200,000	0,007	-0,064
-433,934	15,659	-0,096	-0,054
-432,919	800,000	0,030	0,071
-431,905	-39,255	-0,130	-0,049
-430,890	60,102	0,087	-0,062
-429,876	518,848	0,029	0,050
-428,861	514,100	-0,040	-0,067
-427,846	-200,000	-0,050	0,183
-426,832	92,806	-0,026	-0,021
-425,817	800,000	-0,039	-0,094
-424,803	13,819	0,060	0,033
-423,788	193,646	0,101	-0,110
-422,773	527,579	-0,068	0,115
-421,759	780,625	0,024	0,046
-420,744	114,814	-0,142	-0,124
-419,730	167,627	0,026	-0,026
-418,715	108,565	-0,075	-0,064
-417,701	-114,193	-0,090	0,012
-416,686	71,663	0,074	-0,055
-415,671	116,136	-0,062	0,055
-414,657	-200,000	-0,002	-0,025
-413,642	-200,000	-0,003	-0,021
-412,628	-104,281	0,085	0,014
-411,613	90,784	0,081	-0,065
-410,598	-200,000	0,012	-0,127
-409,584	345,785	0,074	0,105
-408,569	-113,121	0,029	0,004
-407,555	55,981	-0,068	0,047
-406,540	-85,446	-0,111	0,025
-405,525	-137,235	-0,056	-0,005
-404,511	800,000	0,058	-0,130
-403,496	398,806	0,040	-0,060
-402,482	49,352	-0,130	0,088
-401,467	-53,014	-0,015	0,005
-400,452	-19,134	0,117	0,052
-399,438	-200,000	0,007	-0,035
-398,423	-200,000	-0,005	0,096
-397,409	-200,000	-0,015	-0,100
-396,394	-200,000	-0,026	-0,093
-395,379	-20,827	0,187	0,082
-394,365	323,435	0,038	0,053
-393,350	100,195	0,159	0,132
-392,336	-200,000	-0,027	0,093
-391,321	-23,114	0,018	0,008
-390,306	800,000	-0,012	0,026
-389,292	-61,588	0,040	0,012
-388,277	-188,000	0,073	-0,001
-387,263	800,000	0,044	-0,100
-386,248	-117,992	0,083	-0,011
-385,233	-62,433	-0,035	-0,010
-384,219	241,311	-0,014	0,017
-383,204	-153,881	0,087	-0,004
-382,190	4,381	0,108	0,056
-381,175	192,341	-0,040	-0,043
-380,160	237,816	-0,030	-0,036
-379,146	234,384	0,051	0,060
-378,131	800,000	0,023	-0,062
-377,117	177,432	-0,061	-0,064
-376,102	-149,530	-0,139	-0,008
-375,088	-200,000	-0,006	-0,063
-374,073	401,071	-0,070	0,106
-373,058	154,030	-0,081	0,080
-372,044	11,912	0,153	-0,084
-371,029	800,000	0,023	0,062
-370,015	101,417	0,074	-0,062
-369,000	-200,000	-0,026	-0,146
-367,985	206,461	-0,065	-0,073
-366,971	106,789	0,042	-0,036
-365,956	-200,000	0,028	0,144
-364,942	-200,000	0,014	-0,119
-363,927	156,608	0,099	-0,098
-362,912	-200,000	0,003	-0,069
-361,898	101,272	-0,092	-0,077
-360,883	800,000	-0,036	-0,079
-359,869	139,989	-0,053	0,050
-358,854	800,000	-0,032	-0,078
-357,839	-58,469	0,194	-0,060
-356,825	800,000	0,043	0,105
-355,810	-200,000	0,018	0,074
-354,796	167,650	0,085	-0,087
-353,781	-78,628	-0,053	-0,013
-352,766	-56,656	0,046	-0,014
-351,752	-200,000	-0,035	0,145
-350,737	167,016	0,057	0,058
-349,723	321,412	0,059	0,081
-348,708	-200,000	0,028	0,213
-347,693	-56,024	-0,128	-0,041
-346,679	800,000	0,045	-0,122
-345,664	613,144	-0,025	-0,045
-344,650	-200,000	-0,018	-0,093
-343,635	800,000	-0,024	0,058
-342,620	-58,243	-0,135	0,042
-341,606	800,000	0,054	0,127
-340,591	-10,079	-0,067	0,032
-339,577	-200,000	-0,009	-0,105
-338,562	-69,476	-0,158	0,043
-337,548	800,000	0,026	0,075
-336,533	-200,000	0,013	0,142
-335,518	564,024	-0,027	0,047
-334,504	361,214	0,087	0,125
-333,489	101,533	-0,033	0,027
-332,475	116,603	0,122	0,107
-331,460	-200,000	0,006	0,044
-330,445	66,098	-0,107	-0,077
-329,431	10,934	0,023	-0,013
-328,416	364,831	0,035	0,050
-327,402	458,163	0,011	-0,018
-326,387	-137,401	0,016	-0,001
-325,372	-107,041	-0,065	-0,010
-324,358	190,742	-0,010	0,010
-323,343	-200,000	-0,003	-0,132
-322,329	-69,321	0,080	0,022
-321,314	-200,000	-0,002	0,175
-320,299	-161,407	-0,042	-0,002
-319,285	62,609	-0,147	0,105
-318,270	-95,638	0,034	-0,006
-317,256	475,244	0,041	0,066
-316,241	-200,000	-0,005	-0,036
-315,226	647,878	0,045	-0,083
-314,212	28,232	-0,093	0,056
-313,197	-42,166	-0,145	0,053
-312,183	-174,633	-0,054	0,001
-311,168	151,578	-0,090	-0,088
-310,153	34,324	0,076	-0,047
-309,139	-200,000	0,003	-0,012
-308,124	64,066	0,033	-0,024
-307,110	26,190	0,091	0,054
-306,095	279,692	-0,046	0,059
-305,080	800,000	0,016	0,044
-304,066	-34,342	-0,071	-0,028
-303,051	-81,834	-0,065	0,015
-302,037	651,608	0,010	0,019
-301,022	224,347	-0,027	-0,032
-300,008	166,471	0,079	-0,080
-298,993	-33,681	0,108	-0,042
-297,978	800,000	-0,022	-0,058
-296,964	-151,343	0,041	-0,002
-295,949	800,000	0,039	-0,120
-294,935	248,179	0,013	-0,016
-293,920	-165,388	0,067	0,002
-292,905	-200,000	0,015	0,062
-291,891	-200,000	0,004	0,035
-290,876	-200,000	0,021	0,085
-289,862	800,000	-0,007	0,015
-288,847	-200,000	0,018	-0,060
-287,832	-74,492	-0,065	-0,017
-286,818	-200,000	-0,006	0,040
-285,803	-145,813	0,066	-0,004
-284,789	-200,000	0,006	0,104
-283,774	617,674	-0,062	0,112
-282,759	-200,000	0,009	-0,069
-281,745	176,421	-0,085	-0,088
-280,730	79,407	-0,013	0,010
-279,716	-200,000	-0,023	-0,137
-278,701	-200,000	-0,004	0,083
-277,686	711,259	-0,053	0,101
-276,672	264,877	0,049	0,062
-275,657	-200,000	0,003	-0,032
-274,643	-200,000	0,016	-0,118
-273,628	-200,000	-0,055	-0,179
-272,613	-200,000	0,009	0,043
-271,599	64,981	0,093	0,067
-270,584	121,042	-0,055	0,049
-269,570	800,000	0,015	-0,038
-268,555	364,231	-0,015	-0,021
-267,540	46,582	-0,136	0,090
-266,526	62,994	-0,091	-0,065
-265,511	264,421	-0,058	0,073
-264,497	-200,000	-0,008	0,034
-263,482	-47,154	-0,106	0,037
-262,467	334,057	0,044	-0,060
-261,453	-80,372	0,188	-0,045
-260,438	165,884	-0,129	-0,130
-259,424	-119,694	-0,098	0,012
-258,409	366,830	-0,006	0,009
-257,395	249,547	0,072	0,087
-256,380	-35,884	0,223	-0,086
-255,365	327,382	0,046	-0,063
-254,351	-51,051	0,083	0,028
-253,336	800,000	-0,035	-0,100
-252,322	800,000	0,045	-0,098
-251,307	467,463	0,047	0,075
-250,292	-101,617	0,101	-0,017
-249,278	-136,208	0,177	-0,015
-248,263	319,647	0,051	-0,069
-247,249	-200,000	0,022	0,082
-246,234	254,114	-0,044	-0,053
-245,219	81,753	0,085	-0,065
-244,205	-123,949	-0,126	-0,014
-243,190	18,201	0,057	0,032
-242,176	-200,000	-0,011	-0,048
-241,161	-200,000	0,006	-0,066
-240,146	-200,000	-0,004	0,111
-239,132	-200,000	0,016	-0,114
-238,117	13,443	0,070	-0,039
-237,103	-72,126	0,171	-0,045
-236,088	748,402	-0,070	0,135
-235,073	-200,000	0,011	0,066
-234,059	-129,333	0,114	0,011
-233,044	17,439	0,108	0,061
-232,030	16,677	-0,042	-0,024
-231,015	-200,000	-0,004	-0,063
-230,000	89,049	-0,026	-0,021
-228,986	-54,886	-0,098	-0,031
-227,971	8,732	0,108	0,058
-226,957	149,258	-0,063	0,061
-225,942	117,089	0,117	-0,103
-224,927	183,714	-0,039	0,041
-223,913	75,540	-0,159	-0,119
-222,898	800,000	0,058	-0,133
-221,884	-200,000	-0,028	-0,140
-220,869	-32,723	-0,100	0,040
-219,855	88,246	0,106	-0,083
-218,840	-33,720	-0,091	0,036
-217,825	-200,000	0,028	0,186
-216,811	-200,000	-0,011	0,042
-215,796	-200,000	-0,054	-0,189
-214,782	118,496	0,055	0,049
-213,767	-108,966	-0,019	0,003
-212,752	625,068	-0,018	-0,033
-211,738	-64,460	-0,124	0,036
-210,723	800,000	0,027	0,082
-209,709	72,356	-0,024	0,018
-208,694	-27,385	-0,166	0,069
-207,679	-23,472	-0,126	-0,054
-206,665	-89,954	0,117	0,024
-205,650	149,818	-0,099	-0,095
-204,636	138,925	0,083	0,077
-203,621	-19,514	0,084	-0,037
-202,606	800,000	0,032	0,081
-201,592	-200,000	0,007	-0,086
-200,577	-81,518	-0,051	0,012
-199,563	-171,969	0,086	-0,002
-198,548	800,000	0,049	-0,150
-197,533	800,000	0,055	0,139
-196,519	-200,000	-0,026	0,089
-195,504	-200,000	-0,020	0,144
-194,490	319,491	0,042	0,057
-193,475	-200,000	-0,007	-0,089
-192,460	231,068	-0,024	0,028
-191,446	-104,242	0,102	0,017
-190,431	88,019	-0,117	0,092
-189,417	2,587	0,054	0,028
-188,402	14,925	0,058	-0,032
-187,387	-101,749	0,090	-0,015
-186,373	-200,000	-0,022	-0,168
-185,358	425,472	0,033	0,051
-184,344	800,000	0,064	0,174
-183,329	800,000	0,098	-0,256
-182,315	-133,860	0,126	-0,011
-181,300	-19,976	0,059	0,026
-180,285	459,304	0,036	0,057
-179,271	82,171	-0,065	-0,050
-178,256	800,000	0,052	-0,113
-177,242	59,586	0,127	0,089
-176,227	8,403	-0,055	0,029
-175,212	-19,408	0,103	-0,045
-174,198	83,880	-0,064	-0,049
-173,183	90,261	-0,094	-0,075
-172,169	166,880	-0,105	-0,106
-171,154	224,758	-0,053	-0,061
-170,139	560,816	0,027	-0,047
-169,125	-81,167	-0,113	0,026
-168,110	48,064	0,129	0,085
-167,096	-70,378	-0,063	0,017
-166,081	-200,000	-0,025	0,119
-165,066	201,038	0,033	-0,036
-164,052	73,729	-0,156	-0,117
-163,037	393,981	0,036	0,054
-162,023	263,057	0,077	0,095
-161,008	-66,003	-0,156	0,044
-159,993	800,000	-0,017	0,044
-158,979	-200,000	-0,014	-0,071
-157,964	-200,000	-0,011	-0,114
-156,950	635,116	0,041	0,074
-155,935	-200,000	-0,028	0,104
-154,920	23,733	-0,128	0,075
-153,906	-200,000	-0,010	0,127
-152,891	800,000	-0,042	-0,122
-151,877	-200,000	-0,010	0,049
-150,862	-200,000	-0,019	0,116
-149,847	-200,000	0,012	-0,073
-148,833	-200,000	0,010	-0,035
-147,818	144,895	0,093	0,089
-146,804	-200,000	0,011	0,076
-145,789	115,910	0,188	0,163
-144,775	-72,060	-0,109	0,028
-143,760	329,996	0,068	-0,094
-142,745	180,768	-0,024	0,025
-141,731	209,271	-0,014	0,016
-140,716	41,819	0,109	-0,070
-139,702	242,650	0,082	-0,097
-138,687	78,362	-0,129	0,098
-137,672	-200,000	-0,003	-0,027
-136,658	325,143	0,017	-0,024
-135,643	800,000	0,028	-0,073
-134,629	-24,664	-0,075	-0,032
-133,614	800,000	-0,002	0,005
-132,599	-200,000	0,009	-0,047
-131,585	-130,212	0,065	0,006
-130,570	800,000	0,036	-0,086
-129,556	-32,740	-0,074	-0,029
-128,541	-8,723	-0,053	-0,025
-127,526	-200,000	-0,012	0,076
-126,512	332,950	-0,024	0,033
-125,497	800,000	-0,021	0,044
-124,483	-200,000	-0,021	0,116
-123,468	-10,577	-0,039	0,018
-122,453	-102,572	-0,063	0,011
-121,439	800,000	0,032	-0,097
-120,424	-200,000	-0,007	-0,077
-119,410	-200,000	0,007	0,057
-118,395	-6,370	-0,062	0,030
-117,380	-151,439	0,025	-0,001
-116,366	80,921	0,076	-0,058
-115,351	800,000	-0,043	-0,089
-114,337	296,706	0,066	-0,086
-113,322	-92,235	-0,085	0,017
-112,307	-200,000	-0,002	0,058
-111,293	800,000	0,022	-0,066
-110,278	-151,340	-0,064	-0,003
-109,264	110,074	-0,020	0,017
-108,249	800,000	-0,050	-0,120
-107,234	394,451	0,065	-0,096
-106,220	178,496	0,058	0,060
-105,205	109,332	0,064	-0,055
-104,191	-98,557	-0,049	-0,009
-103,176	-200,000	0,016	0,174
-102,162	-56,962	-0,094	-0,029
-101,147	-120,292	0,061	0,007
-100,132	-200,000	-0,025	-0,108
-99,118	23,042	0,101	-0,059
-98,103	750,014	0,032	-0,061
-97,089	-66,388	0,170	-0,048
-96,074	-200,000	0,010	0,037
-95,059	-20,718	-0,092	0,040
-94,045	-32,323	-0,081	0,032
-93,030	62,155	-0,140	0,099
-92,016	99,488	0,087	-0,071
-91,001	-200,000	0,011	-0,085
-89,986	36,686	0,045	-0,028
-88,972	-20,910	-0,136	0,059
-87,957	-142,071	0,070	-0,005
-86,943	383,284	-0,016	0,023
-85,928	525,674	-0,075	0,125
-84,913	-200,000	-0,005	-0,019
-83,899	138,573	0,053	0,049
-82,884	-200,000	0,048	0,179
-81,870	-200,000	-0,007	0,050
-80,855	800,000	0,048	0,122
-79,840	97,535	-0,070	-0,057
-78,826	83,502	-0,047	0,037
-77,811	800,000	0,047	-0,117
-76,797	97,378	0,068	-0,055
-75,782	163,836	0,059	0,059
-74,767	-122,642	0,020	-0,002
-73,753	134,223	0,089	0,082
-72,738	-200,000	0,042	-0,169
-71,724	14,246	0,179	-0,099
-70,709	209,420	-0,114	-0,126
-69,694	800,000	0,050	-0,137
-68,680	477,094	0,035	0,057
-67,665	-200,000	0,026	-0,097
-66,651	60,511	-0,076	-0,053
-65,636	-119,320	0,088	0,011
-64,622	6,758	0,104	-0,055
-63,607	253,016	-0,018	0,022
-62,592	227,065	0,074	-0,086
-61,578	-200,000	-0,032	-0,155
-60,563	-144,739	0,054	-0,003
-59,549	11,094	-0,072	-0,039
-58,534	53,269	-2,369	-1,605
-57,519	-200,000	-0,035	-0,379
-56,505	-200,000	-1,451	-5,139
-55,490	217,098	0,820	0,926
-54,476	800,000	5,513	12,078
-53,461	-200,000	20,376	335,355
-52,446	800,000	760,137	2319,351
-51,432	541,226	1663,780	2817,285
-50,417	110,086	1630,310	1385,161
-49,403	76,786	1278,301	959,430
-48,388	27,942	1021,185	608,086
-47,373	17,491	984,559	552,324
-46,359	14,081	972,333	534,436
-45,344	10,789	968,797	521,850
-44,330	11,143	967,125	522,069
-43,315	10,392	964,959	518,462
-42,300	10,397	963,902	517,889
-41,286	10,380	962,938	517,298
-40,271	10,341	962,136	516,720
-39,257	10,368	961,097	516,228
-38,242	10,345	960,441	515,782
-37,227	10,320	959,625	515,245
-36,213	10,400	958,532	514,891
-35,198	10,293	957,766	514,119
-34,184	10,298	957,107	513,760
-33,169	10,309	955,976	513,167
-32,154	10,354	955,172	512,858
-31,140	10,362	954,235	512,362
-30,125	10,421	953,289	512,020
-29,111	10,378	952,511	511,445
-28,096	10,389	951,977	511,174
-27,082	10,331	951,292	510,602
-26,067	10,338	950,445	510,149
-25,052	10,364	949,654	509,786
-24,038	10,338	948,947	509,303
-23,023	10,311	948,138	508,765
-22,009	10,298	947,784	508,513
-20,994	10,330	947,162	508,261
-19,979	10,290	946,692	507,863
-18,965	10,398	945,794	507,701
-17,950	10,352	945,377	507,313
-16,936	10,248	944,798	506,654
-15,921	10,357	943,803	506,443
-14,906	10,252	943,154	505,744
-13,892	10,204	942,631	505,291
-12,877	10,190	941,820	504,795
-11,863	10,185	941,288	504,474
-10,848	10,260	940,682	504,363
-9,833	10,395	940,170	504,492
-8,819	10,321	939,365	503,806
-7,804	10,335	938,838	503,550
-6,790	10,355	938,223	503,260
-5,775	10,291	937,887	502,861
-4,760	10,347	937,230	502,665
-3,746	10,247	936,596	501,991
-2,731	10,154	935,803	501,257
-1,717	10,104	935,314	500,820
-0,702	10,139	934,566	500,507
0,313	9,966	934,062	500,454
1,327	13,574	932,252	510,647
2,342	22,824	801,793	463,705
3,356	20,230	509,014	289,997
4,371	1,368	387,520	196,402
5,386	-0,277	371,662	186,295
6,400	-0,484	366,292	183,332
7,415	0,007	364,012	182,774
8,429	0,037	362,282	181,926
9,444	0,052	361,273	181,421
10,459	-0,030	360,921	181,129
11,473	0,061	360,151	180,837
12,488	0,263	359,424	180,700
13,502	0,097	358,995	180,268
14,517	0,505	358,411	180,448
15,531	0,483	358,236	180,318
16,546	0,791	357,615	180,359
17,561	0,762	357,155	180,077
18,575	0,669	357,012	179,876
19,590	0,711	356,549	179,677
20,604	0,740	356,127	179,483
21,619	0,718	355,704	179,228
22,634	0,733	355,323	179,039
23,648	0,730	354,938	178,825
24,663	0,657	354,634	178,569
25,677	0,711	354,353	178,476
26,692	0,794	354,045	178,402
27,707	0,759	353,615	178,129
28,721	0,787	353,179	177,927
29,736	0,725	353,062	177,779
30,750	0,732	352,772	177,625
31,765	0,615	352,428	177,297
32,780	0,840	352,070	177,367
33,794	0,725	351,755	177,057
34,809	0,775	351,509	176,976
35,823	0,694	351,371	176,796
36,838	0,714	351,031	176,632
37,853	0,681	350,652	176,388
38,867	0,795	350,240	176,297
39,882	0,816	350,100	176,237
40,896	0,773	349,785	176,012
41,911	0,708	349,533	175,794
42,926	0,751	349,175	175,648
43,940	0,651	348,997	175,425
44,955	0,611	348,619	175,173
45,969	0,762	348,321	175,184
46,984	0,628	348,098	174,900
47,999	0,516	347,685	174,547
49,013	0,488	347,476	174,393
50,028	0,575	347,076	174,279
51,042	0,366	346,855	173,909
52,057	0,465	346,525	173,843
53,071	0,359	346,476	173,680
54,086	0,408	346,050	173,508
55,101	0,464	345,885	173,475
56,115	0,525	345,690	173,431
57,130	0,867	345,259	173,595
58,144	0,610	345,046	173,176
59,159	0,610	344,838	173,056
60,174	0,689	344,531	172,978
61,188	0,697	344,241	172,826
62,203	0,635	344,122	172,679
63,217	0,692	343,723	172,528
64,232	0,724	343,366	172,371
65,247	0,503	343,175	172,007
66,261	0,449	342,906	171,794
67,276	0,663	342,670	171,905
68,290	0,571	342,376	171,638
69,305	0,312	342,136	171,206
70,320	0,713	341,727	171,444
71,334	0,657	341,669	171,336
72,349	0,718	341,327	171,219
73,363	0,792	340,926	171,086
74,378	0,627	340,682	170,760
75,393	0,759	340,548	170,828
76,407	0,701	340,430	170,688
77,422	0,719	340,083	170,520
78,436	0,663	339,737	170,267
79,451	0,647	339,498	170,114
80,466	0,820	338,982	170,036
81,480	0,844	338,906	170,010
82,495	0,691	338,682	169,710
83,509	0,710	338,543	169,647
84,524	0,864	338,218	169,643
85,539	0,749	337,939	169,358
86,553	0,530	337,670	168,961
87,568	0,762	337,649	169,196
88,582	0,802	337,196	168,999
89,597	0,655	336,967	168,704
90,611	0,634	336,812	168,589
91,626	0,555	336,707	168,432
92,641	0,837	336,258	168,508
93,655	0,709	336,108	168,275
94,670	0,634	335,831	168,037
95,684	0,710	335,626	168,005
96,699	0,693	335,191	167,753
97,714	0,600	334,977	167,527
98,728	0,783	334,807	167,631
99,743	0,634	334,624	167,359
100,757	0,624	334,148	167,095
101,772	0,642	334,112	167,081
102,787	0,573	333,913	166,890
103,801	0,537	333,618	166,688
104,816	0,643	333,412	166,688
105,830	0,611	333,161	166,512
106,845	0,615	333,061	166,452
107,860	0,668	332,659	166,294
108,874	0,677	332,299	166,110
109,889	0,560	332,187	165,909
110,903	0,597	331,710	165,698
111,918	0,500	331,781	165,611
112,933	0,645	331,486	165,609
113,947	0,681	331,112	165,447
114,962	0,619	331,033	165,325
115,976	0,774	330,589	165,259
116,991	0,749	330,522	165,182
118,006	0,695	330,291	164,993
119,020	0,774	330,150	164,995
120,035	0,762	329,976	164,880
121,049	0,656	329,964	164,743
122,064	0,681	329,431	164,489
123,079	0,753	329,164	164,421
124,093	0,735	328,825	164,216
125,108	0,544	328,717	163,939
126,122	0,588	328,465	163,847
127,137	0,491	328,186	163,588
128,151	0,621	327,915	163,579
129,166	0,565	327,866	163,480
130,181	0,694	327,516	163,431
131,195	0,656	327,244	163,240
132,210	0,568	326,946	162,980
133,224	0,669	326,727	162,966
134,239	0,784	326,597	163,012
135,254	0,596	326,443	162,716
136,268	0,487	326,135	162,430
137,283	0,538	325,822	162,316
138,297	0,568	325,508	162,177
139,312	0,418	325,463	161,978
140,327	0,642	325,174	162,062
141,341	0,667	325,081	162,028
142,356	0,793	324,630	161,924
143,370	0,736	324,589	161,828
144,385	0,726	324,288	161,652
145,400	0,821	324,093	161,643
146,414	0,811	323,896	161,520
147,429	0,715	323,529	161,219
148,443	0,685	323,405	161,111
149,458	0,700	323,228	161,025
150,473	0,648	322,886	160,784
151,487	0,738	322,565	160,706
152,502	0,639	322,633	160,620
153,516	0,661	322,455	160,540
154,531	0,686	322,100	160,376
155,546	0,737	321,733	160,233
156,560	0,851	321,526	160,237
157,575	0,603	321,365	159,879
158,589	0,612	321,173	159,778
159,604	0,627	320,904	159,646
160,619	0,892	320,691	159,808
161,633	0,733	320,625	159,592
162,648	0,848	320,421	159,597
163,662	0,897	320,098	159,475
164,677	0,839	319,924	159,312
165,692	0,640	319,752	159,002
166,706	0,816	319,692	159,144
167,721	0,774	319,365	158,923
168,735	0,739	319,097	158,738
169,750	0,739	318,812	158,583
170,764	0,604	318,674	158,356
171,779	0,540	318,403	158,141
172,794	0,726	318,364	158,304
173,808	0,666	318,009	158,049
174,823	0,619	317,664	157,815
175,837	0,470	317,498	157,562
176,852	0,529	317,415	157,568
177,867	0,632	317,160	157,536
178,881	0,813	316,885	157,575
179,896	0,777	316,853	157,506
180,910	0,607	316,653	157,215
181,925	0,587	316,387	157,049
182,940	0,518	316,112	156,826
183,954	0,784	315,800	156,935
184,969	0,825	315,677	156,903
185,983	0,681	315,529	156,665
186,998	0,764	315,337	156,642
188,013	0,692	315,062	156,416
189,027	0,740	314,831	156,337
190,042	0,677	314,615	156,151
191,056	0,642	314,285	155,937
192,071	0,520	314,058	155,684
193,086	0,436	313,902	155,506
194,100	0,801	313,623	155,731
195,115	0,531	313,500	155,377
196,129	0,592	313,406	155,380
197,144	0,806	312,948	155,360
198,159	0,654	312,655	155,043
199,173	0,621	312,470	154,904
200,188	0,300	312,372	154,511
201,202	0,504	312,146	154,596
202,217	0,431	311,899	154,384
203,232	0,481	311,608	154,278
204,246	0,488	311,517	154,226
205,261	0,833	311,320	154,469
206,275	0,884	311,059	154,378
207,290	0,861	310,946	154,285
208,304	0,777	310,798	154,111
209,319	0,648	310,685	153,909
210,334	0,735	310,320	153,804
211,348	0,673	310,125	153,630
212,363	0,761	309,985	153,637
213,377	0,939	309,582	153,606
214,392	0,716	309,533	153,339
215,407	0,553	309,344	153,066
216,421	0,641	309,110	153,027
217,436	0,541	308,920	152,818
218,450	0,702	308,533	152,776
219,465	0,535	308,569	152,610
220,480	0,580	308,371	152,544
221,494	0,845	308,100	152,665
222,509	0,557	308,008	152,314
223,523	0,552	307,643	152,115
224,538	0,640	307,524	152,132
225,553	0,728	307,423	152,158
226,567	0,782	307,164	152,070
227,582	0,750	306,921	151,904
228,596	0,583	306,840	151,682
229,611	0,494	306,528	151,424
230,626	0,746	306,418	151,611
231,640	0,708	305,857	151,281
232,655	0,564	305,889	151,139
233,669	0,664	305,665	151,115
234,684	0,586	305,451	150,917
235,699	0,616	305,251	150,835
236,713	0,539	305,072	150,656
237,728	0,621	304,850	150,615
238,742	0,519	304,516	150,334
239,757	0,603	304,338	150,317
240,772	0,582	304,281	150,254
241,786	0,553	304,124	150,135
242,801	0,563	303,946	150,044
243,815	0,600	303,650	149,921
244,830	0,455	303,474	149,676
245,844	0,380	303,252	149,478
246,859	0,557	303,010	149,522
247,874	0,477	302,924	149,386
248,888	0,358	302,583	149,086
249,903	0,480	302,458	149,133
250,917	0,349	302,248	148,886
251,932	0,486	301,971	148,872
252,947	-0,047	301,635	148,165
253,961	-0,561	301,097	147,379
254,976	0,242	301,475	148,346
255,990	1,540	301,791	149,776
257,005	2,089	302,005	150,412
258,020	3,425	302,349	151,895
259,034	4,063	302,234	152,456
260,049	4,136	302,159	152,477
261,063	4,346	301,897	152,539
262,078	4,484	301,947	152,686
263,093	4,716	301,826	152,841
264,107	4,755	301,798	152,852
265,122	5,001	301,563	152,962
266,136	5,219	301,393	153,077
267,151	5,148	301,138	152,864
268,166	4,984	300,917	152,577
269,180	5,084	300,653	152,528
270,195	4,987	300,495	152,339
271,209	4,921	300,505	152,265
272,224	4,874	300,202	152,052
273,239	4,681	299,781	151,635
274,253	4,693	299,533	151,509
275,268	4,781	299,457	151,542
276,282	4,673	299,343	151,366
277,297	4,836	299,201	151,440
278,312	5,005	299,158	151,570
279,326	4,907	298,753	151,255
280,341	4,837	298,474	151,032
281,355	4,672	298,374	150,808
282,370	4,781	298,189	150,807
283,384	4,843	297,996	150,756
284,399	4,691	297,734	150,462
285,414	4,679	297,589	150,364
286,428	4,709	297,211	150,189
287,443	4,351	297,126	149,784
288,457	4,554	296,745	149,776
289,472	4,546	296,600	149,681
290,487	4,432	296,385	149,450
291,501	4,469	296,217	149,388
292,516	4,362	296,212	149,268
293,530	4,435	296,000	149,218
294,545	4,409	295,753	149,055
295,560	4,415	295,479	148,911
296,574	4,095	295,384	148,540
297,589	4,369	294,906	148,551
298,603	4,273	294,814	148,398
299,618	4,450	294,626	148,461
300,633	4,295	294,453	148,211
301,647	4,267	294,445	148,168
302,662	4,404	294,231	148,178
303,676	4,564	294,059	148,231
304,691	4,620	293,784	148,133
305,706	4,700	293,762	148,186
306,720	4,734	293,644	148,145
307,735	4,679	293,321	147,916
308,749	4,753	293,190	147,908
309,764	4,661	293,036	147,730
310,779	4,820	292,546	147,620
311,793	4,644	292,591	147,462
312,808	4,658	292,464	147,399
313,822	4,530	292,212	147,136
314,837	4,742	291,973	147,205
315,852	4,553	291,832	146,942
316,866	4,486	291,559	146,727
317,881	4,604	291,409	146,751
318,895	4,661	291,264	146,718
319,910	4,528	291,123	146,508
320,925	4,496	290,860	146,332
321,939	4,549	290,725	146,302
322,954	4,495	290,764	146,257
323,968	4,658	290,270	146,149
324,983	4,799	290,055	146,162
325,997	4,778	289,912	146,056
327,012	4,991	289,848	146,212
328,027	4,954	289,659	146,068
329,041	4,750	289,442	145,754
330,056	4,751	289,294	145,668
331,070	4,575	289,249	145,466
332,085	4,758	288,830	145,414
333,100	4,717	288,823	145,360
334,114	4,879	288,494	145,333
335,129	4,778	288,238	145,096
336,143	4,850	288,171	145,118
337,158	4,916	288,038	145,099
338,173	4,759	287,930	144,885
339,187	4,641	287,646	144,619
340,202	4,700	287,371	144,523
341,216	4,768	287,201	144,488
342,231	4,933	286,913	144,483
343,246	4,704	286,878	144,240
344,260	4,610	286,830	144,115
345,275	4,823	286,645	144,207
346,289	5,006	286,350	144,217
347,304	4,957	286,277	144,122
348,319	4,946	286,003	143,960
349,333	4,691	285,813	143,615
350,348	4,719	285,688	143,566
351,362	5,055	285,459	143,749
352,377	5,075	285,302	143,676
353,392	4,830	285,149	143,360
354,406	4,807	284,915	143,207
355,421	196,692	1343,759	1406,282
356,435	159,408	1472,658	1406,183
