DTS Sentinel unit serial number:	SN410029Multiplexer serial number:	ORYXHardware model number:	OX2-SRSoftware version number:	ORYX F/W v4,00 Oryx Data Collector v3.7.2.0data status	okinstallation	B4 Nyhavnadifferential loss correction	single-endedforward channel	channel 2reverse channel	N/Adate	2023/12/19time	13:15:13forward acquisition time	300,00reverse acquisition time	0,00gamma	499,1914k internal	0,3127k external	0,3127temperature offset calibration	1,0000default loss term (dB/km)	0,3820temperature slope calibration	1,0000multiplexer offset coefficient	1,0000multiplexer slope coefficient	1,0000fibre end	0,00T internal ref (°C)	19,40T ext. ref 1 (°C)	4,48T ext. ref 2 (°C)	4,41length (m)	temperature (°C)	Stokes	anti-Stokes-744,400	-73,749	0,145	0,039
-743,385	-23,532	-0,166	0,074
-742,371	70,890	-0,134	0,103
-741,356	800,000	-0,055	0,172
-740,342	800,000	0,005	0,016
-739,327	-139,262	-0,255	0,020
-738,312	-116,909	0,159	0,021
-737,298	-36,291	-0,244	0,097
-736,283	-80,152	0,096	-0,024
-735,269	-121,999	-0,278	-0,034
-734,254	-76,831	0,091	0,024
-733,239	-114,057	-0,541	-0,077
-732,225	56,972	0,105	0,076
-731,210	-200,000	-0,002	0,020
-730,196	-6,484	-0,077	0,039
-729,181	123,025	-0,140	0,130
-728,167	-200,000	-0,003	0,070
-727,152	-165,314	0,110	0,004
-726,137	227,913	-0,068	0,083
-725,123	800,000	-0,003	-0,007
-724,108	16,723	-0,195	-0,115
-723,094	338,720	0,056	-0,082
-722,079	140,669	0,075	-0,074
-721,064	-84,247	0,019	0,004
-720,050	243,716	-0,075	-0,094
-719,035	42,842	-0,102	0,069
-718,021	-97,332	-0,109	-0,021
-717,006	-32,879	0,142	-0,059
-715,991	-200,000	0,007	-0,173
-714,977	354,846	0,029	-0,044
-713,962	635,791	-0,090	-0,171
-712,948	-200,000	0,008	-0,055
-711,933	131,657	-0,035	0,034
-710,918	800,000	-0,043	-0,106
-709,904	557,713	-0,065	-0,117
-708,889	703,815	-0,093	-0,184
-707,875	601,939	0,048	-0,090
-706,860	22,427	0,020	0,012
-705,845	-51,671	-0,017	0,006
-704,831	-30,314	0,098	-0,041
-703,816	800,000	0,017	-0,047
-702,802	1,230	0,072	-0,038
-701,787	103,167	-0,070	-0,061
-700,772	-8,787	-0,123	0,061
-699,758	32,011	0,059	-0,038
-698,743	-200,000	0,022	0,077
-697,729	-122,875	-0,044	0,005
-696,714	800,000	0,026	-0,074
-695,699	11,755	-0,050	-0,028
-694,685	355,455	0,048	-0,071
-693,670	-119,778	-0,188	-0,024
-692,656	175,746	0,061	0,066
-691,641	-200,000	0,039	-0,131
-690,627	328,666	-0,053	0,076
-689,612	-114,437	-0,094	-0,013
-688,597	800,000	-0,053	-0,132
-687,583	-42,706	-0,092	-0,034
-686,568	-200,000	-0,006	-0,041
-685,554	-200,000	-0,011	-0,124
-684,539	-97,318	0,098	-0,019
-683,524	112,853	0,057	0,051
-682,510	-131,095	0,073	0,007
-681,495	712,837	-0,064	-0,126
-680,481	800,000	-0,018	-0,042
-679,466	46,822	-0,162	-0,112
-678,451	-200,000	0,007	-0,058
-677,437	-200,000	-0,012	0,071
-676,422	745,373	0,034	0,067
-675,408	-200,000	-0,016	-0,058
-674,393	800,000	-0,005	-0,012
-673,378	-200,000	-0,023	0,100
-672,364	364,154	-0,062	0,092
-671,349	-101,860	0,050	0,009
-670,335	29,147	-0,015	0,010
-669,320	-58,896	-0,081	-0,026
-668,305	-72,005	0,182	-0,050
-667,291	-54,354	-0,064	-0,022
-666,276	-124,906	0,066	-0,007
-665,262	192,380	-0,095	-0,107
-664,247	216,205	0,066	-0,078
-663,232	-200,000	0,023	-0,124
-662,218	-2,583	0,070	0,036
-661,203	-200,000	0,011	0,066
-660,189	-12,259	-0,061	0,030
-659,174	-26,364	-0,085	0,037
-658,159	547,862	0,019	0,033
-657,145	111,358	-0,071	0,063
-656,130	800,000	0,018	0,043
-655,116	800,000	-0,052	0,152
-654,101	273,034	0,063	0,083
-653,086	95,856	-0,104	0,088
-652,072	130,172	-0,040	0,038
-651,057	800,000	0,055	-0,133
-650,043	-169,681	-0,093	0,002
-649,028	21,605	-0,021	0,013
-648,014	-200,000	-0,009	0,039
-646,999	-200,000	0,009	0,058
-645,984	-60,608	0,033	-0,010
-644,970	-181,538	-0,252	0,004
-643,955	-200,000	0,005	0,069
-642,941	800,000	-0,056	-0,160
-641,926	-200,000	-0,001	-0,079
-640,911	800,000	0,018	0,044
-639,897	6,308	-0,071	0,039
-638,882	-200,000	-0,038	0,132
-637,868	644,972	-0,036	0,069
-636,853	-69,870	-0,073	-0,021
-635,838	-200,000	0,015	-0,116
-634,824	36,424	0,070	-0,046
-633,809	79,196	0,014	0,011
-632,795	800,000	-0,021	0,064
-631,780	-112,531	0,053	-0,008
-630,765	40,625	-0,187	-0,124
-629,751	800,000	0,028	-0,060
-628,736	310,636	-0,024	-0,034
-627,722	410,352	0,009	0,015
-626,707	-44,116	-0,118	0,044
-625,692	326,056	-0,053	0,075
-624,678	-200,000	0,001	0,022
-623,663	-200,000	-0,010	-0,041
-622,649	-200,000	-0,001	-0,109
-621,634	-59,182	-0,042	-0,013
-620,619	111,896	-0,099	-0,089
-619,605	214,419	0,111	0,130
-618,590	35,605	-0,007	0,005
-617,576	-11,648	0,029	-0,014
-616,561	800,000	-0,033	0,094
-615,546	800,000	0,033	0,080
-614,532	-22,074	-0,047	0,021
-613,517	-200,000	-0,015	-0,064
-612,503	169,118	0,052	0,055
-611,488	-200,000	0,010	-0,076
-610,474	40,937	0,035	-0,023
-609,459	34,621	0,139	0,089
-608,444	213,519	-0,063	-0,074
-607,430	88,769	-0,064	-0,053
-606,415	464,339	-0,082	-0,137
-605,401	146,718	0,091	-0,090
-604,386	-99,660	0,049	-0,009
-603,371	-200,000	-0,007	0,114
-602,357	221,097	0,071	-0,084
-601,342	677,689	-0,027	0,051
-600,328	84,339	-0,014	-0,011
-599,313	-15,563	0,108	0,051
-598,298	442,903	-0,046	0,075
-597,284	78,652	0,125	0,099
-596,269	800,000	-0,052	0,120
-595,255	-200,000	-0,020	-0,156
-594,240	-69,735	-0,140	-0,039
-593,225	-88,841	-0,106	0,023
-592,211	800,000	0,079	-0,164
-591,196	35,173	-0,101	-0,066
-590,182	-200,000	0,005	-0,036
-589,167	-76,137	0,033	-0,009
-588,152	-79,087	0,081	0,020
-587,138	-200,000	-0,027	0,106
-586,123	-112,441	-0,126	0,018
-585,109	51,611	-0,135	0,095
-584,094	132,131	0,069	-0,065
-583,079	64,566	-0,045	-0,033
-582,065	39,098	0,115	0,076
-581,050	115,451	0,042	-0,038
-580,036	800,000	0,023	-0,049
-579,021	-102,367	0,080	0,014
-578,006	-200,000	-0,006	-0,149
-576,992	-200,000	0,009	-0,057
-575,977	-124,955	-0,057	0,006
-574,963	44,460	0,124	0,084
-573,948	105,437	-0,133	0,116
-572,934	-200,000	0,019	-0,091
-571,919	46,727	0,101	0,070
-570,904	-99,090	-0,019	-0,004
-569,890	302,570	0,016	0,021
-568,875	-90,649	-0,051	-0,011
-567,861	438,918	-0,014	0,023
-566,846	-76,380	-0,143	-0,037
-565,831	409,266	-0,030	-0,047
-564,817	-200,000	0,004	0,177
-563,802	-77,505	0,105	0,027
-562,788	352,243	-0,102	-0,150
-561,773	449,308	0,129	-0,212
-560,758	129,340	0,103	0,098
-559,744	-34,781	0,070	0,028
-558,729	800,000	0,051	0,138
-557,715	144,985	-0,087	-0,086
-556,700	84,664	0,070	-0,056
-555,685	115,402	-0,130	-0,117
-554,671	556,912	-0,058	0,103
-553,656	-0,820	0,023	-0,012
-552,642	800,000	0,048	-0,131
-551,627	80,197	0,082	0,065
-550,612	-200,000	-0,027	-0,123
-549,598	27,983	-0,081	-0,051
-548,583	-113,055	-0,029	-0,004
-547,569	-66,382	0,118	0,034
-546,554	138,053	0,113	-0,109
-545,539	-139,120	-0,089	-0,007
-544,525	-133,773	-0,125	-0,011
-543,510	26,672	0,082	0,050
-542,496	306,613	-0,046	-0,064
-541,481	-122,185	0,015	0,002
-540,466	-200,000	0,021	-0,075
-539,452	-118,908	0,112	-0,014
-538,437	800,000	0,023	0,063
-537,423	-11,329	-0,065	-0,032
-536,408	-200,000	0,017	-0,128
-535,393	250,758	0,069	-0,087
-534,379	156,653	-0,065	-0,067
-533,364	-200,000	-0,018	-0,087
-532,350	61,605	-0,024	0,018
-531,335	-121,834	-0,108	0,013
-530,321	-200,000	-0,009	0,122
-529,306	313,313	0,005	-0,007
-528,291	-200,000	0,002	-0,074
-527,277	109,446	0,037	0,033
-526,262	-90,291	0,101	0,022
-525,248	-200,000	0,007	0,123
-524,233	-200,000	-0,009	0,060
-523,218	347,533	0,048	0,070
-522,204	-52,373	0,039	0,013
-521,189	272,565	0,022	-0,029
-520,175	800,000	0,017	-0,050
-519,160	-62,270	0,059	0,018
-518,145	193,055	0,056	-0,062
-517,131	-117,320	0,238	-0,031
-516,116	243,076	-0,073	0,090
-515,102	18,359	0,017	0,010
-514,087	133,410	-0,030	-0,028
-513,072	-200,000	-0,020	-0,101
-512,058	41,487	0,065	0,043
-511,043	-52,574	-0,081	-0,028
-510,029	-127,502	0,116	-0,012
-509,014	126,180	0,053	-0,049
-507,999	-119,340	-0,204	0,026
-506,985	800,000	-0,078	-0,170
-505,970	-200,000	0,003	-0,063
-504,956	-20,953	0,127	-0,057
-503,941	77,546	-0,090	-0,071
-502,926	-48,143	-0,132	-0,047
-501,912	800,000	0,028	0,086
-500,897	-101,058	0,015	-0,003
-499,883	-200,000	-0,007	-0,043
-498,868	115,366	-0,026	0,024
-497,853	359,791	-0,091	0,135
-496,839	235,260	-0,013	0,016
-495,824	-200,000	0,005	0,133
-494,810	800,000	0,031	0,064
-493,795	32,716	0,065	0,041
-492,781	-50,664	0,074	-0,026
-491,766	113,377	-0,106	-0,095
-490,751	514,288	-0,031	-0,053
-489,737	-171,000	0,138	-0,003
-488,722	800,000	-0,020	-0,046
-487,708	-200,000	-0,002	0,008
-486,693	-200,000	0,008	-0,045
-485,678	-55,071	-0,111	-0,037
-484,664	316,383	0,061	0,086
-483,649	297,881	-0,024	-0,033
-482,635	1,404	-0,137	-0,072
-481,620	86,235	0,052	-0,042
-480,605	-200,000	-0,021	0,128
-479,591	107,385	-0,082	-0,072
-478,576	-200,000	-0,011	-0,097
-477,562	-200,000	-0,044	0,158
-476,547	-200,000	-0,006	0,112
-475,532	167,568	0,071	0,075
-474,518	122,270	0,084	-0,077
-473,503	-131,502	-0,123	-0,012
-472,489	-200,000	0,008	0,067
-471,474	49,594	0,059	-0,041
-470,459	299,682	0,050	0,068
-469,445	-65,816	0,012	-0,004
-468,430	800,000	-0,045	-0,121
-467,416	-134,688	0,042	-0,004
-466,401	-200,000	0,051	0,195
-465,386	-200,000	0,018	0,067
-464,372	-49,872	-0,122	-0,042
-463,357	39,805	-0,082	0,054
-462,343	65,341	-0,145	-0,108
-461,328	254,854	-0,118	-0,149
-460,313	25,943	0,069	0,043
-459,299	318,445	0,067	0,093
-458,284	800,000	-0,052	0,135
-457,270	-74,577	0,083	0,022
-456,255	-200,000	0,012	0,053
-455,241	-60,045	-0,094	-0,029
-454,226	-200,000	-0,026	-0,142
-453,211	-41,851	0,086	-0,032
-452,197	535,994	0,021	0,036
-451,182	572,623	-0,027	-0,049
-450,168	-200,000	0,020	0,144
-449,153	800,000	-0,040	-0,106
-448,138	-36,093	-0,124	-0,049
-447,124	-80,277	-0,174	-0,042
-446,109	-2,310	0,140	-0,072
-445,095	273,774	0,086	-0,113
-444,080	-23,812	0,075	-0,033
-443,065	-200,000	0,003	0,114
-442,051	55,706	-0,073	-0,052
-441,036	22,642	-0,136	-0,082
-440,022	223,848	0,078	0,093
-439,007	-86,888	-0,093	0,021
-437,992	-200,000	0,048	0,232
-436,978	-49,382	0,126	0,044
-435,963	-200,000	0,013	-0,099
-434,949	-56,267	-0,038	-0,012
-433,934	64,012	-0,047	-0,035
-432,919	534,625	-0,048	0,084
-431,905	-200,000	-0,032	-0,118
-430,890	-200,000	-0,011	0,077
-429,876	800,000	0,021	-0,049
-428,861	-200,000	-0,005	0,135
-427,846	180,586	-0,047	-0,051
-426,832	-200,000	-0,030	-0,109
-425,817	34,990	-0,117	-0,075
-424,803	54,789	0,030	-0,021
-423,788	672,512	-0,015	-0,029
-422,773	-127,090	0,091	0,010
-421,759	-35,064	0,084	0,034
-420,744	-200,000	0,018	-0,068
-419,730	-20,275	0,107	-0,048
-418,715	-200,000	-0,004	0,017
-417,701	86,576	-0,097	0,079
-416,686	800,000	0,060	-0,130
-415,671	49,280	-0,106	-0,073
-414,657	-200,000	0,000	0,075
-413,642	-200,000	-0,019	0,095
-412,628	57,662	0,139	0,100
-411,613	-111,452	0,063	-0,009
-410,598	-200,000	0,035	-0,188
-409,584	-50,340	-0,047	-0,016
-408,569	800,000	-0,009	0,023
-407,555	-114,495	-0,064	-0,009
-406,540	-200,000	0,002	0,007
-405,525	188,079	-0,137	0,151
-404,511	-116,175	-0,088	-0,012
-403,496	-137,393	0,063	-0,005
-402,482	-85,945	0,085	0,019
-401,467	-200,000	0,030	0,109
-400,452	800,000	-0,060	0,180
-399,438	800,000	-0,022	0,062
-398,423	-30,881	-0,087	0,036
-397,409	800,000	0,016	-0,038
-396,394	94,313	0,050	0,041
-395,379	36,091	-0,016	0,010
-394,365	-119,382	0,137	0,017
-393,350	-200,000	-0,011	0,041
-392,336	-16,672	-0,042	0,019
-391,321	-127,289	-0,157	-0,017
-390,306	-3,950	0,134	-0,068
-389,292	800,000	0,005	0,010
-388,277	-67,258	-0,005	0,001
-387,263	800,000	-0,031	-0,094
-386,248	-200,000	-0,003	0,066
-385,233	62,013	0,074	0,054
-384,219	26,440	-0,052	0,032
-383,204	-96,386	0,063	-0,012
-382,190	-27,697	0,063	-0,027
-381,175	800,000	0,019	-0,055
-380,160	131,919	-0,042	0,040
-379,146	-61,463	0,062	-0,019
-378,131	417,766	0,003	-0,004
-377,117	152,566	-0,099	0,099
-376,102	601,703	0,035	-0,064
-375,088	-71,406	0,031	0,009
-374,073	-200,000	-0,015	0,164
-373,058	178,254	0,052	0,056
-372,044	55,338	-0,066	0,047
-371,029	-200,000	0,022	0,198
-370,015	157,121	-0,033	0,033
-369,000	-42,137	-0,144	-0,054
-367,985	611,963	-0,023	0,042
-366,971	12,025	-0,105	-0,059
-365,956	37,031	0,077	0,050
-364,942	417,175	0,083	0,130
-363,927	-17,131	-0,069	-0,032
-362,912	-67,024	0,018	0,005
-361,898	517,405	0,020	-0,035
-360,883	228,646	0,097	0,116
-359,869	-200,000	0,023	-0,076
-358,854	-160,026	0,080	-0,003
-357,839	416,131	0,064	-0,101
-356,825	285,646	0,063	-0,083
-355,810	-114,309	-0,091	-0,013
-354,796	-200,000	-0,011	-0,118
-353,781	-200,000	0,003	0,075
-352,766	278,208	-0,075	-0,098
-351,752	-80,558	0,136	-0,033
-350,737	-200,000	0,000	-0,015
-349,723	800,000	0,070	0,165
-348,708	800,000	-0,095	0,203
-347,693	-200,000	0,012	0,044
-346,679	-200,000	-0,002	-0,037
-345,664	237,240	-0,066	-0,081
-344,650	-200,000	-0,016	0,111
-343,635	170,679	-0,073	-0,077
-342,620	-15,785	0,048	0,023
-341,606	800,000	0,067	0,141
-340,591	-160,448	0,042	-0,002
-339,577	0,508	0,065	-0,034
-338,562	800,000	0,040	-0,103
-337,548	-76,588	-0,018	-0,005
-336,533	150,566	0,074	-0,074
-335,518	-200,000	0,000	0,081
-334,504	-28,952	-0,156	0,065
-333,489	-200,000	-0,004	0,019
-332,475	209,303	-0,049	-0,057
-331,460	56,002	-0,095	0,067
-330,445	-68,061	0,086	-0,024
-329,431	-200,000	-0,002	-0,036
-328,416	501,379	0,049	0,082
-327,402	586,324	-0,013	0,023
-326,387	100,689	-0,113	-0,097
-325,372	-200,000	-0,006	-0,018
-324,358	25,543	0,031	0,019
-323,343	-111,437	-0,074	-0,011
-322,329	149,755	0,060	-0,059
-321,314	74,835	0,081	0,062
-320,299	-71,445	0,035	-0,010
-319,285	275,978	-0,028	0,037
-318,270	-200,000	-0,016	-0,166
-317,256	-200,000	-0,005	-0,102
-316,241	85,841	-0,046	0,037
-315,226	-176,921	0,092	-0,002
-314,212	-115,775	0,019	0,003
-313,197	549,095	0,049	-0,086
-312,183	775,296	-0,039	0,078
-311,168	37,112	-0,090	-0,058
-310,153	800,000	-0,033	0,074
-309,139	-22,769	-0,084	-0,037
-308,124	-68,129	0,129	-0,037
-307,110	-200,000	-0,007	-0,027
-306,095	-68,241	0,093	0,026
-305,080	223,615	0,126	0,149
-304,066	225,686	-0,096	-0,114
-303,051	-200,000	-0,029	-0,144
-302,037	77,631	-0,151	-0,118
-301,022	157,935	-0,092	0,094
-300,008	-200,000	-0,003	0,053
-298,993	136,867	0,127	-0,121
-297,978	-200,000	-0,058	0,000
-296,964	-84,716	-0,042	-0,010
-295,949	-200,000	0,015	-0,048
-294,935	-138,076	-0,167	-0,013
-293,920	-0,981	0,025	-0,013
-292,905	47,917	0,027	0,019
-291,891	-200,000	-0,009	0,050
-290,876	29,462	-0,132	-0,082
-289,862	-77,934	0,110	0,028
-288,847	266,459	0,097	0,124
-287,832	291,102	0,037	-0,050
-286,818	-200,000	0,015	-0,084
-285,803	-119,939	0,076	-0,009
-284,789	-110,629	0,117	0,017
-283,774	164,244	0,056	-0,058
-282,759	4,084	-0,103	0,055
-281,745	-200,000	0,008	-0,055
-280,730	-200,000	0,023	-0,128
-279,716	-115,213	-0,034	0,005
-278,701	-141,688	0,160	-0,012
-277,686	-200,000	0,032	0,128
-276,672	-101,406	-0,053	0,009
-275,657	800,000	-0,013	-0,031
-274,643	323,495	-0,017	0,024
-273,628	-64,745	-0,152	-0,045
-272,613	-109,313	0,078	-0,012
-271,599	634,710	0,052	0,098
-270,584	-74,892	0,107	0,028
-269,570	-54,196	-0,072	-0,024
-268,555	665,935	-0,012	0,022
-267,540	-24,827	0,086	-0,037
-266,526	15,219	-0,194	-0,111
-265,511	215,795	0,083	-0,097
-264,497	-145,113	0,052	-0,003
-263,482	679,461	0,041	0,078
-262,467	-66,412	0,065	0,019
-261,453	-200,000	-0,008	0,059
-260,438	-200,000	-0,009	0,054
-259,424	-142,116	-0,044	-0,003
-258,409	-168,780	0,090	-0,002
-257,395	21,886	0,119	0,071
-256,380	-200,000	0,017	0,150
-255,365	575,937	0,036	0,064
-254,351	-89,995	0,113	0,024
-253,336	163,920	0,008	-0,008
-252,322	-2,815	-0,073	-0,037
-251,307	-98,833	-0,122	-0,022
-250,292	61,059	0,070	0,051
-249,278	28,634	0,103	0,064
-248,263	-200,000	0,018	0,086
-247,249	-45,975	-0,043	0,015
-246,234	800,000	-0,010	-0,029
-245,219	-200,000	-0,013	0,052
-244,205	800,000	0,011	0,023
-243,190	-200,000	0,036	0,159
-242,176	284,732	0,013	-0,018
-241,161	-200,000	0,004	-0,048
-240,146	-119,955	-0,013	0,002
-239,132	122,002	0,087	-0,079
-238,117	-17,065	-0,100	-0,046
-237,103	-200,000	0,032	-0,175
-236,088	102,094	0,019	-0,017
-235,073	-125,319	0,143	-0,016
-234,059	-28,210	0,084	0,035
-233,044	574,923	0,014	0,025
-232,030	688,470	-0,040	0,076
-231,015	-200,000	0,001	0,058
-230,000	-150,978	-0,073	-0,004
-228,986	650,245	-0,080	0,151
-227,971	-23,670	-0,086	-0,037
-226,957	800,000	0,045	0,121
-225,942	17,152	-0,158	0,091
-224,927	800,000	-0,011	-0,024
-223,913	-200,000	-0,019	-0,077
-222,898	-200,000	-0,005	0,093
-221,884	800,000	0,041	0,096
-220,869	291,483	0,015	0,020
-219,855	61,211	0,042	0,030
-218,840	-104,985	-0,030	0,005
-217,825	800,000	-0,043	-0,109
-216,811	-140,815	0,090	0,007
-215,796	-200,000	-0,015	-0,163
-214,782	800,000	0,014	-0,039
-213,767	313,362	0,038	-0,053
-212,752	-2,179	0,050	-0,025
-211,738	26,215	0,080	-0,048
-210,723	8,516	-0,090	0,049
-209,709	-200,000	0,011	-0,038
-208,694	-29,734	0,040	0,017
-207,679	315,949	-0,029	-0,040
-206,665	800,000	-0,042	0,095
-205,650	-32,861	0,194	0,078
-204,636	-200,000	-0,004	0,047
-203,621	113,004	0,050	0,045
-202,606	212,209	-0,087	-0,100
-201,592	536,372	-0,093	-0,162
-200,577	-40,471	-0,174	-0,066
-199,563	-113,585	0,097	-0,014
-198,548	362,613	0,101	0,148
-197,533	-58,781	0,026	0,008
-196,519	-94,318	-0,137	0,027
-195,504	-200,000	-0,005	-0,084
-194,490	-146,926	0,044	0,003
-193,475	24,307	-0,039	0,024
-192,460	14,169	-0,075	-0,043
-191,446	67,640	0,085	0,063
-190,431	-6,522	0,124	0,061
-189,417	-149,972	-0,088	-0,005
-188,402	-91,374	-0,044	0,009
-187,387	-200,000	-0,014	-0,085
-186,373	-157,583	-0,032	0,001
-185,358	187,957	0,059	0,064
-184,344	713,873	0,026	-0,051
-183,329	175,478	0,060	0,063
-182,315	-93,109	0,096	0,019
-181,300	651,506	-0,023	0,042
-180,285	139,009	0,110	0,105
-179,271	-200,000	-0,027	-0,182
-178,256	91,943	0,026	0,022
-177,242	-200,000	0,002	-0,066
-176,227	-113,502	0,116	0,016
-175,212	-100,444	0,145	-0,026
-174,198	800,000	0,068	0,141
-173,183	-184,093	-0,122	-0,001
-172,169	-200,000	0,019	-0,115
-171,154	-200,000	0,002	0,039
-170,139	10,398	-0,061	0,034
-169,125	662,994	-0,069	0,131
-168,110	-21,050	0,083	-0,037
-167,096	302,382	0,049	0,066
-166,081	-200,000	-0,009	-0,038
-165,066	-79,037	-0,160	-0,039
-164,052	-200,000	0,034	-0,200
-163,037	160,807	-0,105	0,107
-162,023	-12,221	-0,097	0,046
-161,008	-165,626	0,037	0,001
-159,993	-200,000	0,005	0,032
-158,979	-57,344	-0,054	0,017
-157,964	166,366	-0,048	-0,049
-156,950	-200,000	0,009	-0,143
-155,935	-200,000	0,051	0,185
-154,920	-1,247	-0,101	-0,052
-153,906	-145,723	0,099	0,006
-152,891	800,000	0,026	-0,075
-151,877	-2,554	0,104	0,053
-150,862	800,000	-0,060	-0,161
-149,847	-156,024	-0,117	0,005
-148,833	448,272	0,065	0,104
-147,818	-80,314	-0,144	0,035
-146,804	114,683	0,088	0,078
-145,789	29,523	-0,075	0,046
-144,775	30,642	-0,061	-0,038
-143,760	-58,383	-0,054	0,017
-142,745	270,063	-0,129	-0,166
-141,731	545,768	-0,017	0,029
-140,716	800,000	0,049	0,123
-139,702	422,934	0,065	-0,102
-138,687	-200,000	-0,006	0,054
-137,672	763,650	-0,047	0,093
-136,658	-0,168	-0,075	-0,039
-135,643	-200,000	0,001	-0,014
-134,629	2,312	-0,057	0,030
-133,614	-11,692	0,134	-0,064
-132,599	79,817	0,071	0,055
-131,585	-200,000	0,033	0,117
-130,570	156,552	0,040	0,040
-129,556	-159,715	0,054	0,002
-128,541	-47,582	-0,045	-0,016
-127,526	-68,135	0,080	-0,022
-126,512	398,102	-0,007	0,011
-125,497	-200,000	-0,025	0,096
-124,483	-200,000	-0,016	0,066
-123,468	50,915	0,055	0,038
-122,453	-200,000	-0,005	-0,092
-121,439	-45,779	-0,089	-0,032
-120,424	68,420	-0,037	-0,027
-119,410	-64,108	0,074	0,022
-118,395	200,711	0,047	0,053
-117,380	800,000	0,071	0,169
-116,366	-200,000	-0,001	0,078
-115,351	-200,000	-0,019	-0,099
-114,337	392,453	-0,039	-0,060
-113,322	800,000	0,021	-0,045
-112,307	800,000	0,040	0,081
-111,293	-84,292	0,117	-0,027
-110,278	641,953	0,037	0,069
-109,264	800,000	-0,010	-0,026
-108,249	-200,000	-0,017	-0,077
-107,234	800,000	-0,024	-0,064
-106,220	-140,055	0,058	0,004
-105,205	130,761	0,120	0,112
-104,191	800,000	0,060	-0,154
-103,176	-200,000	0,012	-0,114
-102,162	320,321	0,066	-0,092
-101,147	-51,550	-0,084	-0,028
-100,132	39,544	-0,127	-0,083
-99,118	292,962	-0,044	-0,059
-98,103	-200,000	0,011	-0,064
-97,089	-200,000	0,005	0,134
-96,074	169,326	0,031	0,032
-95,059	-200,000	0,002	0,045
-94,045	-200,000	0,024	-0,090
-93,030	45,878	-0,107	0,072
-92,016	-111,448	-0,034	0,005
-91,001	337,885	-0,091	-0,129
-89,986	-200,000	0,004	0,111
-88,972	79,877	0,037	0,029
-87,957	800,000	0,029	-0,071
-86,943	-200,000	-0,001	0,051
-85,928	332,762	0,051	0,071
-84,913	313,248	-0,074	0,102
-83,899	-200,000	-0,003	0,037
-82,884	276,399	-0,007	0,009
-81,870	-200,000	0,155	-0,000
-80,855	-200,000	-0,004	0,063
-79,840	800,000	-0,036	0,081
-78,826	-200,000	0,023	-0,172
-77,811	535,883	-0,045	-0,079
-76,797	-111,817	-0,136	0,020
-75,782	800,000	-0,036	-0,079
-74,767	-83,982	0,016	-0,004
-73,753	479,688	0,097	0,160
-72,738	-200,000	0,003	0,038
-71,724	-200,000	0,009	0,157
-70,709	67,485	-0,040	-0,029
-69,694	-200,000	-0,011	0,097
-68,680	-200,000	-0,000	-0,156
-67,665	-82,535	-0,150	0,035
-66,651	547,735	-0,029	0,051
-65,636	-200,000	0,009	0,034
-64,622	-17,715	-0,103	-0,047
-63,607	271,862	-0,079	0,101
-62,592	282,910	-0,038	0,049
-61,578	355,661	-0,034	-0,049
-60,563	-200,000	0,016	-0,159
-59,549	-44,932	-0,030	-0,011
-58,534	-59,735	-1,537	-0,474
-57,519	345,457	-0,977	-1,394
-56,505	-200,000	-1,070	-4,443
-55,490	-53,754	0,469	-0,154
-54,476	800,000	4,940	11,726
-53,461	-200,000	15,083	269,475
-52,446	-200,000	695,538	2252,644
-51,432	589,994	1615,519	2898,529
-50,417	120,998	1623,995	1464,086
-49,403	82,587	1281,492	1007,602
-48,388	37,327	1022,455	655,179
-47,373	22,147	983,436	580,162
-46,359	21,072	972,605	570,218
-45,344	19,648	967,991	562,826
-44,330	19,677	966,721	562,161
-43,315	19,500	965,141	560,643
-42,300	19,472	964,014	559,873
-41,286	19,462	963,096	559,285
-40,271	19,421	962,319	558,677
-39,257	19,468	961,328	558,235
-38,242	19,480	960,339	557,676
-37,227	19,464	959,716	557,240
-36,213	19,451	958,832	556,664
-35,198	19,428	957,775	555,952
-34,184	19,468	957,278	555,771
-33,169	19,380	956,364	554,936
-32,154	19,510	955,143	554,623
-31,140	19,465	954,445	554,051
-30,125	19,472	953,739	553,643
-29,111	19,481	952,727	553,062
-28,096	19,430	952,344	552,652
-27,082	19,410	951,688	552,186
-26,067	19,419	950,773	551,662
-25,052	19,379	950,143	551,147
-24,038	19,395	949,409	550,749
-23,023	19,401	948,690	550,330
-22,009	19,457	947,945	550,055
-20,994	19,501	947,424	549,871
-19,979	19,463	946,756	549,343
-18,965	19,471	946,173	549,007
-17,950	19,378	945,522	548,309
-16,936	19,415	944,801	547,988
-15,921	19,366	944,362	547,556
-14,906	19,317	943,611	546,941
-13,892	19,340	942,839	546,547
-12,877	19,330	942,141	546,088
-11,863	19,259	941,580	545,515
-10,848	19,308	941,045	545,341
-9,833	19,346	940,679	545,226
-8,819	19,356	940,054	544,875
-7,804	19,368	939,228	544,412
-6,790	19,306	938,718	543,897
-5,775	19,379	938,261	543,844
-4,760	19,342	937,496	543,261
-3,746	19,387	936,943	543,062
-2,731	19,148	936,346	541,938
-1,717	19,164	935,642	541,559
-0,702	19,174	934,805	541,084
0,313	18,963	934,336	540,964
1,327	21,456	932,143	547,504
2,342	28,816	806,493	493,634
3,356	23,051	506,387	300,106
4,371	-0,916	373,769	190,950
5,386	-3,746	357,053	178,914
6,400	-4,868	351,433	174,722
7,415	-5,245	348,814	172,952
8,429	-5,114	347,388	172,387
9,444	-5,375	346,582	171,658
10,459	-5,365	345,902	171,319
11,473	-5,455	345,283	170,889
12,488	-5,346	344,677	170,705
13,502	-5,388	344,067	170,337
14,517	-5,280	343,628	170,232
15,531	-5,324	343,120	169,913
16,546	-5,148	342,500	169,800
17,561	-5,285	342,354	169,550
18,575	-5,110	341,744	169,439
19,590	-5,319	341,400	169,007
20,604	-5,131	341,025	169,028
21,619	-5,272	340,906	168,788
22,634	-5,107	340,431	168,731
23,648	-5,121	340,068	168,520
24,663	-5,342	339,811	168,119
25,677	-5,220	339,343	168,014
26,692	-5,217	339,170	167,917
27,707	-5,232	338,897	167,750
28,721	-5,224	338,569	167,582
29,736	-5,214	338,262	167,427
30,750	-5,156	337,872	167,287
31,765	-5,283	337,691	167,034
32,780	-5,369	337,535	166,842
33,794	-5,299	337,281	166,783
34,809	-5,235	336,975	166,691
35,823	-5,254	336,477	166,408
36,838	-5,365	336,237	166,146
37,853	-5,313	335,967	166,058
38,867	-5,238	335,676	165,986
39,882	-5,251	335,544	165,890
40,896	-5,255	335,148	165,676
41,911	-5,217	334,827	165,546
42,926	-5,262	334,718	165,425
43,940	-5,069	334,279	165,416
44,955	-5,149	334,008	165,175
45,969	-5,230	333,879	165,003
46,984	-5,336	333,500	164,680
47,999	-5,239	333,350	164,702
49,013	-5,278	333,206	164,572
50,028	-5,268	332,823	164,380
51,042	-5,262	332,590	164,257
52,057	-5,343	332,350	164,031
53,071	-5,213	332,150	164,066
54,086	-5,336	331,735	163,706
55,101	-5,265	331,613	163,712
56,115	-5,238	331,356	163,602
57,130	-5,248	330,990	163,394
58,144	-5,393	330,854	163,148
59,159	-5,205	330,355	163,100
60,174	-5,164	330,068	162,991
61,188	-5,265	329,863	162,760
62,203	-5,172	329,647	162,745
63,217	-5,240	329,408	162,536
64,232	-5,171	329,062	162,428
65,247	-5,220	328,882	162,269
66,261	-5,148	328,661	162,227
67,276	-5,219	328,417	162,012
68,290	-5,256	328,231	161,865
69,305	-5,236	327,982	161,750
70,320	-5,168	327,690	161,668
71,334	-5,221	327,417	161,460
72,349	-5,216	327,058	161,273
73,363	-5,120	326,735	161,207
74,378	-5,248	326,443	160,906
75,393	-5,207	326,247	160,841
76,407	-5,227	326,078	160,721
77,422	-5,066	325,852	160,775
78,436	-5,147	325,601	160,546
79,451	-5,139	325,238	160,362
80,466	-5,131	325,105	160,291
81,480	-5,252	324,861	160,021
82,495	-5,152	324,611	159,996
83,509	-4,990	324,372	160,043
84,524	-5,271	324,076	159,571
85,539	-5,111	323,846	159,621
86,553	-5,029	323,632	159,592
87,568	-5,218	323,469	159,288
88,582	-5,267	323,223	159,099
89,597	-5,225	322,947	158,994
90,611	-5,086	322,612	158,969
91,626	-5,144	322,494	158,833
92,641	-5,259	322,259	158,576
93,655	-5,166	322,065	158,569
94,670	-5,040	321,591	158,461
95,684	-5,141	321,532	158,306
96,699	-4,979	321,168	158,290
97,714	-5,119	320,987	158,033
98,728	-5,316	320,781	157,702
99,743	-5,246	320,619	157,685
100,757	-5,257	320,272	157,488
101,772	-5,189	320,025	157,428
102,787	-5,281	319,832	157,218
103,801	-5,189	319,605	157,192
104,816	-5,037	319,330	157,209
105,830	-5,200	319,227	156,966
106,845	-5,324	319,072	156,741
107,860	-5,334	318,844	156,604
108,874	-5,067	318,434	156,679
109,889	-5,123	318,265	156,522
110,903	-5,161	317,986	156,329
111,918	-5,212	317,895	156,215
112,933	-5,192	317,604	156,079
113,947	-5,189	317,295	155,917
114,962	-5,313	317,193	155,719
115,976	-5,208	316,858	155,654
116,991	-5,006	316,605	155,734
118,006	-5,157	316,431	155,471
119,020	-4,992	316,225	155,535
120,035	-5,054	316,045	155,365
121,049	-5,069	315,745	155,188
122,064	-5,128	315,595	155,037
123,079	-5,200	315,449	154,874
124,093	-5,165	315,181	154,766
125,108	-5,091	314,895	154,691
126,122	-5,138	314,586	154,476
127,137	-5,142	314,420	154,376
128,151	-5,174	314,320	154,279
129,166	-5,199	313,987	154,075
130,181	-5,088	313,834	154,105
131,195	-5,058	313,435	153,927
132,210	-5,055	313,216	153,809
133,224	-5,216	313,041	153,538
134,239	-5,127	312,744	153,473
135,254	-5,204	312,744	153,377
136,268	-5,120	312,469	153,318
137,283	-4,995	312,137	153,275
138,297	-5,129	311,867	152,985
139,312	-5,039	311,632	152,952
140,327	-5,218	311,377	152,623
141,341	-5,061	311,148	152,664
142,356	-5,099	311,008	152,542
143,370	-5,188	310,872	152,367
144,385	-5,170	310,551	152,215
145,400	-5,054	310,341	152,222
146,414	-5,177	310,187	152,003
147,429	-5,078	309,906	151,955
148,443	-5,039	309,796	151,929
149,458	-5,103	309,467	151,687
150,473	-5,095	309,351	151,625
151,487	-5,048	309,023	151,501
152,502	-5,196	308,850	151,247
153,516	-5,069	308,752	151,318
154,531	-5,156	308,426	151,054
155,546	-5,219	308,182	150,854
156,560	-5,140	308,159	150,913
157,575	-5,113	307,831	150,767
158,589	-5,040	307,532	150,684
159,604	-4,961	307,299	150,638
160,619	-5,089	307,020	150,355
161,633	-5,084	306,981	150,326
162,648	-5,124	306,766	150,167
163,662	-5,145	306,636	150,068
164,677	-5,011	306,323	150,041
165,692	-5,171	306,158	149,780
166,706	-4,914	305,843	149,879
167,721	-4,947	305,638	149,732
168,735	-5,075	305,512	149,523
169,750	-5,090	305,366	149,423
170,764	-5,186	305,199	149,228
171,779	-5,202	304,972	149,088
172,794	-4,928	304,800	149,274
173,808	-4,952	304,555	149,116
174,823	-5,130	304,164	148,727
175,837	-5,016	304,115	148,808
176,852	-5,138	303,913	148,570
177,867	-5,315	303,887	148,361
178,881	-5,254	303,675	148,308
179,896	-5,201	303,510	148,269
180,910	-5,022	302,920	148,151
181,925	-5,058	302,870	148,076
182,940	-5,087	302,662	147,931
183,954	-5,384	302,625	147,595
184,969	-4,916	302,234	147,871
185,983	-5,015	302,195	147,737
186,998	-5,114	301,870	147,464
188,013	-5,126	301,611	147,312
189,027	-5,025	301,524	147,360
190,042	-5,019	301,265	147,227
191,056	-5,141	300,910	146,916
192,071	-5,046	300,644	146,869
193,086	-5,138	300,581	146,732
194,100	-5,188	300,473	146,614
195,115	-5,095	300,268	146,596
196,129	-5,009	299,946	146,513
197,144	-5,208	299,771	146,213
198,159	-5,154	299,525	146,134
199,173	-5,049	299,300	146,118
200,188	-4,985	299,026	146,036
201,202	-5,072	298,835	145,842
202,217	-5,115	298,665	145,702
203,232	-4,995	298,503	145,732
204,246	-5,005	298,317	145,618
205,261	-5,160	298,061	145,323
206,275	-5,071	297,959	145,351
207,290	-4,992	297,592	145,238
208,304	-5,087	297,517	145,093
209,319	-4,975	297,199	145,038
210,334	-5,185	296,981	144,707
211,348	-4,982	296,846	144,832
212,363	-5,143	296,655	144,564
213,377	-4,971	296,313	144,557
214,392	-5,055	296,264	144,436
215,407	-5,012	296,044	144,359
216,421	-5,024	295,845	144,237
217,436	-5,031	295,616	144,105
218,450	-5,059	295,443	143,980
219,465	-5,170	295,252	143,765
220,480	-4,930	295,082	143,907
221,494	-5,060	294,885	143,669
222,509	-5,115	294,882	143,600
223,523	-4,938	294,575	143,614
224,538	-4,990	294,390	143,459
225,553	-5,036	294,050	143,236
226,567	-5,029	293,986	143,198
227,582	-4,876	293,625	143,162
228,596	-4,954	293,361	142,943
229,611	-4,909	293,355	142,972
230,626	-5,123	293,139	142,642
231,640	-5,016	292,934	142,636
232,655	-4,974	292,671	142,536
233,669	-5,000	292,557	142,441
234,684	-4,985	292,374	142,355
235,699	-5,079	292,258	142,193
236,713	-5,016	292,018	142,125
237,728	-5,016	291,679	141,948
238,742	-5,126	291,606	141,792
239,757	-5,162	291,415	141,650
240,772	-5,003	291,042	141,613
241,786	-4,961	290,948	141,596
242,801	-4,972	290,869	141,534
243,815	-4,888	290,744	141,543
244,830	-4,964	290,496	141,335
245,844	-4,869	290,249	141,295
246,859	-4,931	290,019	141,110
247,874	-5,025	289,927	140,960
248,888	-5,102	289,719	140,772
249,903	-5,143	289,523	140,624
250,917	-5,043	289,254	140,578
251,932	-5,229	289,032	140,276
252,947	-5,167	288,891	140,256
253,961	-5,164	288,519	140,066
254,976	-5,276	288,247	139,813
255,990	-5,090	288,257	139,986
257,005	-3,749	288,912	141,598
258,020	-1,499	289,474	144,054
259,034	-0,150	289,989	145,614
260,049	0,426	289,804	146,070
261,063	0,706	289,864	146,360
262,078	0,955	289,787	146,550
263,093	1,300	289,752	146,855
264,107	1,534	289,517	146,950
265,122	1,631	289,504	147,025
266,136	1,689	289,391	147,011
267,151	1,750	289,195	146,957
268,166	1,668	288,941	146,736
269,180	1,883	288,762	146,841
270,195	1,872	288,519	146,692
271,209	1,966	288,365	146,692
272,224	1,781	288,172	146,402
273,239	1,865	288,067	146,417
274,253	1,781	287,731	146,152
275,268	1,649	287,607	145,949
276,282	1,597	287,340	145,749
277,297	1,818	287,130	145,843
278,312	1,882	286,953	145,802
279,326	1,638	287,058	145,607
280,341	1,707	286,706	145,482
281,355	1,733	286,414	145,346
282,370	1,629	286,277	145,163
283,384	1,636	286,137	145,087
284,399	1,627	285,864	144,927
285,414	1,677	285,738	144,898
286,428	1,613	285,475	144,690
287,443	1,886	285,261	144,830
288,457	1,599	285,098	144,460
289,472	1,587	285,018	144,395
290,487	1,552	284,839	144,258
291,501	1,727	284,564	144,273
292,516	1,643	284,390	144,092
293,530	1,479	284,344	143,900
294,545	1,639	284,067	143,898
295,560	1,623	283,865	143,768
296,574	1,590	283,729	143,655
297,589	1,640	283,542	143,595
298,603	1,497	283,391	143,370
299,618	1,628	283,123	143,346
300,633	1,648	282,897	143,237
301,647	1,475	282,862	143,043
302,662	1,808	282,699	143,263
303,676	1,747	282,378	143,029
304,691	1,747	282,187	142,920
305,706	1,718	282,080	142,826
306,720	1,771	281,896	142,770
307,735	1,786	281,841	142,744
308,749	1,757	281,639	142,602
309,764	1,802	281,414	142,517
310,779	1,666	281,153	142,244
311,793	1,930	280,938	142,371
312,808	1,647	280,757	142,001
313,822	1,721	280,609	141,983
314,837	1,823	280,334	141,927
315,852	1,691	280,337	141,792
316,866	1,743	279,998	141,656
317,881	1,789	279,950	141,663
318,895	1,865	279,620	141,554
319,910	1,565	279,511	141,206
320,925	1,726	279,371	141,273
321,939	1,921	279,046	141,278
322,954	1,703	279,053	141,065
323,968	1,692	279,030	141,031
324,983	1,739	278,865	140,979
325,997	1,857	278,535	140,909
327,012	1,884	278,222	140,764
328,027	1,783	278,144	140,617
329,041	1,604	278,048	140,390
330,056	1,953	277,793	140,573
331,070	1,959	277,673	140,504
332,085	2,110	277,408	140,498
333,100	1,889	277,145	140,148
334,114	1,933	276,949	140,077
335,129	1,956	276,797	140,009
336,143	1,814	276,775	139,854
337,158	1,952	276,540	139,851
338,173	1,974	276,374	139,774
339,187	1,880	276,195	139,585
340,202	1,716	276,018	139,332
341,216	1,936	275,780	139,401
342,231	1,818	275,609	139,194
343,246	1,667	275,567	139,021
344,260	1,889	275,306	139,082
345,275	2,028	275,052	139,068
346,289	1,932	275,004	138,944
347,304	2,000	274,842	138,911
348,319	1,819	274,574	138,599
349,333	2,014	274,350	138,651
350,348	1,903	274,271	138,497
351,362	1,874	274,089	138,367
352,377	1,915	273,974	138,333
353,392	2,021	273,729	138,294
354,406	1,815	273,735	138,097
355,421	192,458	1347,404	1429,365
356,435	155,459	1478,284	1429,454
