DTS Sentinel unit serial number:	SN410029Multiplexer serial number:	ORYXHardware model number:	OX2-SRSoftware version number:	ORYX F/W v4,00 Oryx Data Collector v3.7.2.0data status	okinstallation	B4 Nyhavnadifferential loss correction	single-endedforward channel	channel 2reverse channel	N/Adate	2023/12/16time	13:20:13forward acquisition time	300,00reverse acquisition time	0,00gamma	499,1914k internal	0,3126k external	0,3126temperature offset calibration	1,0000default loss term (dB/km)	0,3820temperature slope calibration	1,0000multiplexer offset coefficient	1,0000multiplexer slope coefficient	1,0000fibre end	0,00T internal ref (°C)	24,69T ext. ref 1 (°C)	11,16T ext. ref 2 (°C)	11,37length (m)	temperature (°C)	Stokes	anti-Stokes-744,400	-200,000	-0,021	-0,082
-743,385	-2,895	-0,281	0,146
-742,371	800,000	0,033	0,074
-741,356	226,156	-0,163	0,197
-740,342	53,149	-0,121	-0,086
-739,327	-130,517	-0,251	0,025
-738,312	800,000	0,021	0,049
-737,298	188,436	-0,170	0,189
-736,283	800,000	-0,028	-0,081
-735,269	321,589	-0,146	0,207
-734,254	140,920	-0,134	-0,132
-733,239	-53,496	-0,390	-0,132
-732,225	167,679	0,130	-0,138
-731,210	-200,000	0,002	-0,025
-730,196	-200,000	0,002	-0,078
-729,181	-140,263	-0,027	0,002
-728,167	-54,363	0,027	0,009
-727,152	-19,840	-0,053	-0,024
-726,137	-152,825	-0,153	0,008
-725,123	688,156	-0,142	-0,277
-724,108	-136,135	-0,098	-0,008
-723,094	-39,156	-0,214	-0,083
-722,079	800,000	-0,039	-0,117
-721,064	30,797	-0,112	-0,071
-720,050	-28,292	0,027	0,012
-719,035	-200,000	0,034	0,165
-718,021	-153,694	-0,160	-0,008
-717,006	178,465	-0,047	-0,051
-715,991	-77,424	-0,135	-0,035
-714,977	-200,000	-0,021	-0,075
-713,962	-52,484	-0,138	-0,047
-712,948	16,010	0,131	-0,077
-711,933	-200,000	-0,013	0,046
-710,918	-5,074	0,018	-0,009
-709,904	-159,797	-0,194	0,008
-708,889	64,655	-0,060	-0,045
-707,875	-200,000	-0,004	-0,093
-706,860	-71,326	-0,128	0,035
-705,845	-200,000	0,002	0,160
-704,831	10,256	-0,027	0,015
-703,816	-200,000	0,002	-0,008
-702,802	-72,083	-0,102	0,028
-701,787	86,036	-0,088	0,072
-700,772	292,576	-0,080	-0,108
-699,758	-121,963	0,169	0,020
-698,743	50,772	-0,114	0,080
-697,729	-200,000	0,004	-0,103
-696,714	800,000	-0,007	0,020
-695,699	263,449	0,030	-0,039
-694,685	-200,000	-0,018	-0,175
-693,670	15,944	-0,033	0,019
-692,656	-127,034	0,199	0,021
-691,641	-53,414	0,141	-0,048
-690,627	574,688	-0,045	0,082
-689,612	-152,742	-0,102	0,005
-688,597	800,000	0,033	-0,071
-687,583	151,951	-0,084	-0,085
-686,568	76,064	-0,075	0,059
-685,554	-200,000	-0,017	-0,139
-684,539	502,987	0,061	-0,106
-683,524	204,048	-0,054	-0,063
-682,510	-80,351	-0,102	-0,025
-681,495	94,551	0,021	-0,018
-680,481	-200,000	-0,002	0,010
-679,466	-112,870	-0,034	-0,005
-678,451	-168,397	0,098	0,003
-677,437	359,451	0,043	-0,064
-676,422	-10,505	0,053	0,026
-675,408	110,918	0,084	-0,075
-674,393	-110,384	0,056	-0,009
-673,378	-80,457	-0,207	0,051
-672,364	-200,000	-0,035	0,139
-671,349	800,000	-0,050	0,115
-670,335	800,000	-0,061	0,149
-669,320	445,242	-0,022	-0,035
-668,305	-14,475	0,076	0,036
-667,291	133,165	-0,035	-0,034
-666,276	-60,176	-0,053	-0,017
-665,262	-39,289	-0,038	0,015
-664,247	196,865	-0,095	-0,107
-663,232	-200,000	0,017	0,101
-662,218	-200,000	-0,005	-0,066
-661,203	-192,600	-0,118	0,001
-660,189	127,803	-0,028	0,026
-659,174	800,000	0,029	-0,070
-658,159	-44,062	-0,110	-0,041
-657,145	238,989	0,070	-0,087
-656,130	-200,000	-0,013	0,066
-655,116	185,625	-0,035	0,038
-654,101	-118,412	0,037	0,005
-653,086	27,050	-0,060	-0,037
-652,072	19,309	-0,031	-0,019
-651,057	-98,285	-0,040	-0,008
-650,043	-200,000	0,006	-0,040
-649,028	-76,903	0,057	-0,015
-648,014	42,694	-0,011	-0,008
-646,999	-200,000	0,043	0,214
-645,984	158,781	0,038	0,040
-644,970	-200,000	-0,004	-0,094
-643,955	-200,000	-0,011	-0,186
-642,941	510,764	-0,097	-0,168
-641,926	77,627	-0,028	0,022
-640,911	-200,000	0,004	0,077
-639,897	127,796	-0,036	-0,034
-638,882	-147,688	-0,014	-0,001
-637,868	-200,000	0,005	-0,029
-636,853	93,943	-0,031	0,026
-635,838	45,511	-0,053	0,036
-634,824	-200,000	0,002	0,079
-633,809	-200,000	-0,017	0,130
-632,795	462,787	-0,017	0,028
-631,780	800,000	0,041	0,089
-630,765	-185,555	0,135	-0,001
-629,751	225,783	-0,106	-0,127
-628,736	-107,721	-0,181	-0,029
-627,722	-200,000	-0,004	0,022
-626,707	435,769	0,029	-0,047
-625,692	-80,129	0,171	-0,042
-624,678	471,264	0,025	0,042
-623,663	-171,581	-0,012	-0,000
-622,649	800,000	0,019	0,050
-621,634	-200,000	0,019	-0,067
-620,619	542,368	-0,086	0,153
-619,605	800,000	0,033	0,101
-618,590	112,941	-0,098	0,088
-617,576	-80,421	0,108	-0,027
-616,561	307,289	-0,033	-0,045
-615,546	509,862	-0,036	-0,062
-614,532	-149,888	-0,115	-0,007
-613,517	400,171	0,046	0,072
-612,503	675,888	-0,011	-0,022
-611,488	-97,013	0,080	0,015
-610,474	-45,004	0,103	0,038
-609,459	-129,506	-0,015	0,002
-608,444	-38,267	0,077	-0,030
-607,430	-130,415	-0,129	-0,013
-606,415	-200,000	-0,010	0,140
-605,401	-29,458	0,156	0,066
-604,386	-23,065	-0,113	0,050
-603,371	800,000	-0,051	0,126
-602,357	86,174	-0,051	-0,042
-601,342	800,000	-0,017	-0,051
-600,328	-33,736	-0,103	-0,042
-599,313	-20,430	-0,088	-0,040
-598,298	364,777	-0,022	0,032
-597,284	-18,008	-0,031	-0,014
-596,269	-200,000	-0,004	-0,030
-595,255	-200,000	-0,003	0,062
-594,240	79,807	-0,032	-0,026
-593,225	-176,376	-0,088	0,002
-592,211	19,770	0,090	0,053
-591,196	-200,000	0,006	-0,096
-590,182	44,881	0,065	0,044
-589,167	175,576	0,061	0,066
-588,152	800,000	0,009	-0,019
-587,138	-133,775	-0,040	-0,004
-586,123	201,172	-0,022	-0,025
-585,109	-97,358	-0,049	0,009
-584,094	59,453	-0,054	-0,039
-583,079	-200,000	0,005	0,034
-582,065	-200,000	0,019	-0,128
-581,050	800,000	-0,039	0,086
-580,036	-78,388	0,089	0,022
-579,021	389,172	0,012	0,018
-578,006	118,135	-0,038	-0,035
-576,992	-200,000	-0,005	-0,051
-575,977	-42,918	0,090	-0,034
-574,963	-42,451	0,065	-0,024
-573,948	800,000	-0,024	-0,078
-572,934	-200,000	0,020	-0,068
-571,919	660,823	0,007	-0,013
-570,904	-86,391	0,087	0,020
-569,890	177,030	-0,053	-0,057
-568,875	-6,227	-0,011	0,005
-567,861	368,671	0,013	0,020
-566,846	294,934	0,114	-0,154
-565,831	50,806	-0,055	-0,039
-564,817	-110,332	-0,007	0,001
-563,802	800,000	-0,041	-0,108
-562,788	196,295	-0,022	-0,025
-561,773	-120,112	-0,059	0,007
-560,758	463,353	0,048	0,079
-559,744	-100,478	-0,117	0,021
-558,729	-200,000	0,010	-0,035
-557,715	-200,000	0,023	0,000
-556,700	341,810	0,036	-0,053
-555,685	301,225	-0,034	-0,047
-554,671	6,878	0,094	0,052
-553,656	800,000	0,008	0,023
-552,642	0,511	0,076	0,040
-551,627	145,443	-0,130	0,129
-550,612	105,529	-0,061	-0,053
-549,598	177,017	0,040	-0,043
-548,583	-51,985	-0,061	0,021
-547,569	-200,000	0,012	0,042
-546,554	-118,502	0,176	-0,023
-545,539	-200,000	0,010	0,070
-544,525	57,382	0,078	0,056
-543,510	-42,043	-0,086	-0,032
-542,496	131,157	-0,063	0,060
-541,481	800,000	0,027	0,059
-540,466	540,596	-0,094	-0,167
-539,452	238,240	0,111	-0,136
-538,437	241,122	0,049	0,060
-537,423	464,821	0,034	-0,056
-536,408	-92,050	0,122	-0,025
-535,393	218,869	0,054	0,064
-534,379	603,107	0,069	-0,127
-533,364	-200,000	0,005	0,024
-532,350	36,882	0,068	-0,044
-531,335	-19,174	0,100	0,045
-530,321	800,000	-0,064	-0,169
-529,306	78,887	-0,031	-0,025
-528,291	-131,512	-0,161	0,015
-527,277	-200,000	0,005	-0,049
-526,262	-200,000	0,041	-0,147
-525,248	-45,269	0,098	0,036
-524,233	800,000	0,015	0,032
-523,218	800,000	0,025	0,075
-522,204	-200,000	-0,018	0,078
-521,189	-200,000	-0,016	0,095
-520,175	595,796	0,037	-0,068
-519,160	412,637	-0,032	-0,050
-518,145	-200,000	-0,040	0,143
-517,131	-194,250	0,050	-0,000
-516,116	352,994	0,074	0,108
-515,102	-111,090	-0,101	0,015
-514,087	800,000	-0,036	-0,111
-513,072	257,766	-0,017	-0,022
-512,058	800,000	0,019	0,040
-511,043	48,465	-0,062	0,042
-510,029	800,000	0,014	-0,039
-509,014	77,215	-0,076	-0,060
-507,999	-10,655	0,098	0,048
-506,985	190,189	-0,047	0,052
-505,970	206,169	-0,066	-0,076
-504,956	149,729	0,096	-0,096
-503,941	-115,342	-0,048	-0,007
-502,926	55,717	0,138	-0,099
-501,912	-4,767	0,079	0,040
-500,897	800,000	-0,029	0,071
-499,883	332,196	-0,047	0,068
-498,868	185,105	0,056	0,062
-497,853	56,329	-0,027	-0,020
-496,839	-129,761	0,150	0,015
-495,824	800,000	-0,006	-0,015
-494,810	327,863	0,021	0,029
-493,795	84,679	-0,107	0,087
-492,781	800,000	0,010	-0,022
-491,766	-27,207	-0,133	0,057
-490,751	122,677	-0,046	-0,043
-489,737	272,139	0,127	-0,165
-488,722	800,000	0,043	0,108
-487,708	15,182	0,024	-0,014
-486,693	115,082	-0,110	0,099
-485,678	-52,158	-0,044	-0,015
-484,664	-200,000	-0,043	-0,175
-483,649	630,472	-0,011	-0,021
-482,635	-110,547	0,082	-0,012
-481,620	-200,000	-0,038	0,130
-480,605	-60,865	0,100	0,031
-479,591	3,009	0,125	0,067
-478,576	-200,000	-0,004	0,037
-477,562	340,509	0,056	-0,081
-476,547	295,273	-0,095	-0,128
-475,532	-200,000	0,017	0,085
-474,518	-200,000	-0,015	0,056
-473,503	19,718	0,116	0,068
-472,489	-29,931	-0,086	-0,036
-471,474	79,716	-0,063	0,050
-470,459	185,506	-0,055	-0,060
-469,445	-23,127	-0,090	-0,040
-468,430	256,668	0,067	-0,086
-467,416	-200,000	0,004	-0,096
-466,401	235,231	0,075	0,092
-465,386	285,886	0,042	0,056
-464,372	67,293	0,098	-0,073
-463,357	22,191	-0,033	-0,020
-462,343	-87,897	-0,078	0,017
-461,328	70,558	-0,054	-0,041
-460,313	773,936	-0,023	-0,046
-459,299	430,858	-0,042	-0,067
-458,284	518,149	-0,037	0,064
-457,270	-193,048	-0,055	0,000
-456,255	451,825	0,064	-0,105
-455,241	-48,290	-0,100	-0,035
-454,226	-30,782	0,052	-0,022
-453,211	202,701	0,042	-0,047
-452,197	77,765	0,123	0,097
-451,182	367,352	0,073	-0,109
-450,168	-60,600	0,061	-0,019
-449,153	239,365	-0,023	-0,028
-448,138	-200,000	-0,010	0,049
-447,124	176,008	0,056	0,060
-446,109	307,779	-0,032	-0,045
-445,095	-93,150	0,131	0,027
-444,080	-200,000	-0,003	0,044
-443,065	379,557	-0,081	0,122
-442,051	92,393	0,072	-0,060
-441,036	-141,418	-0,116	0,009
-440,022	74,906	-0,087	-0,067
-439,007	-0,423	0,067	-0,035
-437,992	399,853	-0,067	0,104
-436,978	-189,672	0,095	0,001
-435,963	18,880	-0,011	-0,006
-434,949	20,017	-0,121	0,071
-433,934	-74,049	-0,072	0,019
-432,919	-102,793	-0,100	0,017
-431,905	-150,268	0,087	0,005
-430,890	-73,983	0,103	0,027
-429,876	35,057	-0,089	-0,057
-428,861	-17,524	-0,079	-0,036
-427,846	-49,465	-0,080	-0,028
-426,832	-200,000	-0,004	-0,101
-425,817	-200,000	0,031	-0,162
-424,803	-200,000	0,010	-0,123
-423,788	711,829	0,047	0,092
-422,773	800,000	-0,053	0,119
-421,759	416,624	0,015	0,024
-420,744	26,271	-0,047	-0,029
-419,730	-200,000	0,021	-0,157
-418,715	-200,000	-0,003	-0,019
-417,701	369,170	0,058	-0,087
-416,686	91,094	0,099	-0,082
-415,671	124,922	0,057	0,053
-414,657	450,587	-0,064	0,104
-413,642	-200,000	0,002	0,107
-412,628	30,214	-0,039	-0,024
-411,613	-200,000	-0,094	0,000
-410,598	-116,319	-0,054	-0,007
-409,584	-9,583	-0,215	0,105
-408,569	-6,022	0,025	0,013
-407,555	-79,138	-0,046	-0,011
-406,540	-127,370	-0,129	-0,014
-405,525	-23,182	-0,094	0,041
-404,511	-200,000	-0,017	-0,104
-403,496	-187,481	0,060	0,001
-402,482	800,000	0,040	0,101
-401,467	96,581	0,085	-0,072
-400,452	32,632	0,017	-0,011
-399,438	-72,461	0,066	0,018
-398,423	-113,938	0,147	-0,021
-397,409	-200,000	0,015	0,060
-396,394	-200,000	0,033	0,192
-395,379	-127,094	0,085	0,009
-394,365	526,036	0,047	0,082
-393,350	800,000	-0,024	0,065
-392,336	457,567	0,044	0,072
-391,321	144,175	-0,037	0,036
-390,306	-125,399	-0,011	0,001
-389,292	73,098	-0,016	-0,012
-388,277	-1,306	0,081	0,042
-387,263	-200,000	0,001	-0,016
-386,248	126,249	-0,041	0,038
-385,233	-200,000	-0,004	0,106
-384,219	151,781	0,144	0,145
-383,204	800,000	-0,050	-0,120
-382,190	134,805	-0,098	-0,094
-381,175	-200,000	0,006	0,074
-380,160	-111,427	-0,093	0,014
-379,146	-97,170	0,069	-0,013
-378,131	-132,359	0,059	0,006
-377,117	145,754	0,059	-0,058
-376,102	-200,000	0,015	0,074
-375,088	-104,571	-0,056	-0,009
-374,073	800,000	-0,032	-0,090
-373,058	-52,858	0,101	-0,034
-372,044	800,000	0,068	0,148
-371,029	-200,000	-0,009	0,044
-370,015	800,000	-0,083	-0,181
-369,000	60,535	0,061	0,044
-367,985	71,693	-0,152	-0,116
-366,971	228,917	0,047	-0,056
-365,956	800,000	-0,040	0,126
-364,942	275,470	-0,010	-0,013
-363,927	-200,000	0,000	0,061
-362,912	73,918	0,071	0,055
-361,898	-179,281	-0,066	-0,001
-360,883	-200,000	0,005	-0,066
-359,869	-95,500	-0,027	-0,005
-358,854	-50,635	-0,078	-0,027
-357,839	-56,526	0,084	0,027
-356,825	-200,000	0,023	0,084
-355,810	34,122	-0,070	-0,045
-354,796	171,993	-0,107	-0,113
-353,781	88,846	-0,015	0,012
-352,766	800,000	-0,039	-0,088
-351,752	477,234	-0,056	0,094
-350,737	334,545	0,139	0,198
-349,723	-109,110	0,090	0,014
-348,708	43,756	-0,056	-0,038
-347,693	-55,657	-0,109	-0,036
-346,679	800,000	-0,062	-0,179
-345,664	125,787	-0,103	-0,095
-344,650	-200,000	-0,030	-0,153
-343,635	800,000	-0,034	0,089
-342,620	-119,983	0,105	0,013
-341,606	-190,634	0,053	-0,000
-340,591	65,574	0,052	0,038
-339,577	518,602	-0,053	0,092
-338,562	-130,492	-0,038	-0,004
-337,548	-128,340	-0,165	-0,017
-336,533	-200,000	-0,010	0,064
-335,518	-39,171	0,197	0,076
-334,504	620,355	0,028	0,051
-333,489	-200,000	0,023	0,106
-332,475	136,041	0,076	-0,073
-331,460	37,867	-0,186	0,121
-330,445	154,322	-0,081	-0,081
-329,431	-165,572	-0,120	-0,004
-328,416	-200,000	0,005	0,019
-327,402	-105,114	0,079	0,013
-326,387	173,488	-0,085	0,089
-325,372	-200,000	0,007	-0,129
-324,358	494,149	-0,056	-0,095
-323,343	-44,258	0,055	-0,020
-322,329	226,781	-0,012	0,014
-321,314	13,214	-0,071	-0,040
-320,299	-65,901	0,053	-0,015
-319,285	-52,243	-0,062	-0,021
-318,270	-200,000	-0,008	-0,158
-317,256	58,980	-0,040	0,029
-316,241	207,235	-0,043	-0,049
-315,226	710,292	-0,030	-0,059
-314,212	800,000	0,065	0,188
-313,197	800,000	-0,009	0,029
-312,183	140,531	0,158	0,153
-311,168	59,795	-0,053	0,039
-310,153	-200,000	0,003	-0,110
-309,139	230,349	0,107	-0,129
-308,124	-45,154	0,129	0,047
-307,110	-200,000	0,016	0,060
-306,095	-27,161	0,093	-0,040
-305,080	34,554	-0,062	0,040
-304,066	-146,797	0,083	-0,005
-303,051	-146,273	-0,041	0,003
-302,037	10,701	-0,134	-0,074
-301,022	217,184	0,047	0,055
-300,008	666,143	0,065	-0,124
-298,993	800,000	-0,012	0,037
-297,978	-200,000	0,011	0,125
-296,964	800,000	0,027	0,060
-295,949	104,429	-0,032	0,028
-294,935	687,178	-0,060	-0,116
-293,920	323,849	0,031	0,043
-292,905	529,265	0,038	0,066
-291,891	-69,413	-0,037	0,010
-290,876	14,867	-0,080	0,046
-289,862	292,911	-0,030	0,040
-288,847	-125,153	0,052	-0,006
-287,832	-200,000	-0,002	0,051
-286,818	130,560	0,023	-0,022
-285,803	-29,884	-0,073	0,030
-284,789	36,725	0,090	-0,058
-283,774	230,280	0,018	0,022
-282,759	-13,052	-0,073	0,035
-281,745	-65,207	-0,040	0,012
-280,730	525,539	-0,072	-0,124
-279,716	-39,299	-0,027	0,010
-278,701	500,998	0,029	-0,049
-277,686	-200,000	-0,008	0,212
-276,672	353,842	0,037	-0,054
-275,657	25,177	-0,019	-0,011
-274,643	413,677	-0,026	-0,040
-273,628	745,895	0,033	-0,065
-272,613	-71,953	-0,131	-0,035
-271,599	800,000	-0,037	0,101
-270,584	17,112	-0,027	-0,015
-269,570	68,619	0,112	0,084
-268,555	458,454	-0,009	-0,015
-267,540	-47,353	-0,095	-0,034
-266,526	-127,688	-0,029	0,003
-265,511	81,207	0,067	0,053
-264,497	266,264	0,031	-0,039
-263,482	-200,000	0,018	0,111
-262,467	-84,532	0,054	-0,012
-261,453	-108,640	-0,124	-0,019
-260,438	330,915	0,055	-0,077
-259,424	-52,926	-0,042	-0,014
-258,409	747,143	0,017	-0,034
-257,395	3,624	0,075	0,040
-256,380	-98,426	0,126	-0,023
-255,365	-31,593	0,109	0,045
-254,351	38,898	0,114	-0,074
-253,336	-200,000	0,015	-0,172
-252,322	262,272	0,036	-0,046
-251,307	-200,000	-0,003	-0,049
-250,292	-200,000	-0,003	-0,039
-249,278	85,316	0,032	-0,025
-248,263	543,435	0,026	0,046
-247,249	595,208	-0,053	0,096
-246,234	309,708	0,058	0,079
-245,219	800,000	-0,035	-0,103
-244,205	-200,000	-0,012	-0,059
-243,190	486,537	-0,014	-0,024
-242,176	-13,174	0,102	0,048
-241,161	800,000	-0,018	0,039
-240,146	-102,804	0,154	-0,026
-239,132	-200,000	-0,010	-0,062
-238,117	-200,000	0,007	-0,179
-237,103	-200,000	-0,009	-0,090
-236,088	283,080	0,068	0,090
-235,073	-103,014	0,123	0,021
-234,059	-200,000	0,021	0,073
-233,044	-200,000	-0,005	0,097
-232,030	53,147	-0,131	-0,092
-231,015	-55,438	-0,163	-0,053
-230,000	127,184	-0,063	-0,058
-228,986	370,087	0,103	-0,153
-227,971	367,302	0,071	-0,106
-226,957	171,770	-0,045	0,047
-225,942	-200,000	0,025	0,139
-224,927	-41,881	0,082	0,031
-223,913	169,417	-0,041	0,043
-222,898	715,359	-0,028	0,055
-221,884	-200,000	0,001	0,036
-220,869	-200,000	0,006	0,060
-219,855	172,559	0,050	-0,052
-218,840	-31,338	0,089	0,036
-217,825	-33,324	0,093	0,037
-216,811	-39,541	-0,135	-0,051
-215,796	-200,000	-0,016	-0,097
-214,782	-200,000	0,001	0,060
-213,767	-11,962	0,093	0,044
-212,752	800,000	0,008	0,021
-211,738	-200,000	-0,014	-0,094
-210,723	-185,204	-0,095	-0,001
-209,709	-55,082	0,052	-0,017
-208,694	124,514	-0,068	0,062
-207,679	-200,000	-0,012	0,097
-206,665	-147,360	-0,097	-0,006
-205,650	222,016	0,042	-0,050
-204,636	538,974	-0,050	-0,087
-203,621	7,156	-0,044	0,024
-202,606	253,347	0,063	-0,079
-201,592	800,000	0,044	-0,127
-200,577	800,000	0,038	-0,103
-199,563	-131,127	-0,113	0,011
-198,548	156,532	0,090	0,091
-197,533	-106,716	0,119	0,019
-196,519	800,000	-0,028	-0,060
-195,504	-200,000	0,007	0,108
-194,490	-200,000	0,006	-0,037
-193,475	308,005	-0,069	0,094
-192,460	316,924	0,055	-0,077
-191,446	-128,699	-0,058	-0,006
-190,431	-200,000	0,011	-0,053
-189,417	324,297	0,119	-0,166
-188,402	-118,063	0,030	0,004
-187,387	-110,647	-0,129	-0,019
-186,373	-7,784	-0,069	0,034
-185,358	-200,000	-0,018	0,120
-184,344	-55,294	0,095	-0,031
-183,329	520,292	0,034	0,059
-182,315	389,875	0,039	-0,059
-181,300	800,000	0,029	-0,083
-180,285	-46,670	-0,078	0,028
-179,271	-200,000	-0,001	0,116
-178,256	800,000	-0,017	-0,042
-177,242	486,556	0,073	0,122
-176,227	-200,000	0,003	0,115
-175,212	800,000	-0,071	0,215
-174,198	800,000	-0,041	0,132
-173,183	713,083	-0,056	-0,109
-172,169	-200,000	0,017	-0,059
-171,154	-18,282	0,036	-0,016
-170,139	800,000	0,023	-0,062
-169,125	63,022	0,045	0,033
-168,110	51,020	-0,067	0,046
-167,096	-125,671	-0,047	0,005
-166,081	-95,363	0,081	-0,016
-165,066	444,497	-0,017	-0,027
-164,052	12,594	-0,046	0,026
-163,037	340,303	-0,030	-0,043
-162,023	-144,953	0,069	-0,005
-161,008	4,375	-0,097	-0,052
-159,993	-122,642	-0,052	-0,006
-158,979	-200,000	-0,025	0,096
-157,964	109,638	-0,003	0,003
-156,950	97,070	-0,153	-0,127
-155,935	-93,147	0,009	0,002
-154,920	-200,000	0,009	0,081
-153,906	-200,000	0,000	0,030
-152,891	433,599	0,027	0,042
-151,877	-137,825	0,077	0,006
-150,862	17,819	-0,104	-0,060
-149,847	800,000	-0,060	-0,142
-148,833	91,360	0,072	-0,059
-147,818	-200,000	-0,002	0,072
-146,804	79,640	-0,034	-0,027
-145,789	-40,183	-0,104	0,039
-144,775	296,970	0,041	-0,055
-143,760	227,273	0,080	-0,095
-142,745	479,741	-0,083	0,137
-141,731	-200,000	0,003	-0,033
-140,716	800,000	-0,035	-0,084
-139,702	-70,845	-0,068	-0,018
-138,687	337,570	0,030	0,043
-137,672	800,000	0,009	0,028
-136,658	454,493	-0,074	-0,120
-135,643	-200,000	-0,028	0,096
-134,629	-200,000	-0,018	-0,081
-133,614	201,423	0,043	0,048
-132,599	-62,075	0,008	0,003
-131,585	-200,000	0,005	-0,044
-130,570	-200,000	-0,007	-0,034
-129,556	24,480	0,070	0,042
-128,541	-70,773	-0,019	-0,005
-127,526	46,775	0,120	0,081
-126,512	262,912	0,091	0,115
-125,497	270,711	0,054	0,070
-124,483	-8,501	0,035	-0,017
-123,468	183,569	-0,045	-0,049
-122,453	183,086	0,033	0,036
-121,439	403,266	0,021	0,032
-120,424	-200,000	-0,005	0,111
-119,410	28,914	-0,110	0,068
-118,395	-200,000	0,003	0,010
-117,380	-200,000	-0,017	0,108
-116,366	-200,000	0,007	0,092
-115,351	800,000	0,002	-0,008
-114,337	221,959	-0,057	0,066
-113,322	343,103	0,006	0,008
-112,307	39,635	0,133	0,087
-111,293	-200,000	0,029	0,168
-110,278	29,507	-0,012	-0,007
-109,264	-200,000	0,032	-0,117
-108,249	32,602	-0,123	-0,077
-107,234	800,000	-0,038	-0,095
-106,220	-172,947	-0,043	-0,001
-105,205	-48,704	-0,016	0,006
-104,191	-200,000	0,028	0,163
-103,176	26,468	0,067	0,041
-102,162	-13,970	0,056	0,026
-101,147	-38,270	-0,043	-0,016
-100,132	-200,000	0,027	0,109
-99,118	-76,951	0,130	-0,033
-98,103	-200,000	0,021	-0,070
-97,089	234,960	-0,071	0,086
-96,074	0,687	-0,017	-0,009
-95,059	238,619	0,105	0,126
-94,045	64,369	-0,175	0,128
-93,030	82,217	0,121	0,096
-92,016	800,000	0,080	-0,172
-91,001	-200,000	-0,010	-0,067
-89,986	-27,404	0,127	-0,054
-88,972	437,360	0,022	0,035
-87,957	49,849	0,105	0,071
-86,943	-65,726	0,043	0,012
-85,928	622,558	-0,022	-0,041
-84,913	-200,000	-0,017	-0,100
-83,899	-170,598	0,172	0,004
-82,884	-104,654	0,024	0,004
-81,870	-7,006	0,076	0,037
-80,855	800,000	0,052	-0,162
-79,840	-78,869	0,124	-0,030
-78,826	76,261	-0,058	-0,045
-77,811	60,071	-0,077	-0,055
-76,797	800,000	-0,043	0,094
-75,782	-3,206	-0,100	-0,050
-74,767	-136,824	0,178	-0,015
-73,753	168,498	-0,034	-0,035
-72,738	-200,000	-0,010	0,072
-71,724	439,340	-0,018	0,029
-70,709	183,455	-0,048	-0,052
-69,694	800,000	0,013	-0,040
-68,680	199,096	-0,021	0,024
-67,665	800,000	0,031	-0,071
-66,651	-132,870	0,067	0,006
-65,636	800,000	-0,024	-0,067
-64,622	800,000	0,033	-0,099
-63,607	-200,000	-0,000	-0,045
-62,592	-2,423	-0,062	-0,032
-61,578	96,985	-0,031	0,026
-60,563	38,620	0,109	0,070
-59,549	252,491	0,120	0,148
-58,534	-58,426	-1,110	0,348
-57,519	553,259	-0,990	-1,732
-56,505	-200,000	-0,754	-4,231
-55,490	172,256	0,538	-0,562
-54,476	800,000	4,680	11,600
-53,461	-200,000	11,859	226,753
-52,446	-200,000	674,909	2195,454
-51,432	589,672	1621,419	2909,771
-50,417	124,618	1650,575	1505,964
-49,403	78,259	1306,602	1010,189
-48,388	41,495	1038,812	680,293
-47,373	26,563	994,453	601,724
-46,359	25,642	984,711	592,755
-45,344	24,947	980,431	587,860
-44,330	24,822	978,900	586,508
-43,315	24,784	977,218	585,353
-42,300	24,718	976,359	584,595
-41,286	24,745	975,485	584,137
-40,271	24,865	974,055	583,653
-39,257	24,738	973,458	582,855
-38,242	24,744	972,609	582,342
-37,227	24,728	971,918	581,854
-36,213	24,740	970,821	581,215
-35,198	24,692	969,830	580,441
-34,184	24,727	969,352	580,245
-33,169	24,611	968,451	579,305
-32,154	24,764	967,131	578,992
-31,140	24,747	966,253	578,388
-30,125	24,787	965,563	578,081
-29,111	24,709	964,722	577,303
-28,096	24,680	964,059	576,788
-27,082	24,711	963,591	576,584
-26,067	24,757	962,612	576,124
-25,052	24,696	961,919	575,489
-24,038	24,706	961,246	575,097
-23,023	24,713	960,694	574,767
-22,009	24,801	959,788	574,486
-20,994	24,798	959,262	574,139
-19,979	24,770	958,576	573,615
-18,965	24,751	957,932	573,146
-17,950	24,723	957,275	572,640
-16,936	24,751	956,453	572,214
-15,921	24,627	955,681	571,331
-14,906	24,575	955,285	570,906
-13,892	24,615	954,520	570,554
-12,877	24,589	953,919	570,089
-11,863	24,560	953,421	569,675
-10,848	24,619	952,672	569,396
-9,833	24,674	952,274	569,311
-8,819	24,692	951,552	568,915
-7,804	24,588	951,094	568,286
-6,790	24,685	950,255	568,070
-5,775	24,678	949,803	567,756
-4,760	24,622	949,250	567,224
-3,746	24,642	948,650	566,905
-2,731	24,515	947,873	566,013
-1,717	24,413	947,269	565,305
-0,702	24,466	946,560	565,029
0,313	24,261	945,943	564,862
1,327	26,797	943,410	571,350
2,342	34,879	823,580	520,993
3,356	31,158	518,723	321,674
4,371	6,885	378,375	203,523
5,386	3,687	360,621	190,003
6,400	2,267	354,447	185,006
7,415	1,279	351,573	182,295
8,429	0,946	350,101	181,116
9,444	0,893	349,080	180,508
10,459	0,886	348,342	180,101
11,473	0,811	347,776	179,703
12,488	1,186	347,220	179,847
13,502	1,211	346,623	179,552
14,517	0,952	346,089	178,951
15,531	0,596	345,455	178,185
16,546	0,451	345,060	177,794
17,561	0,651	344,566	177,760
18,575	0,670	344,209	177,582
19,590	0,546	343,656	177,134
20,604	0,562	343,420	177,017
21,619	0,668	343,005	176,911
22,634	0,583	342,738	176,658
23,648	0,539	342,313	176,371
24,663	0,581	341,964	176,225
25,677	0,610	341,681	176,097
26,692	0,476	341,388	175,773
27,707	0,553	341,248	175,776
28,721	0,624	340,723	175,574
29,736	0,531	340,524	175,346
30,750	0,574	340,127	175,177
31,765	0,393	339,876	174,820
32,780	0,491	339,617	174,786
33,794	0,619	339,247	174,728
34,809	0,530	338,894	174,427
35,823	0,405	338,695	174,164
36,838	0,588	338,375	174,197
37,853	0,447	338,147	173,900
38,867	0,477	337,811	173,747
39,882	0,597	337,605	173,765
40,896	0,506	337,334	173,505
41,911	0,678	336,965	173,498
42,926	0,491	336,766	173,164
43,940	0,443	336,483	172,947
44,955	0,523	336,265	172,912
45,969	0,384	335,873	172,535
46,984	0,232	335,533	172,171
47,999	-0,085	335,351	171,698
49,013	-0,225	335,026	171,354
50,028	-0,027	334,467	171,280
51,042	-0,281	334,495	170,988
52,057	-0,240	334,137	170,837
53,071	-0,169	333,852	170,758
54,086	-0,182	333,636	170,617
55,101	-0,036	333,348	170,622
56,115	0,092	333,272	170,713
57,130	0,535	333,157	171,145
58,144	0,687	333,050	171,247
59,159	0,749	332,883	171,217
60,174	0,799	332,487	171,055
61,188	0,723	332,174	170,793
62,203	0,800	331,763	170,653
63,217	0,627	331,731	170,425
64,232	0,785	331,468	170,454
65,247	0,974	331,396	170,615
66,261	0,748	330,938	170,109
67,276	0,414	330,631	169,558
68,290	0,219	330,275	169,140
69,305	0,226	329,969	168,977
70,320	0,183	329,770	168,811
71,334	0,514	329,559	169,061
72,349	0,681	329,479	169,193
73,363	0,768	329,221	169,144
74,378	0,810	328,930	169,026
75,393	0,775	328,605	168,804
76,407	0,526	328,476	168,444
77,422	0,670	328,229	168,464
78,436	0,818	327,810	168,399
79,451	0,847	327,682	168,350
80,466	0,589	327,203	167,802
81,480	0,304	326,980	167,354
82,495	0,357	326,772	167,292
83,509	0,430	326,308	167,121
84,524	0,354	326,152	166,941
85,539	0,098	325,821	166,471
86,553	0,266	325,648	166,555
87,568	0,380	325,504	166,593
88,582	0,456	325,265	166,541
89,597	0,396	324,994	166,321
90,611	0,462	324,856	166,308
91,626	0,558	324,735	166,338
92,641	0,577	324,388	166,167
93,655	0,502	324,241	165,994
94,670	0,467	324,032	165,833
95,684	0,448	323,848	165,703
96,699	0,621	323,589	165,747
97,714	0,210	323,443	165,204
98,728	0,237	323,091	165,039
99,743	0,091	322,755	164,692
100,757	0,093	322,508	164,553
101,772	0,147	322,258	164,470
102,787	0,311	322,111	164,560
103,801	0,566	321,685	164,608
104,816	0,571	321,712	164,613
105,830	0,510	321,482	164,414
106,845	0,668	321,291	164,474
107,860	0,715	320,986	164,354
108,874	0,575	320,700	164,041
109,889	0,647	320,482	163,993
110,903	0,609	320,264	163,826
111,918	0,469	319,873	163,458
112,933	0,407	319,832	163,355
113,947	0,474	319,696	163,345
114,962	0,596	319,383	163,303
115,976	0,480	319,275	163,107
116,991	0,551	318,874	162,964
118,006	0,594	318,804	162,961
119,020	0,639	318,598	162,890
120,035	0,549	318,613	162,785
121,049	0,794	318,250	162,850
122,064	0,590	318,278	162,629
123,079	0,524	317,871	162,335
124,093	0,593	317,479	162,196
125,108	0,232	317,213	161,655
126,122	0,217	316,691	161,358
127,137	0,169	316,379	161,134
128,151	0,146	316,441	161,126
129,166	0,126	316,327	161,032
130,181	0,265	315,980	160,991
131,195	0,179	315,655	160,718
132,210	0,421	315,606	160,939
133,224	0,538	315,456	160,974
134,239	0,680	315,218	160,989
135,254	0,597	314,949	160,750
136,268	0,422	314,765	160,454
137,283	0,236	314,527	160,120
138,297	0,093	314,023	159,696
139,312	0,011	313,907	159,535
140,327	0,462	313,772	159,933
141,341	0,732	313,660	160,150
142,356	1,015	313,664	160,439
143,370	0,889	313,465	160,188
144,385	0,905	313,262	160,087
145,400	0,834	313,048	159,889
146,414	0,799	312,626	159,622
147,429	0,981	312,350	159,659
148,443	0,954	312,162	159,521
149,458	0,892	312,190	159,456
150,473	0,925	311,878	159,316
151,487	0,781	311,696	159,056
152,502	0,942	311,383	159,053
153,516	0,844	311,110	158,796
154,531	0,932	310,967	158,802
155,546	0,959	310,648	158,652
156,560	0,733	310,542	158,347
157,575	0,724	310,257	158,178
158,589	0,743	310,008	158,057
159,604	0,837	309,880	158,076
160,619	0,902	309,680	158,029
161,633	0,647	309,400	157,604
162,648	0,869	309,244	157,743
163,662	0,950	308,992	157,686
164,677	0,863	308,803	157,484
165,692	0,977	308,718	157,545
166,706	1,086	308,525	157,547
167,721	0,937	308,105	157,163
168,735	0,714	308,002	156,863
169,750	1,012	307,916	157,117
170,764	0,989	307,845	157,043
171,779	1,120	307,552	157,016
172,794	1,029	307,447	156,853
173,808	0,986	306,981	156,557
174,823	0,358	306,686	155,740
175,837	0,345	306,391	155,563
176,852	0,784	306,344	155,980
177,867	0,978	306,451	156,222
178,881	1,143	306,061	156,181
179,896	1,075	305,959	156,044
180,910	1,155	305,744	156,003
181,925	0,887	305,527	155,601
182,940	1,106	305,278	155,687
183,954	1,005	305,136	155,497
184,969	1,032	304,843	155,362
185,983	0,983	304,727	155,237
186,998	1,089	304,326	155,129
188,013	1,177	304,172	155,127
189,027	0,997	304,256	154,971
190,042	1,041	304,033	154,888
191,056	1,212	303,660	154,860
192,071	1,240	303,560	154,824
193,086	1,272	303,341	154,731
194,100	1,314	303,160	154,669
195,115	1,333	302,735	154,457
196,129	1,058	302,583	154,085
197,144	1,199	302,387	154,115
198,159	1,221	302,296	154,078
199,173	1,206	302,042	153,919
200,188	1,411	301,890	154,037
201,202	1,153	301,489	153,556
202,217	0,375	301,207	152,607
203,232	0,455	300,853	152,495
204,246	0,796	300,882	152,843
205,261	1,049	300,709	152,998
206,275	1,106	300,568	152,970
207,290	1,178	300,470	152,980
208,304	1,097	300,179	152,737
209,319	1,215	300,018	152,761
210,334	1,099	299,810	152,524
211,348	1,121	299,574	152,412
212,363	1,048	299,408	152,240
213,377	1,045	299,279	152,158
214,392	1,081	299,017	152,047
215,407	0,956	298,809	151,802
216,421	0,779	298,513	151,460
217,436	0,638	298,374	151,233
218,450	0,771	298,101	151,216
219,465	1,065	297,965	151,429
220,480	1,056	297,813	151,329
221,494	1,031	297,623	151,194
222,509	0,993	297,481	151,071
223,523	1,199	297,202	151,122
224,538	1,303	297,004	151,112
225,553	1,141	296,933	150,899
226,567	1,274	296,782	150,943
227,582	1,162	296,651	150,750
228,596	1,210	296,427	150,671
229,611	1,497	296,059	150,757
230,626	1,271	295,976	150,476
231,640	0,817	295,647	149,843
232,655	0,393	295,167	149,164
233,669	0,278	294,994	148,949
234,684	0,430	294,734	148,956
235,699	0,518	294,717	149,021
236,713	0,554	294,555	148,962
237,728	0,687	294,547	149,077
238,742	1,016	294,287	149,258
239,757	1,049	294,287	149,278
240,772	1,156	294,091	149,271
241,786	1,182	293,642	149,055
242,801	0,768	293,541	148,581
243,815	0,645	293,382	148,366
244,830	0,807	293,263	148,453
245,844	0,708	292,962	148,189
246,859	0,872	292,882	148,297
247,874	0,848	292,701	148,169
248,888	0,660	292,441	147,839
249,903	1,110	292,404	148,250
250,917	1,106	292,304	148,182
251,932	1,253	292,032	148,175
252,947	2,157	292,143	149,107
253,961	1,969	291,871	148,770
254,976	2,097	291,985	148,941
255,990	3,473	292,282	150,429
257,005	4,076	292,406	151,072
258,020	4,589	292,427	151,572
259,034	4,540	291,942	151,259
260,049	4,341	291,756	150,955
261,063	4,042	291,654	150,596
262,078	4,450	291,631	150,970
263,093	4,986	291,566	151,447
264,107	4,858	291,382	151,213
265,122	4,885	291,290	151,178
266,136	5,105	291,066	151,262
267,151	5,310	290,649	151,231
268,166	5,067	290,556	150,934
269,180	4,793	290,374	150,559
270,195	4,822	290,250	150,509
271,209	4,843	290,164	150,472
272,224	4,853	289,764	150,261
273,239	4,757	289,520	150,027
274,253	4,826	289,397	150,017
275,268	5,353	289,484	150,559
276,282	5,137	289,226	150,203
277,297	5,152	288,992	150,083
278,312	5,465	288,918	150,333
279,326	5,105	288,648	149,832
280,341	4,988	288,461	149,609
281,355	4,787	288,167	149,249
282,370	4,651	287,923	148,978
283,384	4,643	287,797	148,893
284,399	4,768	287,588	148,891
285,414	4,736	287,450	148,775
286,428	4,697	287,206	148,598
287,443	4,541	286,843	148,247
288,457	4,549	286,675	148,155
289,472	4,593	286,459	148,073
290,487	4,466	286,347	147,880
291,501	4,526	286,257	147,877
292,516	4,197	285,967	147,400
293,530	4,253	285,847	147,378
294,545	4,615	285,532	147,548
295,560	4,593	285,484	147,490
296,574	4,281	285,163	147,013
297,589	4,531	285,051	147,181
298,603	4,945	285,070	147,571
299,618	4,987	284,909	147,515
300,633	4,958	284,541	147,283
301,647	4,579	284,453	146,865
302,662	4,761	284,342	146,968
303,676	4,539	284,227	146,684
304,691	4,484	283,702	146,348
305,706	4,174	283,574	145,975
306,720	4,194	283,414	145,899
307,735	3,942	283,292	145,585
308,749	4,398	283,124	145,916
309,764	4,610	282,850	145,963
310,779	4,440	282,667	145,695
311,793	4,188	282,396	145,304
312,808	4,257	282,391	145,354
313,822	4,426	282,076	145,338
314,837	4,396	281,983	145,248
315,852	4,086	281,716	144,806
316,866	4,189	281,564	144,813
317,881	4,353	281,472	144,906
318,895	4,513	281,175	144,891
319,910	4,174	280,902	144,419
320,925	4,141	280,737	144,290
321,939	4,300	280,632	144,373
322,954	4,510	280,594	144,537
323,968	4,640	280,412	144,551
324,983	4,632	280,272	144,459
325,997	4,680	279,877	144,287
327,012	4,478	279,869	144,082
328,027	4,620	279,759	144,145
329,041	4,467	279,488	143,850
330,056	4,597	279,364	143,894
331,070	4,437	279,139	143,617
332,085	4,345	278,979	143,436
333,100	4,521	278,681	143,433
334,114	4,431	278,498	143,243
335,129	4,341	278,276	143,033
336,143	4,499	278,251	143,154
337,158	4,701	278,095	143,247
338,173	4,544	277,945	143,012
339,187	4,517	277,713	142,855
340,202	4,454	277,676	142,765
341,216	4,480	277,476	142,673
342,231	4,627	277,129	142,618
343,246	4,464	277,039	142,409
344,260	4,516	276,926	142,385
345,275	4,695	276,814	142,480
346,289	5,012	276,641	142,670
347,304	4,792	276,470	142,367
348,319	4,615	276,250	142,079
349,333	4,529	275,910	141,812
350,348	4,856	275,942	142,116
351,362	4,816	275,721	141,953
352,377	4,883	275,451	141,863
353,392	4,807	275,461	141,785
354,406	4,817	275,376	141,738
355,421	190,959	1337,113	1414,170
356,435	154,307	1466,609	1414,346
