DTS Sentinel unit serial number:	SN410029Multiplexer serial number:	ORYXHardware model number:	OX2-SRSoftware version number:	ORYX F/W v4,00 Oryx Data Collector v3.7.2.0data status	okinstallation	B4 Nyhavnadifferential loss correction	single-endedforward channel	channel 2reverse channel	N/Adate	2023/12/19time	00:40:13forward acquisition time	300,00reverse acquisition time	0,00gamma	499,1914k internal	0,3123k external	0,3123temperature offset calibration	1,0000default loss term (dB/km)	0,3820temperature slope calibration	1,0000multiplexer offset coefficient	1,0000multiplexer slope coefficient	1,0000fibre end	0,00T internal ref (°C)	22,04T ext. ref 1 (°C)	6,48T ext. ref 2 (°C)	6,48length (m)	temperature (°C)	Stokes	anti-Stokes-744,400	800,000	0,061	-0,164
-743,385	-121,473	-0,269	0,033
-742,371	-49,486	0,114	-0,040
-741,356	159,612	-0,194	0,202
-740,342	-86,708	0,040	-0,009
-739,327	0,619	-0,280	0,149
-738,312	154,183	0,124	-0,127
-737,298	-70,642	-0,145	0,040
-736,283	511,645	0,058	-0,101
-735,269	-2,216	-0,248	0,130
-734,254	800,000	0,036	-0,079
-733,239	-134,315	-0,489	-0,044
-732,225	-135,572	0,091	-0,008
-731,210	-200,000	-0,002	-0,072
-730,196	374,713	0,019	-0,030
-729,181	-200,000	0,018	0,071
-728,167	11,872	-0,074	0,042
-727,152	-34,750	-0,017	-0,007
-726,137	-99,786	-0,061	0,011
-725,123	0,882	-0,097	-0,051
-724,108	-200,000	0,010	0,084
-723,094	-77,895	-0,080	-0,020
-722,079	131,405	-0,067	-0,064
-721,064	58,820	-0,014	-0,010
-720,050	-1,129	0,107	0,056
-719,035	-92,779	-0,160	-0,033
-718,021	353,231	-0,075	-0,111
-717,006	800,000	0,065	-0,136
-715,991	800,000	-0,066	-0,138
-714,977	70,778	-0,048	0,037
-713,962	-200,000	-0,024	-0,095
-712,948	-122,956	-0,126	-0,015
-711,933	44,499	-0,089	0,061
-710,918	248,190	0,073	-0,092
-709,904	-33,515	0,080	0,033
-708,889	800,000	-0,028	-0,066
-707,875	-68,697	-0,090	-0,026
-706,860	47,445	-0,057	-0,040
-705,845	-198,416	0,098	0,000
-704,831	-61,172	-0,059	0,019
-703,816	-64,875	-0,085	0,026
-702,802	-132,320	-0,063	0,006
-701,787	243,814	-0,081	-0,101
-700,772	94,484	-0,061	-0,052
-699,758	-86,583	0,055	0,012
-698,743	-85,679	0,046	0,010
-697,729	16,143	-0,122	-0,071
-696,714	323,701	0,056	0,079
-695,699	454,103	0,073	0,121
-694,685	-200,000	-0,007	-0,031
-693,670	-173,868	-0,084	0,002
-692,656	79,086	-0,106	-0,085
-691,641	-200,000	-0,000	-0,058
-690,627	-11,482	0,114	0,056
-689,612	-12,678	-0,158	0,076
-688,597	-200,000	0,030	-0,118
-687,583	-44,403	-0,073	0,027
-686,568	-200,000	0,020	-0,103
-685,554	198,675	0,088	-0,101
-684,539	-200,000	0,012	-0,110
-683,524	45,638	-0,030	0,021
-682,510	-5,986	-0,121	-0,061
-681,495	101,446	-0,106	-0,092
-680,481	800,000	0,020	0,050
-679,466	-54,417	-0,129	-0,043
-678,451	-200,000	0,033	-0,190
-677,437	-20,920	-0,052	-0,024
-676,422	236,163	-0,066	-0,081
-675,408	800,000	0,058	-0,140
-674,393	155,155	-0,046	-0,047
-673,378	-126,930	-0,066	0,007
-672,364	800,000	-0,030	-0,089
-671,349	300,509	-0,115	-0,158
-670,335	607,212	0,041	-0,076
-669,320	-144,476	-0,047	0,003
-668,305	-115,878	-0,155	0,021
-667,291	680,830	-0,014	0,028
-666,276	177,704	-0,050	0,054
-665,262	559,634	0,021	-0,038
-664,247	-200,000	0,014	-0,100
-663,232	-126,195	-0,048	-0,005
-662,218	-133,381	0,046	-0,004
-661,203	-200,000	-0,004	-0,064
-660,189	710,657	-0,022	0,043
-659,174	210,955	-0,027	0,032
-658,159	-69,720	-0,038	-0,011
-657,145	744,347	0,016	-0,033
-656,130	-200,000	0,018	-0,140
-655,116	238,298	0,020	0,025
-654,101	51,946	-0,115	0,081
-653,086	17,887	0,052	0,031
-652,072	-200,000	0,000	0,060
-651,057	-200,000	-0,010	0,102
-650,043	800,000	-0,022	-0,063
-649,028	800,000	-0,016	0,038
-648,014	-200,000	-0,019	-0,086
-646,999	209,789	-0,073	0,086
-645,984	4,002	0,099	-0,054
-644,970	42,167	-0,092	-0,062
-643,955	800,000	-0,041	0,107
-642,941	-200,000	-0,021	0,126
-641,926	680,548	-0,087	-0,169
-640,911	-200,000	0,000	-0,029
-639,897	45,310	0,050	0,034
-638,882	800,000	0,043	0,103
-637,868	88,259	-0,025	-0,021
-636,853	-16,622	-0,112	-0,053
-635,838	-78,888	-0,094	0,023
-634,824	800,000	0,028	0,068
-633,809	-0,471	0,066	-0,035
-632,795	72,197	-0,117	-0,091
-631,780	800,000	-0,045	-0,128
-630,765	439,452	-0,012	0,019
-629,751	-76,237	0,033	0,009
-628,736	-150,995	-0,020	-0,001
-627,722	-200,000	-0,017	-0,091
-626,707	-200,000	0,009	-0,056
-625,692	54,842	0,020	-0,014
-624,678	-200,000	-0,026	-0,150
-623,663	-200,000	-0,002	-0,085
-622,649	132,895	-0,068	-0,065
-621,634	-200,000	-0,019	-0,126
-620,619	-200,000	-0,005	0,042
-619,605	-25,548	0,116	-0,051
-618,590	-60,629	0,133	0,042
-617,576	-200,000	0,020	0,105
-616,561	-178,787	0,155	0,003
-615,546	-200,000	-0,011	0,053
-614,532	-96,445	-0,042	-0,008
-613,517	22,001	-0,073	-0,044
-612,503	-96,857	0,110	0,021
-611,488	-200,000	0,047	-0,164
-610,474	-72,573	0,069	0,019
-609,459	175,418	-0,100	0,107
-608,444	-51,623	-0,100	-0,034
-607,430	15,338	-0,032	-0,019
-606,415	366,428	-0,043	-0,065
-605,401	-200,000	0,012	0,052
-604,386	708,986	0,048	-0,095
-603,371	204,764	0,031	0,036
-602,357	212,503	-0,098	-0,114
-601,342	800,000	-0,039	0,084
-600,328	-200,000	0,005	-0,098
-599,313	800,000	0,030	0,083
-598,298	-200,000	-0,004	0,048
-597,284	800,000	0,037	-0,077
-596,269	-23,456	0,104	0,046
-595,255	-10,700	-0,141	0,069
-594,240	405,475	-0,041	-0,065
-593,225	-59,946	-0,076	0,024
-592,211	-34,798	-0,053	-0,022
-591,196	-43,615	0,100	0,037
-590,182	-90,940	0,084	0,018
-589,167	-96,003	-0,036	-0,007
-588,152	64,998	0,071	0,053
-587,138	420,822	-0,057	0,091
-586,123	47,750	-0,143	-0,099
-585,109	697,820	-0,035	0,068
-584,094	11,948	-0,052	0,029
-583,079	-139,727	0,099	-0,008
-582,065	-200,000	-0,005	-0,040
-581,050	800,000	0,055	0,170
-580,036	103,346	-0,082	-0,072
-579,021	-197,228	-0,110	0,001
-578,006	800,000	-0,018	-0,052
-576,992	-200,000	-0,003	-0,132
-575,977	160,385	0,093	0,096
-574,963	800,000	0,074	0,154
-573,948	-117,929	-0,073	0,010
-572,934	24,221	-0,053	-0,032
-571,919	163,571	0,091	-0,095
-570,904	-200,000	0,003	-0,117
-569,890	800,000	-0,053	-0,114
-568,875	-200,000	-0,019	0,108
-567,861	113,589	0,036	-0,032
-566,846	-10,251	0,048	0,024
-565,831	108,574	-0,075	-0,066
-564,817	-200,000	0,038	0,167
-563,802	768,784	-0,046	-0,092
-562,788	46,673	-0,084	-0,057
-561,773	-137,650	-0,090	-0,007
-560,758	-16,079	0,074	-0,035
-559,744	-200,000	-0,003	-0,035
-558,729	-67,476	0,017	0,005
-557,715	-134,521	0,107	-0,010
-556,700	49,477	-0,049	0,034
-555,685	201,386	-0,071	0,081
-554,671	689,723	0,053	0,103
-553,656	-99,493	0,130	0,024
-552,642	190,229	0,107	0,119
-551,627	-200,000	0,000	0,074
-550,612	48,706	-0,037	-0,025
-549,598	122,833	-0,030	-0,027
-548,583	128,532	0,142	-0,134
-547,569	339,910	-0,035	0,050
-546,554	393,882	0,048	-0,075
-545,539	56,490	0,044	0,032
-544,525	144,304	0,151	0,149
-543,510	-89,978	-0,090	0,019
-542,496	-154,242	0,095	-0,005
-541,481	87,839	0,054	0,044
-540,466	-21,940	0,083	0,037
-539,452	94,454	0,061	0,051
-538,437	-200,000	0,021	0,115
-537,423	200,587	-0,079	-0,090
-536,408	800,000	-0,036	-0,117
-535,393	-200,000	0,024	-0,142
-534,379	-200,000	0,010	0,076
-533,364	591,101	0,016	0,030
-532,350	8,273	0,085	0,047
-531,335	800,000	-0,017	0,054
-530,321	800,000	0,035	0,098
-529,306	139,853	-0,097	0,094
-528,291	800,000	0,061	-0,163
-527,277	701,410	0,104	-0,203
-526,262	-74,663	-0,091	-0,024
-525,248	3,846	-0,096	0,052
-524,233	117,636	0,055	0,050
-523,218	-107,520	-0,050	-0,008
-522,204	21,781	-0,124	0,074
-521,189	217,876	-0,044	0,052
-520,175	-70,018	-0,109	-0,030
-519,160	63,057	0,046	0,034
-518,145	-134,153	0,166	-0,015
-517,131	43,187	0,099	0,066
-516,116	-53,746	-0,103	0,035
-515,102	800,000	0,008	-0,021
-514,087	277,539	-0,037	-0,049
-513,072	74,891	-0,075	-0,058
-512,058	800,000	0,020	-0,051
-511,043	-200,000	0,025	-0,107
-510,029	800,000	0,072	-0,155
-509,014	-134,570	0,007	0,001
-507,999	274,865	-0,083	0,109
-506,985	-82,644	-0,088	-0,021
-505,970	67,222	0,074	-0,056
-504,956	128,832	-0,020	0,019
-503,941	-100,115	0,077	-0,014
-502,926	-40,142	0,074	0,028
-501,912	-113,350	-0,059	-0,008
-500,897	429,316	-0,040	0,064
-499,883	-12,259	-0,148	-0,071
-498,868	-158,296	0,025	0,001
-497,853	140,413	-0,050	0,049
-496,839	758,595	-0,020	0,040
-495,824	-200,000	0,018	0,097
-494,810	-200,000	0,025	0,153
-493,795	97,461	0,054	-0,046
-492,781	359,445	0,058	-0,086
-491,766	-74,317	-0,059	-0,016
-490,751	-41,911	0,045	0,017
-489,737	316,549	0,019	-0,026
-488,722	501,784	-0,055	0,094
-487,708	-200,000	0,012	0,111
-486,693	585,421	0,080	0,146
-485,678	-70,878	0,068	-0,019
-484,664	519,690	-0,059	-0,102
-483,649	190,390	-0,060	-0,067
-482,635	-26,017	0,115	-0,050
-481,620	-200,000	0,004	0,025
-480,605	800,000	-0,044	-0,097
-479,591	-22,135	0,104	-0,046
-478,576	195,172	-0,029	0,033
-477,562	-200,000	0,009	-0,043
-476,547	512,426	-0,019	-0,033
-475,532	79,003	0,091	0,072
-474,518	340,601	-0,039	-0,056
-473,503	163,157	-0,046	-0,048
-472,489	-200,000	-0,003	-0,129
-471,474	800,000	-0,047	-0,110
-470,459	-19,058	-0,050	-0,023
-469,445	-74,941	-0,059	-0,015
-468,430	189,010	0,065	0,071
-467,416	-200,000	0,006	0,033
-466,401	73,450	-0,081	0,062
-465,386	-34,758	-0,061	-0,024
-464,372	32,775	0,108	0,069
-463,357	-200,000	-0,010	0,136
-462,343	-91,102	0,060	0,013
-461,328	-200,000	-0,035	-0,221
-460,313	-200,000	-0,004	0,099
-459,299	-84,224	-0,112	0,026
-458,284	-54,464	0,075	-0,025
-457,270	-22,460	-0,069	0,031
-456,255	-200,000	0,008	-0,093
-455,241	800,000	0,028	-0,085
-454,226	-79,207	0,063	-0,016
-453,211	60,353	-0,062	0,045
-452,197	-119,954	0,079	-0,010
-451,182	334,942	0,050	0,072
-450,168	115,648	0,148	0,134
-449,153	19,383	-0,096	0,057
-448,138	59,954	-0,150	-0,109
-447,124	-124,926	0,060	0,007
-446,109	-200,000	-0,033	-0,126
-445,095	0,082	-0,045	-0,023
-444,080	800,000	-0,028	0,083
-443,065	228,018	-0,048	0,058
-442,051	-67,722	0,091	-0,026
-441,036	-200,000	-0,049	-0,207
-440,022	800,000	0,036	-0,094
-439,007	51,508	-0,092	0,064
-437,992	800,000	0,042	-0,118
-436,978	-200,000	0,006	0,147
-435,963	239,282	-0,075	0,092
-434,949	-64,814	0,030	0,009
-433,934	211,123	-0,102	-0,119
-432,919	-101,497	0,057	0,010
-431,905	-162,649	-0,089	-0,003
-430,890	1,261	0,074	0,039
-429,876	-53,811	0,078	-0,026
-428,861	800,000	0,046	-0,108
-427,846	-47,895	-0,064	0,023
-426,832	800,000	-0,045	-0,144
-425,817	18,701	0,078	-0,046
-424,803	22,581	0,122	-0,073
-423,788	189,118	0,043	0,047
-422,773	-105,128	-0,112	0,019
-421,759	-200,000	0,020	0,065
-420,744	-200,000	0,005	0,151
-419,730	-11,900	0,031	0,015
-418,715	-28,321	-0,079	0,034
-417,701	-200,000	0,003	-0,077
-416,686	-200,000	0,011	0,065
-415,671	-104,755	0,072	0,012
-414,657	-131,348	-0,061	-0,006
-413,642	28,634	-0,124	0,077
-412,628	-141,130	-0,128	0,009
-411,613	-68,837	-0,050	-0,014
-410,598	-101,101	0,081	-0,015
-409,584	580,123	0,013	-0,023
-408,569	248,398	-0,075	0,093
-407,555	-74,447	-0,057	-0,015
-406,540	119,947	0,106	-0,097
-405,525	800,000	0,014	-0,029
-404,511	-17,024	-0,037	-0,017
-403,496	423,635	-0,092	-0,145
-402,482	-200,000	0,027	-0,115
-401,467	-200,000	-0,007	-0,047
-400,452	56,087	0,176	0,126
-399,438	-200,000	-0,006	0,199
-398,423	188,859	-0,018	0,020
-397,409	-68,803	0,146	-0,041
-396,394	264,082	-0,076	0,098
-395,379	-66,670	-0,030	0,009
-394,365	-200,000	0,025	-0,087
-393,350	-200,000	-0,007	-0,142
-392,336	-85,369	0,100	0,023
-391,321	131,861	0,104	0,099
-390,306	-95,615	-0,115	0,022
-389,292	4,985	-0,089	0,048
-388,277	89,998	-0,124	0,102
-387,263	791,072	0,024	0,048
-386,248	-72,411	0,139	0,038
-385,233	391,681	-0,108	0,166
-384,219	95,202	-0,089	0,075
-383,204	74,612	-0,048	-0,037
-382,190	-176,471	-0,097	0,002
-381,175	27,784	-0,064	-0,040
-380,160	9,613	-0,106	-0,059
-379,146	436,594	0,019	-0,031
-378,131	-167,206	0,098	-0,003
-377,117	-122,566	-0,092	0,011
-376,102	555,930	-0,041	-0,073
-375,088	-87,424	0,067	0,015
-374,073	-200,000	-0,017	-0,076
-373,058	-150,302	0,079	0,004
-372,044	-200,000	0,026	0,161
-371,029	800,000	0,025	-0,073
-370,015	-200,000	0,038	0,188
-369,000	48,882	0,042	0,029
-367,985	-29,596	-0,113	0,047
-366,971	800,000	-0,014	-0,034
-365,956	-112,396	0,155	-0,022
-364,942	440,012	-0,075	0,121
-363,927	358,346	-0,126	0,186
-362,912	-30,048	0,181	0,075
-361,898	-174,306	-0,055	0,001
-360,883	-79,725	-0,141	0,035
-359,869	-133,207	0,064	-0,006
-358,854	306,792	0,096	0,131
-357,839	-16,701	0,078	-0,036
-356,825	-200,000	-0,010	0,035
-355,810	-9,241	-0,033	-0,016
-354,796	64,397	0,047	0,035
-353,781	-200,000	-0,007	0,097
-352,766	61,870	-0,081	-0,059
-351,752	462,109	-0,047	-0,077
-350,737	-200,000	0,037	0,169
-349,723	800,000	0,058	0,159
-348,708	364,003	-0,075	0,111
-347,693	238,104	-0,111	0,135
-346,679	-50,110	0,071	-0,025
-345,664	129,806	-0,026	0,024
-344,650	-200,000	0,023	-0,083
-343,635	42,848	0,065	-0,044
-342,620	45,638	0,066	-0,045
-341,606	-38,993	-0,088	-0,034
-340,591	800,000	-0,018	-0,056
-339,577	84,978	-0,016	0,013
-338,562	31,146	0,076	-0,048
-337,548	240,676	0,090	-0,110
-336,533	-200,000	0,016	0,112
-335,518	185,522	-0,055	0,060
-334,504	347,521	0,093	0,134
-333,489	512,218	0,046	-0,078
-332,475	-200,000	-0,014	0,074
-331,460	92,326	-0,069	-0,057
-330,445	-43,895	-0,080	-0,030
-329,431	800,000	0,029	-0,092
-328,416	-20,843	0,063	0,028
-327,402	-89,627	0,103	0,022
-326,387	-200,000	0,013	0,166
-325,372	-173,729	-0,088	-0,002
-324,358	-26,825	-0,097	-0,041
-323,343	1,451	-0,188	-0,099
-322,329	-99,271	-0,062	0,011
-321,314	800,000	0,041	-0,090
-320,299	-111,817	0,083	0,012
-319,285	800,000	-0,044	0,097
-318,270	-91,876	0,029	0,006
-317,256	-16,189	-0,047	-0,022
-316,241	223,029	-0,058	0,069
-315,226	66,889	0,071	0,053
-314,212	-5,886	-0,041	0,020
-313,197	-200,000	-0,004	0,023
-312,183	143,683	0,093	0,091
-311,168	153,464	-0,126	-0,127
-310,153	134,707	-0,117	-0,111
-309,139	235,199	-0,076	-0,093
-308,124	64,566	-0,035	-0,026
-307,110	-145,165	0,145	0,009
-306,095	41,828	0,082	0,054
-305,080	-122,503	-0,123	-0,015
-304,066	-200,000	0,006	-0,025
-303,051	321,302	0,028	-0,040
-302,037	-71,129	-0,009	0,002
-301,022	-200,000	-0,005	-0,044
-300,008	-200,000	-0,004	0,089
-298,993	-11,729	0,022	0,010
-297,978	144,668	-0,069	-0,068
-296,964	-25,508	0,017	0,007
-295,949	-200,000	-0,014	0,106
-294,935	-55,144	0,035	-0,011
-293,920	-33,302	0,158	0,064
-292,905	-8,635	-0,027	0,013
-291,891	-200,000	0,023	-0,088
-290,876	-18,247	0,137	0,063
-289,862	800,000	-0,042	0,109
-288,847	-200,000	0,030	-0,130
-287,832	800,000	0,043	0,090
-286,818	800,000	-0,031	0,063
-285,803	-145,852	-0,081	-0,005
-284,789	800,000	0,067	0,156
-283,774	108,473	0,056	-0,049
-282,759	69,339	0,046	-0,035
-281,745	-200,000	-0,019	-0,079
-280,730	363,465	-0,120	-0,178
-279,716	-200,000	0,020	-0,065
-278,701	-200,000	-0,021	-0,099
-277,686	800,000	0,063	0,130
-276,672	405,365	0,061	-0,094
-275,657	-200,000	0,013	0,124
-274,643	-200,000	-0,007	0,059
-273,628	-14,356	-0,096	0,045
-272,613	171,657	0,089	-0,093
-271,599	-200,000	0,002	-0,046
-270,584	142,828	-0,036	-0,035
-269,570	-76,873	0,064	0,016
-268,555	44,048	-0,064	0,043
-267,540	64,335	0,094	-0,069
-266,526	800,000	-0,056	-0,165
-265,511	594,222	0,021	0,038
-264,497	800,000	-0,039	0,079
-263,482	292,211	0,116	0,155
-262,467	-74,657	0,065	0,017
-261,453	-64,829	-0,114	0,034
-260,438	99,915	-0,040	0,034
-259,424	187,062	0,066	-0,072
-258,409	800,000	-0,069	-0,158
-257,395	73,657	-0,104	0,080
-256,380	-90,641	0,091	-0,019
-255,365	800,000	0,051	0,116
-254,351	-200,000	0,002	0,092
-253,336	83,715	0,010	0,008
-252,322	800,000	-0,050	-0,114
-251,307	8,003	0,086	-0,047
-250,292	142,756	-0,096	0,093
-249,278	-53,516	-0,063	0,021
-248,263	116,972	0,035	0,031
-247,249	-49,940	0,124	0,043
-246,234	123,685	-0,073	0,067
-245,219	295,081	-0,032	-0,043
-244,205	113,484	0,066	0,059
-243,190	-78,347	0,061	0,015
-242,176	185,025	0,131	0,142
-241,161	-63,957	0,054	-0,016
-240,146	255,350	-0,032	0,041
-239,132	69,577	-0,072	-0,054
-238,117	-70,176	0,138	0,038
-237,103	287,695	-0,086	0,114
-236,088	81,927	0,105	0,083
-235,073	364,812	-0,029	-0,042
-234,059	79,415	-0,055	0,043
-233,044	800,000	0,080	0,177
-232,030	596,805	-0,107	0,195
-231,015	179,822	0,037	-0,040
-230,000	173,934	-0,119	-0,126
-228,986	-177,042	-0,071	0,001
-227,971	-5,304	0,115	0,058
-226,957	-200,000	-0,024	-0,150
-225,942	-97,296	0,041	0,008
-224,927	44,509	0,073	-0,049
-223,913	-32,662	-0,012	0,005
-222,898	176,843	-0,095	0,102
-221,884	-89,937	-0,082	-0,017
-220,869	-125,497	-0,059	0,006
-219,855	-159,204	0,103	0,004
-218,840	-29,416	0,008	0,003
-217,825	-59,835	0,075	-0,023
-216,811	800,000	-0,025	0,059
-215,796	-119,935	-0,047	-0,006
-214,782	7,594	0,069	-0,037
-213,767	-200,000	-0,009	-0,066
-212,752	-200,000	-0,011	-0,197
-211,738	342,998	0,070	0,100
-210,723	232,540	0,083	0,100
-209,709	-200,000	0,004	0,101
-208,694	800,000	-0,033	-0,082
-207,679	-200,000	0,013	-0,126
-206,665	100,874	0,014	-0,012
-205,650	-11,535	-0,063	-0,030
-204,636	172,675	-0,103	0,108
-203,621	800,000	0,085	-0,210
-202,606	-10,287	-0,052	-0,025
-201,592	-125,449	-0,110	0,012
-200,577	-25,572	-0,021	0,009
-199,563	800,000	0,070	-0,151
-198,548	-200,000	-0,004	0,020
-197,533	-200,000	0,027	0,102
-196,519	38,379	-0,041	-0,027
-195,504	279,969	-0,058	-0,076
-194,490	-125,822	0,078	-0,008
-193,475	-42,643	0,017	-0,006
-192,460	543,980	0,029	-0,050
-191,446	67,621	0,036	0,027
-190,431	-200,000	-0,003	0,066
-189,417	687,518	0,051	-0,098
-188,402	16,826	-0,034	-0,020
-187,387	800,000	-0,009	-0,023
-186,373	562,442	-0,097	-0,173
-185,358	-40,061	0,061	-0,023
-184,344	110,532	-0,051	0,044
-183,329	319,162	-0,018	-0,025
-182,315	800,000	0,008	0,020
-181,300	-90,843	-0,012	-0,002
-180,285	128,558	0,083	-0,077
-179,271	-18,340	0,179	0,081
-178,256	28,987	-0,034	-0,021
-177,242	-133,597	0,160	-0,014
-176,227	-127,420	0,064	-0,007
-175,212	-51,877	0,076	0,026
-174,198	-69,488	-0,086	0,024
-173,183	237,861	0,109	-0,132
-172,169	800,000	-0,060	-0,144
-171,154	117,289	-0,024	-0,021
-170,139	-200,000	-0,000	-0,002
-169,125	-146,131	0,063	0,004
-168,110	-200,000	0,020	-0,111
-167,096	800,000	0,016	0,046
-166,081	800,000	-0,043	0,131
-165,066	-28,331	-0,145	-0,061
-164,052	-200,000	0,014	-0,094
-163,037	-83,684	-0,097	-0,022
-162,023	4,001	0,123	-0,065
-161,008	800,000	-0,048	0,130
-159,993	-33,930	-0,047	-0,019
-158,979	-47,852	-0,075	0,026
-157,964	16,570	-0,031	-0,018
-156,950	800,000	0,027	-0,059
-155,935	-200,000	0,023	-0,149
-154,920	800,000	-0,024	-0,070
-153,906	396,373	0,046	-0,070
-152,891	467,319	0,011	-0,018
-151,877	-73,359	-0,044	0,012
-150,862	312,193	-0,014	0,019
-149,847	800,000	-0,039	0,104
-148,833	739,501	-0,025	-0,049
-147,818	41,136	-0,045	-0,029
-146,804	-133,510	0,116	0,010
-145,789	-141,154	0,154	-0,011
-144,775	36,630	-0,085	-0,054
-143,760	-192,106	0,043	0,000
-142,745	-64,311	0,028	-0,008
-141,731	-200,000	-0,021	0,207
-140,716	-200,000	-0,002	-0,027
-139,702	-73,069	-0,148	0,039
-138,687	-36,147	0,141	-0,055
-137,672	-200,000	0,044	0,159
-136,658	-28,137	0,061	-0,025
-135,643	-79,034	-0,022	0,005
-134,629	133,425	0,047	-0,044
-133,614	261,176	-0,152	0,192
-132,599	367,828	0,051	0,075
-131,585	39,682	0,141	-0,092
-130,570	324,394	-0,118	-0,164
-129,556	154,306	-0,051	-0,051
-128,541	-43,446	-0,117	0,043
-127,526	-176,826	-0,109	-0,002
-126,512	-200,000	-0,012	-0,089
-125,497	279,230	0,071	-0,093
-124,483	-85,373	0,132	0,030
-123,468	-124,997	0,150	-0,017
-122,453	-200,000	-0,025	-0,179
-121,439	50,870	-0,075	0,052
-120,424	318,446	-0,048	-0,067
-119,410	254,862	0,138	0,172
-118,395	-37,645	0,088	0,034
-117,380	79,819	0,044	0,035
-116,366	800,000	0,027	-0,083
-115,351	347,835	-0,086	-0,124
-114,337	179,958	-0,058	-0,062
-113,322	-200,000	-0,011	-0,112
-112,307	155,506	0,050	0,051
-111,293	111,346	-0,037	0,032
-110,278	149,812	-0,053	0,052
-109,264	-60,274	0,082	0,025
-108,249	132,274	0,037	-0,034
-107,234	-200,000	0,006	-0,036
-106,220	197,158	-0,060	-0,067
-105,205	800,000	-0,035	-0,084
-104,191	-48,819	0,156	-0,054
-103,176	-200,000	0,007	0,042
-102,162	218,719	0,020	-0,023
-101,147	86,975	0,074	0,059
-100,132	800,000	-0,052	-0,127
-99,118	-200,000	-0,015	0,116
-98,103	-86,023	0,062	-0,014
-97,089	10,376	0,104	0,058
-96,074	-200,000	-0,024	0,089
-95,059	-200,000	0,003	-0,042
-94,045	67,060	-0,068	-0,050
-93,030	-80,745	0,040	-0,010
-92,016	13,599	-0,083	0,046
-91,001	255,123	0,080	0,100
-89,986	800,000	0,053	0,112
-88,972	-200,000	-0,035	0,120
-87,957	-200,000	0,023	-0,078
-86,943	-200,000	0,026	0,104
-85,928	-126,927	-0,091	-0,010
-84,913	543,975	0,060	-0,105
-83,899	-50,363	0,060	0,021
-82,884	800,000	0,035	0,112
-81,870	-200,000	0,006	0,085
-80,855	-81,055	-0,048	-0,011
-79,840	739,716	-0,027	-0,053
-78,826	-64,324	0,094	-0,028
-77,811	-200,000	-0,043	-0,144
-76,797	-162,695	-0,075	-0,003
-75,782	316,674	0,019	0,026
-74,767	605,543	-0,070	0,127
-73,753	-2,073	-0,079	-0,040
-72,738	-108,299	0,070	-0,011
-71,724	40,508	-0,098	-0,064
-70,709	-120,558	0,080	0,010
-69,694	609,474	0,002	-0,003
-68,680	33,334	-0,107	-0,067
-67,665	-200,000	-0,028	0,128
-66,651	75,978	0,043	0,033
-65,636	193,051	-0,125	-0,137
-64,622	800,000	-0,031	-0,091
-63,607	800,000	0,020	0,052
-62,592	410,902	0,022	0,033
-61,578	-45,510	0,137	0,049
-60,563	800,000	0,057	-0,154
-59,549	800,000	-0,029	-0,070
-58,534	-131,540	-1,356	-0,128
-57,519	484,629	-0,862	-1,429
-56,505	-200,000	-0,809	-4,368
-55,490	7,230	0,572	-0,309
-54,476	800,000	4,935	11,751
-53,461	-200,000	13,897	252,709
-52,446	-200,000	692,945	2262,776
-51,432	601,766	1623,448	2939,518
-50,417	118,152	1633,066	1460,752
-49,403	73,843	1287,303	978,341
-48,388	37,662	1023,463	657,861
-47,373	24,057	981,621	586,218
-46,359	23,308	971,362	577,612
-45,344	22,302	966,868	571,630
-44,330	22,182	965,506	570,410
-43,315	22,073	964,095	569,196
-42,300	22,054	963,029	568,483
-41,286	22,072	962,163	568,010
-40,271	22,103	961,240	567,542
-39,257	22,037	960,217	566,701
-38,242	22,053	959,162	566,108
-37,227	22,041	958,326	565,553
-36,213	22,044	957,595	565,110
-35,198	21,993	956,647	564,362
-34,184	22,090	955,962	564,248
-33,169	22,042	955,129	563,580
-32,154	22,081	954,194	563,132
-31,140	22,062	953,363	562,557
-30,125	22,153	952,299	562,200
-29,111	22,086	951,565	561,531
-28,096	22,084	950,858	561,083
-27,082	22,111	950,339	560,843
-26,067	22,062	949,501	560,166
-25,052	22,085	948,808	559,810
-24,038	22,087	948,121	559,390
-23,023	22,092	947,354	558,930
-22,009	22,113	946,801	558,650
-20,994	22,153	946,106	558,347
-19,979	22,057	945,832	557,855
-18,965	22,096	944,934	557,428
-17,950	22,143	944,250	557,153
-16,936	22,043	943,706	556,489
-15,921	22,010	942,998	555,944
-14,906	22,010	942,098	555,394
-13,892	21,979	941,712	555,044
-12,877	21,949	941,040	554,530
-11,863	21,933	940,233	553,983
-10,848	21,904	939,973	553,716
-9,833	22,082	939,302	553,862
-8,819	22,012	938,809	553,330
-7,804	21,982	938,076	552,779
-6,790	22,018	937,385	552,464
-5,775	21,959	937,011	552,035
-4,760	22,025	936,302	551,803
-3,746	21,989	935,772	551,357
-2,731	21,791	935,025	550,269
-1,717	21,765	934,280	549,726
-0,702	21,707	933,722	549,195
0,313	21,600	933,118	549,331
1,327	24,123	930,540	555,694
2,342	31,829	808,652	503,790
3,356	26,292	509,261	307,783
4,371	1,441	374,037	194,383
5,386	-1,700	356,943	181,622
6,400	-2,777	351,098	177,328
7,415	-3,166	348,454	175,509
8,429	-3,092	347,026	174,863
9,444	-3,101	346,304	174,473
10,459	-3,098	345,531	174,071
11,473	-3,052	344,902	173,794
12,488	-3,118	344,156	173,325
13,502	-3,245	343,584	172,870
14,517	-3,049	343,235	172,911
15,531	-2,950	342,649	172,717
16,546	-2,980	342,617	172,650
17,561	-2,962	341,904	172,296
18,575	-2,968	341,663	172,153
19,590	-3,026	341,198	171,835
20,604	-2,837	340,887	171,885
21,619	-3,007	340,583	171,517
22,634	-2,847	340,046	171,419
23,648	-3,060	339,878	171,069
24,663	-2,826	339,532	171,154
25,677	-2,934	339,173	170,831
26,692	-2,786	338,841	170,822
27,707	-3,029	338,623	170,413
28,721	-2,969	338,295	170,302
29,736	-3,037	337,867	169,993
30,750	-2,992	337,557	169,874
31,765	-2,949	337,341	169,801
32,780	-2,882	337,125	169,755
33,794	-2,899	336,862	169,587
34,809	-2,871	336,479	169,411
35,823	-3,048	336,251	169,076
36,838	-2,910	335,959	169,074
37,853	-3,004	335,655	168,797
38,867	-2,904	335,318	168,729
39,882	-3,024	335,187	168,509
40,896	-2,912	334,893	168,475
41,911	-2,878	334,640	168,372
42,926	-2,760	334,260	168,302
43,940	-3,002	334,016	167,886
44,955	-3,086	333,881	167,707
45,969	-2,962	333,523	167,654
46,984	-2,925	333,381	167,610
47,999	-2,974	333,109	167,403
49,013	-2,835	332,765	167,373
50,028	-2,998	332,505	167,042
51,042	-2,939	332,283	166,982
52,057	-2,916	331,952	166,828
53,071	-2,973	331,686	166,614
54,086	-2,912	331,449	166,550
55,101	-2,893	331,298	166,480
56,115	-3,018	330,976	166,161
57,130	-2,891	330,601	166,103
58,144	-2,799	330,332	166,057
59,159	-2,980	330,184	165,763
60,174	-2,951	329,912	165,644
61,188	-2,939	329,584	165,478
62,203	-3,060	329,410	165,240
63,217	-2,967	329,204	165,226
64,232	-2,910	328,855	165,100
65,247	-2,911	328,567	164,941
66,261	-2,996	328,332	164,712
67,276	-2,880	327,982	164,653
68,290	-3,117	327,898	164,329
69,305	-2,900	327,535	164,376
70,320	-3,033	327,431	164,159
71,334	-3,021	327,183	164,034
72,349	-2,866	326,825	164,014
73,363	-2,912	326,540	163,806
74,378	-2,936	326,220	163,603
75,393	-2,819	326,068	163,643
76,407	-2,887	325,826	163,431
77,422	-3,042	325,557	163,108
78,436	-2,908	325,285	163,107
79,451	-2,758	324,956	163,094
80,466	-2,940	324,734	162,766
81,480	-2,745	324,357	162,780
82,495	-2,954	324,229	162,469
83,509	-3,004	324,075	162,321
84,524	-2,734	323,736	162,436
85,539	-2,971	323,632	162,107
86,553	-2,829	323,327	162,097
87,568	-2,945	323,114	161,848
88,582	-2,730	322,713	161,869
89,597	-3,079	322,673	161,449
90,611	-2,933	322,407	161,463
91,626	-2,949	322,107	161,281
92,641	-3,038	322,066	161,148
93,655	-2,923	321,774	161,114
94,670	-2,764	321,335	161,055
95,684	-2,888	321,183	160,828
96,699	-2,968	321,001	160,634
97,714	-2,965	320,727	160,487
98,728	-2,826	320,533	160,527
99,743	-2,939	320,303	160,274
100,757	-2,908	320,084	160,185
101,772	-2,889	319,692	159,994
102,787	-2,941	319,546	159,851
103,801	-2,831	319,182	159,774
104,816	-2,939	318,999	159,551
105,830	-2,974	318,921	159,459
106,845	-2,935	318,683	159,369
107,860	-2,933	318,452	159,241
108,874	-2,874	317,935	159,032
109,889	-2,917	317,804	158,906
110,903	-2,931	317,638	158,794
111,918	-2,868	317,452	158,754
112,933	-2,891	317,346	158,662
113,947	-2,860	317,081	158,550
114,962	-3,065	316,919	158,232
115,976	-2,788	316,545	158,331
116,991	-2,896	316,314	158,085
118,006	-2,965	316,177	157,928
119,020	-2,850	316,011	157,955
120,035	-2,930	315,920	157,809
121,049	-2,924	315,509	157,596
122,064	-2,908	315,283	157,487
123,079	-2,974	315,119	157,320
124,093	-2,988	314,857	157,159
125,108	-2,895	314,541	157,088
126,122	-2,938	314,426	156,970
127,137	-2,920	314,149	156,836
128,151	-2,877	313,938	156,763
129,166	-2,997	313,810	156,557
130,181	-2,880	313,350	156,438
131,195	-2,881	313,113	156,306
132,210	-2,955	312,972	156,143
133,224	-3,009	312,659	155,915
134,239	-3,094	312,640	155,800
135,254	-2,876	312,228	155,813
136,268	-2,744	311,988	155,820
137,283	-2,804	311,782	155,639
138,297	-2,849	311,635	155,505
139,312	-2,866	311,544	155,427
140,327	-3,031	311,154	155,044
141,341	-2,794	310,939	155,174
142,356	-2,768	310,713	155,075
143,370	-2,945	310,514	154,774
144,385	-2,775	310,262	154,815
145,400	-2,748	310,034	154,716
146,414	-2,890	309,836	154,453
147,429	-2,891	309,693	154,367
148,443	-2,842	309,483	154,300
149,458	-2,949	309,363	154,114
150,473	-2,855	309,049	154,042
151,487	-2,944	308,793	153,808
152,502	-2,956	308,543	153,657
153,516	-2,794	308,359	153,722
154,531	-2,907	308,097	153,459
155,546	-2,899	307,925	153,368
156,560	-2,805	307,643	153,313
157,575	-2,943	307,414	153,040
158,589	-2,988	307,356	152,951
159,604	-3,007	307,222	152,851
160,619	-2,810	306,819	152,842
161,633	-2,699	306,717	152,893
162,648	-2,919	306,511	152,547
163,662	-2,615	306,206	152,699
164,677	-2,844	306,098	152,393
165,692	-2,963	305,858	152,135
166,706	-2,724	305,677	152,281
167,721	-2,718	305,466	152,168
168,735	-2,702	305,287	152,083
169,750	-2,997	305,143	151,691
170,764	-2,835	304,907	151,728
171,779	-2,783	304,722	151,676
172,794	-2,765	304,448	151,544
173,808	-2,790	304,280	151,422
174,823	-2,864	304,135	151,260
175,837	-2,757	303,825	151,203
176,852	-2,863	303,655	150,995
177,867	-2,830	303,370	150,874
178,881	-2,854	303,231	150,767
179,896	-2,928	303,155	150,639
180,910	-2,826	302,852	150,580
181,925	-2,895	302,632	150,387
182,940	-2,853	302,265	150,233
183,954	-2,789	302,224	150,266
184,969	-2,635	302,040	150,319
185,983	-2,725	301,745	150,066
186,998	-2,619	301,616	150,098
188,013	-2,732	301,463	149,892
189,027	-2,764	301,192	149,711
190,042	-2,731	300,970	149,621
191,056	-2,768	300,794	149,483
192,071	-3,010	300,691	149,171
193,086	-2,927	300,346	149,071
194,100	-2,894	300,220	149,030
195,115	-2,728	299,911	149,031
196,129	-2,583	299,546	148,984
197,144	-2,820	299,610	148,762
198,159	-3,009	299,367	148,436
199,173	-2,970	299,151	148,355
200,188	-2,954	298,918	148,243
201,202	-2,953	298,678	148,111
202,217	-2,834	298,277	148,020
203,232	-2,838	298,148	147,938
204,246	-2,676	298,102	148,066
205,261	-3,036	297,847	147,563
206,275	-2,766	297,724	147,761
207,290	-2,695	297,489	147,703
208,304	-2,799	297,221	147,452
209,319	-2,714	296,870	147,350
210,334	-2,554	296,671	147,399
211,348	-2,788	296,705	147,167
212,363	-2,846	296,520	147,004
213,377	-2,763	296,289	146,960
214,392	-2,596	296,095	147,018
215,407	-2,696	295,857	146,787
216,421	-2,817	295,768	146,608
217,436	-2,710	295,410	146,524
218,450	-2,842	295,229	146,289
219,465	-2,699	294,794	146,204
220,480	-2,859	294,882	146,074
221,494	-2,889	294,712	145,947
222,509	-2,823	294,577	145,934
223,523	-2,766	294,319	145,850
224,538	-2,638	293,993	145,802
225,553	-2,713	293,882	145,660
226,567	-2,671	293,714	145,605
227,582	-2,741	293,668	145,500
228,596	-2,769	293,239	145,246
229,611	-2,731	293,196	145,250
230,626	-2,810	292,998	145,061
231,640	-2,881	292,796	144,878
232,655	-2,753	292,511	144,851
233,669	-2,668	292,343	144,838
234,684	-2,845	292,220	144,589
235,699	-2,685	292,021	144,636
236,713	-2,833	291,868	144,401
237,728	-2,878	291,661	144,241
238,742	-2,918	291,490	144,105
239,757	-2,896	291,161	143,951
240,772	-2,696	290,972	144,041
241,786	-2,896	290,819	143,757
242,801	-3,007	290,648	143,550
243,815	-2,855	290,600	143,663
244,830	-2,923	290,242	143,406
245,844	-2,876	290,076	143,357
246,859	-2,711	289,937	143,438
247,874	-2,710	289,594	143,256
248,888	-2,829	289,461	143,061
249,903	-2,905	289,305	142,898
250,917	-2,912	289,258	142,854
251,932	-2,730	288,835	142,810
252,947	-3,121	288,538	142,270
253,961	-3,750	287,994	141,378
254,976	-4,247	287,695	140,735
255,990	-4,316	287,607	140,612
257,005	-3,195	287,919	141,842
258,020	-1,001	288,770	144,385
259,034	0,568	289,042	146,035
260,049	1,288	289,007	146,705
261,063	1,576	289,048	146,993
262,078	2,024	288,957	147,369
263,093	1,895	288,986	147,245
264,107	2,281	288,963	147,594
265,122	2,489	288,910	147,757
266,136	2,454	288,615	147,559
267,151	2,576	288,235	147,469
268,166	2,671	288,227	147,544
269,180	2,580	288,052	147,354
270,195	2,596	287,777	147,214
271,209	2,579	287,751	147,172
272,224	2,645	287,517	147,102
273,239	2,488	287,227	146,790
274,253	2,433	287,134	146,676
275,268	2,595	286,747	146,622
276,282	2,318	286,547	146,241
277,297	2,328	286,459	146,192
278,312	2,427	286,240	146,162
279,326	2,486	286,039	146,103
280,341	2,461	285,956	146,023
281,355	2,305	285,759	145,760
282,370	2,388	285,429	145,659
283,384	2,379	285,326	145,584
284,399	2,301	285,132	145,398
285,414	2,361	284,924	145,335
286,428	2,412	284,768	145,292
287,443	2,206	284,699	145,047
288,457	2,223	284,501	144,949
289,472	2,179	284,194	144,739
290,487	2,177	283,870	144,559
291,501	2,251	283,672	144,515
292,516	2,223	283,665	144,472
293,530	2,103	283,528	144,275
294,545	2,248	283,278	144,273
295,560	2,200	283,120	144,134
296,574	2,249	282,761	143,985
297,589	2,137	282,689	143,830
298,603	2,132	282,448	143,689
299,618	2,298	282,310	143,763
300,633	2,360	282,144	143,725
301,647	2,175	282,140	143,535
302,662	2,365	281,892	143,575
303,676	2,280	281,784	143,427
304,691	2,441	281,411	143,377
305,706	2,581	281,282	143,430
306,720	2,422	281,248	143,250
307,735	2,408	280,844	143,017
308,749	2,544	280,757	143,089
309,764	2,446	280,739	142,974
310,779	2,556	280,430	142,908
311,793	2,516	280,156	142,718
312,808	2,455	280,044	142,591
313,822	2,402	280,005	142,509
314,837	2,457	279,650	142,367
315,852	2,457	279,478	142,267
316,866	2,337	279,407	142,106
317,881	2,411	279,235	142,074
318,895	2,350	278,893	141,831
319,910	2,383	278,671	141,736
320,925	2,571	278,598	141,861
321,939	2,429	278,400	141,616
322,954	2,361	278,313	141,496
323,968	2,591	278,121	141,599
324,983	2,591	277,954	141,502
325,997	2,387	277,782	141,212
327,012	2,536	277,521	141,205
328,027	2,585	277,390	141,171
329,041	2,346	277,310	140,896
330,056	2,418	276,968	140,777
331,070	2,466	276,908	140,778
332,085	2,644	276,549	140,748
333,100	2,503	276,590	140,625
334,114	2,517	276,379	140,519
335,129	2,580	276,015	140,379
336,143	2,644	275,854	140,344
337,158	2,686	275,696	140,290
338,173	2,510	275,611	140,072
339,187	2,556	275,368	139,978
340,202	2,719	275,179	140,020
341,216	2,442	275,019	139,671
342,231	2,490	274,830	139,607
343,246	2,640	274,760	139,696
344,260	2,581	274,519	139,508
345,275	2,552	274,438	139,426
346,289	2,743	274,166	139,451
347,304	2,608	273,974	139,218
348,319	2,490	273,885	139,052
349,333	2,522	273,653	138,952
350,348	2,533	273,499	138,870
351,362	2,561	273,323	138,794
352,377	2,610	273,220	138,774
353,392	2,692	273,002	138,725
354,406	2,607	272,771	138,519
355,421	191,413	1349,147	1429,717
356,435	154,535	1480,393	1429,845
