DTS Sentinel unit serial number:	SN410029Multiplexer serial number:	ORYXHardware model number:	OX2-SRSoftware version number:	ORYX F/W v4,00 Oryx Data Collector v3.7.2.0data status	okinstallation	B4 Nyhavnadifferential loss correction	single-endedforward channel	channel 2reverse channel	N/Adate	2023/12/15time	23:30:13forward acquisition time	300,00reverse acquisition time	0,00gamma	499,1914k internal	0,3129k external	0,3129temperature offset calibration	1,0000default loss term (dB/km)	0,3820temperature slope calibration	1,0000multiplexer offset coefficient	1,0000multiplexer slope coefficient	1,0000fibre end	0,00T internal ref (°C)	21,72T ext. ref 1 (°C)	6,78T ext. ref 2 (°C)	6,94length (m)	temperature (°C)	Stokes	anti-Stokes-744,400	-200,000	0,004	-0,034
-743,385	-187,597	-0,175	0,002
-742,371	-193,840	0,125	0,001
-741,356	-114,007	-0,302	0,043
-740,342	383,699	0,027	0,041
-739,327	-55,407	-0,309	0,103
-738,312	-18,226	-0,042	-0,019
-737,298	-97,573	-0,179	0,034
-736,283	342,007	-0,026	-0,038
-735,269	60,574	-0,233	0,171
-734,254	541,065	0,027	0,047
-733,239	-66,697	-0,289	-0,084
-732,225	800,000	0,010	-0,030
-731,210	-42,359	-0,033	0,012
-730,196	800,000	-0,047	0,144
-729,181	70,148	-0,076	0,058
-728,167	-116,606	-0,187	-0,025
-727,152	-103,839	-0,040	0,007
-726,137	-200,000	0,009	0,039
-725,123	-2,811	-0,048	-0,025
-724,108	-49,792	-0,076	-0,027
-723,094	-12,847	0,147	-0,071
-722,079	328,384	-0,035	-0,050
-721,064	-200,000	-0,020	-0,137
-720,050	-200,000	-0,084	0,000
-719,035	-73,891	-0,100	-0,027
-718,021	800,000	0,035	-0,080
-717,006	800,000	-0,034	-0,103
-715,991	-163,645	-0,025	-0,001
-714,977	-45,221	-0,098	-0,036
-713,962	-92,272	-0,047	0,010
-712,948	222,880	0,098	-0,118
-711,933	-200,000	-0,009	-0,036
-710,918	618,663	0,064	-0,120
-709,904	-200,000	-0,054	-0,201
-708,889	131,765	-0,058	-0,056
-707,875	-200,000	-0,032	-0,158
-706,860	44,147	-0,152	-0,103
-705,845	-145,841	-0,075	0,005
-704,831	486,916	0,027	-0,046
-703,816	49,541	-0,182	-0,127
-702,802	-70,908	-0,076	0,021
-701,787	61,311	-0,096	-0,071
-700,772	263,380	0,118	-0,153
-699,758	-200,000	-0,027	-0,107
-698,743	800,000	0,023	0,069
-697,729	176,786	0,140	0,151
-696,714	800,000	0,012	0,026
-695,699	-81,537	0,041	-0,010
-694,685	-65,779	-0,066	-0,019
-693,670	-51,811	-0,061	-0,021
-692,656	-200,000	-0,006	-0,161
-691,641	800,000	-0,014	-0,040
-690,627	-200,000	-0,021	0,150
-689,612	800,000	0,007	0,015
-688,597	-104,397	0,157	-0,027
-687,583	-200,000	0,005	-0,098
-686,568	-56,570	-0,067	-0,022
-685,554	795,179	0,045	-0,093
-684,539	-144,548	0,117	-0,008
-683,524	-46,103	0,082	-0,030
-682,510	49,532	-0,098	-0,068
-681,495	-187,407	-0,034	0,000
-680,481	-200,000	0,018	-0,081
-679,466	175,060	-0,056	-0,061
-678,451	-200,000	-0,034	0,123
-677,437	-200,000	0,002	-0,056
-676,422	800,000	-0,074	-0,172
-675,408	-82,235	0,078	0,019
-674,393	-200,000	0,007	0,101
-673,378	490,662	-0,082	-0,139
-672,364	417,734	0,026	-0,042
-671,349	800,000	-0,045	0,097
-670,335	228,118	0,048	-0,058
-669,320	-54,250	-0,106	-0,036
-668,305	-133,652	0,073	-0,007
-667,291	800,000	-0,041	0,099
-666,276	-14,393	-0,038	-0,018
-665,262	-200,000	-0,020	-0,147
-664,247	105,073	-0,067	0,059
-663,232	-200,000	-0,018	-0,100
-662,218	800,000	-0,008	-0,022
-661,203	40,057	-0,067	0,044
-660,189	188,907	0,058	0,064
-659,174	-95,305	-0,127	0,025
-658,159	591,680	-0,065	-0,120
-657,145	457,970	-0,051	-0,084
-656,130	768,199	0,054	-0,109
-655,116	65,585	-0,038	-0,029
-654,101	73,447	-0,104	0,081
-653,086	65,622	-0,047	0,035
-652,072	-183,332	0,106	-0,001
-651,057	771,145	-0,056	-0,114
-650,043	-200,000	0,006	-0,153
-649,028	137,918	0,098	0,095
-648,014	800,000	-0,027	0,073
-646,999	29,984	0,064	-0,040
-645,984	106,809	-0,113	0,099
-644,970	127,607	-0,053	-0,049
-643,955	-132,460	-0,066	-0,006
-642,941	-200,000	0,011	-0,073
-641,926	124,653	-0,060	0,056
-640,911	-200,000	-0,035	0,122
-639,897	173,055	-0,070	0,075
-638,882	-200,000	-0,003	-0,038
-637,868	-58,433	-0,144	0,046
-636,853	-93,896	-0,073	0,015
-635,838	-28,257	-0,129	-0,055
-634,824	800,000	0,012	-0,037
-633,809	-151,565	0,181	-0,010
-632,795	-200,000	0,003	0,086
-631,780	-24,456	0,019	-0,008
-630,765	71,228	0,068	0,052
-629,751	-83,617	-0,093	-0,022
-628,736	-200,000	-0,001	-0,062
-627,722	328,071	-0,121	-0,173
-626,707	386,084	-0,030	-0,047
-625,692	-25,124	0,079	0,034
-624,678	-200,000	-0,011	-0,063
-623,663	-8,287	-0,094	0,047
-622,649	51,970	-0,074	0,052
-621,634	675,981	-0,066	-0,128
-620,619	800,000	-0,027	-0,070
-619,605	-200,000	0,004	0,028
-618,590	35,703	-0,062	0,040
-617,576	800,000	0,041	-0,125
-616,561	208,948	-0,121	-0,141
-615,546	-200,000	-0,017	-0,068
-614,532	82,832	-0,075	-0,060
-613,517	-44,439	-0,080	-0,030
-612,503	38,042	0,005	0,003
-611,488	23,063	-0,017	0,010
-610,474	800,000	0,036	0,098
-609,459	-136,652	-0,021	-0,002
-608,444	-29,326	-0,151	-0,064
-607,430	185,786	0,072	-0,079
-606,415	198,255	-0,125	-0,142
-605,401	-28,633	0,077	-0,033
-604,386	88,267	0,028	0,023
-603,371	16,730	-0,041	0,024
-602,357	213,147	0,044	-0,051
-601,342	187,284	-0,096	-0,106
-600,328	-56,767	0,083	-0,027
-599,313	-151,250	-0,152	0,008
-598,298	-200,000	0,032	-0,171
-597,284	-17,167	0,058	-0,027
-596,269	-200,000	0,017	0,124
-595,255	-111,563	0,105	0,016
-594,240	246,358	-0,077	0,097
-593,225	800,000	-0,055	-0,131
-592,211	800,000	-0,018	-0,038
-591,196	405,790	0,033	0,052
-590,182	-200,000	-0,003	0,038
-589,167	353,939	0,004	0,005
-588,152	-200,000	0,004	0,065
-587,138	298,912	0,036	0,049
-586,123	121,124	-0,032	0,029
-585,109	-200,000	-0,028	0,136
-584,094	-145,720	-0,048	-0,003
-583,079	36,242	0,097	0,063
-582,065	148,300	0,053	0,053
-581,050	-27,041	-0,013	0,006
-580,036	161,358	-0,033	0,034
-579,021	-39,956	0,020	-0,007
-578,006	194,897	0,054	-0,060
-576,992	800,000	-0,017	-0,049
-575,977	-159,710	0,175	-0,007
-574,963	217,714	0,108	0,128
-573,948	-35,512	-0,160	0,064
-572,934	37,790	0,056	-0,036
-571,919	713,419	-0,009	0,017
-570,904	123,082	-0,105	0,098
-569,890	-23,599	0,031	-0,014
-568,875	198,709	0,085	-0,096
-567,861	431,697	0,071	0,114
-566,846	167,164	-0,072	-0,076
-565,831	449,729	0,074	0,121
-564,817	-200,000	0,013	-0,075
-563,802	-200,000	-0,044	-0,159
-562,788	800,000	-0,056	-0,130
-561,773	259,052	0,076	-0,097
-560,758	352,035	0,094	-0,138
-559,744	-111,059	-0,025	-0,004
-558,729	527,553	0,017	-0,029
-557,715	164,193	0,055	-0,058
-556,700	-200,000	-0,014	-0,060
-555,685	-200,000	0,002	-0,103
-554,671	800,000	-0,028	-0,079
-553,656	457,214	0,029	0,047
-552,642	138,533	-0,070	-0,068
-551,627	-200,000	0,006	0,046
-550,612	800,000	0,062	0,144
-549,598	800,000	0,037	-0,105
-548,583	-200,000	-0,044	0,165
-547,569	-70,045	0,052	0,015
-546,554	-61,346	0,056	0,017
-545,539	-2,092	-0,127	0,066
-544,525	-200,000	0,008	0,166
-543,510	92,389	0,031	-0,025
-542,496	800,000	-0,016	0,042
-541,481	168,632	-0,138	-0,145
-540,466	-200,000	-0,006	-0,060
-539,452	800,000	0,032	0,097
-538,437	251,156	0,096	0,120
-537,423	-200,000	0,022	0,092
-536,408	521,272	-0,037	0,065
-535,393	48,617	0,016	-0,011
-534,379	19,824	0,063	-0,038
-533,364	-48,462	-0,091	-0,032
-532,350	800,000	0,010	0,027
-531,335	-200,000	0,020	-0,088
-530,321	17,822	-0,025	0,015
-529,306	-158,198	-0,074	-0,003
-528,291	800,000	-0,025	-0,074
-527,277	146,663	-0,125	-0,124
-526,262	-21,912	0,017	0,008
-525,248	-200,000	0,018	-0,154
-524,233	64,973	0,211	0,157
-523,218	513,851	-0,076	-0,132
-522,204	592,003	0,045	-0,083
-521,189	800,000	0,011	-0,029
-520,175	-200,000	0,006	0,058
-519,160	21,818	-0,119	0,071
-518,145	6,822	0,068	-0,037
-517,131	-100,046	-0,156	0,028
-516,116	745,532	-0,092	0,184
-515,102	17,209	-0,048	0,028
-514,087	-13,783	-0,029	-0,014
-513,072	71,326	-0,092	0,071
-512,058	-29,630	0,007	0,003
-511,043	130,733	0,035	-0,033
-510,029	800,000	-0,019	-0,042
-509,014	-25,998	0,070	0,030
-507,999	-200,000	0,012	0,048
-506,985	318,955	-0,040	-0,056
-505,970	-147,621	-0,109	-0,007
-504,956	384,712	-0,032	0,048
-503,941	65,362	0,087	0,065
-502,926	-136,216	0,069	0,006
-501,912	362,933	0,066	0,098
-500,897	-69,806	-0,100	0,028
-499,883	618,349	-0,049	0,090
-498,868	189,550	0,063	0,070
-497,853	-200,000	-0,014	-0,149
-496,839	-200,000	0,038	-0,129
-495,824	-100,906	0,024	-0,004
-494,810	-200,000	-0,016	0,159
-493,795	-74,855	-0,060	-0,016
-492,781	188,775	0,096	-0,106
-491,766	-107,498	0,062	0,010
-490,751	23,826	-0,072	-0,044
-489,737	43,770	0,057	-0,038
-488,722	-123,447	-0,079	-0,009
-487,708	-200,000	-0,006	0,044
-486,693	800,000	-0,044	-0,118
-485,678	-129,432	0,120	-0,012
-484,664	582,619	0,033	-0,061
-483,649	-99,317	-0,091	0,017
-482,635	800,000	0,022	0,056
-481,620	-87,425	0,071	0,016
-480,605	-57,388	-0,081	0,026
-479,591	-122,508	0,144	0,017
-478,576	-67,089	0,010	0,003
-477,562	334,850	-0,020	0,029
-476,547	-200,000	0,001	0,036
-475,532	-200,000	-0,011	-0,062
-474,518	-46,386	0,084	0,030
-473,503	745,028	0,028	0,056
-472,489	-200,000	0,003	-0,052
-471,474	35,448	-0,056	-0,036
-470,459	115,761	0,107	-0,096
-469,445	154,195	-0,056	0,057
-468,430	165,318	-0,057	-0,059
-467,416	265,587	0,054	0,070
-466,401	42,100	0,059	-0,039
-465,386	-51,715	0,125	0,043
-464,372	-200,000	-0,026	0,132
-463,357	-82,136	-0,158	-0,038
-462,343	-200,000	-0,013	-0,044
-461,328	-139,209	0,071	-0,006
-460,313	122,355	-0,010	-0,009
-459,299	800,000	0,054	-0,122
-458,284	99,134	-0,023	0,020
-457,270	-200,000	0,127	0,000
-456,255	268,895	-0,085	0,110
-455,241	800,000	-0,057	-0,142
-454,226	-100,934	0,157	-0,028
-453,211	-200,000	0,004	0,021
-452,197	47,139	-0,108	-0,074
-451,182	-200,000	0,003	0,044
-450,168	-113,751	-0,061	-0,009
-449,153	112,332	0,083	-0,073
-448,138	-200,000	-0,048	-0,169
-447,124	491,436	0,069	-0,117
-446,109	800,000	0,029	0,089
-445,095	-151,900	-0,052	-0,003
-444,080	-200,000	-0,006	-0,033
-443,065	-200,000	-0,008	0,087
-442,051	-200,000	0,008	-0,031
-441,036	-128,110	-0,070	0,007
-440,022	-39,176	0,116	-0,044
-439,007	5,055	-0,048	0,026
-437,992	-104,745	0,027	-0,005
-436,978	410,506	-0,030	0,047
-435,963	-200,000	0,004	-0,025
-434,949	-196,356	0,101	0,000
-433,934	-31,005	0,081	-0,033
-432,919	-200,000	0,005	0,044
-431,905	-26,620	0,097	0,042
-430,890	-200,000	0,003	-0,063
-429,876	800,000	-0,025	-0,052
-428,861	27,936	0,071	0,044
-427,846	800,000	-0,065	0,140
-426,832	-200,000	0,002	-0,040
-425,817	-200,000	-0,007	0,058
-424,803	800,000	0,053	0,128
-423,788	158,032	-0,060	0,061
-422,773	-111,001	0,148	0,022
-421,759	-200,000	-0,024	0,114
-420,744	173,307	0,072	-0,077
-419,730	206,078	-0,064	0,073
-418,715	800,000	-0,022	-0,053
-417,701	18,676	-0,071	-0,042
-416,686	-200,000	-0,004	0,036
-415,671	-131,751	0,205	0,019
-414,657	-200,000	-0,060	-0,000
-413,642	-41,037	-0,172	0,065
-412,628	130,860	-0,061	0,058
-411,613	100,500	-0,124	-0,106
-410,598	800,000	0,035	0,102
-409,584	800,000	0,033	0,073
-408,569	800,000	0,032	0,089
-407,555	347,879	-0,038	-0,055
-406,540	661,808	-0,045	0,086
-405,525	417,542	0,045	0,070
-404,511	496,278	-0,096	0,163
-403,496	576,828	0,081	0,147
-402,482	-200,000	0,000	-0,079
-401,467	-160,448	0,081	0,003
-400,452	-200,000	-0,006	-0,107
-399,438	800,000	0,044	0,135
-398,423	673,098	-0,062	0,119
-397,409	-200,000	-0,028	0,224
-396,394	595,772	0,070	0,128
-395,379	-200,000	-0,026	-0,099
-394,365	-118,014	-0,165	0,021
-393,350	-200,000	-0,003	0,076
-392,336	676,460	0,044	0,084
-391,321	-200,000	-0,012	-0,091
-390,306	-200,000	0,021	-0,212
-389,292	160,443	-0,095	0,098
-388,277	-19,461	0,103	-0,047
-387,263	800,000	-0,057	0,142
-386,248	-200,000	-0,012	0,073
-385,233	-200,000	-0,001	-0,132
-384,219	-140,877	0,186	-0,014
-383,204	-200,000	-0,002	-0,075
-382,190	223,373	0,039	0,047
-381,175	800,000	0,033	0,079
-380,160	43,197	-0,132	0,088
-379,146	28,588	-0,022	0,014
-378,131	-47,476	0,081	0,029
-377,117	-200,000	0,007	0,037
-376,102	-103,555	-0,126	-0,022
-375,088	-200,000	-0,006	-0,068
-374,073	61,049	-0,069	-0,050
-373,058	-101,675	0,084	0,015
-372,044	-191,184	0,036	-0,000
-371,029	601,736	0,017	0,032
-370,015	-9,444	0,109	-0,053
-369,000	219,407	0,069	-0,081
-367,985	-200,000	0,049	-0,273
-366,971	222,235	-0,081	-0,095
-365,956	11,105	0,066	-0,037
-364,942	-52,166	-0,065	-0,022
-363,927	-193,639	0,045	0,000
-362,912	-200,000	-0,018	0,165
-361,898	-141,612	0,079	0,006
-360,883	-58,513	-0,068	0,021
-359,869	800,000	-0,044	0,130
-358,854	-131,839	-0,071	-0,007
-357,839	514,458	0,045	-0,077
-356,825	173,960	0,075	0,079
-355,810	800,000	0,013	-0,039
-354,796	374,369	-0,066	-0,099
-353,781	-11,869	0,081	0,039
-352,766	800,000	-0,039	-0,086
-351,752	-151,504	0,112	-0,006
-350,737	399,321	0,084	0,129
-349,723	-200,000	-0,005	-0,016
-348,708	-182,669	0,042	0,001
-347,693	43,581	0,088	-0,059
-346,679	6,951	0,052	-0,028
-345,664	-52,557	-0,131	0,044
-344,650	-200,000	-0,007	0,105
-343,635	464,844	-0,044	0,073
-342,620	-200,000	-0,005	0,085
-341,606	-126,315	0,168	0,018
-340,591	-85,404	0,064	-0,014
-339,577	108,164	-0,085	0,074
-338,562	586,031	0,013	0,023
-337,548	800,000	0,052	-0,135
-336,533	-87,283	-0,171	-0,038
-335,518	187,425	0,040	0,044
-334,504	558,356	0,090	0,160
-333,489	-1,974	-0,082	-0,042
-332,475	595,480	0,023	-0,042
-331,460	800,000	0,028	0,088
-330,445	-200,000	0,016	-0,056
-329,431	210,573	-0,130	0,150
-328,416	800,000	0,047	0,138
-327,402	22,167	-0,030	0,018
-326,387	-32,949	-0,040	-0,016
-325,372	-9,926	-0,066	-0,032
-324,358	-200,000	0,005	0,017
-323,343	456,824	0,078	-0,127
-322,329	-4,295	0,073	0,037
-321,314	-59,123	0,065	0,020
-320,299	47,060	0,046	0,031
-319,285	235,548	-0,036	0,044
-318,270	-200,000	-0,005	0,021
-317,256	12,785	-0,057	-0,032
-316,241	-200,000	0,008	-0,056
-315,226	164,600	0,104	-0,107
-314,212	463,257	0,040	0,065
-313,197	-200,000	0,014	0,086
-312,183	181,479	-0,101	0,109
-311,168	-1,009	-0,111	-0,057
-310,153	150,305	-0,056	0,056
-309,139	-200,000	-0,009	0,099
-308,124	313,695	-0,054	-0,075
-307,110	360,557	0,040	0,058
-306,095	800,000	0,056	0,153
-305,080	454,101	0,022	0,036
-304,066	7,440	-0,053	-0,029
-303,051	-112,708	0,046	0,007
-302,037	390,558	-0,056	-0,086
-301,022	-200,000	0,002	0,049
-300,008	98,805	0,064	0,054
-298,993	37,973	0,082	-0,053
-297,978	111,640	0,012	-0,010
-296,964	-41,341	-0,028	-0,011
-295,949	-200,000	0,003	-0,097
-294,935	594,561	0,052	-0,095
-293,920	-124,580	0,029	0,003
-292,905	317,941	-0,060	0,083
-291,891	131,245	0,058	0,055
-290,876	75,153	0,082	0,063
-289,862	-200,000	-0,056	0,199
-288,847	160,038	-0,042	0,042
-287,832	787,260	0,039	-0,080
-286,818	-130,588	-0,214	-0,021
-285,803	-178,549	0,079	0,001
-284,789	-98,362	-0,044	-0,008
-283,774	-0,412	0,156	0,081
-282,759	-200,000	0,003	0,040
-281,745	279,751	-0,060	-0,079
-280,730	-90,442	0,053	-0,011
-279,716	93,416	-0,076	0,062
-278,701	-200,000	0,018	-0,073
-277,686	-200,000	0,017	0,074
-276,672	-11,753	-0,115	-0,055
-275,657	-165,363	-0,117	0,004
-274,643	-122,990	-0,077	0,009
-273,628	-27,006	0,070	0,030
-272,613	800,000	0,014	-0,033
-271,599	157,339	0,060	-0,060
-270,584	761,563	0,027	0,055
-269,570	-200,000	0,056	0,197
-268,555	800,000	-0,024	-0,061
-267,540	56,023	-0,084	0,059
-266,526	-115,411	-0,129	-0,018
-265,511	87,521	0,050	0,041
-264,497	-54,597	0,056	-0,018
-263,482	30,368	0,136	-0,085
-262,467	63,700	-0,081	-0,059
-261,453	-200,000	0,004	-0,015
-260,438	-36,646	-0,042	0,016
-259,424	733,552	-0,078	-0,154
-258,409	442,972	0,034	-0,055
-257,395	231,810	-0,107	0,128
-256,380	-18,395	0,055	0,025
-255,365	188,708	0,072	-0,079
-254,351	-200,000	0,008	-0,054
-253,336	247,590	-0,079	-0,097
-252,322	-6,729	-0,148	-0,073
-251,307	18,795	0,061	-0,035
-250,292	-200,000	-0,019	0,075
-249,278	97,658	0,030	-0,025
-248,263	34,278	0,131	-0,083
-247,249	-200,000	-0,018	-0,059
-246,234	-71,016	-0,006	0,002
-245,219	90,567	-0,097	-0,079
-244,205	69,819	0,068	-0,051
-243,190	227,004	-0,034	-0,041
-242,176	-45,638	-0,082	-0,029
-241,161	63,797	0,100	0,073
-240,146	-61,990	-0,016	-0,005
-239,132	800,000	-0,006	0,020
-238,117	61,666	0,027	-0,020
-237,103	259,135	0,133	-0,168
-236,088	-93,323	-0,113	-0,023
-235,073	74,203	0,107	0,082
-234,059	565,611	-0,057	0,101
-233,044	-200,000	0,004	-0,052
-232,030	-200,000	0,004	0,028
-231,015	362,264	-0,126	-0,185
-230,000	-200,000	-0,023	0,119
-228,986	62,416	-0,049	0,036
-227,971	-200,000	0,045	0,160
-226,957	800,000	0,028	0,089
-225,942	54,699	0,056	0,040
-224,927	36,365	0,021	-0,013
-223,913	35,443	-0,043	-0,028
-222,898	444,458	0,089	-0,143
-221,884	-42,748	0,029	0,011
-220,869	559,479	-0,024	-0,043
-219,855	303,546	0,060	0,081
-218,840	-100,829	0,194	-0,034
-217,825	-139,725	-0,084	0,006
-216,811	-200,000	-0,031	-0,162
-215,796	-80,257	-0,060	0,014
-214,782	18,394	0,130	-0,075
-213,767	-116,290	-0,053	0,007
-212,752	-200,000	0,007	0,120
-211,738	146,655	0,050	0,049
-210,723	92,940	-0,040	0,033
-209,709	14,274	-0,129	-0,073
-208,694	-116,320	0,115	0,015
-207,679	-200,000	-0,007	-0,089
-206,665	800,000	0,028	-0,063
-205,650	-149,497	-0,049	0,003
-204,636	-200,000	-0,017	0,092
-203,621	800,000	0,009	0,026
-202,606	800,000	0,013	-0,034
-201,592	-200,000	-0,047	0,160
-200,577	-200,000	0,019	-0,120
-199,563	-12,187	0,116	0,055
-198,548	275,837	-0,078	-0,101
-197,533	-200,000	-0,008	-0,033
-196,519	173,845	0,019	0,020
-195,504	-200,000	-0,015	-0,097
-194,490	-200,000	-0,006	-0,027
-193,475	193,015	-0,096	-0,106
-192,460	-200,000	0,015	-0,065
-191,446	206,154	0,054	0,062
-190,431	72,165	-0,036	-0,027
-189,417	-200,000	0,043	-0,148
-188,402	-200,000	-0,014	0,080
-187,387	21,244	-0,038	-0,022
-186,373	800,000	-0,008	-0,025
-185,358	46,639	-0,055	-0,037
-184,344	-127,550	-0,081	0,008
-183,329	-83,746	-0,026	-0,006
-182,315	-136,304	0,130	0,011
-181,300	-200,000	-0,011	-0,063
-180,285	35,091	-0,060	-0,038
-179,271	-200,000	-0,018	-0,111
-178,256	-200,000	0,005	-0,113
-177,242	57,370	-0,043	-0,030
-176,227	-72,885	0,114	0,030
-175,212	-200,000	-0,002	-0,039
-174,198	653,974	-0,076	0,142
-173,183	-200,000	-0,030	-0,135
-172,169	-19,241	0,034	-0,015
-171,154	800,000	0,016	0,040
-170,139	-6,772	-0,034	-0,017
-169,125	800,000	-0,032	0,073
-168,110	47,558	0,219	0,148
-167,096	800,000	0,023	-0,070
-166,081	-163,257	0,142	-0,005
-165,066	653,215	-0,073	-0,137
-164,052	41,849	-0,133	-0,088
-163,037	-120,033	0,142	-0,018
-162,023	-88,914	0,018	-0,004
-161,008	129,043	0,061	-0,057
-159,993	537,260	0,049	0,086
-158,979	322,608	0,066	-0,092
-157,964	-69,930	0,046	0,013
-156,950	-200,000	-0,010	0,104
-155,935	800,000	-0,044	0,132
-154,920	256,550	0,036	0,045
-153,906	-200,000	-0,019	-0,080
-152,891	-64,175	-0,084	0,025
-151,877	22,497	-0,080	-0,047
-150,862	800,000	0,098	-0,205
-149,847	-200,000	-0,026	-0,116
-148,833	373,683	0,059	-0,087
-147,818	-77,560	0,178	-0,044
-146,804	-7,152	0,118	0,058
-145,789	800,000	-0,024	0,053
-144,775	20,781	-0,081	-0,048
-143,760	430,113	0,039	0,062
-142,745	551,143	-0,033	-0,058
-141,731	257,119	0,058	-0,073
-140,716	546,983	-0,028	-0,049
-139,702	-76,850	-0,043	-0,011
-138,687	800,000	-0,009	-0,023
-137,672	44,202	0,039	0,026
-136,658	-200,000	-0,012	0,239
-135,643	-195,369	-0,083	0,000
-134,629	-166,849	0,072	-0,002
-133,614	74,530	-0,049	-0,037
-132,599	-42,310	0,057	0,021
-131,585	110,354	0,068	0,059
-130,570	-123,092	-0,162	0,019
-129,556	-200,000	-0,011	-0,050
-128,541	167,400	-0,031	-0,032
-127,526	-200,000	-0,010	-0,063
-126,512	201,507	0,072	0,081
-125,497	-37,212	0,158	-0,061
-124,483	-72,779	-0,108	-0,029
-123,468	-200,000	0,014	0,052
-122,453	800,000	-0,056	0,118
-121,439	-62,901	-0,077	-0,023
-120,424	-200,000	0,017	-0,056
-119,410	-39,689	0,113	0,043
-118,395	88,711	-0,093	0,075
-117,380	-200,000	0,004	0,117
-116,366	-92,723	0,032	-0,007
-115,351	-200,000	-0,046	-0,203
-114,337	456,045	-0,087	-0,140
-113,322	800,000	0,036	-0,115
-112,307	33,135	0,073	0,046
-111,293	-200,000	0,010	0,086
-110,278	105,158	-0,027	-0,023
-109,264	-200,000	-0,034	0,145
-108,249	800,000	-0,060	0,140
-107,234	717,262	0,115	0,222
-106,220	-200,000	-0,003	-0,137
-105,205	751,818	0,046	-0,091
-104,191	800,000	-0,011	0,028
-103,176	-112,794	-0,089	0,013
-102,162	178,061	-0,019	0,020
-101,147	-200,000	-0,011	-0,065
-100,132	800,000	0,027	0,070
-99,118	-42,030	0,076	-0,028
-98,103	-98,828	-0,090	-0,016
-97,089	-200,000	0,021	-0,083
-96,074	-16,335	0,160	0,073
-95,059	-31,915	-0,056	0,022
-94,045	493,870	-0,020	-0,033
-93,030	31,956	-0,066	0,041
-92,016	-200,000	-0,004	0,036
-91,001	283,375	0,050	-0,065
-89,986	375,062	-0,075	-0,111
-88,972	-200,000	-0,003	-0,101
-87,957	167,314	-0,029	-0,030
-86,943	-200,000	0,005	-0,039
-85,928	800,000	-0,016	-0,035
-84,913	419,395	0,013	0,021
-83,899	394,060	0,048	0,072
-82,884	800,000	-0,012	-0,033
-81,870	-66,203	-0,105	-0,030
-80,855	-200,000	0,015	0,059
-79,840	-75,848	-0,080	-0,020
-78,826	-143,269	-0,095	0,006
-77,811	-115,755	-0,053	-0,007
-76,797	800,000	-0,035	-0,078
-75,782	137,148	0,053	0,050
-74,767	-200,000	0,009	0,117
-73,753	489,863	-0,018	0,030
-72,738	408,977	-0,043	0,066
-71,724	800,000	0,073	-0,212
-70,709	-62,710	-0,056	0,017
-69,694	-133,853	0,072	-0,006
-68,680	18,126	-0,045	0,026
-67,665	151,063	-0,052	-0,051
-66,651	800,000	0,013	-0,032
-65,636	79,272	0,108	-0,084
-64,622	-200,000	-0,007	-0,037
-63,607	75,976	0,034	-0,026
-62,592	104,878	0,070	0,060
-61,578	-127,081	-0,041	0,004
-60,563	-200,000	0,031	0,138
-59,549	317,284	0,032	0,044
-58,534	-153,607	-1,380	-0,068
-57,519	800,000	-0,661	-1,389
-56,505	-200,000	-0,858	-4,326
-55,490	-71,929	0,571	-0,153
-54,476	800,000	4,849	11,480
-53,461	-200,000	14,149	251,508
-52,446	-200,000	693,628	2232,508
-51,432	577,517	1621,173	2882,529
-50,417	117,207	1629,181	1450,013
-49,403	73,939	1283,350	973,858
-48,388	37,577	1020,717	654,556
-47,373	23,866	979,136	582,988
-46,359	23,011	968,814	574,025
-45,344	21,937	964,295	567,831
-44,330	21,934	962,847	566,946
-43,315	21,770	961,542	565,624
-42,300	21,859	960,321	565,172
-41,286	21,731	959,341	564,159
-40,271	21,711	958,452	563,546
-39,257	21,801	957,323	563,153
-38,242	21,789	956,472	562,590
-37,227	21,724	955,696	561,902
-36,213	21,761	954,787	561,466
-35,198	21,632	954,031	560,582
-34,184	21,752	953,335	560,537
-33,169	21,685	952,580	559,857
-32,154	21,751	951,449	559,380
-31,140	21,846	950,479	559,092
-30,125	21,792	949,969	558,599
-29,111	21,724	949,013	557,795
-28,096	21,798	948,303	557,594
-27,082	21,782	947,675	557,149
-26,067	21,826	946,773	556,739
-25,052	21,752	946,232	556,162
-24,038	21,733	945,583	555,698
-23,023	21,753	944,976	555,383
-22,009	21,810	944,131	555,045
-20,994	21,825	943,446	554,668
-19,979	21,733	943,098	554,150
-18,965	21,744	942,380	553,740
-17,950	21,777	941,834	553,501
-16,936	21,716	941,154	552,887
-15,921	21,748	940,240	552,429
-14,906	21,672	939,633	551,810
-13,892	21,676	939,129	551,507
-12,877	21,633	938,428	550,934
-11,863	21,643	937,865	550,616
-10,848	21,617	937,447	550,265
-9,833	21,716	936,705	550,120
-8,819	21,675	936,207	549,677
-7,804	21,643	935,683	549,248
-6,790	21,637	935,047	548,832
-5,775	21,646	934,439	548,481
-4,760	21,654	933,704	548,054
-3,746	21,615	933,173	547,600
-2,731	21,467	932,569	546,758
-1,717	21,452	931,702	546,178
-0,702	21,491	930,920	545,821
0,313	21,234	930,651	545,681
1,327	23,639	927,964	551,585
2,342	31,145	806,615	499,721
3,356	26,055	508,232	306,171
4,371	2,628	373,623	195,319
5,386	-0,329	356,622	182,793
6,400	-1,971	350,237	177,527
7,415	-2,987	347,386	174,851
8,429	-3,094	345,763	173,891
9,444	-3,345	345,037	173,213
10,459	-2,915	343,995	173,183
11,473	-3,194	343,619	172,649
12,488	-3,020	343,180	172,619
13,502	-3,041	342,667	172,320
14,517	-3,132	342,114	171,919
15,531	-3,218	341,312	171,401
16,546	-3,069	340,839	171,322
17,561	-3,259	340,379	170,854
18,575	-3,219	340,161	170,775
19,590	-3,158	339,605	170,552
20,604	-3,277	339,433	170,312
21,619	-3,225	339,110	170,196
22,634	-3,152	338,757	170,088
23,648	-3,261	338,330	169,731
24,663	-3,296	338,003	169,511
25,677	-3,234	337,735	169,434
26,692	-3,285	337,376	169,180
27,707	-3,273	337,224	169,102
28,721	-3,381	336,820	168,759
29,736	-3,345	336,457	168,605
30,750	-3,374	336,220	168,436
31,765	-3,172	335,890	168,491
32,780	-3,390	335,669	168,113
33,794	-3,314	335,400	168,051
34,809	-3,228	335,044	167,956
35,823	-3,347	334,643	167,604
36,838	-3,297	334,424	167,536
37,853	-3,380	334,173	167,300
38,867	-3,362	333,943	167,191
39,882	-3,285	333,563	167,074
40,896	-3,412	333,529	166,897
41,911	-3,538	333,187	166,566
42,926	-3,386	332,754	166,508
43,940	-3,365	332,500	166,391
44,955	-3,313	332,120	166,246
45,969	-3,440	331,911	165,981
46,984	-3,374	331,639	165,905
47,999	-3,707	331,560	165,472
49,013	-3,625	331,046	165,293
50,028	-3,666	330,631	165,025
51,042	-3,719	330,474	164,873
52,057	-3,773	330,198	164,659
53,071	-3,729	329,970	164,580
54,086	-3,911	329,821	164,285
55,101	-3,736	329,486	164,301
56,115	-3,639	329,345	164,327
57,130	-3,261	329,234	164,683
58,144	-3,223	328,887	164,537
59,159	-3,232	328,559	164,348
60,174	-3,296	328,507	164,236
61,188	-3,136	328,035	164,165
62,203	-3,215	327,956	164,022
63,217	-3,238	327,632	163,819
64,232	-3,295	327,298	163,574
65,247	-3,081	327,069	163,684
66,261	-3,100	326,800	163,514
67,276	-3,305	326,557	163,149
68,290	-3,383	326,048	162,792
69,305	-3,428	325,972	162,690
70,320	-3,406	325,701	162,565
71,334	-3,262	325,535	162,628
72,349	-3,176	325,296	162,590
73,363	-3,152	324,997	162,453
74,378	-3,147	324,870	162,381
75,393	-3,155	324,571	162,207
76,407	-3,173	324,256	162,016
77,422	-3,359	324,167	161,750
78,436	-3,181	323,883	161,791
79,451	-3,088	323,650	161,764
80,466	-3,221	323,180	161,368
81,480	-3,404	322,959	161,040
82,495	-3,408	322,689	160,887
83,509	-3,231	322,524	160,985
84,524	-3,588	322,411	160,521
85,539	-3,529	322,033	160,384
86,553	-3,582	321,835	160,212
87,568	-3,464	321,531	160,176
88,582	-3,478	321,403	160,083
89,597	-3,409	321,088	159,988
90,611	-3,430	320,984	159,899
91,626	-3,222	320,776	160,009
92,641	-3,173	320,396	159,858
93,655	-3,271	320,124	159,601
94,670	-3,375	319,906	159,364
95,684	-3,416	319,723	159,214
96,699	-3,376	319,410	159,088
97,714	-3,423	319,081	158,859
98,728	-3,591	318,960	158,602
99,743	-3,375	318,684	158,685
100,757	-3,414	318,345	158,459
101,772	-3,542	318,129	158,199
102,787	-3,597	318,072	158,097
103,801	-3,541	317,854	158,035
104,816	-3,360	317,505	158,044
105,830	-3,289	317,345	158,027
106,845	-3,255	317,206	157,981
107,860	-3,166	316,936	157,928
108,874	-3,127	316,725	157,851
109,889	-3,238	316,335	157,523
110,903	-3,323	316,243	157,371
111,918	-3,272	315,949	157,265
112,933	-3,254	315,682	157,138
113,947	-3,285	315,659	157,080
114,962	-3,343	315,384	156,866
115,976	-3,253	315,080	156,798
116,991	-3,422	315,028	156,576
118,006	-3,385	314,641	156,410
119,020	-3,377	314,529	156,348
120,035	-3,186	314,478	156,514
121,049	-3,095	314,237	156,478
122,064	-3,144	313,883	156,235
123,079	-3,308	313,616	155,912
124,093	-3,496	313,437	155,609
125,108	-3,495	313,165	155,462
126,122	-3,480	312,783	155,273
127,137	-3,634	312,635	155,022
128,151	-3,580	312,549	155,024
129,166	-3,447	312,215	154,986
130,181	-3,481	311,980	154,819
131,195	-3,446	311,707	154,707
132,210	-3,320	311,536	154,742
133,224	-3,360	311,510	154,673
134,239	-3,393	311,145	154,442
135,254	-3,261	310,931	154,462
136,268	-3,267	310,728	154,341
137,283	-3,520	310,413	153,904
138,297	-3,530	310,186	153,766
139,312	-3,360	309,903	153,792
140,327	-3,383	309,811	153,709
141,341	-3,373	309,778	153,689
142,356	-3,089	309,534	153,853
143,370	-2,900	309,331	153,937
144,385	-3,057	309,169	153,678
145,400	-3,008	308,798	153,532
146,414	-3,022	308,594	153,401
147,429	-3,072	308,499	153,289
148,443	-3,154	308,348	153,114
149,458	-2,954	308,015	153,144
150,473	-3,006	307,927	153,033
151,487	-3,064	307,586	152,788
152,502	-2,933	307,392	152,815
153,516	-2,979	307,201	152,659
154,531	-3,079	307,031	152,456
155,546	-3,176	306,725	152,190
156,560	-3,186	306,538	152,073
157,575	-3,195	306,209	151,886
158,589	-3,179	305,948	151,761
159,604	-3,085	305,807	151,775
160,619	-3,017	305,659	151,759
161,633	-2,960	305,362	151,657
162,648	-2,967	305,118	151,515
163,662	-3,071	305,047	151,358
164,677	-3,030	304,779	151,254
165,692	-3,150	304,767	151,110
166,706	-3,072	304,433	151,012
167,721	-3,144	304,388	150,902
168,735	-2,994	303,991	150,846
169,750	-2,938	303,840	150,816
170,764	-2,853	303,723	150,832
171,779	-2,707	303,454	150,835
172,794	-2,916	303,405	150,582
173,808	-3,033	303,094	150,294
174,823	-3,334	302,699	149,775
175,837	-3,469	302,529	149,539
176,852	-3,151	302,414	149,796
177,867	-2,912	302,243	149,943
178,881	-2,885	302,052	149,862
179,896	-2,925	301,841	149,703
180,910	-2,870	301,585	149,619
181,925	-2,968	301,510	149,469
182,940	-2,905	301,254	149,392
183,954	-2,891	301,170	149,352
184,969	-2,951	300,845	149,115
185,983	-3,062	300,790	148,962
186,998	-3,016	300,529	148,867
188,013	-2,835	300,232	148,890
189,027	-2,931	300,067	148,697
190,042	-2,934	299,800	148,549
191,056	-2,796	299,637	148,595
192,071	-2,662	299,489	148,644
193,086	-2,648	299,256	148,530
194,100	-2,746	299,067	148,323
195,115	-2,792	298,824	148,143
196,129	-3,050	298,618	147,767
197,144	-2,805	298,400	147,893
198,159	-2,989	298,273	147,631
199,173	-2,844	298,023	147,640
200,188	-2,716	297,997	147,744
201,202	-2,907	297,559	147,322
202,217	-3,353	297,321	146,741
203,232	-3,430	297,081	146,532
204,246	-3,106	296,887	146,749
205,261	-2,830	296,733	146,937
206,275	-2,862	296,490	146,772
207,290	-2,894	296,341	146,653
208,304	-2,928	296,076	146,474
209,319	-2,896	295,941	146,426
210,334	-2,962	295,678	146,217
211,348	-2,910	295,554	146,194
212,363	-2,964	295,349	146,027
213,377	-2,909	295,249	146,019
214,392	-3,083	294,918	145,669
215,407	-3,174	294,810	145,512
216,421	-3,204	294,510	145,321
217,436	-3,186	294,319	145,232
218,450	-3,208	294,165	145,121
219,465	-3,132	293,927	145,066
220,480	-3,054	293,780	145,058
221,494	-3,133	293,659	144,907
222,509	-3,219	293,586	144,773
223,523	-3,051	293,343	144,807
224,538	-2,824	293,164	144,929
225,553	-2,960	292,925	144,664
226,567	-2,882	292,753	144,643
227,582	-2,728	292,511	144,663
228,596	-2,854	292,511	144,525
229,611	-2,699	292,326	144,574
230,626	-2,985	292,022	144,129
231,640	-3,215	291,605	143,684
232,655	-3,320	291,276	143,406
233,669	-3,392	291,291	143,330
234,684	-3,328	290,997	143,235
235,699	-3,426	291,022	143,138
236,713	-3,358	290,943	143,154
237,728	-3,081	290,645	143,266
238,742	-3,152	290,414	143,070
239,757	-3,096	290,230	143,021
240,772	-3,074	289,954	142,894
241,786	-3,107	289,804	142,775
242,801	-3,123	289,579	142,635
243,815	-3,072	289,521	142,644
244,830	-3,024	289,306	142,572
245,844	-3,144	289,191	142,386
246,859	-3,125	288,980	142,288
247,874	-3,158	288,679	142,095
248,888	-3,095	288,438	142,025
249,903	-2,955	288,418	142,139
250,917	-2,885	288,296	142,134
251,932	-2,589	288,126	142,325
252,947	-2,056	288,246	142,888
253,961	-2,423	287,912	142,354
254,976	-1,503	288,189	143,371
255,990	1,159	289,059	146,378
257,005	1,811	289,179	147,059
258,020	3,348	289,511	148,708
259,034	3,279	289,422	148,583
260,049	3,256	289,288	148,478
261,063	3,197	289,004	148,261
262,078	3,355	288,855	148,325
263,093	3,851	288,997	148,865
264,107	3,873	288,773	148,757
265,122	4,085	288,693	148,908
266,136	4,322	288,530	149,040
267,151	4,239	288,125	148,738
268,166	3,932	287,943	148,335
269,180	3,938	287,814	148,260
270,195	3,813	287,707	148,071
271,209	3,940	287,437	148,042
272,224	3,633	287,358	147,693
273,239	3,702	286,944	147,532
274,253	3,621	286,837	147,386
275,268	4,077	286,768	147,776
276,282	4,132	286,357	147,603
277,297	4,101	286,398	147,582
278,312	4,479	286,358	147,910
279,326	4,291	286,080	147,574
280,341	3,975	285,801	147,114
281,355	4,058	285,564	147,058
282,370	3,866	285,470	146,814
283,384	3,793	285,400	146,695
284,399	3,871	285,082	146,593
285,414	3,827	284,838	146,412
286,428	3,833	284,765	146,367
287,443	3,618	284,426	145,975
288,457	3,570	284,199	145,800
289,472	3,558	284,035	145,692
290,487	3,513	283,845	145,539
291,501	3,380	283,686	145,318
292,516	3,189	283,298	144,925
293,530	3,286	283,167	144,937
294,545	3,564	283,107	145,156
295,560	3,667	283,057	145,215
296,574	3,672	282,583	144,964
297,589	3,578	282,580	144,861
298,603	3,972	282,565	145,212
299,618	3,996	282,425	145,150
300,633	3,595	282,238	144,663
301,647	3,814	281,803	144,633
302,662	3,838	281,630	144,555
303,676	3,594	281,507	144,249
304,691	3,356	281,288	143,899
305,706	3,155	281,013	143,558
306,720	3,254	280,908	143,584
307,735	3,220	280,547	143,355
308,749	3,328	280,561	143,451
309,764	3,479	280,377	143,484
310,779	3,275	280,084	143,132
311,793	3,166	279,935	142,940
312,808	3,292	279,840	142,998
313,822	3,218	279,671	142,829
314,837	3,158	279,353	142,598
315,852	2,933	279,149	142,271
316,866	3,156	278,884	142,331
317,881	3,304	278,645	142,334
318,895	3,218	278,581	142,209
319,910	3,185	278,384	142,065
320,925	3,158	278,161	141,913
321,939	3,201	278,305	142,014
322,954	3,408	278,043	142,059
323,968	3,415	277,910	141,985
324,983	3,469	277,663	141,897
325,997	3,505	277,574	141,872
327,012	3,535	277,317	141,756
328,027	3,331	277,225	141,507
329,041	3,291	277,078	141,383
330,056	3,455	276,840	141,400
331,070	3,433	276,624	141,257
332,085	3,400	276,316	141,057
333,100	3,423	276,234	141,024
334,114	3,256	276,114	140,796
335,129	3,148	275,852	140,551
336,143	3,451	275,724	140,751
337,158	3,749	275,669	140,984
338,173	3,564	275,405	140,667
339,187	3,219	275,212	140,239
340,202	3,360	275,108	140,303
341,216	3,556	274,884	140,356
342,231	3,495	274,770	140,230
343,246	3,608	274,558	140,212
344,260	3,463	274,437	140,005
345,275	3,550	274,534	140,122
346,289	3,930	274,172	140,271
347,304	3,846	274,014	140,101
348,319	3,604	273,609	139,661
349,333	3,383	273,632	139,459
350,348	3,677	273,451	139,622
351,362	4,027	273,288	139,844
352,377	3,657	273,078	139,389
353,392	3,801	272,928	139,430
354,406	3,951	272,727	139,451
355,421	191,309	1329,397	1405,758
356,435	154,566	1458,219	1405,857
