DTS Sentinel unit serial number:	SN410029Multiplexer serial number:	ORYXHardware model number:	OX2-SRSoftware version number:	ORYX F/W v4,00 Oryx Data Collector v3.7.2.0data status	okinstallation	B4 Nyhavnadifferential loss correction	single-endedforward channel	channel 2reverse channel	N/Adate	2023/12/15time	18:20:13forward acquisition time	300,00reverse acquisition time	0,00gamma	499,1914k internal	0,3141k external	0,3141temperature offset calibration	1,0000default loss term (dB/km)	0,3820temperature slope calibration	1,0000multiplexer offset coefficient	1,0000multiplexer slope coefficient	1,0000fibre end	0,00T internal ref (°C)	19,13T ext. ref 1 (°C)	5,01T ext. ref 2 (°C)	5,14length (m)	temperature (°C)	Stokes	anti-Stokes-744,400	-48,430	0,107	-0,038
-743,385	-200,000	-0,385	-0,001
-742,371	73,050	-0,024	0,019
-741,356	234,939	-0,158	0,194
-740,342	160,934	0,039	-0,040
-739,327	-57,100	-0,377	0,122
-738,312	322,938	0,059	0,084
-737,298	-157,297	-0,176	-0,008
-736,283	30,388	0,085	-0,054
-735,269	207,278	-0,149	0,172
-734,254	63,977	-0,051	0,038
-733,239	-16,702	-0,499	-0,233
-732,225	31,585	0,168	-0,107
-731,210	285,733	0,071	0,095
-730,196	-19,374	0,069	0,032
-729,181	800,000	-0,018	-0,056
-728,167	-31,001	-0,007	0,003
-727,152	107,747	-0,147	0,130
-726,137	570,584	-0,039	-0,070
-725,123	-200,000	0,005	-0,073
-724,108	-12,173	-0,277	-0,134
-723,094	114,973	-0,039	-0,036
-722,079	-200,000	-0,005	0,040
-721,064	-200,000	-0,010	-0,044
-720,050	-35,697	-0,084	0,033
-719,035	-104,529	-0,070	0,012
-718,021	72,914	-0,068	-0,053
-717,006	-129,704	0,077	-0,008
-715,991	191,651	-0,031	-0,034
-714,977	161,382	-0,056	-0,058
-713,962	-200,000	-0,012	0,062
-712,948	60,367	0,081	0,059
-711,933	80,512	-0,086	-0,068
-710,918	-200,000	-0,020	-0,101
-709,904	-1,409	-0,041	-0,021
-708,889	188,899	-0,121	-0,134
-707,875	-82,170	-0,082	-0,020
-706,860	-56,640	0,136	-0,044
-705,845	152,232	0,059	0,060
-704,831	-200,000	0,031	0,105
-703,816	215,754	-0,029	0,034
-702,802	-200,000	-0,013	-0,189
-701,787	17,680	-0,028	-0,017
-700,772	-94,688	-0,136	0,027
-699,758	-200,000	0,010	-0,035
-698,743	530,708	0,023	-0,041
-697,729	-200,000	-0,009	0,058
-696,714	-200,000	0,008	0,101
-695,699	800,000	0,065	-0,175
-694,685	188,706	0,037	-0,041
-693,670	249,901	-0,109	-0,138
-692,656	249,907	0,075	0,094
-691,641	-50,016	0,068	-0,024
-690,627	42,861	0,085	-0,057
-689,612	-89,078	-0,110	-0,024
-688,597	178,899	-0,064	0,069
-687,583	-61,510	-0,202	-0,062
-686,568	-200,000	-0,011	0,071
-685,554	207,894	-0,038	0,045
-684,539	-17,990	0,023	-0,010
-683,524	232,491	0,099	0,120
-682,510	189,827	0,025	0,028
-681,495	800,000	-0,006	0,016
-680,481	800,000	-0,011	0,024
-679,466	800,000	-0,039	-0,092
-678,451	111,451	-0,012	-0,011
-677,437	17,719	-0,145	0,085
-676,422	363,373	-0,066	0,098
-675,408	-200,000	-0,002	0,114
-674,393	800,000	-0,080	0,253
-673,378	498,818	-0,048	-0,082
-672,364	198,156	-0,093	-0,106
-671,349	312,754	-0,081	0,113
-670,335	-11,567	-0,038	-0,018
-669,320	-126,614	-0,027	-0,003
-668,305	800,000	-0,027	0,074
-667,291	-21,091	-0,093	0,042
-666,276	-147,684	-0,044	-0,003
-665,262	800,000	-0,053	-0,166
-664,247	183,291	-0,038	-0,042
-663,232	-200,000	0,027	-0,136
-662,218	-200,000	-0,001	0,035
-661,203	75,848	-0,020	-0,016
-660,189	0,553	0,165	0,087
-659,174	800,000	-0,023	-0,049
-658,159	159,770	-0,047	-0,048
-657,145	-133,552	-0,042	-0,004
-656,130	-200,000	0,003	-0,044
-655,116	-200,000	-0,008	0,044
-654,101	22,193	0,059	0,035
-653,086	116,161	-0,050	-0,045
-652,072	-97,232	0,119	0,023
-651,057	-200,000	-0,011	-0,106
-650,043	122,501	-0,051	0,047
-649,028	800,000	0,042	-0,103
-648,014	158,733	0,073	-0,075
-646,999	-151,594	-0,126	-0,007
-645,984	800,000	0,036	0,084
-644,970	-124,947	-0,055	-0,006
-643,955	-63,929	-0,082	0,025
-642,941	48,910	0,028	-0,019
-641,926	800,000	0,038	0,113
-640,911	22,289	-0,046	0,028
-639,897	-200,000	-0,011	-0,121
-638,882	112,065	0,057	0,051
-637,868	-200,000	-0,013	0,099
-636,853	-47,282	-0,209	-0,075
-635,838	-119,788	0,115	-0,014
-634,824	592,499	-0,029	0,053
-633,809	242,196	-0,071	-0,087
-632,795	106,686	0,045	0,040
-631,780	514,565	-0,045	0,079
-630,765	201,062	-0,036	-0,041
-629,751	271,396	-0,057	0,074
-628,736	85,708	-0,037	0,030
-627,722	-200,000	0,005	-0,059
-626,707	40,831	-0,072	-0,048
-625,692	-200,000	-0,013	0,094
-624,678	-14,038	-0,095	0,045
-623,663	-167,598	0,139	-0,004
-622,649	36,521	-0,084	-0,055
-621,634	800,000	0,042	0,130
-620,619	540,939	-0,038	0,068
-619,605	-29,067	0,172	-0,072
-618,590	190,108	-0,109	0,121
-617,576	-121,880	0,104	-0,013
-616,561	-200,000	0,010	0,073
-615,546	-200,000	0,029	0,191
-614,532	-104,674	-0,044	-0,007
-613,517	10,048	-0,054	0,030
-612,503	631,252	0,023	-0,043
-611,488	-144,512	0,085	0,006
-610,474	79,383	-0,094	0,074
-609,459	-69,411	-0,050	0,014
-608,444	135,872	-0,022	-0,021
-607,430	-17,516	0,071	-0,033
-606,415	-200,000	0,011	0,101
-605,401	110,460	-0,018	-0,016
-604,386	137,234	0,128	0,123
-603,371	96,279	0,110	0,093
-602,357	-138,998	-0,112	0,009
-601,342	144,522	0,044	-0,043
-600,328	744,412	-0,037	-0,073
-599,313	-200,000	-0,015	-0,071
-598,298	-200,000	0,026	-0,097
-597,284	598,380	-0,052	-0,095
-596,269	119,982	-0,064	0,059
-595,255	383,690	0,012	-0,019
-594,240	-200,000	-0,012	-0,070
-593,225	-83,225	0,104	-0,025
-592,211	48,793	-0,091	0,063
-591,196	184,787	0,026	-0,029
-590,182	-200,000	0,018	0,063
-589,167	-200,000	-0,008	0,065
-588,152	399,261	0,047	0,073
-587,138	-200,000	-0,018	-0,135
-586,123	800,000	-0,009	0,022
-585,109	-200,000	-0,019	0,116
-584,094	-200,000	0,001	0,018
-583,079	34,666	0,044	-0,028
-582,065	78,366	-0,050	-0,039
-581,050	-200,000	0,000	0,067
-580,036	800,000	-0,036	-0,092
-579,021	-117,418	-0,113	-0,015
-578,006	-16,846	0,185	-0,086
-576,992	-64,841	0,104	0,031
-575,977	-200,000	-0,010	-0,044
-574,963	598,167	0,027	-0,049
-573,948	800,000	-0,038	0,090
-572,934	-200,000	0,021	0,082
-571,919	111,214	-0,008	0,007
-570,904	-56,776	-0,088	0,029
-569,890	12,180	-0,099	-0,056
-568,875	-29,312	-0,093	0,039
-567,861	59,802	-0,185	0,134
-566,846	-200,000	0,010	-0,075
-565,831	-200,000	-0,008	0,032
-564,817	6,405	-0,075	-0,041
-563,802	25,143	0,100	0,061
-562,788	147,011	-0,094	-0,093
-561,773	-200,000	-0,012	0,125
-560,758	-200,000	-0,002	0,076
-559,744	-9,414	-0,100	-0,049
-558,729	-200,000	-0,011	-0,100
-557,715	800,000	-0,049	0,123
-556,700	58,213	-0,064	-0,046
-555,685	119,823	0,050	0,046
-554,671	800,000	-0,030	-0,070
-553,656	-71,383	0,059	-0,016
-552,642	283,761	0,058	0,077
-551,627	800,000	-0,042	0,092
-550,612	606,800	0,009	0,016
-549,598	-200,000	-0,004	-0,099
-548,583	-200,000	0,002	-0,053
-547,569	729,811	0,015	0,030
-546,554	699,225	-0,045	-0,087
-545,539	-72,181	-0,067	-0,018
-544,525	800,000	0,020	0,065
-543,510	108,191	-0,045	0,039
-542,496	4,467	0,030	0,016
-541,481	800,000	-0,027	-0,064
-540,466	572,887	-0,043	0,077
-539,452	800,000	-0,005	0,013
-538,437	16,192	-0,023	-0,013
-537,423	574,655	-0,018	0,033
-536,408	150,732	0,046	-0,046
-535,393	-200,000	-0,016	-0,194
-534,379	-200,000	-0,014	-0,057
-533,364	4,033	0,059	0,032
-532,350	-33,513	-0,083	-0,034
-531,335	-56,187	-0,030	-0,010
-530,321	519,400	0,031	-0,053
-529,306	15,570	-0,024	0,014
-528,291	-200,000	-0,022	0,111
-527,277	-200,000	-0,010	-0,047
-526,262	-34,129	0,018	-0,007
-525,248	-200,000	0,023	-0,086
-524,233	-17,795	0,105	0,048
-523,218	146,878	0,076	-0,075
-522,204	29,617	-0,034	0,021
-521,189	-161,729	-0,151	-0,006
-520,175	75,763	-0,085	-0,066
-519,160	-200,000	-0,030	-0,161
-518,145	-5,676	0,093	0,047
-517,131	-200,000	0,030	0,246
-516,116	800,000	-0,027	0,056
-515,102	167,109	-0,035	-0,036
-514,087	-59,279	-0,022	0,007
-513,072	129,392	-0,040	-0,038
-512,058	-28,279	0,115	0,048
-511,043	322,821	0,020	-0,029
-510,029	-68,272	-0,164	-0,047
-509,014	-55,000	0,117	0,039
-507,999	-33,413	0,131	-0,053
-506,985	800,000	0,047	-0,105
-505,970	26,766	0,046	-0,028
-504,956	-53,025	0,033	-0,011
-503,941	-34,400	0,021	-0,009
-502,926	-200,000	-0,003	0,045
-501,912	171,167	0,062	0,065
-500,897	-200,000	-0,030	-0,145
-499,883	-200,000	-0,011	0,061
-498,868	800,000	0,056	-0,158
-497,853	-200,000	0,007	-0,164
-496,839	614,880	0,015	0,028
-495,824	511,953	0,018	0,031
-494,810	-200,000	0,026	0,104
-493,795	245,159	-0,014	-0,017
-492,781	-200,000	0,024	-0,133
-491,766	39,859	-0,147	-0,097
-490,751	422,557	-0,041	-0,065
-489,737	800,000	-0,065	-0,140
-488,722	11,675	-0,068	-0,038
-487,708	37,202	0,031	0,020
-486,693	-3,757	0,126	-0,064
-485,678	-200,000	-0,022	-0,142
-484,664	237,404	-0,030	0,037
-483,649	436,555	0,007	-0,011
-482,635	219,870	-0,049	0,057
-481,620	23,211	0,050	0,030
-480,605	-115,999	-0,033	0,004
-479,591	10,184	0,083	0,046
-478,576	77,225	-0,068	-0,053
-477,562	169,805	-0,020	0,021
-476,547	636,514	0,031	0,057
-475,532	312,120	-0,033	0,045
-474,518	212,566	-0,018	0,021
-473,503	241,370	0,023	-0,028
-472,489	-200,000	0,011	0,210
-471,474	-200,000	0,028	0,102
-470,459	-107,962	0,091	-0,014
-469,445	624,655	-0,067	-0,125
-468,430	19,694	0,051	0,030
-467,416	38,652	0,089	0,058
-466,401	24,930	-0,080	0,049
-465,386	-123,515	-0,071	-0,008
-464,372	270,010	0,072	0,093
-463,357	276,042	-0,075	-0,098
-462,343	294,839	0,085	-0,114
-461,328	800,000	0,028	-0,072
-460,313	53,817	-0,080	0,056
-459,299	-6,352	0,123	0,061
-458,284	-200,000	-0,011	0,053
-457,270	800,000	0,031	0,069
-456,255	172,695	0,071	0,075
-455,241	-150,279	-0,072	-0,004
-454,226	36,079	-0,208	-0,134
-453,211	-115,995	0,094	0,013
-452,197	800,000	-0,020	0,046
-451,182	-200,000	-0,012	0,061
-450,168	-200,000	-0,065	0,000
-449,153	800,000	0,021	0,057
-448,138	-200,000	0,001	-0,011
-447,124	304,632	0,054	0,074
-446,109	-200,000	-0,044	0,177
-445,095	-127,791	0,070	-0,007
-444,080	-155,158	0,136	0,006
-443,065	44,400	0,061	0,041
-442,051	-200,000	-0,001	-0,114
-441,036	-149,151	0,084	-0,005
-440,022	-200,000	-0,003	0,045
-439,007	217,691	0,017	-0,020
-437,992	-200,000	0,001	0,122
-436,978	-102,866	-0,076	-0,013
-435,963	156,757	0,077	0,078
-434,949	-200,000	0,007	-0,034
-433,934	-200,000	-0,006	-0,027
-432,919	32,258	-0,194	-0,123
-431,905	-200,000	-0,005	-0,213
-430,890	-200,000	0,006	-0,071
-429,876	-19,725	0,145	0,065
-428,861	721,836	-0,059	0,115
-427,846	-43,398	0,094	0,035
-426,832	17,411	-0,053	0,031
-425,817	-160,222	-0,021	-0,001
-424,803	-200,000	0,043	0,158
-423,788	-1,438	0,027	0,014
-422,773	-127,728	0,179	0,019
-421,759	-200,000	0,012	0,195
-420,744	800,000	0,041	-0,129
-419,730	19,713	0,095	-0,056
-418,715	800,000	-0,036	-0,093
-417,701	10,020	-0,066	-0,037
-416,686	102,518	0,052	0,045
-415,671	-70,376	0,195	0,054
-414,657	-140,216	0,044	-0,003
-413,642	-62,546	0,126	0,038
-412,628	-117,796	0,018	0,002
-411,613	-200,000	-0,020	-0,140
-410,598	-200,000	0,017	0,079
-409,584	800,000	0,030	0,097
-408,569	-83,753	0,113	0,026
-407,555	-71,804	0,159	0,043
-406,540	-200,000	-0,003	0,063
-405,525	374,644	-0,085	-0,127
-404,511	-200,000	-0,011	-0,047
-403,496	-200,000	-0,002	0,118
-402,482	-200,000	0,006	0,051
-401,467	-109,816	-0,021	-0,003
-400,452	-70,394	-0,029	0,008
-399,438	-43,021	0,095	0,035
-398,423	76,932	0,099	-0,077
-397,409	43,447	-0,041	-0,027
-396,394	-32,398	-0,116	-0,047
-395,379	80,076	-0,121	-0,095
-394,365	800,000	0,004	0,010
-393,350	83,783	-0,034	-0,027
-392,336	-200,000	0,058	0,188
-391,321	-200,000	0,024	0,209
-390,306	800,000	-0,025	-0,052
-389,292	58,532	0,042	-0,030
-388,277	-63,556	-0,129	-0,038
-387,263	-200,000	0,019	0,090
-386,248	800,000	-0,043	0,109
-385,233	667,291	-0,013	0,025
-384,219	142,628	-0,087	0,084
-383,204	120,376	-0,061	-0,055
-382,190	800,000	-0,077	0,230
-381,175	-28,580	0,096	-0,040
-380,160	-200,000	-0,031	-0,154
-379,146	100,603	0,041	0,035
-378,131	-200,000	-0,002	0,119
-377,117	238,943	-0,062	0,075
-376,102	800,000	0,067	-0,146
-375,088	189,592	-0,025	-0,027
-374,073	-200,000	0,016	-0,082
-373,058	122,328	0,041	-0,037
-372,044	-200,000	0,001	0,031
-371,029	-155,158	0,024	0,001
-370,015	-200,000	-0,024	0,144
-369,000	100,779	-0,096	-0,082
-367,985	152,948	-0,032	-0,032
-366,971	-11,808	0,093	0,044
-365,956	-200,000	0,023	-0,109
-364,942	-146,751	-0,046	-0,003
-363,927	357,429	-0,046	0,067
-362,912	473,991	-0,056	-0,092
-361,898	82,578	-0,040	0,032
-360,883	72,456	0,055	-0,042
-359,869	220,581	0,042	0,049
-358,854	0,726	0,081	-0,042
-357,839	6,223	-0,019	-0,010
-356,825	-18,435	-0,021	0,009
-355,810	167,092	-0,026	-0,027
-354,796	800,000	0,032	-0,091
-353,781	38,677	-0,144	0,094
-352,766	32,495	0,075	-0,047
-351,752	289,301	0,076	0,100
-350,737	248,245	0,020	-0,024
-349,723	-99,218	0,054	0,010
-348,708	-7,996	-0,076	-0,037
-347,693	-43,624	-0,111	-0,041
-346,679	-86,929	0,212	-0,047
-345,664	800,000	0,042	-0,092
-344,650	136,399	0,073	0,069
-343,635	800,000	-0,023	-0,067
-342,620	-80,017	-0,042	0,010
-341,606	160,108	-0,018	0,018
-340,591	800,000	-0,022	-0,066
-339,577	98,125	-0,087	-0,073
-338,562	800,000	-0,022	-0,051
-337,548	800,000	0,071	0,168
-336,533	-200,000	0,004	0,072
-335,518	-12,906	0,060	-0,029
-334,504	21,106	0,140	0,083
-333,489	-200,000	0,008	0,100
-332,475	7,497	0,048	-0,026
-331,460	-200,000	-0,010	0,113
-330,445	277,818	-0,048	0,063
-329,431	77,608	0,018	0,014
-328,416	30,297	-0,050	-0,031
-327,402	-200,000	-0,021	0,167
-326,387	300,836	0,071	-0,096
-325,372	800,000	0,041	-0,095
-324,358	-200,000	0,021	0,081
-323,343	-200,000	0,032	-0,137
-322,329	800,000	-0,044	-0,108
-321,314	483,114	0,088	-0,146
-320,299	800,000	0,016	-0,049
-319,285	800,000	-0,061	-0,185
-318,270	-37,556	-0,187	-0,072
-317,256	800,000	-0,048	-0,127
-316,241	-200,000	0,084	-0,000
-315,226	33,391	0,147	0,093
-314,212	-52,529	0,062	0,021
-313,197	-200,000	-0,018	0,148
-312,183	800,000	0,063	-0,141
-311,168	9,422	0,110	0,061
-310,153	-166,391	0,052	0,002
-309,139	-85,226	-0,098	-0,022
-308,124	-76,916	0,060	0,015
-307,110	-15,500	-0,139	0,064
-306,095	451,914	0,065	-0,105
-305,080	-71,072	-0,077	0,021
-304,066	124,132	-0,078	-0,072
-303,051	-195,588	-0,103	-0,001
-302,037	-113,276	0,060	0,008
-301,022	-91,363	0,105	0,022
-300,008	-132,528	-0,054	0,005
-298,993	-72,861	0,131	-0,035
-297,978	-200,000	0,003	-0,147
-296,964	6,453	-0,203	-0,110
-295,949	-200,000	-0,002	-0,103
-294,935	-65,087	-0,181	0,053
-293,920	-200,000	-0,004	-0,045
-292,905	40,660	0,108	-0,071
-291,891	269,607	0,054	0,069
-290,876	-48,244	-0,064	-0,022
-289,862	-200,000	0,015	0,138
-288,847	-76,831	-0,249	-0,063
-287,832	-65,920	-0,032	-0,009
-286,818	-200,000	-0,032	-0,109
-285,803	-21,751	0,192	0,085
-284,789	-200,000	0,017	0,149
-283,774	-200,000	0,035	0,149
-282,759	-200,000	0,033	-0,110
-281,745	-76,488	-0,084	0,021
-280,730	-182,984	-0,025	-0,000
-279,716	645,963	0,034	-0,064
-278,701	-90,529	-0,079	0,016
-277,686	8,035	0,055	0,030
-276,672	583,047	0,017	-0,031
-275,657	-200,000	-0,012	0,070
-274,643	-200,000	-0,001	-0,032
-273,628	-28,386	-0,177	-0,074
-272,613	-200,000	-0,025	-0,093
-271,599	6,148	0,164	0,088
-270,584	-18,327	-0,075	0,034
-269,570	-44,215	-0,051	0,018
-268,555	-200,000	0,022	0,129
-267,540	26,241	-0,099	-0,060
-266,526	800,000	0,069	0,149
-265,511	242,060	-0,071	0,087
-264,497	282,031	-0,058	0,075
-263,482	-200,000	-0,000	-0,006
-262,467	253,091	-0,058	0,072
-261,453	-58,335	0,057	0,018
-260,438	16,871	-0,069	0,040
-259,424	-181,002	-0,057	-0,001
-258,409	800,000	0,043	-0,137
-257,395	8,319	-0,153	-0,083
-256,380	-200,000	-0,018	0,160
-255,365	-139,405	-0,023	-0,002
-254,351	540,667	-0,048	-0,083
-253,336	651,234	0,027	-0,051
-252,322	800,000	-0,012	-0,028
-251,307	34,370	-0,062	-0,039
-250,292	-55,690	0,209	-0,068
-249,278	-158,139	0,133	0,006
-248,263	-200,000	0,005	0,025
-247,249	246,196	0,067	0,083
-246,234	26,682	-0,136	-0,083
-245,219	165,505	-0,143	0,147
-244,205	143,210	0,040	-0,039
-243,190	-200,000	0,023	-0,109
-242,176	-41,944	0,091	-0,034
-241,161	800,000	-0,044	0,094
-240,146	171,867	0,046	0,048
-239,132	512,706	-0,036	0,062
-238,117	800,000	-0,037	-0,112
-237,103	40,707	-0,199	0,130
-236,088	6,882	-0,038	0,021
-235,073	493,781	0,041	0,069
-234,059	800,000	0,040	-0,087
-233,044	7,331	-0,055	-0,030
-232,030	-128,639	0,123	0,012
-231,015	800,000	-0,035	-0,087
-230,000	551,985	0,032	-0,056
-228,986	679,166	-0,012	-0,023
-227,971	5,594	-0,058	-0,031
-226,957	61,291	0,031	-0,022
-225,942	-200,000	0,005	-0,080
-224,927	267,924	0,050	0,064
-223,913	-50,150	0,047	0,016
-222,898	800,000	-0,006	0,020
-221,884	294,684	0,091	-0,121
-220,869	-130,310	0,086	0,008
-219,855	-95,346	-0,012	-0,002
-218,840	51,493	-0,157	0,108
-217,825	-36,569	0,037	0,014
-216,811	-200,000	-0,002	0,043
-215,796	239,512	-0,002	0,002
-214,782	-137,912	0,126	0,010
-213,767	386,692	0,060	-0,091
-212,752	143,038	-0,073	0,071
-211,738	-111,645	-0,082	-0,012
-210,723	220,310	0,049	0,057
-209,709	-197,727	-0,124	-0,001
-208,694	-50,294	-0,069	-0,024
-207,679	81,253	0,028	-0,022
-206,665	800,000	-0,050	-0,147
-205,650	-200,000	-0,007	0,222
-204,636	-168,113	0,104	-0,003
-203,621	800,000	0,035	-0,107
-202,606	-45,262	0,169	0,061
-201,592	800,000	0,014	0,036
-200,577	66,294	-0,024	-0,018
-199,563	39,718	0,038	0,024
-198,548	-150,267	0,048	-0,003
-197,533	-32,482	-0,086	0,035
-196,519	-106,041	0,119	0,019
-195,504	-200,000	0,019	-0,110
-194,490	126,796	-0,102	-0,094
-193,475	-105,883	0,048	-0,008
-192,460	161,189	-0,108	0,109
-191,446	260,188	-0,108	0,136
-190,431	-160,894	-0,085	0,003
-189,417	262,468	0,105	0,133
-188,402	800,000	-0,016	-0,051
-187,387	540,672	-0,032	-0,056
-186,373	-200,000	0,007	-0,043
-185,358	-115,286	-0,044	-0,006
-184,344	-200,000	0,006	-0,044
-183,329	800,000	0,051	0,103
-182,315	593,631	-0,055	-0,100
-181,300	775,671	0,010	-0,019
-180,285	94,892	-0,147	-0,121
-179,271	800,000	0,041	-0,114
-178,256	-17,555	0,036	0,016
-177,242	-200,000	-0,005	0,093
-176,227	-36,801	0,080	-0,031
-175,212	-42,048	-0,078	-0,029
-174,198	522,549	0,015	-0,026
-173,183	-200,000	0,014	-0,065
-172,169	-200,000	0,023	-0,154
-171,154	364,188	-0,084	-0,123
-170,139	69,266	0,043	-0,032
-169,125	64,133	0,045	-0,033
-168,110	-33,263	0,104	0,042
-167,096	0,892	0,039	-0,020
-166,081	-38,009	0,056	-0,021
-165,066	-200,000	-0,016	-0,093
-164,052	-200,000	0,027	-0,122
-163,037	-200,000	-0,003	-0,055
-162,023	-200,000	0,006	0,070
-161,008	-200,000	0,003	-0,026
-159,993	423,957	0,082	-0,129
-158,979	210,925	-0,063	0,072
-157,964	377,339	0,060	0,089
-156,950	-102,739	-0,099	0,017
-155,935	48,202	-0,013	-0,009
-154,920	27,775	0,084	0,051
-153,906	-24,502	0,086	0,037
-152,891	663,450	0,040	0,075
-151,877	439,889	-0,088	0,140
-150,862	311,873	0,071	-0,096
-149,847	-200,000	-0,017	-0,062
-148,833	800,000	-0,020	0,063
-147,818	442,372	-0,069	0,110
-146,804	-87,653	-0,051	-0,011
-145,789	-200,000	0,043	0,144
-144,775	73,399	-0,043	-0,033
-143,760	-200,000	0,016	-0,057
-142,745	-200,000	-0,009	-0,109
-141,731	-92,443	-0,156	-0,031
-140,716	-200,000	-0,016	0,129
-139,702	-200,000	0,008	0,065
-138,687	800,000	0,032	-0,083
-137,672	82,739	-0,083	-0,065
-136,658	633,120	-0,078	-0,143
-135,643	-200,000	-0,007	-0,041
-134,629	348,293	-0,010	-0,014
-133,614	138,933	-0,031	-0,030
-132,599	537,283	-0,027	0,047
-131,585	15,567	0,164	-0,093
-130,570	-200,000	0,008	0,034
-129,556	-200,000	0,004	-0,057
-128,541	-75,613	-0,037	0,010
-127,526	-195,147	-0,174	-0,001
-126,512	-88,341	0,120	-0,026
-125,497	57,001	0,147	-0,103
-124,483	236,014	-0,043	0,052
-123,468	-200,000	0,004	0,022
-122,453	147,359	-0,094	-0,092
-121,439	-200,000	-0,031	-0,113
-120,424	-122,301	0,017	0,002
-119,410	138,448	-0,047	0,045
-118,395	-200,000	0,002	0,053
-117,380	-41,955	-0,032	-0,012
-116,366	-10,704	-0,109	-0,052
-115,351	137,497	-0,020	-0,019
-114,337	-197,351	-0,149	0,001
-113,322	-71,022	0,079	-0,021
-112,307	-11,998	0,102	0,048
-111,293	-111,173	-0,075	0,011
-110,278	-96,128	0,019	-0,004
-109,264	-200,000	-0,008	-0,067
-108,249	-57,014	-0,023	-0,007
-107,234	-200,000	-0,031	0,125
-106,220	66,689	-0,066	0,048
-105,205	159,407	-0,063	0,064
-104,191	-93,453	-0,048	-0,010
-103,176	-96,425	0,074	0,014
-102,162	791,655	-0,083	0,165
-101,147	175,730	-0,024	-0,025
-100,132	42,999	-0,064	-0,042
-99,118	-41,337	-0,057	0,021
-98,103	15,842	-0,171	-0,097
-97,089	-164,369	-0,038	-0,001
-96,074	-45,053	-0,107	-0,038
-95,059	90,883	-0,112	0,091
-94,045	-200,000	0,004	-0,141
-93,030	-200,000	-0,001	0,011
-92,016	154,355	0,117	-0,116
-91,001	-183,728	-0,040	0,000
-89,986	21,455	-0,048	0,028
-88,972	-200,000	0,005	0,064
-87,957	800,000	-0,036	0,092
-86,943	800,000	-0,038	-0,120
-85,928	20,273	0,058	-0,034
-84,913	-71,274	-0,095	-0,025
-83,899	615,244	-0,021	0,038
-82,884	40,278	-0,093	0,061
-81,870	195,806	-0,033	0,037
-80,855	-200,000	-0,025	0,167
-79,840	-13,068	0,093	-0,043
-78,826	-200,000	-0,012	-0,075
-77,811	108,476	0,031	-0,026
-76,797	104,970	0,045	-0,038
-75,782	-94,740	0,069	-0,013
-74,767	800,000	-0,067	0,186
-73,753	-56,794	0,061	-0,019
-72,738	193,351	0,018	0,020
-71,724	800,000	-0,013	-0,032
-70,709	-87,428	-0,058	0,013
-69,694	-75,406	-0,068	-0,017
-68,680	111,760	0,095	0,083
-67,665	800,000	0,042	0,120
-66,651	800,000	0,011	0,033
-65,636	-100,575	0,080	0,014
-64,622	-12,489	0,077	-0,036
-63,607	-51,039	0,098	0,033
-62,592	48,300	-0,049	-0,033
-61,578	61,031	0,086	0,062
-60,563	-12,223	0,123	0,058
-59,549	233,429	-0,105	0,125
-58,534	-64,416	-1,763	-0,514
-57,519	581,713	-0,634	-1,127
-56,505	-200,000	-1,090	-4,530
-55,490	-30,273	0,675	0,275
-54,476	800,000	4,944	11,703
-53,461	-200,000	15,314	272,346
-52,446	-200,000	699,194	2240,324
-51,432	572,232	1616,054	2852,312
-50,417	121,589	1621,710	1458,580
-49,403	82,001	1280,653	1000,349
-48,388	37,277	1023,119	652,653
-47,373	22,023	984,747	578,060
-46,359	21,044	973,450	568,199
-45,344	19,366	969,481	560,378
-44,330	19,430	967,999	559,710
-43,315	19,220	966,272	558,005
-42,300	19,153	965,256	557,177
-41,286	19,110	964,393	556,516
-40,271	19,155	963,485	556,116
-39,257	19,181	962,453	555,584
-38,242	19,174	961,673	555,090
-37,227	19,173	960,885	554,609
-36,213	19,191	959,968	554,115
-35,198	19,152	959,169	553,506
-34,184	19,195	958,517	553,246
-33,169	19,135	957,475	552,430
-32,154	19,152	956,557	551,933
-31,140	19,223	955,524	551,543
-30,125	19,196	955,013	551,141
-29,111	19,211	954,038	550,605
-28,096	19,186	953,596	550,247
-27,082	19,193	952,988	549,895
-26,067	19,142	952,139	549,220
-25,052	19,195	951,238	548,851
-24,038	19,164	950,528	548,318
-23,023	19,180	950,036	548,064
-22,009	19,170	949,435	547,663
-20,994	19,149	948,824	547,223
-19,979	19,124	948,283	546,810
-18,965	19,190	947,530	546,563
-17,950	19,129	946,967	546,022
-16,936	19,143	946,299	545,661
-15,921	19,115	945,584	545,139
-14,906	19,043	945,021	544,561
-13,892	19,002	944,377	544,040
-12,877	19,058	943,629	543,764
-11,863	18,977	942,889	543,059
-10,848	19,063	942,456	543,062
-9,833	19,127	941,998	542,977
-8,819	19,096	941,483	542,563
-7,804	19,053	940,884	542,059
-6,790	19,046	940,175	541,607
-5,775	19,092	939,605	541,404
-4,760	19,031	938,992	540,834
-3,746	19,007	938,423	540,410
-2,731	18,937	937,639	539,715
-1,717	18,872	936,873	539,049
-0,702	18,877	936,123	538,613
0,313	18,744	935,656	538,737
1,327	21,129	933,327	544,847
2,342	28,229	807,706	490,694
3,356	23,151	509,046	300,572
4,371	0,572	377,849	194,141
5,386	-1,939	360,795	182,257
6,400	-3,331	354,668	177,454
7,415	-4,137	351,682	174,971
8,429	-4,305	350,107	173,970
9,444	-4,380	349,247	173,437
10,459	-4,528	348,493	172,871
11,473	-4,588	347,751	172,415
12,488	-4,412	347,390	172,431
13,502	-4,363	346,819	172,191
14,517	-4,511	346,234	171,709
15,531	-4,864	345,448	170,886
16,546	-4,825	345,231	170,809
17,561	-5,094	344,612	170,169
18,575	-4,974	344,386	170,185
19,590	-5,095	343,950	169,811
20,604	-5,003	343,562	169,713
21,619	-5,024	343,060	169,425
22,634	-4,898	342,732	169,396
23,648	-5,065	342,341	168,992
24,663	-5,021	342,231	168,974
25,677	-5,118	341,888	168,675
26,692	-5,079	341,541	168,535
27,707	-4,981	341,065	168,400
28,721	-5,155	340,876	168,088
29,736	-5,153	340,667	167,973
30,750	-5,082	340,107	167,765
31,765	-5,059	339,935	167,691
32,780	-5,103	339,643	167,481
33,794	-5,209	339,354	167,201
34,809	-4,982	338,983	167,266
35,823	-5,147	338,689	166,915
36,838	-5,141	338,351	166,741
37,853	-5,269	338,220	166,512
38,867	-5,252	337,969	166,394
39,882	-5,284	337,697	166,208
40,896	-5,220	337,312	166,078
41,911	-5,144	337,044	166,019
42,926	-5,236	336,754	165,755
43,940	-5,186	336,541	165,693
44,955	-5,140	336,237	165,581
45,969	-5,286	335,934	165,250
46,984	-5,472	335,587	164,851
47,999	-5,550	335,303	164,607
49,013	-5,642	335,005	164,341
50,028	-5,766	334,738	164,052
51,042	-5,601	334,451	164,086
52,057	-5,964	334,292	163,578
53,071	-5,703	333,985	163,711
54,086	-5,681	333,743	163,604
55,101	-5,665	333,543	163,510
56,115	-5,311	333,181	163,721
57,130	-5,093	333,120	163,925
58,144	-4,939	332,859	163,957
59,159	-4,853	332,721	163,972
60,174	-5,100	332,404	163,520
61,188	-5,019	332,180	163,488
62,203	-4,928	331,885	163,431
63,217	-4,971	331,681	163,268
64,232	-5,026	331,447	163,076
65,247	-4,896	331,267	163,119
66,261	-4,840	330,923	162,998
67,276	-5,162	330,477	162,401
68,290	-5,282	330,256	162,142
69,305	-5,292	330,039	162,010
70,320	-5,183	329,530	161,868
71,334	-5,113	329,546	161,940
72,349	-4,795	329,404	162,214
73,363	-4,765	328,951	162,010
74,378	-4,856	328,791	161,815
75,393	-4,929	328,470	161,560
76,407	-4,968	328,292	161,415
77,422	-4,923	327,912	161,264
78,436	-4,822	327,820	161,318
79,451	-4,959	327,467	160,976
80,466	-5,119	327,110	160,608
81,480	-5,201	326,873	160,386
82,495	-5,298	326,566	160,113
83,509	-5,357	326,426	159,964
84,524	-5,365	326,099	159,780
85,539	-5,373	325,921	159,670
86,553	-5,382	325,637	159,507
87,568	-5,342	325,440	159,441
88,582	-5,365	325,148	159,258
89,597	-5,204	324,919	159,311
90,611	-5,305	324,892	159,171
91,626	-5,040	324,602	159,307
92,641	-5,083	324,420	159,156
93,655	-5,051	323,989	158,966
94,670	-5,156	323,621	158,656
95,684	-5,111	323,504	158,634
96,699	-5,237	323,321	158,391
97,714	-5,192	323,039	158,288
98,728	-5,390	322,869	157,974
99,743	-5,400	322,651	157,841
100,757	-5,409	322,260	157,627
101,772	-5,408	322,082	157,526
102,787	-5,162	321,879	157,682
103,801	-5,365	321,795	157,405
104,816	-5,026	321,392	157,565
105,830	-5,053	321,333	157,492
106,845	-4,957	321,087	157,462
107,860	-4,759	320,650	157,451
108,874	-5,128	320,611	157,014
109,889	-5,021	320,146	156,889
110,903	-5,179	320,059	156,661
111,918	-5,073	319,758	156,614
112,933	-5,062	319,647	156,558
113,947	-4,933	319,394	156,561
114,962	-5,026	319,207	156,354
115,976	-4,954	318,879	156,257
116,991	-5,141	318,688	155,947
118,006	-5,222	318,606	155,805
119,020	-5,068	318,390	155,853
120,035	-5,008	318,124	155,774
121,049	-4,906	318,062	155,839
122,064	-4,976	317,829	155,636
123,079	-5,139	317,533	155,301
124,093	-5,281	317,308	155,023
125,108	-5,284	316,952	154,833
126,122	-5,302	316,670	154,662
127,137	-5,566	316,335	154,201
128,151	-5,349	316,164	154,336
129,166	-5,381	316,052	154,234
130,181	-5,476	315,801	153,995
131,195	-5,468	315,578	153,882
132,210	-5,021	315,244	154,184
133,224	-5,129	315,138	154,002
134,239	-4,934	315,027	154,143
135,254	-4,987	314,744	153,935
136,268	-4,933	314,456	153,838
137,283	-5,311	314,075	153,234
138,297	-5,471	313,794	152,914
139,312	-5,503	313,720	152,830
140,327	-5,172	313,646	153,132
141,341	-4,933	313,585	153,343
142,356	-4,743	313,319	153,401
143,370	-4,642	313,154	153,414
144,385	-4,535	312,775	153,328
145,400	-4,819	312,616	152,936
146,414	-4,750	312,300	152,841
147,429	-4,748	312,081	152,722
148,443	-4,611	311,893	152,761
149,458	-4,722	311,758	152,564
150,473	-4,686	311,552	152,488
151,487	-4,725	311,298	152,309
152,502	-4,803	311,097	152,115
153,516	-4,694	310,711	152,027
154,531	-4,668	310,596	151,984
155,546	-4,770	310,300	151,719
156,560	-4,860	310,244	151,584
157,575	-4,745	309,710	151,429
158,589	-4,840	309,856	151,387
159,604	-4,696	309,545	151,373
160,619	-4,731	309,296	151,201
161,633	-4,569	309,085	151,254
162,648	-4,862	309,086	150,935
163,662	-4,729	308,746	150,894
164,677	-4,760	308,596	150,774
165,692	-4,770	308,361	150,636
166,706	-4,648	308,070	150,607
167,721	-4,737	308,067	150,500
168,735	-4,622	307,803	150,478
169,750	-4,640	307,630	150,361
170,764	-4,417	307,296	150,416
171,779	-4,588	307,150	150,153
172,794	-4,599	307,003	150,057
173,808	-4,666	306,779	149,864
174,823	-5,090	306,318	149,186
175,837	-5,245	306,010	148,862
176,852	-4,805	306,117	149,357
177,867	-4,712	306,175	149,468
178,881	-4,630	305,792	149,352
179,896	-4,642	305,552	149,210
180,910	-4,609	305,283	149,100
181,925	-4,443	305,100	149,168
182,940	-4,566	304,923	148,941
183,954	-4,550	304,681	148,826
184,969	-4,490	304,539	148,805
185,983	-4,606	304,498	148,652
186,998	-4,483	304,106	148,574
188,013	-4,500	303,956	148,470
189,027	-4,627	303,847	148,273
190,042	-4,515	303,473	148,193
191,056	-4,344	303,485	148,360
192,071	-4,310	303,169	148,228
193,086	-4,340	302,989	148,096
194,100	-4,630	302,818	147,702
195,115	-4,243	302,416	147,888
196,129	-4,450	302,264	147,589
197,144	-4,411	302,033	147,503
198,159	-4,288	301,839	147,521
199,173	-4,428	301,669	147,282
200,188	-4,436	301,577	147,216
201,202	-4,639	301,177	146,801
202,217	-4,955	300,830	146,299
203,232	-5,135	300,582	145,982
204,246	-4,754	300,516	146,323
205,261	-4,568	300,515	146,498
206,275	-4,516	300,207	146,388
207,290	-4,493	300,022	146,308
208,304	-4,617	299,802	146,062
209,319	-4,473	299,698	146,143
210,334	-4,536	299,268	145,857
211,348	-4,473	299,115	145,833
212,363	-4,470	298,918	145,727
213,377	-4,435	298,835	145,709
214,392	-4,608	298,554	145,385
215,407	-4,661	298,282	145,186
216,421	-4,712	297,851	144,912
217,436	-4,849	297,900	144,786
218,450	-4,652	297,710	144,878
219,465	-4,543	297,570	144,906
220,480	-4,721	297,448	144,655
221,494	-4,584	297,177	144,648
222,509	-4,638	296,997	144,493
223,523	-4,523	296,968	144,582
224,538	-4,498	296,784	144,504
225,553	-4,461	296,662	144,468
226,567	-4,447	296,247	144,268
227,582	-4,245	295,959	144,316
228,596	-4,445	295,952	144,100
229,611	-4,506	295,837	143,971
230,626	-4,380	295,354	143,848
231,640	-4,614	295,132	143,494
232,655	-4,996	294,750	142,917
233,669	-5,029	294,697	142,846
234,684	-5,066	294,559	142,729
235,699	-5,236	294,433	142,488
236,713	-5,079	294,197	142,516
237,728	-4,625	293,897	142,806
238,742	-4,733	293,899	142,688
239,757	-4,619	293,809	142,745
240,772	-4,608	293,526	142,605
241,786	-4,748	293,429	142,407
242,801	-4,849	293,171	142,169
243,815	-4,848	293,060	142,104
244,830	-4,519	292,653	142,218
245,844	-4,685	292,518	141,976
246,859	-4,742	292,300	141,802
247,874	-4,728	292,233	141,770
248,888	-4,805	292,106	141,621
249,903	-4,545	291,924	141,775
250,917	-4,303	291,722	141,901
251,932	-4,305	291,747	141,899
252,947	-3,507	292,011	142,797
253,961	-3,415	291,468	142,609
254,976	-2,540	291,856	143,643
255,990	-0,286	292,611	146,213
257,005	0,008	292,475	146,419
258,020	1,423	293,042	148,079
259,034	1,913	293,122	148,586
260,049	1,869	292,715	148,323
261,063	1,669	292,538	148,026
262,078	2,005	292,479	148,311
263,093	2,599	292,478	148,877
264,107	2,638	292,334	148,829
265,122	2,758	292,316	148,924
266,136	2,900	292,169	148,974
267,151	2,679	291,920	148,619
268,166	2,601	291,564	148,348
269,180	2,643	291,357	148,270
270,195	2,694	291,064	148,158
271,209	2,649	291,052	148,095
272,224	2,674	290,811	147,983
273,239	2,326	290,569	147,509
274,253	2,382	290,453	147,492
275,268	2,507	290,354	147,549
276,282	2,720	289,880	147,502
277,297	2,235	289,786	146,972
278,312	2,553	289,556	147,148
279,326	2,698	289,603	147,299
280,341	2,940	289,408	147,421
281,355	2,660	289,194	147,029
282,370	2,689	288,963	146,926
283,384	2,771	288,705	146,861
284,399	2,756	288,668	146,814
285,414	2,647	288,514	146,618
286,428	2,724	288,327	146,584
287,443	2,414	287,897	146,055
288,457	2,393	287,801	145,973
289,472	2,361	287,462	145,757
290,487	2,471	287,218	145,726
291,501	2,370	287,058	145,535
292,516	2,171	286,828	145,215
293,530	2,129	286,745	145,120
294,545	2,391	286,705	145,337
295,560	2,427	286,509	145,260
296,574	2,403	286,156	145,044
297,589	2,458	286,107	145,059
298,603	2,697	285,995	145,216
299,618	2,653	285,832	145,080
300,633	2,644	285,652	144,967
301,647	2,633	285,532	144,882
302,662	2,285	285,361	144,452
303,676	2,228	284,952	144,177
304,691	2,068	284,718	143,895
305,706	1,706	284,458	143,407
306,720	1,582	284,387	143,242
307,735	1,732	283,999	143,175
308,749	1,898	284,054	143,347
309,764	2,031	283,779	143,321
310,779	1,892	283,565	143,070
311,793	1,827	283,169	142,795
312,808	1,863	283,062	142,763
313,822	1,825	282,991	142,678
314,837	1,743	282,800	142,491
315,852	1,597	282,547	142,214
316,866	1,769	282,324	142,251
317,881	1,881	282,203	142,283
318,895	1,782	282,089	142,120
319,910	1,795	281,830	141,989
320,925	1,597	281,684	141,717
321,939	1,976	281,479	141,956
322,954	2,155	281,375	142,058
323,968	2,147	281,183	141,941
324,983	2,159	281,075	141,885
325,997	2,198	280,840	141,790
327,012	2,177	280,665	141,670
328,027	2,067	280,567	141,505
329,041	1,892	280,350	141,219
330,056	1,978	280,099	141,161
331,070	2,046	279,958	141,141
332,085	1,886	279,818	140,909
333,100	2,046	279,639	140,955
334,114	2,032	279,344	140,780
335,129	1,908	279,083	140,522
336,143	2,184	279,156	140,801
337,158	2,337	279,049	140,877
338,173	2,078	278,855	140,527
339,187	1,912	278,605	140,235
340,202	1,979	278,511	140,236
341,216	2,222	278,254	140,320
342,231	2,140	278,035	140,120
343,246	2,149	277,848	140,022
344,260	2,075	277,710	139,872
345,275	2,269	277,651	140,009
346,289	2,649	277,511	140,275
347,304	2,620	277,242	140,100
348,319	2,230	277,054	139,634
349,333	2,304	276,820	139,571
350,348	2,603	276,690	139,768
351,362	2,447	276,679	139,607
352,377	2,466	276,339	139,441
353,392	2,599	276,201	139,480
354,406	2,441	276,185	139,315
355,421	191,363	1327,955	1399,213
356,435	154,726	1456,125	1399,258
