DTS Sentinel unit serial number:	SN410029Multiplexer serial number:	ORYXHardware model number:	OX2-SRSoftware version number:	ORYX F/W v4,00 Oryx Data Collector v3.7.2.0data status	okinstallation	B4 Nyhavnadifferential loss correction	single-endedforward channel	channel 2reverse channel	N/Adate	2023/12/18time	22:50:13forward acquisition time	300,00reverse acquisition time	0,00gamma	499,1914k internal	0,3124k external	0,3124temperature offset calibration	1,0000default loss term (dB/km)	0,3820temperature slope calibration	1,0000multiplexer offset coefficient	1,0000multiplexer slope coefficient	1,0000fibre end	0,00T internal ref (°C)	21,94T ext. ref 1 (°C)	7,49T ext. ref 2 (°C)	7,59length (m)	temperature (°C)	Stokes	anti-Stokes-744,400	130,990	-0,063	-0,060
-743,385	-61,040	-0,253	0,079
-742,371	92,696	0,047	-0,039
-741,356	44,407	-0,202	0,138
-740,342	-78,265	0,104	0,026
-739,327	-6,570	-0,162	0,082
-738,312	198,000	-0,030	0,034
-737,298	73,890	-0,146	-0,114
-736,283	-200,000	-0,023	-0,158
-735,269	-116,148	-0,154	0,021
-734,254	245,171	-0,018	0,023
-733,239	-14,220	-0,357	-0,171
-732,225	18,189	0,087	0,051
-731,210	311,584	-0,049	0,069
-730,196	-148,950	0,061	-0,004
-729,181	101,948	-0,031	-0,027
-728,167	800,000	0,045	0,127
-727,152	441,944	0,040	0,065
-726,137	-87,278	-0,049	-0,011
-725,123	31,855	-0,136	0,087
-724,108	204,586	-0,035	0,041
-723,094	-101,580	-0,058	-0,010
-722,079	518,843	-0,040	0,069
-721,064	-86,567	-0,133	-0,030
-720,050	6,598	-0,144	0,080
-719,035	-200,000	0,007	0,092
-718,021	-178,115	-0,174	0,003
-717,006	-110,524	-0,103	0,016
-715,991	-200,000	0,003	-0,085
-714,977	800,000	0,036	-0,090
-713,962	211,240	0,076	-0,089
-712,948	5,889	-0,041	0,022
-711,933	800,000	-0,021	-0,055
-710,918	207,272	0,005	0,005
-709,904	153,024	0,054	0,055
-708,889	2,788	-0,065	-0,035
-707,875	208,963	-0,023	-0,026
-706,860	46,505	-0,045	-0,031
-705,845	-200,000	0,022	0,114
-704,831	268,368	0,100	0,131
-703,816	293,693	-0,024	0,032
-702,802	-200,000	-0,007	-0,032
-701,787	800,000	-0,011	-0,033
-700,772	-155,634	0,115	-0,005
-699,758	-109,241	-0,105	0,016
-698,743	-72,379	0,115	-0,031
-697,729	-32,256	-0,040	0,017
-696,714	39,092	-0,035	-0,023
-695,699	199,963	-0,023	-0,026
-694,685	23,788	-0,123	-0,075
-693,670	-200,000	-0,020	-0,105
-692,656	26,816	0,048	-0,030
-691,641	163,975	0,068	0,071
-690,627	-200,000	-0,008	0,040
-689,612	497,205	0,066	-0,113
-688,597	11,413	-0,034	-0,019
-687,583	99,970	-0,175	-0,151
-686,568	-124,168	-0,042	0,005
-685,554	-141,168	0,080	-0,006
-684,539	-200,000	0,024	0,133
-683,524	-200,000	0,040	0,150
-682,510	-116,869	0,136	0,018
-681,495	97,053	-0,085	-0,072
-680,481	314,018	-0,076	-0,106
-679,466	415,342	-0,094	-0,150
-678,451	-158,001	0,100	0,004
-677,437	-200,000	0,015	-0,053
-676,422	255,365	0,073	0,093
-675,408	355,709	0,076	0,112
-674,393	-33,691	-0,122	-0,050
-673,378	-200,000	0,028	-0,127
-672,364	-121,158	0,021	0,003
-671,349	800,000	-0,041	0,103
-670,335	-22,364	-0,087	-0,039
-669,320	-127,627	-0,050	-0,005
-668,305	-122,589	-0,099	0,012
-667,291	-200,000	-0,004	-0,017
-666,276	-142,494	-0,090	-0,006
-665,262	800,000	-0,074	-0,172
-664,247	229,373	-0,044	0,053
-663,232	263,509	0,070	0,090
-662,218	-66,423	0,084	-0,025
-661,203	800,000	0,041	0,132
-660,189	800,000	-0,016	-0,040
-659,174	-183,984	-0,136	-0,002
-658,159	800,000	0,047	0,108
-657,145	-200,000	0,001	-0,058
-656,130	-123,666	-0,133	0,015
-655,116	800,000	0,011	-0,026
-654,101	68,638	-0,021	-0,016
-653,086	267,174	-0,077	0,101
-652,072	-200,000	-0,010	-0,081
-651,057	-73,329	-0,116	-0,031
-650,043	800,000	-0,061	-0,134
-649,028	-48,861	0,069	0,024
-648,014	108,213	0,042	0,037
-646,999	60,939	0,110	0,081
-645,984	-200,000	0,007	-0,153
-644,970	338,263	-0,052	0,075
-643,955	800,000	-0,065	-0,210
-642,941	800,000	0,023	-0,050
-641,926	-46,228	0,036	0,013
-640,911	-65,691	0,125	0,037
-639,897	-200,000	0,004	0,162
-638,882	60,644	0,100	0,073
-637,868	178,870	-0,062	-0,067
-636,853	-200,000	0,016	-0,090
-635,838	-31,787	0,050	0,021
-634,824	306,598	-0,107	-0,148
-633,809	-151,130	0,166	0,009
-632,795	136,663	-0,101	0,098
-631,780	-134,911	0,144	-0,013
-630,765	800,000	-0,042	-0,119
-629,751	-200,000	-0,038	0,140
-628,736	800,000	0,023	-0,065
-627,722	53,750	0,092	0,066
-626,707	-82,467	-0,069	-0,016
-625,692	405,772	-0,027	0,043
-624,678	-116,226	0,058	0,008
-623,663	800,000	-0,008	0,017
-622,649	362,104	-0,050	-0,075
-621,634	149,418	0,064	-0,064
-620,619	-200,000	0,015	-0,081
-619,605	51,703	0,083	0,058
-618,590	740,638	-0,051	0,102
-617,576	-29,188	0,041	0,017
-616,561	718,006	0,016	0,031
-615,546	13,573	-0,158	-0,091
-614,532	-35,034	-0,136	-0,055
-613,517	800,000	-0,046	-0,115
-612,503	-200,000	-0,006	-0,082
-611,488	-200,000	-0,012	-0,079
-610,474	800,000	-0,028	-0,065
-609,459	-200,000	0,007	-0,104
-608,444	-200,000	-0,023	0,098
-607,430	47,488	0,066	0,046
-606,415	-200,000	-0,015	0,134
-605,401	284,551	0,043	0,057
-604,386	800,000	-0,051	-0,108
-603,371	337,875	-0,018	0,027
-602,357	91,920	-0,009	-0,007
-601,342	-200,000	-0,006	-0,113
-600,328	-200,000	0,034	-0,126
-599,313	-70,837	0,045	-0,013
-598,298	-63,348	0,106	0,032
-597,284	196,961	-0,016	-0,018
-596,269	-200,000	0,025	-0,115
-595,255	-54,849	-0,033	0,011
-594,240	-86,708	-0,122	0,027
-593,225	64,334	-0,032	0,024
-592,211	800,000	-0,061	-0,190
-591,196	-200,000	0,001	-0,006
-590,182	-200,000	-0,014	0,080
-589,167	-200,000	0,009	0,040
-588,152	-200,000	0,027	-0,121
-587,138	-200,000	0,004	0,026
-586,123	98,926	-0,114	-0,097
-585,109	800,000	0,025	-0,078
-584,094	222,031	0,050	-0,059
-583,079	-200,000	-0,040	-0,168
-582,065	108,209	0,079	0,070
-581,050	256,939	0,077	-0,099
-580,036	-51,768	-0,092	-0,032
-579,021	25,185	-0,059	0,036
-578,006	-18,213	-0,042	-0,019
-576,992	-103,915	0,164	0,028
-575,977	-15,642	0,042	0,020
-574,963	-200,000	0,018	0,085
-573,948	206,532	0,031	0,036
-572,934	9,016	0,075	0,042
-571,919	-200,000	-0,047	-0,178
-570,904	751,554	-0,059	-0,119
-569,890	-200,000	-0,005	0,082
-568,875	-200,000	-0,021	-0,077
-567,861	-8,190	-0,164	0,081
-566,846	800,000	-0,045	0,127
-565,831	-36,556	-0,129	0,051
-564,817	625,020	0,019	0,036
-563,802	195,373	0,037	-0,042
-562,788	298,631	-0,131	-0,179
-561,773	497,884	0,040	-0,068
-560,758	14,177	0,145	-0,083
-559,744	-200,000	-0,003	-0,066
-558,729	-200,000	0,005	-0,065
-557,715	476,372	-0,032	-0,053
-556,700	482,939	-0,075	-0,126
-555,685	-47,301	-0,066	-0,024
-554,671	800,000	-0,013	0,038
-553,656	-116,034	-0,061	-0,008
-552,642	-200,000	-0,001	0,045
-551,627	800,000	0,019	-0,052
-550,612	-66,908	0,125	0,036
-549,598	800,000	-0,055	-0,126
-548,583	-200,000	0,002	-0,070
-547,569	152,452	0,051	-0,052
-546,554	55,377	0,117	0,084
-545,539	727,157	-0,033	0,066
-544,525	-109,646	-0,128	-0,020
-543,510	517,607	-0,053	-0,092
-542,496	294,997	-0,038	-0,051
-541,481	28,317	-0,169	-0,105
-540,466	-131,004	0,105	0,010
-539,452	-82,516	0,094	0,022
-538,437	800,000	-0,021	0,055
-537,423	208,116	-0,093	-0,107
-536,408	-124,224	0,079	-0,009
-535,393	-109,618	-0,089	-0,014
-534,379	-36,075	-0,039	0,016
-533,364	-130,513	-0,031	-0,003
-532,350	-161,007	0,060	-0,002
-531,335	609,965	0,029	0,054
-530,321	538,926	-0,041	0,072
-529,306	-200,000	0,023	-0,097
-528,291	-200,000	0,014	-0,055
-527,277	-10,681	-0,012	-0,006
-526,262	129,564	0,082	0,077
-525,248	297,389	0,075	0,102
-524,233	149,985	0,036	-0,036
-523,218	110,344	-0,101	0,089
-522,204	163,680	0,056	0,058
-521,189	736,646	0,046	-0,092
-520,175	-93,321	-0,097	-0,020
-519,160	518,140	-0,021	0,037
-518,145	800,000	-0,013	-0,035
-517,131	36,770	0,056	-0,037
-516,116	42,437	0,053	0,036
-515,102	132,111	0,071	-0,068
-514,087	212,757	-0,029	0,034
-513,072	-137,352	-0,088	-0,007
-512,058	-161,685	-0,076	-0,003
-511,043	403,574	0,082	0,128
-510,029	800,000	-0,015	-0,036
-509,014	-70,283	0,072	0,020
-507,999	54,290	-0,049	-0,035
-506,985	-120,285	0,078	0,010
-505,970	-163,551	-0,009	-0,000
-504,956	-23,713	-0,014	0,006
-503,941	-200,000	0,017	0,180
-502,926	-63,267	0,042	0,013
-501,912	-109,562	0,057	-0,009
-500,897	-200,000	0,011	-0,084
-499,883	8,236	-0,148	-0,082
-498,868	-179,362	-0,140	0,002
-497,853	-29,815	0,026	-0,011
-496,839	800,000	-0,013	-0,036
-495,824	141,620	0,084	0,082
-494,810	-200,000	-0,020	0,080
-493,795	800,000	0,008	-0,021
-492,781	-25,219	0,051	0,022
-491,766	-17,524	-0,098	-0,045
-490,751	-71,173	-0,065	-0,018
-489,737	-64,586	-0,122	0,036
-488,722	-78,367	-0,068	-0,017
-487,708	-100,437	0,131	-0,024
-486,693	-139,861	0,016	-0,001
-485,678	474,779	-0,039	-0,066
-484,664	-49,387	0,058	-0,020
-483,649	-44,458	0,061	-0,022
-482,635	-200,000	-0,112	0,000
-481,620	-200,000	0,013	-0,087
-480,605	-200,000	-0,036	0,151
-479,591	800,000	-0,027	0,068
-478,576	-61,313	-0,100	0,031
-477,562	-3,200	0,047	-0,024
-476,547	-49,380	-0,005	-0,002
-475,532	-85,358	-0,097	0,022
-474,518	-200,000	0,010	-0,076
-473,503	52,070	0,058	0,040
-472,489	-177,986	-0,078	-0,001
-471,474	-167,467	0,101	0,003
-470,459	-200,000	0,033	-0,150
-469,445	110,827	0,046	-0,041
-468,430	-200,000	0,004	-0,110
-467,416	42,520	-0,106	-0,071
-466,401	800,000	0,036	0,108
-465,386	-7,260	0,081	0,040
-464,372	114,846	0,071	0,064
-463,357	136,403	-0,127	-0,122
-462,343	-87,130	0,033	-0,007
-461,328	98,651	-0,072	-0,061
-460,313	800,000	0,068	0,163
-459,299	167,362	-0,093	0,098
-458,284	-200,000	0,013	0,072
-457,270	-200,000	0,015	-0,138
-456,255	-200,000	-0,002	-0,084
-455,241	800,000	0,037	-0,098
-454,226	-200,000	-0,023	-0,091
-453,211	-200,000	0,016	0,107
-452,197	-200,000	-0,016	0,135
-451,182	186,197	-0,068	0,075
-450,168	-200,000	0,022	0,079
-449,153	35,868	0,040	0,026
-448,138	91,536	-0,049	0,040
-447,124	635,291	0,029	-0,055
-446,109	469,114	0,064	-0,107
-445,095	-25,420	0,089	0,038
-444,080	800,000	0,036	-0,083
-443,065	577,894	-0,045	0,081
-442,051	-200,000	0,002	0,058
-441,036	-70,368	-0,014	-0,004
-440,022	291,150	0,073	-0,098
-439,007	158,175	0,118	-0,120
-437,992	322,869	-0,025	0,035
-436,978	6,681	-0,056	0,031
-435,963	-88,615	0,138	0,030
-434,949	800,000	-0,009	-0,023
-433,934	786,076	0,013	-0,027
-432,919	87,729	-0,037	-0,030
-431,905	107,733	-0,075	0,066
-430,890	800,000	-0,006	-0,017
-429,876	145,071	0,081	-0,079
-428,861	-42,190	0,104	0,039
-427,846	41,999	0,105	0,070
-426,832	-111,094	0,028	0,004
-425,817	-103,146	-0,102	-0,018
-424,803	800,000	-0,063	0,134
-423,788	153,245	0,041	-0,041
-422,773	38,522	0,111	0,073
-421,759	174,314	0,073	-0,078
-420,744	257,618	0,098	-0,125
-419,730	86,096	-0,064	-0,052
-418,715	800,000	-0,013	0,028
-417,701	-59,996	-0,092	0,029
-416,686	316,967	-0,070	0,097
-415,671	-200,000	0,003	0,067
-414,657	-152,082	0,133	-0,007
-413,642	-200,000	0,010	0,036
-412,628	-3,463	0,058	-0,029
-411,613	800,000	0,039	-0,084
-410,598	-200,000	0,003	-0,052
-409,584	-96,131	0,118	0,023
-408,569	-200,000	0,050	0,195
-407,555	-6,714	-0,134	0,067
-406,540	337,158	0,033	0,047
-405,525	-52,768	-0,166	0,056
-404,511	-200,000	-0,005	-0,080
-403,496	-16,179	0,102	-0,048
-402,482	-153,594	0,125	0,006
-401,467	166,551	0,163	0,170
-400,452	229,954	-0,066	-0,079
-399,438	340,960	0,044	0,063
-398,423	239,911	0,056	-0,068
-397,409	-200,000	0,006	-0,092
-396,394	197,525	-0,032	-0,035
-395,379	735,882	-0,045	-0,090
-394,365	557,345	0,055	-0,099
-393,350	-200,000	-0,006	0,076
-392,336	-113,309	-0,086	0,012
-391,321	29,953	-0,122	0,077
-390,306	372,277	0,029	0,044
-389,292	-200,000	-0,020	-0,123
-388,277	800,000	0,015	-0,042
-387,263	-200,000	0,004	0,027
-386,248	146,630	-0,052	0,052
-385,233	-80,638	0,132	0,032
-384,219	800,000	0,043	0,139
-383,204	-122,352	-0,071	-0,008
-382,190	800,000	0,028	-0,069
-381,175	800,000	-0,067	-0,147
-380,160	72,957	0,056	0,043
-379,146	-200,000	0,003	0,042
-378,131	-71,615	0,126	0,034
-377,117	-100,063	-0,080	0,015
-376,102	516,020	0,013	0,022
-375,088	800,000	-0,038	0,124
-374,073	-27,193	-0,084	-0,036
-373,058	132,464	-0,037	0,035
-372,044	-108,008	-0,085	-0,013
-371,029	-89,007	0,064	-0,014
-370,015	-200,000	0,009	0,146
-369,000	800,000	0,019	-0,050
-367,985	-200,000	-0,005	0,037
-366,971	-62,521	0,036	0,011
-365,956	-135,539	-0,147	-0,013
-364,942	-39,881	0,165	-0,063
-363,927	1,955	-0,056	-0,030
-362,912	341,101	-0,041	-0,059
-361,898	800,000	-0,017	-0,051
-360,883	-56,173	0,111	0,036
-359,869	3,595	-0,053	0,028
-358,854	403,814	-0,056	0,087
-357,839	800,000	-0,045	0,139
-356,825	385,112	0,034	-0,052
-355,810	800,000	0,037	-0,079
-354,796	283,022	-0,055	-0,073
-353,781	800,000	0,005	0,013
-352,766	800,000	0,038	0,081
-351,752	115,360	0,106	0,095
-350,737	-200,000	0,006	0,073
-349,723	800,000	-0,016	0,046
-348,708	-165,199	0,130	-0,004
-347,693	-98,963	-0,042	0,008
-346,679	432,511	-0,020	-0,032
-345,664	114,484	-0,061	-0,054
-344,650	-116,148	0,095	0,013
-343,635	-73,443	-0,059	0,016
-342,620	-73,575	-0,033	-0,009
-341,606	218,989	0,078	-0,091
-340,591	-104,748	0,102	0,017
-339,577	19,992	-0,136	0,080
-338,562	207,078	-0,070	-0,080
-337,548	71,151	-0,076	-0,058
-336,533	126,265	0,100	0,093
-335,518	55,712	-0,184	-0,131
-334,504	800,000	0,028	-0,068
-333,489	-82,648	0,081	0,019
-332,475	142,421	0,053	0,052
-331,460	756,095	-0,076	-0,152
-330,445	800,000	-0,018	-0,048
-329,431	8,889	0,049	0,027
-328,416	109,561	0,045	0,040
-327,402	665,789	-0,111	0,212
-326,387	-200,000	-0,003	0,080
-325,372	-80,838	-0,091	-0,022
-324,358	-65,919	-0,024	0,007
-323,343	243,927	-0,131	0,161
-322,329	-165,657	-0,043	-0,001
-321,314	-38,770	0,033	0,013
-320,299	85,085	0,071	0,057
-319,285	-135,398	0,159	-0,014
-318,270	55,668	0,128	-0,091
-317,256	123,907	-0,028	-0,026
-316,241	409,049	0,063	-0,099
-315,226	-90,408	-0,033	-0,007
-314,212	-200,000	0,006	0,115
-313,197	531,973	0,022	-0,039
-312,183	-42,851	0,103	0,038
-311,168	411,730	0,077	-0,120
-310,153	413,201	-0,065	0,101
-309,139	176,921	0,066	0,070
-308,124	-12,451	-0,078	-0,037
-307,110	176,808	0,104	0,110
-306,095	45,415	-0,113	0,076
-305,080	107,331	-0,053	-0,046
-304,066	-200,000	-0,004	0,116
-303,051	-143,905	0,070	0,005
-302,037	402,525	0,086	-0,133
-301,022	-37,487	-0,025	0,010
-300,008	-36,960	0,135	0,053
-298,993	-200,000	0,015	0,108
-297,978	520,494	0,038	0,066
-296,964	172,031	0,066	-0,070
-295,949	-72,129	-0,079	-0,021
-294,935	-200,000	-0,005	-0,058
-293,920	121,343	0,070	0,064
-292,905	800,000	0,025	0,053
-291,891	-200,000	-0,021	0,111
-290,876	432,766	-0,045	0,071
-289,862	-118,675	0,105	0,013
-288,847	220,771	-0,059	0,069
-287,832	-200,000	-0,007	-0,075
-286,818	-86,896	0,043	0,010
-285,803	14,364	-0,097	-0,055
-284,789	800,000	-0,027	0,074
-283,774	-200,000	0,014	0,153
-282,759	-121,495	0,076	0,009
-281,745	-200,000	0,001	0,019
-280,730	136,789	-0,064	-0,061
-279,716	-98,347	-0,110	0,020
-278,701	126,826	0,151	-0,140
-277,686	-176,018	0,152	0,003
-276,672	-81,970	-0,042	0,010
-275,657	106,927	0,023	0,020
-274,643	57,405	0,035	0,025
-273,628	800,000	-0,006	-0,016
-272,613	-8,506	0,038	0,019
-271,599	454,121	0,012	0,020
-270,584	470,841	0,057	0,095
-269,570	-200,000	-0,039	0,166
-268,555	-197,301	0,169	0,001
-267,540	4,771	0,107	-0,057
-266,526	2,943	-0,084	-0,045
-265,511	800,000	-0,012	0,035
-264,497	-29,922	-0,093	-0,039
-263,482	36,182	-0,047	0,031
-262,467	185,651	-0,100	0,109
-261,453	-200,000	-0,019	0,068
-260,438	66,820	-0,053	-0,039
-259,424	41,192	-0,165	-0,109
-258,409	337,169	-0,051	-0,073
-257,395	-200,000	-0,002	0,084
-256,380	-200,000	0,014	0,087
-255,365	-200,000	0,001	0,013
-254,351	50,288	0,084	-0,058
-253,336	-36,947	-0,104	-0,041
-252,322	773,080	-0,048	-0,097
-251,307	134,443	-0,059	-0,056
-250,292	-50,826	0,089	0,030
-249,278	-200,000	0,013	0,076
-248,263	-200,000	-0,007	0,158
-247,249	13,318	-0,125	0,071
-246,234	800,000	-0,071	-0,159
-245,219	-200,000	-0,004	-0,129
-244,205	-21,757	0,108	-0,048
-243,190	-70,192	0,118	-0,033
-242,176	-11,228	-0,072	0,034
-241,161	73,445	0,094	0,072
-240,146	-103,655	-0,090	0,015
-239,132	-109,972	-0,056	0,008
-238,117	800,000	0,024	-0,055
-237,103	-200,000	-0,002	-0,113
-236,088	57,543	-0,057	-0,041
-235,073	-200,000	-0,007	0,048
-234,059	-123,072	0,171	0,020
-233,044	37,993	-0,100	-0,065
-232,030	318,608	-0,042	-0,059
-231,015	800,000	-0,057	-0,144
-230,000	-61,088	-0,134	-0,041
-228,986	-200,000	-0,008	0,101
-227,971	-128,149	0,146	-0,015
-226,957	-200,000	0,021	0,162
-225,942	-200,000	0,015	0,050
-224,927	800,000	0,027	-0,063
-223,913	-86,186	-0,085	-0,019
-222,898	800,000	0,044	-0,127
-221,884	-160,121	-0,025	0,001
-220,869	-200,000	0,002	0,044
-219,855	57,896	-0,052	0,037
-218,840	-200,000	-0,008	0,095
-217,825	-200,000	0,001	-0,025
-216,811	800,000	0,037	-0,084
-215,796	-33,126	-0,042	-0,017
-214,782	-8,052	0,065	-0,032
-213,767	508,674	0,045	-0,077
-212,752	-86,185	-0,085	0,019
-211,738	79,352	-0,066	0,052
-210,723	-167,111	0,142	-0,004
-209,709	167,471	-0,078	-0,080
-208,694	-200,000	0,006	-0,092
-207,679	-146,319	0,043	0,003
-206,665	636,409	0,049	0,091
-205,650	800,000	0,026	0,080
-204,636	-200,000	0,010	0,155
-203,621	317,918	0,024	0,033
-202,606	-200,000	-0,015	0,058
-201,592	800,000	-0,009	0,020
-200,577	181,418	-0,086	0,092
-199,563	253,129	0,040	0,050
-198,548	128,422	0,050	0,046
-197,533	-200,000	-0,002	-0,056
-196,519	86,052	0,079	0,063
-195,504	-75,778	-0,185	-0,048
-194,490	-200,000	0,040	-0,189
-193,475	-200,000	-0,030	-0,169
-192,460	800,000	0,031	-0,085
-191,446	653,833	0,035	0,066
-190,431	-200,000	0,048	0,168
-189,417	-200,000	-0,001	-0,032
-188,402	-123,418	-0,145	0,017
-187,387	0,338	0,031	0,016
-186,373	-52,443	-0,134	-0,045
-185,358	800,000	0,060	0,123
-184,344	83,844	-0,058	0,046
-183,329	58,026	-0,040	0,028
-182,315	121,707	0,012	0,011
-181,300	-132,491	-0,175	-0,016
-180,285	30,391	-0,093	-0,057
-179,271	-99,203	0,150	0,027
-178,256	14,386	0,040	-0,022
-177,242	-200,000	-0,041	0,155
-176,227	56,297	-0,105	0,074
-175,212	87,340	-0,033	-0,026
-174,198	-91,181	0,089	-0,019
-173,183	40,610	-0,086	0,056
-172,169	-45,673	0,074	-0,026
-171,154	104,996	-0,026	0,022
-170,139	-200,000	-0,017	0,103
-169,125	-200,000	-0,011	0,083
-168,110	-50,230	0,060	0,020
-167,096	-200,000	0,004	0,042
-166,081	66,374	-0,054	0,040
-165,066	-200,000	0,005	-0,087
-164,052	90,444	0,023	0,018
-163,037	-200,000	-0,012	-0,048
-162,023	-200,000	0,009	-0,088
-161,008	800,000	-0,061	0,177
-159,993	353,207	0,077	-0,112
-158,979	378,001	0,039	-0,059
-157,964	-200,000	-0,001	-0,056
-156,950	-88,425	0,026	0,006
-155,935	527,728	0,017	0,029
-154,920	-108,813	-0,131	0,020
-153,906	-200,000	0,010	0,130
-152,891	70,289	-0,132	0,100
-151,877	-200,000	-0,003	-0,022
-150,862	-56,212	-0,123	0,040
-149,847	353,548	-0,056	0,081
-148,833	254,292	0,054	0,067
-147,818	-42,573	0,213	0,079
-146,804	198,399	0,070	0,078
-145,789	-12,957	-0,060	0,028
-144,775	800,000	-0,015	0,033
-143,760	105,510	0,054	-0,046
-142,745	-79,118	-0,074	-0,018
-141,731	-200,000	-0,009	0,044
-140,716	422,326	0,047	-0,073
-139,702	479,932	0,092	0,152
-138,687	-56,024	-0,026	0,008
-137,672	270,729	-0,023	0,030
-136,658	26,205	-0,159	-0,096
-135,643	38,754	0,061	-0,039
-134,629	-200,000	-0,004	-0,047
-133,614	206,069	-0,022	0,025
-132,599	200,984	-0,019	-0,021
-131,585	800,000	0,027	0,055
-130,570	-124,169	0,078	0,009
-129,556	261,439	0,051	0,064
-128,541	358,730	-0,085	-0,124
-127,526	532,427	-0,061	-0,105
-126,512	800,000	-0,012	0,025
-125,497	-17,337	0,176	0,080
-124,483	-200,000	-0,016	0,099
-123,468	509,886	0,068	-0,115
-122,453	-184,549	-0,122	-0,001
-121,439	-152,123	-0,136	-0,007
-120,424	800,000	-0,059	-0,152
-119,410	509,244	0,046	0,078
-118,395	-45,207	0,058	-0,021
-117,380	267,652	0,088	0,113
-116,366	83,394	0,109	-0,087
-115,351	21,584	-0,214	0,126
-114,337	140,045	-0,066	-0,063
-113,322	471,380	-0,049	-0,081
-112,307	154,246	-0,053	-0,052
-111,293	219,536	0,026	0,031
-110,278	-107,772	0,070	0,011
-109,264	-22,324	0,039	0,017
-108,249	201,240	0,031	0,035
-107,234	-7,607	-0,059	0,029
-106,220	-200,000	0,042	-0,174
-105,205	-152,129	-0,053	-0,003
-104,191	-24,337	0,075	0,032
-103,176	-200,000	-0,005	-0,053
-102,162	-157,552	0,086	0,004
-101,147	157,750	-0,026	-0,026
-100,132	-171,355	-0,082	-0,002
-99,118	-44,547	-0,116	0,042
-98,103	223,936	0,063	-0,075
-97,089	28,487	-0,047	0,029
-96,074	-130,950	0,087	0,008
-95,059	410,849	0,100	-0,155
-94,045	-169,840	-0,089	-0,002
-93,030	211,778	-0,031	0,036
-92,016	28,093	-0,220	0,135
-91,001	134,177	0,101	0,095
-89,986	-122,022	-0,127	-0,015
-88,972	89,060	0,067	0,054
-87,957	-34,071	0,087	0,035
-86,943	377,240	0,032	0,048
-85,928	287,974	-0,048	-0,063
-84,913	9,122	0,066	-0,036
-83,899	224,520	0,060	0,071
-82,884	115,154	0,041	-0,036
-81,870	800,000	0,045	-0,129
-80,855	120,224	-0,011	0,010
-79,840	-23,114	0,038	-0,016
-78,826	227,048	0,040	-0,047
-77,811	21,049	0,082	0,048
-76,797	95,121	-0,096	0,080
-75,782	516,258	-0,061	-0,104
-74,767	504,324	0,027	0,045
-73,753	56,463	-0,128	0,090
-72,738	-57,644	0,074	-0,023
-71,724	131,767	-0,101	0,095
-70,709	298,950	-0,059	0,079
-69,694	-200,000	-0,026	-0,087
-68,680	-64,645	-0,074	-0,022
-67,665	-162,916	0,169	-0,006
-66,651	18,386	-0,053	-0,030
-65,636	199,774	0,076	-0,085
-64,622	-52,813	-0,151	0,050
-63,607	257,792	-0,060	-0,075
-62,592	-46,229	-0,123	0,044
-61,578	-31,429	-0,057	-0,023
-60,563	-200,000	-0,004	0,085
-59,549	344,359	-0,081	0,115
-58,534	-158,705	-1,420	-0,058
-57,519	501,281	-0,812	-1,365
-56,505	-200,000	-0,811	-4,425
-55,490	-2,279	0,563	-0,286
-54,476	800,000	4,926	11,786
-53,461	-200,000	13,846	252,351
-52,446	-200,000	692,861	2259,828
-51,432	600,732	1623,107	2935,752
-50,417	117,893	1632,825	1458,729
-49,403	73,643	1286,758	976,725
-48,388	37,528	1023,070	656,891
-47,373	23,998	981,423	585,672
-46,359	23,216	970,848	576,774
-45,344	22,196	966,439	570,802
-44,330	22,101	965,063	569,657
-43,315	22,004	963,721	568,527
-42,300	21,924	962,717	567,653
-41,286	21,948	961,827	567,182
-40,271	21,942	960,700	566,475
-39,257	21,950	959,673	565,872
-38,242	21,993	958,746	565,444
-37,227	21,932	958,038	564,808
-36,213	21,891	957,121	564,111
-35,198	21,853	956,285	563,472
-34,184	21,989	955,620	563,496
-33,169	21,925	954,768	562,768
-32,154	21,988	953,792	562,372
-31,140	21,990	952,856	561,805
-30,125	21,987	952,195	561,383
-29,111	22,008	951,072	560,764
-28,096	22,024	950,489	560,451
-27,082	22,013	949,914	560,054
-26,067	21,983	949,106	559,459
-25,052	21,914	948,437	558,821
-24,038	22,009	947,771	558,713
-23,023	21,913	947,279	558,094
-22,009	21,972	946,541	557,825
-20,994	22,028	945,723	557,500
-19,979	21,928	945,449	556,996
-18,965	22,019	944,487	556,697
-17,950	21,974	943,958	556,220
-16,936	21,935	943,284	555,677
-15,921	21,972	942,531	555,330
-14,906	21,877	941,839	554,596
-13,892	21,898	941,198	554,265
-12,877	21,865	940,684	553,834
-11,863	21,802	940,086	553,261
-10,848	21,880	939,424	553,098
-9,833	21,937	939,140	553,089
-8,819	21,952	938,362	552,654
-7,804	21,886	937,764	552,072
-6,790	21,897	936,981	551,623
-5,775	21,843	936,664	551,243
-4,760	21,886	935,829	550,869
-3,746	21,853	935,373	550,473
-2,731	21,650	934,568	549,335
-1,717	21,683	933,825	548,981
-0,702	21,647	933,218	548,490
0,313	21,497	932,674	548,526
1,327	23,984	930,283	554,885
2,342	31,762	808,959	503,603
3,356	26,804	509,399	308,622
4,371	2,548	374,130	195,778
5,386	-0,510	357,135	183,111
6,400	-1,684	350,986	178,523
7,415	-2,589	348,097	175,952
8,429	-2,917	346,699	174,838
9,444	-2,960	345,758	174,297
10,459	-2,852	345,099	174,078
11,473	-2,821	344,193	173,642
12,488	-2,832	343,867	173,449
13,502	-2,810	343,293	173,170
14,517	-2,899	342,879	172,841
15,531	-2,812	342,167	172,568
16,546	-2,859	341,855	172,341
17,561	-2,960	341,464	172,009
18,575	-2,716	340,957	172,026
19,590	-2,818	340,611	171,716
20,604	-2,823	340,320	171,548
21,619	-2,936	339,986	171,232
22,634	-2,883	339,469	171,019
23,648	-2,897	339,167	170,835
24,663	-2,693	338,775	170,859
25,677	-2,773	338,531	170,629
26,692	-2,603	338,058	170,573
27,707	-2,889	337,988	170,189
28,721	-2,862	337,689	170,054
29,736	-2,646	337,177	170,032
30,750	-2,903	337,108	169,685
31,765	-2,976	336,952	169,506
32,780	-2,832	336,438	169,399
33,794	-2,937	336,236	169,161
34,809	-2,733	335,894	169,209
35,823	-2,896	335,766	168,941
36,838	-2,908	335,432	168,745
37,853	-2,764	334,971	168,664
38,867	-2,847	334,969	168,552
39,882	-2,815	334,501	168,338
40,896	-2,840	334,289	168,188
41,911	-2,812	333,860	167,989
42,926	-2,876	333,724	167,832
43,940	-2,719	333,385	167,826
44,955	-2,976	333,267	167,458
45,969	-2,762	332,752	167,429
46,984	-2,864	332,700	167,271
47,999	-2,944	332,369	166,999
49,013	-2,719	332,131	167,121
50,028	-2,789	331,875	166,898
51,042	-2,975	331,768	166,616
52,057	-2,835	331,287	166,519
53,071	-2,888	331,127	166,363
54,086	-2,893	330,836	166,197
55,101	-2,972	330,648	165,998
56,115	-2,899	330,449	165,966
57,130	-2,851	330,232	165,897
58,144	-2,805	329,835	165,735
59,159	-3,002	329,681	165,420
60,174	-2,761	329,345	165,508
61,188	-2,763	329,075	165,356
62,203	-2,803	328,742	165,129
63,217	-2,724	328,474	165,068
64,232	-2,773	328,257	164,890
65,247	-2,814	327,927	164,663
66,261	-2,868	327,740	164,494
67,276	-2,707	327,440	164,510
68,290	-2,909	327,333	164,214
69,305	-2,792	326,857	164,092
70,320	-2,858	326,638	163,893
71,334	-2,720	326,504	163,966
72,349	-2,848	326,201	163,656
73,363	-2,875	325,977	163,499
74,378	-2,712	325,580	163,467
75,393	-2,663	325,465	163,449
76,407	-2,789	325,272	163,198
77,422	-2,797	324,935	163,005
78,436	-2,782	324,817	162,947
79,451	-2,777	324,351	162,705
80,466	-2,964	324,225	162,420
81,480	-2,755	324,059	162,554
82,495	-2,701	323,750	162,444
83,509	-2,856	323,517	162,141
84,524	-2,937	323,229	161,892
85,539	-3,046	323,099	161,693
86,553	-2,801	322,808	161,804
87,568	-2,927	322,450	161,471
88,582	-2,817	322,206	161,455
89,597	-2,933	322,172	161,296
90,611	-2,722	321,747	161,301
91,626	-2,863	321,710	161,113
92,641	-2,877	321,295	160,876
93,655	-2,819	321,021	160,788
94,670	-2,825	320,944	160,729
95,684	-2,755	320,595	160,615
96,699	-2,857	320,493	160,439
97,714	-2,792	320,117	160,307
98,728	-2,813	320,014	160,218
99,743	-2,806	319,775	160,092
100,757	-2,777	319,592	160,018
101,772	-2,750	319,195	159,834
102,787	-2,862	319,028	159,614
103,801	-2,787	318,747	159,541
104,816	-2,734	318,506	159,464
105,830	-2,777	318,460	159,379
106,845	-2,740	318,075	159,214
107,860	-2,697	317,894	159,154
108,874	-2,738	317,486	158,892
109,889	-2,587	317,395	158,996
110,903	-2,664	317,077	158,739
111,918	-2,817	317,012	158,526
112,933	-2,795	316,749	158,405
113,947	-2,663	316,392	158,355
114,962	-2,785	316,366	158,196
115,976	-2,681	316,025	158,123
116,991	-2,695	315,711	157,937
118,006	-3,035	315,637	157,520
119,020	-2,750	315,487	157,738
120,035	-2,762	315,283	157,609
121,049	-2,716	314,943	157,475
122,064	-2,845	314,844	157,272
123,079	-2,749	314,638	157,258
124,093	-2,778	314,240	157,014
125,108	-2,851	313,915	156,760
126,122	-2,751	313,668	156,729
127,137	-2,853	313,548	156,547
128,151	-2,786	313,340	156,500
129,166	-2,877	313,229	156,334
130,181	-2,745	312,863	156,278
131,195	-2,735	312,646	156,167
132,210	-2,781	312,459	156,010
133,224	-2,784	312,331	155,929
134,239	-2,757	312,080	155,818
135,254	-2,919	311,937	155,561
136,268	-2,731	311,534	155,545
137,283	-2,791	311,230	155,317
138,297	-2,824	311,111	155,208
139,312	-2,800	310,820	155,074
140,327	-2,828	310,688	154,965
141,341	-2,702	310,540	155,010
142,356	-2,711	310,424	154,929
143,370	-2,816	310,063	154,624
144,385	-2,751	309,907	154,602
145,400	-2,699	309,629	154,504
146,414	-2,719	309,520	154,415
147,429	-2,711	309,176	154,238
148,443	-2,724	308,901	154,073
149,458	-2,793	308,837	153,955
150,473	-2,649	308,467	153,908
151,487	-2,570	308,213	153,851
152,502	-2,700	308,065	153,626
153,516	-2,756	307,901	153,472
154,531	-2,678	307,599	153,390
155,546	-2,618	307,377	153,328
156,560	-2,569	307,218	153,286
157,575	-2,615	306,940	153,086
158,589	-2,719	306,912	152,950
159,604	-2,744	306,588	152,749
160,619	-2,711	306,375	152,663
161,633	-2,687	306,006	152,491
162,648	-2,877	305,948	152,250
163,662	-2,820	305,837	152,241
164,677	-2,791	305,568	152,123
165,692	-2,704	305,348	152,091
166,706	-2,511	305,177	152,193
167,721	-2,611	305,043	152,008
168,735	-2,628	304,683	151,798
169,750	-2,511	304,498	151,814
170,764	-2,722	304,388	151,527
171,779	-2,685	304,228	151,472
172,794	-2,741	303,956	151,265
173,808	-2,742	303,851	151,198
174,823	-2,721	303,531	151,047
175,837	-2,561	303,331	151,098
176,852	-2,629	303,040	150,870
177,867	-2,731	303,071	150,767
178,881	-2,711	302,938	150,708
179,896	-2,542	302,509	150,655
180,910	-2,577	302,376	150,540
181,925	-2,706	302,163	150,287
182,940	-2,529	302,024	150,387
183,954	-2,580	301,768	150,194
184,969	-2,633	301,544	150,015
185,983	-2,569	301,408	149,999
186,998	-2,542	301,051	149,835
188,013	-2,587	300,902	149,702
189,027	-2,563	300,573	149,549
190,042	-2,681	300,618	149,438
191,056	-2,632	300,244	149,288
192,071	-2,638	300,077	149,187
193,086	-2,632	299,871	149,077
194,100	-2,537	299,749	149,100
195,115	-2,670	299,447	148,801
196,129	-2,485	299,228	148,866
197,144	-2,658	299,161	148,644
198,159	-2,622	298,808	148,492
199,173	-2,680	298,742	148,387
200,188	-2,617	298,324	148,230
201,202	-2,759	298,235	148,029
202,217	-2,648	297,864	147,944
203,232	-2,754	297,761	147,773
204,246	-2,661	297,560	147,754
205,261	-2,546	297,257	147,705
206,275	-2,531	297,146	147,653
207,290	-2,570	296,885	147,470
208,304	-2,568	296,728	147,381
209,319	-2,666	296,568	147,190
210,334	-2,673	296,497	147,135
211,348	-2,504	296,254	147,171
212,363	-2,621	295,874	146,852
213,377	-2,712	295,748	146,685
214,392	-2,620	295,613	146,697
215,407	-2,537	295,368	146,645
216,421	-2,488	295,157	146,576
217,436	-2,599	294,897	146,324
218,450	-2,642	294,898	146,268
219,465	-2,706	294,677	146,081
220,480	-2,787	294,439	145,869
221,494	-2,601	294,175	145,911
222,509	-2,555	294,105	145,909
223,523	-2,537	293,799	145,762
224,538	-2,579	293,636	145,627
225,553	-2,468	293,369	145,591
226,567	-2,701	293,313	145,319
227,582	-2,478	293,149	145,446
228,596	-2,485	293,033	145,368
229,611	-2,570	292,742	145,127
230,626	-2,463	292,562	145,131
231,640	-2,595	292,308	144,862
232,655	-2,609	292,094	144,729
233,669	-2,679	291,892	144,547
234,684	-2,669	291,673	144,435
235,699	-2,708	291,554	144,324
236,713	-2,644	291,323	144,260
237,728	-2,560	291,103	144,221
238,742	-2,773	291,056	143,976
239,757	-2,572	290,756	144,013
240,772	-2,572	290,519	143,882
241,786	-2,672	290,399	143,712
242,801	-2,593	290,273	143,714
243,815	-2,610	290,145	143,621
244,830	-2,535	289,940	143,580
245,844	-2,589	289,618	143,355
246,859	-2,674	289,435	143,169
247,874	-2,631	289,302	143,132
248,888	-2,518	288,988	143,074
249,903	-2,613	289,116	143,032
250,917	-2,606	288,825	142,882
251,932	-2,610	288,657	142,783
252,947	-2,535	288,455	142,742
253,961	-2,260	288,243	142,893
254,976	-1,925	288,277	143,222
255,990	-2,092	287,961	142,890
257,005	-2,193	287,747	142,673
258,020	-0,710	288,243	144,347
259,034	0,970	288,648	146,169
260,049	1,371	288,816	146,631
261,063	1,709	288,718	146,896
262,078	1,962	288,742	147,140
263,093	2,152	288,534	147,206
264,107	2,508	288,404	147,471
265,122	2,757	288,224	147,606
266,136	2,863	288,181	147,674
267,151	2,892	287,949	147,570
268,166	2,629	287,850	147,252
269,180	2,775	287,610	147,257
270,195	2,730	287,410	147,098
271,209	2,751	287,266	147,031
272,224	2,667	287,015	146,809
273,239	2,726	286,864	146,776
274,253	2,615	286,608	146,525
275,268	2,660	286,285	146,389
276,282	2,567	286,260	146,275
277,297	2,535	286,054	146,126
278,312	2,572	285,947	146,093
279,326	2,537	285,672	145,907
280,341	2,580	285,453	145,822
281,355	2,511	285,253	145,641
282,370	2,472	285,028	145,477
283,384	2,453	284,902	145,382
284,399	2,594	284,736	145,418
285,414	2,614	284,544	145,325
286,428	2,443	284,374	145,063
287,443	2,373	284,222	144,905
288,457	2,431	284,066	144,869
289,472	2,551	283,712	144,789
290,487	2,363	283,563	144,522
291,501	2,385	283,445	144,470
292,516	2,390	283,259	144,367
293,530	2,378	282,913	144,166
294,545	2,467	282,697	144,128
295,560	2,411	282,755	144,092
296,574	2,206	282,406	143,706
297,589	2,189	282,092	143,518
298,603	2,498	281,946	143,722
299,618	2,320	281,869	143,502
300,633	2,472	281,823	143,610
301,647	2,486	281,487	143,439
302,662	2,387	281,402	143,289
303,676	2,639	281,190	143,406
304,691	2,704	280,992	143,353
305,706	2,596	280,903	143,194
306,720	2,533	280,776	143,057
307,735	2,740	280,454	143,074
308,749	2,821	280,319	143,069
309,764	2,744	280,283	142,965
310,779	2,764	279,825	142,738
311,793	2,589	279,718	142,506
312,808	2,620	279,523	142,424
313,822	2,627	279,336	142,323
314,837	2,624	279,230	142,252
315,852	2,780	279,087	142,313
316,866	2,687	278,916	142,126
317,881	2,583	278,659	141,885
318,895	2,456	278,604	141,727
319,910	2,417	278,328	141,537
320,925	2,593	278,125	141,586
321,939	2,617	278,021	141,542
322,954	2,714	277,805	141,510
323,968	2,790	277,771	141,550
324,983	2,668	277,538	141,306
325,997	2,532	277,433	141,114
327,012	2,543	277,176	140,980
328,027	2,793	277,037	141,128
329,041	2,810	276,801	141,011
330,056	2,716	276,724	140,873
331,070	2,795	276,444	140,791
332,085	2,690	276,252	140,583
333,100	2,847	276,047	140,611
334,114	2,673	275,880	140,353
335,129	2,689	275,608	140,217
336,143	2,842	275,518	140,299
337,158	2,805	275,288	140,135
338,173	2,779	275,139	140,024
339,187	2,835	274,938	139,960
340,202	2,923	274,786	139,950
341,216	2,759	274,627	139,707
342,231	2,737	274,317	139,517
343,246	2,742	274,223	139,462
344,260	2,764	274,253	139,484
345,275	2,865	273,851	139,360
346,289	2,797	273,741	139,229
347,304	2,777	273,683	139,169
348,319	2,842	273,512	139,129
349,333	2,802	273,244	138,944
350,348	2,757	272,986	138,758
351,362	2,715	272,909	138,669
352,377	2,823	272,694	138,646
353,392	2,688	272,579	138,453
354,406	2,710	272,438	138,388
355,421	191,850	1350,942	1432,496
356,435	154,883	1482,448	1432,624
