DTS Sentinel unit serial number:	SN410029Multiplexer serial number:	ORYXHardware model number:	OX2-SRSoftware version number:	ORYX F/W v4,00 Oryx Data Collector v3.7.2.0data status	okinstallation	B4 Nyhavnadifferential loss correction	single-endedforward channel	channel 2reverse channel	N/Adate	2023/12/15time	22:15:13forward acquisition time	300,00reverse acquisition time	0,00gamma	499,1914k internal	0,3132k external	0,3132temperature offset calibration	1,0000default loss term (dB/km)	0,3820temperature slope calibration	1,0000multiplexer offset coefficient	1,0000multiplexer slope coefficient	1,0000fibre end	0,00T internal ref (°C)	21,27T ext. ref 1 (°C)	6,52T ext. ref 2 (°C)	6,71length (m)	temperature (°C)	Stokes	anti-Stokes-744,400	-180,111	0,016	-0,000
-743,385	-57,031	-0,196	0,064
-742,371	-15,406	-0,147	-0,070
-741,356	-46,881	-0,198	0,071
-740,342	-200,000	0,014	-0,120
-739,327	150,109	-0,107	0,108
-738,312	379,130	0,050	-0,076
-737,298	42,973	-0,220	0,149
-736,283	-112,975	0,035	0,005
-735,269	170,913	-0,183	0,195
-734,254	-200,000	0,006	-0,084
-733,239	-123,203	-0,510	-0,060
-732,225	-20,074	0,150	-0,069
-731,210	391,992	0,047	-0,073
-730,196	204,960	-0,074	-0,085
-729,181	-82,867	0,042	-0,010
-728,167	71,412	-0,042	-0,032
-727,152	-200,000	-0,010	0,036
-726,137	-62,256	-0,183	-0,056
-725,123	106,437	-0,159	-0,140
-724,108	-0,254	-0,079	-0,041
-723,094	-93,302	-0,113	0,023
-722,079	-16,744	-0,119	0,056
-721,064	19,837	0,042	-0,025
-720,050	-147,416	-0,087	0,005
-719,035	-107,936	0,076	-0,012
-718,021	597,229	0,013	-0,023
-717,006	-148,837	0,106	-0,006
-715,991	-96,866	-0,137	-0,026
-714,977	-200,000	0,018	-0,063
-713,962	800,000	0,024	0,053
-712,948	151,947	-0,046	-0,046
-711,933	-200,000	-0,025	0,133
-710,918	146,471	0,025	0,025
-709,904	-58,191	-0,069	-0,022
-708,889	-9,046	0,046	-0,023
-707,875	-163,646	-0,171	-0,006
-706,860	800,000	0,052	-0,145
-705,845	50,186	0,064	0,045
-704,831	-200,000	-0,022	0,117
-703,816	173,062	-0,117	0,126
-702,802	-24,331	-0,124	0,055
-701,787	333,441	0,130	-0,187
-700,772	-108,315	-0,216	-0,034
-699,758	-200,000	0,002	-0,019
-698,743	-200,000	0,004	-0,029
-697,729	135,878	0,105	0,102
-696,714	800,000	-0,055	0,118
-695,699	242,117	-0,059	-0,073
-694,685	698,776	-0,018	-0,036
-693,670	-200,000	-0,002	0,017
-692,656	-48,331	-0,054	0,019
-691,641	-200,000	-0,013	-0,191
-690,627	200,024	0,041	-0,047
-689,612	-200,000	0,023	-0,181
-688,597	-141,617	-0,165	-0,012
-687,583	120,044	0,053	0,049
-686,568	-200,000	0,005	-0,096
-685,554	171,420	-0,065	-0,069
-684,539	-103,750	0,198	-0,034
-683,524	273,114	-0,070	-0,093
-682,510	60,686	0,010	-0,007
-681,495	86,736	-0,032	-0,026
-680,481	410,333	-0,092	-0,145
-679,466	20,444	-0,054	-0,033
-678,451	238,274	-0,115	-0,142
-677,437	800,000	0,048	-0,106
-676,422	590,349	0,054	0,098
-675,408	7,010	-0,068	-0,038
-674,393	800,000	-0,041	-0,127
-673,378	46,367	-0,085	-0,058
-672,364	-118,461	-0,034	-0,004
-671,349	342,683	-0,027	0,039
-670,335	439,911	-0,015	0,025
-669,320	126,553	0,098	0,092
-668,305	359,072	-0,047	0,070
-667,291	119,733	-0,035	0,032
-666,276	-200,000	0,005	0,016
-665,262	-200,000	-0,002	-0,012
-664,247	222,859	-0,025	-0,029
-663,232	153,846	-0,035	-0,036
-662,218	482,264	-0,057	0,096
-661,203	800,000	-0,017	-0,038
-660,189	180,037	0,050	-0,054
-659,174	60,426	-0,154	-0,113
-658,159	12,244	-0,108	-0,062
-657,145	-200,000	0,004	0,017
-656,130	-200,000	0,011	0,040
-655,116	800,000	-0,025	-0,083
-654,101	357,691	0,042	-0,062
-653,086	89,596	-0,050	0,042
-652,072	-200,000	0,004	-0,088
-651,057	-200,000	0,007	-0,080
-650,043	-19,376	-0,106	0,049
-649,028	677,952	-0,017	0,033
-648,014	26,957	-0,065	0,040
-646,999	-145,297	-0,175	0,012
-645,984	-200,000	-0,005	0,034
-644,970	662,909	0,031	-0,060
-643,955	800,000	-0,081	-0,173
-642,941	321,242	0,004	0,005
-641,926	-200,000	-0,014	0,055
-640,911	51,248	-0,113	0,080
-639,897	242,734	0,060	-0,074
-638,882	800,000	0,016	0,035
-637,868	-99,653	-0,119	-0,022
-636,853	161,672	-0,040	0,042
-635,838	596,912	-0,051	-0,094
-634,824	-51,239	0,099	0,034
-633,809	150,238	-0,011	-0,011
-632,795	-200,000	-0,019	0,125
-631,780	332,202	0,118	0,169
-630,765	21,315	0,070	-0,042
-629,751	9,730	-0,063	-0,035
-628,736	64,121	-0,045	-0,034
-627,722	-200,000	-0,036	0,132
-626,707	-131,780	-0,126	-0,012
-625,692	800,000	0,034	-0,074
-624,678	-146,289	0,060	-0,004
-623,663	246,963	-0,035	0,044
-622,649	10,334	-0,146	0,082
-621,634	88,157	0,071	0,058
-620,619	18,874	-0,020	-0,012
-619,605	-61,800	-0,031	-0,009
-618,590	14,844	0,037	0,021
-617,576	-62,217	-0,016	-0,005
-616,561	800,000	0,010	0,024
-615,546	-200,000	0,013	-0,254
-614,532	-200,000	-0,050	-0,202
-613,517	800,000	-0,035	-0,105
-612,503	-144,170	0,059	-0,004
-611,488	-174,887	0,068	-0,001
-610,474	154,055	0,052	-0,053
-609,459	344,517	0,058	0,084
-608,444	277,198	-0,051	0,067
-607,430	-200,000	-0,034	-0,113
-606,415	-135,932	-0,149	0,013
-605,401	-200,000	0,004	-0,055
-604,386	110,141	-0,065	0,057
-603,371	-53,585	0,104	0,035
-602,357	-200,000	0,017	-0,100
-601,342	-102,696	-0,141	-0,025
-600,328	-200,000	0,006	-0,034
-599,313	60,629	-0,084	-0,061
-598,298	140,011	0,107	-0,104
-597,284	129,286	0,082	0,077
-596,269	-200,000	-0,002	-0,035
-595,255	250,495	0,064	-0,080
-594,240	800,000	0,041	0,117
-593,225	411,787	-0,079	-0,124
-592,211	229,853	0,083	-0,100
-591,196	194,304	0,039	-0,044
-590,182	-0,504	0,023	-0,012
-589,167	1,559	-0,092	0,049
-588,152	-188,408	-0,124	-0,001
-587,138	22,512	-0,084	-0,050
-586,123	-54,586	-0,107	-0,036
-585,109	-150,186	-0,019	-0,001
-584,094	-200,000	0,026	-0,144
-583,079	-200,000	0,022	0,100
-582,065	-200,000	-0,002	0,104
-581,050	-95,281	0,049	0,010
-580,036	800,000	0,021	0,055
-579,021	624,133	-0,026	-0,049
-578,006	-74,945	-0,052	0,014
-576,992	-27,747	0,049	-0,021
-575,977	37,992	0,151	0,099
-574,963	-200,000	-0,002	-0,024
-573,948	-200,000	-0,033	0,121
-572,934	-2,595	-0,086	0,044
-571,919	800,000	0,028	0,062
-570,904	800,000	-0,024	-0,063
-569,890	101,127	0,092	-0,079
-568,875	285,572	-0,068	-0,091
-567,861	173,692	0,043	-0,045
-566,846	-60,180	0,088	-0,028
-565,831	136,740	-0,061	0,059
-564,817	-29,063	-0,103	0,044
-563,802	-140,359	0,093	-0,007
-562,788	-200,000	-0,012	0,068
-561,773	75,623	-0,036	-0,028
-560,758	-200,000	-0,012	-0,049
-559,744	-27,427	-0,124	0,053
-558,729	386,893	-0,105	0,161
-557,715	147,589	-0,067	0,067
-556,700	-122,375	0,117	0,014
-555,685	66,270	-0,125	-0,094
-554,671	-200,000	0,030	-0,099
-553,656	-20,526	0,053	-0,024
-552,642	96,665	0,077	0,065
-551,627	800,000	0,033	-0,103
-550,612	800,000	0,015	-0,042
-549,598	-200,000	0,015	-0,110
-548,583	800,000	-0,023	-0,050
-547,569	47,833	-0,053	-0,037
-546,554	-200,000	0,008	0,119
-545,539	154,913	-0,042	0,043
-544,525	-200,000	-0,002	-0,036
-543,510	52,088	0,020	0,014
-542,496	-200,000	0,004	-0,106
-541,481	594,136	0,070	-0,128
-540,466	-52,526	-0,072	-0,024
-539,452	-58,324	0,154	0,049
-538,437	-112,073	0,131	0,019
-537,423	-19,676	-0,095	-0,043
-536,408	290,679	0,046	0,062
-535,393	791,557	-0,042	-0,086
-534,379	-166,281	-0,057	0,002
-533,364	289,474	0,059	-0,079
-532,350	28,029	0,103	-0,064
-531,335	-73,819	0,017	-0,005
-530,321	-200,000	-0,004	0,047
-529,306	-200,000	-0,014	-0,069
-528,291	115,522	0,079	0,071
-527,277	-95,985	-0,095	-0,018
-526,262	232,285	-0,038	0,046
-525,248	115,158	-0,010	-0,009
-524,233	-121,132	0,033	-0,004
-523,218	800,000	0,092	0,228
-522,204	143,378	-0,036	0,035
-521,189	-2,652	-0,096	-0,049
-520,175	277,905	0,085	0,112
-519,160	800,000	-0,070	0,157
-518,145	800,000	-0,032	0,099
-517,131	18,444	0,021	-0,013
-516,116	15,685	0,031	-0,018
-515,102	-124,492	0,067	-0,008
-514,087	456,308	-0,060	-0,098
-513,072	325,400	-0,118	-0,166
-512,058	-54,105	0,039	-0,013
-511,043	-17,587	0,059	-0,027
-510,029	-53,148	0,044	-0,015
-509,014	-200,000	0,008	0,043
-507,999	800,000	0,039	-0,101
-506,985	34,135	-0,027	0,018
-505,970	-111,640	0,015	-0,002
-504,956	616,435	-0,089	-0,165
-503,941	32,693	-0,101	-0,064
-502,926	-55,057	-0,165	-0,054
-501,912	-200,000	-0,003	-0,091
-500,897	-75,959	-0,036	-0,009
-499,883	800,000	-0,042	-0,101
-498,868	-200,000	0,015	-0,057
-497,853	170,345	0,132	-0,139
-496,839	-49,957	0,082	-0,029
-495,824	-200,000	-0,046	0,160
-494,810	-200,000	-0,011	-0,061
-493,795	-12,939	0,070	0,033
-492,781	343,779	0,028	0,041
-491,766	283,720	0,042	-0,056
-490,751	328,822	-0,108	-0,154
-489,737	-200,000	-0,003	-0,055
-488,722	45,862	0,033	0,023
-487,708	-200,000	-0,035	0,121
-486,693	146,092	-0,064	0,064
-485,678	250,700	0,032	-0,041
-484,664	387,938	0,027	-0,041
-483,649	4,295	-0,194	-0,104
-482,635	-200,000	0,001	-0,095
-481,620	-64,711	0,041	0,012
-480,605	181,699	0,035	-0,038
-479,591	204,733	-0,054	0,061
-478,576	-200,000	-0,016	-0,103
-477,562	800,000	0,007	-0,020
-476,547	-200,000	-0,003	-0,144
-475,532	-30,278	-0,065	-0,027
-474,518	117,093	-0,051	-0,046
-473,503	-56,815	-0,049	0,016
-472,489	800,000	-0,020	0,049
-471,474	-177,042	0,065	-0,001
-470,459	464,486	-0,028	-0,047
-469,445	800,000	0,070	-0,173
-468,430	230,679	0,051	-0,062
-467,416	-44,097	0,195	0,072
-466,401	96,242	0,102	0,086
-465,386	-200,000	-0,002	0,017
-464,372	-200,000	-0,014	0,064
-463,357	-200,000	-0,024	-0,138
-462,343	800,000	-0,059	-0,144
-461,328	31,573	0,057	-0,036
-460,313	-50,341	-0,057	-0,020
-459,299	395,601	0,026	-0,039
-458,284	-26,067	0,080	0,034
-457,270	-138,653	-0,098	-0,008
-456,255	-49,493	0,105	-0,037
-455,241	-200,000	0,002	-0,067
-454,226	281,939	-0,079	0,105
-453,211	-71,777	0,016	0,004
-452,197	87,147	0,042	-0,034
-451,182	42,007	-0,042	-0,028
-450,168	800,000	0,080	0,182
-449,153	-84,028	-0,016	-0,004
-448,138	-200,000	0,002	0,053
-447,124	59,070	0,037	0,027
-446,109	800,000	-0,008	0,021
-445,095	693,635	0,023	-0,044
-444,080	16,306	0,014	-0,008
-443,065	73,876	-0,032	-0,025
-442,051	265,347	0,033	-0,042
-441,036	-43,458	0,018	-0,007
-440,022	-68,802	-0,101	0,029
-439,007	19,382	0,054	0,032
-437,992	59,165	0,008	-0,006
-436,978	219,541	-0,094	0,111
-435,963	-47,255	-0,093	0,033
-434,949	-200,000	0,024	-0,081
-433,934	-179,100	-0,173	0,003
-432,919	33,450	0,075	0,048
-431,905	800,000	0,056	0,143
-430,890	-89,752	0,059	0,013
-429,876	5,063	0,021	0,011
-428,861	800,000	0,036	0,095
-427,846	-200,000	-0,001	0,060
-426,832	62,369	-0,102	0,074
-425,817	191,506	0,029	-0,033
-424,803	-200,000	0,010	-0,095
-423,788	4,368	0,010	-0,005
-422,773	87,959	-0,126	-0,103
-421,759	800,000	0,035	0,087
-420,744	113,924	0,050	0,044
-419,730	-200,000	-0,023	0,096
-418,715	419,592	0,050	-0,079
-417,701	32,586	-0,077	-0,049
-416,686	69,333	0,098	-0,074
-415,671	27,366	-0,076	0,047
-414,657	-29,508	0,029	-0,012
-413,642	56,023	0,052	0,037
-412,628	-200,000	-0,002	0,010
-411,613	-67,205	-0,078	-0,022
-410,598	-75,184	-0,174	-0,045
-409,584	63,525	-0,090	-0,066
-408,569	-0,173	0,055	0,029
-407,555	122,378	0,036	-0,033
-406,540	46,701	0,058	-0,040
-405,525	-200,000	-0,016	-0,119
-404,511	800,000	-0,008	0,024
-403,496	119,402	-0,027	-0,024
-402,482	-200,000	0,028	-0,144
-401,467	326,655	-0,134	0,189
-400,452	511,816	-0,072	0,124
-399,438	-200,000	0,009	0,063
-398,423	-200,000	-0,054	0,211
-397,409	-158,349	-0,033	0,001
-396,394	-38,324	0,110	-0,043
-395,379	800,000	0,030	0,077
-394,365	-200,000	0,002	0,018
-393,350	-62,038	0,093	-0,028
-392,336	12,721	-0,035	-0,020
-391,321	22,507	0,048	0,029
-390,306	-89,021	-0,165	-0,036
-389,292	-129,804	-0,128	0,013
-388,277	21,830	0,122	-0,073
-387,263	-200,000	0,023	0,130
-386,248	-21,290	-0,029	0,013
-385,233	-114,791	-0,059	0,008
-384,219	-53,790	0,054	-0,018
-383,204	-85,881	0,046	0,010
-382,190	278,108	0,090	-0,118
-381,175	-200,000	0,023	0,136
-380,160	34,321	0,027	-0,017
-379,146	-200,000	-0,014	0,165
-378,131	10,481	-0,080	0,045
-377,117	-200,000	0,012	0,120
-376,102	-200,000	0,009	0,036
-375,088	58,136	-0,024	0,017
-374,073	-200,000	0,011	0,054
-373,058	-31,139	0,080	-0,033
-372,044	575,542	0,070	0,126
-371,029	680,776	0,023	-0,044
-370,015	107,653	0,052	0,045
-369,000	57,490	0,073	-0,052
-367,985	35,638	0,041	-0,027
-366,971	714,865	0,043	0,084
-365,956	-200,000	-0,006	0,054
-364,942	-71,367	-0,129	-0,035
-363,927	-200,000	-0,013	0,190
-362,912	-14,316	-0,100	-0,047
-361,898	60,157	-0,076	0,055
-360,883	-200,000	0,037	-0,129
-359,869	-152,363	-0,048	0,003
-358,854	-66,059	0,120	-0,035
-357,839	-200,000	0,037	0,129
-356,825	-200,000	0,023	0,115
-355,810	-15,877	-0,037	-0,017
-354,796	800,000	-0,041	0,133
-353,781	52,061	0,055	-0,039
-352,766	52,042	-0,118	-0,082
-351,752	12,170	-0,143	-0,081
-350,737	297,077	-0,028	0,037
-349,723	-166,811	0,058	-0,002
-348,708	-200,000	-0,000	0,041
-347,693	-92,243	-0,124	-0,025
-346,679	-4,749	0,130	-0,065
-345,664	-62,803	0,085	-0,026
-344,650	-94,230	0,122	0,024
-343,635	65,894	0,100	0,074
-342,620	5,917	0,073	-0,040
-341,606	229,601	0,025	0,030
-340,591	223,423	-0,088	-0,104
-339,577	-62,275	-0,157	-0,047
-338,562	800,000	0,037	0,111
-337,548	-106,465	0,104	-0,017
-336,533	89,293	-0,056	0,046
-335,518	-14,162	-0,045	0,021
-334,504	-128,024	0,086	0,009
-333,489	76,043	0,100	0,078
-332,475	-29,141	-0,012	-0,005
-331,460	518,136	0,041	0,070
-330,445	800,000	0,049	-0,124
-329,431	425,405	-0,064	0,101
-328,416	55,870	0,183	0,130
-327,402	-100,114	0,112	0,020
-326,387	-200,000	-0,002	0,066
-325,372	51,239	-0,061	-0,043
-324,358	-200,000	0,010	-0,087
-323,343	-184,493	0,110	-0,001
-322,329	260,598	0,066	-0,084
-321,314	352,822	0,028	0,041
-320,299	800,000	0,053	-0,155
-319,285	-200,000	0,011	-0,042
-318,270	87,356	-0,026	-0,021
-317,256	-200,000	0,028	-0,122
-316,241	298,587	-0,047	-0,063
-315,226	-200,000	-0,041	0,280
-314,212	-100,714	0,105	0,019
-313,197	-200,000	0,019	0,079
-312,183	-121,817	-0,117	-0,014
-311,168	-51,452	-0,105	-0,036
-310,153	800,000	-0,028	-0,069
-309,139	103,981	0,071	0,061
-308,124	-8,136	0,050	0,024
-307,110	321,185	0,066	-0,092
-306,095	-200,000	-0,028	0,141
-305,080	770,285	0,075	0,150
-304,066	-200,000	0,010	-0,085
-303,051	-146,867	-0,086	0,005
-302,037	115,165	-0,060	-0,053
-301,022	-200,000	-0,003	-0,092
-300,008	-59,537	-0,055	-0,017
-298,993	-200,000	0,021	0,087
-297,978	66,403	0,094	0,070
-296,964	-200,000	-0,002	0,129
-295,949	-200,000	0,002	0,020
-294,935	-25,691	-0,068	-0,029
-293,920	101,276	-0,053	0,045
-292,905	800,000	0,055	-0,167
-291,891	178,680	0,110	0,118
-290,876	624,286	-0,022	0,041
-289,862	-200,000	-0,009	-0,051
-288,847	-200,000	0,015	-0,065
-287,832	5,946	-0,019	0,010
-286,818	-200,000	0,021	-0,115
-285,803	800,000	0,032	0,075
-284,789	-200,000	0,014	0,045
-283,774	59,099	0,023	-0,017
-282,759	-81,759	-0,011	-0,003
-281,745	367,701	-0,029	-0,043
-280,730	800,000	-0,068	-0,144
-279,716	-24,302	0,092	-0,040
-278,701	-141,982	0,058	0,004
-277,686	-63,206	-0,182	-0,054
-276,672	82,347	-0,058	-0,046
-275,657	-200,000	-0,016	-0,093
-274,643	-45,821	-0,095	-0,034
-273,628	-101,914	0,088	0,015
-272,613	102,810	-0,076	-0,065
-271,599	34,767	0,092	0,059
-270,584	800,000	0,074	0,152
-269,570	-39,496	0,098	0,037
-268,555	10,925	-0,046	-0,025
-267,540	73,353	0,048	0,036
-266,526	-17,627	-0,140	-0,064
-265,511	31,078	0,079	-0,049
-264,497	-61,721	-0,031	0,010
-263,482	-200,000	0,016	-0,143
-262,467	-200,000	0,022	0,135
-261,453	-200,000	-0,021	-0,086
-260,438	-200,000	-0,001	-0,038
-259,424	146,847	0,010	-0,010
-258,409	106,377	0,049	0,042
-257,395	-51,037	-0,047	-0,016
-256,380	-200,000	-0,023	-0,156
-255,365	355,527	0,024	-0,035
-254,351	-16,526	0,060	0,028
-253,336	-4,595	-0,101	0,051
-252,322	168,997	0,070	0,072
-251,307	-14,284	-0,086	0,040
-250,292	-200,000	0,023	0,175
-249,278	-40,631	-0,088	0,033
-248,263	-49,637	0,052	0,018
-247,249	-197,972	0,060	-0,000
-246,234	381,022	-0,044	0,065
-245,219	-108,481	-0,035	0,005
-244,205	-118,456	-0,111	-0,014
-243,190	444,769	0,090	-0,145
-242,176	68,572	-0,043	0,032
-241,161	800,000	0,035	0,088
-240,146	70,882	0,043	0,032
-239,132	-200,000	-0,003	-0,124
-238,117	10,377	-0,037	-0,020
-237,103	286,652	-0,058	-0,076
-236,088	-200,000	0,020	-0,178
-235,073	135,411	0,062	-0,059
-234,059	-84,464	0,019	-0,004
-233,044	-13,213	0,071	-0,033
-232,030	-185,627	-0,048	-0,001
-231,015	282,469	0,014	-0,019
-230,000	664,933	0,048	0,091
-228,986	235,438	0,063	0,076
-227,971	-9,677	-0,072	-0,035
-226,957	46,147	0,067	0,045
-225,942	14,122	-0,090	0,051
-224,927	-200,000	0,011	0,052
-223,913	-200,000	0,013	-0,048
-222,898	90,806	-0,069	-0,056
-221,884	-200,000	0,005	-0,082
-220,869	-2,466	0,098	-0,050
-219,855	-200,000	-0,026	-0,124
-218,840	800,000	-0,075	0,170
-217,825	800,000	-0,018	0,037
-216,811	-4,286	-0,042	-0,021
-215,796	12,984	0,014	0,008
-214,782	-200,000	-0,025	-0,100
-213,767	113,574	0,075	0,066
-212,752	-108,572	0,143	-0,022
-211,738	607,340	-0,059	-0,107
-210,723	-73,382	-0,019	0,005
-209,709	64,974	-0,014	0,010
-208,694	800,000	-0,060	0,160
-207,679	-113,394	0,100	0,014
-206,665	210,665	-0,023	-0,027
-205,650	55,856	-0,047	0,033
-204,636	125,854	0,154	0,142
-203,621	800,000	0,051	0,107
-202,606	-200,000	-0,014	-0,044
-201,592	168,263	-0,048	-0,050
-200,577	-106,146	0,092	-0,015
-199,563	199,222	0,115	0,129
-198,548	606,004	0,004	0,007
-197,533	544,589	0,060	0,105
-196,519	-200,000	0,038	0,145
-195,504	122,193	-0,132	-0,120
-194,490	800,000	-0,052	-0,127
-193,475	-82,536	-0,029	-0,007
-192,460	154,486	-0,070	0,070
-191,446	-200,000	-0,022	0,173
-190,431	23,172	0,129	0,077
-189,417	-200,000	-0,001	0,101
-188,402	242,617	-0,079	0,097
-187,387	99,635	-0,021	0,018
-186,373	-200,000	0,005	-0,088
-185,358	255,536	0,060	0,075
-184,344	148,861	0,029	0,029
-183,329	115,716	-0,074	0,066
-182,315	30,672	-0,014	0,009
-181,300	-200,000	0,003	0,039
-180,285	-164,027	-0,132	-0,004
-179,271	800,000	-0,028	-0,083
-178,256	-200,000	-0,017	0,057
-177,242	-200,000	-0,001	0,014
-176,227	-110,367	-0,107	-0,016
-175,212	-11,499	0,081	0,038
-174,198	429,057	0,120	0,189
-173,183	508,353	0,019	0,033
-172,169	800,000	0,021	-0,050
-171,154	482,413	0,025	-0,042
-170,139	-69,122	-0,041	0,012
-169,125	-99,415	-0,030	0,006
-168,110	-131,953	0,125	-0,012
-167,096	-200,000	0,002	0,085
-166,081	800,000	-0,025	0,063
-165,066	70,058	-0,021	-0,016
-164,052	9,735	0,044	-0,024
-163,037	44,274	-0,037	0,025
-162,023	-93,956	0,109	0,022
-161,008	126,134	-0,072	0,066
-159,993	535,530	-0,067	0,117
-158,979	800,000	-0,033	-0,094
-157,964	161,138	0,121	-0,123
-156,950	39,967	0,021	0,014
-155,935	49,803	0,023	0,016
-154,920	800,000	0,069	-0,140
-153,906	-200,000	-0,027	-0,094
-152,891	-67,841	0,046	0,013
-151,877	-200,000	0,010	0,105
-150,862	-200,000	-0,043	-0,147
-149,847	192,652	-0,086	-0,095
-148,833	191,458	-0,111	-0,121
-147,818	-200,000	-0,029	0,108
-146,804	-200,000	-0,000	-0,029
-145,789	-200,000	0,012	-0,066
-144,775	-200,000	-0,020	-0,095
-143,760	400,127	-0,100	-0,153
-142,745	800,000	-0,043	-0,138
-141,731	-34,683	0,080	0,031
-140,716	-19,993	-0,072	0,032
-139,702	81,385	0,086	0,067
-138,687	800,000	0,067	0,185
-137,672	59,037	-0,021	-0,015
-136,658	-200,000	0,007	-0,095
-135,643	-200,000	-0,009	0,041
-134,629	673,457	0,010	0,019
-133,614	-200,000	-0,005	0,103
-132,599	182,618	-0,125	0,134
-131,585	62,486	-0,101	-0,073
-130,570	-65,364	0,028	0,008
-129,556	24,616	0,025	0,015
-128,541	700,494	-0,030	0,057
-127,526	-200,000	-0,003	0,085
-126,512	800,000	0,058	0,144
-125,497	-64,925	0,140	0,041
-124,483	-74,124	-0,131	0,034
-123,468	-45,131	0,127	0,046
-122,453	-200,000	0,008	0,097
-121,439	123,461	-0,106	-0,097
-120,424	-165,142	0,082	-0,003
-119,410	43,008	-0,080	0,053
-118,395	33,651	0,021	0,013
-117,380	674,324	0,066	0,125
-116,366	800,000	0,028	0,064
-115,351	383,267	0,033	0,049
-114,337	-200,000	-0,011	-0,118
-113,322	-200,000	0,020	0,091
-112,307	64,396	-0,040	0,029
-111,293	-53,402	-0,069	0,023
-110,278	-200,000	-0,002	0,125
-109,264	582,136	0,056	0,100
-108,249	-89,170	-0,014	-0,003
-107,234	-159,683	-0,064	-0,003
-106,220	-99,046	-0,066	-0,012
-105,205	-123,056	0,094	0,011
-104,191	502,480	0,066	-0,111
-103,176	800,000	0,044	0,092
-102,162	10,590	-0,143	0,079
-101,147	-200,000	0,009	-0,158
-100,132	-200,000	-0,015	-0,111
-99,118	-55,398	0,104	0,034
-98,103	31,285	0,057	0,036
-97,089	376,699	0,065	0,097
-96,074	-200,000	0,014	0,076
-95,059	-200,000	0,005	0,078
-94,045	-200,000	0,037	0,127
-93,030	369,534	-0,040	-0,059
-92,016	499,966	-0,011	0,018
-91,001	284,542	-0,027	-0,036
-89,986	-90,874	0,099	-0,020
-88,972	-200,000	0,013	0,246
-87,957	-95,876	-0,109	-0,021
-86,943	-200,000	-0,025	-0,163
-85,928	377,515	-0,066	-0,099
-84,913	-200,000	0,007	0,025
-83,899	-19,663	0,077	-0,034
-82,884	-200,000	-0,027	0,107
-81,870	96,635	0,058	0,049
-80,855	548,132	-0,034	0,060
-79,840	-200,000	0,006	-0,089
-78,826	-34,588	-0,125	0,049
-77,811	18,548	-0,087	-0,050
-76,797	192,672	0,097	-0,106
-75,782	-41,780	0,065	-0,024
-74,767	800,000	-0,038	-0,097
-73,753	-200,000	0,144	0,000
-72,738	-200,000	0,022	0,081
-71,724	151,840	-0,074	-0,073
-70,709	329,170	-0,070	-0,098
-69,694	-200,000	0,015	0,053
-68,680	221,964	-0,087	-0,101
-67,665	23,901	-0,018	0,011
-66,651	-200,000	-0,008	0,062
-65,636	-96,350	-0,075	-0,014
-64,622	800,000	0,012	0,033
-63,607	-52,414	-0,076	0,025
-62,592	-200,000	-0,056	-0,203
-61,578	-112,371	0,071	-0,010
-60,563	-53,567	0,085	-0,028
-59,549	-127,070	-0,105	-0,011
-58,534	-76,479	-1,572	-0,397
-57,519	800,000	-0,670	-1,452
-56,505	-200,000	-0,969	-4,466
-55,490	-103,419	0,605	-0,102
-54,476	800,000	4,947	11,477
-53,461	-200,000	14,389	256,098
-52,446	-200,000	693,558	2238,211
-51,432	578,133	1619,390	2877,943
-50,417	117,769	1628,097	1450,383
-49,403	75,102	1282,520	977,022
-48,388	37,602	1020,197	653,706
-47,373	23,483	979,194	581,223
-46,359	22,666	968,572	572,232
-45,344	21,565	964,051	565,957
-44,330	21,474	962,643	564,815
-43,315	21,375	961,145	563,591
-42,300	21,332	960,051	562,787
-41,286	21,339	959,052	562,203
-40,271	21,304	958,174	561,554
-39,257	21,284	957,264	560,931
-38,242	21,319	956,320	560,470
-37,227	21,249	955,602	559,801
-36,213	21,299	954,449	559,264
-35,198	21,263	953,619	558,640
-34,184	21,329	953,140	558,549
-33,169	21,272	952,181	557,782
-32,154	21,344	951,243	557,443
-31,140	21,301	950,536	556,869
-30,125	21,388	949,521	556,530
-29,111	21,356	948,804	555,984
-28,096	21,331	948,175	555,515
-27,082	21,326	947,416	555,030
-26,067	21,313	946,595	554,487
-25,052	21,302	946,017	554,092
-24,038	21,360	945,275	553,819
-23,023	21,290	944,723	553,252
-22,009	21,349	944,136	553,073
-20,994	21,351	943,381	552,617
-19,979	21,342	942,899	552,283
-18,965	21,336	942,301	551,892
-17,950	21,310	941,674	551,418
-16,936	21,235	940,982	550,755
-15,921	21,238	940,258	550,317
-14,906	21,258	939,400	549,857
-13,892	21,196	938,905	549,349
-12,877	21,163	938,121	548,765
-11,863	21,146	937,515	548,334
-10,848	21,191	937,256	548,305
-9,833	21,283	936,656	548,221
-8,819	21,268	936,161	547,863
-7,804	21,159	935,566	547,150
-6,790	21,164	934,903	546,757
-5,775	21,193	934,244	546,439
-4,760	21,173	933,608	545,983
-3,746	21,186	933,063	545,684
-2,731	21,025	932,379	544,757
-1,717	21,075	931,464	544,358
-0,702	21,075	930,893	544,001
0,313	20,827	930,442	543,780
1,327	23,445	927,808	550,381
2,342	31,190	805,880	498,929
3,356	26,109	507,228	305,378
4,371	2,315	372,808	194,315
5,386	-0,671	355,688	181,729
6,400	-1,918	349,548	177,079
7,415	-2,914	346,717	174,441
8,429	-3,075	345,172	173,458
9,444	-3,043	344,311	173,048
10,459	-3,142	343,543	172,529
11,473	-3,235	343,011	172,137
12,488	-2,993	342,390	172,095
13,502	-3,156	342,032	171,708
14,517	-3,271	341,451	171,266
15,531	-3,456	340,720	170,667
16,546	-3,472	340,393	170,469
17,561	-3,549	339,953	170,144
18,575	-3,363	339,447	170,094
19,590	-3,642	339,138	169,597
20,604	-3,474	338,845	169,632
21,619	-3,530	338,367	169,312
22,634	-3,448	337,864	169,141
23,648	-3,519	337,638	168,930
24,663	-3,455	337,377	168,859
25,677	-3,450	337,082	168,701
26,692	-3,479	336,818	168,521
27,707	-3,545	336,497	168,269
28,721	-3,511	336,071	168,081
29,736	-3,374	335,776	168,076
30,750	-3,453	335,457	167,810
31,765	-3,496	335,069	167,551
32,780	-3,428	334,850	167,505
33,794	-3,512	334,861	167,399
34,809	-3,530	334,457	167,162
35,823	-3,593	334,150	166,921
36,838	-3,517	333,691	166,764
37,853	-3,531	333,386	166,581
38,867	-3,440	333,276	166,615
39,882	-3,522	333,034	166,385
40,896	-3,375	332,643	166,343
41,911	-3,418	332,279	166,097
42,926	-3,540	331,947	165,777
43,940	-3,698	331,978	165,598
44,955	-3,613	331,510	165,446
45,969	-3,718	331,329	165,222
46,984	-3,779	331,165	165,056
47,999	-3,805	330,558	164,709
49,013	-3,890	330,306	164,473
50,028	-3,948	330,135	164,308
51,042	-4,019	329,776	164,035
52,057	-4,070	329,528	163,839
53,071	-3,940	329,248	163,832
54,086	-4,000	329,114	163,682
55,101	-3,889	328,974	163,724
56,115	-3,779	328,719	163,706
57,130	-3,635	328,448	163,718
58,144	-3,384	328,203	163,864
59,159	-3,361	328,000	163,773
60,174	-3,287	327,734	163,709
61,188	-3,344	327,495	163,511
62,203	-3,421	327,372	163,349
63,217	-3,442	326,993	163,122
64,232	-3,484	326,784	162,956
65,247	-3,265	326,648	163,119
66,261	-3,276	326,227	162,882
67,276	-3,548	325,992	162,446
68,290	-3,531	325,551	162,231
69,305	-3,649	325,425	162,023
70,320	-3,723	325,206	161,816
71,334	-3,497	324,854	161,878
72,349	-3,498	324,983	161,927
73,363	-3,403	324,729	161,891
74,378	-3,464	324,268	161,579
75,393	-3,314	323,953	161,574
76,407	-3,555	323,898	161,265
77,422	-3,336	323,492	161,290
78,436	-3,465	323,434	161,105
79,451	-3,354	323,232	161,112
80,466	-3,315	322,702	160,877
81,480	-3,570	322,434	160,448
82,495	-3,652	322,175	160,214
83,509	-3,517	321,920	160,222
84,524	-3,643	321,676	159,947
85,539	-3,673	321,366	159,747
86,553	-3,651	321,144	159,646
87,568	-3,644	321,033	159,585
88,582	-3,686	320,759	159,388
89,597	-3,695	320,503	159,237
90,611	-3,510	320,348	159,348
91,626	-3,338	319,970	159,334
92,641	-3,506	319,843	159,073
93,655	-3,436	319,686	159,057
94,670	-3,465	319,353	158,845
95,684	-3,579	319,150	158,606
96,699	-3,551	318,784	158,441
97,714	-3,565	318,550	158,294
98,728	-3,680	318,254	158,009
99,743	-3,579	317,989	157,973
100,757	-3,782	317,867	157,677
101,772	-3,536	317,560	157,778
102,787	-3,567	317,391	157,646
103,801	-3,541	317,302	157,616
104,816	-3,517	316,990	157,473
105,830	-3,446	316,796	157,440
106,845	-3,471	316,641	157,321
107,860	-3,432	316,302	157,181
108,874	-3,506	316,120	156,997
109,889	-3,619	315,857	156,730
110,903	-3,504	315,643	156,734
111,918	-3,509	315,420	156,604
112,933	-3,465	315,170	156,514
113,947	-3,574	315,114	156,354
114,962	-3,508	314,800	156,255
115,976	-3,546	314,463	156,033
116,991	-3,553	314,340	155,951
118,006	-3,568	314,068	155,786
119,020	-3,463	313,792	155,748
120,035	-3,493	313,734	155,673
121,049	-3,336	313,724	155,821
122,064	-3,510	313,429	155,476
123,079	-3,608	313,211	155,249
124,093	-3,442	312,792	155,204
125,108	-3,582	312,518	154,905
126,122	-3,603	312,259	154,741
127,137	-3,899	311,974	154,272
128,151	-3,718	311,843	154,385
129,166	-3,693	311,494	154,225
130,181	-3,544	311,371	154,308
131,195	-3,513	311,170	154,228
132,210	-3,578	311,038	154,080
133,224	-3,323	310,753	154,195
134,239	-3,524	310,489	153,838
135,254	-3,378	310,241	153,855
136,268	-3,518	310,074	153,611
137,283	-3,611	309,807	153,367
138,297	-3,734	309,521	153,081
139,312	-3,664	309,279	153,022
140,327	-3,463	309,059	153,111
141,341	-3,287	309,033	153,269
142,356	-3,278	308,817	153,158
143,370	-3,230	308,820	153,196
144,385	-3,207	308,532	153,064
145,400	-3,338	308,313	152,804
146,414	-3,268	307,966	152,692
147,429	-3,279	307,736	152,553
148,443	-3,243	307,707	152,563
149,458	-3,307	307,388	152,324
150,473	-3,356	307,240	152,186
151,487	-3,156	306,827	152,176
152,502	-3,213	306,677	152,029
153,516	-3,080	306,426	152,029
154,531	-3,158	306,314	151,879
155,546	-3,237	306,114	151,684
156,560	-3,343	305,823	151,417
157,575	-3,322	305,461	151,245
158,589	-3,316	305,494	151,254
159,604	-3,254	305,246	151,182
160,619	-3,240	305,026	151,074
161,633	-3,261	304,841	150,947
162,648	-3,169	304,518	150,869
163,662	-3,335	304,575	150,713
164,677	-3,315	304,353	150,610
165,692	-3,177	304,007	150,567
166,706	-3,056	303,780	150,566
167,721	-3,109	303,675	150,447
168,735	-3,239	303,645	150,284
169,750	-3,213	303,356	150,154
170,764	-3,051	303,368	150,313
171,779	-3,132	302,940	150,005
172,794	-3,033	302,741	149,995
173,808	-3,292	302,381	149,537
174,823	-3,347	302,076	149,317
175,837	-3,698	301,975	148,894
176,852	-3,357	301,790	149,138
177,867	-3,107	301,789	149,381
178,881	-3,155	301,482	149,167
179,896	-2,958	301,273	149,250
180,910	-3,244	301,154	148,887
181,925	-3,222	300,912	148,776
182,940	-3,016	300,611	148,824
183,954	-3,014	300,543	148,779
184,969	-3,117	300,278	148,530
185,983	-3,084	300,068	148,446
186,998	-3,151	299,931	148,298
188,013	-3,116	299,686	148,199
189,027	-2,973	299,412	148,194
190,042	-2,820	299,141	148,202
191,056	-2,870	299,026	148,082
192,071	-2,788	298,831	148,054
193,086	-3,043	298,784	147,760
194,100	-2,997	298,465	147,636
195,115	-3,056	298,368	147,515
196,129	-3,043	298,161	147,412
197,144	-2,936	297,811	147,334
198,159	-3,196	297,635	146,972
199,173	-3,023	297,364	146,999
200,188	-3,029	297,200	146,899
201,202	-3,062	296,970	146,739
202,217	-3,463	296,598	146,140
203,232	-3,552	296,483	145,982
204,246	-3,242	296,166	146,123
205,261	-3,030	296,129	146,304
206,275	-3,091	296,033	146,182
207,290	-2,998	295,801	146,147
208,304	-3,267	295,608	145,770
209,319	-3,088	295,313	145,790
210,334	-3,110	295,082	145,641
211,348	-3,164	294,903	145,486
212,363	-3,145	294,838	145,460
213,377	-3,016	294,511	145,414
214,392	-3,176	294,443	145,208
215,407	-3,198	294,143	145,026
216,421	-3,217	293,901	144,874
217,436	-3,230	293,711	144,755
218,450	-3,401	293,608	144,522
219,465	-3,320	293,376	144,475
220,480	-3,233	293,267	144,495
221,494	-3,127	292,981	144,446
222,509	-3,277	292,965	144,276
223,523	-3,085	292,682	144,314
224,538	-3,061	292,711	144,339
225,553	-3,011	292,322	144,183
226,567	-3,012	292,217	144,118
227,582	-3,170	292,016	143,850
228,596	-3,156	291,901	143,795
229,611	-2,888	291,590	143,892
230,626	-3,120	291,392	143,554
231,640	-3,272	291,107	143,251
232,655	-3,593	290,907	142,825
233,669	-3,580	290,493	142,622
234,684	-3,623	290,476	142,558
235,699	-3,231	290,229	142,808
236,713	-3,346	290,078	142,609
237,728	-3,148	289,843	142,674
238,742	-3,290	289,801	142,502
239,757	-3,150	289,574	142,514
240,772	-3,046	289,357	142,496
241,786	-3,227	289,194	142,226
242,801	-3,236	289,130	142,174
243,815	-3,249	288,963	142,066
244,830	-3,282	288,786	141,935
245,844	-3,329	288,428	141,701
246,859	-3,137	288,267	141,795
247,874	-3,230	288,211	141,665
248,888	-3,181	288,025	141,608
249,903	-3,108	287,987	141,648
250,917	-3,056	287,741	141,564
251,932	-2,790	287,678	141,778
252,947	-2,170	287,642	142,348
253,961	-2,389	287,357	141,983
254,976	-1,868	287,716	142,652
255,990	0,900	288,360	145,639
257,005	1,601	288,497	146,375
258,020	2,689	288,935	147,638
259,034	3,188	288,904	148,093
260,049	3,274	288,547	147,979
261,063	2,890	288,324	147,481
262,078	3,199	288,362	147,785
263,093	3,632	288,258	148,136
264,107	3,848	288,216	148,310
265,122	3,918	288,071	148,291
266,136	4,110	287,795	148,320
267,151	3,983	287,601	148,085
268,166	3,834	287,392	147,820
269,180	3,778	287,326	147,719
270,195	3,905	286,897	147,608
271,209	3,976	286,875	147,651
272,224	3,728	286,667	147,294
273,239	3,717	286,372	147,118
274,253	3,581	286,122	146,846
275,268	3,795	286,237	147,097
276,282	3,858	285,946	146,995
277,297	3,925	285,692	146,915
278,312	4,232	285,663	147,180
279,326	4,222	285,534	147,091
280,341	4,088	285,182	146,769
281,355	3,763	285,067	146,387
282,370	3,834	284,793	146,301
283,384	3,683	284,781	146,137
284,399	3,701	284,505	146,000
285,414	3,840	284,168	145,946
286,428	3,774	283,921	145,744
287,443	3,319	283,826	145,250
288,457	3,398	283,633	145,214
289,472	3,384	283,388	145,063
290,487	3,364	283,207	144,937
291,501	3,220	282,858	144,610
292,516	2,988	282,823	144,360
293,530	3,011	282,607	144,258
294,545	3,552	282,433	144,667
295,560	3,633	282,523	144,776
296,574	3,393	282,127	144,334
297,589	3,712	281,962	144,538
298,603	3,757	281,995	144,584
299,618	3,923	281,739	144,596
300,633	3,750	281,487	144,291
301,647	3,682	281,393	144,166
302,662	3,671	281,129	144,008
303,676	3,482	280,801	143,650
304,691	3,172	280,540	143,214
305,706	3,004	280,325	142,934
306,720	3,025	280,092	142,822
307,735	3,061	279,913	142,751
308,749	3,245	279,916	142,912
309,764	3,323	279,748	142,887
310,779	3,261	279,587	142,733
311,793	3,089	279,315	142,422
312,808	3,068	279,094	142,277
313,822	3,060	278,919	142,167
314,837	3,030	278,785	142,059
315,852	2,902	278,492	141,778
316,866	3,010	278,286	141,761
317,881	3,186	278,211	141,873
318,895	3,120	277,920	141,650
319,910	2,814	277,927	141,358
320,925	3,030	277,571	141,364
321,939	3,035	277,524	141,332
322,954	3,268	277,432	141,488
323,968	3,339	277,137	141,391
324,983	3,330	277,066	141,333
325,997	3,501	276,918	141,403
327,012	3,232	276,766	141,065
328,027	3,424	276,473	141,080
329,041	3,247	276,228	140,779
330,056	3,412	276,182	140,895
331,070	3,087	276,048	140,516
332,085	3,078	275,811	140,374
333,100	3,362	275,585	140,507
334,114	3,158	275,433	140,231
335,129	3,152	275,141	140,063
336,143	3,388	275,081	140,236
337,158	3,672	275,102	140,495
338,173	3,339	274,789	140,017
339,187	3,232	274,600	139,811
340,202	3,310	274,441	139,789
341,216	3,346	274,345	139,760
342,231	3,450	274,247	139,793
343,246	3,268	273,923	139,450
344,260	3,206	273,829	139,333
345,275	3,524	273,612	139,499
346,289	3,768	273,717	139,763
347,304	3,628	273,372	139,447
348,319	3,306	273,109	139,007
349,333	3,434	273,000	139,056
350,348	3,752	272,893	139,278
351,362	3,743	272,579	139,097
352,377	3,472	272,597	138,848
353,392	3,646	272,274	138,829
354,406	3,633	272,308	138,822
355,421	191,875	1330,735	1407,723
356,435	155,025	1459,762	1407,818
