DTS Sentinel unit serial number:	SN410029Multiplexer serial number:	ORYXHardware model number:	OX2-SRSoftware version number:	ORYX F/W v4,00 Oryx Data Collector v3.7.2.0data status	okinstallation	B4 Nyhavnadifferential loss correction	single-endedforward channel	channel 2reverse channel	N/Adate	2023/12/15time	14:50:13forward acquisition time	300,00reverse acquisition time	0,00gamma	499,1914k internal	0,3158k external	0,3158temperature offset calibration	1,0000default loss term (dB/km)	0,3820temperature slope calibration	1,0000multiplexer offset coefficient	1,0000multiplexer slope coefficient	1,0000fibre end	0,00T internal ref (°C)	15,53T ext. ref 1 (°C)	1,99T ext. ref 2 (°C)	2,11length (m)	temperature (°C)	Stokes	anti-Stokes-744,400	-119,112	0,082	0,010
-743,385	-129,015	-0,176	0,018
-742,371	47,484	0,183	-0,125
-741,356	-102,623	-0,267	-0,046
-740,342	134,280	0,023	-0,022
-739,327	-105,141	-0,311	0,052
-738,312	111,277	0,093	0,083
-737,298	-88,171	-0,281	0,062
-736,283	-109,716	0,117	-0,018
-735,269	-98,077	-0,196	0,037
-734,254	-200,000	0,110	0,000
-733,239	-84,045	-0,470	-0,109
-732,225	30,314	0,092	0,058
-731,210	-160,760	-0,046	-0,002
-730,196	800,000	0,007	-0,024
-729,181	800,000	0,041	-0,104
-728,167	800,000	0,012	-0,037
-727,152	20,006	-0,108	-0,064
-726,137	173,560	-0,070	0,075
-725,123	-76,838	0,031	-0,008
-724,108	800,000	-0,065	-0,173
-723,094	800,000	-0,062	-0,143
-722,079	-200,000	0,046	-0,164
-721,064	17,387	-0,077	-0,045
-720,050	505,675	-0,017	-0,029
-719,035	-200,000	0,047	-0,177
-718,021	199,620	-0,052	-0,059
-717,006	800,000	0,050	-0,125
-715,991	13,407	-0,072	-0,041
-714,977	800,000	-0,054	-0,143
-713,962	617,669	0,034	0,064
-712,948	800,000	-0,038	0,079
-711,933	58,467	-0,094	-0,068
-710,918	476,052	-0,061	-0,102
-709,904	800,000	0,031	-0,089
-708,889	800,000	-0,053	-0,147
-707,875	-200,000	0,015	-0,055
-706,860	800,000	0,002	0,006
-705,845	-3,715	-0,113	-0,058
-704,831	600,643	-0,017	0,032
-703,816	28,656	-0,045	-0,028
-702,802	387,650	0,038	-0,058
-701,787	13,981	-0,044	0,025
-700,772	205,843	-0,075	-0,086
-699,758	800,000	-0,039	0,088
-698,743	-144,418	0,198	0,013
-697,729	388,040	-0,060	-0,092
-696,714	800,000	-0,023	-0,062
-695,699	202,850	-0,040	-0,045
-694,685	-25,849	-0,175	0,076
-693,670	347,718	-0,091	-0,132
-692,656	367,419	-0,060	0,089
-691,641	32,566	-0,075	-0,048
-690,627	-129,730	0,099	-0,010
-689,612	7,862	-0,040	-0,022
-688,597	-81,463	-0,150	-0,036
-687,583	-132,811	-0,051	0,005
-686,568	731,896	-0,062	-0,123
-685,554	280,575	-0,078	0,103
-684,539	-163,202	-0,052	0,002
-683,524	-128,161	-0,061	0,006
-682,510	-200,000	0,013	-0,149
-681,495	530,683	-0,076	-0,133
-680,481	61,461	-0,082	-0,060
-679,466	-200,000	0,012	-0,104
-678,451	617,095	0,037	-0,069
-677,437	752,948	-0,060	-0,121
-676,422	190,848	0,053	-0,059
-675,408	-5,218	-0,046	-0,023
-674,393	641,280	0,033	0,062
-673,378	365,863	-0,050	-0,074
-672,364	-200,000	-0,017	-0,082
-671,349	-71,108	-0,106	-0,029
-670,335	-83,296	-0,018	-0,004
-669,320	237,878	-0,049	-0,060
-668,305	73,101	-0,023	0,018
-667,291	-200,000	-0,010	-0,119
-666,276	-200,000	-0,018	-0,182
-665,262	-200,000	-0,001	-0,057
-664,247	-76,892	0,067	0,017
-663,232	-200,000	-0,015	0,056
-662,218	302,619	-0,040	0,055
-661,203	101,808	0,034	-0,029
-660,189	-21,507	0,091	-0,040
-659,174	-177,493	-0,095	0,002
-658,159	250,614	0,103	-0,129
-657,145	-200,000	-0,025	0,156
-656,130	52,675	-0,125	0,087
-655,116	-200,000	-0,017	-0,082
-654,101	105,024	-0,051	0,044
-653,086	-35,052	-0,128	0,051
-652,072	-28,368	-0,073	0,031
-651,057	-155,152	-0,031	0,001
-650,043	-76,386	-0,143	-0,037
-649,028	3,244	0,120	-0,064
-648,014	-200,000	0,028	-0,118
-646,999	800,000	-0,014	-0,039
-645,984	230,843	-0,039	-0,047
-644,970	166,022	0,014	0,015
-643,955	-200,000	0,001	0,008
-642,941	110,240	-0,050	-0,044
-641,926	800,000	-0,036	0,103
-640,911	800,000	-0,023	0,068
-639,897	800,000	-0,043	-0,090
-638,882	154,334	0,032	-0,033
-637,868	-94,105	-0,084	0,017
-636,853	-34,067	-0,124	-0,050
-635,838	-135,645	-0,044	-0,004
-634,824	-10,411	-0,131	-0,063
-633,809	-200,000	0,019	0,072
-632,795	-200,000	-0,004	0,141
-631,780	800,000	0,041	-0,130
-630,765	-35,714	-0,068	-0,027
-629,751	-200,000	0,020	-0,090
-628,736	531,399	-0,026	-0,045
-627,722	-92,747	0,209	0,042
-626,707	-28,179	0,105	-0,045
-625,692	-150,122	0,049	0,003
-624,678	-200,000	-0,038	0,123
-623,663	401,861	0,024	0,037
-622,649	110,627	0,021	-0,018
-621,634	346,471	-0,082	-0,119
-620,619	147,494	-0,033	0,033
-619,605	-55,417	0,033	-0,011
-618,590	-28,783	0,063	-0,027
-617,576	150,906	-0,035	-0,035
-616,561	-66,590	-0,038	-0,011
-615,546	800,000	-0,030	0,074
-614,532	-98,289	-0,068	0,013
-613,517	-53,235	-0,091	-0,030
-612,503	-28,847	0,130	-0,055
-611,488	33,161	-0,078	0,049
-610,474	-181,025	-0,094	-0,001
-609,459	128,397	-0,089	0,083
-608,444	-102,788	-0,051	0,009
-607,430	-190,937	0,093	-0,001
-606,415	-117,288	-0,077	-0,010
-605,401	800,000	-0,056	0,125
-604,386	-200,000	0,023	-0,137
-603,371	269,813	0,104	0,134
-602,357	-103,534	0,067	0,011
-601,342	167,588	-0,024	0,025
-600,328	-39,686	-0,105	-0,040
-599,313	800,000	-0,022	0,069
-598,298	182,324	0,017	-0,018
-597,284	175,480	-0,057	0,061
-596,269	19,960	0,050	-0,029
-595,255	219,708	-0,069	-0,081
-594,240	-200,000	0,002	-0,146
-593,225	-121,768	0,010	0,001
-592,211	-131,610	-0,178	-0,017
-591,196	-200,000	-0,015	-0,155
-590,182	-170,629	-0,058	0,001
-589,167	-94,758	0,140	0,028
-588,152	-200,000	-0,029	-0,096
-587,138	-84,643	-0,057	0,013
-586,123	-80,128	-0,058	-0,014
-585,109	137,742	0,115	-0,110
-584,094	800,000	-0,018	-0,050
-583,079	116,110	-0,115	0,103
-582,065	308,942	0,036	0,050
-581,050	-86,777	0,048	0,011
-580,036	-167,758	0,227	-0,006
-579,021	-12,205	-0,175	-0,084
-578,006	-32,980	0,045	-0,018
-576,992	28,627	-0,070	-0,043
-575,977	-0,652	0,079	-0,041
-574,963	-46,525	-0,057	0,020
-573,948	627,806	-0,018	0,033
-572,934	-120,639	-0,064	-0,008
-571,919	8,577	-0,087	0,048
-570,904	178,107	-0,080	0,086
-569,890	800,000	0,024	-0,065
-568,875	158,846	0,124	0,126
-567,861	-200,000	0,014	-0,101
-566,846	232,710	-0,047	-0,057
-565,831	800,000	0,044	-0,097
-564,817	176,753	-0,048	-0,051
-563,802	460,043	-0,022	-0,037
-562,788	-38,606	-0,088	-0,034
-561,773	-71,663	0,030	0,008
-560,758	-92,580	0,138	0,028
-559,744	-200,000	-0,006	0,052
-558,729	192,672	0,091	0,100
-557,715	-200,000	0,013	0,045
-556,700	-200,000	0,008	-0,038
-555,685	654,958	-0,024	0,046
-554,671	800,000	0,034	0,079
-553,656	-200,000	0,014	0,130
-552,642	176,106	0,071	-0,075
-551,627	171,187	-0,065	0,069
-550,612	-19,614	-0,102	-0,046
-549,598	-64,740	-0,075	0,022
-548,583	-200,000	0,007	-0,157
-547,569	61,056	0,127	0,092
-546,554	-200,000	0,013	0,093
-545,539	75,859	0,114	0,088
-544,525	-200,000	0,037	0,153
-543,510	39,840	-0,071	-0,046
-542,496	294,951	0,116	-0,155
-541,481	523,669	-0,086	-0,148
-540,466	-158,707	0,124	-0,005
-539,452	800,000	-0,030	0,088
-538,437	422,809	0,033	0,052
-537,423	800,000	0,037	-0,108
-536,408	-25,533	0,127	-0,055
-535,393	-200,000	0,019	-0,115
-534,379	298,626	-0,037	0,050
-533,364	800,000	0,056	0,121
-532,350	-40,006	0,124	-0,047
-531,335	284,846	0,041	0,055
-530,321	321,525	-0,061	-0,086
-529,306	-200,000	0,002	0,021
-528,291	49,113	-0,011	0,007
-527,277	-110,678	-0,115	-0,017
-526,262	-99,197	-0,132	0,024
-525,248	-82,258	0,056	-0,013
-524,233	425,211	-0,061	0,096
-523,218	-67,286	-0,075	0,021
-522,204	-28,408	-0,029	0,012
-521,189	800,000	0,010	0,024
-520,175	-200,000	0,006	0,027
-519,160	-87,717	-0,046	0,010
-518,145	-89,344	0,066	0,014
-517,131	800,000	-0,029	0,064
-516,116	2,432	-0,070	0,037
-515,102	154,748	0,032	0,032
-514,087	800,000	0,051	0,126
-513,072	-175,235	-0,036	-0,001
-512,058	300,011	-0,075	-0,102
-511,043	553,401	0,051	-0,090
-510,029	800,000	-0,012	-0,027
-509,014	-48,912	-0,057	0,020
-507,999	-40,448	0,018	-0,007
-506,985	800,000	0,009	0,028
-505,970	-51,202	-0,148	-0,050
-504,956	67,672	-0,050	-0,037
-503,941	800,000	-0,014	-0,037
-502,926	769,256	0,024	-0,047
-501,912	173,007	0,093	0,098
-500,897	-200,000	-0,035	-0,169
-499,883	656,918	0,005	-0,010
-498,868	265,693	0,080	-0,102
-497,853	-72,668	-0,021	-0,006
-496,839	58,301	-0,102	-0,073
-495,824	-200,000	0,003	-0,110
-494,810	-44,830	-0,054	-0,019
-493,795	-200,000	-0,006	0,038
-492,781	124,533	0,103	-0,094
-491,766	184,388	0,035	0,038
-490,751	-67,495	0,152	0,043
-489,737	-29,127	0,007	-0,003
-488,722	-115,769	0,066	-0,009
-487,708	290,229	0,050	-0,066
-486,693	-142,680	-0,039	-0,003
-485,678	800,000	-0,053	-0,140
-484,664	122,792	-0,094	-0,086
-483,649	120,890	-0,116	0,106
-482,635	800,000	0,043	-0,098
-481,620	189,377	0,104	0,114
-480,605	149,989	-0,114	-0,113
-479,591	84,400	-0,070	0,055
-478,576	6,134	-0,094	-0,051
-477,562	524,536	-0,027	0,046
-476,547	204,418	0,057	-0,065
-475,532	-42,382	-0,154	-0,057
-474,518	-200,000	-0,021	-0,080
-473,503	66,359	-0,135	-0,100
-472,489	-37,058	0,054	-0,021
-471,474	349,305	-0,006	0,008
-470,459	-2,710	-0,103	-0,053
-469,445	225,802	0,074	-0,088
-468,430	-103,623	-0,095	0,016
-467,416	800,000	0,025	-0,072
-466,401	-117,954	-0,091	-0,012
-465,386	33,778	-0,041	0,026
-464,372	262,424	0,082	-0,105
-463,357	800,000	-0,033	-0,083
-462,343	415,193	-0,047	-0,073
-461,328	-200,000	-0,001	-0,049
-460,313	-122,239	0,016	-0,002
-459,299	-74,784	0,091	0,024
-458,284	658,524	0,023	0,043
-457,270	-134,259	-0,119	-0,011
-456,255	9,508	0,045	0,025
-455,241	-200,000	0,006	0,028
-454,226	-200,000	-0,013	-0,078
-453,211	-173,664	-0,185	0,004
-452,197	78,906	0,098	-0,077
-451,182	-194,445	0,011	0,000
-450,168	-55,769	0,096	-0,031
-449,153	-200,000	0,007	-0,036
-448,138	148,845	-0,034	0,034
-447,124	1,660	-0,023	-0,012
-446,109	-186,573	0,069	0,001
-445,095	-200,000	-0,002	0,105
-444,080	-74,356	0,075	-0,020
-443,065	46,223	-0,040	-0,027
-442,051	-14,819	-0,034	-0,016
-441,036	-200,000	0,008	-0,026
-440,022	19,662	-0,011	0,006
-439,007	-200,000	-0,012	-0,181
-437,992	33,206	0,101	0,064
-436,978	-166,481	0,048	-0,001
-435,963	-48,149	0,060	0,021
-434,949	4,540	-0,046	0,025
-433,934	-200,000	0,013	-0,112
-432,919	539,552	-0,026	-0,045
-431,905	82,606	-0,057	0,045
-430,890	-102,051	0,039	-0,007
-429,876	248,746	0,084	0,104
-428,861	4,056	0,046	0,024
-427,846	110,290	0,027	-0,024
-426,832	-200,000	0,003	-0,146
-425,817	800,000	0,041	0,088
-424,803	39,499	-0,167	-0,109
-423,788	-200,000	0,002	0,086
-422,773	800,000	0,050	0,148
-421,759	717,952	0,069	0,133
-420,744	96,913	-0,081	0,068
-419,730	791,986	0,052	-0,104
-418,715	22,284	-0,102	-0,060
-417,701	800,000	0,033	-0,072
-416,686	-200,000	0,029	0,184
-415,671	-200,000	0,016	0,061
-414,657	-8,033	0,077	0,037
-413,642	-200,000	-0,024	0,099
-412,628	-82,854	0,078	-0,018
-411,613	753,183	0,042	-0,083
-410,598	-200,000	0,004	-0,048
-409,584	-200,000	0,013	-0,044
-408,569	496,340	0,023	0,039
-407,555	800,000	0,085	0,210
-406,540	59,670	-0,036	0,026
-405,525	255,044	0,084	-0,104
-404,511	800,000	0,032	-0,102
-403,496	-200,000	-0,006	0,098
-402,482	800,000	0,023	-0,049
-401,467	-12,567	0,172	0,081
-400,452	-200,000	0,001	-0,012
-399,438	-21,109	0,065	-0,029
-398,423	124,025	-0,036	-0,033
-397,409	-97,748	-0,139	0,026
-396,394	800,000	0,049	-0,139
-395,379	70,758	-0,093	0,070
-394,365	339,458	-0,061	-0,087
-393,350	-24,453	0,109	0,047
-392,336	-200,000	-0,001	0,084
-391,321	118,397	0,027	0,024
-390,306	-102,416	-0,011	0,002
-389,292	-200,000	0,009	0,031
-388,277	-24,286	0,104	0,045
-387,263	800,000	-0,010	-0,028
-386,248	-65,688	0,042	-0,012
-385,233	-200,000	-0,002	0,207
-384,219	-49,202	-0,069	-0,024
-383,204	-200,000	-0,003	0,113
-382,190	-200,000	0,014	-0,059
-381,175	800,000	-0,055	-0,133
-380,160	-200,000	-0,000	-0,010
-379,146	-200,000	-0,011	0,208
-378,131	496,364	-0,046	0,078
-377,117	40,715	-0,149	0,098
-376,102	-200,000	0,006	-0,022
-375,088	705,711	0,033	0,064
-374,073	-156,358	0,076	-0,003
-373,058	-60,939	-0,014	0,004
-372,044	40,456	-0,080	0,052
-371,029	800,000	0,066	0,137
-370,015	-63,858	-0,132	-0,039
-369,000	-200,000	-0,008	-0,030
-367,985	73,407	0,140	-0,106
-366,971	-119,468	-0,047	-0,006
-365,956	-200,000	0,014	-0,066
-364,942	-71,275	0,081	0,022
-363,927	800,000	-0,040	0,120
-362,912	62,306	-0,070	0,051
-361,898	63,216	-0,125	0,091
-360,883	294,921	-0,074	0,099
-359,869	464,890	0,006	0,010
-358,854	-158,206	0,159	-0,007
-357,839	-105,991	0,076	-0,012
-356,825	128,242	0,064	0,059
-355,810	455,657	-0,044	0,071
-354,796	-174,818	-0,029	0,001
-353,781	40,756	-0,121	0,079
-352,766	800,000	-0,050	0,118
-351,752	-200,000	0,003	0,055
-350,737	-144,391	0,038	0,003
-349,723	-34,918	0,053	-0,021
-348,708	-54,955	-0,096	0,031
-347,693	-84,758	-0,114	-0,026
-346,679	549,320	0,089	-0,156
-345,664	-200,000	-0,001	0,120
-344,650	683,657	0,072	0,137
-343,635	800,000	0,010	-0,026
-342,620	-11,845	-0,055	0,026
-341,606	-146,228	-0,173	-0,011
-340,591	-173,266	0,087	0,002
-339,577	78,115	-0,082	0,063
-338,562	142,610	0,068	-0,066
-337,548	800,000	0,014	0,033
-336,533	-103,992	0,187	0,031
-335,518	-200,000	0,017	0,000
-334,504	800,000	-0,030	0,061
-333,489	15,730	-0,141	-0,080
-332,475	22,525	-0,135	-0,080
-331,460	265,115	0,044	0,056
-330,445	800,000	0,016	-0,032
-329,431	800,000	-0,035	0,081
-328,416	-138,492	0,085	-0,007
-327,402	-147,992	-0,139	0,008
-326,387	73,298	-0,060	0,046
-325,372	-199,559	-0,161	-0,001
-324,358	151,459	0,050	-0,050
-323,343	-200,000	0,012	-0,082
-322,329	269,420	0,073	-0,093
-321,314	516,442	0,054	0,092
-320,299	-10,852	-0,042	-0,020
-319,285	467,119	0,066	0,107
-318,270	-35,343	0,062	0,024
-317,256	-72,465	-0,112	-0,030
-316,241	251,994	0,031	0,038
-315,226	-5,193	0,097	0,048
-314,212	99,492	-0,078	0,065
-313,197	55,534	0,091	0,064
-312,183	120,688	0,041	0,037
-311,168	631,977	-0,091	0,169
-310,153	89,369	0,016	-0,013
-309,139	-200,000	0,038	0,154
-308,124	41,692	0,099	0,065
-307,110	196,661	-0,063	0,069
-306,095	-200,000	0,029	-0,092
-305,080	164,310	0,051	-0,052
-304,066	-114,298	-0,075	0,010
-303,051	-200,000	-0,021	0,070
-302,037	-200,000	-0,008	0,106
-301,022	800,000	0,011	-0,034
-300,008	-62,825	-0,104	-0,031
-298,993	161,767	0,040	0,041
-297,978	-200,000	0,014	0,069
-296,964	-63,226	-0,084	0,025
-295,949	-200,000	-0,047	-0,194
-294,935	-200,000	0,023	0,086
-293,920	112,368	0,076	0,067
-292,905	-200,000	-0,000	-0,040
-291,891	-200,000	0,009	0,058
-290,876	97,816	0,005	0,004
-289,862	-200,000	0,006	-0,048
-288,847	317,030	0,063	-0,087
-287,832	20,271	-0,062	-0,036
-286,818	278,137	0,090	-0,117
-285,803	189,375	0,110	-0,120
-284,789	-200,000	0,031	0,162
-283,774	-65,152	-0,047	-0,014
-282,759	-200,000	-0,005	0,070
-281,745	-45,639	-0,114	-0,041
-280,730	-40,068	0,102	-0,038
-279,716	3,214	-0,134	0,070
-278,701	63,305	0,105	-0,076
-277,686	110,497	0,084	0,073
-276,672	-90,141	0,075	-0,016
-275,657	-200,000	0,001	-0,005
-274,643	164,941	-0,107	-0,109
-273,628	-172,551	-0,056	-0,001
-272,613	155,003	0,092	-0,091
-271,599	88,245	0,019	-0,016
-270,584	-200,000	-0,035	0,122
-269,570	-29,646	-0,069	0,029
-268,555	775,281	0,030	0,060
-267,540	-83,519	-0,067	-0,016
-266,526	95,094	0,069	-0,057
-265,511	143,284	-0,114	0,109
-264,497	-140,273	0,098	0,007
-263,482	-125,546	0,047	0,005
-262,467	-33,354	-0,067	0,027
-261,453	-200,000	0,012	-0,149
-260,438	-84,397	-0,123	-0,028
-259,424	32,837	0,083	0,052
-258,409	800,000	0,024	0,053
-257,395	-42,184	-0,113	0,042
-256,380	-200,000	-0,026	0,103
-255,365	-200,000	0,009	0,067
-254,351	-200,000	0,016	0,061
-253,336	-200,000	0,012	-0,045
-252,322	-200,000	-0,017	-0,103
-251,307	77,461	0,069	-0,053
-250,292	-149,280	0,187	-0,011
-249,278	235,113	0,065	0,077
-248,263	800,000	0,038	0,104
-247,249	203,952	0,040	0,044
-246,234	397,774	-0,053	-0,081
-245,219	6,565	-0,116	-0,062
-244,205	74,371	-0,040	0,030
-243,190	299,353	0,070	-0,093
-242,176	7,116	-0,094	0,050
-241,161	800,000	0,064	0,158
-240,146	-114,863	0,205	0,028
-239,132	-30,537	-0,169	0,069
-238,117	90,322	0,051	0,041
-237,103	-200,000	-0,016	-0,073
-236,088	12,865	-0,042	-0,024
-235,073	800,000	0,031	0,065
-234,059	429,604	-0,057	0,090
-233,044	-200,000	-0,013	0,072
-232,030	551,325	-0,040	0,070
-231,015	-148,915	-0,046	0,003
-230,000	-200,000	0,030	-0,121
-228,986	800,000	0,007	-0,018
-227,971	-50,491	0,147	0,050
-226,957	-10,022	-0,045	0,022
-225,942	89,458	0,123	0,099
-224,927	-116,803	0,110	0,014
-223,913	187,637	0,048	-0,052
-222,898	13,256	0,078	0,043
-221,884	234,435	-0,165	-0,197
-220,869	-200,000	0,002	0,054
-219,855	-74,246	0,236	-0,061
-218,840	609,788	0,023	-0,041
-217,825	210,042	0,091	0,103
-216,811	800,000	-0,045	-0,122
-215,796	-200,000	-0,007	0,067
-214,782	-78,015	-0,045	0,011
-213,767	-200,000	-0,025	-0,085
-212,752	800,000	-0,059	-0,148
-211,738	800,000	0,034	0,094
-210,723	64,495	0,110	0,080
-209,709	371,128	-0,104	-0,153
-208,694	-200,000	0,002	-0,121
-207,679	467,207	-0,147	-0,239
-206,665	-200,000	-0,008	-0,153
-205,650	-91,837	0,154	0,031
-204,636	-91,948	-0,097	0,020
-203,621	-73,788	0,075	0,020
-202,606	469,765	-0,023	0,038
-201,592	-113,410	0,147	-0,021
-200,577	30,304	-0,092	-0,057
-199,563	800,000	0,043	0,110
-198,548	-200,000	-0,038	-0,210
-197,533	-200,000	-0,024	-0,111
-196,519	-200,000	-0,007	-0,054
-195,504	-44,614	0,078	0,028
-194,490	244,498	0,069	-0,084
-193,475	-167,726	0,098	-0,003
-192,460	661,132	0,027	0,051
-191,446	-21,641	0,102	0,045
-190,431	259,783	-0,032	0,039
-189,417	154,370	-0,031	-0,031
-188,402	350,888	-0,092	-0,132
-187,387	257,643	-0,011	-0,013
-186,373	-80,101	0,120	-0,029
-185,358	94,388	0,136	-0,111
-184,344	633,328	-0,043	0,079
-183,329	-39,929	0,107	0,040
-182,315	-37,417	-0,091	-0,035
-181,300	800,000	0,051	-0,147
-180,285	-173,265	0,067	0,001
-179,271	-200,000	-0,023	0,106
-178,256	259,231	-0,066	-0,082
-177,242	-79,440	-0,066	0,016
-176,227	64,866	0,020	0,015
-175,212	-5,694	0,093	-0,046
-174,198	-200,000	-0,024	0,128
-173,183	24,087	-0,121	0,072
-172,169	87,989	-0,031	0,025
-171,154	427,065	0,029	-0,045
-170,139	-67,202	0,089	0,025
-169,125	113,266	-0,074	-0,064
-168,110	-200,000	-0,014	0,182
-167,096	-200,000	0,009	0,042
-166,081	-200,000	-0,009	0,084
-165,066	263,580	0,094	-0,118
-164,052	-43,179	-0,083	0,030
-163,037	800,000	-0,048	0,104
-162,023	283,940	0,059	0,077
-161,008	92,921	0,124	0,101
-159,993	-39,587	-0,114	0,043
-158,979	-200,000	0,002	-0,137
-157,964	-121,828	-0,081	-0,010
-156,950	-200,000	0,010	-0,125
-155,935	93,452	0,027	0,022
-154,920	140,705	-0,078	0,074
-153,906	-200,000	0,012	0,074
-152,891	-200,000	-0,020	-0,096
-151,877	238,463	0,055	0,065
-150,862	-145,613	0,095	0,006
-149,847	601,284	0,047	-0,084
-148,833	800,000	0,040	0,127
-147,818	138,147	0,083	0,079
-146,804	-200,000	0,016	0,126
-145,789	-9,125	0,067	-0,032
-144,775	-200,000	0,020	-0,103
-143,760	-200,000	0,008	-0,037
-142,745	51,835	0,013	-0,009
-141,731	800,000	-0,032	-0,078
-140,716	-45,916	-0,134	0,047
-139,702	260,428	-0,034	-0,043
-138,687	-77,140	0,091	-0,023
-137,672	732,732	-0,057	-0,111
-136,658	-200,000	0,010	-0,037
-135,643	-72,597	-0,018	-0,005
-134,629	-200,000	0,008	-0,041
-133,614	5,817	0,050	0,027
-132,599	-67,213	0,019	-0,005
-131,585	-67,676	-0,085	-0,024
-130,570	70,870	0,012	0,009
-129,556	-115,553	-0,119	0,016
-128,541	-200,000	-0,006	0,085
-127,526	-91,031	0,090	-0,019
-126,512	800,000	0,039	0,103
-125,497	10,820	-0,138	0,076
-124,483	122,374	0,083	0,075
-123,468	-200,000	-0,006	-0,116
-122,453	-162,587	0,045	0,002
-121,439	-200,000	-0,007	-0,120
-120,424	82,743	-0,053	-0,042
-119,410	5,728	-0,112	0,059
-118,395	739,030	0,024	-0,047
-117,380	800,000	-0,065	0,171
-116,366	800,000	-0,051	0,124
-115,351	800,000	-0,063	-0,150
-114,337	-156,092	0,001	0,000
-113,322	784,280	0,059	0,118
-112,307	-200,000	0,013	0,091
-111,293	-1,910	0,077	0,039
-110,278	223,281	-0,021	-0,024
-109,264	-67,136	-0,007	-0,002
-108,249	175,555	-0,080	0,084
-107,234	20,208	-0,070	0,040
-106,220	390,438	-0,076	-0,114
-105,205	800,000	-0,056	0,146
-104,191	-120,385	0,150	0,018
-103,176	-37,738	0,031	-0,012
-102,162	218,143	-0,101	0,116
-101,147	-11,262	-0,046	-0,022
-100,132	800,000	-0,043	-0,109
-99,118	-140,406	0,037	-0,003
-98,103	15,674	0,106	-0,060
-97,089	-60,363	0,053	0,016
-96,074	-103,036	0,092	-0,016
-95,059	-200,000	-0,008	-0,029
-94,045	617,197	0,020	-0,036
-93,030	-200,000	-0,013	0,072
-92,016	-94,741	-0,042	0,008
-91,001	18,473	0,152	0,087
-89,986	58,249	-0,049	-0,034
-88,972	84,656	-0,051	0,040
-87,957	18,909	0,187	-0,107
-86,943	-200,000	-0,011	-0,040
-85,928	129,461	-0,079	-0,072
-84,913	63,204	-0,052	0,038
-83,899	269,547	-0,023	-0,030
-82,884	-200,000	0,000	-0,035
-81,870	510,756	0,099	-0,166
-80,855	-78,628	-0,067	-0,016
-79,840	288,764	0,016	-0,021
-78,826	118,463	-0,037	0,032
-77,811	-64,535	-0,058	0,017
-76,797	-200,000	0,016	0,142
-75,782	644,271	-0,057	-0,105
-74,767	323,643	-0,083	-0,114
-73,753	-200,000	0,005	0,023
-72,738	800,000	0,051	0,133
-71,724	89,061	-0,050	-0,040
-70,709	-200,000	-0,000	-0,008
-69,694	-200,000	0,014	-0,092
-68,680	-78,803	0,066	0,016
-67,665	70,794	-0,090	0,066
-66,651	-83,714	0,071	0,016
-65,636	182,556	-0,089	0,095
-64,622	-200,000	-0,006	-0,041
-63,607	800,000	-0,030	-0,081
-62,592	800,000	0,114	-0,241
-61,578	800,000	-0,041	-0,123
-60,563	87,263	0,093	0,074
-59,549	-200,000	0,004	0,099
-58,534	9,744	-2,029	-1,101
-57,519	-200,000	-0,061	-0,879
-56,505	-200,000	-1,211	-4,962
-55,490	0,721	0,831	0,426
-54,476	800,000	5,153	11,870
-53,461	-200,000	17,454	289,018
-52,446	800,000	723,446	2238,505
-51,432	550,072	1636,477	2827,021
-50,417	112,247	1628,212	1412,331
-49,403	76,895	1283,625	976,868
-48,388	32,679	1026,355	635,531
-47,373	20,339	988,355	571,385
-46,359	18,666	976,456	559,006
-45,344	15,905	972,299	547,582
-44,330	16,091	971,200	547,551
-43,315	15,605	969,071	544,744
-42,300	15,532	968,088	543,931
-41,286	15,580	967,210	543,572
-40,271	15,567	966,130	542,902
-39,257	15,594	965,211	542,450
-38,242	15,656	964,333	542,136
-37,227	15,561	963,631	541,413
-36,213	15,600	962,660	540,973
-35,198	15,506	961,851	540,193
-34,184	15,576	961,136	539,995
-33,169	15,444	960,225	539,036
-32,154	15,593	959,149	538,891
-31,140	15,557	958,284	538,266
-30,125	15,616	957,609	538,059
-29,111	15,582	956,713	537,422
-28,096	15,565	956,390	537,166
-27,082	15,582	955,557	536,732
-26,067	15,560	954,818	536,224
-25,052	15,566	953,840	535,673
-24,038	15,527	953,240	535,190
-23,023	15,589	952,388	534,889
-22,009	15,574	951,887	534,537
-20,994	15,583	951,509	534,332
-19,979	15,617	950,715	533,975
-18,965	15,558	950,085	533,412
-17,950	15,561	949,491	533,068
-16,936	15,504	948,849	532,503
-15,921	15,495	948,273	532,129
-14,906	15,457	947,484	531,546
-13,892	15,439	946,819	531,092
-12,877	15,404	946,364	530,705
-11,863	15,346	945,727	530,142
-10,848	15,465	945,226	530,220
-9,833	15,570	944,687	530,230
-8,819	15,551	944,044	529,785
-7,804	15,410	943,307	528,907
-6,790	15,406	942,903	528,645
-5,775	15,493	942,284	528,552
-4,760	15,476	941,581	528,085
-3,746	15,527	940,781	527,776
-2,731	15,345	940,307	526,913
-1,717	15,306	939,598	526,373
-0,702	15,330	938,913	526,042
0,313	15,094	938,367	525,785
1,327	17,753	935,886	532,715
2,342	24,745	808,981	479,362
3,356	18,708	518,423	296,700
4,371	-2,808	394,206	196,879
5,386	-5,245	378,026	185,636
6,400	-6,563	371,768	180,873
7,415	-7,473	368,713	178,224
8,429	-7,757	367,213	177,127
9,444	-7,865	366,076	176,428
10,459	-7,954	365,154	175,857
11,473	-8,177	364,637	175,314
12,488	-8,126	363,913	175,013
13,502	-8,347	363,205	174,383
14,517	-8,570	362,698	173,847
15,531	-8,777	362,059	173,270
16,546	-8,726	361,625	173,110
17,561	-8,732	361,090	172,832
18,575	-8,644	360,891	172,829
19,590	-8,787	360,344	172,375
20,604	-8,760	360,006	172,231
21,619	-8,793	359,505	171,936
22,634	-8,652	359,104	171,901
23,648	-8,963	358,888	171,402
24,663	-8,740	358,480	171,464
25,677	-8,806	358,223	171,246
26,692	-8,837	357,850	171,014
27,707	-8,932	357,611	170,769
28,721	-8,727	357,086	170,753
29,736	-8,855	356,726	170,410
30,750	-8,798	356,357	170,287
31,765	-8,834	356,212	170,158
32,780	-8,611	355,814	170,225
33,794	-8,780	355,564	169,885
34,809	-8,853	355,230	169,621
35,823	-8,951	355,106	169,429
36,838	-8,867	354,675	169,310
37,853	-8,964	354,169	168,935
38,867	-8,983	354,094	168,862
39,882	-8,845	353,731	168,840
40,896	-8,741	353,411	168,797
41,911	-8,947	353,105	168,389
42,926	-8,932	352,801	168,247
43,940	-8,959	352,424	168,020
44,955	-8,923	352,192	167,937
45,969	-9,031	351,953	167,678
46,984	-9,101	351,763	167,489
47,999	-9,019	351,522	167,458
49,013	-9,060	351,203	167,241
50,028	-9,058	350,846	167,059
51,042	-9,017	350,540	166,948
52,057	-8,999	350,246	166,814
53,071	-9,040	350,023	166,644
54,086	-8,949	349,699	166,583
55,101	-9,061	349,472	166,327
56,115	-8,954	349,260	166,338
57,130	-8,784	348,871	166,341
58,144	-8,703	348,697	166,339
59,159	-8,753	348,479	166,161
60,174	-8,729	348,269	166,074
61,188	-8,805	347,884	165,786
62,203	-8,721	347,645	165,757
63,217	-8,708	347,300	165,592
64,232	-8,717	346,970	165,410
65,247	-8,525	346,792	165,537
66,261	-8,681	346,348	165,126
67,276	-8,824	346,046	164,800
68,290	-8,969	345,785	164,490
69,305	-8,938	345,491	164,372
70,320	-8,891	345,294	164,319
71,334	-8,793	344,908	164,235
72,349	-8,808	344,874	164,187
73,363	-8,562	344,435	164,251
74,378	-8,726	344,327	163,992
75,393	-8,697	343,862	163,791
76,407	-8,886	343,810	163,530
77,422	-8,856	343,277	163,297
78,436	-8,843	343,097	163,212
79,451	-8,646	342,831	163,301
80,466	-8,925	342,538	162,822
81,480	-9,000	342,270	162,593
82,495	-8,916	341,986	162,541
83,509	-8,978	341,685	162,311
84,524	-8,876	341,330	162,247
85,539	-8,969	341,158	162,042
86,553	-9,015	340,850	161,828
87,568	-8,915	340,664	161,842
88,582	-9,071	340,463	161,551
89,597	-8,842	340,064	161,612
90,611	-8,900	339,909	161,456
91,626	-8,972	339,786	161,301
92,641	-8,863	339,440	161,247
93,655	-8,854	339,130	161,096
94,670	-9,003	339,119	160,906
95,684	-8,919	338,677	160,778
96,699	-8,880	338,409	160,681
97,714	-8,960	338,234	160,492
98,728	-9,025	337,858	160,224
99,743	-8,995	337,632	160,138
100,757	-8,882	337,237	160,065
101,772	-8,950	337,140	159,927
102,787	-9,021	336,923	159,729
103,801	-8,952	336,726	159,699
104,816	-8,938	336,188	159,447
105,830	-8,775	336,306	159,675
106,845	-8,864	335,865	159,350
107,860	-8,818	335,693	159,306
108,874	-8,842	335,437	159,143
109,889	-8,889	335,274	158,997
110,903	-8,812	334,860	158,875
111,918	-8,812	334,564	158,721
112,933	-8,731	334,475	158,756
113,947	-8,824	334,294	158,551
114,962	-8,701	333,830	158,455
115,976	-8,757	333,758	158,344
116,991	-8,729	333,479	158,228
118,006	-8,950	333,401	157,927
119,020	-8,818	333,297	158,013
120,035	-8,821	332,895	157,806
121,049	-8,685	332,646	157,827
122,064	-8,775	332,423	157,606
123,079	-8,856	332,248	157,418
124,093	-8,809	331,837	157,261
125,108	-8,899	331,658	157,061
126,122	-8,851	331,185	156,878
127,137	-8,880	331,028	156,757
128,151	-8,891	330,885	156,663
129,166	-8,906	330,795	156,589
130,181	-8,818	330,356	156,466
131,195	-9,009	330,086	156,110
132,210	-8,779	329,867	156,250
133,224	-8,809	329,622	156,086
134,239	-8,683	329,414	156,114
135,254	-8,866	329,195	155,793
136,268	-8,738	328,950	155,805
137,283	-8,845	328,606	155,510
138,297	-8,937	328,318	155,257
139,312	-9,060	328,218	155,060
140,327	-8,855	327,998	155,169
141,341	-8,577	327,809	155,375
142,356	-8,448	327,609	155,408
143,370	-8,535	327,498	155,246
144,385	-8,644	327,125	154,935
145,400	-8,598	326,953	154,889
146,414	-8,578	326,653	154,755
147,429	-8,649	326,394	154,542
148,443	-8,637	326,230	154,463
149,458	-8,441	325,941	154,528
150,473	-8,428	325,728	154,428
151,487	-8,550	325,650	154,242
152,502	-8,422	325,168	154,141
153,516	-8,606	325,001	153,846
154,531	-8,663	324,794	153,672
155,546	-8,539	324,535	153,672
156,560	-8,543	324,398	153,589
157,575	-8,685	324,094	153,276
158,589	-8,628	323,932	153,248
159,604	-8,448	323,597	153,272
160,619	-8,516	323,522	153,149
161,633	-8,531	323,310	153,019
162,648	-8,636	323,033	152,759
163,662	-8,541	322,902	152,787
164,677	-8,591	322,599	152,576
165,692	-8,577	322,474	152,518
166,706	-8,526	322,191	152,426
167,721	-8,403	322,174	152,538
168,735	-8,475	321,924	152,328
169,750	-8,487	321,507	152,104
170,764	-8,461	321,400	152,068
171,779	-8,401	321,092	151,974
172,794	-8,410	321,055	151,933
173,808	-8,528	320,675	151,613
174,823	-8,721	320,356	151,239
175,837	-8,658	320,102	151,174
176,852	-8,625	319,994	151,145
177,867	-8,489	319,774	151,174
178,881	-8,477	319,615	151,099
179,896	-8,463	319,256	150,930
180,910	-8,480	319,308	150,924
181,925	-8,496	319,071	150,781
182,940	-8,502	318,807	150,636
183,954	-8,633	318,708	150,435
184,969	-8,457	318,469	150,497
185,983	-8,320	318,182	150,495
186,998	-8,326	317,977	150,379
188,013	-8,325	317,628	150,201
189,027	-8,462	317,625	150,039
190,042	-8,349	317,323	150,005
191,056	-8,270	317,171	150,004
192,071	-8,348	316,987	149,820
193,086	-8,145	316,667	149,871
194,100	-8,327	316,400	149,538
195,115	-8,148	316,240	149,640
196,129	-8,230	315,861	149,360
197,144	-8,207	315,630	149,262
198,159	-8,342	315,479	149,033
199,173	-8,379	315,310	148,902
200,188	-8,153	315,098	149,027
201,202	-8,415	314,865	148,626
202,217	-8,822	314,585	148,051
203,232	-8,731	314,176	147,942
204,246	-8,581	314,113	148,056
205,261	-8,480	313,983	148,089
206,275	-8,299	313,822	148,190
207,290	-8,270	313,631	148,118
208,304	-8,278	313,290	147,935
209,319	-8,302	313,247	147,877
210,334	-8,453	312,814	147,500
211,348	-8,358	312,712	147,539
212,363	-8,288	312,460	147,480
213,377	-8,337	312,386	147,381
214,392	-8,338	312,052	147,209
215,407	-8,417	311,752	146,971
216,421	-8,604	311,571	146,677
217,436	-8,640	311,388	146,541
218,450	-8,647	311,165	146,415
219,465	-8,502	310,979	146,466
220,480	-8,525	310,828	146,358
221,494	-8,508	310,591	146,251
222,509	-8,654	310,474	146,031
223,523	-8,520	310,214	146,034
224,538	-8,450	310,079	146,031
225,553	-8,315	309,817	146,035
226,567	-8,312	309,608	145,926
227,582	-8,196	309,457	145,963
228,596	-8,135	309,255	145,918
229,611	-8,281	309,049	145,656
230,626	-8,385	308,866	145,449
231,640	-8,741	308,634	144,959
232,655	-8,787	308,291	144,737
233,669	-8,774	308,075	144,636
234,684	-8,731	307,894	144,582
235,699	-8,783	307,750	144,449
236,713	-8,630	307,470	144,461
237,728	-8,727	307,252	144,246
238,742	-8,534	307,180	144,399
239,757	-8,397	306,832	144,363
240,772	-8,385	306,594	144,251
241,786	-8,404	306,521	144,184
242,801	-8,628	306,305	143,840
243,815	-8,493	306,103	143,870
244,830	-8,465	305,957	143,817
245,844	-8,453	305,725	143,708
246,859	-8,666	305,593	143,415
247,874	-8,582	305,344	143,371
248,888	-8,636	305,243	143,255
249,903	-8,403	304,897	143,318
250,917	-8,315	304,894	143,394
251,932	-8,031	304,714	143,587
252,947	-7,712	304,785	143,933
253,961	-6,906	304,687	144,694
254,976	-6,944	304,713	144,655
255,990	-7,123	304,207	144,221
257,005	-5,737	304,929	145,963
258,020	-2,410	306,223	149,969
259,034	-0,978	306,581	151,595
260,049	-0,269	306,717	152,373
261,063	0,029	306,687	152,649
262,078	0,444	306,596	153,014
263,093	0,600	306,454	153,088
264,107	0,836	306,356	153,266
265,122	0,850	306,032	153,104
266,136	0,846	305,905	153,023
267,151	0,850	305,819	152,971
268,166	0,954	305,649	152,978
269,180	0,941	305,405	152,829
270,195	0,950	305,226	152,734
271,209	0,952	304,916	152,568
272,224	0,994	304,833	152,556
273,239	1,037	304,595	152,466
274,253	0,997	304,460	152,345
275,268	0,835	304,247	152,061
276,282	0,902	303,965	151,973
277,297	1,016	303,776	151,981
278,312	0,970	303,507	151,787
279,326	0,888	303,410	151,642
280,341	0,909	303,259	151,573
281,355	0,858	303,023	151,391
282,370	0,803	302,844	151,232
283,384	0,961	302,525	151,218
284,399	0,946	302,423	151,139
285,414	0,978	302,223	151,058
286,428	1,007	302,092	151,008
287,443	0,873	301,895	150,762
288,457	0,775	301,701	150,553
289,472	0,754	301,447	150,392
290,487	0,810	301,209	150,316
291,501	0,867	301,155	150,333
292,516	0,781	300,729	150,021
293,530	0,893	300,733	150,121
294,545	0,882	300,441	149,951
295,560	0,801	300,239	149,756
296,574	0,833	300,050	149,680
297,589	0,885	299,936	149,662
298,603	0,884	299,641	149,500
299,618	0,860	299,468	149,377
300,633	0,728	299,349	149,173
301,647	0,794	299,139	149,120
302,662	0,747	298,922	148,953
303,676	0,766	298,753	148,873
304,691	0,975	298,432	148,907
305,706	0,713	298,366	148,602
306,720	0,620	298,182	148,405
307,735	0,810	297,976	148,477
308,749	0,809	297,664	148,307
309,764	0,732	297,476	148,125
310,779	0,875	297,422	148,225
311,793	0,809	297,162	148,018
312,808	0,786	296,936	147,870
313,822	0,824	296,688	147,770
314,837	0,804	296,561	147,674
315,852	0,842	296,232	147,534
316,866	0,885	296,213	147,554
317,881	0,878	296,077	147,466
318,895	0,788	295,871	147,262
319,910	0,870	295,649	147,219
320,925	0,756	295,456	146,998
321,939	1,037	295,161	147,112
322,954	0,865	295,080	146,891
323,968	0,769	294,830	146,660
324,983	0,966	294,728	146,788
325,997	0,887	294,378	146,523
327,012	0,885	294,289	146,464
328,027	0,775	294,212	146,306
329,041	0,914	293,867	146,257
330,056	0,858	293,722	146,117
331,070	0,751	293,691	145,984
332,085	0,924	293,315	145,952
333,100	0,937	293,111	145,850
334,114	0,914	292,900	145,710
335,129	0,931	292,869	145,698
336,143	0,891	292,548	145,487
337,158	0,981	292,426	145,500
338,173	0,950	292,240	145,365
339,187	1,224	291,887	145,441
340,202	1,099	291,910	145,319
341,216	0,996	291,767	145,135
342,231	1,046	291,478	145,027
343,246	1,053	291,393	144,977
344,260	1,102	291,045	144,839
345,275	1,072	291,003	144,776
346,289	0,962	290,825	144,569
347,304	0,971	290,601	144,454
348,319	0,957	290,519	144,386
349,333	0,999	290,278	144,294
350,348	1,025	289,930	144,133
351,362	1,230	289,893	144,297
352,377	1,240	289,697	144,198
353,392	1,173	289,541	144,043
354,406	1,024	289,358	143,796
355,421	192,204	1324,790	1390,825
356,435	155,865	1450,918	1390,811
