DTS Sentinel unit serial number:	SN410029Multiplexer serial number:	ORYXHardware model number:	OX2-SRSoftware version number:	ORYX F/W v4,00 Oryx Data Collector v3.7.2.0data status	okinstallation	B4 Nyhavnadifferential loss correction	single-endedforward channel	channel 2reverse channel	N/Adate	2023/12/15time	20:05:13forward acquisition time	300,00reverse acquisition time	0,00gamma	499,1914k internal	0,3137k external	0,3137temperature offset calibration	1,0000default loss term (dB/km)	0,3820temperature slope calibration	1,0000multiplexer offset coefficient	1,0000multiplexer slope coefficient	1,0000fibre end	0,00T internal ref (°C)	20,32T ext. ref 1 (°C)	5,85T ext. ref 2 (°C)	6,01length (m)	temperature (°C)	Stokes	anti-Stokes-744,400	-200,000	0,010	0,193
-743,385	117,654	-0,198	0,181
-742,371	368,782	0,049	0,073
-741,356	-27,200	-0,247	0,106
-740,342	-51,861	0,055	-0,019
-739,327	-71,068	-0,383	0,106
-738,312	274,304	-0,083	-0,109
-737,298	-18,503	-0,266	0,123
-736,283	-52,676	0,153	-0,052
-735,269	56,556	-0,140	0,101
-734,254	12,445	-0,116	-0,066
-733,239	-67,738	-0,474	-0,137
-732,225	-164,559	-0,054	0,002
-731,210	539,302	-0,058	-0,102
-730,196	-40,828	-0,079	-0,030
-729,181	133,559	0,024	0,023
-728,167	178,585	0,078	0,085
-727,152	471,291	0,011	0,018
-726,137	-200,000	-0,005	-0,101
-725,123	12,055	-0,021	0,012
-724,108	723,075	0,010	-0,021
-723,094	-40,205	-0,205	-0,079
-722,079	161,837	0,062	-0,064
-721,064	362,401	0,069	0,103
-720,050	-175,984	-0,075	-0,001
-719,035	-16,737	0,088	-0,041
-718,021	-200,000	-0,018	0,065
-717,006	68,171	-0,026	0,019
-715,991	-200,000	-0,032	-0,201
-714,977	-200,000	0,009	0,046
-713,962	800,000	-0,019	0,063
-712,948	61,385	-0,025	-0,018
-711,933	102,894	0,027	-0,024
-710,918	367,862	-0,049	0,074
-709,904	-18,092	0,060	0,028
-708,889	413,491	-0,052	-0,082
-707,875	800,000	-0,022	0,048
-706,860	57,997	0,066	-0,048
-705,845	233,642	-0,024	-0,029
-704,831	20,304	-0,151	-0,090
-703,816	-119,906	0,064	-0,008
-702,802	424,335	-0,096	-0,153
-701,787	-60,981	-0,087	-0,027
-700,772	13,698	-0,031	-0,018
-699,758	-82,058	-0,088	0,021
-698,743	-200,000	-0,014	0,099
-697,729	217,353	-0,087	-0,103
-696,714	-200,000	-0,016	0,053
-695,699	-200,000	0,011	-0,111
-694,685	800,000	0,019	-0,057
-693,670	-200,000	0,014	-0,049
-692,656	165,033	-0,053	-0,055
-691,641	1,534	-0,096	-0,051
-690,627	22,353	0,151	0,091
-689,612	-200,000	0,057	0,214
-688,597	-200,000	-0,044	-0,148
-687,583	108,197	0,057	-0,050
-686,568	-34,668	-0,010	-0,004
-685,554	33,239	-0,075	0,048
-684,539	-100,284	-0,058	-0,011
-683,524	800,000	-0,046	0,104
-682,510	455,621	-0,081	0,133
-681,495	62,117	-0,029	-0,021
-680,481	800,000	-0,023	-0,068
-679,466	-93,814	-0,073	-0,015
-678,451	800,000	0,011	0,027
-677,437	134,086	0,047	-0,045
-676,422	21,391	0,108	0,065
-675,408	800,000	0,018	-0,055
-674,393	6,973	-0,022	-0,012
-673,378	57,901	0,121	0,087
-672,364	-99,354	-0,144	-0,027
-671,349	-114,556	0,093	-0,013
-670,335	-91,842	0,163	0,034
-669,320	85,348	-0,051	-0,041
-668,305	-173,485	0,116	0,003
-667,291	-90,135	-0,125	0,027
-666,276	-200,000	0,000	-0,105
-665,262	-16,878	-0,108	-0,050
-664,247	382,202	-0,041	-0,063
-663,232	182,838	0,077	-0,084
-662,218	800,000	0,066	-0,176
-661,203	-200,000	-0,022	-0,084
-660,189	34,461	0,043	0,028
-659,174	92,933	-0,049	-0,041
-658,159	-104,228	-0,180	0,031
-657,145	79,526	-0,072	0,057
-656,130	800,000	-0,016	-0,048
-655,116	190,625	0,036	-0,040
-654,101	-9,971	-0,134	0,066
-653,086	800,000	-0,052	-0,123
-652,072	-163,329	-0,132	0,005
-651,057	-13,985	-0,143	-0,068
-650,043	385,671	-0,085	-0,130
-649,028	310,736	-0,048	-0,066
-648,014	-118,265	-0,103	-0,013
-646,999	-200,000	-0,010	0,142
-645,984	244,786	-0,088	0,109
-644,970	31,476	-0,106	0,067
-643,955	-66,215	-0,094	-0,028
-642,941	147,428	-0,045	-0,044
-641,926	-200,000	0,026	0,127
-640,911	-68,599	-0,162	-0,046
-639,897	351,847	0,074	0,109
-638,882	-200,000	-0,013	-0,057
-637,868	-78,635	0,070	-0,018
-636,853	-200,000	0,013	0,042
-635,838	448,172	-0,069	-0,112
-634,824	-90,940	0,024	0,005
-633,809	-200,000	0,012	0,069
-632,795	533,895	0,020	-0,035
-631,780	-200,000	-0,044	-0,149
-630,765	588,923	-0,051	0,094
-629,751	199,889	-0,084	-0,096
-628,736	-19,612	0,081	-0,037
-627,722	28,965	-0,047	-0,030
-626,707	1,078	-0,033	0,017
-625,692	571,099	-0,048	-0,086
-624,678	151,678	0,083	0,083
-623,663	800,000	-0,029	-0,081
-622,649	-99,447	-0,129	-0,024
-621,634	-97,776	-0,040	-0,008
-620,619	800,000	0,016	0,043
-619,605	-200,000	0,010	-0,130
-618,590	89,286	-0,082	0,067
-617,576	7,484	-0,046	-0,026
-616,561	462,023	-0,019	-0,031
-615,546	140,976	-0,113	0,110
-614,532	115,567	0,052	-0,047
-613,517	800,000	-0,028	-0,084
-612,503	105,722	-0,109	0,095
-611,488	-89,901	0,074	0,016
-610,474	35,971	0,080	0,052
-609,459	195,547	0,073	0,082
-608,444	-200,000	-0,006	-0,030
-607,430	569,225	-0,077	-0,138
-606,415	222,524	-0,063	-0,074
-605,401	225,656	0,042	-0,050
-604,386	114,649	0,071	0,064
-603,371	588,708	0,078	0,142
-602,357	-101,607	-0,084	-0,015
-601,342	21,801	-0,106	0,064
-600,328	-200,000	0,012	-0,084
-599,313	800,000	0,018	-0,040
-598,298	-200,000	0,012	-0,157
-597,284	-57,344	0,129	0,042
-596,269	270,443	-0,102	0,132
-595,255	-70,063	0,179	-0,050
-594,240	60,295	-0,066	0,048
-593,225	800,000	-0,042	-0,119
-592,211	-112,163	-0,159	-0,023
-591,196	-104,211	-0,090	0,015
-590,182	595,815	-0,035	-0,064
-589,167	-37,403	0,139	0,054
-588,152	-69,210	-0,074	-0,021
-587,138	-114,390	-0,053	0,007
-586,123	156,530	-0,109	-0,111
-585,109	-119,002	-0,078	0,010
-584,094	235,757	0,077	0,095
-583,079	-200,000	-0,028	-0,103
-582,065	80,685	-0,055	0,044
-581,050	800,000	-0,034	0,080
-580,036	658,563	0,029	0,055
-579,021	-55,834	0,055	0,018
-578,006	7,267	0,008	-0,004
-576,992	358,331	-0,030	-0,044
-575,977	-22,683	-0,094	0,042
-574,963	45,631	-0,035	0,024
-573,948	52,038	-0,069	0,049
-572,934	338,992	0,071	-0,103
-571,919	-19,127	0,077	-0,035
-570,904	-92,724	-0,070	-0,014
-569,890	126,471	-0,033	-0,031
-568,875	-27,434	0,017	0,007
-567,861	739,221	-0,048	0,096
-566,846	24,713	0,053	0,032
-565,831	164,359	-0,044	-0,046
-564,817	474,774	-0,119	-0,199
-563,802	-200,000	-0,005	-0,082
-562,788	-200,000	-0,008	0,042
-561,773	800,000	-0,028	-0,059
-560,758	-200,000	-0,000	0,116
-559,744	-161,271	0,128	-0,005
-558,729	-200,000	-0,021	0,112
-557,715	-32,714	0,100	0,041
-556,700	5,479	-0,040	0,022
-555,685	26,886	-0,063	-0,039
-554,671	-80,075	0,057	-0,014
-553,656	-3,942	-0,105	0,054
-552,642	-85,485	0,136	0,031
-551,627	-97,131	-0,050	0,009
-550,612	-9,732	0,051	0,025
-549,598	576,146	-0,069	-0,124
-548,583	-7,215	0,058	0,029
-547,569	-200,000	-0,036	0,120
-546,554	48,405	-0,008	0,006
-545,539	-87,392	0,051	0,011
-544,525	-49,762	0,029	0,010
-543,510	-200,000	-0,019	-0,138
-542,496	0,740	0,048	-0,025
-541,481	-37,273	-0,041	-0,016
-540,466	-200,000	-0,005	-0,079
-539,452	-156,876	0,138	0,006
-538,437	-96,433	-0,063	-0,012
-537,423	92,422	0,043	0,035
-536,408	129,723	-0,118	-0,111
-535,393	-200,000	-0,029	-0,114
-534,379	-130,942	-0,076	-0,007
-533,364	-200,000	0,008	-0,038
-532,350	70,677	0,091	-0,069
-531,335	90,280	0,039	-0,032
-530,321	-67,733	0,176	-0,050
-529,306	9,209	-0,110	0,061
-528,291	9,914	0,085	-0,047
-527,277	272,641	-0,059	-0,077
-526,262	-200,000	0,004	-0,133
-525,248	-41,763	-0,121	-0,045
-524,233	-65,874	0,057	0,017
-523,218	-39,711	0,030	0,012
-522,204	-17,743	0,091	-0,042
-521,189	-59,159	0,069	-0,022
-520,175	800,000	-0,017	0,049
-519,160	-89,236	-0,058	0,012
-518,145	30,382	0,114	0,071
-517,131	-192,252	-0,166	-0,001
-516,116	157,401	-0,051	0,052
-515,102	198,791	-0,083	0,094
-514,087	306,020	-0,069	-0,094
-513,072	-200,000	0,020	-0,090
-512,058	27,474	0,116	-0,072
-511,043	-200,000	-0,019	-0,070
-510,029	-200,000	-0,003	0,037
-509,014	-200,000	-0,004	-0,102
-507,999	800,000	0,058	0,168
-506,985	-56,167	0,143	-0,046
-505,970	-128,903	-0,218	-0,022
-504,956	-200,000	0,012	0,070
-503,941	174,460	0,071	-0,075
-502,926	164,505	0,033	0,035
-501,912	24,134	0,122	0,074
-500,897	800,000	0,051	-0,128
-499,883	-200,000	-0,018	-0,142
-498,868	800,000	-0,063	-0,137
-497,853	-136,831	0,076	-0,006
-496,839	332,867	0,006	0,009
-495,824	-92,579	0,120	0,024
-494,810	-200,000	-0,002	0,031
-493,795	800,000	-0,041	0,087
-492,781	23,328	0,086	-0,052
-491,766	201,368	0,024	-0,028
-490,751	-41,454	-0,045	-0,017
-489,737	-98,387	-0,052	0,010
-488,722	515,411	-0,030	-0,052
-487,708	-15,704	0,017	0,008
-486,693	-200,000	0,005	-0,083
-485,678	-200,000	-0,007	-0,056
-484,664	50,423	-0,016	0,011
-483,649	179,522	0,011	-0,012
-482,635	-144,433	0,077	0,005
-481,620	800,000	0,024	-0,052
-480,605	61,539	-0,060	0,044
-479,591	32,682	0,050	0,032
-478,576	25,553	0,086	0,052
-477,562	676,489	0,029	-0,056
-476,547	-23,653	-0,074	-0,032
-475,532	494,129	-0,063	-0,107
-474,518	50,359	0,039	0,027
-473,503	137,286	-0,042	0,040
-472,489	800,000	0,026	0,073
-471,474	15,540	0,180	-0,103
-470,459	38,031	-0,047	0,031
-469,445	-4,762	0,040	0,020
-468,430	28,894	0,105	-0,065
-467,416	523,824	-0,045	0,078
-466,401	800,000	0,037	0,118
-465,386	800,000	-0,024	0,054
-464,372	-200,000	-0,038	0,128
-463,357	800,000	-0,051	-0,153
-462,343	800,000	-0,026	-0,055
-461,328	181,962	-0,056	-0,061
-460,313	115,187	-0,026	-0,023
-459,299	18,161	0,133	0,077
-458,284	-137,774	-0,021	0,002
-457,270	-200,000	0,021	0,158
-456,255	-34,069	-0,144	0,058
-455,241	-200,000	-0,030	0,139
-454,226	-200,000	0,026	0,205
-453,211	-200,000	0,014	0,058
-452,197	41,395	-0,102	0,068
-451,182	43,828	0,101	0,068
-450,168	-68,498	0,034	0,010
-449,153	-140,122	-0,112	-0,008
-448,138	-85,461	-0,044	0,010
-447,124	1,616	-0,080	0,042
-446,109	315,143	0,008	-0,011
-445,095	40,404	0,045	0,030
-444,080	800,000	-0,021	-0,049
-443,065	-200,000	0,010	0,084
-442,051	800,000	0,037	0,093
-441,036	83,500	0,093	-0,074
-440,022	-14,249	0,076	-0,036
-439,007	-21,601	-0,045	0,020
-437,992	195,474	-0,097	0,109
-436,978	-200,000	0,001	-0,053
-435,963	169,485	0,042	0,044
-434,949	102,903	-0,091	-0,078
-433,934	-200,000	0,009	-0,092
-432,919	-199,140	-0,016	0,000
-431,905	800,000	-0,015	-0,042
-430,890	653,177	0,066	-0,125
-429,876	-155,830	0,196	0,009
-428,861	-82,521	-0,082	-0,019
-427,846	-80,929	-0,118	0,028
-426,832	97,202	-0,039	0,033
-425,817	-200,000	0,004	-0,168
-424,803	800,000	-0,026	-0,057
-423,788	800,000	-0,016	-0,043
-422,773	800,000	-0,057	-0,167
-421,759	800,000	0,022	-0,053
-420,744	119,544	0,083	0,075
-419,730	-2,488	-0,142	-0,073
-418,715	800,000	-0,054	-0,112
-417,701	-113,106	0,099	-0,014
-416,686	137,790	0,048	-0,046
-415,671	189,626	-0,040	0,045
-414,657	-116,267	-0,122	-0,016
-413,642	800,000	-0,052	-0,136
-412,628	-123,725	0,124	-0,014
-411,613	-28,153	-0,083	0,035
-410,598	-200,000	-0,009	-0,076
-409,584	11,151	0,099	-0,055
-408,569	800,000	-0,030	0,064
-407,555	-64,784	0,141	-0,042
-406,540	-200,000	0,011	0,053
-405,525	515,923	0,089	-0,154
-404,511	-200,000	-0,010	-0,068
-403,496	127,008	-0,110	0,102
-402,482	-59,647	0,093	0,029
-401,467	-107,925	-0,098	-0,015
-400,452	704,798	0,083	0,160
-399,438	-2,085	0,154	0,079
-398,423	261,868	-0,029	-0,036
-397,409	-200,000	-0,002	0,055
-396,394	442,300	-0,104	-0,167
-395,379	-200,000	-0,002	-0,106
-394,365	-200,000	-0,014	0,054
-393,350	60,831	0,006	-0,004
-392,336	-178,562	0,147	0,002
-391,321	-43,473	0,089	0,033
-390,306	359,480	0,063	-0,092
-389,292	800,000	-0,048	-0,103
-388,277	-131,749	-0,126	-0,012
-387,263	-57,869	0,127	0,040
-386,248	6,086	0,058	0,031
-385,233	-200,000	-0,013	0,106
-384,219	800,000	0,056	0,159
-383,204	86,753	-0,131	-0,106
-382,190	177,752	0,069	-0,073
-381,175	-200,000	0,021	0,117
-380,160	208,273	-0,047	0,054
-379,146	-200,000	0,031	0,138
-378,131	250,106	0,023	-0,028
-377,117	800,000	-0,021	0,052
-376,102	-81,342	0,007	0,002
-375,088	800,000	-0,043	-0,134
-374,073	800,000	-0,025	-0,079
-373,058	-200,000	-0,035	0,114
-372,044	-200,000	0,005	-0,100
-371,029	196,192	0,042	0,047
-370,015	93,100	0,059	-0,049
-369,000	800,000	-0,037	0,096
-367,985	-60,645	-0,039	-0,012
-366,971	272,232	-0,078	-0,101
-365,956	-200,000	0,010	0,039
-364,942	-143,426	0,095	0,007
-363,927	-49,569	-0,169	0,059
-362,912	412,320	0,075	0,116
-361,898	-117,271	-0,107	0,014
-360,883	143,195	-0,071	0,069
-359,869	-47,381	-0,137	0,048
-358,854	-200,000	0,002	-0,061
-357,839	287,738	0,052	0,069
-356,825	-200,000	-0,012	-0,075
-355,810	-144,559	0,056	-0,004
-354,796	-25,806	-0,121	-0,052
-353,781	317,285	0,074	-0,103
-352,766	800,000	-0,046	-0,097
-351,752	84,665	0,106	0,084
-350,737	60,973	0,196	0,142
-349,723	-200,000	-0,027	0,118
-348,708	-101,315	0,098	0,017
-347,693	-166,516	-0,118	-0,004
-346,679	35,652	-0,075	-0,048
-345,664	14,171	-0,156	-0,088
-344,650	-200,000	0,021	-0,173
-343,635	-5,788	-0,063	-0,031
-342,620	59,671	0,014	-0,010
-341,606	426,615	0,071	0,113
-340,591	32,542	-0,113	-0,071
-339,577	-200,000	-0,006	-0,094
-338,562	52,619	-0,149	-0,104
-337,548	-200,000	-0,004	-0,105
-336,533	27,266	0,036	-0,022
-335,518	-115,445	-0,038	0,005
-334,504	-200,000	0,003	0,052
-333,489	-125,948	-0,036	-0,004
-332,475	-200,000	-0,006	-0,136
-331,460	72,359	-0,115	-0,088
-330,445	170,450	0,061	-0,064
-329,431	-200,000	0,007	-0,068
-328,416	-200,000	-0,010	0,069
-327,402	41,409	0,087	0,058
-326,387	-200,000	-0,010	0,045
-325,372	-54,029	-0,076	0,025
-324,358	214,060	-0,050	-0,058
-323,343	800,000	0,039	0,118
-322,329	100,342	0,096	0,081
-321,314	-200,000	-0,019	0,097
-320,299	-106,382	0,107	-0,017
-319,285	-41,949	-0,033	0,012
-318,270	-200,000	-0,009	0,044
-317,256	62,593	-0,148	-0,108
-316,241	-23,778	-0,127	0,055
-315,226	-133,137	0,022	0,002
-314,212	0,732	-0,036	-0,019
-313,197	698,019	0,042	0,081
-312,183	204,474	-0,046	0,052
-311,168	-48,455	-0,126	-0,044
-310,153	370,758	-0,068	-0,101
-309,139	-200,000	-0,015	0,152
-308,124	166,424	0,107	0,111
-307,110	-149,763	-0,032	-0,002
-306,095	-154,848	0,120	0,006
-305,080	-147,679	-0,051	-0,003
-304,066	-134,340	-0,090	-0,008
-303,051	342,510	-0,038	0,054
-302,037	-131,459	-0,077	0,007
-301,022	356,863	0,016	-0,023
-300,008	800,000	-0,016	0,046
-298,993	-200,000	0,000	0,158
-297,978	-27,288	0,029	-0,012
-296,964	-58,958	0,055	0,017
-295,949	522,044	-0,029	-0,050
-294,935	363,335	-0,042	-0,062
-293,920	-200,000	0,001	0,012
-292,905	-63,515	0,126	0,038
-291,891	-200,000	0,028	0,094
-290,876	227,779	-0,008	0,010
-289,862	11,256	-0,032	-0,018
-288,847	128,157	0,150	-0,139
-287,832	-117,781	0,132	-0,017
-286,818	5,145	-0,116	-0,062
-285,803	-150,089	0,088	0,005
-284,789	-200,000	-0,021	0,106
-283,774	-2,421	0,183	0,093
-282,759	-200,000	-0,009	0,046
-281,745	379,331	-0,027	-0,040
-280,730	800,000	0,016	-0,037
-279,716	-64,689	0,156	-0,046
-278,701	-200,000	0,011	0,073
-277,686	-200,000	0,018	0,171
-276,672	-195,827	0,052	0,000
-275,657	238,742	-0,077	0,093
-274,643	96,949	0,048	0,040
-273,628	374,814	0,020	-0,030
-272,613	-170,422	-0,089	-0,002
-271,599	187,067	0,128	-0,139
-270,584	82,671	0,029	0,023
-269,570	800,000	0,027	0,065
-268,555	-200,000	0,013	0,131
-267,540	602,701	0,045	0,082
-266,526	3,938	-0,139	-0,074
-265,511	-200,000	0,050	-0,168
-264,497	615,594	0,052	-0,095
-263,482	800,000	0,048	-0,121
-262,467	-98,068	0,123	0,023
-261,453	191,986	-0,023	-0,026
-260,438	-172,927	-0,086	-0,002
-259,424	-200,000	0,018	-0,129
-258,409	99,803	-0,096	-0,081
-257,395	-100,274	-0,090	0,016
-256,380	800,000	-0,022	0,055
-255,365	800,000	-0,084	0,190
-254,351	81,246	0,118	0,093
-253,336	-200,000	0,014	-0,057
-252,322	800,000	-0,037	-0,098
-251,307	-90,920	0,006	-0,001
-250,292	27,462	-0,041	0,025
-249,278	-200,000	-0,009	-0,136
-248,263	800,000	0,034	0,072
-247,249	-200,000	-0,031	0,230
-246,234	800,000	0,032	-0,102
-245,219	-200,000	0,002	-0,064
-244,205	594,285	0,033	-0,059
-243,190	-130,118	-0,048	-0,005
-242,176	185,227	0,103	0,112
-241,161	60,817	0,059	-0,043
-240,146	545,438	0,035	0,060
-239,132	38,625	0,071	-0,046
-238,117	-27,802	-0,098	-0,041
-237,103	332,920	-0,085	-0,120
-236,088	355,597	-0,014	0,020
-235,073	-200,000	-0,001	0,034
-234,059	578,204	0,034	0,061
-233,044	70,790	0,135	0,102
-232,030	-143,524	-0,127	-0,009
-231,015	480,538	0,025	0,041
-230,000	-25,267	-0,099	-0,042
-228,986	-79,419	0,068	0,017
-227,971	-41,126	0,137	0,051
-226,957	-2,880	-0,034	0,017
-225,942	-200,000	-0,033	0,160
-224,927	800,000	-0,013	0,033
-223,913	207,480	-0,057	-0,065
-222,898	46,245	-0,075	0,050
-221,884	-11,399	0,099	0,047
-220,869	571,152	0,040	0,072
-219,855	-59,391	0,159	0,049
-218,840	6,281	0,134	-0,072
-217,825	746,174	0,051	0,099
-216,811	9,341	0,048	0,026
-215,796	148,473	0,054	-0,054
-214,782	-121,388	0,032	-0,004
-213,767	-35,566	0,151	0,059
-212,752	-64,985	0,159	0,046
-211,738	30,170	0,144	-0,089
-210,723	122,204	0,031	0,028
-209,709	237,189	-0,099	-0,120
-208,694	-91,178	0,106	-0,022
-207,679	-57,763	-0,012	-0,004
-206,665	31,010	-0,080	0,050
-205,650	-60,178	-0,097	0,030
-204,636	48,445	0,104	-0,071
-203,621	201,640	-0,069	-0,078
-202,606	-140,981	0,049	-0,004
-201,592	720,793	-0,027	0,053
-200,577	305,669	-0,031	-0,042
-199,563	800,000	0,037	0,098
-198,548	465,038	0,089	0,145
-197,533	-119,247	-0,069	0,009
-196,519	-101,918	0,185	0,032
-195,504	-178,705	-0,169	0,003
-194,490	800,000	-0,045	0,143
-193,475	-200,000	-0,019	0,087
-192,460	-200,000	0,011	0,065
-191,446	-200,000	0,011	0,050
-190,431	-35,004	0,083	0,033
-189,417	800,000	-0,046	0,100
-188,402	-200,000	-0,004	-0,015
-187,387	-200,000	-0,008	-0,053
-186,373	1,039	-0,043	0,022
-185,358	195,589	-0,086	0,095
-184,344	57,790	0,009	0,006
-183,329	800,000	-0,026	0,070
-182,315	-200,000	-0,028	0,125
-181,300	-200,000	-0,004	-0,047
-180,285	-112,166	-0,064	-0,009
-179,271	800,000	0,043	-0,094
-178,256	-33,089	0,162	-0,065
-177,242	-125,086	-0,019	-0,002
-176,227	26,131	0,113	-0,069
-175,212	-200,000	-0,008	0,080
-174,198	-130,527	0,088	0,008
-173,183	-104,836	-0,096	-0,016
-172,169	281,590	-0,049	-0,063
-171,154	99,747	-0,035	-0,029
-170,139	-58,298	0,072	0,023
-169,125	-145,409	0,083	0,005
-168,110	800,000	-0,019	-0,042
-167,096	-21,996	0,134	0,059
-166,081	-200,000	-0,001	-0,030
-165,066	-87,960	0,181	-0,039
-164,052	350,618	-0,010	-0,014
-163,037	20,371	-0,080	-0,047
-162,023	-102,189	-0,007	0,001
-161,008	-200,000	0,023	0,131
-159,993	102,842	-0,068	0,057
-158,979	333,462	0,051	0,072
-157,964	31,702	-0,144	-0,089
-156,950	-114,584	0,030	-0,004
-155,935	13,896	-0,025	-0,014
-154,920	-200,000	0,010	-0,070
-153,906	-200,000	0,027	0,113
-152,891	800,000	-0,016	-0,048
-151,877	769,907	0,065	-0,130
-150,862	158,052	-0,052	-0,052
-149,847	-200,000	0,002	0,023
-148,833	155,909	0,032	0,032
-147,818	-200,000	-0,008	-0,041
-146,804	-110,857	0,034	0,005
-145,789	-183,297	-0,223	0,003
-144,775	72,565	-0,085	-0,064
-143,760	800,000	0,059	-0,168
-142,745	-200,000	0,007	-0,119
-141,731	-200,000	-0,027	0,161
-140,716	-200,000	-0,016	0,083
-139,702	800,000	0,023	0,048
-138,687	449,055	-0,024	-0,039
-137,672	127,041	0,123	-0,113
-136,658	-56,416	-0,179	0,057
-135,643	179,931	-0,064	0,068
-134,629	304,372	0,061	-0,082
-133,614	-25,025	0,122	0,052
-132,599	438,721	0,028	0,044
-131,585	119,000	0,055	0,050
-130,570	-200,000	0,002	-0,017
-129,556	-200,000	0,002	-0,074
-128,541	800,000	-0,018	-0,042
-127,526	-200,000	0,040	0,157
-126,512	71,860	-0,108	0,082
-125,497	313,098	-0,034	-0,047
-124,483	-104,526	0,112	-0,019
-123,468	-200,000	0,023	0,135
-122,453	800,000	-0,051	-0,103
-121,439	800,000	-0,060	-0,166
-120,424	-130,810	0,092	-0,009
-119,410	-102,063	0,007	0,001
-118,395	222,201	0,052	0,061
-117,380	-59,838	0,017	0,005
-116,366	403,602	0,007	0,011
-115,351	81,016	-0,094	-0,073
-114,337	-134,350	-0,066	0,006
-113,322	-200,000	0,047	0,160
-112,307	-162,325	0,108	0,004
-111,293	-200,000	0,007	0,103
-110,278	39,236	0,071	0,046
-109,264	-51,294	-0,037	0,013
-108,249	232,489	0,034	0,040
-107,234	-180,074	-0,190	-0,003
-106,220	603,443	-0,035	-0,064
-105,205	636,594	-0,078	-0,145
-104,191	800,000	0,021	-0,050
-103,176	800,000	-0,057	0,119
-102,162	417,428	0,047	0,073
-101,147	94,521	0,102	-0,084
-100,132	138,869	-0,120	-0,114
-99,118	265,520	0,017	0,021
-98,103	21,435	-0,023	0,013
-97,089	276,865	0,105	0,135
-96,074	545,935	0,031	0,054
-95,059	-200,000	-0,009	-0,036
-94,045	-200,000	-0,013	0,075
-93,030	-45,366	0,060	-0,021
-92,016	-51,042	-0,160	0,054
-91,001	79,232	0,056	-0,044
-89,986	-200,000	0,007	-0,053
-88,972	436,494	-0,079	0,125
-87,957	55,865	-0,103	0,072
-86,943	-200,000	-0,013	-0,054
-85,928	76,769	-0,095	-0,073
-84,913	-200,000	-0,031	-0,154
-83,899	35,487	-0,128	-0,081
-82,884	702,970	0,036	0,069
-81,870	-200,000	0,026	0,115
-80,855	-200,000	-0,005	0,047
-79,840	800,000	0,049	0,126
-78,826	-200,000	-0,004	-0,142
-77,811	154,912	-0,043	-0,043
-76,797	-85,854	-0,046	-0,010
-75,782	287,780	0,086	-0,112
-74,767	-200,000	0,010	0,102
-73,753	800,000	0,019	0,039
-72,738	367,235	-0,024	0,035
-71,724	355,422	0,123	-0,178
-70,709	-25,068	-0,052	-0,022
-69,694	432,836	-0,034	0,053
-68,680	24,986	0,134	0,080
-67,665	-200,000	0,018	0,177
-66,651	-38,125	-0,077	0,030
-65,636	-200,000	-0,002	0,075
-64,622	37,426	-0,074	-0,047
-63,607	-11,128	-0,113	-0,054
-62,592	-200,000	-0,021	0,086
-61,578	-98,241	-0,033	0,006
-60,563	800,000	0,012	0,035
-59,549	-200,000	-0,020	0,122
-58,534	-117,169	-1,648	-0,214
-57,519	556,207	-0,792	-1,383
-56,505	-200,000	-0,935	-4,503
-55,490	-190,355	0,653	0,005
-54,476	800,000	4,789	11,582
-53,461	-200,000	14,794	262,754
-52,446	-200,000	698,676	2238,554
-51,432	575,045	1620,710	2869,744
-50,417	120,683	1626,323	1460,318
-49,403	79,236	1280,862	990,783
-48,388	37,776	1019,754	653,008
-47,373	22,846	979,983	578,703
-46,359	21,918	969,020	569,178
-45,344	20,588	964,758	562,329
-44,330	20,606	963,274	561,499
-43,315	20,383	962,028	560,028
-42,300	20,322	961,023	559,224
-41,286	20,354	959,889	558,644
-40,271	20,361	959,008	558,133
-39,257	20,413	958,050	557,720
-38,242	20,325	957,281	556,967
-37,227	20,330	956,414	556,455
-36,213	20,311	955,499	555,839
-35,198	20,303	954,531	555,228
-34,184	20,419	953,690	555,092
-33,169	20,334	952,927	554,352
-32,154	20,419	951,762	553,926
-31,140	20,444	950,895	553,477
-30,125	20,379	950,350	552,931
-29,111	20,379	949,548	552,442
-28,096	20,308	948,788	551,752
-27,082	20,314	948,156	551,382
-26,067	20,340	947,391	550,999
-25,052	20,333	946,777	550,596
-24,038	20,320	946,019	550,091
-23,023	20,365	945,228	549,754
-22,009	20,341	944,684	549,341
-20,994	20,368	944,076	549,051
-19,979	20,346	943,659	548,714
-18,965	20,342	942,910	548,246
-17,950	20,350	942,267	547,875
-16,936	20,299	941,659	547,339
-15,921	20,256	941,002	546,799
-14,906	20,284	940,189	546,394
-13,892	20,243	939,638	545,919
-12,877	20,247	938,996	545,538
-11,863	20,201	938,366	545,007
-10,848	20,227	937,829	544,755
-9,833	20,304	937,459	544,762
-8,819	20,317	936,800	544,397
-7,804	20,272	936,057	543,803
-6,790	20,247	935,553	543,409
-5,775	20,309	934,911	543,210
-4,760	20,255	934,283	542,653
-3,746	20,205	933,839	542,216
-2,731	20,133	932,951	541,455
-1,717	20,047	932,311	540,789
-0,702	20,072	931,659	540,471
0,313	19,886	930,978	540,306
1,327	22,493	928,822	547,165
2,342	30,237	804,848	494,970
3,356	25,191	505,933	302,575
4,371	1,371	372,912	192,866
5,386	-1,350	355,872	180,717
6,400	-2,743	349,680	175,885
7,415	-3,415	346,820	173,630
8,429	-3,582	345,375	172,692
9,444	-3,695	344,451	172,082
10,459	-3,885	343,789	171,511
11,473	-3,942	343,072	171,071
12,488	-3,553	342,563	171,259
13,502	-3,631	341,974	170,859
14,517	-3,744	341,380	170,414
15,531	-4,136	340,940	169,721
16,546	-4,100	340,470	169,513
17,561	-4,030	340,005	169,347
18,575	-4,072	339,573	169,070
19,590	-4,295	339,279	168,648
20,604	-4,100	338,876	168,659
21,619	-4,225	338,406	168,265
22,634	-4,195	338,124	168,145
23,648	-4,076	337,632	168,023
24,663	-4,076	337,541	167,963
25,677	-4,180	337,125	167,621
26,692	-4,135	336,797	167,495
27,707	-4,154	336,343	167,232
28,721	-4,287	336,083	166,935
29,736	-4,351	335,880	166,745
30,750	-4,262	335,522	166,655
31,765	-4,343	335,171	166,372
32,780	-4,041	334,892	166,566
33,794	-4,221	334,698	166,247
34,809	-4,204	334,401	166,105
35,823	-4,207	334,120	165,948
36,838	-4,159	333,750	165,803
37,853	-4,272	333,449	165,510
38,867	-4,189	333,139	165,436
39,882	-4,239	332,907	165,250
40,896	-4,234	332,709	165,142
41,911	-4,270	332,292	164,880
42,926	-4,174	332,041	164,850
43,940	-4,255	331,749	164,597
44,955	-4,334	331,598	164,418
45,969	-4,214	331,194	164,339
46,984	-4,363	331,107	164,113
47,999	-4,519	330,695	163,718
49,013	-4,722	330,527	163,390
50,028	-4,674	330,118	163,227
51,042	-4,724	329,780	162,989
52,057	-4,894	329,467	162,628
53,071	-4,761	329,256	162,659
54,086	-4,601	329,065	162,730
55,101	-4,666	328,956	162,588
56,115	-4,405	328,652	162,717
57,130	-4,132	328,524	162,947
58,144	-4,037	328,104	162,831
59,159	-3,919	328,037	162,915
60,174	-4,121	327,694	162,504
61,188	-4,121	327,538	162,412
62,203	-4,122	327,204	162,231
63,217	-4,022	326,888	162,171
64,232	-4,048	326,729	162,049
65,247	-3,960	326,492	162,015
66,261	-4,011	326,197	161,797
67,276	-4,187	325,876	161,428
68,290	-4,426	325,502	160,962
69,305	-4,193	325,189	161,052
70,320	-4,277	325,058	160,880
71,334	-4,154	324,829	160,888
72,349	-3,971	324,545	160,936
73,363	-4,061	324,532	160,815
74,378	-4,101	324,204	160,594
75,393	-3,979	323,909	160,569
76,407	-4,056	323,658	160,345
77,422	-4,114	323,367	160,123
78,436	-4,015	323,130	160,101
79,451	-3,971	322,862	160,002
80,466	-4,080	322,453	159,665
81,480	-4,154	322,232	159,460
82,495	-4,238	321,935	159,206
83,509	-4,310	321,806	159,050
84,524	-4,490	321,684	158,777
85,539	-4,392	321,281	158,671
86,553	-4,541	321,117	158,413
87,568	-4,423	320,917	158,429
88,582	-4,314	320,613	158,385
89,597	-4,309	320,452	158,296
90,611	-4,269	320,335	158,268
91,626	-4,061	320,012	158,321
92,641	-4,109	319,707	158,104
93,655	-4,202	319,525	157,898
94,670	-4,167	319,269	157,796
95,684	-4,352	319,026	157,460
96,699	-4,188	318,709	157,468
97,714	-4,254	318,537	157,297
98,728	-4,347	318,348	157,090
99,743	-4,469	318,035	156,789
100,757	-4,394	317,736	156,709
101,772	-4,414	317,552	156,582
102,787	-4,397	317,428	156,525
103,801	-4,230	317,054	156,507
104,816	-4,189	316,862	156,442
105,830	-4,018	316,720	156,543
106,845	-4,176	316,572	156,286
107,860	-4,163	316,281	156,143
108,874	-4,124	316,028	156,046
109,889	-4,131	315,664	155,845
110,903	-4,292	315,608	155,630
111,918	-4,268	315,462	155,569
112,933	-4,140	315,014	155,473
113,947	-4,037	314,911	155,518
114,962	-4,187	314,712	155,245
115,976	-4,014	314,450	155,287
116,991	-4,147	314,329	155,072
118,006	-4,211	314,118	154,885
119,020	-4,158	313,989	154,865
120,035	-4,091	313,794	154,826
121,049	-4,029	313,467	154,717
122,064	-4,082	313,293	154,560
123,079	-4,086	313,002	154,399
124,093	-4,403	312,742	153,920
125,108	-4,432	312,340	153,678
126,122	-4,553	312,189	153,461
127,137	-4,553	311,933	153,321
128,151	-4,485	311,847	153,338
129,166	-4,334	311,465	153,296
130,181	-4,436	311,262	153,074
131,195	-4,522	311,009	152,845
132,210	-4,180	310,945	153,162
133,224	-4,247	310,680	152,947
134,239	-4,137	310,544	152,982
135,254	-3,992	310,279	152,991
136,268	-4,140	309,976	152,672
137,283	-4,324	309,612	152,286
138,297	-4,379	309,479	152,148
139,312	-4,398	309,221	151,989
140,327	-4,230	309,096	152,090
141,341	-4,050	309,004	152,219
142,356	-4,015	308,943	152,213
143,370	-3,898	308,631	152,168
144,385	-3,833	308,367	152,092
145,400	-3,808	308,205	152,025
146,414	-3,809	308,005	151,912
147,429	-3,902	307,886	151,742
148,443	-3,858	307,607	151,638
149,458	-3,954	307,385	151,414
150,473	-3,893	307,237	151,392
151,487	-3,933	306,848	151,144
152,502	-3,866	306,670	151,113
153,516	-3,837	306,455	151,024
154,531	-3,856	306,364	150,946
155,546	-3,899	306,101	150,759
156,560	-3,940	305,804	150,555
157,575	-4,108	305,552	150,245
158,589	-4,018	305,293	150,196
159,604	-4,002	305,251	150,179
160,619	-3,782	304,868	150,205
161,633	-3,968	304,941	150,035
162,648	-3,879	304,510	149,902
163,662	-3,960	304,429	149,765
164,677	-3,826	304,304	149,827
165,692	-3,786	304,000	149,706
166,706	-3,881	303,929	149,560
167,721	-3,846	303,612	149,427
168,735	-3,908	303,521	149,305
169,750	-3,795	303,320	149,309
170,764	-3,682	303,104	149,305
171,779	-3,806	302,890	149,059
172,794	-3,832	302,647	148,900
173,808	-3,942	302,361	148,633
174,823	-4,152	302,034	148,245
175,837	-4,340	301,771	147,910
176,852	-3,986	301,759	148,252
177,867	-3,708	301,586	148,439
178,881	-3,772	301,464	148,300
179,896	-3,835	301,367	148,174
180,910	-3,756	300,964	148,043
181,925	-3,841	300,714	147,820
182,940	-3,655	300,546	147,914
183,954	-3,800	300,394	147,679
184,969	-3,725	300,238	147,665
185,983	-3,825	300,106	147,486
186,998	-3,630	299,875	147,557
188,013	-3,661	299,743	147,447
189,027	-3,781	299,473	147,180
190,042	-3,633	299,159	147,162
191,056	-3,468	299,043	147,258
192,071	-3,439	298,893	147,200
193,086	-3,511	298,759	147,049
194,100	-3,734	298,483	146,675
195,115	-3,682	298,072	146,512
196,129	-3,851	298,007	146,297
197,144	-3,593	297,701	146,393
198,159	-3,597	297,524	146,289
199,173	-3,768	297,305	145,996
200,188	-3,518	297,079	146,124
201,202	-3,711	296,799	145,780
202,217	-4,056	296,631	145,339
203,232	-4,304	296,347	144,938
204,246	-3,912	296,162	145,227
205,261	-3,808	296,240	145,356
206,275	-3,697	295,967	145,320
207,290	-3,781	295,779	145,130
208,304	-3,838	295,557	144,953
209,319	-3,863	295,374	144,824
210,334	-3,645	295,004	144,847
211,348	-3,963	294,977	144,505
212,363	-3,690	294,631	144,594
213,377	-3,605	294,627	144,663
214,392	-3,758	294,383	144,379
215,407	-3,831	294,082	144,145
216,421	-3,930	293,899	143,945
217,436	-3,860	293,538	143,824
218,450	-3,925	293,429	143,694
219,465	-3,848	293,369	143,729
220,480	-3,578	293,154	143,877
221,494	-3,752	293,013	143,622
222,509	-3,700	292,780	143,547
223,523	-3,714	292,604	143,434
224,538	-3,712	292,340	143,294
225,553	-3,681	292,154	143,221
226,567	-3,591	292,118	143,279
227,582	-3,571	292,046	143,250
228,596	-3,655	291,775	143,022
229,611	-3,740	291,643	142,861
230,626	-3,820	291,212	142,559
231,640	-3,950	291,106	142,367
232,655	-4,246	290,744	141,888
233,669	-4,102	290,349	141,823
234,684	-4,328	290,243	141,537
235,699	-4,048	290,135	141,746
236,713	-4,041	290,031	141,689
237,728	-3,835	289,812	141,770
238,742	-3,874	289,593	141,612
239,757	-3,760	289,454	141,643
240,772	-3,796	289,332	141,536
241,786	-3,719	289,112	141,491
242,801	-3,819	289,055	141,352
243,815	-3,969	288,807	141,073
244,830	-3,866	288,620	141,069
245,844	-3,784	288,397	141,027
246,859	-3,866	288,176	140,827
247,874	-3,972	288,053	140,651
248,888	-3,874	287,766	140,594
249,903	-3,685	287,675	140,719
250,917	-3,802	287,660	140,586
251,932	-3,413	287,480	140,862
252,947	-2,798	287,691	141,547
253,961	-2,933	287,146	141,136
254,976	-2,383	287,436	141,797
255,990	0,240	288,396	144,797
257,005	0,736	288,447	145,288
258,020	1,963	288,953	146,718
259,034	2,649	288,923	147,354
260,049	2,787	288,523	147,270
261,063	2,436	288,366	146,838
262,078	2,728	288,408	147,128
263,093	3,529	288,388	147,878
264,107	3,484	288,237	147,744
265,122	3,583	288,034	147,722
266,136	3,566	287,966	147,657
267,151	3,337	287,675	147,274
268,166	3,222	287,427	147,024
269,180	3,398	287,365	147,148
270,195	3,477	287,125	147,088
271,209	3,454	286,829	146,901
272,224	3,238	286,694	146,612
273,239	3,360	286,372	146,552
274,253	3,166	286,239	146,285
275,268	3,231	286,157	146,291
276,282	3,462	285,826	146,330
277,297	3,190	285,714	145,999
278,312	3,598	285,620	146,328
279,326	3,877	285,428	146,483
280,341	3,507	285,222	146,012
281,355	3,280	285,064	145,701
282,370	3,232	284,783	145,499
283,384	3,076	284,592	145,240
284,399	3,279	284,481	145,364
285,414	3,461	284,289	145,425
286,428	3,226	284,129	145,107
287,443	3,140	283,792	144,840
288,457	2,945	283,722	144,608
289,472	3,097	283,415	144,582
290,487	2,977	283,141	144,316
291,501	2,760	282,945	143,999
292,516	2,721	282,676	143,812
293,530	2,690	282,594	143,728
294,545	2,912	282,574	143,915
295,560	3,016	282,450	143,936
296,574	2,825	282,088	143,560
297,589	2,862	282,059	143,566
298,603	3,462	281,979	144,077
299,618	3,458	281,688	143,912
300,633	3,234	281,559	143,623
301,647	3,287	281,444	143,601
302,662	3,310	281,168	143,469
303,676	3,143	280,888	143,157
304,691	2,829	280,587	142,697
305,706	2,609	280,352	142,360
306,720	2,509	280,158	142,155
307,735	2,647	280,016	142,199
308,749	2,672	279,921	142,161
309,764	2,962	279,675	142,294
310,779	2,805	279,353	141,971
311,793	2,549	279,251	141,669
312,808	2,496	279,089	141,525
313,822	2,566	278,848	141,454
314,837	2,591	278,634	141,357
315,852	2,396	278,642	141,167
316,866	2,427	278,404	141,063
317,881	2,541	278,354	141,131
318,895	2,637	278,009	141,032
319,910	2,387	277,716	140,640
320,925	2,404	277,425	140,495
321,939	2,562	277,528	140,681
322,954	2,715	277,419	140,755
323,968	2,787	277,235	140,715
324,983	2,912	277,167	140,784
325,997	2,805	276,976	140,575
327,012	3,003	276,838	140,674
328,027	3,035	276,600	140,571
329,041	2,793	276,389	140,229
330,056	2,944	276,218	140,268
331,070	2,851	276,042	140,081
332,085	2,731	275,763	139,816
333,100	2,911	275,523	139,847
334,114	2,750	275,369	139,609
335,129	2,588	275,109	139,317
336,143	2,815	275,073	139,494
337,158	3,099	275,054	139,731
338,173	2,918	274,887	139,469
339,187	2,808	274,727	139,275
340,202	2,930	274,494	139,255
341,216	3,040	274,347	139,268
342,231	2,893	274,175	139,035
343,246	2,883	273,977	138,913
344,260	2,657	273,752	138,581
345,275	2,859	273,712	138,733
346,289	3,195	273,689	139,014
347,304	3,163	273,305	138,777
348,319	2,957	273,091	138,469
349,333	3,025	272,847	138,395
350,348	3,248	272,836	138,579
351,362	3,242	272,727	138,505
352,377	3,175	272,579	138,358
353,392	3,177	272,432	138,273
354,406	3,313	272,283	138,307
355,421	191,955	1328,561	1403,530
356,435	155,106	1457,308	1403,609
