DTS Sentinel unit serial number:	SN410029Multiplexer serial number:	ORYXHardware model number:	OX2-SRSoftware version number:	ORYX F/W v4,00 Oryx Data Collector v3.7.2.0data status	okinstallation	B4 Nyhavnadifferential loss correction	single-endedforward channel	channel 2reverse channel	N/Adate	2023/12/19time	10:50:13forward acquisition time	300,00reverse acquisition time	0,00gamma	499,1914k internal	0,3127k external	0,3127temperature offset calibration	1,0000default loss term (dB/km)	0,3820temperature slope calibration	1,0000multiplexer offset coefficient	1,0000multiplexer slope coefficient	1,0000fibre end	0,00T internal ref (°C)	19,96T ext. ref 1 (°C)	4,72T ext. ref 2 (°C)	4,69length (m)	temperature (°C)	Stokes	anti-Stokes-744,400	55,090	0,137	-0,098
-743,385	-119,032	-0,228	0,029
-742,371	-106,301	0,090	0,015
-741,356	422,158	-0,207	0,332
-740,342	320,943	0,061	0,086
-739,327	-11,499	-0,226	0,110
-738,312	194,378	0,086	0,097
-737,298	-81,123	-0,140	0,034
-736,283	-82,596	-0,064	-0,015
-735,269	-155,372	-0,218	0,010
-734,254	-119,192	-0,127	0,016
-733,239	-48,090	-0,368	-0,131
-732,225	4,597	0,064	-0,035
-731,210	140,389	-0,131	0,129
-730,196	116,365	0,010	-0,009
-729,181	106,763	-0,063	-0,056
-728,167	-164,009	0,104	-0,004
-727,152	741,732	-0,011	0,022
-726,137	336,363	0,064	0,093
-725,123	361,388	-0,048	-0,072
-724,108	-143,597	-0,134	-0,009
-723,094	155,487	-0,133	-0,136
-722,079	-200,000	0,010	-0,035
-721,064	-200,000	0,004	0,095
-720,050	-58,003	-0,148	0,048
-719,035	-190,372	0,050	0,000
-718,021	196,057	-0,131	0,148
-717,006	84,732	-0,195	-0,159
-715,991	462,821	0,024	-0,040
-714,977	93,591	-0,071	-0,059
-713,962	343,855	-0,022	-0,032
-712,948	800,000	-0,008	-0,023
-711,933	-200,000	0,006	0,054
-710,918	-200,000	0,020	0,085
-709,904	-200,000	0,008	-0,078
-708,889	-200,000	-0,008	-0,073
-707,875	-40,561	-0,186	-0,071
-706,860	-200,000	0,000	-0,074
-705,845	800,000	0,056	0,133
-704,831	29,814	0,135	-0,085
-703,816	607,107	-0,043	-0,080
-702,802	-11,113	-0,063	0,031
-701,787	176,444	0,025	-0,027
-700,772	219,056	0,059	-0,070
-699,758	-23,916	-0,067	-0,030
-698,743	-137,921	0,128	0,010
-697,729	800,000	-0,021	0,063
-696,714	-200,000	0,010	0,043
-695,699	-92,280	-0,099	0,021
-694,685	31,651	0,126	-0,080
-693,670	226,446	0,042	-0,051
-692,656	-200,000	-0,019	0,171
-691,641	-75,787	0,058	0,015
-690,627	800,000	0,017	0,037
-689,612	800,000	0,024	0,065
-688,597	129,868	0,034	0,032
-687,583	-200,000	0,013	-0,119
-686,568	34,365	-0,083	-0,054
-685,554	-4,692	-0,088	0,045
-684,539	-200,000	-0,023	0,107
-683,524	214,642	-0,050	0,059
-682,510	-200,000	0,004	0,129
-681,495	800,000	0,032	0,074
-680,481	-87,512	-0,186	-0,041
-679,466	800,000	0,023	-0,064
-678,451	58,954	0,070	0,051
-677,437	221,234	-0,024	-0,029
-676,422	800,000	-0,035	0,081
-675,408	113,800	0,061	-0,055
-674,393	18,751	-0,142	0,084
-673,378	-200,000	-0,010	-0,152
-672,364	316,534	0,038	-0,053
-671,349	-200,000	-0,004	-0,048
-670,335	86,004	-0,044	-0,036
-669,320	193,641	0,059	0,066
-668,305	-0,761	0,154	0,081
-667,291	800,000	-0,031	0,081
-666,276	-196,287	-0,166	0,001
-665,262	-200,000	-0,010	-0,064
-664,247	800,000	0,025	0,079
-663,232	140,231	-0,068	-0,067
-662,218	-115,138	0,110	0,015
-661,203	800,000	0,008	-0,027
-660,189	93,006	-0,068	-0,057
-659,174	-46,582	0,128	-0,046
-658,159	297,867	-0,123	-0,168
-657,145	-27,250	-0,210	-0,090
-656,130	163,784	0,058	-0,061
-655,116	800,000	-0,023	0,066
-654,101	-6,687	-0,172	-0,086
-653,086	114,285	0,128	0,116
-652,072	365,204	-0,062	-0,093
-651,057	-200,000	-0,011	-0,093
-650,043	-13,309	-0,068	0,032
-649,028	-200,000	-0,005	-0,034
-648,014	-200,000	-0,008	0,096
-646,999	-200,000	0,009	0,141
-645,984	-18,003	-0,063	0,029
-644,970	-40,657	0,004	0,002
-643,955	476,110	0,034	0,058
-642,941	379,959	-0,046	-0,069
-641,926	-200,000	0,014	-0,062
-640,911	219,349	0,106	0,126
-639,897	-200,000	-0,001	0,017
-638,882	261,105	-0,045	0,058
-637,868	-200,000	-0,020	0,121
-636,853	365,742	-0,045	0,068
-635,838	138,260	-0,064	0,063
-634,824	153,867	-0,110	0,112
-633,809	-84,675	-0,065	-0,015
-632,795	288,162	0,079	-0,107
-631,780	13,608	0,112	-0,064
-630,765	64,199	-0,057	0,042
-629,751	288,179	-0,056	-0,075
-628,736	569,254	0,074	-0,135
-627,722	128,092	-0,014	-0,013
-626,707	487,536	0,031	-0,053
-625,692	160,073	0,123	-0,127
-624,678	-19,271	0,069	0,031
-623,663	148,228	0,049	-0,049
-622,649	370,464	0,038	-0,057
-621,634	-200,000	-0,010	0,109
-620,619	-200,000	-0,011	0,087
-619,605	-200,000	-0,023	-0,098
-618,590	204,380	-0,107	0,123
-617,576	-85,824	0,055	-0,013
-616,561	-36,870	-0,040	-0,016
-615,546	800,000	0,026	-0,054
-614,532	12,261	0,070	-0,040
-613,517	98,502	-0,111	-0,095
-612,503	-96,078	0,084	-0,016
-611,488	-30,657	0,106	0,044
-610,474	617,180	0,065	-0,122
-609,459	68,876	-0,142	0,108
-608,444	96,828	-0,030	-0,025
-607,430	-127,601	0,068	0,007
-606,415	-100,640	-0,151	0,027
-605,401	100,464	0,062	0,053
-604,386	-200,000	0,009	0,034
-603,371	-181,341	-0,079	-0,001
-602,357	54,951	0,158	-0,113
-601,342	-200,000	0,001	0,011
-600,328	-159,695	0,023	-0,001
-599,313	-118,157	-0,077	0,010
-598,298	356,698	0,041	-0,061
-597,284	-200,000	-0,001	-0,070
-596,269	-69,057	-0,105	0,030
-595,255	-148,241	-0,089	-0,005
-594,240	-139,483	0,028	-0,002
-593,225	21,609	0,042	-0,025
-592,211	-139,716	0,125	0,010
-591,196	-200,000	-0,006	-0,076
-590,182	9,073	0,087	0,049
-589,167	-148,142	0,144	-0,009
-588,152	104,240	-0,052	-0,046
-587,138	-200,000	-0,003	-0,020
-586,123	-69,014	-0,144	-0,041
-585,109	32,662	-0,017	-0,011
-584,094	800,000	0,013	0,040
-583,079	-69,573	-0,053	0,015
-582,065	-94,106	0,131	0,026
-581,050	371,026	-0,029	0,044
-580,036	800,000	-0,044	-0,139
-579,021	288,226	-0,088	-0,118
-578,006	800,000	0,035	-0,093
-576,992	137,187	0,038	0,037
-575,977	125,593	-0,006	0,006
-574,963	-23,657	0,025	-0,011
-573,948	410,505	-0,022	-0,034
-572,934	-144,222	0,030	0,002
-571,919	189,369	0,016	-0,017
-570,904	-200,000	-0,081	-0,268
-569,890	-11,652	0,042	0,020
-568,875	110,470	0,108	0,096
-567,861	9,436	-0,081	-0,045
-566,846	48,926	0,107	0,074
-565,831	256,017	0,031	-0,040
-564,817	800,000	0,046	0,146
-563,802	-200,000	-0,002	-0,052
-562,788	47,390	-0,205	-0,141
-561,773	-200,000	-0,001	-0,033
-560,758	346,697	0,033	0,048
-559,744	-200,000	-0,019	-0,129
-558,729	-200,000	-0,008	-0,069
-557,715	58,638	0,075	-0,054
-556,700	220,884	-0,040	0,047
-555,685	-65,261	0,078	-0,023
-554,671	800,000	0,075	0,182
-553,656	-115,890	-0,110	0,015
-552,642	149,823	-0,023	-0,023
-551,627	800,000	-0,031	-0,080
-550,612	-141,390	-0,071	0,005
-549,598	-200,000	-0,003	-0,035
-548,583	315,392	0,058	-0,081
-547,569	85,832	-0,081	0,066
-546,554	637,563	-0,061	0,116
-545,539	-200,000	0,002	0,094
-544,525	275,919	-0,057	0,074
-543,510	-200,000	-0,025	0,193
-542,496	-185,729	-0,104	-0,001
-541,481	-123,533	-0,138	-0,016
-540,466	69,227	0,053	-0,040
-539,452	800,000	0,051	0,160
-538,437	86,546	0,046	-0,037
-537,423	1,426	0,038	-0,020
-536,408	-200,000	-0,005	0,049
-535,393	171,551	0,099	-0,105
-534,379	-71,160	-0,079	-0,022
-533,364	-57,858	0,098	-0,031
-532,350	-87,311	0,118	-0,026
-531,335	-22,106	-0,090	-0,040
-530,321	257,123	-0,028	0,035
-529,306	-43,541	0,042	-0,016
-528,291	27,109	-0,050	-0,031
-527,277	800,000	0,038	-0,081
-526,262	800,000	0,009	-0,020
-525,248	60,507	-0,033	0,024
-524,233	800,000	0,024	0,053
-523,218	2,594	0,094	-0,050
-522,204	67,244	-0,072	0,054
-521,189	-200,000	-0,019	0,071
-520,175	-200,000	-0,012	0,048
-519,160	215,298	-0,061	0,072
-518,145	-117,340	0,102	0,013
-517,131	90,512	0,088	0,073
-516,116	-25,223	0,123	-0,054
-515,102	-84,745	0,053	-0,012
-514,087	-9,713	0,120	0,059
-513,072	32,655	0,016	-0,010
-512,058	22,886	-0,061	-0,037
-511,043	-200,000	0,010	0,050
-510,029	800,000	0,008	-0,021
-509,014	-200,000	-0,030	0,220
-507,999	800,000	-0,010	0,027
-506,985	-118,177	-0,026	0,003
-505,970	-158,844	-0,111	0,005
-504,956	79,745	-0,121	-0,096
-503,941	-200,000	0,018	0,073
-502,926	-99,524	0,114	0,021
-501,912	800,000	-0,038	-0,122
-500,897	-65,404	-0,068	-0,020
-499,883	-200,000	-0,019	-0,105
-498,868	215,278	0,082	-0,096
-497,853	207,003	-0,006	0,007
-496,839	-26,484	0,075	0,032
-495,824	-200,000	-0,006	-0,074
-494,810	600,329	0,023	0,042
-493,795	215,206	-0,043	0,050
-492,781	-200,000	0,047	0,194
-491,766	-200,000	-0,015	-0,085
-490,751	191,138	-0,044	-0,049
-489,737	800,000	-0,024	0,058
-488,722	-41,941	0,026	-0,010
-487,708	-88,007	-0,091	-0,020
-486,693	-200,000	-0,007	0,032
-485,678	800,000	0,002	0,004
-484,664	-29,506	-0,200	-0,084
-483,649	-85,606	0,027	-0,006
-482,635	-200,000	-0,020	0,167
-481,620	21,235	0,188	0,112
-480,605	332,594	-0,067	-0,095
-479,591	196,752	-0,047	-0,053
-478,576	196,981	-0,031	-0,035
-477,562	800,000	0,071	-0,161
-476,547	-200,000	-0,011	-0,069
-475,532	800,000	0,017	-0,045
-474,518	739,369	0,045	-0,089
-473,503	-200,000	0,003	-0,016
-472,489	-48,382	-0,042	-0,015
-471,474	800,000	0,033	0,075
-470,459	-200,000	0,008	0,039
-469,445	-200,000	-0,005	0,027
-468,430	800,000	0,046	0,139
-467,416	26,904	-0,158	0,097
-466,401	-200,000	0,009	0,122
-465,386	721,824	-0,018	0,035
-464,372	-80,093	0,019	0,005
-463,357	250,498	0,068	-0,085
-462,343	155,194	-0,032	0,033
-461,328	-13,096	-0,128	-0,061
-460,313	33,940	0,064	0,041
-459,299	153,583	0,066	0,067
-458,284	800,000	0,007	0,017
-457,270	-200,000	0,010	0,051
-456,255	-8,456	0,066	0,032
-455,241	25,001	-0,060	0,037
-454,226	-200,000	-0,019	-0,109
-453,211	94,244	-0,058	-0,048
-452,197	-200,000	-0,005	0,037
-451,182	-13,789	0,084	-0,040
-450,168	800,000	0,036	-0,104
-449,153	172,124	0,111	0,117
-448,138	-8,150	-0,048	0,024
-447,124	-200,000	0,004	-0,100
-446,109	-200,000	-0,004	-0,016
-445,095	215,676	0,088	-0,103
-444,080	-200,000	0,016	-0,075
-443,065	-29,438	-0,032	-0,013
-442,051	-112,120	0,115	0,017
-441,036	-96,953	-0,074	0,014
-440,022	51,853	0,049	-0,034
-439,007	169,458	-0,056	0,059
-437,992	89,920	0,056	-0,046
-436,978	236,889	0,092	-0,113
-435,963	-161,694	-0,089	-0,003
-434,949	800,000	-0,061	-0,150
-433,934	19,951	-0,032	-0,019
-432,919	450,520	0,049	-0,080
-431,905	-92,076	-0,141	0,029
-430,890	223,155	0,010	0,011
-429,876	-62,395	0,070	0,021
-428,861	-200,000	-0,001	0,013
-427,846	317,752	0,039	0,054
-426,832	68,924	-0,145	0,110
-425,817	370,040	0,058	0,087
-424,803	800,000	0,053	-0,119
-423,788	430,228	0,035	-0,056
-422,773	309,067	0,070	0,097
-421,759	-200,000	-0,005	0,129
-420,744	-3,866	0,123	0,063
-419,730	89,457	0,014	-0,011
-418,715	284,484	-0,107	-0,142
-417,701	-3,816	-0,118	-0,060
-416,686	-200,000	-0,001	-0,039
-415,671	-36,835	0,145	0,057
-414,657	800,000	-0,027	-0,055
-413,642	800,000	-0,040	-0,113
-412,628	-200,000	0,012	-0,255
-411,613	74,630	-0,030	-0,023
-410,598	-37,363	-0,071	-0,028
-409,584	-168,640	-0,109	0,003
-408,569	-70,416	-0,037	-0,010
-407,555	92,521	0,092	-0,077
-406,540	800,000	0,046	0,099
-405,525	30,303	-0,074	-0,046
-404,511	208,353	-0,058	-0,067
-403,496	-58,816	-0,142	0,045
-402,482	-200,000	0,021	0,115
-401,467	-88,447	-0,142	0,031
-400,452	367,947	-0,035	0,052
-399,438	-9,656	0,077	0,038
-398,423	99,018	0,175	-0,149
-397,409	800,000	-0,017	-0,045
-396,394	452,932	0,059	0,097
-395,379	800,000	-0,045	0,098
-394,365	800,000	-0,051	0,124
-393,350	800,000	-0,024	0,053
-392,336	-45,873	-0,102	-0,037
-391,321	-200,000	-0,005	-0,041
-390,306	-200,000	-0,020	-0,120
-389,292	800,000	-0,057	-0,178
-388,277	800,000	0,061	-0,131
-387,263	-51,850	0,074	0,025
-386,248	-20,433	0,117	0,052
-385,233	242,244	0,114	0,140
-384,219	375,324	0,056	0,085
-383,204	800,000	-0,038	0,087
-382,190	39,002	-0,145	-0,095
-381,175	92,500	0,008	0,007
-380,160	150,022	0,123	0,122
-379,146	122,953	-0,089	-0,082
-378,131	24,079	-0,054	0,033
-377,117	-68,716	0,224	0,063
-376,102	674,085	-0,041	0,078
-375,088	-28,179	0,078	-0,033
-374,073	-80,974	0,051	0,012
-373,058	800,000	0,023	-0,064
-372,044	155,365	0,108	0,109
-371,029	-53,427	0,158	0,053
-370,015	-161,997	-0,055	-0,002
-369,000	189,915	-0,092	0,101
-367,985	463,333	0,035	0,058
-366,971	745,182	0,037	0,074
-365,956	-200,000	0,006	0,105
-364,942	619,793	0,099	0,184
-363,927	199,296	-0,055	0,062
-362,912	-176,669	0,121	-0,002
-361,898	800,000	-0,056	0,120
-360,883	-200,000	-0,006	-0,075
-359,869	-200,000	0,037	-0,142
-358,854	100,078	-0,024	0,020
-357,839	-200,000	0,017	-0,088
-356,825	-200,000	0,023	-0,090
-355,810	88,445	-0,073	-0,059
-354,796	-36,074	-0,095	-0,037
-353,781	800,000	-0,043	-0,089
-352,766	-37,918	-0,168	0,065
-351,752	-200,000	0,004	0,044
-350,737	44,451	0,133	0,089
-349,723	229,571	0,125	0,149
-348,708	-137,503	0,067	-0,005
-347,693	-200,000	-0,023	0,120
-346,679	-200,000	-0,020	-0,069
-345,664	800,000	-0,053	-0,111
-344,650	-49,001	0,030	0,010
-343,635	378,385	-0,063	0,095
-342,620	90,381	0,032	0,027
-341,606	-200,000	-0,009	0,082
-340,591	546,241	0,038	-0,067
-339,577	401,510	0,089	-0,138
-338,562	-200,000	0,011	-0,133
-337,548	800,000	0,022	0,050
-336,533	-153,242	-0,055	-0,003
-335,518	-25,289	0,099	0,043
-334,504	-200,000	-0,008	0,133
-333,489	800,000	0,042	0,105
-332,475	-200,000	-0,030	-0,166
-331,460	-200,000	0,006	0,022
-330,445	-73,076	-0,089	-0,024
-329,431	188,058	0,051	-0,056
-328,416	-62,383	-0,046	0,014
-327,402	10,713	-0,029	-0,016
-326,387	-200,000	0,046	-0,153
-325,372	-161,410	-0,011	0,000
-324,358	604,169	0,018	0,033
-323,343	143,572	0,016	0,015
-322,329	-169,589	-0,118	0,003
-321,314	-200,000	-0,010	0,142
-320,299	313,272	-0,119	0,164
-319,285	16,425	0,045	0,026
-318,270	-38,612	-0,022	0,008
-317,256	800,000	0,024	-0,071
-316,241	-84,414	-0,152	0,035
-315,226	800,000	0,049	0,140
-314,212	48,573	0,060	-0,041
-313,197	800,000	0,019	-0,058
-312,183	697,251	-0,091	0,176
-311,168	-200,000	0,003	-0,080
-310,153	-65,059	-0,148	-0,043
-309,139	6,944	0,089	0,048
-308,124	-200,000	0,016	-0,080
-307,110	-122,028	0,061	-0,007
-306,095	-200,000	-0,031	0,125
-305,080	800,000	0,031	0,092
-304,066	128,144	-0,055	-0,051
-303,051	-45,536	-0,130	0,047
-302,037	500,720	-0,041	-0,070
-301,022	471,872	-0,083	0,137
-300,008	53,334	0,016	0,011
-298,993	147,263	-0,053	0,052
-297,978	800,000	0,037	0,090
-296,964	-200,000	-0,015	0,065
-295,949	183,648	-0,055	-0,059
-294,935	-71,625	-0,118	0,032
-293,920	-200,000	-0,002	0,160
-292,905	264,894	-0,066	-0,084
-291,891	-20,097	-0,074	0,033
-290,876	-39,234	0,129	-0,049
-289,862	-125,145	-0,065	-0,007
-288,847	442,351	-0,049	0,078
-287,832	-175,038	-0,111	-0,002
-286,818	-200,000	-0,023	0,079
-285,803	-200,000	0,013	0,111
-284,789	-200,000	0,003	-0,062
-283,774	208,207	-0,119	-0,136
-282,759	-105,627	-0,088	0,014
-281,745	-100,670	-0,106	0,019
-280,730	40,612	0,044	-0,029
-279,716	800,000	0,008	0,027
-278,701	-25,641	0,085	0,036
-277,686	-200,000	0,016	0,105
-276,672	11,149	-0,026	0,014
-275,657	-199,482	-0,073	-0,000
-274,643	656,179	0,090	0,169
-273,628	126,572	-0,036	-0,034
-272,613	50,715	0,055	0,038
-271,599	772,135	0,028	-0,057
-270,584	771,457	0,058	0,115
-269,570	-68,545	0,089	-0,025
-268,555	329,389	-0,055	-0,077
-267,540	-86,607	0,058	-0,013
-266,526	-200,000	-0,007	0,026
-265,511	800,000	-0,035	0,112
-264,497	-50,908	-0,072	0,025
-263,482	800,000	0,007	0,019
-262,467	-74,180	-0,097	-0,025
-261,453	-80,360	-0,043	0,010
-260,438	30,489	0,047	0,029
-259,424	-103,572	0,042	0,007
-258,409	-6,082	-0,089	-0,044
-257,395	156,471	0,107	-0,108
-256,380	273,083	0,098	-0,127
-255,365	174,557	0,006	0,006
-254,351	40,290	0,110	-0,072
-253,336	685,474	-0,067	-0,128
-252,322	285,884	-0,086	-0,113
-251,307	443,438	-0,020	-0,031
-250,292	121,769	0,016	0,015
-249,278	307,734	0,071	0,096
-248,263	80,123	0,068	0,053
-247,249	800,000	0,049	0,144
-246,234	-200,000	0,168	0,000
-245,219	800,000	-0,002	0,006
-244,205	-200,000	-0,017	-0,069
-243,190	-200,000	-0,008	-0,048
-242,176	520,981	0,004	0,006
-241,161	-200,000	0,018	-0,153
-240,146	56,072	0,082	0,058
-239,132	137,033	-0,028	-0,027
-238,117	44,731	-0,147	-0,099
-237,103	32,390	-0,067	-0,042
-236,088	800,000	-0,057	-0,120
-235,073	44,530	0,109	-0,073
-234,059	-138,955	-0,045	0,004
-233,044	265,504	-0,013	0,016
-232,030	518,499	0,030	0,052
-231,015	85,895	-0,087	-0,070
-230,000	297,292	-0,051	0,068
-228,986	800,000	0,052	-0,153
-227,971	657,552	-0,052	0,098
-226,957	-120,978	0,121	0,015
-225,942	374,224	-0,091	0,136
-224,927	142,820	0,047	-0,046
-223,913	-200,000	0,013	-0,055
-222,898	-71,972	-0,167	0,045
-221,884	4,491	-0,039	-0,021
-220,869	-19,160	0,099	0,045
-219,855	800,000	0,006	-0,017
-218,840	-200,000	-0,010	0,047
-217,825	59,664	0,091	0,065
-216,811	-200,000	-0,000	-0,031
-215,796	458,580	0,036	0,058
-214,782	-16,955	0,035	0,016
-213,767	132,159	0,022	0,021
-212,752	-200,000	-0,005	0,055
-211,738	-86,317	0,126	-0,028
-210,723	800,000	-0,056	-0,163
-209,709	18,997	-0,110	-0,064
-208,694	800,000	0,046	-0,113
-207,679	378,730	-0,062	-0,093
-206,665	800,000	0,034	-0,076
-205,650	-200,000	0,149	0,000
-204,636	800,000	-0,050	0,146
-203,621	800,000	-0,014	-0,034
-202,606	-200,000	-0,001	-0,004
-201,592	-57,056	-0,023	0,007
-200,577	-200,000	-0,001	-0,050
-199,563	-200,000	0,003	0,020
-198,548	-200,000	0,016	0,139
-197,533	-134,419	0,107	-0,009
-196,519	800,000	-0,034	0,107
-195,504	-67,999	0,048	-0,014
-194,490	-139,447	0,099	-0,008
-193,475	-200,000	-0,013	0,073
-192,460	276,998	-0,040	0,052
-191,446	52,887	0,089	-0,062
-190,431	-22,222	-0,126	-0,056
-189,417	-200,000	-0,011	-0,175
-188,402	108,834	0,033	0,028
-187,387	-200,000	0,002	0,093
-186,373	347,629	-0,092	0,132
-185,358	-58,779	-0,031	0,010
-184,344	800,000	-0,040	0,123
-183,329	-24,525	-0,067	-0,029
-182,315	-200,000	0,008	-0,034
-181,300	-99,368	-0,092	-0,017
-180,285	213,664	-0,045	0,052
-179,271	-53,443	-0,073	-0,024
-178,256	800,000	-0,029	0,063
-177,242	-60,067	0,108	0,033
-176,227	-42,143	0,107	0,040
-175,212	-112,963	0,141	-0,020
-174,198	297,276	0,119	-0,159
-173,183	-200,000	-0,054	-0,216
-172,169	-49,102	0,042	0,014
-171,154	134,245	-0,113	-0,106
-170,139	-200,000	0,012	-0,108
-169,125	53,617	-0,094	-0,065
-168,110	-181,377	0,120	0,002
-167,096	-132,012	-0,154	0,014
-166,081	173,388	-0,062	-0,065
-165,066	396,532	-0,067	0,102
-164,052	-56,173	0,111	0,036
-163,037	-200,000	0,010	0,133
-162,023	355,846	0,060	-0,088
-161,008	800,000	-0,024	-0,070
-159,993	298,758	-0,044	-0,059
-158,979	800,000	0,021	-0,050
-157,964	-200,000	0,036	-0,164
-156,950	-200,000	0,000	0,045
-155,935	-200,000	0,022	0,096
-154,920	37,296	-0,084	-0,054
-153,906	-200,000	0,024	-0,084
-152,891	-94,765	0,149	-0,029
-151,877	-200,000	0,005	0,182
-150,862	-63,361	-0,185	-0,055
-149,847	-87,073	-0,033	0,007
-148,833	672,316	0,014	0,026
-147,818	-200,000	0,002	0,112
-146,804	176,367	0,067	0,070
-145,789	-200,000	0,039	0,138
-144,775	189,842	0,019	-0,021
-143,760	-36,855	0,080	0,031
-142,745	-43,035	0,070	0,026
-141,731	691,599	-0,020	0,039
-140,716	311,836	-0,063	0,085
-139,702	-152,619	0,122	-0,006
-138,687	-153,624	0,088	-0,004
-137,672	-200,000	-0,019	0,091
-136,658	-200,000	0,000	-0,114
-135,643	-200,000	0,002	-0,164
-134,629	278,861	-0,041	-0,053
-133,614	-105,625	0,092	0,015
-132,599	-200,000	0,003	0,037
-131,585	-200,000	-0,007	-0,048
-130,570	-58,919	0,134	-0,042
-129,556	-94,781	-0,023	0,004
-128,541	69,071	0,104	-0,078
-127,526	-200,000	0,003	0,134
-126,512	800,000	-0,017	0,041
-125,497	-46,667	0,113	0,040
-124,483	406,679	-0,026	-0,040
-123,468	800,000	0,027	-0,076
-122,453	97,212	0,063	0,053
-121,439	141,731	0,064	0,062
-120,424	-200,000	0,005	0,074
-119,410	-3,590	0,135	0,068
-118,395	285,872	0,017	0,022
-117,380	94,879	0,062	-0,051
-116,366	-31,889	-0,133	-0,054
-115,351	51,878	-0,179	0,123
-114,337	118,730	-0,054	-0,049
-113,322	-115,614	0,139	0,019
-112,307	-163,650	-0,044	0,001
-111,293	-16,947	-0,083	-0,038
-110,278	-200,000	0,008	0,165
-109,264	-41,738	0,111	0,041
-108,249	-200,000	-0,010	-0,039
-107,234	-142,304	-0,222	-0,016
-106,220	320,112	0,025	0,034
-105,205	-200,000	-0,014	-0,086
-104,191	99,817	-0,041	-0,034
-103,176	629,446	-0,035	0,064
-102,162	-20,011	-0,034	-0,015
-101,147	800,000	0,021	-0,049
-100,132	-200,000	0,031	0,129
-99,118	104,923	0,104	0,089
-98,103	-27,299	0,082	-0,034
-97,089	360,147	-0,042	0,061
-96,074	-200,000	0,019	0,141
-95,059	800,000	0,034	-0,092
-94,045	-200,000	-0,001	-0,103
-93,030	-64,289	-0,046	-0,014
-92,016	800,000	0,013	-0,033
-91,001	581,572	0,036	0,065
-89,986	-200,000	0,048	0,192
-88,972	-74,875	-0,060	0,015
-87,957	-95,794	-0,062	-0,012
-86,943	-200,000	-0,001	0,026
-85,928	-200,000	0,014	-0,084
-84,913	512,067	-0,010	0,017
-83,899	-200,000	-0,001	0,060
-82,884	-200,000	-0,022	0,196
-81,870	-1,991	-0,085	-0,043
-80,855	312,992	-0,059	0,081
-79,840	134,428	-0,048	0,045
-78,826	-116,097	0,093	0,012
-77,811	-10,365	-0,163	-0,078
-76,797	627,098	0,006	-0,011
-75,782	-200,000	-0,003	-0,095
-74,767	321,189	-0,062	0,086
-73,753	-159,022	0,109	0,004
-72,738	-36,644	-0,056	-0,022
-71,724	-5,463	-0,069	-0,034
-70,709	-200,000	0,009	-0,041
-69,694	-70,037	-0,051	0,014
-68,680	360,698	0,085	0,124
-67,665	432,756	-0,045	0,070
-66,651	103,613	-0,052	-0,044
-65,636	61,075	0,021	-0,015
-64,622	169,252	0,009	-0,009
-63,607	52,750	-0,082	0,057
-62,592	800,000	0,012	0,025
-61,578	292,404	-0,086	-0,113
-60,563	-200,000	0,017	0,063
-59,549	564,379	0,090	0,158
-58,534	-70,617	-1,546	-0,421
-57,519	572,922	-0,779	-1,382
-56,505	-200,000	-0,870	-4,538
-55,490	-185,134	0,641	-0,007
-54,476	800,000	5,001	11,720
-53,461	-200,000	15,110	263,182
-52,446	-200,000	697,220	2236,086
-51,432	584,161	1619,446	2893,993
-50,417	120,183	1627,576	1463,381
-49,403	81,548	1282,191	1003,959
-48,388	37,577	1021,865	655,612
-47,373	22,543	982,445	580,858
-46,359	21,540	971,622	571,146
-45,344	20,267	967,142	564,326
-44,330	20,235	965,748	563,386
-43,315	20,037	964,500	561,988
-42,300	20,055	963,258	561,303
-41,286	19,985	962,533	560,629
-40,271	20,012	961,265	559,957
-39,257	20,053	960,528	559,637
-38,242	19,992	959,793	558,990
-37,227	20,042	958,805	558,553
-36,213	19,958	957,944	557,757
-35,198	19,960	956,962	557,170
-34,184	20,044	956,192	556,971
-33,169	19,961	955,437	556,243
-32,154	20,032	954,363	555,824
-31,140	20,059	953,388	555,323
-30,125	20,036	952,761	554,859
-29,111	20,011	951,884	554,248
-28,096	20,031	951,036	553,794
-27,082	19,997	950,685	553,459
-26,067	19,980	949,740	552,831
-25,052	19,949	949,220	552,407
-24,038	19,996	948,318	552,012
-23,023	20,001	947,717	551,656
-22,009	20,032	946,868	551,241
-20,994	19,986	946,469	550,838
-19,979	19,993	945,643	550,359
-18,965	20,009	945,354	550,219
-17,950	20,059	944,488	549,853
-16,936	19,900	943,932	549,000
-15,921	19,951	943,339	548,795
-14,906	19,847	942,675	548,057
-13,892	19,840	942,129	547,696
-12,877	19,858	941,429	547,324
-11,863	19,815	940,717	546,753
-10,848	19,876	940,287	546,674
-9,833	19,973	939,850	546,706
-8,819	19,993	939,058	546,289
-7,804	19,873	938,353	545,476
-6,790	19,865	937,789	545,100
-5,775	19,907	937,273	544,911
-4,760	19,908	936,790	544,611
-3,746	19,886	936,059	544,096
-2,731	19,773	935,330	543,292
-1,717	19,674	934,736	542,614
-0,702	19,756	933,980	542,413
0,313	19,539	933,479	542,257
1,327	21,985	931,015	548,475
2,342	29,318	806,277	494,827
3,356	23,627	506,394	301,075
4,371	-0,551	373,263	191,149
5,386	-3,310	356,474	179,148
6,400	-4,523	350,783	174,806
7,415	-4,754	348,227	173,240
8,429	-4,789	346,808	172,477
9,444	-4,818	345,848	171,949
10,459	-4,794	345,315	171,698
11,473	-4,839	344,655	171,301
12,488	-4,819	344,140	171,053
13,502	-4,788	343,553	170,783
14,517	-4,975	343,071	170,307
15,531	-4,566	342,382	170,432
16,546	-4,615	342,189	170,264
17,561	-4,614	341,815	170,064
18,575	-4,358	341,331	170,108
19,590	-4,653	340,860	169,512
20,604	-4,415	340,674	169,684
21,619	-4,626	340,271	169,221
22,634	-4,638	339,923	169,019
23,648	-4,589	339,546	168,874
24,663	-4,675	339,353	168,661
25,677	-4,551	338,862	168,547
26,692	-4,596	338,550	168,325
27,707	-4,652	338,306	168,123
28,721	-4,637	338,025	167,986
29,736	-4,517	337,534	167,866
30,750	-4,547	337,450	167,774
31,765	-4,609	337,059	167,493
32,780	-4,632	336,912	167,379
33,794	-4,535	336,635	167,339
34,809	-4,625	336,415	167,110
35,823	-4,522	336,004	167,010
36,838	-4,570	335,831	166,853
37,853	-4,617	335,365	166,553
38,867	-4,765	335,242	166,307
39,882	-4,651	334,824	166,216
40,896	-4,683	334,708	166,106
41,911	-4,540	334,288	166,048
42,926	-4,636	334,151	165,854
43,940	-4,590	333,793	165,714
44,955	-4,673	333,548	165,483
45,969	-4,636	333,294	165,385
46,984	-4,589	333,142	165,348
47,999	-4,609	332,827	165,154
49,013	-4,598	332,696	165,088
50,028	-4,604	332,406	164,922
51,042	-4,503	332,024	164,832
52,057	-4,568	331,831	164,648
53,071	-4,537	331,553	164,531
54,086	-4,579	331,370	164,378
55,101	-4,515	331,088	164,296
56,115	-4,563	330,952	164,159
57,130	-4,466	330,456	164,008
58,144	-4,581	330,119	163,697
59,159	-4,686	330,000	163,503
60,174	-4,717	329,710	163,311
61,188	-4,583	329,548	163,368
62,203	-4,671	329,252	163,107
63,217	-4,591	328,952	163,034
64,232	-4,622	328,668	162,843
65,247	-4,652	328,441	162,682
66,261	-4,560	328,178	162,641
67,276	-4,555	327,691	162,391
68,290	-4,561	327,643	162,346
69,305	-4,554	327,442	162,240
70,320	-4,597	327,162	162,039
71,334	-4,643	327,037	161,910
72,349	-4,627	326,592	161,694
73,363	-4,738	326,398	161,459
74,378	-4,542	326,068	161,500
75,393	-4,700	325,909	161,231
76,407	-4,604	325,630	161,186
77,422	-4,631	325,528	161,090
78,436	-4,456	324,968	160,995
79,451	-4,535	324,786	160,802
80,466	-4,664	324,601	160,553
81,480	-4,508	324,302	160,563
82,495	-4,529	324,097	160,424
83,509	-4,588	323,959	160,276
84,524	-4,468	323,594	160,214
85,539	-4,490	323,468	160,113
86,553	-4,443	323,108	159,972
87,568	-4,549	322,860	159,719
88,582	-4,465	322,645	159,690
89,597	-4,451	322,461	159,600
90,611	-4,645	322,253	159,270
91,626	-4,538	322,071	159,283
92,641	-4,491	321,707	159,141
93,655	-4,617	321,459	158,866
94,670	-4,615	321,226	158,738
95,684	-4,527	320,964	158,691
96,699	-4,612	320,772	158,488
97,714	-4,576	320,669	158,463
98,728	-4,453	320,384	158,443
99,743	-4,566	320,144	158,187
100,757	-4,596	319,908	158,023
101,772	-4,544	319,547	157,887
102,787	-4,662	319,509	157,725
103,801	-4,544	319,099	157,638
104,816	-4,564	318,861	157,484
105,830	-4,607	318,808	157,397
106,845	-4,595	318,523	157,255
107,860	-4,531	318,170	157,137
108,874	-4,563	317,886	156,948
109,889	-4,661	317,673	156,722
110,903	-4,488	317,539	156,830
111,918	-4,581	317,234	156,565
112,933	-4,554	317,052	156,491
113,947	-4,489	316,688	156,366
114,962	-4,574	316,555	156,195
115,976	-4,514	316,331	156,136
116,991	-4,603	316,160	155,941
118,006	-4,462	315,925	155,964
119,020	-4,509	315,582	155,730
120,035	-4,556	315,543	155,646
121,049	-4,573	315,368	155,527
122,064	-4,521	315,249	155,510
123,079	-4,652	314,987	155,227
124,093	-4,538	314,587	155,139
125,108	-4,418	314,324	155,123
126,122	-4,392	314,064	155,009
127,137	-4,429	313,934	154,891
128,151	-4,343	313,690	154,850
129,166	-4,544	313,518	154,536
130,181	-4,538	313,312	154,427
131,195	-4,419	313,028	154,401
132,210	-4,561	312,697	154,072
133,224	-4,614	312,521	153,915
134,239	-4,649	312,453	153,830
135,254	-4,472	312,152	153,856
136,268	-4,502	311,807	153,641
137,283	-4,454	311,639	153,595
138,297	-4,511	311,330	153,369
139,312	-4,788	311,250	153,022
140,327	-4,722	310,985	152,948
141,341	-4,464	310,699	153,066
142,356	-4,693	310,533	152,729
143,370	-4,779	310,475	152,596
144,385	-4,563	310,049	152,601
145,400	-4,608	309,921	152,477
146,414	-4,366	309,648	152,585
147,429	-4,504	309,252	152,231
148,443	-4,515	309,107	152,134
149,458	-4,674	309,032	151,916
150,473	-4,631	308,784	151,826
151,487	-4,498	308,373	151,750
152,502	-4,585	308,262	151,590
153,516	-4,607	308,237	151,542
154,531	-4,554	307,746	151,343
155,546	-4,633	307,661	151,204
156,560	-4,526	307,491	151,219
157,575	-4,617	307,343	151,038
158,589	-4,667	307,012	150,810
159,604	-4,541	306,782	150,814
160,619	-4,383	306,670	150,911
161,633	-4,416	306,377	150,719
162,648	-4,485	306,278	150,584
163,662	-4,597	305,959	150,298
164,677	-4,596	305,838	150,226
165,692	-4,570	305,470	150,059
166,706	-4,455	305,533	150,196
167,721	-4,361	305,241	150,137
168,735	-4,460	305,015	149,909
169,750	-4,547	304,900	149,750
170,764	-4,370	304,594	149,769
171,779	-4,421	304,388	149,602
172,794	-4,342	304,206	149,580
173,808	-4,469	303,942	149,306
174,823	-4,511	303,895	149,226
175,837	-4,512	303,522	149,028
176,852	-4,520	303,461	148,977
177,867	-4,594	303,149	148,734
178,881	-4,563	302,920	148,641
179,896	-4,627	302,790	148,498
180,910	-4,522	302,616	148,507
181,925	-4,474	302,203	148,341
182,940	-4,431	301,996	148,270
183,954	-4,444	301,946	148,219
184,969	-4,416	301,854	148,189
185,983	-4,464	301,568	147,986
186,998	-4,376	301,365	147,963
188,013	-4,469	301,192	147,770
189,027	-4,394	300,938	147,709
190,042	-4,409	300,673	147,550
191,056	-4,335	300,404	147,481
192,071	-4,569	300,241	147,149
193,086	-4,560	300,037	147,046
194,100	-4,442	299,819	147,046
195,115	-4,518	299,664	146,879
196,129	-4,432	299,286	146,767
197,144	-4,343	299,223	146,814
198,159	-4,444	298,890	146,536
199,173	-4,467	298,628	146,371
200,188	-4,699	298,459	146,040
201,202	-4,631	298,363	146,049
202,217	-4,287	298,125	146,267
203,232	-4,330	297,905	146,103
204,246	-4,499	297,601	145,770
205,261	-4,420	297,527	145,800
206,275	-4,501	297,345	145,616
207,290	-4,391	297,057	145,573
208,304	-4,448	296,924	145,438
209,319	-4,264	296,607	145,454
210,334	-4,519	296,570	145,168
211,348	-4,548	296,435	145,059
212,363	-4,398	296,132	145,048
213,377	-4,291	295,897	145,027
214,392	-4,309	295,673	144,886
215,407	-4,495	295,529	144,617
216,421	-4,404	295,222	144,545
217,436	-4,522	295,179	144,394
218,450	-4,355	294,944	144,432
219,465	-4,493	294,769	144,196
220,480	-4,660	294,440	143,856
221,494	-4,554	294,464	143,959
222,509	-4,376	294,176	143,983
223,523	-4,474	293,999	143,786
224,538	-4,341	293,754	143,786
225,553	-4,546	293,727	143,556
226,567	-4,266	293,241	143,584
227,582	-4,480	293,291	143,384
228,596	-4,423	293,138	143,352
229,611	-4,428	292,977	143,255
230,626	-4,433	292,598	143,053
231,640	-4,381	292,436	143,012
232,655	-4,389	292,163	142,858
233,669	-4,394	292,161	142,839
234,684	-4,349	291,770	142,680
235,699	-4,400	291,628	142,547
236,713	-4,497	291,541	142,397
237,728	-4,323	291,344	142,459
238,742	-4,457	291,066	142,178
239,757	-4,495	290,786	141,992
240,772	-4,561	290,596	141,821
241,786	-4,356	290,327	141,878
242,801	-4,539	290,425	141,734
243,815	-4,445	290,058	141,635
244,830	-4,518	289,965	141,505
245,844	-4,521	289,813	141,415
246,859	-4,461	289,685	141,398
247,874	-4,379	289,403	141,329
248,888	-4,509	289,168	141,074
249,903	-4,417	288,954	141,047
250,917	-4,558	288,799	140,822
251,932	-4,576	288,560	140,675
252,947	-4,823	288,345	140,318
253,961	-5,152	288,070	139,851
254,976	-5,089	287,731	139,735
255,990	-4,987	287,759	139,836
257,005	-3,626	288,186	141,352
258,020	-1,227	288,867	144,008
259,034	-0,053	289,265	145,337
260,049	0,512	289,247	145,864
261,063	0,926	289,224	146,241
262,078	1,326	289,107	146,558
263,093	1,563	288,994	146,718
264,107	1,695	288,944	146,806
265,122	1,788	288,786	146,803
266,136	2,040	288,715	146,999
267,151	2,122	288,609	147,011
268,166	1,966	288,420	146,750
269,180	2,101	287,985	146,647
270,195	2,034	287,982	146,568
271,209	2,123	287,715	146,505
272,224	2,119	287,638	146,448
273,239	1,998	287,429	146,212
274,253	2,082	287,258	146,193
275,268	1,962	287,093	145,981
276,282	1,728	286,731	145,558
277,297	2,009	286,591	145,744
278,312	2,053	286,373	145,663
279,326	1,983	286,303	145,547
280,341	1,841	286,106	145,298
281,355	1,875	285,871	145,198
282,370	1,823	285,767	145,083
283,384	1,977	285,417	145,039
284,399	1,919	285,250	144,886
285,414	1,918	284,987	144,738
286,428	1,945	284,980	144,748
287,443	1,805	284,877	144,549
288,457	1,754	284,729	144,413
289,472	1,892	284,420	144,374
290,487	1,667	284,239	144,055
291,501	2,033	283,850	144,194
292,516	1,778	283,788	143,906
293,530	1,738	283,823	143,873
294,545	1,928	283,381	143,817
295,560	1,824	283,173	143,600
296,574	1,807	283,123	143,545
297,589	1,664	282,829	143,248
298,603	1,715	282,710	143,224
299,618	1,921	282,412	143,254
300,633	1,830	282,360	143,130
301,647	1,837	282,169	143,026
302,662	1,815	282,031	142,923
303,676	1,933	281,885	142,948
304,691	2,010	281,541	142,832
305,706	2,069	281,455	142,832
306,720	1,980	281,315	142,664
307,735	1,991	281,059	142,533
308,749	2,054	280,888	142,492
309,764	2,095	280,607	142,375
310,779	1,872	280,573	142,136
311,793	1,901	280,301	142,013
312,808	1,880	280,131	141,894
313,822	1,943	280,004	141,876
314,837	1,975	279,852	141,816
315,852	1,944	279,694	141,695
316,866	1,884	279,483	141,519
317,881	1,985	279,248	141,482
318,895	2,003	279,097	141,409
319,910	1,720	278,944	141,056
320,925	1,835	278,801	141,078
321,939	1,961	278,486	141,023
322,954	1,846	278,486	140,903
323,968	2,024	278,272	140,948
324,983	1,876	278,007	140,663
325,997	2,073	277,854	140,757
327,012	2,070	277,665	140,645
328,027	1,936	277,587	140,470
329,041	1,901	277,481	140,370
330,056	2,013	277,179	140,309
331,070	1,949	276,988	140,141
332,085	2,086	276,794	140,157
333,100	2,105	276,646	140,086
334,114	2,067	276,401	139,915
335,129	1,909	276,300	139,706
336,143	2,191	276,078	139,841
337,158	2,146	275,840	139,666
338,173	2,068	275,771	139,547
339,187	1,996	275,578	139,371
340,202	1,956	275,419	139,241
341,216	1,969	275,184	139,122
342,231	2,040	275,011	139,087
343,246	2,117	274,810	139,044
344,260	1,962	274,837	138,903
345,275	1,999	274,671	138,841
346,289	2,168	274,405	138,849
347,304	2,091	274,205	138,665
348,319	2,016	274,064	138,513
349,333	1,988	273,864	138,374
350,348	2,118	273,629	138,360
351,362	2,064	273,509	138,238
352,377	2,121	273,298	138,171
353,392	2,054	273,200	138,049
354,406	1,982	273,073	137,907
355,421	191,823	1348,599	1428,455
356,435	154,898	1479,697	1428,554
