DTS Sentinel unit serial number:	SN410029Multiplexer serial number:	ORYXHardware model number:	OX2-SRSoftware version number:	ORYX F/W v4,00 Oryx Data Collector v3.7.2.0data status	okinstallation	B4 Nyhavnadifferential loss correction	single-endedforward channel	channel 2reverse channel	N/Adate	2023/12/15time	14:05:13forward acquisition time	300,00reverse acquisition time	0,00gamma	499,1914k internal	0,3161k external	0,3161temperature offset calibration	1,0000default loss term (dB/km)	0,3820temperature slope calibration	1,0000multiplexer offset coefficient	1,0000multiplexer slope coefficient	1,0000fibre end	0,00T internal ref (°C)	14,36T ext. ref 1 (°C)	1,16T ext. ref 2 (°C)	1,26length (m)	temperature (°C)	Stokes	anti-Stokes-744,400	800,000	0,011	0,032
-743,385	-100,661	-0,207	-0,037
-742,371	-81,655	0,170	0,041
-741,356	-95,662	-0,295	-0,058
-740,342	632,003	0,132	0,246
-739,327	-76,523	-0,362	-0,093
-738,312	369,823	0,040	-0,059
-737,298	-7,742	-0,262	0,130
-736,283	20,142	0,155	0,092
-735,269	-54,303	-0,246	0,082
-734,254	-61,862	0,171	0,052
-733,239	3,845	-0,367	-0,197
-732,225	188,212	0,209	0,230
-731,210	-200,000	-0,021	0,097
-730,196	-38,121	0,086	0,033
-729,181	800,000	-0,046	0,146
-728,167	-100,181	-0,106	0,019
-727,152	800,000	0,052	-0,112
-726,137	-96,644	-0,051	-0,010
-725,123	-200,000	-0,006	-0,036
-724,108	245,924	-0,093	-0,116
-723,094	-200,000	-0,002	0,036
-722,079	-41,563	-0,073	-0,027
-721,064	74,386	0,105	-0,081
-720,050	-200,000	0,024	0,103
-719,035	800,000	-0,020	-0,057
-718,021	75,691	0,066	0,051
-717,006	-200,000	-0,009	-0,145
-715,991	90,607	-0,117	-0,096
-714,977	107,677	0,190	-0,167
-713,962	47,892	0,137	0,094
-712,948	-140,797	0,081	-0,006
-711,933	158,525	-0,111	-0,113
-710,918	800,000	0,031	0,082
-709,904	800,000	-0,010	0,026
-708,889	-158,894	-0,044	-0,002
-707,875	-16,855	0,097	-0,045
-706,860	165,456	0,120	-0,125
-705,845	611,069	-0,052	0,097
-704,831	21,320	-0,211	0,126
-703,816	658,834	-0,029	-0,055
-702,802	-64,786	-0,106	0,031
-701,787	85,494	-0,197	-0,159
-700,772	800,000	-0,029	-0,075
-699,758	-137,099	-0,089	0,007
-698,743	-103,515	0,035	0,006
-697,729	69,581	0,095	-0,072
-696,714	-200,000	-0,013	0,080
-695,699	340,237	0,054	-0,077
-694,685	64,758	-0,079	-0,058
-693,670	91,247	-0,066	-0,055
-692,656	33,994	-0,143	-0,092
-691,641	-31,231	0,019	0,008
-690,627	-100,891	0,040	-0,007
-689,612	104,470	0,038	0,033
-688,597	143,534	-0,105	-0,103
-687,583	75,169	-0,082	-0,063
-686,568	-79,496	0,040	-0,010
-685,554	-17,451	0,042	0,019
-684,539	195,599	-0,018	-0,020
-683,524	800,000	0,012	-0,035
-682,510	-101,487	-0,044	0,008
-681,495	800,000	-0,034	-0,093
-680,481	532,349	-0,092	-0,160
-679,466	453,689	-0,075	-0,122
-678,451	53,031	0,014	-0,010
-677,437	-119,575	-0,044	0,006
-676,422	1,134	0,009	0,005
-675,408	800,000	0,013	-0,030
-674,393	-118,383	0,081	-0,010
-673,378	-161,665	-0,131	0,005
-672,364	800,000	-0,061	-0,127
-671,349	108,610	0,089	-0,078
-670,335	730,965	0,051	-0,100
-669,320	-200,000	0,012	0,045
-668,305	336,238	-0,059	0,084
-667,291	-127,644	-0,202	0,021
-666,276	-141,992	-0,076	-0,005
-665,262	-44,307	0,117	-0,043
-664,247	-200,000	0,002	-0,129
-663,232	169,911	0,082	-0,086
-662,218	297,044	0,043	0,058
-661,203	42,321	-0,106	-0,071
-660,189	-128,373	-0,066	-0,007
-659,174	-200,000	-0,017	-0,059
-658,159	93,767	0,125	0,104
-657,145	-200,000	-0,000	0,041
-656,130	685,229	0,007	0,013
-655,116	530,013	0,054	0,095
-654,101	-154,428	0,165	0,008
-653,086	-10,869	-0,055	-0,026
-652,072	-33,538	-0,058	0,023
-651,057	345,742	-0,086	-0,124
-650,043	-121,880	-0,137	-0,016
-649,028	-200,000	0,042	-0,183
-648,014	800,000	0,023	-0,074
-646,999	-200,000	0,007	0,123
-645,984	629,670	0,031	0,057
-644,970	71,009	0,068	-0,051
-643,955	363,494	-0,019	-0,028
-642,941	-91,010	-0,125	-0,026
-641,926	-110,327	-0,052	0,008
-640,911	35,697	-0,080	-0,051
-639,897	-1,722	0,087	-0,045
-638,882	72,060	-0,096	0,073
-637,868	29,714	-0,037	-0,023
-636,853	800,000	0,030	-0,064
-635,838	-200,000	0,013	-0,154
-634,824	-19,243	0,024	-0,011
-633,809	-58,966	0,118	0,037
-632,795	-200,000	-0,010	0,116
-631,780	-38,980	0,070	0,027
-630,765	474,359	0,019	0,031
-629,751	286,321	-0,019	-0,026
-628,736	-7,758	-0,101	-0,050
-627,722	82,005	-0,081	-0,064
-626,707	42,188	0,082	0,054
-625,692	-200,000	-0,017	0,061
-624,678	-126,199	-0,082	-0,009
-623,663	-200,000	0,043	0,164
-622,649	331,234	-0,048	-0,068
-621,634	277,085	-0,025	-0,033
-620,619	-119,913	-0,020	0,002
-619,605	-32,651	0,109	0,044
-618,590	-75,325	-0,026	0,007
-617,576	24,472	-0,055	0,033
-616,561	800,000	0,010	-0,027
-615,546	46,960	-0,167	-0,114
-614,532	-123,409	-0,103	0,012
-613,517	-158,103	0,064	-0,003
-612,503	-130,798	-0,177	0,017
-611,488	-200,000	-0,001	0,043
-610,474	-40,306	0,096	0,036
-609,459	542,157	-0,057	-0,100
-608,444	100,865	-0,121	-0,103
-607,430	-74,823	-0,096	0,025
-606,415	-171,143	0,109	-0,003
-605,401	129,145	-0,012	0,011
-604,386	78,982	0,035	-0,028
-603,371	-200,000	-0,001	0,047
-602,357	-101,460	-0,008	0,001
-601,342	297,413	-0,054	-0,073
-600,328	-200,000	0,046	-0,169
-599,313	-200,000	-0,006	-0,095
-598,298	557,123	-0,061	-0,108
-597,284	121,332	0,044	0,040
-596,269	55,406	-0,193	0,137
-595,255	800,000	-0,027	0,081
-594,240	740,527	-0,110	-0,217
-593,225	-200,000	0,026	-0,101
-592,211	40,724	-0,008	-0,005
-591,196	268,562	-0,043	0,055
-590,182	800,000	-0,072	-0,196
-589,167	-200,000	0,026	-0,122
-588,152	221,157	-0,094	0,111
-587,138	-197,675	0,097	-0,000
-586,123	74,782	-0,069	-0,053
-585,109	-51,138	0,075	0,026
-584,094	124,546	-0,136	0,125
-583,079	230,843	0,093	0,112
-582,065	145,108	0,035	-0,034
-581,050	706,887	0,057	-0,111
-580,036	307,911	0,074	-0,101
-579,021	181,923	-0,068	0,074
-578,006	-200,000	-0,018	0,086
-576,992	-200,000	0,009	-0,055
-575,977	663,333	0,050	0,095
-574,963	-200,000	-0,012	0,092
-573,948	-68,463	0,177	-0,050
-572,934	449,546	-0,072	0,117
-571,919	-147,624	-0,058	-0,004
-570,904	161,554	-0,057	0,059
-569,890	-3,870	0,146	0,074
-568,875	33,720	0,164	0,104
-567,861	-48,014	0,101	-0,035
-566,846	59,303	0,142	0,102
-565,831	256,480	-0,044	-0,056
-564,817	294,182	-0,030	-0,041
-563,802	31,683	-0,049	-0,031
-562,788	311,804	0,049	0,068
-561,773	2,160	-0,020	-0,011
-560,758	-200,000	0,035	0,147
-559,744	93,849	0,092	0,076
-558,729	368,847	-0,050	0,074
-557,715	-44,738	-0,087	-0,031
-556,700	800,000	-0,021	-0,047
-555,685	-200,000	0,015	-0,119
-554,671	-129,370	0,211	0,021
-553,656	-44,733	-0,055	0,020
-552,642	58,157	0,058	0,041
-551,627	118,653	-0,040	0,037
-550,612	-19,332	-0,160	0,072
-549,598	429,947	-0,040	0,063
-548,583	176,366	-0,060	-0,063
-547,569	800,000	-0,092	0,189
-546,554	-200,000	0,007	0,039
-545,539	-115,010	0,074	0,010
-544,525	-200,000	-0,015	-0,059
-543,510	185,595	0,091	0,099
-542,496	380,385	-0,043	-0,064
-541,481	169,338	0,067	-0,070
-540,466	85,763	0,081	-0,065
-539,452	240,463	0,051	-0,062
-538,437	-200,000	-0,028	0,160
-537,423	72,476	-0,102	-0,078
-536,408	-200,000	-0,004	0,114
-535,393	-57,941	-0,024	-0,007
-534,379	-88,792	0,028	-0,006
-533,364	21,031	0,037	0,022
-532,350	-200,000	-0,008	0,052
-531,335	-117,985	0,177	0,023
-530,321	-55,893	-0,079	-0,026
-529,306	0,822	-0,169	0,088
-528,291	-11,803	-0,123	-0,059
-527,277	61,072	-0,082	-0,059
-526,262	396,472	-0,041	0,063
-525,248	485,623	-0,035	-0,059
-524,233	279,828	0,065	0,086
-523,218	246,123	-0,047	0,058
-522,204	-105,801	0,050	-0,008
-521,189	-156,004	-0,013	-0,001
-520,175	800,000	0,012	-0,027
-519,160	22,535	-0,124	-0,074
-518,145	452,705	-0,006	-0,010
-517,131	-80,167	0,105	0,026
-516,116	253,987	-0,077	0,097
-515,102	165,972	-0,017	0,018
-514,087	-104,731	-0,093	-0,015
-513,072	-200,000	-0,012	-0,042
-512,058	800,000	-0,037	0,096
-511,043	-200,000	0,020	-0,073
-510,029	-200,000	0,104	0,000
-509,014	-144,699	-0,082	-0,005
-507,999	13,146	0,029	0,016
-506,985	479,099	0,042	-0,070
-505,970	-37,825	-0,127	0,049
-504,956	-200,000	-0,019	-0,075
-503,941	-200,000	-0,031	-0,172
-502,926	-200,000	-0,001	0,006
-501,912	15,950	0,158	0,091
-500,897	800,000	-0,026	0,077
-499,883	339,884	0,082	0,117
-498,868	800,000	-0,052	-0,117
-497,853	-177,570	0,024	-0,000
-496,839	-40,263	-0,116	-0,044
-495,824	325,107	-0,038	0,053
-494,810	-200,000	-0,002	-0,015
-493,795	-26,533	0,059	0,025
-492,781	55,293	-0,075	-0,053
-491,766	-200,000	-0,004	-0,013
-490,751	-200,000	0,001	-0,146
-489,737	168,117	0,050	-0,052
-488,722	-200,000	0,014	0,070
-487,708	86,813	0,042	0,034
-486,693	800,000	-0,019	-0,058
-485,678	800,000	-0,039	-0,089
-484,664	-2,049	-0,158	-0,080
-483,649	52,494	-0,086	-0,060
-482,635	206,193	0,090	0,102
-481,620	650,506	-0,048	-0,089
-480,605	-22,381	0,035	-0,015
-479,591	331,508	-0,033	0,046
-478,576	-61,405	0,057	0,017
-477,562	88,520	0,032	-0,026
-476,547	-200,000	-0,004	-0,107
-475,532	407,076	-0,044	-0,068
-474,518	320,184	-0,026	0,037
-473,503	-24,924	-0,022	-0,009
-472,489	-143,263	0,026	0,002
-471,474	-200,000	-0,119	0,000
-470,459	0,549	-0,090	0,047
-469,445	-200,000	-0,008	-0,175
-468,430	800,000	0,015	0,040
-467,416	31,928	0,027	-0,017
-466,401	450,676	0,017	-0,028
-465,386	167,653	0,033	0,034
-464,372	157,390	0,067	0,068
-463,357	514,172	-0,030	-0,052
-462,343	143,494	-0,101	-0,098
-461,328	421,661	0,023	0,037
-460,313	-149,036	0,052	0,003
-459,299	-81,784	0,116	0,027
-458,284	-16,726	0,059	0,027
-457,270	-181,785	0,064	0,001
-456,255	-200,000	0,018	0,157
-455,241	-200,000	-0,018	-0,063
-454,226	208,030	-0,055	0,063
-453,211	63,410	-0,056	-0,041
-452,197	48,860	0,163	-0,111
-451,182	800,000	0,029	0,072
-450,168	800,000	0,015	0,044
-449,153	97,692	0,016	-0,013
-448,138	454,523	0,049	0,080
-447,124	-46,120	0,055	-0,020
-446,109	35,457	-0,044	-0,028
-445,095	-155,441	0,049	0,002
-444,080	80,302	0,082	0,064
-443,065	544,322	0,021	-0,036
-442,051	800,000	-0,025	-0,064
-441,036	-48,862	0,174	0,060
-440,022	381,385	0,043	0,064
-439,007	-200,000	0,031	0,126
-437,992	-27,857	0,016	-0,007
-436,978	597,841	-0,056	-0,101
-435,963	-79,457	0,156	0,038
-434,949	36,962	0,014	0,009
-433,934	-20,591	-0,088	-0,039
-432,919	1,954	0,120	-0,063
-431,905	-62,789	-0,045	-0,014
-430,890	356,147	0,018	0,026
-429,876	110,460	-0,036	0,031
-428,861	-137,838	-0,079	0,006
-427,846	54,511	0,086	0,060
-426,832	22,356	0,032	-0,019
-425,817	-8,041	-0,115	-0,056
-424,803	800,000	0,071	-0,156
-423,788	-129,535	0,023	-0,002
-422,773	126,570	0,028	0,026
-421,759	310,663	-0,047	0,065
-420,744	-200,000	-0,001	-0,011
-419,730	-200,000	-0,003	-0,096
-418,715	800,000	-0,059	0,129
-417,701	135,390	0,025	0,024
-416,686	106,866	-0,031	0,027
-415,671	800,000	0,054	0,131
-414,657	4,623	0,094	-0,050
-413,642	-200,000	-0,036	0,169
-412,628	659,101	0,039	0,073
-411,613	800,000	-0,047	-0,108
-410,598	-39,565	-0,046	-0,018
-409,584	48,000	0,162	-0,110
-408,569	91,307	0,026	0,021
-407,555	45,532	0,025	-0,017
-406,540	41,648	0,123	-0,081
-405,525	107,642	-0,016	-0,014
-404,511	115,602	-0,135	0,120
-403,496	153,661	-0,136	-0,136
-402,482	112,342	-0,097	-0,086
-401,467	117,487	0,044	0,040
-400,452	800,000	-0,060	0,178
-399,438	-27,785	-0,106	0,044
-398,423	205,941	-0,029	0,033
-397,409	82,646	-0,095	0,075
-396,394	579,453	0,058	-0,104
-395,379	-5,638	0,073	0,036
-394,365	45,435	0,109	0,073
-393,350	216,604	0,032	-0,037
-392,336	-21,414	0,090	0,040
-391,321	-20,788	0,095	-0,042
-390,306	438,862	-0,099	-0,157
-389,292	95,336	-0,055	0,046
-388,277	800,000	-0,027	-0,072
-387,263	11,446	0,072	0,040
-386,248	800,000	-0,023	0,051
-385,233	-142,060	0,099	0,007
-384,219	350,953	-0,088	-0,127
-383,204	308,553	-0,042	-0,057
-382,190	113,381	0,025	-0,022
-381,175	145,564	0,067	-0,065
-380,160	-45,942	0,125	-0,045
-379,146	-200,000	0,001	-0,097
-378,131	19,630	0,036	-0,021
-377,117	29,651	-0,014	0,009
-376,102	49,110	-0,053	0,036
-375,088	-122,752	-0,118	0,014
-374,073	348,034	0,075	0,108
-373,058	77,914	0,021	0,016
-372,044	-200,000	0,004	0,083
-371,029	-100,674	0,095	0,017
-370,015	-116,034	0,041	-0,005
-369,000	800,000	-0,036	0,106
-367,985	-138,797	0,094	0,007
-366,971	-200,000	-0,020	0,116
-365,956	800,000	-0,048	-0,121
-364,942	-59,594	0,049	0,015
-363,927	-21,924	0,159	-0,070
-362,912	800,000	0,062	0,180
-361,898	-147,396	-0,173	0,010
-360,883	-18,929	-0,094	0,042
-359,869	800,000	0,012	0,034
-358,854	-65,181	0,078	-0,023
-357,839	-200,000	0,018	-0,088
-356,825	-33,739	-0,090	-0,036
-355,810	-144,014	0,127	-0,009
-354,796	-200,000	0,004	-0,026
-353,781	-155,499	-0,141	-0,006
-352,766	800,000	-0,052	0,110
-351,752	-200,000	-0,014	-0,053
-350,737	800,000	-0,013	0,034
-349,723	-200,000	0,024	0,093
-348,708	-125,880	0,091	-0,010
-347,693	-200,000	0,006	0,081
-346,679	-64,384	-0,100	0,029
-345,664	-4,382	-0,065	-0,032
-344,650	654,446	0,061	0,115
-343,635	307,383	-0,042	-0,057
-342,620	248,570	0,106	0,130
-341,606	800,000	0,052	0,136
-340,591	182,033	-0,073	-0,078
-339,577	-68,052	-0,049	-0,014
-338,562	-18,073	-0,080	-0,036
-337,548	-200,000	0,030	-0,152
-336,533	37,663	-0,129	-0,083
-335,518	-113,818	0,024	0,003
-334,504	237,075	-0,025	0,030
-333,489	-179,260	0,063	0,001
-332,475	99,667	-0,132	0,111
-331,460	-200,000	-0,008	-0,169
-330,445	-200,000	-0,002	-0,024
-329,431	800,000	0,014	-0,033
-328,416	-12,848	0,188	-0,088
-327,402	800,000	-0,014	-0,034
-326,387	71,447	-0,038	0,029
-325,372	243,576	0,074	-0,090
-324,358	302,660	-0,053	-0,071
-323,343	-200,000	-0,003	0,036
-322,329	-24,517	-0,134	0,058
-321,314	47,892	-0,149	0,101
-320,299	-200,000	0,003	0,136
-319,285	418,611	0,064	-0,099
-318,270	84,741	0,017	-0,013
-317,256	-200,000	-0,009	0,106
-316,241	800,000	-0,022	0,051
-315,226	204,686	0,041	-0,046
-314,212	-200,000	0,017	-0,075
-313,197	-200,000	0,007	0,110
-312,183	-74,763	-0,053	0,014
-311,168	328,315	-0,057	-0,080
-310,153	-200,000	0,028	-0,143
-309,139	-27,647	-0,070	-0,029
-308,124	-0,173	0,060	-0,031
-307,110	27,689	0,031	-0,019
-306,095	121,921	-0,047	-0,042
-305,080	39,574	0,098	0,064
-304,066	12,158	0,102	0,057
-303,051	578,321	-0,077	-0,136
-302,037	800,000	0,051	0,127
-301,022	800,000	0,013	0,035
-300,008	-200,000	0,022	0,137
-298,993	75,305	0,113	0,086
-297,978	-200,000	-0,012	0,048
-296,964	-200,000	0,052	0,235
-295,949	-200,000	0,056	-0,243
-294,935	-46,423	0,050	-0,018
-293,920	-36,402	-0,044	-0,017
-292,905	-47,932	0,066	0,023
-291,891	-23,860	-0,049	0,021
-290,876	-164,480	-0,214	0,007
-289,862	172,931	-0,041	0,043
-288,847	-200,000	-0,023	0,113
-287,832	-200,000	0,005	-0,039
-286,818	800,000	-0,037	-0,098
-285,803	-4,510	0,055	0,028
-284,789	501,399	0,024	0,041
-283,774	800,000	0,038	0,119
-282,759	-136,663	0,181	0,015
-281,745	800,000	0,037	-0,090
-280,730	-149,670	0,095	0,005
-279,716	-63,137	0,084	-0,025
-278,701	-59,146	-0,026	0,008
-277,686	686,953	-0,014	0,027
-276,672	172,684	0,075	0,078
-275,657	-108,548	0,097	0,015
-274,643	90,380	-0,045	-0,036
-273,628	-200,000	-0,003	-0,059
-272,613	567,290	-0,050	0,088
-271,599	-6,607	0,041	-0,020
-270,584	139,282	-0,033	0,032
-269,570	-200,000	0,026	0,096
-268,555	-12,838	-0,127	0,060
-267,540	256,272	-0,032	0,039
-266,526	104,331	-0,056	0,048
-265,511	800,000	0,060	0,125
-264,497	130,910	-0,082	0,076
-263,482	-62,664	0,057	-0,017
-262,467	-200,000	-0,013	-0,045
-261,453	33,179	0,090	0,057
-260,438	800,000	0,076	-0,158
-259,424	-51,588	-0,029	0,010
-258,409	800,000	-0,029	-0,065
-257,395	-52,589	0,064	-0,021
-256,380	-166,273	-0,079	-0,002
-255,365	-200,000	0,007	-0,065
-254,351	-200,000	0,043	-0,158
-253,336	-200,000	-0,011	0,053
-252,322	-200,000	0,002	-0,128
-251,307	-200,000	0,014	-0,149
-250,292	137,975	0,016	0,015
-249,278	-35,544	-0,016	0,006
-248,263	747,252	0,063	-0,123
-247,249	40,947	0,051	-0,034
-246,234	-58,294	0,054	-0,017
-245,219	-86,332	-0,079	-0,017
-244,205	184,577	0,054	-0,058
-243,190	-27,271	0,055	0,023
-242,176	-172,144	-0,067	0,002
-241,161	-194,999	0,051	0,000
-240,146	-148,242	-0,079	-0,005
-239,132	-200,000	-0,017	0,070
-238,117	163,924	-0,116	-0,118
-237,103	142,642	0,060	0,058
-236,088	-47,769	-0,054	0,019
-235,073	800,000	0,034	-0,076
-234,059	800,000	0,028	-0,059
-233,044	344,024	0,052	0,074
-232,030	800,000	0,019	0,040
-231,015	206,007	-0,026	0,029
-230,000	-19,104	-0,077	-0,035
-228,986	-200,000	-0,023	-0,114
-227,971	150,195	0,033	-0,032
-226,957	-150,665	0,047	0,003
-225,942	-19,438	0,036	0,016
-224,927	4,611	0,038	-0,020
-223,913	-174,457	-0,171	0,003
-222,898	-74,689	0,022	0,006
-221,884	264,074	0,100	-0,125
-220,869	142,794	-0,063	-0,060
-219,855	-200,000	-0,024	0,154
-218,840	800,000	0,011	0,034
-217,825	76,647	-0,058	-0,044
-216,811	163,966	0,023	0,023
-215,796	147,103	-0,064	-0,063
-214,782	76,453	0,048	-0,037
-213,767	25,418	0,086	-0,051
-212,752	-4,994	0,066	-0,033
-211,738	-200,000	-0,001	0,165
-210,723	28,850	-0,098	0,060
-209,709	368,531	-0,047	-0,069
-208,694	20,690	0,086	-0,050
-207,679	-137,362	0,027	-0,002
-206,665	-13,037	-0,025	0,012
-205,650	-17,006	0,074	-0,034
-204,636	-200,000	-0,001	-0,036
-203,621	-200,000	-0,006	-0,057
-202,606	800,000	0,092	0,195
-201,592	-56,858	-0,120	-0,038
-200,577	164,299	-0,048	0,049
-199,563	800,000	0,049	-0,108
-198,548	97,324	0,087	0,072
-197,533	394,533	-0,029	0,044
-196,519	405,554	0,062	0,094
-195,504	-92,366	0,064	0,013
-194,490	-200,000	0,039	-0,150
-193,475	534,199	0,017	0,029
-192,460	-82,106	-0,084	0,020
-191,446	-52,037	-0,066	0,022
-190,431	-22,690	0,048	0,021
-189,417	653,828	-0,091	0,169
-188,402	787,141	-0,021	0,042
-187,387	-200,000	0,003	-0,039
-186,373	-97,558	-0,058	0,011
-185,358	227,552	0,096	-0,112
-184,344	-29,288	0,057	0,024
-183,329	-51,049	-0,067	0,022
-182,315	-92,176	0,132	-0,027
-181,300	-69,524	-0,069	-0,019
-180,285	-41,313	-0,202	-0,075
-179,271	-110,123	-0,029	-0,004
-178,256	-200,000	0,022	-0,107
-177,242	10,788	-0,113	0,062
-176,227	168,003	0,094	0,097
-175,212	-72,267	0,118	-0,031
-174,198	42,019	-0,030	-0,019
-173,183	800,000	0,022	-0,063
-172,169	-37,311	-0,046	0,018
-171,154	57,939	-0,006	-0,004
-170,139	-50,530	0,077	-0,026
-169,125	-200,000	-0,009	0,111
-168,110	54,854	0,043	0,030
-167,096	-62,762	-0,196	-0,058
-166,081	496,936	-0,016	-0,026
-165,066	257,362	-0,070	0,087
-164,052	169,481	0,087	-0,089
-163,037	473,859	0,056	0,092
-162,023	-85,982	0,176	0,039
-161,008	544,852	0,037	0,064
-159,993	-200,000	0,013	0,157
-158,979	34,787	-0,096	-0,060
-157,964	-200,000	-0,048	-0,159
-156,950	800,000	-0,023	-0,061
-155,935	58,196	-0,112	-0,079
-154,920	-200,000	0,020	0,076
-153,906	-200,000	-0,010	-0,041
-152,891	11,450	-0,113	0,062
-151,877	164,195	0,091	-0,092
-150,862	800,000	0,014	0,039
-149,847	800,000	-0,043	-0,099
-148,833	-200,000	0,012	0,076
-147,818	-70,814	-0,119	-0,032
-146,804	311,740	0,025	0,034
-145,789	586,116	0,013	0,024
-144,775	294,857	-0,082	0,108
-143,760	800,000	0,037	0,114
-142,745	-200,000	-0,049	-0,199
-141,731	63,983	0,045	-0,033
-140,716	183,817	0,053	-0,056
-139,702	-155,998	0,129	0,006
-138,687	13,165	0,066	-0,037
-137,672	-104,141	-0,142	-0,023
-136,658	-143,211	-0,139	-0,009
-135,643	169,484	0,029	-0,030
-134,629	152,798	0,013	-0,013
-133,614	-133,861	0,025	0,002
-132,599	105,759	-0,021	-0,018
-131,585	120,378	-0,023	0,020
-130,570	-200,000	0,027	-0,097
-129,556	-83,013	-0,159	0,037
-128,541	-163,728	-0,082	0,003
-127,526	204,283	-0,063	0,070
-126,512	-200,000	0,031	-0,112
-125,497	800,000	-0,045	0,116
-124,483	67,725	-0,097	-0,071
-123,468	-129,845	0,053	-0,005
-122,453	436,911	0,060	0,094
-121,439	-35,124	0,130	-0,051
-120,424	594,060	-0,075	-0,135
-119,410	800,000	0,043	0,092
-118,395	176,921	0,109	-0,114
-117,380	-93,055	0,160	0,032
-116,366	59,632	-0,130	-0,092
-115,351	447,545	-0,093	-0,148
-114,337	-66,421	-0,177	-0,050
-113,322	-200,000	-0,000	0,101
-112,307	511,016	-0,046	-0,077
-111,293	800,000	0,049	0,120
-110,278	62,399	0,071	-0,051
-109,264	-86,457	0,102	-0,022
-108,249	800,000	-0,021	0,053
-107,234	-62,879	-0,142	0,042
-106,220	-200,000	-0,001	-0,005
-105,205	-200,000	-0,015	0,135
-104,191	451,683	-0,083	0,132
-103,176	-12,089	-0,052	0,024
-102,162	-45,108	0,079	0,028
-101,147	380,559	-0,053	0,079
-100,132	775,792	0,054	-0,107
-99,118	-200,000	0,001	-0,012
-98,103	13,739	0,077	0,043
-97,089	-45,764	0,202	-0,071
-96,074	-200,000	-0,008	-0,090
-95,059	7,239	0,121	0,065
-94,045	-27,434	-0,109	0,045
-93,030	-200,000	-0,018	-0,119
-92,016	16,821	-0,094	-0,053
-91,001	294,912	-0,147	-0,193
-89,986	-200,000	-0,022	0,113
-88,972	-141,470	-0,036	0,003
-87,957	339,493	0,061	0,085
-86,943	76,436	-0,101	-0,077
-85,928	-200,000	0,003	0,152
-84,913	-200,000	-0,032	-0,183
-83,899	185,132	0,059	0,063
-82,884	-13,119	-0,044	0,021
-81,870	563,359	0,062	0,108
-80,855	295,942	0,069	0,091
-79,840	132,878	-0,118	0,109
-78,826	800,000	-0,030	-0,077
-77,811	-33,765	-0,116	-0,046
-76,797	91,775	0,051	0,041
-75,782	-188,637	-0,061	-0,001
-74,767	66,983	0,062	0,045
-73,753	-200,000	0,038	0,000
-72,738	296,636	-0,064	0,085
-71,724	800,000	-0,035	-0,085
-70,709	-200,000	0,008	-0,080
-69,694	39,702	-0,044	-0,028
-68,680	46,017	0,060	0,040
-67,665	86,503	0,107	0,084
-66,651	-165,433	0,051	-0,002
-65,636	-200,000	0,006	-0,049
-64,622	-115,751	-0,096	0,013
-63,607	144,359	-0,095	-0,091
-62,592	-47,710	0,044	-0,015
-61,578	-160,110	-0,074	0,003
-60,563	-79,461	0,095	-0,023
-59,549	782,835	0,060	0,118
-58,534	6,605	-2,124	-1,129
-57,519	-200,000	-0,194	-0,785
-56,505	-200,000	-1,317	-5,063
-55,490	128,534	0,873	0,797
-54,476	800,000	5,234	11,958
-53,461	-200,000	18,508	298,737
-52,446	800,000	732,542	2245,168
-51,432	539,013	1645,078	2816,037
-50,417	108,116	1632,512	1395,106
-49,403	73,869	1283,748	964,040
-48,388	30,700	1024,586	627,173
-47,373	20,459	986,872	570,424
-46,359	18,244	974,447	555,988
-45,344	14,764	970,379	542,299
-44,330	15,039	968,853	542,319
-43,315	14,443	966,987	539,313
-42,300	14,372	966,023	538,525
-41,286	14,376	965,217	538,066
-40,271	14,405	964,049	537,487
-39,257	14,419	963,179	537,029
-38,242	14,393	962,470	536,526
-37,227	14,412	961,579	536,069
-36,213	14,330	960,750	535,320
-35,198	14,332	959,834	534,798
-34,184	14,410	959,101	534,617
-33,169	14,354	958,098	533,858
-32,154	14,388	957,133	533,407
-31,140	14,435	956,109	532,968
-30,125	14,387	955,544	532,477
-29,111	14,380	954,738	531,985
-28,096	14,332	954,275	531,551
-27,082	14,382	953,374	531,190
-26,067	14,416	952,509	530,795
-25,052	14,395	951,830	530,327
-24,038	14,394	951,189	529,947
-23,023	14,393	950,423	529,495
-22,009	14,433	949,827	529,271
-20,994	14,425	949,315	528,938
-19,979	14,405	948,518	528,409
-18,965	14,401	948,012	528,093
-17,950	14,426	947,360	527,788
-16,936	14,320	946,689	527,056
-15,921	14,342	946,026	526,737
-14,906	14,302	945,221	526,141
-13,892	14,300	944,764	525,860
-12,877	14,200	944,078	525,140
-11,863	14,228	943,579	524,930
-10,848	14,298	942,834	524,716
-9,833	14,400	942,267	524,703
-8,819	14,277	941,934	524,108
-7,804	14,373	941,051	523,898
-6,790	14,323	940,612	523,474
-5,775	14,365	940,006	523,251
-4,760	14,353	939,272	522,782
-3,746	14,268	938,858	522,262
-2,731	14,200	937,971	521,535
-1,717	14,129	937,493	521,023
-0,702	14,073	936,897	520,497
0,313	13,943	936,119	520,440
1,327	16,653	933,722	527,571
2,342	23,506	806,354	474,057
3,356	17,489	517,962	294,059
4,371	-3,494	395,883	196,617
5,386	-5,644	379,827	185,841
6,400	-7,237	373,509	180,701
7,415	-8,328	370,604	177,899
8,429	-8,553	368,596	176,636
9,444	-8,685	367,798	176,072
10,459	-8,724	366,882	175,568
11,473	-8,793	366,270	175,173
12,488	-8,954	365,545	174,610
13,502	-9,062	364,828	174,117
14,517	-9,056	364,329	173,872
15,531	-9,131	363,588	173,409
16,546	-9,239	363,215	173,082
17,561	-9,355	362,765	172,708
18,575	-9,287	362,274	172,543
19,590	-9,253	361,817	172,352
20,604	-9,232	361,659	172,288
21,619	-9,393	361,129	171,822
22,634	-9,342	360,711	171,669
23,648	-9,376	360,340	171,437
24,663	-9,419	360,016	171,214
25,677	-9,429	359,714	171,043
26,692	-9,274	359,367	171,053
27,707	-9,252	358,913	170,849
28,721	-9,255	358,741	170,747
29,736	-9,345	358,478	170,497
30,750	-9,332	357,998	170,269
31,765	-9,407	357,744	170,042
32,780	-9,275	357,364	170,007
33,794	-9,418	357,186	169,733
34,809	-9,306	356,834	169,687
35,823	-9,309	356,386	169,456
36,838	-9,311	356,155	169,328
37,853	-9,412	355,907	169,072
38,867	-9,327	355,509	168,971
39,882	-9,311	355,296	168,874
40,896	-9,297	354,921	168,697
41,911	-9,414	354,738	168,454
42,926	-9,383	354,363	168,298
43,940	-9,421	353,919	168,026
44,955	-9,351	353,835	168,056
45,969	-9,319	353,370	167,859
46,984	-9,412	353,156	167,630
47,999	-9,464	353,027	167,491
49,013	-9,405	352,665	167,376
50,028	-9,459	352,355	167,150
51,042	-9,313	352,059	167,169
52,057	-9,407	351,883	166,957
53,071	-9,393	351,485	166,771
54,086	-9,517	351,250	166,496
55,101	-9,480	350,913	166,366
56,115	-9,444	350,598	166,244
57,130	-9,268	350,319	166,307
58,144	-9,233	350,081	166,221
59,159	-9,230	349,797	166,075
60,174	-9,192	349,436	165,934
61,188	-9,214	349,291	165,824
62,203	-9,205	349,096	165,728
63,217	-9,235	348,798	165,535
64,232	-9,184	348,415	165,399
65,247	-9,089	348,272	165,430
66,261	-9,212	347,901	165,093
67,276	-9,363	347,538	164,728
68,290	-9,393	347,217	164,525
69,305	-9,311	347,086	164,546
70,320	-9,386	346,914	164,361
71,334	-9,260	346,382	164,243
72,349	-9,269	346,349	164,201
73,363	-9,202	345,903	164,054
74,378	-9,217	345,735	163,943
75,393	-9,161	345,363	163,816
76,407	-9,257	345,102	163,567
77,422	-9,254	344,924	163,471
78,436	-9,320	344,572	163,212
79,451	-9,298	344,251	163,071
80,466	-9,326	343,965	162,889
81,480	-9,435	343,730	162,635
82,495	-9,315	343,385	162,597
83,509	-9,306	343,245	162,527
84,524	-9,448	342,934	162,200
85,539	-9,444	342,628	162,046
86,553	-9,443	342,535	161,988
87,568	-9,329	342,159	161,928
88,582	-9,325	341,857	161,776
89,597	-9,360	341,562	161,580
90,611	-9,348	341,458	161,531
91,626	-9,301	341,408	161,548
92,641	-9,213	340,935	161,411
93,655	-9,346	340,571	161,071
94,670	-9,467	340,309	160,793
95,684	-9,313	340,141	160,877
96,699	-9,391	339,821	160,621
97,714	-9,272	339,518	160,601
98,728	-9,406	339,447	160,399
99,743	-9,420	339,222	160,262
100,757	-9,341	338,949	160,210
101,772	-9,251	338,600	160,133
102,787	-9,328	338,324	159,900
103,801	-9,389	338,032	159,678
104,816	-9,232	337,767	159,718
105,830	-9,304	337,640	159,562
106,845	-9,217	337,370	159,519
107,860	-9,215	337,144	159,401
108,874	-9,282	336,779	159,138
109,889	-9,325	336,507	158,946
110,903	-9,341	336,347	158,837
111,918	-9,277	336,087	158,773
112,933	-9,184	335,798	158,728
113,947	-9,264	335,648	158,553
114,962	-9,163	335,371	158,522
115,976	-9,110	334,929	158,360
116,991	-9,361	335,036	158,111
118,006	-9,205	334,664	158,099
119,020	-9,300	334,500	157,900
120,035	-9,058	334,351	158,088
121,049	-9,245	334,237	157,809
122,064	-9,290	333,851	157,562
123,079	-9,235	333,488	157,439
124,093	-9,324	333,287	157,229
125,108	-9,222	333,063	157,224
126,122	-9,483	332,740	156,765
127,137	-9,444	332,579	156,719
128,151	-9,247	332,164	156,730
129,166	-9,281	331,988	156,595
130,181	-9,461	331,797	156,288
131,195	-9,284	331,298	156,239
132,210	-9,192	331,181	156,273
133,224	-9,185	330,990	156,175
134,239	-9,265	330,765	155,966
135,254	-9,183	330,555	155,945
136,268	-9,099	330,292	155,900
137,283	-9,242	329,994	155,586
138,297	-9,560	330,044	155,242
139,312	-9,357	329,483	155,190
140,327	-9,164	329,493	155,395
141,341	-9,122	329,290	155,333
142,356	-9,012	328,946	155,278
143,370	-9,015	328,770	155,179
144,385	-9,009	328,475	155,033
145,400	-9,205	328,349	154,741
146,414	-9,190	327,983	154,572
147,429	-9,120	327,747	154,524
148,443	-9,047	327,528	154,488
149,458	-9,136	327,293	154,265
150,473	-9,052	327,014	154,213
151,487	-9,055	326,816	154,102
152,502	-9,143	326,677	153,926
153,516	-8,984	326,404	153,959
154,531	-9,023	326,092	153,755
155,546	-9,169	326,004	153,539
156,560	-9,121	325,742	153,455
157,575	-9,253	325,377	153,124
158,589	-9,239	325,139	153,014
159,604	-9,088	324,943	153,074
160,619	-9,054	324,667	152,967
161,633	-9,067	324,706	152,958
162,648	-9,052	324,451	152,841
163,662	-9,152	324,155	152,578
164,677	-9,036	323,792	152,520
165,692	-9,011	323,695	152,488
166,706	-8,941	323,415	152,419
167,721	-8,918	323,312	152,382
168,735	-8,836	323,002	152,312
169,750	-8,997	322,791	152,023
170,764	-9,132	322,811	151,872
171,779	-8,911	322,505	151,954
172,794	-9,089	322,359	151,680
173,808	-8,995	321,965	151,582
174,823	-9,340	321,793	151,113
175,837	-9,293	321,555	151,040
176,852	-9,142	321,359	151,097
177,867	-8,910	321,104	151,215
178,881	-8,984	320,898	151,024
179,896	-8,980	320,712	150,927
180,910	-8,995	320,454	150,777
181,925	-9,044	320,291	150,634
182,940	-8,935	320,115	150,655
183,954	-8,987	319,891	150,481
184,969	-8,996	319,688	150,361
185,983	-9,032	319,567	150,252
186,998	-8,886	319,201	150,224
188,013	-9,008	318,983	149,977
189,027	-9,020	318,821	149,874
190,042	-8,924	318,719	149,916
191,056	-8,869	318,335	149,781
192,071	-8,963	318,123	149,568
193,086	-8,770	318,062	149,731
194,100	-8,870	317,689	149,436
195,115	-8,898	317,407	149,260
196,129	-8,900	317,090	149,096
197,144	-8,986	317,055	148,974
198,159	-8,891	316,799	148,941
199,173	-8,864	316,493	148,813
200,188	-8,877	316,327	148,708
201,202	-8,878	315,921	148,503
202,217	-9,095	315,684	148,148
203,232	-9,063	315,518	148,091
204,246	-9,136	315,369	147,930
205,261	-8,988	315,103	147,949
206,275	-8,920	314,914	147,919
207,290	-8,911	314,658	147,796
208,304	-9,028	314,619	147,640
209,319	-8,838	314,232	147,645
210,334	-8,980	314,051	147,398
211,348	-8,965	313,905	147,332
212,363	-8,815	313,567	147,318
213,377	-8,807	313,409	147,240
214,392	-8,844	313,247	147,112
215,407	-9,092	313,112	146,774
216,421	-9,274	313,022	146,527
217,436	-9,141	312,802	146,551
218,450	-9,098	312,363	146,377
219,465	-9,054	312,114	146,294
220,480	-9,009	311,899	146,227
221,494	-8,903	311,750	146,255
222,509	-9,165	311,695	145,943
223,523	-8,962	311,406	146,005
224,538	-8,813	311,126	146,017
225,553	-8,886	311,096	145,914
226,567	-9,023	310,975	145,701
227,582	-8,784	310,646	145,783
228,596	-8,680	310,424	145,773
229,611	-8,736	310,355	145,670
230,626	-8,865	310,087	145,397
231,640	-8,935	309,655	145,109
232,655	-9,219	309,576	144,765
233,669	-9,054	309,228	144,760
234,684	-9,222	309,166	144,544
235,699	-9,166	308,867	144,449
236,713	-9,158	308,848	144,435
237,728	-8,865	308,460	144,544
238,742	-9,084	308,386	144,271
239,757	-8,929	308,141	144,303
240,772	-8,931	307,849	144,151
241,786	-8,871	307,699	144,130
242,801	-9,103	307,611	143,837
243,815	-9,131	307,336	143,666
244,830	-9,003	307,200	143,722
245,844	-8,946	306,834	143,596
246,859	-9,024	306,649	143,417
247,874	-8,973	306,354	143,318
248,888	-9,094	306,419	143,213
249,903	-8,865	306,288	143,373
250,917	-8,918	306,140	143,236
251,932	-8,680	305,842	143,328
252,947	-7,973	306,001	144,113
253,961	-7,382	306,140	144,770
254,976	-7,063	305,866	144,954
255,990	-7,489	305,472	144,319
257,005	-6,422	306,263	145,771
258,020	-2,253	307,703	150,723
259,034	-0,510	308,067	152,676
260,049	-0,174	308,160	153,054
261,063	0,107	308,093	153,295
262,078	0,587	308,053	153,753
263,093	0,746	307,833	153,791
264,107	0,863	307,788	153,875
265,122	0,895	307,540	153,770
266,136	0,868	307,429	153,674
267,151	0,965	307,229	153,659
268,166	1,094	306,977	153,651
269,180	0,942	306,981	153,483
270,195	0,946	306,572	153,270
271,209	1,013	306,566	153,321
272,224	1,087	306,335	153,267
273,239	0,934	306,229	153,045
274,253	1,191	305,924	153,140
275,268	1,030	305,816	152,909
276,282	1,110	305,592	152,865
277,297	0,943	305,286	152,529
278,312	0,990	305,146	152,492
279,326	0,960	304,937	152,344
280,341	1,113	304,643	152,338
281,355	0,912	304,514	152,057
282,370	1,069	304,303	152,097
283,384	0,873	304,187	151,827
284,399	0,993	303,969	151,826
285,414	0,835	303,780	151,559
286,428	1,125	303,415	151,655
287,443	0,899	303,342	151,378
288,457	1,062	303,075	151,394
289,472	1,006	302,823	151,199
290,487	1,062	302,516	151,088
291,501	0,791	302,555	150,822
292,516	0,774	302,433	150,731
293,530	0,867	302,197	150,693
294,545	0,898	302,049	150,637
295,560	0,892	301,765	150,477
296,574	0,843	301,468	150,266
297,589	0,855	301,289	150,175
298,603	0,928	301,105	150,142
299,618	0,772	300,915	149,879
300,633	0,874	300,791	149,906
301,647	0,952	300,556	149,853
302,662	0,961	300,417	149,779
303,676	0,871	300,189	149,562
304,691	0,842	299,982	149,418
305,706	0,770	299,680	149,182
306,720	0,860	299,547	149,192
307,735	0,938	299,314	149,140
308,749	0,867	299,302	149,051
309,764	1,042	298,977	149,048
310,779	1,154	298,631	148,973
311,793	0,776	298,559	148,550
312,808	0,885	298,451	148,591
313,822	0,995	298,041	148,482
314,837	0,871	298,025	148,339
315,852	0,809	297,786	148,145
316,866	0,944	297,703	148,224
317,881	0,935	297,367	148,035
318,895	0,949	297,184	147,944
319,910	0,904	296,990	147,789
320,925	0,954	296,935	147,798
321,939	0,833	296,637	147,518
322,954	1,136	296,490	147,729
323,968	0,928	296,384	147,459
324,983	0,917	296,219	147,353
325,997	0,932	295,852	147,173
327,012	0,931	295,755	147,110
328,027	1,034	295,464	147,053
329,041	0,862	295,346	146,812
330,056	0,982	295,227	146,858
331,070	1,030	294,897	146,727
332,085	1,016	294,814	146,660
333,100	1,016	294,522	146,501
334,114	0,972	294,400	146,385
335,129	0,891	294,178	146,182
336,143	1,002	293,987	146,183
337,158	0,847	293,877	145,964
338,173	1,124	293,572	146,068
339,187	1,072	293,459	145,948
340,202	0,975	293,298	145,762
341,216	1,080	293,062	145,732
342,231	1,015	292,911	145,582
343,246	1,052	292,604	145,452
344,260	1,192	292,494	145,520
345,275	1,204	292,263	145,403
346,289	1,090	292,170	145,233
347,304	1,100	292,122	145,207
348,319	1,180	291,846	145,134
349,333	1,247	291,742	145,133
350,348	1,174	291,452	144,906
351,362	1,254	291,268	144,878
352,377	1,263	291,136	144,808
353,392	1,230	290,911	144,652
354,406	1,137	290,737	144,464
355,421	192,814	1324,187	1390,922
356,435	156,433	1450,042	1390,892
