DTS Sentinel unit serial number:	SN410029Multiplexer serial number:	ORYXHardware model number:	OX2-SRSoftware version number:	ORYX F/W v4,00 Oryx Data Collector v3.7.2.0data status	okinstallation	B4 Nyhavnadifferential loss correction	single-endedforward channel	channel 2reverse channel	N/Adate	2023/12/19time	08:50:13forward acquisition time	300,00reverse acquisition time	0,00gamma	499,1914k internal	0,3127k external	0,3127temperature offset calibration	1,0000default loss term (dB/km)	0,3820temperature slope calibration	1,0000multiplexer offset coefficient	1,0000multiplexer slope coefficient	1,0000fibre end	0,00T internal ref (°C)	20,68T ext. ref 1 (°C)	5,36T ext. ref 2 (°C)	5,36length (m)	temperature (°C)	Stokes	anti-Stokes-744,400	-96,385	-0,036	-0,007
-743,385	800,000	0,042	0,135
-742,371	-200,000	0,008	-0,104
-741,356	31,146	-0,158	0,101
-740,342	-136,960	0,064	-0,005
-739,327	51,443	-0,237	0,168
-738,312	450,263	-0,058	-0,096
-737,298	-20,030	-0,328	0,150
-736,283	800,000	0,039	-0,101
-735,269	-128,870	-0,120	0,012
-734,254	800,000	0,053	-0,156
-733,239	-154,537	-0,360	0,018
-732,225	322,888	0,053	0,075
-731,210	800,000	0,015	0,034
-730,196	-100,674	0,038	0,007
-729,181	-62,719	-0,055	0,017
-728,167	365,411	-0,041	-0,061
-727,152	-200,000	-0,024	-0,097
-726,137	284,818	-0,035	-0,047
-725,123	76,595	-0,058	-0,046
-724,108	115,054	-0,071	-0,064
-723,094	18,088	-0,064	-0,038
-722,079	-200,000	-0,005	-0,092
-721,064	800,000	-0,047	0,130
-720,050	24,843	-0,040	0,025
-719,035	-89,654	-0,042	-0,009
-718,021	-87,915	0,034	-0,007
-717,006	-83,934	-0,261	-0,061
-715,991	-200,000	-0,008	-0,140
-714,977	56,743	-0,102	-0,074
-713,962	183,312	-0,097	-0,106
-712,948	800,000	0,016	-0,035
-711,933	94,731	-0,063	-0,053
-710,918	-200,000	0,018	-0,115
-709,904	3,166	-0,146	-0,079
-708,889	800,000	-0,037	-0,105
-707,875	-200,000	-0,024	0,147
-706,860	550,998	0,052	0,093
-705,845	-200,000	-0,001	-0,106
-704,831	526,630	-0,030	-0,052
-703,816	-23,718	-0,189	0,084
-702,802	-102,576	-0,017	-0,003
-701,787	-30,923	-0,052	-0,022
-700,772	37,329	-0,017	-0,011
-699,758	-48,314	-0,042	-0,015
-698,743	221,503	0,080	-0,095
-697,729	-129,456	-0,066	-0,007
-696,714	-200,000	0,012	0,044
-695,699	-200,000	-0,032	-0,127
-694,685	-200,000	-0,020	-0,200
-693,670	740,237	-0,068	-0,137
-692,656	-90,075	-0,058	0,012
-691,641	-20,448	-0,104	0,047
-690,627	262,139	-0,058	0,075
-689,612	800,000	0,042	-0,096
-688,597	-177,191	0,054	0,001
-687,583	-200,000	-0,009	-0,044
-686,568	-79,590	-0,053	-0,013
-685,554	800,000	-0,030	-0,086
-684,539	671,780	-0,013	-0,026
-683,524	-98,930	-0,092	0,017
-682,510	379,595	0,066	0,101
-681,495	-82,504	-0,087	0,021
-680,481	-163,639	0,041	-0,001
-679,466	51,239	-0,126	-0,089
-678,451	132,442	0,094	0,090
-677,437	-200,000	-0,023	0,110
-676,422	-119,012	-0,061	-0,008
-675,408	54,956	0,073	-0,052
-674,393	209,802	-0,115	0,134
-673,378	550,331	-0,091	-0,163
-672,364	-200,000	0,005	-0,021
-671,349	-84,790	-0,118	0,027
-670,335	170,010	0,072	-0,077
-669,320	6,686	-0,096	0,053
-668,305	-200,000	-0,064	-0,000
-667,291	42,645	-0,094	0,063
-666,276	800,000	0,024	0,059
-665,262	119,358	-0,124	-0,114
-664,247	-200,000	0,003	0,018
-663,232	-149,251	-0,109	-0,006
-662,218	-146,043	0,087	0,006
-661,203	66,563	0,093	0,070
-660,189	-200,000	0,027	0,106
-659,174	-166,375	-0,060	-0,002
-658,159	-92,742	0,020	0,004
-657,145	302,753	-0,073	-0,101
-656,130	800,000	0,027	0,077
-655,116	-8,012	0,060	0,030
-654,101	-70,523	-0,078	-0,022
-653,086	-200,000	-0,010	0,090
-652,072	131,016	-0,073	0,069
-651,057	-200,000	-0,020	0,128
-650,043	80,659	-0,014	-0,011
-649,028	28,098	-0,154	-0,096
-648,014	26,616	0,117	-0,073
-646,999	73,480	0,089	-0,069
-645,984	384,413	-0,018	0,028
-644,970	478,186	-0,056	-0,094
-643,955	233,181	0,052	-0,063
-642,941	47,580	-0,092	-0,064
-641,926	729,857	-0,105	-0,210
-640,911	217,216	0,089	0,106
-639,897	-200,000	-0,014	-0,213
-638,882	-128,439	-0,181	0,019
-637,868	767,949	0,028	-0,058
-636,853	608,722	-0,069	-0,128
-635,838	-200,000	0,064	-0,000
-634,824	369,652	0,084	-0,126
-633,809	-108,915	0,199	0,031
-632,795	-200,000	0,015	0,090
-631,780	709,516	-0,089	-0,175
-630,765	253,425	-0,050	-0,063
-629,751	-94,060	-0,035	-0,007
-628,736	313,054	0,055	-0,077
-627,722	-2,531	0,057	0,029
-626,707	800,000	-0,013	-0,030
-625,692	698,058	0,060	0,117
-624,678	53,815	0,054	0,038
-623,663	-200,000	0,022	0,101
-622,649	-200,000	-0,008	0,055
-621,634	219,308	0,039	0,047
-620,619	147,773	-0,101	0,101
-619,605	-200,000	-0,034	0,113
-618,590	-200,000	0,034	-0,173
-617,576	66,249	-0,044	-0,033
-616,561	-200,000	0,001	0,059
-615,546	-200,000	-0,018	-0,166
-614,532	800,000	-0,032	-0,097
-613,517	357,445	0,036	-0,053
-612,503	-26,667	0,041	0,018
-611,488	-68,542	0,086	0,025
-610,474	-114,712	-0,103	-0,014
-609,459	-99,316	0,024	0,004
-608,444	800,000	0,038	0,097
-607,430	21,216	-0,091	-0,054
-606,415	-200,000	0,009	-0,064
-605,401	23,897	0,154	-0,094
-604,386	-162,310	0,075	-0,003
-603,371	197,389	-0,008	0,009
-602,357	188,232	-0,085	-0,094
-601,342	800,000	0,066	-0,159
-600,328	15,963	-0,067	-0,039
-599,313	165,004	-0,032	-0,034
-598,298	30,100	0,134	-0,084
-597,284	-101,991	-0,062	0,011
-596,269	-33,230	0,101	-0,041
-595,255	-200,000	-0,024	0,094
-594,240	800,000	-0,040	-0,084
-593,225	21,926	-0,048	-0,029
-592,211	87,570	0,060	0,049
-591,196	175,783	0,025	-0,026
-590,182	-200,000	0,018	-0,071
-589,167	148,415	0,018	-0,018
-588,152	800,000	0,042	-0,128
-587,138	-200,000	0,009	-0,116
-586,123	800,000	0,040	-0,118
-585,109	257,914	-0,107	-0,137
-584,094	800,000	-0,002	-0,006
-583,079	-200,000	0,014	0,056
-582,065	86,526	0,046	0,037
-581,050	137,202	0,103	0,100
-580,036	750,983	-0,018	-0,036
-579,021	168,807	-0,018	0,018
-578,006	37,273	0,091	-0,059
-576,992	368,381	-0,045	0,068
-575,977	-157,352	0,128	-0,006
-574,963	-21,639	0,074	-0,033
-573,948	-200,000	0,023	0,115
-572,934	-200,000	0,002	-0,124
-571,919	800,000	-0,010	-0,027
-570,904	-77,566	-0,103	-0,026
-569,890	487,668	-0,028	0,047
-568,875	230,393	0,101	-0,122
-567,861	435,445	-0,091	-0,147
-566,846	410,073	0,023	0,037
-565,831	276,026	-0,068	-0,089
-564,817	65,459	0,064	-0,048
-563,802	429,872	-0,042	0,067
-562,788	800,000	-0,012	-0,029
-561,773	-46,675	-0,159	0,057
-560,758	105,673	0,083	0,072
-559,744	457,462	0,044	0,072
-558,729	271,766	0,072	-0,094
-557,715	-22,658	-0,141	-0,063
-556,700	-44,316	-0,087	0,032
-555,685	-163,349	-0,022	0,001
-554,671	670,082	-0,016	-0,030
-553,656	-136,140	0,121	0,010
-552,642	27,662	0,086	-0,054
-551,627	-200,000	-0,007	-0,084
-550,612	-9,799	0,015	0,007
-549,598	-200,000	-0,017	-0,122
-548,583	-169,281	-0,113	-0,003
-547,569	95,660	-0,051	0,043
-546,554	405,757	0,054	0,084
-545,539	121,149	0,021	-0,019
-544,525	-101,640	-0,217	0,038
-543,510	51,214	0,056	0,039
-542,496	-200,000	-0,011	-0,181
-541,481	6,622	0,090	0,049
-540,466	800,000	0,074	0,180
-539,452	800,000	0,028	-0,067
-538,437	-53,317	0,036	0,012
-537,423	-6,336	-0,134	0,067
-536,408	-15,810	0,029	-0,014
-535,393	55,120	-0,048	-0,034
-534,379	442,666	-0,089	-0,144
-533,364	161,547	0,058	0,060
-532,350	-200,000	-0,011	0,130
-531,335	-200,000	-0,002	0,042
-530,321	-118,410	-0,065	0,008
-529,306	307,063	0,043	-0,059
-528,291	-200,000	-0,041	-0,136
-527,277	7,730	-0,058	-0,032
-526,262	-200,000	0,007	-0,071
-525,248	149,628	0,060	0,060
-524,233	319,881	0,080	0,112
-523,218	800,000	-0,075	-0,155
-522,204	-92,951	-0,034	-0,007
-521,189	-200,000	-0,016	0,077
-520,175	-159,501	-0,150	-0,006
-519,160	-200,000	-0,002	-0,077
-518,145	794,892	0,026	-0,053
-517,131	-130,030	0,040	-0,004
-516,116	-200,000	-0,023	0,092
-515,102	182,011	0,123	0,134
-514,087	112,022	-0,098	-0,087
-513,072	-200,000	-0,001	-0,129
-512,058	48,195	0,065	0,045
-511,043	-92,220	0,119	0,025
-510,029	-200,000	-0,007	0,057
-509,014	-41,267	0,057	-0,022
-507,999	-200,000	0,026	-0,120
-506,985	-65,899	0,048	0,014
-505,970	325,204	-0,078	-0,111
-504,956	-51,938	-0,163	-0,056
-503,941	-104,276	0,101	-0,017
-502,926	199,890	0,049	0,055
-501,912	-33,301	-0,032	-0,013
-500,897	77,443	-0,124	-0,097
-499,883	-200,000	-0,036	-0,125
-498,868	532,178	-0,054	-0,095
-497,853	-116,327	0,048	-0,006
-496,839	-200,000	0,003	0,022
-495,824	-200,000	0,004	0,135
-494,810	800,000	0,022	0,051
-493,795	800,000	-0,015	-0,043
-492,781	273,438	0,088	-0,115
-491,766	800,000	0,033	0,069
-490,751	800,000	-0,035	-0,101
-489,737	-200,000	-0,009	-0,058
-488,722	138,047	0,174	0,168
-487,708	-200,000	0,008	0,045
-486,693	-44,563	-0,103	-0,038
-485,678	585,806	0,024	-0,044
-484,664	-143,764	-0,124	-0,009
-483,649	-12,153	-0,023	-0,011
-482,635	-200,000	-0,026	0,121
-481,620	20,562	-0,068	0,040
-480,605	-200,000	0,027	0,111
-479,591	344,977	0,059	0,086
-478,576	70,650	0,109	0,083
-477,562	111,083	0,080	-0,071
-476,547	-120,385	-0,123	-0,015
-475,532	-144,608	0,137	0,009
-474,518	76,842	-0,059	0,046
-473,503	-36,307	0,148	-0,058
-472,489	800,000	0,051	0,141
-471,474	-200,000	0,000	-0,040
-470,459	-133,991	0,038	0,003
-469,445	234,105	0,054	0,065
-468,430	70,184	-0,109	-0,083
-467,416	-171,968	0,134	0,003
-466,401	-88,488	0,159	-0,035
-465,386	87,150	-0,055	-0,044
-464,372	-114,022	-0,090	-0,013
-463,357	800,000	0,062	0,134
-462,343	-159,314	-0,144	0,006
-461,328	120,058	0,111	0,101
-460,313	-72,573	0,053	0,014
-459,299	454,230	-0,084	0,138
-458,284	-52,637	0,057	0,019
-457,270	-200,000	0,000	-0,028
-456,255	6,636	-0,042	-0,023
-455,241	-200,000	-0,009	-0,036
-454,226	800,000	0,014	0,036
-453,211	-200,000	-0,012	0,096
-452,197	25,122	0,027	0,017
-451,182	-200,000	-0,010	0,156
-450,168	-122,423	0,053	-0,006
-449,153	206,670	0,021	0,024
-448,138	800,000	-0,005	-0,013
-447,124	143,881	-0,066	-0,064
-446,109	597,604	-0,003	-0,006
-445,095	-57,459	0,026	0,008
-444,080	6,813	0,077	0,042
-443,065	182,567	0,080	0,087
-442,051	-200,000	-0,001	-0,152
-441,036	-40,319	0,063	-0,024
-440,022	-83,071	-0,115	0,027
-439,007	67,539	-0,008	0,006
-437,992	-200,000	-0,013	0,069
-436,978	-145,585	0,177	0,011
-435,963	-200,000	0,003	0,048
-434,949	-200,000	0,021	0,100
-433,934	438,599	-0,033	-0,053
-432,919	-200,000	0,004	0,032
-431,905	766,820	-0,078	0,156
-430,890	-200,000	0,010	0,040
-429,876	321,884	-0,056	0,079
-428,861	-49,503	-0,073	-0,025
-427,846	-200,000	0,003	0,107
-426,832	388,885	0,058	0,088
-425,817	121,517	-0,054	0,049
-424,803	325,674	-0,033	0,046
-423,788	800,000	0,008	-0,020
-422,773	-36,119	0,081	-0,032
-421,759	402,650	0,027	-0,042
-420,744	101,288	0,013	-0,012
-419,730	-165,929	-0,056	-0,002
-418,715	-117,186	0,104	-0,014
-417,701	-11,590	0,016	0,008
-416,686	-0,167	-0,069	0,036
-415,671	65,068	0,135	-0,100
-414,657	-78,540	0,042	0,010
-413,642	275,216	0,019	0,024
-412,628	800,000	0,058	-0,135
-411,613	41,068	-0,087	-0,057
-410,598	129,842	-0,011	0,010
-409,584	-18,014	0,125	0,057
-408,569	-145,619	-0,067	0,004
-407,555	152,244	-0,043	0,043
-406,540	800,000	0,052	-0,132
-405,525	-200,000	-0,037	0,123
-404,511	386,915	-0,049	-0,075
-403,496	-200,000	-0,008	-0,065
-402,482	166,804	-0,100	-0,104
-401,467	91,192	0,064	-0,053
-400,452	114,138	-0,046	-0,041
-399,438	28,486	0,120	0,074
-398,423	-200,000	0,016	-0,085
-397,409	-200,000	-0,005	0,057
-396,394	31,992	0,022	-0,014
-395,379	-112,188	-0,026	-0,004
-394,365	-81,569	-0,132	-0,032
-393,350	-66,412	0,083	0,024
-392,336	363,899	-0,066	0,097
-391,321	-88,227	-0,105	0,023
-390,306	52,363	0,034	-0,024
-389,292	-72,963	-0,220	0,059
-388,277	-200,000	0,018	0,230
-387,263	33,803	-0,044	0,028
-386,248	-117,457	-0,037	-0,005
-385,233	-76,320	0,058	0,015
-384,219	-54,693	-0,076	-0,025
-383,204	-11,989	-0,097	-0,047
-382,190	-16,266	0,062	-0,029
-381,175	-186,663	-0,106	0,001
-380,160	460,886	0,076	0,125
-379,146	603,374	-0,039	-0,071
-378,131	-181,079	0,060	-0,001
-377,117	-200,000	-0,000	-0,125
-376,102	-160,138	-0,155	0,006
-375,088	441,552	0,097	-0,156
-374,073	-200,000	-0,011	-0,065
-373,058	-200,000	0,002	0,109
-372,044	161,338	0,097	0,099
-371,029	254,525	0,032	0,040
-370,015	-159,987	0,206	-0,008
-369,000	105,205	0,004	0,004
-367,985	233,064	-0,018	0,022
-366,971	-96,416	-0,127	0,025
-365,956	55,325	-0,043	0,030
-364,942	800,000	0,053	-0,113
-363,927	400,308	0,095	-0,146
-362,912	135,796	-0,099	0,094
-361,898	-200,000	0,023	0,125
-360,883	132,013	-0,020	-0,019
-359,869	-148,248	-0,151	0,009
-358,854	104,688	0,064	0,055
-357,839	-55,563	0,083	0,027
-356,825	-42,730	0,116	0,043
-355,810	-200,000	0,014	0,053
-354,796	800,000	-0,032	-0,078
-353,781	-67,972	-0,167	0,047
-352,766	-192,667	0,034	-0,000
-351,752	-63,247	0,026	-0,008
-350,737	-78,797	0,219	-0,054
-349,723	-13,331	-0,103	0,049
-348,708	-200,000	-0,001	0,029
-347,693	-53,388	-0,139	0,046
-346,679	-125,887	-0,087	0,009
-345,664	-37,821	-0,210	-0,081
-344,650	-200,000	-0,001	-0,128
-343,635	-59,073	0,161	-0,051
-342,620	-8,873	0,060	0,029
-341,606	-200,000	-0,017	-0,216
-340,591	-19,568	0,106	-0,048
-339,577	800,000	-0,058	-0,145
-338,562	288,894	0,010	-0,013
-337,548	12,666	-0,072	-0,041
-336,533	-200,000	-0,009	-0,063
-335,518	315,050	0,048	-0,066
-334,504	-200,000	-0,027	-0,142
-333,489	-38,342	-0,052	-0,020
-332,475	99,258	0,066	-0,056
-331,460	106,434	-0,012	-0,011
-330,445	-200,000	-0,016	-0,134
-329,431	-81,402	0,133	-0,032
-328,416	800,000	0,060	0,155
-327,402	195,918	-0,109	-0,122
-326,387	-98,486	0,052	-0,010
-325,372	-200,000	0,006	-0,047
-324,358	-200,000	0,002	0,074
-323,343	-200,000	-0,037	0,124
-322,329	262,755	0,078	-0,099
-321,314	82,755	0,080	0,063
-320,299	-200,000	-0,026	0,104
-319,285	185,576	0,032	-0,034
-318,270	-51,349	-0,088	-0,030
-317,256	-56,291	-0,089	-0,029
-316,241	-68,852	0,017	-0,005
-315,226	-10,468	0,075	-0,036
-314,212	-200,000	0,027	0,094
-313,197	229,317	-0,097	-0,116
-312,183	800,000	-0,014	-0,029
-311,168	-3,987	-0,111	0,056
-310,153	800,000	-0,027	-0,068
-309,139	-200,000	-0,009	-0,094
-308,124	-200,000	0,001	0,064
-307,110	-200,000	0,043	0,200
-306,095	-41,876	0,059	-0,022
-305,080	800,000	-0,008	0,024
-304,066	13,522	-0,072	-0,041
-303,051	-200,000	-0,047	-0,153
-302,037	-53,546	0,047	0,016
-301,022	-200,000	0,000	0,044
-300,008	-73,131	-0,038	-0,010
-298,993	800,000	0,016	0,045
-297,978	-118,487	-0,060	0,008
-296,964	800,000	0,044	0,109
-295,949	-75,977	-0,126	0,032
-294,935	501,975	0,090	0,153
-293,920	580,996	-0,078	0,140
-292,905	336,049	-0,083	0,118
-291,891	53,966	0,110	0,078
-290,876	800,000	0,021	0,061
-289,862	55,982	0,098	-0,069
-288,847	-80,458	-0,238	-0,058
-287,832	76,886	0,069	-0,054
-286,818	-200,000	-0,011	0,086
-285,803	-45,493	0,090	-0,033
-284,789	-1,607	-0,040	0,021
-283,774	313,972	-0,099	0,137
-282,759	299,090	-0,100	0,136
-281,745	-129,711	-0,087	0,009
-280,730	-143,266	-0,044	0,003
-279,716	-66,116	0,094	-0,027
-278,701	87,095	-0,093	0,075
-277,686	800,000	-0,050	-0,133
-276,672	-200,000	-0,013	-0,121
-275,657	800,000	0,048	-0,099
-274,643	-200,000	-0,016	0,101
-273,628	-37,290	0,045	0,017
-272,613	-170,039	0,038	-0,001
-271,599	-86,957	-0,070	0,015
-270,584	-200,000	-0,004	0,091
-269,570	-200,000	-0,024	0,102
-268,555	8,208	-0,103	0,056
-267,540	-31,778	-0,091	-0,037
-266,526	144,013	-0,092	-0,089
-265,511	268,906	0,067	0,086
-264,497	-200,000	-0,004	0,135
-263,482	-93,515	0,119	-0,024
-262,467	208,911	0,068	0,078
-261,453	800,000	0,054	0,119
-260,438	800,000	0,005	-0,014
-259,424	310,825	0,038	-0,053
-258,409	800,000	0,066	-0,196
-257,395	709,050	-0,007	-0,014
-256,380	-200,000	0,001	0,104
-255,365	174,211	-0,035	-0,037
-254,351	61,535	0,079	0,058
-253,336	156,304	-0,070	-0,071
-252,322	186,689	0,120	-0,131
-251,307	-119,913	-0,122	0,015
-250,292	690,317	0,049	0,094
-249,278	160,479	0,134	0,136
-248,263	-200,000	0,013	0,104
-247,249	-52,739	-0,018	-0,006
-246,234	277,565	-0,066	-0,086
-245,219	-200,000	0,012	-0,054
-244,205	-124,368	-0,159	0,018
-243,190	555,099	0,104	0,184
-242,176	-18,361	0,105	-0,048
-241,161	627,068	0,028	0,052
-240,146	595,250	0,028	0,050
-239,132	180,294	-0,020	-0,022
-238,117	164,355	-0,044	0,045
-237,103	-200,000	-0,013	-0,069
-236,088	-200,000	-0,005	0,125
-235,073	800,000	0,061	0,144
-234,059	-16,672	0,063	0,029
-233,044	-54,495	-0,063	-0,021
-232,030	-7,207	0,032	-0,016
-231,015	155,113	0,035	0,035
-230,000	-200,000	0,036	-0,243
-228,986	20,823	-0,101	-0,060
-227,971	-131,629	-0,115	-0,011
-226,957	72,200	-0,042	0,032
-225,942	-200,000	0,017	0,120
-224,927	800,000	-0,018	-0,056
-223,913	800,000	-0,066	-0,136
-222,898	-37,185	0,090	0,035
-221,884	-200,000	0,008	0,125
-220,869	-200,000	0,009	0,040
-219,855	234,306	0,105	0,127
-218,840	-35,946	-0,040	0,016
-217,825	-200,000	0,004	-0,088
-216,811	-107,402	-0,027	0,004
-215,796	800,000	0,027	-0,062
-214,782	-200,000	-0,009	0,139
-213,767	-169,020	-0,056	-0,002
-212,752	232,086	0,073	0,088
-211,738	800,000	-0,045	-0,111
-210,723	-200,000	-0,033	0,138
-209,709	800,000	-0,028	-0,065
-208,694	-26,009	0,187	-0,080
-207,679	700,720	0,006	-0,011
-206,665	-200,000	0,017	-0,073
-205,650	-200,000	-0,011	0,086
-204,636	-200,000	0,013	0,105
-203,621	-20,272	-0,062	0,028
-202,606	9,842	-0,118	0,065
-201,592	-8,062	0,042	-0,021
-200,577	800,000	0,008	-0,015
-199,563	350,390	0,002	-0,003
-198,548	800,000	0,033	0,085
-197,533	-99,959	0,146	-0,026
-196,519	311,220	-0,028	0,039
-195,504	-200,000	-0,030	0,211
-194,490	-200,000	0,000	-0,012
-193,475	230,059	-0,044	0,052
-192,460	800,000	0,023	0,049
-191,446	-78,300	0,100	0,025
-190,431	136,928	-0,046	-0,044
-189,417	-200,000	0,007	-0,095
-188,402	291,150	0,056	0,074
-187,387	142,161	0,081	0,078
-186,373	325,968	-0,024	0,034
-185,358	-200,000	-0,011	0,065
-184,344	-200,000	0,019	0,104
-183,329	353,491	-0,043	0,063
-182,315	-3,193	0,024	-0,012
-181,300	123,320	0,060	-0,054
-180,285	-66,882	-0,099	0,028
-179,271	800,000	0,038	-0,081
-178,256	-200,000	-0,007	-0,053
-177,242	800,000	0,027	0,062
-176,227	741,293	0,088	0,173
-175,212	290,938	0,054	0,071
-174,198	-22,177	-0,101	-0,044
-173,183	-106,614	0,155	0,025
-172,169	800,000	-0,002	-0,006
-171,154	218,934	-0,100	-0,117
-170,139	-71,480	0,045	-0,012
-169,125	-200,000	-0,011	0,071
-168,110	-19,213	-0,061	0,028
-167,096	-112,578	-0,223	0,032
-166,081	596,957	-0,079	-0,144
-165,066	-3,847	0,097	0,049
-164,052	-51,557	-0,066	0,022
-163,037	-200,000	-0,006	0,072
-162,023	-82,470	0,105	0,025
-161,008	-200,000	-0,002	0,072
-159,993	-76,937	0,056	-0,014
-158,979	-96,965	-0,130	-0,025
-157,964	-200,000	0,006	-0,090
-156,950	800,000	-0,052	-0,124
-155,935	-16,832	0,139	0,064
-154,920	-108,572	-0,132	0,020
-153,906	-53,563	-0,152	0,050
-152,891	744,727	-0,033	0,065
-151,877	800,000	-0,013	0,039
-150,862	134,388	-0,012	-0,011
-149,847	-32,324	0,050	-0,020
-148,833	87,445	0,071	0,057
-147,818	-200,000	0,013	-0,054
-146,804	-119,238	0,028	0,003
-145,789	-140,198	-0,136	0,010
-144,775	218,830	-0,028	-0,033
-143,760	800,000	0,039	0,085
-142,745	-28,289	-0,177	0,074
-141,731	114,873	0,055	-0,049
-140,716	154,948	0,038	0,038
-139,702	331,827	-0,056	-0,079
-138,687	-95,605	-0,054	-0,010
-137,672	269,983	-0,070	0,089
-136,658	-36,735	-0,020	-0,008
-135,643	800,000	-0,063	-0,182
-134,629	-200,000	-0,042	-0,161
-133,614	-200,000	0,008	-0,056
-132,599	354,197	-0,062	-0,090
-131,585	-51,238	0,058	0,020
-130,570	-59,194	-0,048	-0,015
-129,556	162,960	0,027	0,028
-128,541	-0,509	-0,102	0,053
-127,526	-200,000	0,019	-0,110
-126,512	-200,000	0,000	0,117
-125,497	356,653	0,017	0,024
-124,483	-163,663	-0,061	0,002
-123,468	800,000	0,026	0,058
-122,453	-100,842	0,072	0,013
-121,439	21,296	-0,033	0,019
-120,424	-105,865	-0,015	0,002
-119,410	-200,000	-0,009	0,086
-118,395	490,028	0,018	0,030
-117,380	-66,236	0,044	-0,013
-116,366	757,891	-0,001	-0,002
-115,351	32,354	-0,008	0,005
-114,337	-90,130	-0,081	-0,017
-113,322	9,235	0,044	0,024
-112,307	24,594	0,037	0,022
-111,293	229,951	0,044	0,052
-110,278	-34,831	0,077	0,030
-109,264	-200,000	-0,015	0,152
-108,249	56,478	0,067	-0,047
-107,234	-200,000	0,021	-0,086
-106,220	138,182	-0,105	0,100
-105,205	435,478	0,071	0,113
-104,191	352,832	0,061	-0,088
-103,176	146,665	0,062	0,060
-102,162	-116,094	0,108	-0,014
-101,147	-78,671	0,029	-0,007
-100,132	-200,000	-0,036	0,121
-99,118	-1,646	-0,117	0,060
-98,103	-28,658	0,040	0,017
-97,089	-200,000	0,041	-0,156
-96,074	-83,177	0,055	-0,013
-95,059	222,287	-0,061	-0,072
-94,045	-200,000	0,019	0,116
-93,030	170,507	0,047	0,049
-92,016	529,401	0,039	0,066
-91,001	-29,572	0,192	-0,079
-89,986	80,638	0,096	0,075
-88,972	55,286	0,096	-0,067
-87,957	381,050	-0,091	-0,136
-86,943	86,049	0,054	-0,043
-85,928	-125,260	-0,120	0,013
-84,913	-66,650	0,099	0,028
-83,899	800,000	0,021	0,058
-82,884	27,087	-0,037	0,023
-81,870	355,776	-0,018	0,026
-80,855	13,710	0,047	0,027
-79,840	800,000	-0,031	0,070
-78,826	800,000	0,005	-0,015
-77,811	561,482	0,012	0,021
-76,797	123,103	-0,075	0,068
-75,782	679,236	0,033	0,063
-74,767	370,879	0,049	0,073
-73,753	-25,998	-0,179	0,076
-72,738	800,000	0,017	-0,035
-71,724	30,190	-0,031	-0,019
-70,709	800,000	-0,058	-0,164
-69,694	653,916	0,089	0,166
-68,680	341,377	-0,018	0,026
-67,665	144,323	0,072	-0,070
-66,651	281,344	0,016	-0,021
-65,636	-200,000	-0,009	-0,042
-64,622	95,690	-0,072	0,060
-63,607	-63,624	-0,027	0,008
-62,592	133,462	-0,038	0,035
-61,578	-66,106	0,113	0,032
-60,563	-147,410	-0,052	0,003
-59,549	139,955	0,027	-0,026
-58,534	-120,746	-1,501	-0,182
-57,519	800,000	-0,680	-1,461
-56,505	-200,000	-0,781	-4,328
-55,490	-96,473	0,575	-0,109
-54,476	800,000	5,127	11,727
-53,461	-200,000	14,885	265,050
-52,446	-200,000	698,833	2281,250
-51,432	602,478	1623,819	2937,849
-50,417	120,301	1630,076	1466,425
-49,403	78,913	1283,136	994,334
-48,388	37,765	1021,138	655,888
-47,373	23,106	980,949	581,933
-46,359	22,166	970,186	572,446
-45,344	20,990	965,765	565,977
-44,330	20,895	964,611	564,967
-43,315	20,725	963,013	563,455
-42,300	20,763	961,877	562,892
-41,286	20,748	960,965	562,288
-40,271	20,760	959,898	561,681
-39,257	20,717	959,026	561,007
-38,242	20,744	958,110	560,538
-37,227	20,700	957,483	560,005
-36,213	20,693	956,482	559,376
-35,198	20,645	955,496	558,622
-34,184	20,711	954,870	558,448
-33,169	20,662	953,935	557,720
-32,154	20,709	952,964	557,282
-31,140	20,754	952,114	556,908
-30,125	20,755	951,267	556,391
-29,111	20,738	950,362	555,786
-28,096	20,783	949,694	555,519
-27,082	20,712	949,184	554,969
-26,067	20,681	948,353	554,364
-25,052	20,729	947,463	553,974
-24,038	20,756	946,866	553,688
-23,023	20,697	946,447	553,233
-22,009	20,750	945,453	552,800
-20,994	20,725	945,113	552,499
-19,979	20,749	944,343	552,104
-18,965	20,692	944,026	551,715
-17,950	20,683	943,251	551,212
-16,936	20,652	942,596	550,709
-15,921	20,669	941,775	550,262
-14,906	20,625	941,064	549,684
-13,892	20,620	940,656	549,408
-12,877	20,615	940,001	548,986
-11,863	20,614	939,265	548,531
-10,848	20,539	938,926	548,074
-9,833	20,633	938,289	547,979
-8,819	20,670	937,798	547,789
-7,804	20,597	936,875	546,997
-6,790	20,558	936,510	546,639
-5,775	20,632	936,087	546,603
-4,760	20,640	935,253	546,120
-3,746	20,567	934,666	545,525
-2,731	20,491	933,816	544,767
-1,717	20,410	933,100	544,074
-0,702	20,429	932,549	543,790
0,313	20,255	932,022	543,755
1,327	22,694	929,601	549,955
2,342	29,968	806,219	496,626
3,356	24,254	507,414	302,803
4,371	-0,046	373,481	191,940
5,386	-2,699	356,466	179,924
6,400	-4,001	350,740	175,445
7,415	-4,295	348,104	173,758
8,429	-4,154	346,652	173,186
9,444	-4,366	345,901	172,543
10,459	-4,143	345,106	172,396
11,473	-4,189	344,342	171,944
12,488	-4,126	343,803	171,735
13,502	-4,405	343,326	171,151
14,517	-4,343	342,973	171,033
15,531	-4,027	342,478	171,144
16,546	-4,096	342,052	170,834
17,561	-4,158	341,491	170,466
18,575	-4,143	341,161	170,304
19,590	-3,992	340,877	170,324
20,604	-4,049	340,561	170,085
21,619	-4,067	340,043	169,790
22,634	-3,997	339,722	169,696
23,648	-4,171	339,372	169,302
24,663	-4,140	339,136	169,206
25,677	-4,023	338,747	169,133
26,692	-4,186	338,543	168,826
27,707	-4,116	338,165	168,704
28,721	-4,124	337,807	168,501
29,736	-4,109	337,522	168,362
30,750	-3,933	337,131	168,355
31,765	-4,146	336,943	168,000
32,780	-4,109	336,612	167,862
33,794	-4,122	336,582	167,817
34,809	-4,042	336,032	167,621
35,823	-4,063	335,909	167,521
36,838	-4,083	335,472	167,264
37,853	-4,143	335,279	167,084
38,867	-4,076	334,992	167,004
39,882	-4,085	334,636	166,801
40,896	-4,140	334,383	166,596
41,911	-4,039	334,025	166,519
42,926	-3,996	333,888	166,485
43,940	-4,072	333,510	166,195
44,955	-3,846	333,049	166,208
45,969	-3,931	332,931	166,038
46,984	-3,802	332,720	166,065
47,999	-3,948	332,610	165,829
49,013	-3,955	332,425	165,714
50,028	-3,826	332,107	165,688
51,042	-3,868	331,750	165,446
52,057	-3,996	331,558	165,191
53,071	-3,967	331,431	165,145
54,086	-3,966	331,080	164,957
55,101	-3,990	330,754	164,752
56,115	-4,002	330,450	164,573
57,130	-4,034	330,182	164,388
58,144	-4,170	330,087	164,173
59,159	-4,044	329,617	164,066
60,174	-4,074	329,220	163,821
61,188	-4,114	329,149	163,725
62,203	-4,208	328,995	163,528
63,217	-4,153	328,734	163,447
64,232	-4,037	328,429	163,410
65,247	-4,005	327,907	163,173
66,261	-3,999	327,751	163,087
67,276	-4,006	327,686	163,032
68,290	-4,053	327,436	162,840
69,305	-4,132	327,138	162,589
70,320	-3,923	326,929	162,705
71,334	-4,100	326,611	162,334
72,349	-4,049	326,182	162,164
73,363	-4,067	326,026	162,051
74,378	-4,113	325,731	161,838
75,393	-4,124	325,489	161,692
76,407	-4,071	325,287	161,636
77,422	-4,223	325,164	161,391
78,436	-4,004	324,733	161,407
79,451	-4,044	324,436	161,200
80,466	-4,002	324,219	161,124
81,480	-3,921	323,825	161,004
82,495	-3,889	323,558	160,893
83,509	-4,039	323,628	160,747
84,524	-4,150	323,353	160,473
85,539	-4,002	323,050	160,471
86,553	-4,020	322,835	160,330
87,568	-3,969	322,578	160,245
88,582	-4,022	322,337	160,053
89,597	-3,975	322,013	159,929
90,611	-3,992	321,895	159,838
91,626	-4,009	321,776	159,746
92,641	-4,060	321,416	159,496
93,655	-3,911	321,100	159,489
94,670	-3,983	320,894	159,293
95,684	-4,119	320,632	159,000
96,699	-4,163	320,482	158,864
97,714	-3,979	320,204	158,913
98,728	-3,764	319,785	158,926
99,743	-3,882	319,560	158,671
100,757	-3,994	319,498	158,504
101,772	-3,903	319,165	158,424
102,787	-3,977	318,974	158,234
103,801	-3,912	318,618	158,114
104,816	-3,993	318,585	157,996
105,830	-3,853	318,343	158,013
106,845	-4,055	318,018	157,619
107,860	-3,988	317,830	157,585
108,874	-3,989	317,537	157,424
109,889	-4,220	317,336	157,060
110,903	-4,132	317,170	157,059
111,918	-4,125	316,931	156,935
112,933	-4,084	316,728	156,864
113,947	-4,026	316,452	156,777
114,962	-3,999	316,267	156,699
115,976	-4,084	315,915	156,419
116,991	-4,016	315,845	156,444
118,006	-4,050	315,569	156,257
119,020	-4,004	315,324	156,171
120,035	-4,014	315,161	156,066
121,049	-4,046	314,999	155,937
122,064	-4,094	314,797	155,772
123,079	-3,956	314,505	155,761
124,093	-3,931	314,202	155,624
125,108	-4,039	314,085	155,436
126,122	-3,914	313,908	155,469
127,137	-3,825	313,641	155,418
128,151	-3,965	313,346	155,109
129,166	-3,832	313,124	155,127
130,181	-3,901	312,829	154,893
131,195	-3,756	312,698	154,970
132,210	-3,888	312,250	154,593
133,224	-4,034	312,130	154,364
134,239	-3,828	311,910	154,461
135,254	-3,997	311,669	154,148
136,268	-4,015	311,606	154,084
137,283	-3,909	311,224	153,993
138,297	-3,871	311,055	153,937
139,312	-3,933	310,904	153,783
140,327	-3,970	310,723	153,640
141,341	-4,069	310,409	153,366
142,356	-4,073	310,278	153,285
143,370	-4,085	309,918	153,080
144,385	-3,983	309,691	153,062
145,400	-3,968	309,584	153,011
146,414	-4,053	309,409	152,821
147,429	-4,095	309,085	152,604
148,443	-3,906	308,836	152,665
149,458	-3,929	308,679	152,550
150,473	-4,017	308,436	152,324
151,487	-4,001	308,308	152,264
152,502	-3,955	307,964	152,129
153,516	-4,030	307,717	151,915
154,531	-3,918	307,554	151,938
155,546	-4,062	307,461	151,728
156,560	-4,156	307,174	151,475
157,575	-3,954	306,924	151,548
158,589	-4,066	306,631	151,273
159,604	-3,904	306,354	151,292
160,619	-3,985	306,281	151,159
161,633	-4,140	306,116	150,902
162,648	-3,978	305,964	150,982
163,662	-4,034	305,648	150,754
164,677	-3,951	305,347	150,679
165,692	-3,997	305,303	150,595
166,706	-4,019	305,043	150,431
167,721	-3,928	304,940	150,461
168,735	-3,767	304,573	150,433
169,750	-3,905	304,386	150,185
170,764	-3,951	304,242	150,053
171,779	-4,018	304,126	149,913
172,794	-3,980	303,940	149,847
173,808	-3,976	303,667	149,703
174,823	-3,981	303,493	149,599
175,837	-3,927	303,297	149,545
176,852	-4,028	303,023	149,293
177,867	-4,053	302,819	149,153
178,881	-3,930	302,552	149,134
179,896	-3,947	302,441	149,049
180,910	-4,064	302,314	148,854
181,925	-4,032	302,049	148,743
182,940	-4,056	301,812	148,588
183,954	-3,943	301,549	148,560
184,969	-3,964	301,462	148,483
185,983	-3,884	301,313	148,478
186,998	-3,825	300,954	148,348
188,013	-3,642	300,623	148,359
189,027	-3,798	300,575	148,162
190,042	-3,930	300,370	147,913
191,056	-4,003	300,252	147,768
192,071	-3,908	299,845	147,651
193,086	-4,038	299,612	147,392
194,100	-4,068	299,474	147,280
195,115	-3,894	299,194	147,305
196,129	-3,881	299,029	147,225
197,144	-3,842	298,749	147,113
198,159	-3,884	298,632	147,000
199,173	-4,051	298,466	146,736
200,188	-3,988	298,151	146,632
201,202	-4,134	298,005	146,399
202,217	-3,854	297,788	146,562
203,232	-3,839	297,624	146,483
204,246	-3,929	297,320	146,230
205,261	-3,888	297,133	146,167
206,275	-4,016	296,989	145,953
207,290	-3,829	296,780	146,026
208,304	-3,878	296,600	145,875
209,319	-3,991	296,303	145,603
210,334	-4,068	296,155	145,440
211,348	-3,930	296,038	145,508
212,363	-3,905	295,783	145,395
213,377	-3,948	295,485	145,192
214,392	-3,816	295,336	145,237
215,407	-3,896	295,167	145,062
216,421	-3,979	294,952	144,860
217,436	-3,998	294,744	144,726
218,450	-3,955	294,595	144,683
219,465	-3,984	294,517	144,603
220,480	-4,020	294,208	144,403
221,494	-3,741	294,001	144,565
222,509	-3,833	293,813	144,368
223,523	-3,900	293,613	144,191
224,538	-3,961	293,433	144,029
225,553	-3,997	293,283	143,908
226,567	-3,919	293,038	143,852
227,582	-3,903	292,903	143,788
228,596	-3,965	292,660	143,595
229,611	-3,980	292,339	143,409
230,626	-3,877	292,208	143,434
231,640	-3,995	292,136	143,270
232,655	-3,746	291,881	143,378
233,669	-3,703	291,602	143,270
234,684	-3,819	291,493	143,089
235,699	-3,797	291,327	143,016
236,713	-3,806	291,027	142,847
237,728	-3,744	290,781	142,775
238,742	-3,992	290,746	142,502
239,757	-3,848	290,367	142,445
240,772	-3,842	290,276	142,393
241,786	-3,966	290,042	142,144
242,801	-3,986	290,059	142,121
243,815	-3,875	289,798	142,089
244,830	-3,941	289,596	141,912
245,844	-3,867	289,320	141,837
246,859	-3,893	289,231	141,755
247,874	-4,020	289,088	141,548
248,888	-4,015	288,852	141,425
249,903	-3,884	288,435	141,336
250,917	-3,901	288,405	141,292
251,932	-3,887	288,085	141,136
252,947	-4,299	287,907	140,636
253,961	-4,571	287,503	140,162
254,976	-4,738	287,441	139,958
255,990	-4,338	287,285	140,257
257,005	-3,349	287,734	141,422
258,020	-1,298	288,483	143,771
259,034	0,081	288,766	145,240
260,049	0,719	288,623	145,774
261,063	1,216	288,629	146,245
262,078	1,445	288,583	146,431
263,093	1,524	288,578	146,492
264,107	1,817	288,549	146,749
265,122	2,135	288,357	146,945
266,136	2,139	288,103	146,807
267,151	2,150	288,029	146,767
268,166	2,288	287,905	146,824
269,180	2,323	287,668	146,724
270,195	2,215	287,439	146,489
271,209	2,280	287,165	146,400
272,224	2,132	287,184	146,253
273,239	2,226	286,865	146,168
274,253	2,166	286,646	145,986
275,268	2,192	286,365	145,855
276,282	2,150	286,126	145,680
277,297	1,938	286,046	145,423
278,312	2,077	285,914	145,476
279,326	1,993	285,748	145,298
280,341	2,151	285,569	145,346
281,355	1,975	285,446	145,102
282,370	2,083	285,195	145,064
283,384	1,974	285,075	144,886
284,399	2,116	284,761	144,849
285,414	2,098	284,577	144,725
286,428	1,938	284,645	144,594
287,443	1,973	284,114	144,345
288,457	1,950	284,091	144,299
289,472	1,921	283,854	144,138
290,487	2,003	283,541	144,044
291,501	1,863	283,414	143,833
292,516	1,898	283,205	143,748
293,530	1,828	283,166	143,649
294,545	1,781	282,994	143,504
295,560	2,006	282,748	143,580
296,574	1,929	282,427	143,332
297,589	1,808	282,152	143,064
298,603	1,812	281,957	142,957
299,618	1,923	281,985	143,062
300,633	1,811	281,840	142,871
301,647	1,908	281,698	142,878
302,662	2,056	281,405	142,856
303,676	2,042	281,391	142,822
304,691	2,087	281,256	142,784
305,706	1,893	280,865	142,390
306,720	2,190	280,653	142,549
307,735	2,083	280,730	142,475
308,749	1,952	280,478	142,211
309,764	2,030	280,252	142,157
310,779	2,201	279,919	142,136
311,793	2,017	279,748	141,864
312,808	2,076	279,646	141,855
313,822	2,176	279,316	141,768
314,837	1,974	279,280	141,549
315,852	2,066	279,133	141,547
316,866	2,127	278,838	141,442
317,881	2,144	278,772	141,412
318,895	2,232	278,405	141,295
319,910	2,004	278,410	141,073
320,925	2,126	278,207	141,071
321,939	2,165	277,929	140,953
322,954	2,084	277,833	140,816
323,968	1,983	277,664	140,625
324,983	2,088	277,553	140,654
325,997	2,137	277,281	140,548
327,012	2,249	277,175	140,586
328,027	2,069	277,075	140,356
329,041	2,247	276,761	140,349
330,056	2,228	276,631	140,254
331,070	2,034	276,439	139,964
332,085	2,094	276,236	139,904
333,100	2,214	276,026	139,896
334,114	2,259	275,786	139,803
335,129	2,084	275,684	139,578
336,143	2,232	275,593	139,655
337,158	2,232	275,356	139,523
338,173	2,036	275,234	139,268
339,187	2,223	275,025	139,322
340,202	2,247	274,794	139,215
341,216	2,354	274,520	139,162
342,231	2,169	274,485	138,962
343,246	2,222	274,279	138,894
344,260	2,079	274,097	138,658
345,275	2,320	273,978	138,806
346,289	2,260	273,694	138,595
347,304	2,264	273,580	138,528
348,319	2,284	273,486	138,486
349,333	2,347	273,205	138,390
350,348	2,332	273,056	138,288
351,362	2,173	272,892	138,048
352,377	2,395	272,726	138,153
353,392	2,328	272,563	137,998
354,406	2,389	272,325	137,921
355,421	191,689	1348,041	1427,654
356,435	154,762	1479,193	1427,769
