DTS Sentinel unit serial number:	SN410029Multiplexer serial number:	ORYXHardware model number:	OX2-SRSoftware version number:	ORYX F/W v4,00 Oryx Data Collector v3.7.2.0data status	okinstallation	B4 Nyhavnadifferential loss correction	single-endedforward channel	channel 2reverse channel	N/Adate	2023/12/16time	08:05:13forward acquisition time	300,00reverse acquisition time	0,00gamma	499,1914k internal	0,3127k external	0,3127temperature offset calibration	1,0000default loss term (dB/km)	0,3820temperature slope calibration	1,0000multiplexer offset coefficient	1,0000multiplexer slope coefficient	1,0000fibre end	0,00T internal ref (°C)	22,43T ext. ref 1 (°C)	8,15T ext. ref 2 (°C)	8,30length (m)	temperature (°C)	Stokes	anti-Stokes-744,400	-200,000	0,018	0,090
-743,385	60,224	-0,222	0,163
-742,371	-17,807	0,240	-0,112
-741,356	309,298	-0,142	0,198
-740,342	-109,903	-0,058	0,009
-739,327	-34,016	-0,190	0,077
-738,312	-200,000	-0,034	-0,130
-737,298	104,944	-0,101	0,089
-736,283	-163,307	0,105	-0,004
-735,269	68,827	-0,281	0,214
-734,254	-200,000	0,034	-0,135
-733,239	-46,655	-0,375	-0,136
-732,225	-67,297	0,215	-0,063
-731,210	-200,000	-0,009	0,108
-730,196	84,314	0,082	0,067
-729,181	77,041	0,086	-0,068
-728,167	800,000	-0,008	0,017
-727,152	109,201	-0,044	0,039
-726,137	628,601	-0,061	-0,116
-725,123	-27,417	0,032	-0,014
-724,108	-200,000	-0,037	-0,188
-723,094	-200,000	0,005	-0,142
-722,079	-200,000	0,011	-0,078
-721,064	-142,702	-0,101	-0,007
-720,050	308,496	-0,037	-0,052
-719,035	800,000	0,044	-0,117
-718,021	-200,000	0,032	-0,128
-717,006	155,296	-0,047	0,048
-715,991	79,723	-0,126	-0,100
-714,977	-200,000	0,003	-0,017
-713,962	551,410	-0,052	-0,093
-712,948	800,000	0,034	0,089
-711,933	800,000	-0,022	-0,056
-710,918	-79,474	0,023	-0,006
-709,904	-55,606	-0,086	0,028
-708,889	218,405	-0,041	-0,049
-707,875	-200,000	0,038	-0,157
-706,860	605,258	-0,051	0,094
-705,845	186,498	0,042	0,047
-704,831	-200,000	0,008	-0,038
-703,816	-75,573	0,008	0,002
-702,802	-36,935	-0,057	-0,023
-701,787	-126,056	-0,028	-0,003
-700,772	-200,000	-0,007	-0,036
-699,758	-136,764	-0,083	0,007
-698,743	191,115	0,056	0,062
-697,729	268,270	0,011	0,015
-696,714	800,000	-0,028	-0,066
-695,699	800,000	0,044	-0,117
-694,685	526,053	0,075	-0,132
-693,670	-94,015	-0,053	0,011
-692,656	28,272	0,029	-0,018
-691,641	-200,000	0,004	0,021
-690,627	111,935	0,134	0,120
-689,612	-200,000	0,004	0,095
-688,597	29,109	0,033	0,021
-687,583	489,430	0,137	-0,234
-686,568	-76,457	-0,137	0,035
-685,554	-129,647	-0,073	0,007
-684,539	-200,000	-0,021	-0,112
-683,524	-21,733	0,092	0,041
-682,510	-200,000	0,001	0,116
-681,495	639,932	-0,089	-0,170
-680,481	-200,000	0,022	-0,091
-679,466	-200,000	-0,026	-0,127
-678,451	2,768	-0,206	-0,111
-677,437	800,000	0,022	-0,053
-676,422	-119,317	0,145	0,019
-675,408	-200,000	-0,008	-0,027
-674,393	-82,138	-0,084	-0,020
-673,378	-42,801	0,102	-0,038
-672,364	-15,142	-0,044	0,021
-671,349	96,220	-0,024	-0,021
-670,335	-200,000	0,016	0,068
-669,320	-200,000	-0,024	-0,088
-668,305	-200,000	0,015	-0,066
-667,291	35,682	-0,084	0,055
-666,276	-121,596	-0,189	0,023
-665,262	347,050	-0,091	-0,134
-664,247	800,000	0,012	0,032
-663,232	-94,548	-0,026	-0,005
-662,218	74,187	0,061	-0,048
-661,203	255,789	-0,015	-0,019
-660,189	-56,433	0,081	0,026
-659,174	800,000	-0,076	-0,219
-658,159	-23,875	-0,082	-0,036
-657,145	-3,179	-0,075	-0,039
-656,130	-26,359	-0,082	0,036
-655,116	206,986	0,064	0,074
-654,101	-95,200	-0,087	0,017
-653,086	756,187	-0,011	0,023
-652,072	149,781	-0,009	0,009
-651,057	-200,000	0,015	-0,159
-650,043	-200,000	-0,027	-0,177
-649,028	-200,000	0,002	0,024
-648,014	-200,000	0,016	0,100
-646,999	-200,000	0,013	0,079
-645,984	52,572	-0,041	-0,029
-644,970	109,012	0,038	-0,034
-643,955	800,000	0,034	-0,093
-642,941	-17,063	-0,119	-0,055
-641,926	-138,943	0,073	0,006
-640,911	-68,212	0,067	-0,019
-639,897	-132,104	0,103	0,010
-638,882	740,918	0,053	0,106
-637,868	800,000	0,035	0,096
-636,853	81,146	-0,141	-0,113
-635,838	-200,000	-0,021	-0,227
-634,824	319,752	-0,053	-0,075
-633,809	121,900	-0,051	0,047
-632,795	-101,684	-0,043	-0,008
-631,780	46,390	0,041	0,028
-630,765	-200,000	-0,004	-0,068
-629,751	-200,000	0,003	0,043
-628,736	64,057	0,120	-0,089
-627,722	149,460	0,039	-0,039
-626,707	-76,249	0,008	0,002
-625,692	-106,445	0,217	-0,036
-624,678	-112,279	-0,006	0,001
-623,663	800,000	0,047	-0,128
-622,649	441,204	-0,045	-0,073
-621,634	127,751	-0,068	-0,064
-620,619	263,884	-0,030	-0,039
-619,605	191,273	0,051	0,057
-618,590	584,905	0,047	0,086
-617,576	137,370	0,083	0,081
-616,561	-200,000	-0,006	0,000
-615,546	-20,366	-0,091	-0,041
-614,532	280,118	0,073	-0,097
-613,517	-200,000	0,010	0,062
-612,503	180,599	0,088	0,096
-611,488	13,861	0,053	0,031
-610,474	-43,795	0,120	-0,045
-609,459	-127,278	-0,059	0,006
-608,444	206,921	-0,083	-0,096
-607,430	46,984	-0,119	-0,082
-606,415	-24,028	-0,169	-0,074
-605,401	4,330	0,067	0,036
-604,386	-200,000	-0,018	0,140
-603,371	27,118	0,117	0,073
-602,357	800,000	-0,015	0,047
-601,342	383,112	0,067	-0,103
-600,328	-66,718	0,085	0,025
-599,313	79,921	0,072	-0,057
-598,298	219,650	0,053	0,063
-597,284	-134,064	0,118	-0,011
-596,269	131,911	-0,053	0,050
-595,255	-2,699	0,069	0,036
-594,240	-148,884	-0,014	-0,001
-593,225	330,945	-0,068	-0,098
-592,211	42,672	-0,129	-0,087
-591,196	-68,918	0,065	-0,019
-590,182	-43,370	-0,133	-0,050
-589,167	-82,413	0,093	0,022
-588,152	-200,000	0,005	0,033
-587,138	237,283	-0,029	-0,035
-586,123	-95,346	-0,050	0,010
-585,109	-32,883	-0,067	0,027
-584,094	800,000	-0,031	0,080
-583,079	800,000	0,043	-0,119
-582,065	-200,000	-0,020	-0,084
-581,050	262,396	-0,027	0,035
-580,036	162,159	0,119	0,123
-579,021	47,366	-0,079	-0,054
-578,006	477,149	-0,055	-0,093
-576,992	-158,223	0,097	-0,004
-575,977	397,482	0,032	0,050
-574,963	-92,825	-0,028	-0,006
-573,948	-200,000	-0,001	0,028
-572,934	402,411	-0,014	-0,022
-571,919	-200,000	-0,022	0,097
-570,904	184,871	-0,053	-0,059
-569,890	-200,000	-0,001	-0,021
-568,875	367,807	-0,018	-0,027
-567,861	-46,854	0,052	-0,019
-566,846	-72,126	0,091	0,025
-565,831	70,113	-0,031	-0,023
-564,817	-26,381	0,164	0,071
-563,802	-200,000	0,008	-0,085
-562,788	800,000	0,008	0,022
-561,773	538,345	-0,090	0,159
-560,758	19,373	0,075	-0,044
-559,744	-65,219	0,030	-0,009
-558,729	139,468	0,099	0,096
-557,715	58,835	0,019	0,014
-556,700	95,101	-0,060	-0,051
-555,685	800,000	0,032	-0,075
-554,671	-200,000	-0,019	0,063
-553,656	-129,929	-0,072	-0,007
-552,642	386,241	0,040	-0,062
-551,627	-200,000	-0,005	-0,231
-550,612	-200,000	-0,001	0,046
-549,598	800,000	-0,016	-0,044
-548,583	16,967	-0,096	-0,056
-547,569	-200,000	-0,015	0,091
-546,554	-9,342	0,106	0,052
-545,539	-3,586	-0,037	0,019
-544,525	-200,000	0,012	0,176
-543,510	-200,000	0,009	0,078
-542,496	92,278	0,004	0,003
-541,481	-200,000	-0,005	0,078
-540,466	114,389	-0,079	-0,071
-539,452	31,055	0,051	-0,032
-538,437	277,405	0,089	0,117
-537,423	-55,553	-0,124	-0,041
-536,408	252,198	0,050	-0,062
-535,393	607,503	-0,045	-0,083
-534,379	-133,094	-0,218	-0,020
-533,364	-200,000	-0,165	0,000
-532,350	-121,161	-0,073	-0,009
-531,335	659,436	0,034	-0,065
-530,321	181,891	-0,024	-0,026
-529,306	130,620	-0,088	-0,083
-528,291	-200,000	-0,041	-0,233
-527,277	64,383	-0,129	-0,096
-526,262	-200,000	0,002	-0,025
-525,248	800,000	0,032	0,085
-524,233	-46,091	-0,010	0,003
-523,218	87,094	0,099	0,080
-522,204	-200,000	0,032	-0,119
-521,189	-200,000	0,035	-0,159
-520,175	-45,073	0,124	-0,045
-519,160	-38,836	0,083	0,032
-518,145	-200,000	-0,022	-0,131
-517,131	-76,845	0,069	-0,018
-516,116	800,000	0,006	0,017
-515,102	800,000	0,058	-0,133
-514,087	800,000	0,055	-0,138
-513,072	-96,701	-0,104	-0,020
-512,058	-53,157	-0,036	-0,012
-511,043	282,993	-0,082	0,109
-510,029	149,000	0,030	0,030
-509,014	-150,793	-0,014	-0,001
-507,999	282,583	-0,011	-0,015
-506,985	-200,000	0,010	-0,064
-505,970	-200,000	0,025	-0,099
-504,956	679,789	-0,047	0,091
-503,941	-200,000	0,026	0,098
-502,926	234,390	-0,040	-0,048
-501,912	-200,000	-0,035	0,128
-500,897	-153,611	0,021	-0,001
-499,883	-139,964	-0,068	-0,005
-498,868	128,016	0,111	-0,105
-497,853	17,231	-0,031	0,018
-496,839	-13,062	-0,128	0,061
-495,824	7,551	0,089	-0,049
-494,810	800,000	0,052	-0,130
-493,795	-85,368	-0,057	-0,013
-492,781	318,398	-0,049	0,069
-491,766	-62,091	0,093	-0,029
-490,751	-24,381	-0,177	-0,077
-489,737	-200,000	-0,013	0,079
-488,722	785,236	0,030	0,060
-487,708	48,548	-0,096	0,066
-486,693	-29,463	0,127	-0,053
-485,678	-200,000	0,015	-0,094
-484,664	598,844	0,092	0,169
-483,649	-200,000	0,051	-0,182
-482,635	516,138	0,048	0,084
-481,620	-200,000	-0,023	0,155
-480,605	-133,894	-0,066	-0,006
-479,591	-200,000	-0,032	0,115
-478,576	-200,000	0,005	-0,052
-477,562	-200,000	0,008	-0,105
-476,547	-200,000	0,053	-0,229
-475,532	188,937	-0,069	-0,076
-474,518	8,321	0,073	0,040
-473,503	-26,303	0,103	0,044
-472,489	-67,256	-0,081	0,023
-471,474	55,499	0,037	0,026
-470,459	26,799	0,128	-0,079
-469,445	303,282	-0,115	-0,157
-468,430	-200,000	-0,002	-0,013
-467,416	605,121	-0,034	-0,063
-466,401	800,000	0,060	0,138
-465,386	-8,583	0,071	-0,035
-464,372	637,024	0,072	-0,135
-463,357	800,000	0,053	0,125
-462,343	-200,000	-0,003	-0,106
-461,328	378,869	0,034	-0,052
-460,313	-57,400	-0,175	0,056
-459,299	305,174	-0,042	-0,057
-458,284	-164,368	0,134	-0,004
-457,270	-39,653	-0,094	-0,036
-456,255	800,000	-0,016	0,044
-455,241	656,015	-0,014	-0,027
-454,226	31,338	-0,021	0,013
-453,211	184,231	-0,031	-0,034
-452,197	36,264	0,131	-0,085
-451,182	111,971	0,037	0,033
-450,168	-99,364	-0,122	-0,022
-449,153	25,470	0,072	-0,044
-448,138	-141,326	0,131	0,010
-447,124	-122,849	0,071	0,008
-446,109	600,987	-0,013	-0,025
-445,095	-200,000	-0,001	-0,056
-444,080	23,624	0,041	0,025
-443,065	-110,806	-0,101	-0,015
-442,051	-200,000	-0,000	0,054
-441,036	-113,988	-0,092	0,013
-440,022	464,692	-0,054	-0,089
-439,007	-56,856	-0,044	0,014
-437,992	355,762	0,024	-0,035
-436,978	-5,102	0,043	-0,022
-435,963	800,000	-0,049	0,123
-434,949	94,251	0,039	0,032
-433,934	-64,413	-0,140	0,042
-432,919	-5,475	-0,134	0,067
-431,905	355,939	0,052	0,076
-430,890	-200,000	0,006	0,086
-429,876	-75,092	0,101	-0,026
-428,861	51,868	0,091	0,063
-427,846	-109,869	0,050	0,008
-426,832	184,907	0,029	0,032
-425,817	25,308	-0,134	0,081
-424,803	-200,000	-0,014	0,056
-423,788	-46,421	-0,091	0,033
-422,773	-140,038	-0,134	-0,010
-421,759	-200,000	-0,003	0,057
-420,744	343,054	-0,064	-0,092
-419,730	497,087	-0,052	0,088
-418,715	762,290	-0,026	0,052
-417,701	98,293	-0,082	-0,069
-416,686	668,091	0,031	0,059
-415,671	322,556	0,027	-0,038
-414,657	52,135	0,057	0,040
-413,642	214,615	0,064	0,075
-412,628	718,271	0,028	0,054
-411,613	-180,205	0,072	0,001
-410,598	800,000	-0,002	-0,005
-409,584	482,618	0,078	0,131
-408,569	800,000	-0,029	0,064
-407,555	-59,637	0,023	-0,007
-406,540	-200,000	-0,013	0,115
-405,525	63,709	-0,060	-0,044
-404,511	341,285	-0,024	-0,034
-403,496	-108,185	0,076	0,012
-402,482	-110,770	0,163	0,024
-401,467	-107,829	-0,094	0,015
-400,452	152,547	-0,041	-0,041
-399,438	256,807	-0,058	-0,073
-398,423	-49,942	-0,122	-0,042
-397,409	356,479	-0,014	-0,021
-396,394	63,915	-0,162	0,119
-395,379	-19,899	0,121	-0,055
-394,365	-200,000	-0,024	0,113
-393,350	-83,595	0,056	-0,013
-392,336	-25,238	0,049	-0,021
-391,321	800,000	0,042	-0,111
-390,306	-65,992	-0,214	-0,062
-389,292	-29,821	0,048	0,020
-388,277	-200,000	-0,002	0,109
-387,263	234,895	-0,065	-0,079
-386,248	-200,000	0,025	0,126
-385,233	640,734	0,042	0,078
-384,219	-200,000	0,030	-0,134
-383,204	-20,764	-0,076	0,034
-382,190	671,979	-0,041	0,079
-381,175	208,456	0,094	0,108
-380,160	172,619	0,106	0,112
-379,146	-200,000	-0,007	0,157
-378,131	-200,000	-0,006	0,088
-377,117	800,000	-0,038	0,094
-376,102	267,291	-0,025	-0,032
-375,088	245,633	0,052	0,065
-374,073	800,000	-0,004	-0,011
-373,058	800,000	-0,032	0,100
-372,044	-200,000	-0,023	0,114
-371,029	800,000	-0,018	0,059
-370,015	366,322	0,072	-0,107
-369,000	546,045	0,051	-0,089
-367,985	-89,258	-0,084	0,018
-366,971	-32,044	-0,033	-0,014
-365,956	127,087	0,035	-0,032
-364,942	-200,000	-0,029	-0,135
-363,927	578,780	-0,021	0,037
-362,912	76,809	-0,063	0,049
-361,898	639,280	-0,008	0,014
-360,883	800,000	-0,019	-0,055
-359,869	-72,027	-0,115	-0,031
-358,854	800,000	-0,051	0,105
-357,839	0,565	-0,011	0,006
-356,825	88,451	0,097	0,079
-355,810	800,000	0,047	-0,131
-354,796	-200,000	-0,013	0,064
-353,781	-53,481	0,062	-0,021
-352,766	85,089	-0,079	-0,064
-351,752	-200,000	0,035	0,150
-350,737	-73,584	-0,076	-0,020
-349,723	800,000	0,052	0,124
-348,708	800,000	-0,042	0,135
-347,693	-200,000	-0,001	0,128
-346,679	67,211	0,056	0,042
-345,664	-2,619	0,093	-0,048
-344,650	-99,747	-0,089	-0,016
-343,635	207,500	-0,030	0,034
-342,620	800,000	0,035	0,074
-341,606	-29,707	-0,095	-0,040
-340,591	800,000	0,043	-0,089
-339,577	800,000	-0,043	0,094
-338,562	800,000	-0,028	0,059
-337,548	-24,806	0,157	-0,068
-336,533	461,078	-0,044	0,072
-335,518	-200,000	-0,004	-0,062
-334,504	27,575	-0,026	0,016
-333,489	-67,967	0,121	0,034
-332,475	160,677	-0,013	-0,013
-331,460	-200,000	0,007	-0,039
-330,445	-200,000	0,002	0,013
-329,431	30,276	-0,086	-0,054
-328,416	-14,702	0,077	0,036
-327,402	800,000	0,041	0,086
-326,387	109,413	-0,112	0,098
-325,372	10,561	-0,142	-0,079
-324,358	-70,296	-0,112	0,031
-323,343	-56,794	-0,127	-0,041
-322,329	260,151	-0,089	0,113
-321,314	800,000	0,022	0,054
-320,299	-22,902	0,138	-0,061
-319,285	187,113	-0,040	0,044
-318,270	800,000	-0,042	0,128
-317,256	-30,142	-0,069	0,029
-316,241	16,812	-0,054	-0,031
-315,226	-200,000	-0,011	0,098
-314,212	-63,258	0,077	-0,023
-313,197	434,613	0,079	-0,126
-312,183	-200,000	0,006	-0,072
-311,168	747,790	0,024	0,047
-310,153	-139,995	-0,077	0,006
-309,139	-200,000	0,010	-0,047
-308,124	87,166	-0,095	-0,077
-307,110	34,688	-0,143	-0,091
-306,095	800,000	-0,030	0,082
-305,080	100,493	-0,024	0,020
-304,066	-200,000	-0,010	-0,037
-303,051	-115,486	-0,064	-0,009
-302,037	219,272	-0,085	0,100
-301,022	-114,152	0,121	0,017
-300,008	-200,000	-0,032	-0,120
-298,993	-52,941	-0,114	0,038
-297,978	196,608	0,074	-0,082
-296,964	-200,000	0,000	0,055
-295,949	136,648	-0,068	0,065
-294,935	407,177	0,030	0,047
-293,920	423,641	-0,044	0,070
-292,905	-76,644	0,108	-0,028
-291,891	304,039	0,074	0,101
-290,876	4,048	0,046	-0,025
-289,862	348,307	-0,047	-0,068
-288,847	308,787	0,044	-0,060
-287,832	800,000	-0,021	-0,055
-286,818	800,000	-0,028	-0,067
-285,803	-200,000	0,084	0,000
-284,789	-200,000	-0,011	-0,059
-283,774	499,809	-0,066	0,112
-282,759	-113,707	-0,070	0,010
-281,745	285,068	0,058	-0,077
-280,730	800,000	-0,042	0,096
-279,716	-200,000	0,011	-0,037
-278,701	-135,107	0,017	0,002
-277,686	800,000	0,027	-0,064
-276,672	-125,907	-0,095	-0,010
-275,657	-95,740	-0,049	0,010
-274,643	-200,000	-0,074	0,000
-273,628	-58,610	0,085	-0,027
-272,613	800,000	0,049	0,135
-271,599	273,786	-0,075	-0,097
-270,584	-5,539	0,064	0,032
-269,570	302,205	0,033	0,045
-268,555	-20,279	-0,075	0,034
-267,540	-17,309	0,140	0,064
-266,526	701,490	-0,063	-0,122
-265,511	800,000	-0,041	-0,128
-264,497	-200,000	-0,020	-0,069
-263,482	-10,928	0,146	-0,070
-262,467	351,526	-0,051	0,074
-261,453	-200,000	-0,005	0,094
-260,438	-73,471	-0,103	-0,027
-259,424	111,285	-0,112	-0,099
-258,409	19,986	-0,125	-0,073
-257,395	-90,929	0,100	-0,021
-256,380	800,000	0,057	0,181
-255,365	-34,454	0,054	-0,022
-254,351	230,444	-0,086	-0,103
-253,336	78,345	-0,040	-0,031
-252,322	-200,000	0,013	-0,051
-251,307	-134,636	-0,118	0,010
-250,292	553,918	0,034	-0,060
-249,278	58,971	0,059	-0,042
-248,263	114,802	-0,058	0,051
-247,249	-102,298	0,104	0,018
-246,234	-154,190	-0,056	0,003
-245,219	103,433	-0,087	-0,075
-244,205	800,000	-0,070	-0,195
-243,190	613,118	-0,035	-0,064
-242,176	85,618	0,132	0,106
-241,161	-112,246	0,054	0,008
-240,146	116,193	0,115	0,103
-239,132	-200,000	-0,002	-0,064
-238,117	-200,000	-0,018	-0,105
-237,103	-200,000	-0,003	-0,037
-236,088	800,000	0,036	-0,074
-235,073	-45,563	0,077	0,028
-234,059	-19,508	0,069	-0,031
-233,044	-200,000	0,014	-0,093
-232,030	800,000	0,043	-0,124
-231,015	-200,000	0,001	-0,020
-230,000	77,538	-0,125	0,097
-228,986	383,573	-0,036	-0,055
-227,971	800,000	0,025	-0,078
-226,957	25,714	0,070	-0,042
-225,942	-200,000	-0,015	0,057
-224,927	210,201	0,061	0,069
-223,913	-8,776	-0,080	-0,039
-222,898	-200,000	-0,002	0,035
-221,884	55,782	0,133	0,094
-220,869	-13,848	0,018	-0,008
-219,855	145,044	-0,061	0,059
-218,840	-200,000	0,010	0,072
-217,825	-200,000	0,002	0,019
-216,811	-200,000	0,026	-0,104
-215,796	-46,721	-0,123	0,044
-214,782	-101,937	0,078	-0,014
-213,767	-62,654	-0,139	0,042
-212,752	-36,894	0,048	-0,019
-211,738	-200,000	-0,006	0,067
-210,723	-200,000	-0,023	-0,110
-209,709	800,000	-0,026	-0,063
-208,694	-36,629	-0,073	-0,029
-207,679	-42,847	0,054	0,020
-206,665	-115,196	0,147	-0,020
-205,650	455,628	0,049	-0,080
-204,636	41,133	-0,113	0,074
-203,621	179,931	0,027	-0,029
-202,606	54,945	0,082	-0,057
-201,592	491,624	-0,068	-0,114
-200,577	800,000	-0,095	-0,195
-199,563	-200,000	0,043	0,163
-198,548	428,596	0,120	0,189
-197,533	196,935	0,133	-0,148
-196,519	-50,883	0,058	0,020
-195,504	717,540	-0,031	-0,060
-194,490	-7,362	-0,207	-0,102
-193,475	-200,000	0,003	-0,058
-192,460	-155,529	0,129	0,006
-191,446	800,000	0,026	0,063
-190,431	13,875	0,131	0,074
-189,417	39,454	0,153	0,100
-188,402	800,000	0,044	0,139
-187,387	800,000	0,022	-0,059
-186,373	-200,000	0,002	0,077
-185,358	-32,862	0,016	0,007
-184,344	222,247	0,115	0,135
-183,329	-200,000	-0,010	0,127
-182,315	115,173	0,065	0,058
-181,300	500,267	-0,065	0,110
-180,285	-200,000	-0,004	-0,044
-179,271	-17,811	0,008	-0,004
-178,256	-39,070	-0,095	-0,036
-177,242	800,000	-0,007	-0,018
-176,227	278,756	-0,054	0,070
-175,212	800,000	-0,082	0,223
-174,198	150,961	0,138	-0,137
-173,183	795,996	-0,042	-0,085
-172,169	-200,000	-0,015	0,079
-171,154	261,385	-0,017	-0,021
-170,139	235,531	0,096	-0,115
-169,125	90,928	0,115	-0,094
-168,110	-108,859	0,187	0,029
-167,096	-49,863	0,139	0,048
-166,081	-13,081	-0,117	0,055
-165,066	160,460	-0,130	-0,132
-164,052	-94,939	0,046	-0,009
-163,037	-200,000	-0,011	0,128
-162,023	-72,450	-0,012	-0,003
-161,008	545,029	-0,034	0,059
-159,993	-200,000	0,036	0,130
-158,979	-111,449	0,088	-0,013
-157,964	236,019	0,035	-0,043
-156,950	290,143	-0,024	0,032
-155,935	65,511	-0,052	-0,039
-154,920	-52,993	0,086	-0,029
-153,906	800,000	-0,068	0,195
-152,891	31,523	-0,047	0,029
-151,877	-200,000	0,035	-0,145
-150,862	-200,000	-0,020	-0,168
-149,847	800,000	0,064	-0,133
-148,833	-143,827	-0,107	0,007
-147,818	399,110	0,051	0,078
-146,804	-108,024	-0,137	0,021
-145,789	476,289	0,058	0,096
-144,775	-98,047	0,076	-0,014
-143,760	-200,000	0,021	-0,171
-142,745	-200,000	0,028	-0,150
-141,731	66,468	-0,051	0,037
-140,716	-200,000	0,003	0,040
-139,702	-200,000	0,005	0,018
-138,687	-2,341	0,190	0,097
-137,672	-200,000	-0,033	0,151
-136,658	20,530	-0,081	0,047
-135,643	27,683	0,069	-0,042
-134,629	800,000	0,011	0,036
-133,614	226,359	-0,075	0,089
-132,599	94,674	0,100	0,082
-131,585	-32,330	-0,035	-0,014
-130,570	129,566	0,059	-0,054
-129,556	93,657	-0,039	-0,032
-128,541	179,273	0,059	-0,063
-127,526	-19,372	-0,034	-0,015
-126,512	-200,000	-0,031	-0,121
-125,497	-56,839	0,092	-0,029
-124,483	-200,000	0,001	0,111
-123,468	125,412	0,050	0,046
-122,453	-156,116	0,053	0,002
-121,439	800,000	-0,042	0,100
-120,424	609,096	0,033	0,059
-119,410	-200,000	0,006	0,050
-118,395	-17,874	0,129	0,059
-117,380	151,389	-0,013	-0,013
-116,366	97,679	-0,141	-0,117
-115,351	401,511	0,011	-0,017
-114,337	82,026	-0,165	-0,130
-113,322	-200,000	0,003	-0,086
-112,307	-156,842	0,150	-0,007
-111,293	604,197	0,062	0,113
-110,278	257,795	-0,064	0,080
-109,264	-200,000	-0,032	-0,122
-108,249	-101,417	-0,119	0,021
-107,234	-115,557	-0,018	0,002
-106,220	-200,000	0,001	-0,015
-105,205	-200,000	-0,026	0,281
-104,191	366,483	0,051	0,075
-103,176	7,290	0,144	0,078
-102,162	-200,000	0,029	0,105
-101,147	-200,000	0,019	0,076
-100,132	23,483	0,107	-0,064
-99,118	304,564	-0,012	0,016
-98,103	-9,305	-0,044	-0,021
-97,089	55,560	0,081	-0,057
-96,074	-48,680	-0,103	-0,036
-95,059	11,797	0,080	0,044
-94,045	114,236	-0,033	-0,029
-93,030	-200,000	-0,017	0,146
-92,016	-200,000	-0,022	0,108
-91,001	-200,000	-0,002	0,063
-89,986	-30,756	0,025	-0,010
-88,972	-84,225	-0,040	-0,009
-87,957	689,966	-0,055	0,105
-86,943	-200,000	0,010	-0,058
-85,928	-200,000	-0,027	-0,217
-84,913	-2,096	0,037	0,019
-83,899	-200,000	0,021	0,107
-82,884	66,540	0,072	0,053
-81,870	800,000	-0,047	0,130
-80,855	145,722	-0,045	-0,043
-79,840	-107,808	0,080	-0,013
-78,826	-91,263	-0,071	0,015
-77,811	-200,000	0,012	-0,079
-76,797	-200,000	0,019	-0,116
-75,782	187,820	-0,020	-0,021
-74,767	-131,639	0,129	0,012
-73,753	800,000	0,007	-0,020
-72,738	-36,903	0,028	0,011
-71,724	322,336	0,051	0,070
-70,709	267,354	0,052	0,066
-69,694	800,000	0,035	-0,078
-68,680	-200,000	0,026	-0,143
-67,665	-200,000	-0,003	0,045
-66,651	-21,005	0,112	0,050
-65,636	800,000	0,038	-0,089
-64,622	12,545	-0,129	-0,072
-63,607	564,570	-0,040	-0,070
-62,592	-72,118	-0,095	-0,025
-61,578	-164,560	-0,043	-0,001
-60,563	-39,782	-0,033	-0,013
-59,549	445,146	-0,040	-0,063
-58,534	-108,068	-1,284	-0,200
-57,519	419,181	-0,936	-1,456
-56,505	-200,000	-0,860	-4,242
-55,490	-70,934	0,634	-0,172
-54,476	800,000	4,760	11,452
-53,461	-200,000	13,613	250,877
-52,446	-200,000	688,328	2250,596
-51,432	594,399	1618,915	2913,108
-50,417	119,753	1631,892	1465,282
-49,403	74,509	1286,738	979,254
-48,388	38,347	1022,518	658,667
-47,373	24,461	980,348	585,980
-46,359	23,652	970,135	577,210
-45,344	22,690	965,861	571,509
-44,330	22,639	964,287	570,390
-43,315	22,490	962,838	569,024
-42,300	22,499	961,816	568,426
-41,286	22,501	960,737	567,773
-40,271	22,418	960,288	567,218
-39,257	22,446	959,026	566,541
-38,242	22,512	958,060	566,160
-37,227	22,489	957,218	565,566
-36,213	22,418	956,486	564,883
-35,198	22,321	955,669	564,063
-34,184	22,452	954,851	563,981
-33,169	22,447	953,843	563,347
-32,154	22,458	953,205	562,983
-31,140	22,489	952,052	562,380
-30,125	22,424	951,388	561,757
-29,111	22,499	950,340	561,357
-28,096	22,423	949,970	560,870
-27,082	22,517	949,201	560,695
-26,067	22,479	948,340	560,042
-25,052	22,481	947,591	559,585
-24,038	22,473	947,037	559,210
-23,023	22,435	946,433	558,711
-22,009	22,460	945,754	558,366
-20,994	22,507	945,170	558,149
-19,979	22,449	944,504	557,550
-18,965	22,460	944,022	557,278
-17,950	22,546	943,235	557,063
-16,936	22,431	942,667	556,343
-15,921	22,412	941,944	555,832
-14,906	22,444	941,127	555,430
-13,892	22,357	940,549	554,791
-12,877	22,334	940,043	554,398
-11,863	22,332	939,337	553,954
-10,848	22,342	938,776	553,630
-9,833	22,452	938,392	553,732
-8,819	22,444	937,756	553,309
-7,804	22,392	937,005	552,681
-6,790	22,363	936,441	552,234
-5,775	22,329	936,031	551,862
-4,760	22,324	935,361	551,430
-3,746	22,367	934,619	551,105
-2,731	22,218	933,816	550,143
-1,717	22,147	933,407	549,656
-0,702	22,205	932,574	549,325
0,313	21,999	931,784	549,041
1,327	24,392	929,489	555,142
2,342	32,055	808,011	503,304
3,356	27,560	508,408	309,007
4,371	3,843	372,910	196,604
5,386	0,995	355,803	184,090
6,400	-0,656	349,694	178,928
7,415	-1,596	346,882	176,351
8,429	-1,779	345,286	175,306
9,444	-1,840	344,286	174,711
10,459	-1,889	343,726	174,353
11,473	-1,765	343,029	174,131
12,488	-1,506	342,560	174,182
13,502	-1,427	342,070	174,011
14,517	-1,600	341,504	173,504
15,531	-1,820	340,800	172,873
16,546	-2,092	340,593	172,434
17,561	-2,113	340,120	172,155
18,575	-1,866	339,510	172,119
19,590	-1,927	339,260	171,905
20,604	-1,759	338,829	171,868
21,619	-1,909	338,306	171,412
22,634	-2,013	338,211	171,228
23,648	-1,966	337,697	171,006
24,663	-1,925	337,521	170,950
25,677	-1,992	337,105	170,646
26,692	-2,080	336,990	170,472
27,707	-1,793	336,568	170,574
28,721	-2,004	336,271	170,165
29,736	-2,074	336,066	169,965
30,750	-2,047	335,702	169,798
31,765	-2,079	335,448	169,617
32,780	-1,988	335,069	169,515
33,794	-1,875	334,862	169,525
34,809	-2,067	334,613	169,162
35,823	-1,860	334,154	169,153
36,838	-2,080	334,015	168,815
37,853	-1,933	333,731	168,825
38,867	-2,073	333,274	168,419
39,882	-2,122	333,207	168,315
40,896	-2,051	332,823	168,186
41,911	-2,104	332,657	168,027
42,926	-2,059	332,290	167,878
43,940	-2,030	331,956	167,727
44,955	-2,099	331,709	167,509
45,969	-2,265	331,480	167,189
46,984	-2,290	331,050	166,930
47,999	-2,521	330,921	166,588
49,013	-2,702	330,727	166,269
50,028	-2,776	330,314	165,963
51,042	-2,717	330,065	165,890
52,057	-2,687	329,697	165,724
53,071	-2,688	329,633	165,675
54,086	-2,661	329,349	165,549
55,101	-2,433	329,041	165,636
56,115	-2,262	328,821	165,704
57,130	-2,040	328,834	165,946
58,144	-1,785	328,651	166,125
59,159	-1,913	328,361	165,820
60,174	-1,905	328,038	165,651
61,188	-1,708	327,696	165,685
62,203	-1,794	327,646	165,549
63,217	-1,775	327,381	165,421
64,232	-1,728	327,062	165,297
65,247	-1,762	326,874	165,151
66,261	-1,779	326,501	164,928
67,276	-2,089	326,165	164,398
68,290	-2,220	325,893	164,099
69,305	-2,192	325,620	163,979
70,320	-2,150	325,208	163,803
71,334	-2,071	325,150	163,848
72,349	-1,763	325,036	164,118
73,363	-1,753	324,827	164,009
74,378	-1,838	324,471	163,720
75,393	-1,739	324,313	163,736
76,407	-1,807	324,066	163,521
77,422	-1,870	323,807	163,305
78,436	-1,786	323,635	163,297
79,451	-1,842	323,323	163,063
80,466	-2,099	322,964	162,584
81,480	-2,128	322,542	162,325
82,495	-2,111	322,253	162,183
83,509	-1,933	322,129	162,303
84,524	-1,970	321,782	162,073
85,539	-2,231	321,707	161,733
86,553	-2,241	321,371	161,540
87,568	-2,261	321,214	161,424
88,582	-2,074	320,900	161,457
89,597	-2,183	320,828	161,286
90,611	-2,046	320,627	161,322
91,626	-2,000	320,484	161,286
92,641	-2,014	320,175	161,101
93,655	-2,256	319,919	160,693
94,670	-2,231	319,656	160,574
95,684	-2,101	319,327	160,536
96,699	-2,031	319,274	160,571
97,714	-2,190	319,048	160,270
98,728	-2,280	318,505	159,885
99,743	-2,422	318,464	159,696
100,757	-2,254	318,129	159,696
101,772	-2,343	318,044	159,542
102,787	-2,203	317,706	159,511
103,801	-2,041	317,568	159,603
104,816	-1,942	317,284	159,553
105,830	-2,026	317,250	159,431
106,845	-1,907	316,988	159,414
107,860	-1,782	316,679	159,379
108,874	-1,927	316,412	159,074
109,889	-1,952	316,248	158,950
110,903	-2,055	315,915	158,658
111,918	-2,016	315,716	158,585
112,933	-2,062	315,548	158,438
113,947	-1,998	315,338	158,387
114,962	-1,968	315,083	158,277
115,976	-1,937	314,912	158,210
116,991	-1,886	314,690	158,140
118,006	-2,054	314,382	157,791
119,020	-1,810	314,222	157,958
120,035	-2,059	314,316	157,724
121,049	-1,866	314,012	157,763
122,064	-1,807	313,672	157,642
123,079	-1,914	313,491	157,423
124,093	-1,978	313,028	157,108
125,108	-2,065	312,684	156,828
126,122	-2,194	312,539	156,604
127,137	-2,454	312,288	156,188
128,151	-2,361	312,101	156,179
129,166	-2,302	311,942	156,148
130,181	-2,228	311,657	156,070
131,195	-2,365	311,373	155,769
132,210	-2,026	311,213	156,034
133,224	-1,883	311,086	156,108
134,239	-1,826	310,903	156,063
135,254	-1,869	310,684	155,893
136,268	-2,025	310,380	155,562
137,283	-2,152	310,026	155,236
138,297	-2,206	309,742	155,025
139,312	-2,325	309,562	154,795
140,327	-2,137	309,565	154,980
141,341	-1,741	309,414	155,308
142,356	-1,637	309,268	155,330
143,370	-1,600	309,142	155,292
144,385	-1,661	308,956	155,120
145,400	-1,684	308,639	154,923
146,414	-1,680	308,421	154,805
147,429	-1,587	308,098	154,725
148,443	-1,573	308,153	154,754
149,458	-1,570	307,875	154,604
150,473	-1,465	307,485	154,505
151,487	-1,830	307,450	154,091
152,502	-1,802	307,261	154,012
153,516	-1,760	307,062	153,943
154,531	-1,709	306,806	153,854
155,546	-1,652	306,453	153,723
156,560	-1,729	306,215	153,509
157,575	-1,743	305,896	153,321
158,589	-1,800	305,821	153,210
159,604	-1,616	305,654	153,304
160,619	-1,729	305,363	153,027
161,633	-1,678	305,102	152,936
162,648	-1,617	304,983	152,926
163,662	-1,600	304,911	152,894
164,677	-1,851	304,751	152,540
165,692	-1,594	304,574	152,703
166,706	-1,797	304,411	152,398
167,721	-1,797	304,100	152,229
168,735	-1,725	303,853	152,166
169,750	-1,613	303,835	152,259
170,764	-1,512	303,577	152,220
171,779	-1,379	303,263	152,186
172,794	-1,548	303,176	151,955
173,808	-1,708	302,905	151,641
174,823	-2,058	302,441	151,036
175,837	-2,147	302,312	150,867
176,852	-1,825	302,361	151,208
177,867	-1,644	302,228	151,314
178,881	-1,631	302,000	151,200
179,896	-1,443	301,731	151,243
180,910	-1,501	301,589	151,099
181,925	-1,456	301,313	150,993
182,940	-1,232	301,021	151,063
183,954	-1,586	300,896	150,625
184,969	-1,579	300,769	150,556
185,983	-1,622	300,577	150,402
186,998	-1,757	300,432	150,179
188,013	-1,647	300,184	150,154
189,027	-1,668	299,957	150,005
190,042	-1,520	299,694	150,010
191,056	-1,438	299,521	149,994
192,071	-1,418	299,608	150,044
193,086	-1,387	299,327	149,922
194,100	-1,452	299,175	149,766
195,115	-1,445	298,793	149,569
196,129	-1,449	298,486	149,397
197,144	-1,457	298,258	149,262
198,159	-1,367	298,167	149,294
199,173	-1,457	297,986	149,099
200,188	-1,260	297,654	149,118
201,202	-1,486	297,421	148,761
202,217	-1,938	296,926	148,046
203,232	-2,124	296,808	147,787
204,246	-1,732	296,733	148,130
205,261	-1,577	296,656	148,234
206,275	-1,505	296,479	148,205
207,290	-1,496	296,390	148,155
208,304	-1,403	296,060	148,070
209,319	-1,357	295,864	148,006
210,334	-1,384	295,680	147,873
211,348	-1,534	295,431	147,586
212,363	-1,507	295,269	147,519
213,377	-1,513	295,195	147,462
214,392	-1,570	294,907	147,248
215,407	-1,722	294,722	146,992
216,421	-1,959	294,364	146,565
217,436	-1,928	294,296	146,548
218,450	-1,736	294,003	146,581
219,465	-1,658	293,924	146,605
220,480	-1,500	293,720	146,647
221,494	-1,523	293,574	146,538
222,509	-1,654	293,396	146,306
223,523	-1,553	293,208	146,300
224,538	-1,324	292,949	146,384
225,553	-1,447	292,899	146,224
226,567	-1,407	292,570	146,087
227,582	-1,363	292,451	146,057
228,596	-1,433	292,426	145,963
229,611	-1,204	292,103	146,014
230,626	-1,281	291,916	145,831
231,640	-1,773	291,626	145,190
232,655	-2,117	291,271	144,662
233,669	-2,314	291,055	144,348
234,684	-2,129	290,726	144,354
235,699	-2,255	290,794	144,251
236,713	-2,020	290,394	144,270
237,728	-1,761	290,329	144,479
238,742	-1,782	290,323	144,442
239,757	-1,588	290,210	144,563
240,772	-1,567	290,019	144,475
241,786	-1,539	289,728	144,344
242,801	-1,663	289,510	144,102
243,815	-1,679	289,369	144,003
244,830	-1,661	289,173	143,911
245,844	-1,838	288,931	143,605
246,859	-1,895	288,811	143,477
247,874	-1,789	288,625	143,475
248,888	-1,758	288,440	143,401
249,903	-1,656	288,302	143,418
250,917	-1,400	288,294	143,650
251,932	-1,302	287,995	143,584
252,947	-0,654	288,096	144,249
253,961	-0,399	287,932	144,401
254,976	0,465	288,311	145,417
255,990	2,429	288,790	147,551
257,005	2,906	289,084	148,151
258,020	4,058	289,109	149,268
259,034	4,182	289,081	149,361
260,049	4,016	288,846	149,066
261,063	3,830	288,631	148,761
262,078	4,124	288,557	148,994
263,093	4,796	288,707	149,708
264,107	4,689	288,480	149,474
265,122	4,821	288,234	149,461
266,136	4,881	288,104	149,438
267,151	4,922	287,901	149,359
268,166	4,683	287,651	148,986
269,180	4,635	287,420	148,807
270,195	4,676	287,244	148,742
271,209	4,761	287,120	148,746
272,224	4,666	286,903	148,528
273,239	4,603	286,627	148,312
274,253	4,688	286,429	148,278
275,268	4,774	286,419	148,342
276,282	5,008	286,251	148,466
277,297	4,612	286,037	147,963
278,312	4,897	286,037	148,222
279,326	4,873	285,657	147,989
280,341	4,694	285,443	147,694
281,355	4,559	285,202	147,427
282,370	4,565	284,949	147,289
283,384	4,399	284,875	147,079
284,399	4,390	284,756	146,996
285,414	4,503	284,504	146,961
286,428	4,460	284,349	146,827
287,443	4,137	284,131	146,394
288,457	4,289	283,773	146,341
289,472	4,105	283,660	146,095
290,487	4,192	283,429	146,046
291,501	4,048	283,154	145,755
292,516	4,021	282,924	145,598
293,530	3,995	282,852	145,523
294,545	4,415	282,630	145,792
295,560	4,200	282,685	145,605
296,574	4,022	282,365	145,259
297,589	4,198	282,366	145,413
298,603	4,649	282,275	145,778
299,618	4,717	282,054	145,715
300,633	4,551	281,852	145,442
301,647	4,453	281,541	145,176
302,662	4,513	281,354	145,123
303,676	4,148	281,128	144,650
304,691	3,846	280,990	144,283
305,706	4,015	280,761	144,311
306,720	3,944	280,495	144,095
307,735	4,087	280,290	144,111
308,749	4,185	280,231	144,160
309,764	4,188	280,116	144,090
310,779	3,920	279,889	143,710
311,793	3,890	279,512	143,475
312,808	3,967	279,299	143,425
313,822	4,044	279,203	143,435
314,837	4,039	279,111	143,371
315,852	3,788	278,776	142,952
316,866	3,839	278,767	142,982
317,881	3,931	278,580	142,959
318,895	3,944	278,281	142,805
319,910	3,825	278,102	142,589
320,925	3,727	277,939	142,402
321,939	4,120	277,599	142,579
322,954	4,046	277,841	142,623
323,968	3,934	277,606	142,385
324,983	4,304	277,481	142,651
325,997	4,326	277,283	142,557
327,012	4,342	277,071	142,450
328,027	4,332	276,863	142,321
329,041	4,194	276,742	142,119
330,056	4,238	276,620	142,084
331,070	4,142	276,357	141,848
332,085	4,033	276,187	141,648
333,100	4,209	275,937	141,669
334,114	4,053	275,783	141,434
335,129	3,944	275,484	141,168
336,143	4,364	275,454	141,525
337,158	4,525	275,274	141,568
338,173	4,234	275,117	141,207
339,187	4,238	274,943	141,109
340,202	4,219	274,757	140,984
341,216	4,042	274,644	140,751
342,231	4,089	274,385	140,649
343,246	4,291	274,247	140,750
344,260	4,165	274,068	140,531
345,275	4,408	273,983	140,696
346,289	4,619	273,892	140,829
347,304	4,596	273,816	140,757
348,319	4,411	273,316	140,319
349,333	4,282	273,150	140,104
350,348	4,455	273,041	140,193
351,362	4,563	272,912	140,212
352,377	4,404	272,763	139,979
353,392	4,601	272,663	140,094
354,406	4,593	272,571	140,027
355,421	190,527	1332,644	1407,383
356,435	153,886	1461,879	1407,510
