DTS Sentinel unit serial number:	SN410029Multiplexer serial number:	ORYXHardware model number:	OX2-SRSoftware version number:	ORYX F/W v4,00 Oryx Data Collector v3.7.2.0data status	okinstallation	B4 Nyhavnadifferential loss correction	single-endedforward channel	channel 2reverse channel	N/Adate	2023/12/16time	07:30:13forward acquisition time	300,00reverse acquisition time	0,00gamma	499,1914k internal	0,3127k external	0,3127temperature offset calibration	1,0000default loss term (dB/km)	0,3820temperature slope calibration	1,0000multiplexer offset coefficient	1,0000multiplexer slope coefficient	1,0000fibre end	0,00T internal ref (°C)	22,37T ext. ref 1 (°C)	7,58T ext. ref 2 (°C)	7,74length (m)	temperature (°C)	Stokes	anti-Stokes-744,400	-200,000	0,011	-0,055
-743,385	-85,653	-0,241	0,055
-742,371	-109,350	0,095	-0,015
-741,356	-31,038	-0,124	0,052
-740,342	-200,000	0,006	-0,124
-739,327	-117,012	-0,204	0,027
-738,312	531,774	-0,042	0,075
-737,298	0,295	-0,287	0,152
-736,283	-84,296	0,135	-0,032
-735,269	50,127	-0,239	0,167
-734,254	28,937	0,032	-0,020
-733,239	-107,910	-0,368	-0,059
-732,225	60,684	0,149	0,109
-731,210	800,000	-0,088	-0,184
-730,196	246,544	-0,107	-0,134
-729,181	-139,054	-0,047	0,004
-728,167	-200,000	0,017	0,105
-727,152	-60,797	-0,073	-0,023
-726,137	-106,590	-0,087	0,014
-725,123	-89,712	-0,113	-0,024
-724,108	-55,108	-0,090	-0,030
-723,094	-200,000	0,022	-0,120
-722,079	-200,000	0,029	-0,115
-721,064	-200,000	0,021	-0,073
-720,050	49,139	0,049	-0,034
-719,035	1,291	-0,089	0,047
-718,021	112,091	-0,027	-0,024
-717,006	-175,836	-0,070	0,001
-715,991	-200,000	-0,031	-0,119
-714,977	-200,000	-0,027	-0,249
-713,962	135,123	-0,070	-0,068
-712,948	-46,752	0,191	0,069
-711,933	-200,000	0,037	0,171
-710,918	800,000	-0,054	0,119
-709,904	-200,000	0,032	0,107
-708,889	-56,385	-0,131	-0,043
-707,875	36,192	-0,117	0,076
-706,860	-92,426	0,071	0,015
-705,845	-126,419	0,102	0,011
-704,831	-2,504	0,126	0,066
-703,816	-36,887	-0,109	0,043
-702,802	72,802	-0,070	0,054
-701,787	-51,233	-0,202	-0,070
-700,772	-200,000	-0,004	0,113
-699,758	-200,000	-0,030	-0,124
-698,743	375,264	-0,026	0,040
-697,729	800,000	-0,015	0,032
-696,714	-200,000	-0,005	0,071
-695,699	-200,000	-0,014	-0,113
-694,685	-65,798	0,033	-0,010
-693,670	-200,000	-0,039	-0,211
-692,656	-200,000	-0,007	-0,127
-691,641	800,000	0,009	-0,024
-690,627	62,579	-0,011	0,008
-689,612	537,078	0,032	0,057
-688,597	-200,000	-0,017	0,071
-687,583	-97,748	-0,082	-0,016
-686,568	262,405	-0,129	-0,167
-685,554	646,666	-0,085	-0,161
-684,539	-127,404	-0,003	-0,000
-683,524	14,676	-0,200	0,116
-682,510	800,000	-0,057	0,126
-681,495	570,002	-0,060	0,108
-680,481	235,976	-0,057	-0,071
-679,466	-167,433	-0,064	0,002
-678,451	-161,009	-0,179	-0,007
-677,437	544,203	-0,032	0,057
-676,422	142,652	0,026	0,026
-675,408	-77,632	-0,154	0,039
-674,393	-200,000	-0,019	-0,074
-673,378	800,000	0,038	-0,122
-672,364	255,448	-0,036	0,046
-671,349	469,730	0,044	0,073
-670,335	145,887	0,110	0,109
-669,320	319,360	-0,076	-0,107
-668,305	286,562	0,033	-0,045
-667,291	130,683	-0,094	0,090
-666,276	-121,341	0,031	0,004
-665,262	-200,000	-0,020	-0,074
-664,247	229,673	-0,034	0,041
-663,232	799,110	0,017	-0,035
-662,218	-200,000	-0,017	0,106
-661,203	-200,000	-0,037	-0,216
-660,189	-195,474	-0,172	-0,001
-659,174	-152,824	-0,047	-0,002
-658,159	696,340	-0,025	0,050
-657,145	3,126	-0,104	-0,056
-656,130	70,707	-0,076	-0,058
-655,116	379,305	-0,134	-0,204
-654,101	-133,303	0,010	0,001
-653,086	-200,000	-0,011	-0,043
-652,072	-200,000	-0,021	0,110
-651,057	-139,586	-0,061	0,005
-650,043	-200,000	-0,009	0,045
-649,028	107,300	0,080	0,070
-648,014	34,790	-0,017	-0,011
-646,999	86,081	-0,043	-0,035
-645,984	-200,000	0,003	0,079
-644,970	60,838	-0,115	-0,085
-643,955	-200,000	-0,043	-0,155
-642,941	-77,592	-0,061	-0,016
-641,926	-200,000	0,003	-0,095
-640,911	-200,000	-0,012	0,069
-639,897	9,806	0,095	0,053
-638,882	-162,192	0,179	0,007
-637,868	45,598	0,070	0,048
-636,853	440,811	0,072	-0,117
-635,838	-101,518	-0,078	-0,014
-634,824	-67,865	0,095	0,027
-633,809	-12,327	-0,111	-0,053
-632,795	-200,000	0,048	0,173
-631,780	97,167	0,087	-0,074
-630,765	800,000	-0,024	-0,070
-629,751	63,820	-0,046	0,034
-628,736	-200,000	0,012	-0,099
-627,722	126,248	0,025	0,023
-626,707	406,174	0,075	0,118
-625,692	-11,056	-0,064	-0,031
-624,678	-54,843	-0,053	-0,018
-623,663	635,985	0,056	0,105
-622,649	370,407	0,093	-0,140
-621,634	-110,787	-0,180	-0,027
-620,619	-200,000	0,002	-0,095
-619,605	-179,284	0,064	-0,001
-618,590	152,144	0,102	-0,103
-617,576	-20,630	0,039	-0,018
-616,561	-8,396	-0,094	0,047
-615,546	800,000	0,009	-0,023
-614,532	167,179	-0,099	-0,105
-613,517	194,680	0,086	-0,097
-612,503	800,000	-0,031	0,084
-611,488	-128,400	0,243	0,025
-610,474	-49,578	-0,112	-0,039
-609,459	-200,000	0,098	0,000
-608,444	-200,000	-0,005	-0,044
-607,430	800,000	-0,028	-0,057
-606,415	308,415	-0,044	-0,061
-605,401	-200,000	0,021	0,099
-604,386	-153,843	0,085	0,004
-603,371	-71,860	0,099	-0,027
-602,357	53,154	-0,023	-0,016
-601,342	795,508	-0,038	0,077
-600,328	657,101	0,060	0,115
-599,313	800,000	0,013	-0,037
-598,298	715,121	-0,018	-0,036
-597,284	158,618	0,116	-0,119
-596,269	-3,789	0,141	0,072
-595,255	81,440	0,109	-0,087
-594,240	202,173	0,047	-0,054
-593,225	-200,000	-0,019	0,078
-592,211	140,828	-0,094	0,092
-591,196	-200,000	0,007	-0,052
-590,182	-200,000	0,029	0,107
-589,167	-8,197	0,088	0,044
-588,152	113,027	0,135	0,121
-587,138	-77,776	-0,071	0,018
-586,123	-39,325	0,061	-0,024
-585,109	-200,000	-0,010	-0,065
-584,094	-154,784	0,102	0,005
-583,079	21,162	0,093	-0,056
-582,065	-190,330	-0,022	-0,000
-581,050	-189,438	0,059	0,000
-580,036	800,000	0,046	0,137
-579,021	-73,567	-0,089	-0,024
-578,006	-200,000	-0,018	0,140
-576,992	-123,643	-0,149	-0,017
-575,977	-119,597	0,126	-0,016
-574,963	800,000	0,077	0,182
-573,948	156,768	0,051	0,052
-572,934	120,122	-0,085	-0,078
-571,919	-64,799	-0,252	0,075
-570,904	-111,911	0,052	-0,008
-569,890	688,858	0,072	-0,141
-568,875	477,056	0,003	0,004
-567,861	-200,000	0,031	0,106
-566,846	-200,000	-0,016	0,101
-565,831	162,025	-0,104	0,108
-564,817	-200,000	0,023	-0,104
-563,802	800,000	-0,097	-0,255
-562,788	345,937	-0,082	-0,119
-561,773	153,347	-0,037	0,037
-560,758	800,000	0,041	0,088
-559,744	-142,600	0,077	-0,005
-558,729	-110,120	0,163	0,025
-557,715	262,986	-0,035	-0,045
-556,700	305,560	0,067	-0,092
-555,685	233,499	0,071	-0,087
-554,671	28,766	0,089	-0,056
-553,656	85,259	0,078	-0,063
-552,642	131,852	0,069	-0,066
-551,627	-97,189	-0,140	0,027
-550,612	-200,000	-0,010	-0,037
-549,598	-30,302	-0,071	-0,030
-548,583	-200,000	0,001	-0,006
-547,569	548,824	-0,017	-0,031
-546,554	201,861	0,077	0,088
-545,539	275,407	0,073	0,095
-544,525	463,684	0,020	-0,032
-543,510	326,437	-0,023	-0,033
-542,496	120,059	-0,084	-0,077
-541,481	-200,000	-0,009	-0,044
-540,466	93,026	0,049	0,041
-539,452	49,343	0,049	0,034
-538,437	-200,000	-0,023	0,135
-537,423	-200,000	0,006	0,042
-536,408	-127,325	-0,066	0,007
-535,393	98,430	-0,056	0,048
-534,379	-200,000	0,028	0,107
-533,364	-30,498	0,091	-0,038
-532,350	-55,295	0,060	0,020
-531,335	-39,153	-0,130	0,050
-530,321	-65,803	-0,007	-0,002
-529,306	-200,000	-0,001	-0,024
-528,291	-174,967	-0,008	0,000
-527,277	217,495	-0,032	-0,037
-526,262	-7,309	0,057	0,028
-525,248	-200,000	-0,022	0,078
-524,233	342,291	0,068	0,098
-523,218	-20,631	0,210	0,095
-522,204	103,528	-0,048	0,042
-521,189	-32,790	-0,159	-0,065
-520,175	263,109	-0,090	-0,116
-519,160	355,965	0,042	-0,061
-518,145	-78,965	0,118	0,029
-517,131	63,241	0,041	0,030
-516,116	11,488	-0,106	0,060
-515,102	14,881	-0,127	-0,073
-514,087	181,192	0,060	-0,065
-513,072	657,234	-0,100	-0,190
-512,058	-175,254	0,116	-0,002
-511,043	314,097	0,110	0,153
-510,029	-74,484	-0,049	-0,013
-509,014	155,338	0,019	-0,019
-507,999	424,247	-0,041	0,065
-506,985	68,609	-0,005	0,004
-505,970	571,500	0,021	-0,038
-504,956	186,611	-0,040	0,044
-503,941	800,000	0,091	0,203
-502,926	-200,000	-0,012	-0,199
-501,912	800,000	0,018	-0,054
-500,897	-200,000	-0,003	0,110
-499,883	-28,801	-0,052	0,022
-498,868	800,000	0,047	-0,150
-497,853	-75,071	-0,094	-0,025
-496,839	501,401	0,092	-0,157
-495,824	386,697	0,046	0,071
-494,810	249,161	0,129	0,162
-493,795	-200,000	0,022	-0,092
-492,781	-200,000	0,015	-0,056
-491,766	-200,000	-0,020	-0,071
-490,751	376,908	-0,052	-0,079
-489,737	-123,636	0,146	0,017
-488,722	117,913	-0,057	0,052
-487,708	-200,000	-0,021	0,225
-486,693	-101,083	0,051	0,009
-485,678	-200,000	-0,022	0,107
-484,664	-200,000	-0,024	-0,105
-483,649	800,000	-0,047	-0,134
-482,635	356,868	-0,056	0,082
-481,620	-200,000	-0,007	0,132
-480,605	-25,454	0,129	0,056
-479,591	-153,018	0,130	0,007
-478,576	-110,029	-0,087	0,013
-477,562	-50,550	-0,113	-0,039
-476,547	94,434	-0,166	0,139
-475,532	-200,000	-0,006	-0,066
-474,518	-13,338	0,051	-0,024
-473,503	2,658	-0,097	0,051
-472,489	37,264	0,048	0,031
-471,474	-119,256	-0,208	0,026
-470,459	-50,016	-0,023	0,008
-469,445	109,168	0,011	0,010
-468,430	-200,000	0,009	-0,075
-467,416	-85,957	-0,047	0,011
-466,401	248,552	0,120	0,150
-465,386	-200,000	0,020	0,105
-464,372	-200,000	-0,021	0,087
-463,357	48,618	-0,040	-0,027
-462,343	226,395	0,049	-0,058
-461,328	-16,948	-0,122	-0,057
-460,313	800,000	0,049	0,106
-459,299	474,978	0,023	0,039
-458,284	800,000	-0,013	0,038
-457,270	111,203	-0,067	0,059
-456,255	-26,424	-0,094	0,040
-455,241	581,105	-0,051	-0,093
-454,226	132,977	-0,146	0,139
-453,211	93,683	-0,069	-0,058
-452,197	-128,230	0,082	-0,008
-451,182	-200,000	-0,003	0,056
-450,168	800,000	-0,033	0,076
-449,153	52,915	-0,055	0,038
-448,138	168,408	-0,076	-0,080
-447,124	298,947	-0,046	-0,063
-446,109	33,816	0,062	-0,040
-445,095	128,118	0,028	0,026
-444,080	194,712	0,092	0,103
-443,065	-161,804	-0,075	-0,003
-442,051	-50,495	-0,084	-0,029
-441,036	439,988	-0,096	-0,155
-440,022	-88,881	-0,008	-0,002
-439,007	622,346	0,022	-0,040
-437,992	772,046	0,086	0,174
-436,978	123,583	0,080	0,074
-435,963	-149,513	0,208	0,012
-434,949	26,809	0,059	-0,036
-433,934	-75,479	-0,048	0,012
-432,919	-70,972	-0,051	0,014
-431,905	-145,905	0,068	0,004
-430,890	47,035	0,048	-0,033
-429,876	800,000	0,044	0,097
-428,861	409,885	0,093	0,145
-427,846	800,000	-0,046	0,149
-426,832	-50,869	0,100	-0,034
-425,817	454,166	-0,021	0,034
-424,803	-200,000	0,009	0,065
-423,788	0,416	0,040	-0,021
-422,773	-200,000	-0,004	-0,077
-421,759	-200,000	0,019	0,146
-420,744	-200,000	0,018	0,110
-419,730	-200,000	-0,007	-0,060
-418,715	-200,000	-0,001	-0,028
-417,701	-67,995	0,175	-0,050
-416,686	-200,000	0,015	0,127
-415,671	800,000	0,083	0,174
-414,657	-135,461	-0,059	0,005
-413,642	-200,000	0,029	0,138
-412,628	-56,151	0,011	-0,004
-411,613	-200,000	-0,006	-0,042
-410,598	-200,000	0,001	-0,167
-409,584	-15,145	-0,098	-0,046
-408,569	9,295	-0,081	0,045
-407,555	-200,000	-0,015	0,066
-406,540	-200,000	0,003	0,117
-405,525	556,033	-0,020	0,035
-404,511	-47,241	-0,002	0,001
-403,496	-200,000	-0,010	-0,175
-402,482	-45,595	0,034	0,012
-401,467	-32,531	0,129	0,053
-400,452	-47,906	0,049	-0,017
-399,438	800,000	-0,045	0,100
-398,423	200,848	-0,022	-0,025
-397,409	-200,000	0,006	-0,050
-396,394	-33,789	0,099	0,040
-395,379	-200,000	-0,026	0,107
-394,365	-57,152	0,155	0,050
-393,350	-186,967	0,168	0,002
-392,336	-200,000	-0,015	-0,080
-391,321	123,532	0,118	-0,109
-390,306	800,000	-0,049	-0,142
-389,292	-200,000	-0,006	0,044
-388,277	-200,000	0,015	0,058
-387,263	-28,626	-0,083	-0,035
-386,248	-200,000	0,005	-0,016
-385,233	-200,000	-0,023	0,153
-384,219	305,167	-0,017	-0,024
-383,204	-13,969	-0,098	0,046
-382,190	459,583	-0,016	-0,026
-381,175	-89,400	-0,080	0,017
-380,160	-117,999	0,109	0,014
-379,146	-70,959	-0,078	-0,021
-378,131	800,000	0,018	0,047
-377,117	-13,875	-0,107	0,050
-376,102	321,209	-0,114	-0,160
-375,088	800,000	0,036	-0,074
-374,073	-57,790	-0,100	0,032
-373,058	-200,000	0,021	-0,108
-372,044	-54,363	0,044	0,015
-371,029	-34,783	0,059	0,024
-370,015	-200,000	-0,025	0,086
-369,000	-75,803	-0,060	-0,016
-367,985	56,512	-0,071	-0,050
-366,971	50,141	-0,080	-0,056
-365,956	102,621	0,026	0,022
-364,942	-200,000	-0,009	0,051
-363,927	584,015	0,041	0,074
-362,912	800,000	-0,018	-0,043
-361,898	-92,815	-0,220	0,045
-360,883	-200,000	-0,009	0,057
-359,869	800,000	0,025	0,064
-358,854	-70,185	0,055	0,015
-357,839	-38,385	0,087	0,034
-356,825	151,454	0,168	-0,168
-355,810	-200,000	-0,000	-0,024
-354,796	-13,803	-0,098	-0,046
-353,781	-200,000	-0,017	-0,161
-352,766	246,545	-0,085	-0,106
-351,752	24,373	-0,080	0,048
-350,737	185,027	0,094	0,103
-349,723	100,109	-0,064	0,054
-348,708	800,000	0,045	-0,122
-347,693	-71,728	-0,068	0,018
-346,679	-55,015	-0,123	-0,040
-345,664	-91,828	-0,114	-0,023
-344,650	800,000	0,041	-0,111
-343,635	-104,343	0,155	-0,026
-342,620	151,762	0,052	-0,052
-341,606	800,000	0,015	-0,040
-340,591	-128,630	-0,065	0,007
-339,577	-131,250	-0,160	-0,015
-338,562	-200,000	0,007	-0,099
-337,548	-200,000	-0,016	0,062
-336,533	-171,865	-0,172	0,004
-335,518	30,543	0,048	0,030
-334,504	39,934	-0,136	-0,089
-333,489	-80,584	-0,149	-0,036
-332,475	268,843	-0,015	-0,019
-331,460	-175,778	-0,082	0,002
-330,445	-200,000	0,031	-0,150
-329,431	83,986	0,126	-0,100
-328,416	6,720	-0,084	0,046
-327,402	800,000	0,067	-0,159
-326,387	-112,307	-0,037	0,005
-325,372	800,000	-0,055	-0,118
-324,358	-200,000	0,005	-0,104
-323,343	-200,000	-0,000	-0,103
-322,329	-200,000	0,039	0,126
-321,314	86,044	-0,109	0,088
-320,299	-72,280	-0,090	-0,024
-319,285	800,000	0,013	0,031
-318,270	315,505	-0,050	-0,069
-317,256	-122,714	-0,066	-0,008
-316,241	-200,000	0,013	0,045
-315,226	6,208	0,135	0,073
-314,212	-94,706	-0,038	0,007
-313,197	-45,052	0,057	0,021
-312,183	-200,000	-0,023	-0,159
-311,168	-200,000	-0,004	-0,151
-310,153	237,547	-0,095	-0,115
-309,139	213,776	0,043	-0,050
-308,124	-27,965	0,128	-0,054
-307,110	-48,485	0,074	0,026
-306,095	-36,659	0,088	0,034
-305,080	-123,855	-0,052	0,006
-304,066	72,704	0,121	0,092
-303,051	-44,514	-0,078	-0,028
-302,037	-200,000	0,000	0,046
-301,022	410,046	0,015	0,024
-300,008	759,115	0,041	-0,081
-298,993	79,109	0,139	0,109
-297,978	800,000	-0,013	0,041
-296,964	-200,000	-0,004	-0,159
-295,949	800,000	0,018	0,057
-294,935	-200,000	-0,009	0,072
-293,920	185,200	-0,136	-0,148
-292,905	-200,000	-0,003	0,099
-291,891	-200,000	0,039	-0,205
-290,876	48,840	0,118	-0,081
-289,862	800,000	0,053	-0,118
-288,847	-23,486	0,062	-0,027
-287,832	800,000	-0,012	-0,028
-286,818	-200,000	-0,014	0,071
-285,803	-141,024	-0,046	-0,003
-284,789	14,411	0,133	0,076
-283,774	800,000	-0,004	0,012
-282,759	-37,934	-0,062	0,024
-281,745	149,361	-0,120	-0,118
-280,730	-79,433	-0,041	0,010
-279,716	679,282	-0,059	-0,113
-278,701	-200,000	0,000	0,034
-277,686	800,000	0,035	0,083
-276,672	-200,000	0,011	-0,060
-275,657	-52,435	-0,150	0,051
-274,643	800,000	-0,038	-0,096
-273,628	528,258	0,072	-0,124
-272,613	35,147	0,097	-0,062
-271,599	394,396	0,068	-0,103
-270,584	-200,000	-0,052	0,169
-269,570	-69,009	-0,105	0,029
-268,555	25,984	0,029	-0,018
-267,540	356,710	0,054	-0,079
-266,526	20,120	-0,152	0,090
-265,511	-200,000	0,001	0,104
-264,497	800,000	0,029	0,085
-263,482	549,039	0,037	0,065
-262,467	113,884	0,002	-0,002
-261,453	57,963	0,014	-0,010
-260,438	800,000	-0,063	-0,172
-259,424	-54,989	-0,155	-0,051
-258,409	-12,693	-0,040	0,019
-257,395	149,259	-0,005	-0,005
-256,380	17,067	-0,046	-0,027
-255,365	-110,626	-0,120	0,018
-254,351	94,158	0,093	-0,077
-253,336	159,854	0,100	-0,102
-252,322	106,639	-0,135	-0,117
-251,307	-104,880	-0,039	-0,007
-250,292	800,000	-0,029	0,086
-249,278	800,000	-0,056	0,141
-248,263	-200,000	0,022	-0,096
-247,249	35,573	-0,108	0,069
-246,234	64,952	-0,039	0,029
-245,219	-100,898	-0,076	-0,013
-244,205	43,570	-0,039	-0,026
-243,190	-92,568	0,049	0,010
-242,176	-200,000	-0,030	0,218
-241,161	545,305	-0,010	0,018
-240,146	800,000	0,032	0,096
-239,132	296,486	0,051	0,068
-238,117	-48,899	-0,072	-0,025
-237,103	800,000	0,016	-0,037
-236,088	-153,912	0,045	0,002
-235,073	-200,000	-0,000	-0,010
-234,059	800,000	-0,035	0,097
-233,044	-70,826	0,103	0,028
-232,030	236,082	-0,103	0,125
-231,015	-200,000	-0,000	0,043
-230,000	23,022	0,069	-0,041
-228,986	-15,625	-0,101	-0,047
-227,971	38,732	-0,036	0,024
-226,957	98,118	-0,184	0,155
-225,942	-77,364	0,085	-0,021
-224,927	-200,000	-0,014	0,076
-223,913	-28,835	-0,040	0,017
-222,898	-200,000	-0,004	0,025
-221,884	144,855	-0,025	0,025
-220,869	-8,791	0,088	-0,043
-219,855	148,077	0,050	0,050
-218,840	254,273	-0,023	0,029
-217,825	-61,296	0,067	-0,020
-216,811	642,211	-0,071	0,133
-215,796	177,732	-0,093	-0,099
-214,782	-107,500	0,136	-0,021
-213,767	248,023	0,058	-0,071
-212,752	147,398	0,075	-0,074
-211,738	489,151	0,073	0,122
-210,723	-87,666	0,043	0,009
-209,709	-200,000	0,021	-0,127
-208,694	-200,000	-0,014	-0,058
-207,679	13,784	-0,093	-0,052
-206,665	-9,950	-0,119	0,057
-205,650	-154,086	0,143	0,007
-204,636	454,165	-0,025	-0,041
-203,621	-81,719	0,084	-0,020
-202,606	248,795	0,036	0,044
-201,592	-53,493	-0,116	0,038
-200,577	-200,000	-0,002	-0,008
-199,563	-200,000	-0,004	-0,095
-198,548	-200,000	-0,031	-0,113
-197,533	-34,307	-0,035	-0,014
-196,519	-42,295	0,040	0,015
-195,504	800,000	-0,031	-0,090
-194,490	800,000	-0,042	-0,110
-193,475	-65,669	-0,188	-0,055
-192,460	800,000	0,040	0,115
-191,446	-200,000	0,014	-0,045
-190,431	201,637	0,080	0,090
-189,417	273,630	-0,029	0,038
-188,402	532,775	0,054	0,093
-187,387	800,000	0,010	0,031
-186,373	-200,000	-0,009	-0,091
-185,358	-200,000	-0,015	-0,084
-184,344	-101,209	0,121	0,021
-183,329	-22,214	0,089	0,039
-182,315	-125,610	0,044	0,005
-181,300	56,713	0,007	0,005
-180,285	-200,000	-0,006	-0,129
-179,271	-200,000	0,049	0,000
-178,256	-200,000	0,019	0,131
-177,242	32,284	0,060	0,038
-176,227	113,005	-0,045	0,040
-175,212	-2,781	0,032	0,016
-174,198	308,984	-0,088	-0,120
-173,183	800,000	-0,039	-0,117
-172,169	-200,000	-0,023	0,105
-171,154	-200,000	0,009	0,104
-170,139	121,227	-0,071	0,065
-169,125	-73,884	-0,146	-0,038
-168,110	-25,513	0,097	0,042
-167,096	-200,000	0,008	-0,035
-166,081	-200,000	-0,010	0,054
-165,066	-119,318	0,044	0,005
-164,052	277,687	0,053	0,068
-163,037	165,261	-0,154	0,158
-162,023	-9,079	-0,031	0,015
-161,008	-200,000	-0,007	0,095
-159,993	475,183	0,033	-0,055
-158,979	98,730	0,018	-0,015
-157,964	800,000	-0,075	-0,164
-156,950	554,272	-0,038	-0,066
-155,935	-200,000	0,008	0,032
-154,920	245,102	0,088	0,108
-153,906	122,187	0,065	-0,059
-152,891	-200,000	-0,007	-0,073
-151,877	-59,054	-0,159	-0,050
-150,862	-186,890	-0,225	0,002
-149,847	684,631	-0,060	-0,115
-148,833	15,633	0,133	0,076
-147,818	9,338	0,051	0,028
-146,804	-149,389	0,082	-0,005
-145,789	-200,000	0,017	0,074
-144,775	800,000	0,009	-0,024
-143,760	383,089	-0,075	-0,112
-142,745	-26,824	-0,200	-0,085
-141,731	106,898	0,010	-0,009
-140,716	99,430	0,016	-0,014
-139,702	-77,907	-0,071	-0,018
-138,687	800,000	0,067	0,142
-137,672	65,066	0,111	0,081
-136,658	800,000	-0,076	-0,157
-135,643	229,433	-0,031	-0,036
-134,629	649,492	0,033	-0,061
-133,614	20,737	0,035	0,020
-132,599	-71,888	0,044	0,012
-131,585	-200,000	-0,006	0,031
-130,570	-87,998	-0,087	0,019
-129,556	800,000	0,053	-0,170
-128,541	-90,037	0,058	0,012
-127,526	800,000	0,019	0,052
-126,512	-200,000	0,057	0,190
-125,497	-200,000	0,019	0,072
-124,483	128,518	-0,180	0,167
-123,468	800,000	-0,029	-0,084
-122,453	-200,000	-0,005	-0,141
-121,439	800,000	0,021	0,059
-120,424	153,177	-0,034	0,034
-119,410	37,706	-0,056	-0,036
-118,395	-200,000	0,028	-0,169
-117,380	170,965	0,027	0,028
-116,366	-200,000	-0,012	0,090
-115,351	55,045	-0,102	-0,071
-114,337	-200,000	-0,012	-0,101
-113,322	800,000	-0,037	-0,119
-112,307	-200,000	-0,021	-0,082
-111,293	35,563	0,049	-0,031
-110,278	45,036	0,203	-0,135
-109,264	800,000	0,036	0,073
-108,249	718,492	-0,049	-0,095
-107,234	-200,000	-0,009	-0,111
-106,220	85,685	0,145	-0,116
-105,205	-45,401	0,141	0,051
-104,191	-200,000	0,004	-0,034
-103,176	-6,089	0,059	0,029
-102,162	55,905	0,048	0,034
-101,147	-87,586	-0,035	0,008
-100,132	-200,000	-0,004	-0,112
-99,118	-113,792	0,146	0,020
-98,103	344,921	0,039	-0,056
-97,089	59,788	-0,143	0,102
-96,074	121,308	0,039	-0,035
-95,059	102,505	0,134	-0,114
-94,045	164,340	-0,083	-0,084
-93,030	615,557	-0,042	0,078
-92,016	129,590	-0,074	-0,069
-91,001	-200,000	-0,005	0,087
-89,986	800,000	0,024	0,061
-88,972	746,208	0,081	0,158
-87,957	4,580	-0,128	-0,068
-86,943	-200,000	0,008	0,107
-85,928	605,534	-0,034	0,061
-84,913	40,246	-0,032	-0,021
-83,899	-32,008	0,097	-0,039
-82,884	86,225	-0,040	0,032
-81,870	135,627	0,090	0,085
-80,855	-200,000	-0,015	-0,054
-79,840	800,000	-0,021	-0,061
-78,826	-200,000	-0,028	-0,146
-77,811	-8,306	-0,049	-0,024
-76,797	201,889	-0,105	0,117
-75,782	-70,523	0,035	-0,009
-74,767	-200,000	0,017	-0,078
-73,753	-77,657	0,143	0,036
-72,738	216,437	0,044	0,051
-71,724	62,428	0,080	0,058
-70,709	213,072	0,060	-0,069
-69,694	329,412	0,030	0,042
-68,680	101,269	-0,010	0,008
-67,665	184,250	0,078	0,083
-66,651	587,781	0,046	0,082
-65,636	-115,453	-0,096	0,013
-64,622	-200,000	-0,026	-0,109
-63,607	78,774	-0,056	0,043
-62,592	800,000	-0,027	0,082
-61,578	223,287	-0,030	-0,035
-60,563	-153,758	0,068	-0,003
-59,549	-200,000	0,003	0,029
-58,534	-101,764	-1,411	-0,245
-57,519	512,013	-0,838	-1,420
-56,505	-200,000	-0,748	-4,422
-55,490	-28,286	0,483	-0,201
-54,476	800,000	4,765	11,493
-53,461	-200,000	13,750	251,992
-52,446	-200,000	689,603	2250,161
-51,432	592,283	1619,813	2910,742
-50,417	119,404	1631,604	1463,430
-49,403	74,368	1286,330	978,409
-48,388	38,294	1022,473	658,482
-47,373	24,333	980,580	585,722
-46,359	23,614	970,042	577,052
-45,344	22,610	965,823	571,249
-44,330	22,582	964,348	570,262
-43,315	22,488	962,793	569,016
-42,300	22,432	961,905	568,285
-41,286	22,402	960,872	567,557
-40,271	22,400	960,047	567,038
-39,257	22,406	958,932	566,377
-38,242	22,428	958,069	565,917
-37,227	22,375	957,200	565,208
-36,213	22,341	956,419	564,615
-35,198	22,321	955,519	563,999
-34,184	22,411	955,011	563,965
-33,169	22,364	954,022	563,207
-32,154	22,365	953,358	562,797
-31,140	22,456	952,087	562,316
-30,125	22,388	951,471	561,713
-29,111	22,393	950,666	561,232
-28,096	22,403	949,884	560,778
-27,082	22,472	949,194	560,571
-26,067	22,425	948,522	560,000
-25,052	22,440	947,713	559,549
-24,038	22,391	947,175	559,052
-23,023	22,435	946,527	558,790
-22,009	22,442	945,823	558,373
-20,994	22,401	945,243	557,876
-19,979	22,466	944,452	557,595
-18,965	22,361	944,033	556,992
-17,950	22,415	943,349	556,739
-16,936	22,406	942,607	556,248
-15,921	22,407	941,884	555,803
-14,906	22,338	941,129	555,116
-13,892	22,296	940,678	554,697
-12,877	22,230	940,297	554,241
-11,863	22,263	939,363	553,771
-10,848	22,247	938,827	553,384
-9,833	22,359	938,296	553,403
-8,819	22,325	937,831	553,000
-7,804	22,261	937,151	552,375
-6,790	22,271	936,619	552,069
-5,775	22,297	935,917	551,715
-4,760	22,350	935,238	551,461
-3,746	22,318	934,679	551,010
-2,731	22,150	934,044	550,084
-1,717	22,109	933,196	549,433
-0,702	22,111	932,553	549,040
0,313	21,907	931,983	548,890
1,327	24,366	929,462	555,066
2,342	31,954	807,530	502,755
3,356	27,080	507,677	307,759
4,371	3,326	372,205	195,580
5,386	0,309	355,163	182,928
6,400	-1,237	348,955	177,859
7,415	-1,994	346,100	175,486
8,429	-2,148	344,456	174,455
9,444	-2,255	343,584	173,870
10,459	-2,164	342,981	173,658
11,473	-2,105	342,381	173,408
12,488	-1,822	341,996	173,530
13,502	-1,575	341,452	173,530
14,517	-1,826	340,959	172,968
15,531	-2,155	340,289	172,229
16,546	-2,071	339,917	172,124
17,561	-2,148	339,524	171,819
18,575	-1,915	339,003	171,812
19,590	-2,166	338,743	171,373
20,604	-2,123	338,544	171,305
21,619	-2,200	338,030	170,941
22,634	-2,096	337,746	170,904
23,648	-2,086	337,221	170,633
24,663	-1,972	336,964	170,620
25,677	-1,988	336,684	170,445
26,692	-2,008	336,443	170,285
27,707	-1,974	336,043	170,106
28,721	-2,083	335,632	169,758
29,736	-2,057	335,314	169,611
30,750	-2,084	335,061	169,437
31,765	-2,241	334,850	169,135
32,780	-2,188	334,685	169,097
33,794	-2,044	334,326	169,066
34,809	-2,092	334,076	168,869
35,823	-2,075	333,763	168,716
36,838	-2,108	333,479	168,519
37,853	-2,303	333,159	168,119
38,867	-2,155	332,905	168,145
39,882	-2,189	332,529	167,902
40,896	-2,180	332,431	167,847
41,911	-2,169	332,004	167,630
42,926	-2,279	331,720	167,346
43,940	-2,239	331,546	167,288
44,955	-2,187	331,166	167,141
45,969	-2,380	331,032	166,839
46,984	-2,443	330,674	166,573
47,999	-2,525	330,363	166,309
49,013	-2,646	330,132	166,040
50,028	-2,758	329,782	165,723
51,042	-2,966	329,590	165,376
52,057	-2,680	329,070	165,423
53,071	-2,798	329,062	165,272
54,086	-2,708	328,784	165,219
55,101	-2,785	328,614	165,032
56,115	-2,457	328,302	165,229
57,130	-2,374	328,401	165,357
58,144	-1,944	327,857	165,553
59,159	-2,042	327,637	165,317
60,174	-1,887	327,504	165,409
61,188	-1,856	327,237	165,294
62,203	-1,923	326,972	165,070
63,217	-2,050	326,929	164,892
64,232	-1,889	326,471	164,826
65,247	-1,905	326,332	164,723
66,261	-1,916	326,001	164,529
67,276	-2,143	325,609	164,063
68,290	-2,300	325,250	163,693
69,305	-2,345	324,933	163,469
70,320	-2,349	324,645	163,304
71,334	-2,216	324,634	163,432
72,349	-1,942	324,528	163,670
73,363	-1,923	324,239	163,530
74,378	-2,033	323,878	163,211
75,393	-2,014	323,891	163,224
76,407	-2,070	323,549	162,976
77,422	-2,024	323,261	162,867
78,436	-1,814	322,901	162,903
79,451	-2,129	322,764	162,471
80,466	-2,142	322,367	162,242
81,480	-2,190	322,088	162,035
82,495	-2,324	321,972	161,814
83,509	-2,312	321,586	161,619
84,524	-2,284	321,266	161,475
85,539	-2,331	320,973	161,262
86,553	-2,530	320,952	161,018
87,568	-2,308	320,539	161,040
88,582	-2,460	320,378	160,778
89,597	-2,460	320,294	160,721
90,611	-2,238	319,979	160,792
91,626	-2,168	319,790	160,759
92,641	-2,183	319,580	160,623
93,655	-2,139	319,319	160,526
94,670	-2,207	319,097	160,325
95,684	-2,127	318,805	160,252
96,699	-2,229	318,564	160,006
97,714	-2,370	318,405	159,758
98,728	-2,461	318,205	159,545
99,743	-2,399	317,814	159,401
100,757	-2,426	317,691	159,296
101,772	-2,333	317,425	159,249
102,787	-2,277	317,372	159,269
103,801	-2,260	317,049	159,111
104,816	-2,212	316,742	158,995
105,830	-2,161	316,762	159,047
106,845	-2,127	316,420	158,896
107,860	-2,068	316,173	158,823
108,874	-2,173	315,999	158,607
109,889	-2,307	315,815	158,356
110,903	-2,261	315,417	158,193
111,918	-2,144	315,124	158,157
112,933	-2,259	315,007	157,961
113,947	-2,149	314,730	157,926
114,962	-2,175	314,504	157,770
115,976	-2,201	314,444	157,699
116,991	-2,152	314,159	157,594
118,006	-2,163	313,862	157,419
119,020	-2,037	313,706	157,462
120,035	-2,002	313,495	157,380
121,049	-2,078	313,553	157,313
122,064	-2,039	313,086	157,106
123,079	-2,114	312,937	156,937
124,093	-2,151	312,784	156,807
125,108	-2,379	312,289	156,303
126,122	-2,327	311,972	156,185
127,137	-2,532	311,872	155,904
128,151	-2,447	311,604	155,845
129,166	-2,350	311,459	155,863
130,181	-2,422	311,085	155,585
131,195	-2,425	310,705	155,378
132,210	-2,324	310,674	155,455
133,224	-2,030	310,568	155,699
134,239	-2,144	310,380	155,471
135,254	-2,214	310,047	155,216
136,268	-2,255	309,838	155,054
137,283	-2,298	309,528	154,840
138,297	-2,628	309,281	154,355
139,312	-2,713	309,176	154,199
140,327	-2,290	308,970	154,529
141,341	-1,979	308,841	154,777
142,356	-1,897	308,687	154,772
143,370	-1,732	308,579	154,876
144,385	-1,790	308,337	154,680
145,400	-1,859	308,040	154,446
146,414	-1,830	307,759	154,321
147,429	-1,797	307,736	154,331
148,443	-1,912	307,465	154,061
149,458	-1,873	307,263	153,987
150,473	-1,867	307,057	153,875
151,487	-1,907	306,742	153,663
152,502	-2,006	306,577	153,463
153,516	-1,888	306,369	153,468
154,531	-1,899	306,176	153,346
155,546	-1,859	305,874	153,223
156,560	-1,944	305,678	153,023
157,575	-2,103	305,507	152,759
158,589	-2,149	305,298	152,593
159,604	-1,826	304,997	152,764
160,619	-1,829	304,768	152,632
161,633	-1,877	304,624	152,497
162,648	-1,972	304,492	152,318
163,662	-1,839	304,457	152,425
164,677	-1,826	304,050	152,221
165,692	-1,935	303,984	152,061
166,706	-2,020	303,831	151,884
167,721	-1,933	303,424	151,756
168,735	-1,881	303,317	151,744
169,750	-1,932	303,305	151,671
170,764	-1,755	302,979	151,676
171,779	-1,845	302,868	151,514
172,794	-1,715	302,690	151,546
173,808	-1,824	302,375	151,263
174,823	-2,026	301,933	150,822
175,837	-2,433	301,690	150,270
176,852	-2,156	301,747	150,568
177,867	-1,851	301,630	150,808
178,881	-1,877	301,497	150,702
179,896	-1,645	301,048	150,702
180,910	-1,773	301,114	150,590
181,925	-1,618	300,753	150,554
182,940	-1,681	300,580	150,390
183,954	-1,747	300,429	150,234
184,969	-1,664	300,106	150,143
185,983	-1,747	300,057	150,021
186,998	-1,808	299,780	149,808
188,013	-1,718	299,543	149,766
189,027	-1,779	299,409	149,624
190,042	-1,911	299,217	149,381
191,056	-1,640	298,859	149,464
192,071	-1,654	298,707	149,360
193,086	-1,570	298,588	149,372
194,100	-1,640	298,386	149,187
195,115	-1,757	298,201	148,963
196,129	-1,933	297,979	148,662
197,144	-1,746	297,660	148,677
198,159	-1,539	297,565	148,825
199,173	-1,617	297,269	148,586
200,188	-1,528	297,049	148,552
201,202	-1,902	296,918	148,098
202,217	-2,270	296,497	147,505
203,232	-2,403	296,254	147,237
204,246	-2,054	296,303	147,599
205,261	-1,730	295,985	147,751
206,275	-1,740	295,773	147,622
207,290	-1,751	295,734	147,578
208,304	-1,789	295,593	147,458
209,319	-1,724	295,322	147,374
210,334	-1,623	295,088	147,344
211,348	-1,797	294,812	147,020
212,363	-1,782	294,712	146,972
213,377	-1,601	294,511	147,039
214,392	-1,831	294,528	146,805
215,407	-1,919	293,995	146,439
216,421	-2,112	293,841	146,158
217,436	-2,036	293,509	146,055
218,450	-2,113	293,433	145,928
219,465	-1,928	293,264	146,015
220,480	-1,786	293,125	146,073
221,494	-1,867	292,914	145,874
222,509	-1,910	292,803	145,763
223,523	-1,952	292,601	145,608
224,538	-1,790	292,609	145,759
225,553	-1,928	292,346	145,479
226,567	-1,511	292,099	145,755
227,582	-1,669	291,817	145,445
228,596	-1,480	291,681	145,550
229,611	-1,622	291,629	145,371
230,626	-1,599	291,336	145,236
231,640	-2,048	291,033	144,630
232,655	-2,365	290,612	144,097
233,669	-2,474	290,464	143,905
234,684	-2,334	290,229	143,912
235,699	-2,462	290,325	143,821
236,713	-2,271	290,009	143,839
237,728	-2,077	289,788	143,906
238,742	-2,071	289,735	143,873
239,757	-1,731	289,592	144,121
240,772	-1,739	289,441	144,026
241,786	-1,809	289,129	143,789
242,801	-1,988	288,965	143,520
243,815	-1,912	288,776	143,488
244,830	-1,778	288,523	143,479
245,844	-1,979	288,209	143,115
246,859	-1,914	288,293	143,207
247,874	-2,162	288,021	142,818
248,888	-2,056	287,791	142,794
249,903	-1,893	287,736	142,913
250,917	-1,674	287,473	142,981
251,932	-1,561	287,380	143,032
252,947	-1,052	287,447	143,545
253,961	-1,106	287,041	143,278
254,976	-0,220	287,592	144,397
255,990	2,171	288,229	147,021
257,005	2,752	288,536	147,727
258,020	3,955	288,788	149,009
259,034	4,189	288,677	149,165
260,049	4,019	288,378	148,833
261,063	3,898	288,107	148,562
262,078	4,161	288,113	148,807
263,093	4,829	288,002	149,381
264,107	4,738	287,758	149,153
265,122	4,700	287,706	149,076
266,136	4,922	287,550	149,196
267,151	4,839	287,487	149,070
268,166	4,769	287,033	148,754
269,180	4,718	286,895	148,621
270,195	4,788	286,734	148,590
271,209	4,606	286,565	148,316
272,224	4,608	286,362	148,199
273,239	4,365	286,140	147,839
274,253	4,378	285,977	147,753
275,268	4,885	285,931	148,201
276,282	4,977	285,665	148,138
277,297	4,678	285,539	147,774
278,312	4,970	285,332	147,933
279,326	4,828	285,198	147,714
280,341	4,575	284,976	147,345
281,355	4,520	284,754	147,165
282,370	4,516	284,552	147,043
283,384	4,664	284,253	147,017
284,399	4,516	284,119	146,794
285,414	4,436	283,900	146,591
286,428	4,533	283,660	146,547
287,443	4,239	283,654	146,252
288,457	4,291	283,319	146,115
289,472	4,253	283,112	145,959
290,487	4,302	282,907	145,887
291,501	3,991	282,756	145,502
292,516	3,903	282,475	145,261
293,530	3,786	282,434	145,116
294,545	4,134	282,413	145,421
295,560	4,661	282,001	145,692
296,574	4,227	281,808	145,172
297,589	4,340	281,751	145,236
298,603	4,630	281,694	145,466
299,618	4,622	281,554	145,373
300,633	4,464	281,178	145,018
301,647	4,337	281,124	144,858
302,662	4,523	280,965	144,937
303,676	4,280	280,615	144,517
304,691	4,035	280,483	144,206
305,706	3,946	280,117	143,922
306,720	3,819	280,034	143,747
307,735	3,905	279,872	143,732
308,749	4,183	279,787	143,935
309,764	4,309	279,542	143,913
310,779	3,880	279,389	143,422
311,793	3,971	279,049	143,319
312,808	4,055	278,903	143,309
313,822	4,060	278,803	143,250
314,837	3,976	278,489	142,998
315,852	3,829	278,271	142,736
316,866	3,795	278,163	142,637
317,881	4,111	277,998	142,833
318,895	4,104	277,736	142,679
319,910	4,062	277,555	142,535
320,925	3,895	277,328	142,251
321,939	3,951	277,180	142,214
322,954	4,043	277,308	142,353
323,968	4,145	277,086	142,319
324,983	4,251	276,836	142,276
325,997	4,274	276,692	142,211
327,012	4,363	276,512	142,188
328,027	4,153	276,490	141,970
329,041	4,218	276,168	141,852
330,056	4,112	276,071	141,692
331,070	4,159	275,751	141,558
332,085	4,304	275,520	141,560
333,100	4,183	275,314	141,331
334,114	4,240	275,004	141,212
335,129	3,960	274,997	140,938
336,143	4,365	274,995	141,296
337,158	4,409	274,819	141,233
338,173	4,385	274,608	141,090
339,187	4,163	274,356	140,745
340,202	4,096	274,282	140,633
341,216	4,334	274,072	140,730
342,231	4,248	273,839	140,520
343,246	4,140	273,804	140,391
344,260	4,160	273,515	140,249
345,275	4,257	273,522	140,328
346,289	4,490	273,410	140,470
347,304	4,372	273,251	140,269
348,319	4,280	272,902	139,993
349,333	4,331	272,735	139,942
350,348	4,482	272,726	140,062
351,362	4,527	272,446	139,946
352,377	4,371	272,380	139,758
353,392	4,511	272,110	139,734
354,406	4,535	271,936	139,654
355,421	191,708	1332,483	1411,123
356,435	154,865	1461,791	1411,254
