DTS Sentinel unit serial number:	SN410029Multiplexer serial number:	ORYXHardware model number:	OX2-SRSoftware version number:	ORYX F/W v4,00 Oryx Data Collector v3.7.2.0data status	okinstallation	B4 Nyhavnadifferential loss correction	single-endedforward channel	channel 2reverse channel	N/Adate	2023/12/19time	07:15:13forward acquisition time	300,00reverse acquisition time	0,00gamma	499,1914k internal	0,3127k external	0,3127temperature offset calibration	1,0000default loss term (dB/km)	0,3820temperature slope calibration	1,0000multiplexer offset coefficient	1,0000multiplexer slope coefficient	1,0000fibre end	0,00T internal ref (°C)	21,23T ext. ref 1 (°C)	6,47T ext. ref 2 (°C)	6,61length (m)	temperature (°C)	Stokes	anti-Stokes-744,400	800,000	0,039	0,095
-743,385	22,465	-0,241	0,146
-742,371	482,474	0,063	0,108
-741,356	41,764	-0,122	0,082
-740,342	800,000	0,015	-0,032
-739,327	150,844	-0,155	0,157
-738,312	-200,000	-0,004	-0,088
-737,298	-9,866	-0,198	0,098
-736,283	-56,610	-0,081	-0,027
-735,269	-41,804	-0,245	0,093
-734,254	-200,000	0,015	-0,117
-733,239	-30,479	-0,405	-0,170
-732,225	-59,875	0,075	0,024
-731,210	547,048	0,068	-0,122
-730,196	44,924	-0,190	-0,130
-729,181	800,000	0,048	-0,142
-728,167	-200,000	-0,016	-0,098
-727,152	-11,539	-0,115	0,056
-726,137	659,865	-0,012	0,022
-725,123	-200,000	-0,068	-0,000
-724,108	205,535	-0,065	-0,075
-723,094	-95,980	-0,113	0,022
-722,079	340,567	-0,112	-0,163
-721,064	248,518	-0,104	-0,131
-720,050	-200,000	-0,036	0,119
-719,035	-200,000	-0,005	0,079
-718,021	495,479	-0,015	-0,025
-717,006	-63,605	-0,083	0,025
-715,991	95,567	0,107	-0,090
-714,977	-200,000	0,017	-0,148
-713,962	-136,821	-0,064	0,005
-712,948	-200,000	0,150	-0,001
-711,933	167,219	-0,007	-0,007
-710,918	256,352	-0,079	-0,101
-709,904	116,727	-0,091	0,083
-708,889	-80,167	-0,089	0,022
-707,875	178,025	-0,100	-0,109
-706,860	70,353	-0,083	-0,064
-705,845	704,998	-0,035	-0,068
-704,831	355,690	0,022	-0,033
-703,816	-34,794	-0,158	-0,064
-702,802	273,908	-0,102	-0,134
-701,787	-96,734	0,063	0,012
-700,772	-76,153	-0,080	-0,021
-699,758	-155,073	-0,091	0,004
-698,743	197,616	-0,036	-0,040
-697,729	-28,002	0,073	-0,031
-696,714	-142,421	-0,061	-0,004
-695,699	-200,000	-0,047	-0,230
-694,685	-200,000	0,008	0,095
-693,670	800,000	-0,013	-0,036
-692,656	327,599	-0,056	-0,081
-691,641	103,194	0,099	0,086
-690,627	-200,000	-0,038	0,167
-689,612	141,701	-0,071	0,070
-688,597	42,592	-0,108	-0,073
-687,583	377,128	-0,036	0,054
-686,568	163,267	-0,082	-0,085
-685,554	-101,604	0,108	0,019
-684,539	-98,421	-0,068	-0,013
-683,524	800,000	-0,007	-0,022
-682,510	-63,723	-0,063	0,019
-681,495	42,575	-0,050	-0,034
-680,481	-45,446	-0,126	-0,046
-679,466	800,000	-0,067	-0,173
-678,451	-200,000	-0,005	-0,076
-677,437	-24,496	0,061	-0,027
-676,422	371,156	0,032	-0,048
-675,408	66,303	0,118	0,089
-674,393	-200,000	-0,052	-0,177
-673,378	-11,523	-0,093	-0,045
-672,364	-85,890	-0,077	0,018
-671,349	-165,766	0,154	-0,005
-670,335	250,972	-0,038	0,049
-669,320	-200,000	-0,008	0,170
-668,305	-200,000	-0,013	0,056
-667,291	-200,000	-0,003	0,022
-666,276	-138,706	0,051	-0,004
-665,262	-138,559	-0,151	0,012
-664,247	85,906	-0,102	0,083
-663,232	43,345	0,046	-0,031
-662,218	493,472	-0,020	-0,034
-661,203	244,035	-0,094	-0,118
-660,189	-14,144	-0,108	-0,051
-659,174	281,829	-0,083	-0,111
-658,159	-105,967	0,053	-0,009
-657,145	176,670	-0,062	-0,067
-656,130	-200,000	0,010	-0,066
-655,116	674,467	-0,019	-0,037
-654,101	30,321	-0,037	-0,023
-653,086	54,793	-0,200	0,143
-652,072	-26,647	0,062	0,027
-651,057	800,000	-0,031	-0,085
-650,043	22,514	-0,043	0,026
-649,028	161,309	-0,031	0,032
-648,014	800,000	0,053	0,113
-646,999	535,793	0,031	-0,055
-645,984	76,004	0,062	0,049
-644,970	-175,261	-0,087	0,002
-643,955	405,752	-0,077	-0,120
-642,941	303,593	0,031	-0,043
-641,926	-200,000	-0,001	-0,083
-640,911	711,891	0,042	-0,084
-639,897	155,270	0,025	0,026
-638,882	-29,211	0,121	0,051
-637,868	800,000	0,027	-0,072
-636,853	148,077	-0,089	-0,089
-635,838	170,427	-0,116	0,124
-634,824	65,871	-0,033	-0,024
-633,809	-200,000	-0,014	0,069
-632,795	165,499	-0,066	0,069
-631,780	168,647	0,043	-0,045
-630,765	-200,000	0,039	0,142
-629,751	-115,937	-0,026	0,004
-628,736	85,348	-0,069	0,056
-627,722	159,626	0,052	-0,054
-626,707	538,277	0,011	0,019
-625,692	-200,000	-0,016	-0,056
-624,678	226,173	0,014	0,017
-623,663	96,532	-0,047	-0,040
-622,649	266,337	-0,031	-0,040
-621,634	71,868	-0,065	-0,050
-620,619	183,088	-0,086	-0,094
-619,605	99,975	-0,095	-0,081
-618,590	-112,381	0,045	0,007
-617,576	-200,000	0,025	0,103
-616,561	-41,230	-0,049	-0,019
-615,546	41,011	-0,116	0,078
-614,532	-200,000	0,012	-0,060
-613,517	-21,660	0,065	-0,029
-612,503	-200,000	0,000	-0,041
-611,488	-171,139	0,101	-0,002
-610,474	378,555	0,056	-0,086
-609,459	-109,760	-0,158	0,024
-608,444	190,703	-0,096	-0,107
-607,430	-200,000	0,001	0,025
-606,415	-193,042	-0,237	0,002
-605,401	-110,533	0,157	-0,024
-604,386	177,814	0,066	0,071
-603,371	-200,000	-0,009	-0,080
-602,357	314,107	-0,037	0,052
-601,342	110,851	-0,155	-0,139
-600,328	-142,294	-0,063	-0,005
-599,313	-200,000	-0,022	-0,075
-598,298	-200,000	-0,002	-0,030
-597,284	574,618	-0,070	-0,127
-596,269	17,250	0,101	0,059
-595,255	11,384	-0,070	-0,040
-594,240	-191,661	0,104	-0,001
-593,225	304,820	-0,022	-0,030
-592,211	-173,439	-0,124	0,003
-591,196	-33,431	-0,091	-0,037
-590,182	-200,000	-0,001	0,041
-589,167	-101,499	0,071	0,013
-588,152	176,191	0,069	0,074
-587,138	205,521	-0,059	0,068
-586,123	-24,659	0,090	0,039
-585,109	-117,741	-0,139	-0,018
-584,094	-200,000	-0,031	-0,186
-583,079	21,624	0,129	-0,077
-582,065	655,425	-0,049	-0,093
-581,050	-172,511	-0,051	-0,001
-580,036	-200,000	-0,007	0,034
-579,021	142,936	-0,088	-0,086
-578,006	-148,379	-0,127	0,008
-576,992	-56,474	-0,112	-0,036
-575,977	-82,629	0,126	-0,030
-574,963	-44,415	-0,073	-0,027
-573,948	532,517	0,039	-0,068
-572,934	800,000	-0,016	0,048
-571,919	1,398	-0,148	-0,079
-570,904	632,805	-0,050	-0,094
-569,890	528,583	0,025	-0,043
-568,875	23,008	0,046	0,028
-567,861	83,656	0,030	0,025
-566,846	262,913	0,026	0,034
-565,831	20,802	-0,112	-0,067
-564,817	513,010	-0,016	-0,027
-563,802	-200,000	0,018	-0,068
-562,788	28,280	0,087	-0,054
-561,773	-200,000	0,002	-0,011
-560,758	800,000	-0,016	0,043
-559,744	-147,472	0,065	0,004
-558,729	425,065	-0,030	0,049
-557,715	-3,950	-0,119	0,061
-556,700	338,644	-0,075	0,108
-555,685	-200,000	0,038	-0,143
-554,671	357,819	-0,048	0,071
-553,656	16,763	0,028	0,016
-552,642	-200,000	0,035	0,208
-551,627	107,875	0,029	0,025
-550,612	322,295	0,011	0,016
-549,598	-38,810	-0,065	-0,025
-548,583	-144,361	-0,046	0,003
-547,569	102,874	0,082	-0,070
-546,554	-200,000	-0,030	0,103
-545,539	184,926	0,027	-0,029
-544,525	0,068	0,096	0,050
-543,510	-104,371	0,078	0,013
-542,496	800,000	-0,012	0,028
-541,481	78,201	0,066	0,052
-540,466	-62,416	0,110	0,034
-539,452	800,000	0,013	0,036
-538,437	800,000	0,048	0,146
-537,423	238,905	0,070	-0,087
-536,408	-16,399	0,094	0,044
-535,393	-140,482	-0,032	0,002
-534,379	-124,983	-0,026	-0,003
-533,364	-143,646	0,111	0,008
-532,350	-124,679	0,035	0,004
-531,335	-200,000	0,034	0,000
-530,321	308,039	0,094	0,130
-529,306	-25,831	-0,056	-0,024
-528,291	93,974	-0,076	-0,064
-527,277	255,849	-0,076	0,096
-526,262	-200,000	-0,018	-0,109
-525,248	800,000	0,035	0,078
-524,233	-118,878	-0,074	-0,009
-523,218	-171,063	0,128	0,003
-522,204	-25,052	-0,094	0,041
-521,189	257,785	-0,046	-0,058
-520,175	310,794	-0,034	-0,047
-519,160	-200,000	-0,026	-0,114
-518,145	800,000	0,070	-0,176
-517,131	207,204	0,019	0,022
-516,116	697,138	-0,043	0,083
-515,102	18,549	0,081	-0,048
-514,087	56,784	-0,089	-0,064
-513,072	147,023	-0,016	0,016
-512,058	105,852	0,050	0,044
-511,043	-112,447	0,083	0,012
-510,029	-29,641	-0,046	-0,019
-509,014	-200,000	-0,001	-0,062
-507,999	-200,000	0,009	-0,085
-506,985	-200,000	0,016	-0,073
-505,970	-37,037	-0,118	-0,047
-504,956	730,872	0,033	-0,065
-503,941	-200,000	0,022	-0,109
-502,926	-200,000	0,004	0,086
-501,912	800,000	-0,059	0,165
-500,897	229,829	0,044	-0,054
-499,883	-200,000	-0,005	-0,101
-498,868	595,690	-0,043	-0,079
-497,853	-9,272	-0,089	0,044
-496,839	-55,637	0,017	0,006
-495,824	-62,135	0,142	0,043
-494,810	78,786	0,093	0,073
-493,795	51,433	-0,132	-0,092
-492,781	374,892	-0,034	-0,051
-491,766	-200,000	-0,006	-0,103
-490,751	-82,724	-0,153	0,036
-489,737	-111,344	0,055	-0,008
-488,722	-33,816	0,161	0,065
-487,708	800,000	0,043	0,111
-486,693	-66,690	0,120	-0,035
-485,678	-50,263	0,067	-0,023
-484,664	-42,157	0,073	0,027
-483,649	-200,000	0,010	-0,039
-482,635	-20,897	-0,023	-0,010
-481,620	571,900	0,031	-0,056
-480,605	47,256	0,060	0,041
-479,591	-82,759	0,074	-0,018
-478,576	-136,303	0,055	0,005
-477,562	273,954	-0,071	0,093
-476,547	-75,042	-0,049	0,013
-475,532	-155,227	-0,039	0,002
-474,518	448,511	-0,070	-0,113
-473,503	39,443	0,046	0,030
-472,489	-18,821	0,092	0,042
-471,474	506,373	-0,092	0,157
-470,459	114,971	-0,029	0,026
-469,445	6,565	-0,113	0,062
-468,430	41,592	0,102	0,068
-467,416	-200,000	-0,017	0,118
-466,401	62,894	-0,010	0,007
-465,386	-104,023	-0,069	0,012
-464,372	679,908	0,058	0,111
-463,357	29,092	-0,147	0,092
-462,343	43,451	0,039	0,026
-461,328	-200,000	0,020	-0,207
-460,313	157,437	-0,129	-0,131
-459,299	-14,908	-0,018	-0,009
-458,284	-38,913	0,093	0,036
-457,270	32,497	0,040	0,025
-456,255	-200,000	0,018	-0,098
-455,241	-200,000	-0,000	-0,097
-454,226	715,992	-0,067	0,131
-453,211	749,140	0,023	0,046
-452,197	800,000	-0,035	0,078
-451,182	-157,259	-0,101	-0,004
-450,168	-200,000	0,161	-0,000
-449,153	-200,000	0,020	-0,105
-448,138	717,042	0,075	-0,147
-447,124	191,583	0,010	-0,011
-446,109	343,646	0,001	-0,001
-445,095	41,487	0,111	-0,074
-444,080	116,341	0,047	-0,043
-443,065	365,669	0,081	0,121
-442,051	-200,000	-0,006	-0,138
-441,036	300,398	-0,043	0,059
-440,022	18,222	0,080	0,047
-439,007	281,199	0,007	-0,010
-437,992	-200,000	0,017	0,149
-436,978	-200,000	0,046	0,265
-435,963	355,211	-0,015	0,023
-434,949	-200,000	0,000	-0,036
-433,934	-200,000	0,003	0,033
-432,919	112,231	-0,071	-0,063
-431,905	-200,000	0,000	-0,033
-430,890	-47,761	0,117	0,042
-429,876	-200,000	0,001	0,138
-428,861	-200,000	-0,042	-0,179
-427,846	147,798	-0,017	-0,017
-426,832	-151,414	0,046	0,002
-425,817	-91,563	-0,101	0,021
-424,803	-59,477	0,074	0,023
-423,788	571,470	-0,039	0,070
-422,773	297,265	0,095	-0,129
-421,759	-195,451	0,080	-0,000
-420,744	-100,846	-0,047	0,008
-419,730	14,316	-0,059	0,034
-418,715	-92,336	0,113	-0,023
-417,701	710,621	-0,019	0,038
-416,686	-10,383	-0,060	-0,029
-415,671	-200,000	0,029	0,102
-414,657	130,659	-0,066	0,062
-413,642	800,000	-0,024	0,058
-412,628	-150,749	-0,124	-0,007
-411,613	-200,000	-0,002	-0,194
-410,598	-138,872	0,056	0,004
-409,584	273,948	-0,013	-0,017
-408,569	-200,000	0,002	-0,014
-407,555	800,000	0,027	-0,061
-406,540	800,000	-0,051	0,117
-405,525	800,000	-0,020	0,046
-404,511	371,732	-0,047	0,070
-403,496	-200,000	-0,045	-0,151
-402,482	116,697	-0,118	-0,107
-401,467	126,092	0,059	-0,055
-400,452	287,552	0,026	0,035
-399,438	626,107	-0,075	0,140
-398,423	170,962	0,092	0,097
-397,409	800,000	0,053	-0,126
-396,394	480,855	0,069	0,115
-395,379	-86,640	0,059	0,013
-394,365	299,761	-0,015	0,020
-393,350	39,002	-0,022	0,014
-392,336	40,092	0,122	-0,080
-391,321	14,748	0,091	-0,052
-390,306	-73,651	0,095	-0,025
-389,292	-200,000	0,002	-0,082
-388,277	540,860	0,055	-0,096
-387,263	437,611	0,073	-0,117
-386,248	358,940	0,016	-0,024
-385,233	9,295	-0,043	-0,024
-384,219	-134,058	0,147	0,013
-383,204	-123,690	-0,111	-0,013
-382,190	687,226	0,021	0,041
-381,175	800,000	-0,012	-0,033
-380,160	133,495	-0,032	0,030
-379,146	45,459	-0,090	-0,061
-378,131	-72,185	-0,003	0,001
-377,117	-86,337	-0,060	-0,013
-376,102	800,000	0,082	-0,184
-375,088	800,000	0,055	-0,113
-374,073	-200,000	0,024	-0,099
-373,058	800,000	0,029	0,084
-372,044	172,081	-0,083	0,088
-371,029	342,980	0,013	-0,019
-370,015	-70,867	-0,042	0,012
-369,000	6,081	-0,069	-0,037
-367,985	-200,000	-0,049	-0,190
-366,971	21,889	-0,057	-0,034
-365,956	800,000	-0,014	0,032
-364,942	58,202	0,106	0,076
-363,927	-5,467	0,052	-0,026
-362,912	-37,753	-0,103	-0,040
-361,898	-151,002	0,121	-0,007
-360,883	-29,944	-0,082	-0,034
-359,869	448,852	-0,045	0,074
-358,854	75,159	0,052	0,040
-357,839	87,386	-0,038	-0,031
-356,825	34,869	0,052	0,034
-355,810	-200,000	-0,008	-0,073
-354,796	352,188	-0,083	-0,121
-353,781	800,000	-0,011	0,025
-352,766	-200,000	-0,017	0,094
-351,752	-200,000	0,011	-0,078
-350,737	-200,000	-0,003	0,095
-349,723	788,436	-0,005	-0,011
-348,708	258,019	-0,041	-0,052
-347,693	-200,000	-0,008	0,049
-346,679	-200,000	0,002	0,025
-345,664	258,588	0,067	-0,084
-344,650	57,748	-0,045	0,032
-343,635	0,699	0,059	0,031
-342,620	105,915	-0,101	0,087
-341,606	44,817	-0,057	0,038
-340,591	61,250	0,094	-0,068
-339,577	-41,946	-0,012	-0,004
-338,562	-200,000	-0,011	-0,084
-337,548	116,116	-0,067	-0,060
-336,533	84,422	0,091	0,073
-335,518	559,069	0,010	-0,018
-334,504	-200,000	0,007	-0,037
-333,489	274,430	-0,035	0,045
-332,475	-95,701	-0,120	0,023
-331,460	-200,000	0,016	-0,052
-330,445	-163,713	-0,079	-0,003
-329,431	28,665	0,136	0,084
-328,416	-187,490	0,135	-0,001
-327,402	-200,000	-0,003	0,104
-326,387	-124,855	-0,151	-0,017
-325,372	15,039	-0,043	-0,025
-324,358	-200,000	-0,006	-0,094
-323,343	246,454	0,032	-0,039
-322,329	-39,804	0,145	0,055
-321,314	-50,908	0,050	0,017
-320,299	257,182	-0,070	0,088
-319,285	-55,823	0,096	0,031
-318,270	-200,000	0,007	-0,179
-317,256	-72,867	0,065	0,018
-316,241	-43,545	-0,041	0,015
-315,226	487,264	0,048	0,081
-314,212	-111,850	-0,055	0,008
-313,197	800,000	-0,031	0,090
-312,183	800,000	-0,009	0,025
-311,168	-200,000	-0,017	-0,074
-310,153	221,659	-0,095	-0,112
-309,139	-93,283	-0,008	0,002
-308,124	-26,958	0,097	0,041
-307,110	-200,000	0,021	-0,071
-306,095	140,796	-0,098	-0,094
-305,080	-140,987	-0,106	-0,008
-304,066	15,177	-0,101	-0,058
-303,051	24,938	-0,213	-0,129
-302,037	800,000	0,009	-0,027
-301,022	-123,634	0,058	-0,007
-300,008	-200,000	0,000	0,066
-298,993	-200,000	0,021	0,084
-297,978	-200,000	0,013	0,052
-296,964	628,415	-0,082	0,152
-295,949	-200,000	-0,019	0,088
-294,935	-200,000	-0,042	-0,143
-293,920	-165,455	0,145	0,005
-292,905	-200,000	-0,032	0,126
-291,891	-200,000	-0,004	0,051
-290,876	618,076	-0,028	0,052
-289,862	-200,000	0,011	0,126
-288,847	492,074	0,085	-0,143
-287,832	-200,000	0,023	0,143
-286,818	-71,257	-0,063	0,017
-285,803	233,220	0,064	-0,077
-284,789	-67,434	0,022	0,006
-283,774	-200,000	0,031	0,225
-282,759	771,636	0,087	0,174
-281,745	-9,844	-0,150	0,073
-280,730	-141,056	-0,110	-0,008
-279,716	800,000	-0,021	-0,051
-278,701	-120,604	0,066	-0,008
-277,686	122,828	0,143	0,131
-276,672	-161,297	0,040	-0,002
-275,657	-60,375	-0,060	-0,019
-274,643	-200,000	0,012	0,060
-273,628	222,292	-0,048	-0,056
-272,613	-200,000	0,014	-0,077
-271,599	800,000	0,020	-0,041
-270,584	-122,253	0,114	-0,013
-269,570	-21,804	-0,119	-0,053
-268,555	-78,928	0,130	0,032
-267,540	290,107	0,041	-0,054
-266,526	-43,314	-0,115	-0,042
-265,511	191,769	-0,041	-0,045
-264,497	-38,548	0,082	0,032
-263,482	718,777	-0,010	-0,019
-262,467	-200,000	0,082	0,319
-261,453	-28,825	-0,058	-0,024
-260,438	455,842	-0,062	-0,100
-259,424	-200,000	-0,014	0,061
-258,409	-200,000	0,011	-0,046
-257,395	-144,921	0,031	0,002
-256,380	91,881	0,071	0,058
-255,365	-62,755	0,180	0,054
-254,351	-200,000	-0,016	0,116
-253,336	573,999	-0,108	0,193
-252,322	800,000	0,009	0,019
-251,307	-200,000	0,023	0,193
-250,292	58,313	0,067	0,048
-249,278	-200,000	0,012	0,079
-248,263	-6,788	0,014	-0,007
-247,249	-200,000	0,000	0,016
-246,234	-200,000	0,015	0,066
-245,219	-200,000	-0,019	-0,084
-244,205	800,000	-0,021	-0,065
-243,190	-200,000	0,000	-0,041
-242,176	31,475	0,157	0,098
-241,161	-200,000	-0,024	0,102
-240,146	82,963	-0,096	0,076
-239,132	18,162	0,074	0,043
-238,117	52,246	-0,109	-0,076
-237,103	-200,000	-0,008	-0,050
-236,088	-65,565	0,092	0,027
-235,073	-6,825	-0,137	0,068
-234,059	-144,503	0,101	0,007
-233,044	79,456	0,132	0,103
-232,030	436,051	0,041	-0,065
-231,015	-200,000	0,002	-0,202
-230,000	-200,000	0,022	-0,168
-228,986	-101,698	-0,173	0,030
-227,971	64,505	-0,090	0,066
-226,957	800,000	-0,011	0,035
-225,942	476,354	-0,093	0,155
-224,927	-200,000	0,007	-0,132
-223,913	120,450	0,140	-0,126
-222,898	525,661	-0,065	-0,112
-221,884	-82,988	0,077	0,018
-220,869	254,423	-0,045	-0,056
-219,855	45,124	0,040	0,027
-218,840	169,451	-0,037	-0,039
-217,825	-200,000	-0,002	-0,045
-216,811	-200,000	0,034	0,120
-215,796	-123,291	0,073	0,008
-214,782	-200,000	0,010	-0,106
-213,767	81,279	-0,113	-0,089
-212,752	23,035	0,070	-0,042
-211,738	-200,000	0,004	0,067
-210,723	97,912	0,066	-0,055
-209,709	-200,000	0,059	-0,211
-208,694	-156,857	-0,121	0,005
-207,679	-200,000	-0,010	-0,063
-206,665	-116,328	-0,097	0,013
-205,650	800,000	-0,018	-0,049
-204,636	-200,000	0,002	0,166
-203,621	800,000	-0,027	0,067
-202,606	-52,966	0,146	0,049
-201,592	160,135	-0,059	0,060
-200,577	800,000	-0,043	0,095
-199,563	-87,170	-0,055	-0,012
-198,548	219,704	0,065	-0,076
-197,533	-200,000	-0,017	-0,056
-196,519	-2,470	-0,104	0,053
-195,504	-200,000	0,032	-0,107
-194,490	-37,059	-0,052	-0,020
-193,475	-200,000	-0,007	-0,039
-192,460	45,152	0,063	0,042
-191,446	-200,000	-0,001	-0,074
-190,431	-200,000	-0,017	0,066
-189,417	102,924	0,098	0,084
-188,402	800,000	0,053	-0,111
-187,387	800,000	0,069	-0,216
-186,373	781,060	-0,026	0,051
-185,358	-200,000	-0,018	-0,071
-184,344	-81,787	0,068	-0,016
-183,329	-60,728	-0,039	0,012
-182,315	259,714	-0,023	-0,029
-181,300	-108,038	-0,227	0,036
-180,285	-63,404	-0,058	-0,017
-179,271	-74,324	0,085	0,022
-178,256	-50,149	-0,080	0,028
-177,242	-27,332	0,028	-0,012
-176,227	800,000	0,065	0,139
-175,212	-200,000	0,006	0,125
-174,198	6,153	-0,069	-0,037
-173,183	-62,918	-0,086	-0,026
-172,169	448,803	-0,077	0,125
-171,154	-200,000	-0,006	0,094
-170,139	-200,000	0,021	0,136
-169,125	-177,731	0,019	0,000
-168,110	365,664	0,028	-0,041
-167,096	-36,595	0,173	-0,067
-166,081	-130,447	-0,103	-0,010
-165,066	800,000	0,008	-0,020
-164,052	48,944	0,143	-0,098
-163,037	-200,000	0,002	-0,074
-162,023	800,000	0,052	0,124
-161,008	-200,000	0,030	0,158
-159,993	251,492	0,037	-0,046
-158,979	-110,017	-0,090	0,014
-157,964	800,000	-0,041	0,102
-156,950	-75,223	-0,084	-0,022
-155,935	232,695	0,075	-0,090
-154,920	-200,000	0,041	0,146
-153,906	341,106	0,105	0,150
-152,891	-61,847	0,132	0,040
-151,877	38,057	0,012	-0,008
-150,862	788,605	-0,077	-0,154
-149,847	-22,348	0,117	0,051
-148,833	-200,000	-0,010	0,109
-147,818	-36,052	0,091	0,035
-146,804	583,121	-0,020	0,035
-145,789	-200,000	-0,050	0,237
-144,775	202,959	-0,134	0,151
-143,760	550,019	-0,034	-0,059
-142,745	64,633	0,067	-0,049
-141,731	-6,894	-0,014	0,007
-140,716	24,963	-0,035	0,021
-139,702	-200,000	-0,010	-0,090
-138,687	96,974	-0,052	-0,044
-137,672	84,903	-0,094	0,075
-136,658	800,000	0,067	-0,148
-135,643	303,353	0,064	-0,086
-134,629	-43,709	-0,057	-0,021
-133,614	44,380	0,039	0,026
-132,599	278,142	0,074	0,096
-131,585	25,317	0,071	-0,043
-130,570	-99,431	-0,093	-0,017
-129,556	84,014	-0,030	-0,024
-128,541	800,000	-0,056	-0,155
-127,526	49,572	-0,029	-0,020
-126,512	-200,000	-0,002	-0,069
-125,497	279,781	0,033	-0,043
-124,483	20,816	-0,097	0,057
-123,468	-200,000	0,005	0,130
-122,453	-126,149	-0,082	-0,009
-121,439	-20,945	-0,112	-0,050
-120,424	-17,377	0,097	0,044
-119,410	464,879	-0,024	-0,038
-118,395	54,968	0,080	0,056
-117,380	489,590	-0,035	0,059
-116,366	331,262	0,041	0,058
-115,351	-44,229	-0,139	-0,051
-114,337	487,683	0,020	0,034
-113,322	72,047	-0,066	-0,050
-112,307	270,701	0,011	-0,015
-111,293	3,879	-0,071	0,037
-110,278	151,008	0,094	0,093
-109,264	144,725	0,015	-0,014
-108,249	800,000	-0,036	0,104
-107,234	666,226	-0,038	-0,071
-106,220	-111,547	-0,138	-0,020
-105,205	-26,859	0,183	0,077
-104,191	-17,356	0,088	0,040
-103,176	-91,967	0,114	-0,023
-102,162	447,415	0,093	0,149
-101,147	356,760	0,054	-0,078
-100,132	800,000	0,036	-0,116
-99,118	-64,022	0,154	-0,045
-98,103	-200,000	0,000	0,104
-97,089	432,137	-0,081	0,129
-96,074	15,311	0,062	-0,035
-95,059	-19,344	0,053	-0,024
-94,045	-54,336	-0,037	-0,012
-93,030	800,000	-0,052	0,121
-92,016	-8,672	0,079	-0,038
-91,001	-55,364	-0,151	0,049
-89,986	-86,704	-0,142	0,031
-88,972	-131,505	0,066	-0,006
-87,957	217,073	0,069	0,079
-86,943	-139,055	-0,200	0,015
-85,928	312,575	-0,039	0,053
-84,913	361,815	0,053	-0,078
-83,899	-11,281	-0,076	0,036
-82,884	593,695	-0,021	0,038
-81,870	-200,000	0,024	0,085
-80,855	-71,707	0,132	0,035
-79,840	-11,218	-0,141	-0,067
-78,826	-135,721	-0,086	0,007
-77,811	-160,946	-0,069	-0,003
-76,797	-18,068	0,108	-0,049
-75,782	51,578	-0,080	0,055
-74,767	297,379	0,084	0,112
-73,753	-200,000	-0,016	0,188
-72,738	322,664	-0,025	0,034
-71,724	800,000	-0,017	0,036
-70,709	14,353	-0,027	0,015
-69,694	6,863	0,060	-0,032
-68,680	-42,331	0,071	-0,026
-67,665	800,000	0,037	0,109
-66,651	-104,790	0,080	0,013
-65,636	-22,921	-0,069	0,030
-64,622	-200,000	0,012	-0,070
-63,607	240,768	-0,047	0,058
-62,592	-200,000	0,020	0,105
-61,578	3,219	-0,116	0,061
-60,563	-143,553	0,073	-0,005
-59,549	-200,000	0,031	0,147
-58,534	-128,271	-1,345	-0,137
-57,519	402,682	-0,940	-1,437
-56,505	-200,000	-0,778	-4,432
-55,490	-35,753	0,595	-0,232
-54,476	800,000	4,929	11,798
-53,461	-200,000	14,478	259,851
-52,446	-200,000	695,746	2273,911
-51,432	601,655	1622,991	2934,884
-50,417	117,728	1631,619	1455,662
-49,403	75,043	1285,284	980,460
-48,388	37,187	1022,699	654,955
-47,373	23,406	981,529	583,289
-46,359	22,611	970,906	574,350
-45,344	21,483	966,447	568,009
-44,330	21,509	964,959	567,196
-43,315	21,318	963,525	565,707
-42,300	21,320	962,457	565,066
-41,286	21,318	961,469	564,458
-40,271	21,310	960,547	563,865
-39,257	21,218	959,589	562,984
-38,242	21,260	958,616	562,525
-37,227	21,262	957,752	562,004
-36,213	21,216	956,834	561,295
-35,198	21,204	955,977	560,729
-34,184	21,253	955,400	560,526
-33,169	21,175	954,587	559,777
-32,154	21,288	953,575	559,525
-31,140	21,304	952,801	559,100
-30,125	21,284	952,007	558,549
-29,111	21,289	951,185	558,061
-28,096	21,227	950,521	557,450
-27,082	21,289	949,570	557,067
-26,067	21,230	948,924	556,476
-25,052	21,271	948,271	556,204
-24,038	21,313	947,541	555,888
-23,023	21,219	947,024	555,262
-22,009	21,321	946,380	555,190
-20,994	21,291	945,648	554,641
-19,979	21,297	944,908	554,205
-18,965	21,247	944,552	553,814
-17,950	21,308	943,777	553,530
-16,936	21,226	943,275	552,953
-15,921	21,178	942,575	552,369
-14,906	21,147	941,675	551,721
-13,892	21,143	941,062	551,329
-12,877	21,150	940,458	550,974
-11,863	21,097	939,888	550,451
-10,848	21,195	939,280	550,383
-9,833	21,287	938,823	550,383
-8,819	21,233	938,300	549,886
-7,804	21,147	937,697	549,237
-6,790	21,178	936,938	548,870
-5,775	21,172	936,305	548,459
-4,760	21,137	935,793	548,025
-3,746	21,109	935,267	547,606
-2,731	21,000	934,514	546,802
-1,717	20,956	933,887	546,274
-0,702	21,003	932,885	545,816
0,313	20,781	932,425	545,669
1,327	23,353	929,940	552,242
2,342	30,920	807,584	500,058
3,356	25,548	508,220	305,508
4,371	1,293	373,869	193,868
5,386	-1,835	357,003	181,264
6,400	-3,139	350,889	176,568
7,415	-3,646	348,153	174,568
8,429	-3,855	346,792	173,620
9,444	-3,765	345,954	173,293
10,459	-3,781	345,332	172,946
11,473	-3,713	344,488	172,589
12,488	-3,873	344,152	172,216
13,502	-3,778	343,468	171,970
14,517	-3,760	342,986	171,735
15,531	-3,723	342,428	171,484
16,546	-3,770	341,965	171,181
17,561	-3,840	341,724	170,963
18,575	-3,624	341,390	171,035
19,590	-3,749	340,827	170,590
20,604	-3,685	340,641	170,558
21,619	-3,700	340,173	170,290
22,634	-3,746	339,789	170,030
23,648	-3,656	339,277	169,863
24,663	-3,755	339,219	169,703
25,677	-3,762	338,929	169,535
26,692	-3,660	338,470	169,409
27,707	-3,754	338,203	169,151
28,721	-3,707	337,839	169,008
29,736	-3,815	337,695	168,795
30,750	-3,761	337,164	168,577
31,765	-3,696	337,078	168,594
32,780	-3,701	336,820	168,445
33,794	-3,681	336,424	168,255
34,809	-3,625	336,170	168,179
35,823	-3,749	335,774	167,822
36,838	-3,639	335,582	167,838
37,853	-3,763	335,349	167,562
38,867	-3,787	335,156	167,424
39,882	-3,641	334,682	167,340
40,896	-3,854	334,684	167,081
41,911	-3,687	334,240	167,036
42,926	-3,741	333,998	166,839
43,940	-3,715	333,631	166,670
44,955	-3,691	333,343	166,539
45,969	-3,670	333,061	166,407
46,984	-3,718	332,938	166,276
47,999	-3,607	332,685	166,261
49,013	-3,611	332,400	166,100
50,028	-3,605	332,197	165,990
51,042	-3,641	332,004	165,838
52,057	-3,539	331,645	165,761
53,071	-3,709	331,340	165,400
54,086	-3,728	331,209	165,298
55,101	-3,588	330,881	165,279
56,115	-3,592	330,576	165,107
57,130	-3,666	330,356	164,898
58,144	-3,535	329,928	164,819
59,159	-3,714	329,745	164,510
60,174	-3,719	329,544	164,389
61,188	-3,637	329,281	164,335
62,203	-3,709	329,037	164,119
63,217	-3,673	328,826	164,039
64,232	-3,688	328,640	163,915
65,247	-3,778	328,299	163,629
66,261	-3,612	327,837	163,570
67,276	-3,757	327,719	163,334
68,290	-3,678	327,349	163,224
69,305	-3,657	327,234	163,176
70,320	-3,604	327,012	163,109
71,334	-3,639	326,772	162,937
72,349	-3,769	326,490	162,635
73,363	-3,741	326,128	162,472
74,378	-3,667	325,801	162,377
75,393	-3,742	325,781	162,269
76,407	-3,641	325,391	162,173
77,422	-3,712	325,129	161,949
78,436	-3,670	324,976	161,905
79,451	-3,748	324,615	161,624
80,466	-3,750	324,547	161,574
81,480	-3,732	324,078	161,345
82,495	-3,726	323,939	161,269
83,509	-3,801	323,633	161,018
84,524	-3,542	323,361	161,156
85,539	-3,683	323,188	160,899
86,553	-3,619	322,890	160,807
87,568	-3,501	322,655	160,807
88,582	-3,636	322,518	160,574
89,597	-3,595	322,235	160,464
90,611	-3,558	321,904	160,326
91,626	-3,529	321,753	160,269
92,641	-3,608	321,583	160,083
93,655	-3,611	321,299	159,923
94,670	-3,623	320,965	159,731
95,684	-3,670	320,796	159,580
96,699	-3,636	320,573	159,492
97,714	-3,623	320,303	159,357
98,728	-3,583	320,067	159,270
99,743	-3,602	319,852	159,128
100,757	-3,692	319,699	158,940
101,772	-3,721	319,411	158,750
102,787	-3,493	319,045	158,803
103,801	-3,758	318,991	158,473
104,816	-3,703	318,740	158,395
105,830	-3,700	318,592	158,310
106,845	-3,526	318,190	158,285
107,860	-3,585	317,916	158,071
108,874	-3,660	317,787	157,911
109,889	-3,595	317,451	157,800
110,903	-3,563	317,166	157,679
111,918	-3,399	316,993	157,757
112,933	-3,630	316,836	157,415
113,947	-3,547	316,550	157,348
114,962	-3,701	316,308	157,047
115,976	-3,590	316,214	157,107
116,991	-3,558	315,971	157,006
118,006	-3,613	315,764	156,830
119,020	-3,716	315,639	156,643
120,035	-3,671	315,375	156,547
121,049	-3,655	315,144	156,435
122,064	-3,697	314,855	156,232
123,079	-3,653	314,642	156,160
124,093	-3,672	314,430	156,020
125,108	-3,596	314,182	155,966
126,122	-3,710	313,856	155,668
127,137	-3,612	313,653	155,657
128,151	-3,606	313,471	155,561
129,166	-3,533	313,286	155,532
130,181	-3,432	313,088	155,528
131,195	-3,531	312,765	155,248
132,210	-3,547	312,639	155,155
133,224	-3,675	312,341	154,857
134,239	-3,545	312,152	154,888
135,254	-3,516	311,848	154,753
136,268	-3,685	311,723	154,498
137,283	-3,313	311,339	154,689
138,297	-3,576	311,295	154,375
139,312	-3,581	311,018	154,217
140,327	-3,619	310,738	154,025
141,341	-3,491	310,582	154,070
142,356	-3,516	310,332	153,905
143,370	-3,546	310,127	153,758
144,385	-3,442	309,727	153,655
145,400	-3,473	309,566	153,529
146,414	-3,694	309,492	153,247
147,429	-3,518	309,213	153,279
148,443	-3,561	308,950	153,090
149,458	-3,607	308,750	152,930
150,473	-3,581	308,622	152,880
151,487	-3,525	308,310	152,770
152,502	-3,509	308,047	152,643
153,516	-3,601	307,917	152,469
154,531	-3,806	307,713	152,140
155,546	-3,537	307,437	152,271
156,560	-3,542	307,191	152,130
157,575	-3,679	307,048	151,902
158,589	-3,622	306,794	151,822
159,604	-3,691	306,626	151,654
160,619	-3,404	306,251	151,754
161,633	-3,421	306,133	151,664
162,648	-3,674	305,970	151,307
163,662	-3,510	305,882	151,420
164,677	-3,444	305,529	151,301
165,692	-3,550	305,398	151,112
166,706	-3,630	305,222	150,929
167,721	-3,501	304,899	150,889
168,735	-3,602	304,817	150,731
169,750	-3,572	304,670	150,676
170,764	-3,629	304,520	150,529
171,779	-3,419	304,166	150,557
172,794	-3,537	304,079	150,379
173,808	-3,616	303,768	150,130
174,823	-3,630	303,621	150,030
175,837	-3,548	303,355	149,970
176,852	-3,662	303,137	149,731
177,867	-3,467	302,949	149,825
178,881	-3,535	302,769	149,653
179,896	-3,559	302,642	149,552
180,910	-3,430	302,459	149,581
181,925	-3,432	302,161	149,418
182,940	-3,498	301,928	149,223
183,954	-3,561	301,723	149,043
184,969	-3,662	301,667	148,899
185,983	-3,455	301,321	148,926
186,998	-3,372	301,013	148,846
188,013	-3,444	300,935	148,720
189,027	-3,464	300,572	148,507
190,042	-3,402	300,423	148,484
191,056	-3,426	300,164	148,317
192,071	-3,536	300,091	148,157
193,086	-3,556	299,892	148,025
194,100	-3,448	299,577	147,965
195,115	-3,587	299,417	147,732
196,129	-3,619	299,255	147,607
197,144	-3,286	298,915	147,764
198,159	-3,402	298,628	147,491
199,173	-3,682	298,636	147,198
200,188	-3,633	298,478	147,156
201,202	-3,480	297,989	147,057
202,217	-3,253	297,764	147,162
203,232	-3,598	297,959	146,897
204,246	-3,447	297,696	146,906
205,261	-3,373	297,350	146,797
206,275	-3,407	297,023	146,588
207,290	-3,516	297,007	146,458
208,304	-3,528	296,723	146,293
209,319	-3,542	296,554	146,183
210,334	-3,343	296,303	146,245
211,348	-3,358	296,099	146,117
212,363	-3,407	295,908	145,960
213,377	-3,565	295,676	145,674
214,392	-3,368	295,605	145,824
215,407	-3,431	295,393	145,643
216,421	-3,430	295,153	145,513
217,436	-3,370	294,920	145,444
218,450	-3,457	294,660	145,217
219,465	-3,521	294,532	145,077
220,480	-3,518	294,325	144,965
221,494	-3,583	294,105	144,779
222,509	-3,369	294,044	144,950
223,523	-3,517	293,828	144,683
224,538	-3,317	293,563	144,737
225,553	-3,494	293,316	144,427
226,567	-3,404	293,224	144,459
227,582	-3,602	293,017	144,147
228,596	-3,486	292,848	144,166
229,611	-3,463	292,709	144,107
230,626	-3,395	292,463	144,041
231,640	-3,462	292,215	143,840
232,655	-3,473	292,085	143,753
233,669	-3,415	291,950	143,730
234,684	-3,426	291,553	143,511
235,699	-3,459	291,483	143,431
236,713	-3,305	291,282	143,471
237,728	-3,436	291,177	143,278
238,742	-3,303	290,825	143,223
239,757	-3,473	290,589	142,927
240,772	-3,666	290,531	142,696
241,786	-3,582	290,441	142,722
242,801	-3,392	290,125	142,740
243,815	-3,496	290,138	142,632
244,830	-3,320	289,679	142,565
245,844	-3,308	289,612	142,532
246,859	-3,418	289,426	142,319
247,874	-3,570	289,191	142,043
248,888	-3,545	289,127	142,023
249,903	-3,624	288,876	141,810
250,917	-3,297	288,505	141,933
251,932	-3,398	288,436	141,789
252,947	-3,562	288,024	141,414
253,961	-4,241	287,647	140,558
254,976	-4,722	287,261	139,891
255,990	-4,621	287,085	139,890
257,005	-3,346	287,705	141,417
258,020	-0,989	288,377	144,024
259,034	0,053	288,716	145,192
260,049	0,604	288,718	145,715
261,063	1,072	288,630	146,111
262,078	1,461	288,631	146,476
263,093	1,761	288,585	146,731
264,107	2,057	288,432	146,927
265,122	2,130	288,312	146,923
266,136	2,247	288,068	146,899
267,151	2,415	288,034	147,031
268,166	2,345	287,836	146,849
269,180	2,301	287,753	146,751
270,195	2,297	287,502	146,606
271,209	2,350	287,321	146,552
272,224	2,264	287,175	146,382
273,239	2,205	286,942	146,193
274,253	2,213	286,642	146,035
275,268	2,226	286,391	145,907
276,282	2,198	286,273	145,806
277,297	2,196	286,048	145,677
278,312	2,302	285,853	145,666
279,326	2,279	285,569	145,486
280,341	2,324	285,595	145,530
281,355	2,242	285,287	145,281
282,370	2,175	285,123	145,121
283,384	2,172	284,962	145,023
284,399	2,091	284,773	144,836
285,414	2,061	284,687	144,751
286,428	2,057	284,378	144,577
287,443	2,025	284,350	144,520
288,457	1,928	284,070	144,273
289,472	2,009	283,887	144,244
290,487	2,016	283,582	144,083
291,501	2,087	283,343	144,016
292,516	2,105	283,182	143,938
293,530	2,112	283,103	143,892
294,545	1,874	282,934	143,568
295,560	2,150	282,707	143,701
296,574	1,997	282,471	143,423
297,589	2,155	282,191	143,418
298,603	1,836	282,119	143,067
299,618	1,863	281,950	142,994
300,633	2,003	281,821	143,048
301,647	2,266	281,541	143,140
302,662	2,135	281,524	142,995
303,676	2,254	281,248	142,955
304,691	2,138	281,099	142,758
305,706	2,169	280,895	142,671
306,720	2,285	280,731	142,683
307,735	2,232	280,606	142,557
308,749	2,208	280,444	142,439
309,764	2,331	280,187	142,412
310,779	2,159	279,999	142,142
311,793	2,230	279,802	142,096
312,808	1,932	279,750	141,778
313,822	1,934	279,620	141,702
314,837	2,141	279,331	141,735
315,852	2,094	279,113	141,569
316,866	2,030	278,975	141,426
317,881	2,247	278,769	141,512
318,895	2,239	278,566	141,388
319,910	2,228	278,356	141,259
320,925	2,081	278,331	141,097
321,939	2,171	278,005	141,002
322,954	2,333	277,804	141,039
323,968	2,397	277,738	141,051
324,983	2,294	277,469	140,807
325,997	2,236	277,406	140,709
327,012	2,265	277,216	140,627
328,027	2,365	276,878	140,535
329,041	2,376	276,745	140,466
330,056	2,416	276,578	140,405
331,070	2,423	276,463	140,340
332,085	2,175	276,364	140,049
333,100	2,242	276,051	139,940
334,114	2,285	275,826	139,853
335,129	2,358	275,729	139,858
336,143	2,358	275,379	139,668
337,158	2,344	275,404	139,655
338,173	2,199	275,117	139,364
339,187	2,207	274,993	139,296
340,202	2,296	274,844	139,290
341,216	2,363	274,579	139,205
342,231	2,310	274,357	139,032
343,246	2,168	274,412	138,917
344,260	2,327	274,092	138,888
345,275	2,290	273,975	138,782
346,289	2,206	273,883	138,647
347,304	2,416	273,689	138,728
348,319	2,407	273,495	138,609
349,333	2,435	273,222	138,483
350,348	2,320	273,051	138,280
351,362	2,333	272,990	138,249
352,377	2,447	272,759	138,223
353,392	2,412	272,544	138,069
354,406	2,480	272,410	138,051
355,421	191,424	1347,344	1426,094
356,435	154,552	1478,386	1426,230
