DTS Sentinel unit serial number:	SN410029Multiplexer serial number:	ORYXHardware model number:	OX2-SRSoftware version number:	ORYX F/W v4,00 Oryx Data Collector v3.7.2.0data status	okinstallation	B4 Nyhavnadifferential loss correction	single-endedforward channel	channel 2reverse channel	N/Adate	2023/12/19time	06:50:13forward acquisition time	300,00reverse acquisition time	0,00gamma	499,1914k internal	0,3126k external	0,3126temperature offset calibration	1,0000default loss term (dB/km)	0,3820temperature slope calibration	1,0000multiplexer offset coefficient	1,0000multiplexer slope coefficient	1,0000fibre end	0,00T internal ref (°C)	21,20T ext. ref 1 (°C)	6,60T ext. ref 2 (°C)	6,67length (m)	temperature (°C)	Stokes	anti-Stokes-744,400	-200,000	0,017	-0,117
-743,385	-53,323	-0,183	0,062
-742,371	-119,357	0,102	0,013
-741,356	-14,515	-0,248	0,118
-740,342	517,925	0,035	-0,061
-739,327	110,543	-0,220	0,197
-738,312	800,000	-0,030	-0,076
-737,298	5,439	-0,316	0,173
-736,283	-64,978	-0,048	0,014
-735,269	-79,977	-0,198	-0,049
-734,254	-200,000	0,035	-0,162
-733,239	-75,544	-0,414	-0,109
-732,225	-65,625	0,093	0,028
-731,210	606,730	-0,052	-0,097
-730,196	-200,000	-0,002	-0,036
-729,181	-52,898	-0,023	0,008
-728,167	362,705	-0,029	-0,044
-727,152	190,859	0,016	0,018
-726,137	422,650	-0,068	0,108
-725,123	-200,000	0,001	0,042
-724,108	0,345	-0,076	-0,040
-723,094	-200,000	0,006	-0,090
-722,079	-200,000	-0,003	-0,052
-721,064	-31,792	-0,067	-0,028
-720,050	-200,000	-0,010	0,117
-719,035	800,000	-0,049	0,143
-718,021	-200,000	-0,009	-0,130
-717,006	636,294	-0,069	0,132
-715,991	800,000	-0,017	0,047
-714,977	-107,388	-0,079	-0,013
-713,962	116,342	-0,189	-0,172
-712,948	82,271	-0,048	0,039
-711,933	6,032	-0,127	-0,070
-710,918	64,025	-0,108	-0,080
-709,904	-106,769	-0,071	-0,012
-708,889	800,000	-0,055	-0,117
-707,875	170,144	-0,081	-0,086
-706,860	11,822	0,088	0,050
-705,845	-200,000	-0,017	-0,095
-704,831	13,903	-0,065	-0,038
-703,816	787,201	0,015	0,032
-702,802	678,225	0,013	-0,025
-701,787	-200,000	-0,025	-0,100
-700,772	-200,000	-0,003	-0,106
-699,758	800,000	-0,025	0,061
-698,743	-40,011	-0,096	-0,037
-697,729	289,199	0,077	0,103
-696,714	342,667	0,022	0,033
-695,699	-200,000	-0,002	-0,056
-694,685	33,897	-0,057	-0,037
-693,670	800,000	-0,039	-0,100
-692,656	302,380	-0,047	0,064
-691,641	82,243	-0,023	-0,018
-690,627	123,766	0,070	0,066
-689,612	38,409	-0,070	-0,046
-688,597	-42,641	0,026	-0,010
-687,583	129,042	-0,028	-0,027
-686,568	66,670	-0,067	-0,050
-685,554	548,156	0,028	0,050
-684,539	124,856	-0,019	-0,018
-683,524	-126,220	-0,161	0,018
-682,510	-7,029	0,062	-0,031
-681,495	-200,000	0,010	-0,056
-680,481	47,333	-0,138	-0,095
-679,466	468,512	-0,051	-0,086
-678,451	-200,000	-0,006	-0,103
-677,437	800,000	-0,038	-0,096
-676,422	185,584	0,048	0,053
-675,408	-153,751	0,047	-0,002
-674,393	156,702	0,072	-0,074
-673,378	800,000	-0,055	-0,145
-672,364	-39,524	0,025	0,010
-671,349	-200,000	0,053	-0,196
-670,335	555,538	-0,046	0,082
-669,320	800,000	-0,014	-0,032
-668,305	-121,405	-0,103	-0,013
-667,291	42,603	-0,136	-0,092
-666,276	-107,465	-0,039	-0,006
-665,262	-67,111	-0,118	-0,034
-664,247	161,807	-0,139	-0,144
-663,232	14,966	-0,069	-0,040
-662,218	223,167	-0,048	-0,057
-661,203	-153,951	-0,191	-0,010
-660,189	459,963	0,022	-0,036
-659,174	264,782	0,034	-0,044
-658,159	453,213	0,134	-0,220
-657,145	-112,653	-0,093	0,014
-656,130	381,897	0,037	0,057
-655,116	-149,986	-0,106	-0,006
-654,101	-200,000	-0,011	0,071
-653,086	-200,000	0,002	-0,069
-652,072	-103,442	0,046	0,008
-651,057	194,736	-0,042	-0,047
-650,043	-10,429	-0,097	-0,047
-649,028	-6,923	0,061	0,030
-648,014	-200,000	-0,004	0,110
-646,999	-200,000	-0,010	0,071
-645,984	-200,000	-0,001	-0,007
-644,970	-200,000	-0,007	-0,034
-643,955	800,000	0,056	0,125
-642,941	-200,000	0,007	-0,134
-641,926	-154,896	0,075	-0,004
-640,911	-73,545	-0,134	-0,036
-639,897	-81,939	0,117	0,028
-638,882	-47,497	-0,064	0,023
-637,868	-153,817	-0,135	-0,007
-636,853	800,000	0,027	-0,075
-635,838	280,395	0,080	-0,107
-634,824	-132,494	0,174	-0,016
-633,809	65,388	-0,021	-0,016
-632,795	-170,664	-0,121	0,003
-631,780	-130,277	-0,077	0,008
-630,765	-200,000	0,000	0,021
-629,751	-200,000	0,013	0,062
-628,736	178,975	0,051	-0,056
-627,722	181,959	0,076	-0,083
-626,707	644,407	0,041	-0,077
-625,692	-200,000	0,006	0,105
-624,678	-57,897	0,068	-0,022
-623,663	-126,383	-0,033	0,004
-622,649	-88,035	0,016	-0,004
-621,634	-4,665	0,133	-0,068
-620,619	10,808	-0,069	0,039
-619,605	-200,000	0,006	-0,023
-618,590	587,117	-0,019	0,034
-617,576	28,226	0,050	0,031
-616,561	-157,411	0,084	-0,004
-615,546	502,283	0,064	-0,110
-614,532	-200,000	0,008	-0,062
-613,517	-200,000	0,044	-0,194
-612,503	710,410	-0,056	-0,111
-611,488	-127,137	0,062	0,007
-610,474	47,286	-0,138	-0,095
-609,459	-120,576	-0,080	0,010
-608,444	-200,000	-0,013	-0,117
-607,430	148,848	-0,094	-0,095
-606,415	-164,358	-0,081	0,003
-605,401	122,289	0,053	0,049
-604,386	800,000	0,013	-0,032
-603,371	56,347	0,107	0,077
-602,357	355,875	-0,042	-0,063
-601,342	-89,807	-0,058	-0,012
-600,328	769,074	0,056	-0,114
-599,313	800,000	-0,041	-0,096
-598,298	800,000	0,023	-0,060
-597,284	248,397	-0,023	-0,029
-596,269	214,319	0,030	0,035
-595,255	82,832	0,011	-0,009
-594,240	-200,000	-0,033	0,122
-593,225	800,000	-0,072	-0,157
-592,211	53,774	0,157	-0,111
-591,196	293,846	-0,091	-0,123
-590,182	58,861	0,132	0,096
-589,167	-90,439	0,096	0,020
-588,152	-81,962	0,061	0,015
-587,138	-26,904	-0,070	-0,030
-586,123	-200,000	0,016	-0,144
-585,109	-200,000	-0,014	0,094
-584,094	23,951	0,075	-0,045
-583,079	-200,000	0,012	-0,063
-582,065	-200,000	0,007	0,040
-581,050	21,493	0,022	0,013
-580,036	-125,072	-0,067	-0,008
-579,021	317,209	-0,046	0,065
-578,006	-167,532	-0,078	0,002
-576,992	800,000	-0,043	0,135
-575,977	-13,620	0,065	0,031
-574,963	-152,515	0,065	-0,003
-573,948	800,000	0,019	0,042
-572,934	80,557	-0,105	-0,083
-571,919	-200,000	0,016	-0,094
-570,904	-159,130	-0,169	-0,007
-569,890	34,805	-0,166	-0,107
-568,875	53,683	0,119	0,085
-567,861	800,000	0,036	0,079
-566,846	800,000	-0,018	0,053
-565,831	-200,000	-0,005	0,018
-564,817	166,214	0,131	0,137
-563,802	-20,011	-0,068	-0,031
-562,788	152,336	-0,040	-0,041
-561,773	12,233	-0,052	-0,030
-560,758	-200,000	0,032	0,187
-559,744	33,863	-0,063	0,041
-558,729	95,892	-0,097	0,082
-557,715	-200,000	-0,006	-0,123
-556,700	800,000	0,031	0,073
-555,685	-3,019	-0,013	0,007
-554,671	429,395	0,057	0,092
-553,656	-109,544	0,013	-0,002
-552,642	-200,000	-0,024	0,119
-551,627	800,000	-0,059	0,144
-550,612	405,384	-0,063	-0,098
-549,598	-119,136	-0,058	-0,007
-548,583	-49,577	-0,143	0,050
-547,569	489,534	-0,083	-0,141
-546,554	800,000	0,025	-0,060
-545,539	-200,000	0,037	-0,162
-544,525	800,000	-0,026	-0,054
-543,510	77,590	0,075	0,059
-542,496	-120,687	-0,100	0,012
-541,481	-200,000	-0,062	-0,222
-540,466	800,000	-0,060	0,134
-539,452	-200,000	0,034	0,138
-538,437	16,564	0,096	0,056
-537,423	-106,009	0,088	0,014
-536,408	-80,204	-0,009	-0,002
-535,393	-200,000	-0,012	-0,060
-534,379	-121,751	0,066	-0,008
-533,364	-190,379	-0,082	-0,001
-532,350	292,464	0,072	0,097
-531,335	800,000	-0,048	0,129
-530,321	-200,000	0,031	0,174
-529,306	-200,000	0,017	-0,091
-528,291	489,364	-0,024	-0,041
-527,277	352,555	0,045	-0,066
-526,262	-2,385	-0,048	-0,025
-525,248	595,443	0,015	0,027
-524,233	264,762	0,081	0,105
-523,218	562,825	0,065	0,117
-522,204	-200,000	-0,029	0,114
-521,189	58,851	-0,091	0,066
-520,175	-200,000	-0,003	0,093
-519,160	23,862	0,054	-0,033
-518,145	-197,539	0,055	-0,000
-517,131	196,570	0,087	0,098
-516,116	800,000	-0,032	0,070
-515,102	-200,000	0,008	0,030
-514,087	172,802	-0,169	-0,179
-513,072	2,035	-0,100	-0,053
-512,058	85,646	-0,083	-0,067
-511,043	-200,000	0,051	-0,171
-510,029	163,370	0,094	0,097
-509,014	737,022	-0,062	0,122
-507,999	198,840	0,039	-0,044
-506,985	-200,000	-0,017	-0,060
-505,970	27,454	-0,181	-0,112
-504,956	-85,883	0,073	0,017
-503,941	375,122	0,027	0,040
-502,926	72,312	0,078	0,060
-501,912	800,000	-0,039	-0,092
-500,897	800,000	0,041	-0,087
-499,883	677,377	-0,010	-0,019
-498,868	17,866	-0,142	-0,083
-497,853	121,296	-0,096	-0,088
-496,839	191,803	-0,072	0,080
-495,824	-200,000	-0,031	0,102
-494,810	-200,000	0,028	0,127
-493,795	-54,299	-0,045	-0,015
-492,781	-200,000	0,003	-0,033
-491,766	-200,000	0,024	0,090
-490,751	-200,000	-0,088	-0,000
-489,737	140,153	-0,055	0,053
-488,722	88,791	-0,012	-0,010
-487,708	-200,000	0,024	-0,080
-486,693	-68,253	0,108	0,031
-485,678	-10,957	-0,004	0,002
-484,664	390,518	-0,083	-0,127
-483,649	800,000	-0,039	-0,091
-482,635	45,196	0,083	-0,056
-481,620	800,000	0,041	0,121
-480,605	-200,000	0,018	0,120
-479,591	558,987	0,086	0,154
-478,576	-200,000	0,000	-0,053
-477,562	-10,170	-0,182	-0,089
-476,547	605,387	0,027	0,051
-475,532	-200,000	0,010	-0,100
-474,518	-36,020	0,065	-0,026
-473,503	208,073	0,072	0,083
-472,489	-44,106	-0,089	0,033
-471,474	800,000	0,031	0,090
-470,459	800,000	-0,054	-0,120
-469,445	-24,735	0,176	-0,077
-468,430	-111,882	-0,045	0,007
-467,416	44,832	-0,047	0,032
-466,401	138,108	0,065	0,063
-465,386	-185,950	0,155	-0,002
-464,372	-36,727	-0,096	0,038
-463,357	766,559	-0,079	0,158
-462,343	-200,000	-0,027	-0,119
-461,328	-200,000	-0,004	-0,041
-460,313	231,092	0,067	0,081
-459,299	-200,000	0,004	-0,051
-458,284	332,494	-0,034	-0,049
-457,270	-171,431	-0,077	-0,002
-456,255	-79,476	-0,138	0,034
-455,241	3,868	0,064	0,034
-454,226	166,163	-0,075	-0,079
-453,211	169,764	0,065	0,069
-452,197	165,600	0,043	0,044
-451,182	429,091	0,074	0,118
-450,168	-200,000	0,016	0,054
-449,153	337,440	0,021	-0,030
-448,138	800,000	0,052	-0,131
-447,124	22,565	-0,034	0,020
-446,109	96,947	0,104	0,088
-445,095	-161,038	0,230	0,009
-444,080	5,812	-0,177	0,096
-443,065	-10,999	0,071	0,034
-442,051	145,907	-0,056	0,055
-441,036	-58,103	-0,078	0,025
-440,022	-200,000	0,008	-0,075
-439,007	800,000	-0,026	-0,076
-437,992	-23,830	0,165	-0,072
-436,978	800,000	0,037	-0,089
-435,963	-37,409	0,028	-0,011
-434,949	342,762	-0,050	-0,073
-433,934	-29,577	0,133	-0,056
-432,919	-200,000	-0,016	-0,154
-431,905	-60,961	-0,171	0,053
-430,890	-36,492	-0,017	-0,007
-429,876	-200,000	-0,002	0,092
-428,861	-75,640	-0,108	0,028
-427,846	800,000	-0,051	0,139
-426,832	-13,284	0,093	0,044
-425,817	-200,000	0,007	-0,106
-424,803	13,486	-0,056	0,032
-423,788	41,889	0,113	0,075
-422,773	56,238	0,115	0,082
-421,759	800,000	0,011	-0,023
-420,744	-178,100	0,043	0,001
-419,730	184,708	-0,032	-0,035
-418,715	315,735	-0,029	-0,040
-417,701	-80,625	-0,085	-0,021
-416,686	-200,000	0,019	0,094
-415,671	432,784	-0,082	0,131
-414,657	-200,000	-0,004	-0,030
-413,642	93,598	-0,072	-0,060
-412,628	158,749	-0,056	0,057
-411,613	-89,200	-0,063	-0,014
-410,598	4,998	0,023	0,013
-409,584	800,000	-0,030	-0,088
-408,569	259,660	-0,038	0,049
-407,555	-20,815	-0,123	-0,055
-406,540	39,616	-0,188	0,123
-405,525	123,707	-0,127	0,117
-404,511	90,174	-0,098	-0,080
-403,496	-200,000	0,004	-0,027
-402,482	-94,315	0,037	0,007
-401,467	800,000	0,062	0,138
-400,452	-133,078	0,150	-0,014
-399,438	131,160	-0,061	0,057
-398,423	777,521	0,056	0,112
-397,409	-200,000	0,023	-0,112
-396,394	-200,000	0,003	0,110
-395,379	800,000	0,038	-0,080
-394,365	-68,792	0,100	0,028
-393,350	436,494	0,045	-0,072
-392,336	-200,000	0,012	-0,087
-391,321	-72,764	-0,088	0,024
-390,306	-31,448	-0,054	0,022
-389,292	21,811	-0,087	0,052
-388,277	-57,282	0,029	-0,009
-387,263	99,008	0,053	-0,045
-386,248	259,174	-0,083	0,105
-385,233	236,292	-0,044	-0,054
-384,219	73,972	0,020	0,015
-383,204	800,000	-0,034	-0,076
-382,190	-8,711	-0,047	0,023
-381,175	-200,000	-0,027	-0,112
-380,160	800,000	0,043	-0,088
-379,146	-200,000	-0,043	0,208
-378,131	-79,594	-0,029	0,007
-377,117	260,614	0,007	-0,009
-376,102	303,850	0,023	0,032
-375,088	-10,060	0,052	0,025
-374,073	-172,882	0,175	-0,004
-373,058	90,769	0,071	-0,058
-372,044	546,234	-0,055	0,097
-371,029	-22,039	0,051	0,023
-370,015	-78,101	-0,022	0,006
-369,000	-105,184	-0,103	0,017
-367,985	230,358	-0,132	-0,159
-366,971	-200,000	-0,038	-0,131
-365,956	72,393	0,015	0,011
-364,942	-200,000	0,003	-0,061
-363,927	-59,806	0,061	-0,019
-362,912	-200,000	-0,004	0,021
-361,898	-200,000	0,010	0,033
-360,883	249,839	0,037	0,047
-359,869	-43,302	0,121	-0,045
-358,854	59,953	0,036	0,026
-357,839	22,077	0,057	0,034
-356,825	-11,079	-0,017	0,008
-355,810	242,304	0,013	-0,015
-354,796	800,000	-0,028	0,074
-353,781	798,389	-0,068	-0,138
-352,766	-200,000	0,012	0,100
-351,752	-200,000	-0,013	0,058
-350,737	800,000	-0,044	0,131
-349,723	-126,078	0,072	0,008
-348,708	130,300	0,109	0,103
-347,693	-200,000	0,006	-0,142
-346,679	800,000	0,025	0,065
-345,664	61,442	0,041	-0,030
-344,650	109,656	0,051	-0,045
-343,635	-15,151	-0,100	-0,047
-342,620	-50,262	-0,052	0,018
-341,606	-163,294	-0,071	0,002
-340,591	65,634	0,113	0,083
-339,577	-200,000	0,048	-0,159
-338,562	800,000	-0,043	-0,097
-337,548	800,000	0,045	-0,095
-336,533	202,372	0,022	0,025
-335,518	597,592	-0,042	0,076
-334,504	-200,000	-0,006	0,109
-333,489	187,774	0,009	0,010
-332,475	-189,653	-0,158	-0,001
-331,460	800,000	-0,020	-0,058
-330,445	55,576	0,125	-0,089
-329,431	211,505	-0,034	0,039
-328,416	275,192	-0,019	0,025
-327,402	-200,000	0,006	-0,026
-326,387	-200,000	-0,000	0,047
-325,372	371,992	-0,108	0,161
-324,358	343,367	0,021	-0,030
-323,343	-160,286	-0,045	-0,002
-322,329	-121,752	-0,114	0,014
-321,314	39,107	0,146	-0,096
-320,299	-64,082	0,096	-0,028
-319,285	-200,000	-0,004	0,037
-318,270	-149,189	-0,066	0,004
-317,256	-200,000	-0,022	-0,161
-316,241	547,850	0,045	0,078
-315,226	-136,289	0,082	-0,007
-314,212	483,690	0,020	0,034
-313,197	-24,017	0,160	-0,070
-312,183	-89,822	-0,170	-0,036
-311,168	307,989	-0,078	-0,106
-310,153	462,419	-0,056	0,092
-309,139	-139,936	-0,079	0,006
-308,124	-174,444	-0,073	-0,002
-307,110	787,477	0,030	-0,061
-306,095	111,028	-0,078	-0,069
-305,080	339,117	0,042	0,061
-304,066	24,849	0,043	-0,026
-303,051	-200,000	-0,015	0,070
-302,037	-36,759	-0,039	-0,015
-301,022	304,494	0,096	-0,131
-300,008	800,000	0,058	-0,130
-298,993	-10,112	0,124	0,060
-297,978	127,361	0,104	0,097
-296,964	56,186	0,066	-0,047
-295,949	-22,590	-0,122	0,054
-294,935	-200,000	0,013	-0,120
-293,920	180,249	0,011	-0,012
-292,905	1,022	0,049	-0,026
-291,891	-135,383	0,073	-0,006
-290,876	-200,000	-0,023	-0,080
-289,862	-200,000	0,007	-0,070
-288,847	-155,879	-0,156	-0,007
-287,832	57,245	-0,039	0,028
-286,818	-40,797	-0,131	-0,049
-285,803	-104,819	0,044	-0,007
-284,789	800,000	0,059	0,125
-283,774	-200,000	0,004	0,077
-282,759	174,883	-0,020	0,022
-281,745	167,806	-0,093	-0,097
-280,730	800,000	-0,032	-0,078
-279,716	-5,217	-0,025	0,013
-278,701	-130,240	-0,012	-0,001
-277,686	800,000	-0,042	0,087
-276,672	-200,000	0,008	0,140
-275,657	-164,373	-0,040	0,001
-274,643	402,903	0,084	-0,129
-273,628	285,165	-0,083	-0,109
-272,613	-101,123	-0,122	-0,022
-271,599	800,000	-0,041	-0,083
-270,584	165,530	0,067	0,069
-269,570	68,453	-0,033	-0,025
-268,555	-200,000	-0,002	-0,015
-267,540	-21,837	0,071	-0,032
-266,526	434,024	0,071	-0,114
-265,511	800,000	-0,041	-0,088
-264,497	-200,000	-0,011	-0,078
-263,482	176,745	0,050	0,053
-262,467	800,000	-0,028	-0,078
-261,453	-50,509	-0,109	0,037
-260,438	198,783	0,030	0,033
-259,424	-200,000	-0,018	-0,091
-258,409	409,408	0,127	-0,198
-257,395	149,980	-0,070	0,070
-256,380	800,000	-0,025	0,070
-255,365	-200,000	-0,034	0,125
-254,351	-144,487	0,138	-0,009
-253,336	-166,798	0,080	-0,002
-252,322	43,227	0,051	-0,034
-251,307	-200,000	-0,000	0,203
-250,292	-200,000	0,000	-0,113
-249,278	779,978	0,060	0,120
-248,263	-18,343	-0,084	0,038
-247,249	-44,612	0,138	0,050
-246,234	-200,000	-0,006	-0,051
-245,219	301,268	-0,036	0,049
-244,205	-139,304	-0,078	0,006
-243,190	800,000	0,009	0,020
-242,176	-200,000	-0,005	0,059
-241,161	192,105	-0,011	-0,012
-240,146	427,086	-0,071	0,112
-239,132	317,589	0,046	0,064
-238,117	-1,490	-0,106	-0,055
-237,103	10,151	0,053	-0,029
-236,088	800,000	0,024	0,059
-235,073	-23,487	0,117	-0,051
-234,059	-200,000	0,001	0,112
-233,044	-200,000	0,022	-0,087
-232,030	98,725	0,080	-0,067
-231,015	-65,662	0,059	-0,017
-230,000	482,331	-0,012	-0,019
-228,986	175,614	-0,026	-0,028
-227,971	-200,000	0,030	0,166
-226,957	-93,444	0,094	-0,019
-225,942	125,615	0,075	0,069
-224,927	-4,359	-0,025	-0,013
-223,913	-200,000	-0,007	0,048
-222,898	-19,556	0,061	-0,027
-221,884	-200,000	0,001	-0,029
-220,869	-70,236	0,092	0,025
-219,855	195,731	-0,034	-0,038
-218,840	-200,000	0,024	0,146
-217,825	-0,148	0,028	0,014
-216,811	-200,000	0,027	-0,104
-215,796	-48,917	-0,127	-0,044
-214,782	-26,706	-0,078	-0,033
-213,767	800,000	0,042	0,103
-212,752	133,358	0,056	0,053
-211,738	-200,000	-0,011	0,087
-210,723	-200,000	-0,003	-0,020
-209,709	613,509	-0,050	0,092
-208,694	-200,000	-0,020	-0,071
-207,679	607,938	0,089	-0,163
-206,665	97,219	0,079	-0,066
-205,650	-3,357	0,027	0,014
-204,636	-200,000	-0,023	0,132
-203,621	-200,000	0,002	-0,018
-202,606	113,949	0,058	-0,052
-201,592	-135,465	0,193	-0,017
-200,577	-47,299	0,098	-0,035
-199,563	-200,000	0,006	0,050
-198,548	0,130	0,107	0,055
-197,533	159,975	0,057	-0,058
-196,519	81,280	0,166	0,131
-195,504	-7,776	-0,137	-0,067
-194,490	-200,000	-0,009	-0,166
-193,475	37,996	-0,160	-0,104
-192,460	611,106	0,038	0,069
-191,446	-45,532	0,096	-0,034
-190,431	235,377	-0,042	0,050
-189,417	-200,000	0,001	-0,039
-188,402	3,325	0,040	0,021
-187,387	370,203	0,025	-0,037
-186,373	111,979	-0,112	0,099
-185,358	501,484	0,058	0,099
-184,344	-93,043	0,095	-0,019
-183,329	-77,441	0,042	0,011
-182,315	265,960	-0,053	-0,067
-181,300	-24,689	-0,100	0,043
-180,285	374,485	0,086	0,129
-179,271	-174,532	-0,155	-0,003
-178,256	-200,000	-0,034	-0,113
-177,242	-200,000	0,001	-0,028
-176,227	-200,000	0,018	0,121
-175,212	-86,069	0,084	0,019
-174,198	800,000	0,020	-0,049
-173,183	-135,231	-0,103	-0,009
-172,169	-30,445	-0,121	0,050
-171,154	426,405	0,027	-0,042
-170,139	-68,439	0,017	0,005
-169,125	-4,241	-0,118	-0,059
-168,110	66,268	-0,122	0,090
-167,096	49,301	-0,079	0,054
-166,081	-200,000	-0,027	0,096
-165,066	126,338	-0,032	-0,029
-164,052	253,745	0,096	-0,119
-163,037	150,869	-0,075	0,074
-162,023	530,905	0,053	0,091
-161,008	321,838	0,069	0,096
-159,993	158,335	0,129	0,130
-158,979	-200,000	0,021	-0,127
-157,964	-200,000	-0,031	0,130
-156,950	800,000	-0,035	-0,097
-155,935	166,023	0,144	-0,149
-154,920	-132,678	-0,114	-0,011
-153,906	-67,423	0,122	0,035
-152,891	251,318	-0,043	-0,053
-151,877	-200,000	-0,015	0,178
-150,862	-200,000	-0,020	0,118
-149,847	-200,000	0,008	-0,052
-148,833	100,607	-0,064	-0,054
-147,818	-68,688	-0,090	0,025
-146,804	84,096	-0,019	0,015
-145,789	19,336	0,042	-0,025
-144,775	-200,000	0,019	-0,106
-143,760	28,662	-0,070	-0,043
-142,745	-135,153	-0,101	0,009
-141,731	155,513	-0,023	0,023
-140,716	-200,000	0,018	0,074
-139,702	800,000	-0,018	0,055
-138,687	210,178	-0,083	0,095
-137,672	174,995	0,039	0,041
-136,658	-28,336	-0,094	0,039
-135,643	140,777	0,046	0,044
-134,629	433,790	-0,050	0,080
-133,614	-24,431	0,026	0,011
-132,599	-52,059	0,027	0,009
-131,585	165,688	0,076	0,078
-130,570	120,349	0,024	0,022
-129,556	-200,000	0,002	-0,046
-128,541	-26,021	0,071	-0,030
-127,526	-31,253	0,105	-0,043
-126,512	800,000	-0,017	-0,041
-125,497	-63,016	-0,129	-0,039
-124,483	111,301	-0,022	0,020
-123,468	-24,339	-0,104	-0,045
-122,453	800,000	0,011	-0,025
-121,439	-116,544	0,132	0,017
-120,424	-200,000	-0,040	0,139
-119,410	800,000	0,022	0,046
-118,395	800,000	0,070	0,165
-117,380	76,907	-0,139	0,107
-116,366	800,000	0,019	-0,039
-115,351	581,299	0,106	-0,190
-114,337	-200,000	0,015	-0,130
-113,322	-67,268	0,083	0,024
-112,307	800,000	-0,029	0,072
-111,293	-153,600	-0,129	-0,006
-110,278	-91,709	0,132	0,027
-109,264	313,444	-0,071	0,097
-108,249	205,324	0,107	-0,121
-107,234	-57,897	-0,116	0,037
-106,220	800,000	-0,028	0,060
-105,205	50,889	0,076	0,052
-104,191	-200,000	-0,045	0,155
-103,176	-200,000	0,004	0,114
-102,162	-137,061	-0,045	0,004
-101,147	800,000	-0,023	-0,050
-100,132	390,275	-0,055	-0,083
-99,118	-200,000	-0,004	-0,183
-98,103	-182,332	-0,097	0,001
-97,089	114,256	0,133	0,118
-96,074	-200,000	0,005	-0,048
-95,059	-117,207	-0,101	-0,013
-94,045	22,529	0,138	-0,082
-93,030	266,683	-0,067	0,086
-92,016	-200,000	0,012	-0,069
-91,001	15,146	0,138	0,078
-89,986	800,000	0,028	0,079
-88,972	800,000	-0,025	-0,056
-87,957	664,231	-0,028	0,054
-86,943	-200,000	-0,012	-0,050
-85,928	800,000	-0,027	-0,076
-84,913	-200,000	-0,024	-0,111
-83,899	124,453	-0,146	0,133
-82,884	-200,000	-0,017	0,094
-81,870	-154,839	0,067	-0,003
-80,855	148,171	0,023	0,023
-79,840	159,322	0,057	0,057
-78,826	-55,884	-0,062	-0,020
-77,811	-118,762	-0,037	0,005
-76,797	800,000	-0,020	0,063
-75,782	41,451	0,142	0,093
-74,767	-200,000	-0,003	0,077
-73,753	91,735	-0,136	0,111
-72,738	3,654	-0,075	-0,040
-71,724	-200,000	0,007	0,062
-70,709	165,876	0,034	-0,035
-69,694	107,154	0,115	-0,099
-68,680	180,970	0,053	0,056
-67,665	-25,695	0,129	0,055
-66,651	-200,000	0,020	0,076
-65,636	-200,000	0,004	-0,064
-64,622	-49,483	0,075	-0,026
-63,607	19,986	-0,180	-0,105
-62,592	-200,000	-0,021	-0,112
-61,578	-55,318	-0,086	0,028
-60,563	309,395	0,020	-0,027
-59,549	-38,755	0,153	-0,058
-58,534	-117,055	-1,365	-0,178
-57,519	800,000	-0,668	-1,581
-56,505	-200,000	-0,820	-4,415
-55,490	-131,775	0,548	0,051
-54,476	800,000	5,063	11,813
-53,461	-200,000	14,494	260,037
-52,446	-200,000	696,143	2274,748
-51,432	601,690	1622,962	2935,265
-50,417	117,631	1631,563	1455,328
-49,403	75,122	1285,101	980,763
-48,388	37,249	1022,550	655,152
-47,373	23,409	981,401	583,298
-46,359	22,565	970,893	574,262
-45,344	21,501	966,384	568,100
-44,330	21,444	965,156	567,170
-43,315	21,269	963,626	565,680
-42,300	21,280	962,542	565,056
-41,286	21,262	961,520	564,375
-40,271	21,179	960,519	563,495
-39,257	21,175	959,553	562,894
-38,242	21,195	958,627	562,392
-37,227	21,211	957,735	561,897
-36,213	21,181	956,861	561,267
-35,198	21,149	956,027	560,652
-34,184	21,182	955,403	560,371
-33,169	21,225	954,308	559,845
-32,154	21,279	953,405	559,467
-31,140	21,223	952,683	558,838
-30,125	21,241	951,875	558,402
-29,111	21,281	951,005	557,997
-28,096	21,216	950,413	557,418
-27,082	21,247	949,634	557,041
-26,067	21,232	948,958	556,572
-25,052	21,178	948,382	556,042
-24,038	21,275	947,617	555,880
-23,023	21,251	946,812	555,310
-22,009	21,254	946,290	554,990
-20,994	21,270	945,759	554,710
-19,979	21,284	945,036	554,307
-18,965	21,283	944,452	553,939
-17,950	21,248	943,827	553,438
-16,936	21,195	943,084	552,813
-15,921	21,186	942,444	552,386
-14,906	21,115	941,706	551,707
-13,892	21,141	941,118	551,422
-12,877	21,136	940,405	550,968
-11,863	21,069	939,804	550,381
-10,848	21,135	939,354	550,305
-9,833	21,211	938,800	550,200
-8,819	21,149	938,172	549,612
-7,804	21,139	937,577	549,212
-6,790	21,179	937,011	548,983
-5,775	21,111	936,314	548,340
-4,760	21,140	935,671	548,034
-3,746	21,122	935,082	547,610
-2,731	21,022	934,383	546,862
-1,717	21,003	933,506	546,266
-0,702	20,960	933,023	545,826
0,313	20,763	932,298	545,607
1,327	23,289	930,054	552,178
2,342	31,025	807,238	500,190
3,356	25,638	508,223	305,702
4,371	1,121	374,125	193,803
5,386	-1,796	357,230	181,450
6,400	-2,925	351,163	176,986
7,415	-3,658	348,483	174,740
8,429	-3,827	347,036	173,797
9,444	-3,733	345,991	173,370
10,459	-3,822	345,399	172,952
11,473	-3,684	344,760	172,781
12,488	-3,794	344,349	172,429
13,502	-3,816	343,599	172,013
14,517	-3,751	343,215	171,882
15,531	-3,777	342,618	171,537
16,546	-3,648	342,133	171,430
17,561	-3,697	341,743	171,162
18,575	-3,632	341,378	171,040
19,590	-3,781	340,934	170,628
20,604	-3,755	340,634	170,493
21,619	-3,725	340,195	170,293
22,634	-3,723	339,823	170,094
23,648	-3,740	339,605	169,949
24,663	-3,792	339,267	169,705
25,677	-3,761	338,972	169,579
26,692	-3,777	338,769	169,443
27,707	-3,767	338,311	169,210
28,721	-3,696	338,024	169,135
29,736	-3,816	337,742	168,838
30,750	-3,800	337,493	168,718
31,765	-3,793	337,239	168,584
32,780	-3,814	336,908	168,378
33,794	-3,720	336,597	168,317
34,809	-3,832	336,512	168,130
35,823	-3,599	335,888	168,073
36,838	-3,719	335,817	167,884
37,853	-3,736	335,432	167,657
38,867	-3,673	335,267	167,632
39,882	-3,608	334,915	167,515
40,896	-3,631	334,647	167,340
41,911	-3,710	334,395	167,108
42,926	-3,647	334,020	166,979
43,940	-3,695	333,770	166,784
44,955	-3,678	333,513	166,660
45,969	-3,781	333,304	166,423
46,984	-3,753	333,134	166,355
47,999	-3,710	332,887	166,266
49,013	-3,661	332,595	166,161
50,028	-3,565	332,272	166,094
51,042	-3,657	332,149	165,914
52,057	-3,643	331,706	165,693
53,071	-3,596	331,539	165,648
54,086	-3,644	331,269	165,445
55,101	-3,699	330,994	165,229
56,115	-3,665	330,860	165,186
57,130	-3,628	330,500	165,035
58,144	-3,714	330,222	164,783
59,159	-3,719	329,888	164,597
60,174	-3,858	329,684	164,322
61,188	-3,626	329,299	164,378
62,203	-3,724	329,179	164,193
63,217	-3,721	328,939	164,062
64,232	-3,785	328,698	163,855
65,247	-3,684	328,277	163,744
66,261	-3,745	328,081	163,564
67,276	-3,508	327,665	163,607
68,290	-3,691	327,662	163,385
69,305	-3,675	327,297	163,207
70,320	-3,704	327,144	163,083
71,334	-3,550	326,761	163,051
72,349	-3,533	326,474	162,912
73,363	-3,634	326,331	162,713
74,378	-3,701	326,048	162,483
75,393	-3,676	325,865	162,405
76,407	-3,801	325,581	162,110
77,422	-3,764	325,220	161,956
78,436	-3,697	324,980	161,897
79,451	-3,690	324,789	161,796
80,466	-3,577	324,436	161,731
81,480	-3,724	324,167	161,419
82,495	-3,698	323,997	161,349
83,509	-3,688	323,774	161,234
84,524	-3,538	323,492	161,246
85,539	-3,603	323,353	161,090
86,553	-3,763	323,131	160,788
87,568	-3,724	322,854	160,679
88,582	-3,470	322,572	160,805
89,597	-3,611	322,329	160,514
90,611	-3,614	322,181	160,422
91,626	-3,504	321,840	160,360
92,641	-3,760	321,842	160,064
93,655	-3,708	321,429	159,902
94,670	-3,646	321,087	159,786
95,684	-3,676	320,961	159,675
96,699	-3,847	320,805	159,396
97,714	-3,731	320,578	159,396
98,728	-3,678	320,262	159,283
99,743	-3,851	320,067	158,983
100,757	-3,571	319,748	159,116
101,772	-3,711	319,522	158,836
102,787	-3,670	319,201	158,707
103,801	-3,639	319,026	158,640
104,816	-3,735	318,948	158,483
105,830	-3,579	318,672	158,501
106,845	-3,771	318,493	158,189
107,860	-3,613	318,251	158,226
108,874	-3,738	317,930	157,917
109,889	-3,800	317,595	157,669
110,903	-3,644	317,362	157,709
111,918	-3,580	316,977	157,573
112,933	-3,723	316,978	157,404
113,947	-3,590	316,787	157,438
114,962	-3,661	316,581	157,246
115,976	-3,693	316,224	157,020
116,991	-3,716	316,079	156,909
118,006	-3,571	315,735	156,880
119,020	-3,696	315,626	156,678
120,035	-3,695	315,523	156,614
121,049	-3,579	315,214	156,571
122,064	-3,595	314,981	156,424
123,079	-3,560	314,832	156,374
124,093	-3,618	314,548	156,157
125,108	-3,629	314,435	156,075
126,122	-3,689	314,112	155,836
127,137	-3,516	313,900	155,902
128,151	-3,645	313,694	155,649
129,166	-3,587	313,386	155,544
130,181	-3,619	313,145	155,375
131,195	-3,672	312,965	155,216
132,210	-3,674	312,630	155,034
133,224	-3,711	312,501	154,918
134,239	-3,441	312,055	154,969
135,254	-3,596	312,070	154,798
136,268	-3,524	311,624	154,639
137,283	-3,712	311,509	154,369
138,297	-3,755	311,433	154,272
139,312	-3,695	311,193	154,203
140,327	-3,580	310,910	154,171
141,341	-3,586	310,546	153,970
142,356	-3,637	310,452	153,856
143,370	-3,585	310,300	153,822
144,385	-3,537	309,907	153,664
145,400	-3,459	309,754	153,656
146,414	-3,474	309,471	153,487
147,429	-3,520	309,248	153,314
148,443	-3,570	309,257	153,252
149,458	-3,479	308,925	153,169
150,473	-3,508	308,757	153,043
151,487	-3,471	308,453	152,917
152,502	-3,532	308,257	152,741
153,516	-3,528	307,979	152,594
154,531	-3,687	307,805	152,329
155,546	-3,597	307,595	152,304
156,560	-3,470	307,347	152,301
157,575	-3,664	307,252	152,038
158,589	-3,619	306,772	151,834
159,604	-3,625	306,695	151,776
160,619	-3,753	306,562	151,563
161,633	-3,559	306,460	151,701
162,648	-3,621	306,181	151,486
163,662	-3,378	305,939	151,605
164,677	-3,508	305,743	151,359
165,692	-3,486	305,520	151,257
166,706	-3,565	305,313	151,060
167,721	-3,485	305,158	151,053
168,735	-3,544	304,876	150,839
169,750	-3,462	304,950	150,947
170,764	-3,532	304,633	150,704
171,779	-3,694	304,415	150,415
172,794	-3,636	304,114	150,313
173,808	-3,581	303,902	150,252
174,823	-3,660	303,690	150,052
175,837	-3,688	303,559	149,945
176,852	-3,488	303,321	150,020
177,867	-3,574	303,159	149,838
178,881	-3,615	302,981	149,694
179,896	-3,529	302,714	149,637
180,910	-3,504	302,499	149,543
181,925	-3,651	302,243	149,253
182,940	-3,540	302,094	149,280
183,954	-3,579	301,941	149,152
184,969	-3,655	301,776	148,978
185,983	-3,688	301,516	148,802
186,998	-3,525	301,325	148,862
188,013	-3,589	301,002	148,624
189,027	-3,519	300,729	148,547
190,042	-3,474	300,571	148,502
191,056	-3,632	300,544	148,314
192,071	-3,573	300,328	148,255
193,086	-3,452	299,982	148,193
194,100	-3,403	299,815	148,148
195,115	-3,530	299,616	147,907
196,129	-3,570	299,375	147,734
197,144	-3,533	299,165	147,655
198,159	-3,514	298,891	147,526
199,173	-3,443	298,641	147,461
200,188	-3,541	298,418	147,238
201,202	-3,415	298,128	147,210
202,217	-3,491	298,249	147,180
203,232	-3,468	297,778	146,957
204,246	-3,540	297,631	146,799
205,261	-3,712	297,509	146,552
206,275	-3,533	297,262	146,598
207,290	-3,478	297,013	146,517
208,304	-3,529	296,935	146,415
209,319	-3,475	296,717	146,348
210,334	-3,616	296,382	146,029
211,348	-3,464	296,248	146,101
212,363	-3,521	296,052	145,935
213,377	-3,551	295,916	145,825
214,392	-3,489	295,737	145,786
215,407	-3,613	295,543	145,553
216,421	-3,393	295,320	145,650
217,436	-3,524	295,106	145,401
218,450	-3,403	294,848	145,382
219,465	-3,425	294,513	145,181
220,480	-3,442	294,444	145,117
221,494	-3,444	294,370	145,066
222,509	-3,450	294,117	144,922
223,523	-3,489	293,869	144,749
224,538	-3,424	293,776	144,755
225,553	-3,545	293,530	144,500
226,567	-3,472	293,383	144,487
227,582	-3,417	293,097	144,388
228,596	-3,477	292,897	144,217
229,611	-3,316	292,893	144,362
230,626	-3,405	292,518	144,076
231,640	-3,472	292,413	143,945
232,655	-3,530	292,171	143,756
233,669	-3,396	291,985	143,784
234,684	-3,442	291,911	143,689
235,699	-3,478	291,558	143,468
236,713	-3,144	291,330	143,671
237,728	-3,397	291,159	143,325
238,742	-3,338	290,949	143,267
239,757	-3,454	290,801	143,068
240,772	-3,513	290,585	142,891
241,786	-3,522	290,434	142,795
242,801	-3,481	290,328	142,770
243,815	-3,494	290,270	142,716
244,830	-3,425	289,930	142,604
245,844	-3,400	289,667	142,486
246,859	-3,450	289,517	142,351
247,874	-3,507	289,245	142,149
248,888	-3,437	289,181	142,173
249,903	-3,489	289,024	142,032
250,917	-3,320	288,752	142,051
251,932	-3,442	288,595	141,841
252,947	-3,585	288,348	141,569
253,961	-3,410	288,184	141,645
254,976	-3,213	288,261	141,862
255,990	-2,969	287,934	141,925
257,005	-2,642	288,072	142,298
258,020	-0,838	288,541	144,270
259,034	0,401	288,659	145,520
260,049	0,593	288,791	145,760
261,063	1,037	288,778	146,171
262,078	1,513	288,756	146,609
263,093	1,890	288,720	146,943
264,107	2,054	288,753	147,106
265,122	2,211	288,632	147,183
266,136	2,122	288,291	146,910
267,151	2,282	288,175	146,993
268,166	2,594	287,781	147,080
269,180	2,448	287,839	146,955
270,195	2,418	287,580	146,781
271,209	2,385	287,343	146,615
272,224	2,338	287,160	146,463
273,239	2,303	287,152	146,413
274,253	2,236	286,684	146,096
275,268	2,187	286,588	145,987
276,282	2,052	286,273	145,684
277,297	2,073	286,228	145,668
278,312	2,195	286,051	145,683
279,326	2,039	285,887	145,436
280,341	2,232	285,655	145,490
281,355	2,000	285,568	145,211
282,370	2,028	285,368	145,123
283,384	2,251	285,085	145,179
284,399	2,093	284,913	144,928
285,414	2,071	284,780	144,826
286,428	2,228	284,460	144,800
287,443	2,104	284,228	144,552
288,457	2,129	284,269	144,583
289,472	2,136	283,861	144,369
290,487	2,059	283,654	144,178
291,501	1,804	283,594	143,892
292,516	2,044	283,466	144,042
293,530	1,997	283,272	143,886
294,545	2,018	282,995	143,753
295,560	2,088	282,949	143,782
296,574	1,990	282,602	143,500
297,589	2,070	282,458	143,490
298,603	2,029	282,176	143,296
299,618	1,929	282,127	143,163
300,633	1,949	281,936	143,072
301,647	2,088	281,848	143,146
302,662	2,131	281,580	143,038
303,676	2,114	281,446	142,941
304,691	2,320	281,285	143,041
305,706	2,350	280,996	142,909
306,720	2,211	280,906	142,721
307,735	2,316	280,667	142,684
308,749	2,202	280,505	142,483
309,764	2,208	280,334	142,388
310,779	2,120	280,126	142,188
311,793	2,180	280,025	142,180
312,808	2,128	279,784	141,997
313,822	2,082	279,657	141,876
314,837	2,194	279,513	141,896
315,852	2,438	279,237	141,970
316,866	2,074	279,181	141,589
317,881	2,014	279,015	141,437
318,895	2,297	278,641	141,498
319,910	2,156	278,436	141,250
320,925	2,175	278,272	141,172
321,939	2,273	278,073	141,150
322,954	2,263	278,012	141,097
323,968	2,298	277,734	140,975
324,983	2,254	277,718	140,914
325,997	2,335	277,446	140,838
327,012	2,189	277,358	140,646
328,027	2,193	277,156	140,535
329,041	2,174	276,895	140,372
330,056	2,140	276,818	140,289
331,070	2,291	276,593	140,302
332,085	2,296	276,387	140,190
333,100	2,343	276,120	140,085
334,114	2,291	276,108	140,019
335,129	2,281	275,841	139,862
336,143	2,334	275,667	139,809
337,158	2,275	275,556	139,686
338,173	2,286	275,520	139,666
339,187	2,339	275,169	139,524
340,202	2,282	275,119	139,434
341,216	2,239	274,882	139,262
342,231	2,324	274,620	139,194
343,246	2,166	274,472	138,963
344,260	2,469	274,268	139,124
345,275	2,397	274,177	139,000
346,289	2,432	274,002	138,930
347,304	2,410	273,791	138,792
348,319	2,382	273,635	138,674
349,333	2,278	273,369	138,432
350,348	2,334	273,237	138,404
351,362	2,145	273,151	138,176
352,377	2,286	272,983	138,208
353,392	2,344	272,734	138,121
354,406	2,417	272,612	138,113
355,421	191,190	1349,770	1428,066
356,435	154,339	1481,105	1428,197
