DTS Sentinel unit serial number:	SN410029Multiplexer serial number:	ORYXHardware model number:	OX2-SRSoftware version number:	ORYX F/W v4,00 Oryx Data Collector v3.7.2.0data status	okinstallation	B4 Nyhavnadifferential loss correction	single-endedforward channel	channel 2reverse channel	N/Adate	2023/12/19time	08:40:13forward acquisition time	300,00reverse acquisition time	0,00gamma	499,1914k internal	0,3127k external	0,3127temperature offset calibration	1,0000default loss term (dB/km)	0,3820temperature slope calibration	1,0000multiplexer offset coefficient	1,0000multiplexer slope coefficient	1,0000fibre end	0,00T internal ref (°C)	20,75T ext. ref 1 (°C)	5,36T ext. ref 2 (°C)	5,35length (m)	temperature (°C)	Stokes	anti-Stokes-744,400	-200,000	-0,040	-0,233
-743,385	110,019	-0,194	0,173
-742,371	-200,000	0,008	-0,086
-741,356	-65,065	-0,267	0,080
-740,342	800,000	-0,016	-0,037
-739,327	42,440	-0,175	0,118
-738,312	-71,505	-0,040	-0,011
-737,298	-124,300	-0,228	0,026
-736,283	-200,000	-0,015	-0,051
-735,269	-71,829	-0,191	0,053
-734,254	-200,000	0,023	-0,128
-733,239	-59,423	-0,306	-0,097
-732,225	155,500	0,103	0,105
-731,210	-200,000	0,007	0,060
-730,196	800,000	-0,040	-0,107
-729,181	-200,000	-0,008	0,041
-728,167	-200,000	0,005	-0,131
-727,152	800,000	-0,029	0,083
-726,137	-57,447	-0,152	-0,049
-725,123	166,289	-0,081	-0,085
-724,108	-200,000	-0,027	-0,113
-723,094	273,599	-0,065	-0,086
-722,079	269,209	0,048	0,063
-721,064	14,245	-0,080	-0,046
-720,050	-160,083	0,097	0,004
-719,035	709,407	0,025	0,049
-718,021	116,268	-0,061	0,055
-717,006	4,328	-0,148	-0,080
-715,991	285,675	0,019	0,026
-714,977	117,229	-0,102	-0,093
-713,962	287,304	-0,069	-0,093
-712,948	393,634	0,032	0,050
-711,933	-200,000	0,004	-0,103
-710,918	-104,220	-0,136	-0,023
-709,904	-200,000	-0,000	-0,128
-708,889	800,000	0,076	-0,245
-707,875	-45,113	-0,083	0,031
-706,860	-145,336	-0,066	0,004
-705,845	500,454	-0,016	0,027
-704,831	795,008	-0,014	-0,029
-703,816	-126,043	-0,103	0,011
-702,802	-127,935	-0,147	-0,015
-701,787	-116,363	-0,097	0,013
-700,772	70,450	-0,059	0,045
-699,758	698,892	0,016	0,032
-698,743	-34,914	-0,079	-0,032
-697,729	-200,000	0,022	-0,086
-696,714	297,663	-0,074	-0,101
-695,699	-200,000	0,024	-0,134
-694,685	461,927	0,086	-0,142
-693,670	-32,229	-0,075	0,031
-692,656	-200,000	-0,005	0,165
-691,641	800,000	-0,071	-0,149
-690,627	-148,938	-0,114	0,007
-689,612	-200,000	0,028	-0,108
-688,597	-55,058	-0,136	-0,045
-687,583	-113,992	-0,095	-0,014
-686,568	104,506	-0,031	0,027
-685,554	-138,541	-0,068	0,005
-684,539	800,000	-0,038	-0,101
-683,524	43,250	-0,028	0,019
-682,510	800,000	0,023	0,069
-681,495	5,538	-0,021	0,011
-680,481	-67,503	-0,077	-0,022
-679,466	391,018	-0,046	-0,071
-678,451	47,568	-0,128	-0,089
-677,437	451,120	0,052	-0,085
-676,422	-200,000	-0,029	-0,103
-675,408	-160,992	0,073	0,003
-674,393	-45,461	-0,171	-0,062
-673,378	257,553	-0,021	0,027
-672,364	-52,899	-0,076	0,026
-671,349	608,093	-0,021	-0,038
-670,335	-73,302	0,077	0,021
-669,320	-200,000	0,003	-0,077
-668,305	-200,000	0,017	0,108
-667,291	187,876	0,035	0,039
-666,276	-200,000	-0,013	0,042
-665,262	126,372	-0,127	-0,119
-664,247	431,883	0,079	-0,128
-663,232	-12,863	-0,029	0,014
-662,218	-0,134	0,036	0,019
-661,203	-60,864	0,040	0,012
-660,189	-61,508	-0,075	0,023
-659,174	800,000	-0,023	0,068
-658,159	-200,000	-0,027	-0,118
-657,145	12,657	-0,095	0,054
-656,130	82,674	0,061	-0,049
-655,116	-103,753	-0,113	-0,019
-654,101	9,468	-0,042	0,023
-653,086	800,000	-0,018	0,048
-652,072	-43,470	0,034	0,013
-651,057	63,590	-0,136	-0,101
-650,043	392,421	0,060	-0,093
-649,028	-89,045	0,048	-0,010
-648,014	-108,723	-0,130	0,020
-646,999	15,309	-0,094	0,055
-645,984	91,980	-0,093	0,078
-644,970	-200,000	-0,035	0,117
-643,955	130,789	0,091	-0,087
-642,941	271,832	-0,054	-0,071
-641,926	283,243	0,053	0,071
-640,911	372,644	-0,094	0,142
-639,897	141,397	0,054	0,053
-638,882	118,489	0,077	-0,070
-637,868	-173,917	0,053	0,001
-636,853	36,235	-0,094	-0,061
-635,838	-69,049	-0,124	-0,035
-634,824	-200,000	0,033	-0,139
-633,809	137,481	-0,081	-0,078
-632,795	382,556	-0,107	0,164
-631,780	157,053	-0,097	-0,099
-630,765	800,000	0,005	-0,011
-629,751	800,000	0,004	-0,009
-628,736	88,084	-0,173	-0,142
-627,722	-79,026	0,183	-0,046
-626,707	-121,414	0,149	0,018
-625,692	8,322	0,165	-0,092
-624,678	-65,127	0,077	0,023
-623,663	800,000	-0,034	0,072
-622,649	800,000	-0,089	-0,197
-621,634	553,409	0,033	-0,060
-620,619	45,188	-0,047	-0,032
-619,605	96,011	-0,060	0,051
-618,590	800,000	-0,029	-0,070
-617,576	-63,907	0,138	0,042
-616,561	79,725	0,029	-0,023
-615,546	359,158	-0,024	0,036
-614,532	184,934	-0,090	0,099
-613,517	-70,345	-0,057	0,016
-612,503	604,561	-0,029	0,054
-611,488	571,722	0,015	0,027
-610,474	-200,000	0,012	0,068
-609,459	572,059	0,013	-0,024
-608,444	170,393	0,033	-0,035
-607,430	360,008	-0,070	0,104
-606,415	78,966	-0,034	-0,027
-605,401	219,662	0,048	-0,058
-604,386	-200,000	-0,012	0,112
-603,371	7,308	0,035	0,019
-602,357	-102,801	0,014	-0,003
-601,342	109,768	-0,055	-0,049
-600,328	-200,000	-0,007	-0,032
-599,313	-95,141	-0,064	0,013
-598,298	26,767	0,092	-0,057
-597,284	-37,085	-0,038	0,015
-596,269	-200,000	0,012	0,059
-595,255	278,275	0,067	0,089
-594,240	136,481	-0,099	-0,096
-593,225	-103,658	0,088	0,015
-592,211	-99,975	0,044	-0,008
-591,196	-83,818	-0,142	-0,033
-590,182	165,440	-0,051	0,054
-589,167	95,872	0,098	0,083
-588,152	407,102	0,022	-0,034
-587,138	79,645	0,108	-0,086
-586,123	-200,000	0,020	0,072
-585,109	-93,165	-0,125	-0,025
-584,094	475,482	-0,047	-0,079
-583,079	800,000	-0,092	0,220
-582,065	-56,861	0,033	-0,011
-581,050	-34,026	0,109	0,044
-580,036	-4,773	0,063	0,032
-579,021	800,000	-0,028	0,061
-578,006	-75,679	-0,020	-0,005
-576,992	302,790	-0,036	0,049
-575,977	386,637	0,031	-0,048
-574,963	-200,000	0,031	-0,111
-573,948	-3,310	-0,089	-0,045
-572,934	-95,923	-0,111	0,022
-571,919	800,000	0,035	0,073
-570,904	-200,000	0,023	-0,084
-569,890	-200,000	0,033	-0,130
-568,875	407,796	-0,027	-0,043
-567,861	-75,574	0,125	-0,033
-566,846	744,130	-0,041	-0,081
-565,831	525,651	0,090	0,158
-564,817	-200,000	0,009	0,072
-563,802	-35,424	0,070	0,028
-562,788	242,925	0,081	0,100
-561,773	377,770	-0,007	0,011
-560,758	-89,540	-0,039	0,008
-559,744	-165,627	-0,132	-0,004
-558,729	-15,024	0,089	0,042
-557,715	265,764	-0,055	-0,072
-556,700	-36,463	0,083	-0,033
-555,685	279,127	-0,076	-0,101
-554,671	800,000	0,055	-0,146
-553,656	122,322	-0,094	0,087
-552,642	501,414	0,048	0,083
-551,627	11,475	0,085	0,048
-550,612	-53,251	-0,048	0,016
-549,598	18,251	-0,118	-0,069
-548,583	84,760	-0,078	-0,063
-547,569	196,068	0,115	-0,129
-546,554	278,524	0,071	0,094
-545,539	-108,664	0,108	-0,017
-544,525	800,000	0,041	-0,095
-543,510	199,064	-0,038	0,043
-542,496	-200,000	-0,017	-0,177
-541,481	149,006	0,097	-0,097
-540,466	258,575	0,049	-0,063
-539,452	-134,526	-0,046	0,004
-538,437	-200,000	0,002	-0,051
-537,423	-68,223	0,140	-0,040
-536,408	16,430	0,074	0,043
-535,393	-56,215	-0,082	0,027
-534,379	247,223	0,064	0,080
-533,364	103,854	0,060	-0,052
-532,350	107,589	-0,019	0,016
-531,335	246,548	-0,039	0,049
-530,321	-17,086	0,037	0,017
-529,306	41,358	0,071	0,047
-528,291	-14,690	-0,113	0,053
-527,277	-110,316	-0,049	-0,007
-526,262	108,290	0,068	0,060
-525,248	70,858	0,092	-0,070
-524,233	-200,000	-0,012	0,112
-523,218	-44,394	0,139	0,051
-522,204	128,551	0,051	0,048
-521,189	587,154	-0,042	-0,076
-520,175	-31,596	-0,107	0,044
-519,160	44,404	-0,098	-0,066
-518,145	547,773	-0,027	-0,047
-517,131	-67,138	0,053	0,015
-516,116	145,585	-0,050	0,050
-515,102	-149,134	-0,103	-0,006
-514,087	800,000	-0,051	-0,159
-513,072	-200,000	-0,010	-0,050
-512,058	99,699	-0,056	-0,048
-511,043	-43,187	0,094	-0,035
-510,029	-131,029	0,054	-0,005
-509,014	524,440	0,082	0,143
-507,999	-154,676	-0,131	-0,006
-506,985	33,370	-0,110	-0,070
-505,970	-9,729	-0,142	-0,070
-504,956	-74,726	-0,095	0,025
-503,941	214,688	-0,108	0,127
-502,926	173,208	0,066	0,070
-501,912	-200,000	0,004	0,071
-500,897	-76,677	-0,087	0,022
-499,883	218,990	-0,050	-0,059
-498,868	-109,671	0,049	0,008
-497,853	-200,000	0,007	-0,023
-496,839	189,628	-0,023	-0,026
-495,824	-200,000	-0,010	-0,041
-494,810	-69,502	0,106	0,030
-493,795	-200,000	0,026	0,092
-492,781	12,540	0,009	0,005
-491,766	-200,000	0,013	-0,116
-490,751	-200,000	-0,086	0,000
-489,737	-200,000	-0,008	0,054
-488,722	800,000	0,030	-0,072
-487,708	231,767	0,060	0,073
-486,693	-200,000	-0,020	0,109
-485,678	246,791	0,049	-0,061
-484,664	165,868	0,046	-0,048
-483,649	331,299	0,051	-0,072
-482,635	257,843	-0,122	-0,155
-481,620	-92,735	0,071	0,015
-480,605	-200,000	-0,011	-0,044
-479,591	800,000	0,009	0,027
-478,576	169,157	-0,099	-0,104
-477,562	800,000	-0,041	0,119
-476,547	-200,000	-0,006	-0,093
-475,532	-52,126	-0,196	-0,067
-474,518	89,590	-0,090	0,074
-473,503	-200,000	0,013	-0,197
-472,489	-200,000	-0,004	-0,048
-471,474	-91,552	0,101	-0,021
-470,459	500,027	-0,037	0,063
-469,445	-200,000	-0,008	0,057
-468,430	83,350	0,039	0,031
-467,416	-9,489	0,128	-0,063
-466,401	4,670	-0,186	-0,100
-465,386	193,146	0,034	0,038
-464,372	-52,971	-0,086	-0,029
-463,357	-200,000	0,015	-0,076
-462,343	-125,172	-0,122	-0,014
-461,328	261,684	0,019	-0,024
-460,313	-200,000	0,012	0,191
-459,299	761,822	0,023	0,046
-458,284	-200,000	-0,002	-0,040
-457,270	-165,377	0,087	-0,003
-456,255	728,345	-0,113	-0,224
-455,241	-94,181	-0,095	-0,019
-454,226	-163,727	-0,098	0,003
-453,211	349,172	0,028	-0,041
-452,197	15,149	0,035	-0,020
-451,182	12,484	-0,135	0,077
-450,168	-200,000	0,030	0,193
-449,153	-83,093	0,026	-0,006
-448,138	-200,000	-0,019	-0,068
-447,124	-22,275	-0,098	-0,044
-446,109	383,197	-0,072	0,109
-445,095	-140,714	-0,028	-0,002
-444,080	55,467	0,169	0,120
-443,065	-200,000	-0,019	-0,075
-442,051	-200,000	-0,020	-0,105
-441,036	-200,000	0,012	-0,041
-440,022	790,382	-0,037	0,075
-439,007	-200,000	-0,023	-0,087
-437,992	254,059	-0,028	0,035
-436,978	47,280	0,039	-0,026
-435,963	0,990	0,090	0,047
-434,949	497,089	-0,013	-0,023
-433,934	-118,251	-0,177	-0,023
-432,919	-7,818	0,111	0,055
-431,905	308,542	0,071	-0,098
-430,890	-63,622	0,101	0,030
-429,876	153,647	0,128	-0,129
-428,861	800,000	0,033	0,090
-427,846	-16,064	0,087	-0,040
-426,832	-200,000	-0,003	-0,163
-425,817	800,000	0,022	-0,062
-424,803	-75,819	-0,067	-0,017
-423,788	-62,525	0,107	-0,032
-422,773	198,868	0,133	0,150
-421,759	111,407	-0,021	0,018
-420,744	210,069	0,038	0,043
-419,730	-83,048	-0,113	-0,027
-418,715	-64,580	-0,023	0,007
-417,701	-126,655	0,169	-0,018
-416,686	45,076	-0,036	0,024
-415,671	800,000	0,011	0,024
-414,657	129,005	0,094	0,088
-413,642	-200,000	-0,035	-0,135
-412,628	-130,084	-0,071	-0,007
-411,613	-200,000	0,043	-0,199
-410,598	-200,000	0,016	-0,054
-409,584	-200,000	-0,024	-0,093
-408,569	67,502	-0,032	0,024
-407,555	-200,000	0,019	0,150
-406,540	-9,265	-0,058	0,029
-405,525	800,000	-0,030	-0,082
-404,511	-30,059	0,056	-0,023
-403,496	-200,000	0,036	0,138
-402,482	92,116	-0,025	0,021
-401,467	252,162	0,111	0,139
-400,452	800,000	-0,042	-0,116
-399,438	800,000	0,043	0,092
-398,423	800,000	-0,064	0,193
-397,409	800,000	-0,056	0,116
-396,394	233,638	0,019	-0,023
-395,379	-200,000	-0,007	-0,074
-394,365	-49,637	0,102	-0,035
-393,350	379,366	0,071	0,107
-392,336	800,000	-0,054	0,119
-391,321	264,742	0,044	0,057
-390,306	-174,585	0,145	0,003
-389,292	800,000	0,063	-0,130
-388,277	13,974	-0,033	-0,019
-387,263	-141,772	0,056	0,004
-386,248	324,176	-0,019	0,026
-385,233	79,367	-0,088	-0,069
-384,219	-103,134	-0,095	0,016
-383,204	531,623	0,020	0,035
-382,190	201,290	0,030	-0,033
-381,175	286,070	-0,010	0,014
-380,160	800,000	0,015	0,032
-379,146	-90,721	0,138	0,029
-378,131	-200,000	-0,030	0,154
-377,117	-200,000	0,001	-0,112
-376,102	800,000	0,042	-0,090
-375,088	-200,000	-0,017	0,089
-374,073	-107,754	0,017	0,003
-373,058	-12,174	-0,073	0,035
-372,044	-71,894	0,158	0,043
-371,029	-200,000	0,026	-0,132
-370,015	-200,000	0,016	0,080
-369,000	-120,844	0,082	-0,010
-367,985	89,025	-0,051	0,041
-366,971	-1,907	-0,035	-0,018
-365,956	219,645	0,088	-0,103
-364,942	-40,095	0,136	0,052
-363,927	13,419	-0,070	-0,040
-362,912	198,403	-0,045	0,050
-361,898	800,000	0,039	-0,105
-360,883	728,013	-0,060	0,117
-359,869	-200,000	0,009	-0,111
-358,854	-200,000	0,000	-0,011
-357,839	107,561	0,009	0,008
-356,825	-166,389	0,112	-0,003
-355,810	173,922	-0,059	0,063
-354,796	313,949	0,053	0,073
-353,781	105,804	0,007	-0,006
-352,766	36,529	-0,091	0,059
-351,752	-200,000	0,004	0,030
-350,737	-200,000	0,023	0,087
-349,723	-200,000	-0,006	0,079
-348,708	-82,813	-0,038	-0,009
-347,693	-200,000	-0,032	0,123
-346,679	-200,000	-0,015	0,062
-345,664	-200,000	0,003	-0,095
-344,650	-200,000	-0,024	0,135
-343,635	312,169	0,048	0,066
-342,620	-69,824	0,070	-0,020
-341,606	-200,000	-0,036	0,118
-340,591	-200,000	0,037	-0,147
-339,577	800,000	-0,068	-0,204
-338,562	800,000	-0,039	-0,107
-337,548	-200,000	0,011	0,063
-336,533	-81,155	-0,028	-0,007
-335,518	585,442	-0,065	0,117
-334,504	-200,000	-0,008	0,041
-333,489	-200,000	0,007	-0,039
-332,475	641,433	0,070	-0,132
-331,460	-13,442	0,146	-0,069
-330,445	4,106	-0,085	-0,045
-329,431	800,000	-0,007	-0,015
-328,416	317,068	0,036	0,050
-327,402	453,580	-0,048	0,078
-326,387	-200,000	-0,008	0,075
-325,372	443,562	-0,019	0,031
-324,358	48,586	-0,031	-0,021
-323,343	-104,156	0,118	-0,020
-322,329	65,449	0,077	-0,057
-321,314	800,000	0,039	0,113
-320,299	195,882	0,070	-0,078
-319,285	260,471	0,020	-0,025
-318,270	-30,545	-0,109	-0,045
-317,256	-56,733	0,073	0,024
-316,241	-200,000	-0,006	-0,067
-315,226	43,084	-0,082	0,055
-314,212	43,325	0,075	0,050
-313,197	729,710	0,073	0,142
-312,183	-139,125	-0,162	-0,013
-311,168	79,991	-0,136	-0,107
-310,153	796,153	0,042	-0,084
-309,139	-9,037	-0,094	-0,046
-308,124	152,016	0,130	-0,130
-307,110	-200,000	0,037	-0,208
-306,095	159,544	0,026	-0,027
-305,080	-35,271	-0,078	-0,031
-304,066	-36,633	0,040	0,016
-303,051	507,380	0,044	0,074
-302,037	-131,483	0,155	0,015
-301,022	800,000	-0,072	-0,228
-300,008	-24,370	0,150	-0,065
-298,993	8,929	0,104	0,057
-297,978	800,000	0,033	-0,075
-296,964	40,467	-0,066	0,044
-295,949	800,000	-0,029	-0,089
-294,935	800,000	-0,025	-0,065
-293,920	259,030	0,063	-0,080
-292,905	184,145	-0,051	0,056
-291,891	-111,934	0,056	-0,008
-290,876	264,516	0,079	0,100
-289,862	-200,000	-0,012	0,100
-288,847	-200,000	0,021	0,123
-287,832	-200,000	-0,026	-0,090
-286,818	-129,658	-0,139	-0,014
-285,803	-98,678	0,072	-0,013
-284,789	72,998	-0,062	-0,047
-283,774	348,490	0,061	0,088
-282,759	11,447	-0,113	0,063
-281,745	800,000	0,019	0,050
-280,730	-200,000	-0,014	-0,064
-279,716	-200,000	-0,015	0,140
-278,701	244,985	0,011	0,014
-277,686	107,593	0,129	0,112
-276,672	800,000	0,050	0,112
-275,657	800,000	-0,047	0,102
-274,643	306,716	-0,031	-0,042
-273,628	-200,000	0,014	-0,071
-272,613	-104,149	0,048	0,008
-271,599	41,086	-0,079	0,052
-270,584	-200,000	0,015	0,066
-269,570	540,410	-0,078	0,136
-268,555	216,270	-0,050	-0,058
-267,540	683,790	-0,030	0,057
-266,526	-200,000	-0,014	-0,091
-265,511	-136,167	-0,052	0,004
-264,497	-74,724	0,022	-0,006
-263,482	-0,216	0,149	0,077
-262,467	5,153	0,176	-0,095
-261,453	800,000	0,045	-0,105
-260,438	-28,170	-0,110	0,046
-259,424	366,510	-0,059	0,087
-258,409	-200,000	0,017	-0,083
-257,395	800,000	-0,042	-0,125
-256,380	-200,000	0,015	-0,071
-255,365	52,563	-0,104	0,072
-254,351	577,335	-0,033	0,059
-253,336	-2,924	0,063	0,032
-252,322	239,647	0,046	0,055
-251,307	-200,000	-0,013	0,083
-250,292	70,033	0,024	-0,018
-249,278	800,000	0,040	0,113
-248,263	590,417	-0,032	-0,058
-247,249	-61,841	0,146	0,044
-246,234	78,196	-0,102	0,079
-245,219	-47,903	-0,021	0,007
-244,205	-200,000	0,024	-0,119
-243,190	-200,000	0,008	0,075
-242,176	-200,000	0,022	0,114
-241,161	310,146	-0,088	0,121
-240,146	188,649	0,037	-0,040
-239,132	123,278	-0,070	-0,064
-238,117	-50,527	-0,132	-0,045
-237,103	800,000	0,017	0,051
-236,088	190,336	0,073	0,080
-235,073	800,000	-0,063	0,135
-234,059	-52,773	0,118	0,039
-233,044	128,330	-0,107	0,099
-232,030	-142,993	-0,068	-0,005
-231,015	665,332	-0,054	-0,102
-230,000	-200,000	0,015	-0,170
-228,986	-200,000	0,033	-0,112
-227,971	446,227	0,035	0,056
-226,957	148,095	0,064	0,063
-225,942	-200,000	-0,015	-0,094
-224,927	-200,000	-0,029	-0,131
-223,913	-200,000	-0,007	-0,069
-222,898	-56,590	0,112	0,036
-221,884	239,000	0,071	0,087
-220,869	213,532	-0,063	-0,072
-219,855	-118,659	0,040	-0,005
-218,840	-14,556	-0,051	0,024
-217,825	345,881	-0,078	-0,112
-216,811	551,535	0,027	0,047
-215,796	-50,442	-0,044	0,015
-214,782	4,692	-0,121	-0,064
-213,767	328,306	0,058	0,081
-212,752	283,899	-0,024	0,031
-211,738	800,000	-0,005	0,010
-210,723	124,151	-0,060	-0,055
-209,709	-104,223	0,080	0,013
-208,694	-200,000	-0,018	0,069
-207,679	-4,307	0,068	0,034
-206,665	-200,000	0,017	0,062
-205,650	-200,000	-0,008	0,058
-204,636	447,872	0,040	-0,065
-203,621	-53,629	-0,100	-0,033
-202,606	-200,000	-0,020	0,125
-201,592	-200,000	0,009	-0,049
-200,577	123,444	0,047	-0,043
-199,563	-59,817	-0,071	-0,022
-198,548	-200,000	-0,012	-0,150
-197,533	-51,066	0,076	0,026
-196,519	-38,681	-0,068	0,026
-195,504	-172,847	-0,129	-0,003
-194,490	133,745	0,090	-0,085
-193,475	-200,000	-0,008	-0,031
-192,460	-86,123	0,109	0,024
-191,446	55,086	0,033	0,023
-190,431	-200,000	0,036	0,162
-189,417	800,000	-0,081	0,173
-188,402	167,276	-0,061	0,064
-187,387	76,335	-0,042	0,032
-186,373	633,089	-0,072	-0,133
-185,358	-41,229	-0,192	0,072
-184,344	-200,000	0,000	0,020
-183,329	275,695	0,014	-0,018
-182,315	392,209	0,060	-0,092
-181,300	-132,132	0,120	-0,011
-180,285	-96,397	-0,061	-0,012
-179,271	800,000	-0,041	-0,100
-178,256	-143,185	0,082	-0,006
-177,242	26,718	-0,026	-0,016
-176,227	-88,181	-0,041	-0,009
-175,212	649,179	0,033	-0,062
-174,198	-89,750	0,098	0,021
-173,183	14,094	-0,097	-0,055
-172,169	800,000	0,054	-0,126
-171,154	-200,000	0,021	-0,090
-170,139	-116,765	0,073	0,010
-169,125	-40,669	0,111	-0,042
-168,110	799,152	-0,021	-0,042
-167,096	-200,000	-0,016	0,090
-166,081	-200,000	-0,030	0,135
-165,066	800,000	0,035	-0,074
-164,052	-200,000	0,009	-0,221
-163,037	130,892	-0,043	0,040
-162,023	131,600	-0,147	0,137
-161,008	344,061	-0,009	-0,013
-159,993	800,000	0,076	0,211
-158,979	800,000	-0,015	-0,049
-157,964	79,782	-0,163	0,127
-156,950	-144,793	0,145	-0,010
-155,935	45,495	-0,092	0,062
-154,920	6,326	0,064	0,034
-153,906	160,023	-0,119	0,121
-152,891	14,315	-0,037	-0,021
-151,877	-39,384	-0,108	-0,041
-150,862	204,201	-0,055	-0,062
-149,847	-200,000	0,009	-0,064
-148,833	171,110	-0,042	-0,043
-147,818	-200,000	0,004	0,017
-146,804	237,543	-0,058	0,069
-145,789	-9,164	-0,038	-0,018
-144,775	27,299	0,134	0,081
-143,760	281,916	0,082	-0,107
-142,745	113,819	-0,128	-0,113
-141,731	800,000	0,032	-0,077
-140,716	392,151	0,042	-0,064
-139,702	-200,000	-0,003	-0,026
-138,687	-200,000	0,005	0,053
-137,672	375,355	-0,004	0,006
-136,658	-200,000	-0,000	0,043
-135,643	-200,000	-0,008	-0,069
-134,629	800,000	0,054	0,138
-133,614	151,772	0,079	-0,079
-132,599	-200,000	0,021	0,120
-131,585	-112,655	0,098	-0,014
-130,570	198,631	0,075	0,083
-129,556	37,635	-0,038	-0,024
-128,541	-112,504	-0,170	-0,024
-127,526	-112,790	0,073	0,010
-126,512	-109,939	0,176	-0,027
-125,497	14,764	0,184	0,104
-124,483	-200,000	-0,016	0,151
-123,468	129,129	-0,052	0,048
-122,453	313,096	-0,056	0,077
-121,439	231,066	-0,077	-0,092
-120,424	800,000	0,064	-0,156
-119,410	673,723	0,041	-0,078
-118,395	800,000	0,054	-0,151
-117,380	800,000	-0,063	0,169
-116,366	33,612	0,085	-0,054
-115,351	-72,120	-0,071	-0,019
-114,337	124,080	-0,083	-0,076
-113,322	-56,168	0,029	-0,009
-112,307	-200,000	-0,002	-0,110
-111,293	17,165	-0,095	-0,055
-110,278	-111,219	0,145	0,021
-109,264	-7,938	0,148	0,072
-108,249	251,542	-0,055	0,068
-107,234	-200,000	-0,010	-0,078
-106,220	48,765	0,045	-0,030
-105,205	97,782	0,039	-0,033
-104,191	130,867	0,108	-0,100
-103,176	-157,139	0,023	-0,001
-102,162	-200,000	-0,021	-0,117
-101,147	-171,529	-0,150	0,004
-100,132	-35,274	0,146	-0,057
-99,118	-56,765	0,067	0,021
-98,103	-200,000	-0,007	0,053
-97,089	800,000	-0,028	0,073
-96,074	157,417	-0,079	0,080
-95,059	-200,000	0,014	0,087
-94,045	-46,472	-0,068	0,024
-93,030	767,167	-0,008	0,015
-92,016	533,343	-0,063	-0,108
-91,001	-200,000	0,011	-0,052
-89,986	-200,000	-0,028	-0,142
-88,972	70,663	0,082	-0,061
-87,957	67,062	-0,021	0,015
-86,943	-40,237	-0,131	0,049
-85,928	-69,401	-0,106	-0,029
-84,913	-69,260	0,023	0,006
-83,899	320,444	0,053	0,073
-82,884	-131,626	0,101	0,009
-81,870	136,587	-0,035	0,033
-80,855	0,036	0,053	0,027
-79,840	-80,643	-0,051	0,012
-78,826	-108,023	-0,067	-0,011
-77,811	388,686	-0,071	-0,106
-76,797	-69,147	-0,029	-0,008
-75,782	-200,000	0,004	-0,091
-74,767	-200,000	-0,019	0,125
-73,753	-167,035	0,158	0,005
-72,738	-74,410	-0,102	-0,026
-71,724	265,150	0,067	0,085
-70,709	185,588	-0,108	-0,117
-69,694	-45,863	-0,038	-0,014
-68,680	83,676	0,042	-0,033
-67,665	-200,000	-0,008	-0,102
-66,651	-60,944	-0,074	0,023
-65,636	-200,000	0,002	-0,177
-64,622	-200,000	-0,038	-0,187
-63,607	86,932	-0,114	0,091
-62,592	94,734	0,016	-0,013
-61,578	-200,000	-0,031	0,116
-60,563	-200,000	-0,003	-0,104
-59,549	-92,556	0,123	0,025
-58,534	-79,042	-1,254	-0,307
-57,519	563,173	-0,819	-1,442
-56,505	-200,000	-0,832	-4,438
-55,490	-102,959	0,694	-0,118
-54,476	800,000	5,001	11,678
-53,461	-200,000	14,663	263,929
-52,446	-200,000	698,361	2280,693
-51,432	603,173	1623,318	2938,343
-50,417	119,993	1629,825	1464,779
-49,403	78,579	1282,647	992,639
-48,388	37,714	1021,023	655,659
-47,373	23,118	980,597	581,778
-46,359	22,262	969,817	572,555
-45,344	20,967	965,566	565,799
-44,330	20,989	964,280	565,096
-43,315	20,826	962,830	563,691
-42,300	20,772	961,859	562,924
-41,286	20,801	960,592	562,256
-40,271	20,798	959,771	561,744
-39,257	20,822	958,669	561,153
-38,242	20,762	957,872	560,470
-37,227	20,752	957,163	560,000
-36,213	20,853	955,825	559,522
-35,198	20,707	955,198	558,661
-34,184	20,804	954,452	558,514
-33,169	20,709	953,685	557,739
-32,154	20,825	952,608	557,459
-31,140	20,768	951,899	556,838
-30,125	20,778	951,109	556,386
-29,111	20,806	950,172	555,907
-28,096	20,778	949,701	555,521
-27,082	20,779	948,771	554,956
-26,067	20,797	947,958	554,516
-25,052	20,834	947,011	554,059
-24,038	20,819	946,600	553,750
-23,023	20,782	945,797	553,138
-22,009	20,790	945,280	552,842
-20,994	20,817	944,710	552,572
-19,979	20,875	944,076	552,362
-18,965	20,766	943,483	551,649
-17,950	20,798	942,894	551,382
-16,936	20,647	942,377	550,578
-15,921	20,697	941,440	550,168
-14,906	20,700	940,706	549,728
-13,892	20,709	940,194	549,434
-12,877	20,646	939,538	548,828
-11,863	20,657	938,937	548,490
-10,848	20,639	938,457	548,133
-9,833	20,734	938,097	548,202
-8,819	20,780	937,289	547,851
-7,804	20,708	936,678	547,248
-6,790	20,671	936,254	546,860
-5,775	20,660	935,627	546,438
-4,760	20,723	934,787	546,124
-3,746	20,642	934,278	545,550
-2,731	20,515	933,791	544,843
-1,717	20,472	932,934	544,185
-0,702	20,465	932,295	543,768
0,313	20,260	931,720	543,610
1,327	22,734	929,204	549,858
2,342	30,160	805,977	497,007
3,356	24,474	507,200	303,059
4,371	0,096	373,604	192,191
5,386	-2,748	356,875	180,075
6,400	-3,853	350,926	175,721
7,415	-4,200	348,301	173,975
8,429	-4,237	346,847	173,189
9,444	-4,217	345,947	172,748
10,459	-4,200	345,427	172,493
11,473	-4,177	344,792	172,187
12,488	-4,219	344,162	171,808
13,502	-4,291	343,532	171,393
14,517	-4,160	343,002	171,268
15,531	-4,222	342,676	171,016
16,546	-4,023	342,173	170,985
17,561	-3,983	341,867	170,864
18,575	-4,059	341,513	170,582
19,590	-4,063	341,013	170,313
20,604	-3,980	340,697	170,237
21,619	-4,086	340,298	169,899
22,634	-3,969	339,879	169,811
23,648	-4,096	339,695	169,556
24,663	-4,007	339,254	169,424
25,677	-4,185	339,052	169,101
26,692	-4,029	338,721	169,102
27,707	-4,080	338,329	168,832
28,721	-3,970	338,080	168,821
29,736	-4,190	337,946	168,482
30,750	-3,893	337,307	168,494
31,765	-4,131	337,218	168,158
32,780	-3,927	336,793	168,168
33,794	-3,934	336,589	168,043
34,809	-4,026	336,379	167,816
35,823	-4,023	336,233	167,732
36,838	-3,870	335,707	167,631
37,853	-3,975	335,442	167,363
38,867	-4,032	335,294	167,208
39,882	-4,021	335,070	167,094
40,896	-3,827	334,623	167,080
41,911	-4,121	334,328	166,580
42,926	-4,057	334,090	166,519
43,940	-4,124	334,006	166,386
44,955	-4,067	333,494	166,181
45,969	-3,960	333,281	166,184
46,984	-4,004	333,053	166,004
47,999	-3,957	332,917	165,976
49,013	-4,063	332,673	165,718
50,028	-3,946	332,397	165,699
51,042	-3,925	332,062	165,542
52,057	-3,964	331,820	165,362
53,071	-3,859	331,661	165,387
54,086	-3,856	331,276	165,183
55,101	-3,994	331,155	164,952
56,115	-3,953	330,831	164,823
57,130	-3,947	330,442	164,621
58,144	-4,084	330,205	164,333
59,159	-3,913	329,747	164,284
60,174	-4,055	329,669	164,069
61,188	-3,978	329,349	163,983
62,203	-4,175	329,050	163,597
63,217	-4,073	328,869	163,607
64,232	-4,010	328,532	163,496
65,247	-4,095	328,310	163,275
66,261	-4,046	328,083	163,203
67,276	-3,939	327,898	163,216
68,290	-3,965	327,657	163,053
69,305	-3,891	327,195	162,892
70,320	-3,930	327,149	162,811
71,334	-3,971	326,860	162,606
72,349	-4,013	326,651	162,440
73,363	-4,145	326,305	162,107
74,378	-3,997	325,865	162,039
75,393	-3,816	325,627	162,108
76,407	-4,013	325,635	161,878
77,422	-3,989	325,334	161,740
78,436	-4,067	325,012	161,479
79,451	-4,082	324,855	161,370
80,466	-4,053	324,538	161,230
81,480	-4,044	324,320	161,118
82,495	-4,051	324,202	161,037
83,509	-3,870	323,812	161,030
84,524	-3,899	323,519	160,837
85,539	-3,882	323,455	160,810
86,553	-4,043	323,093	160,438
87,568	-3,966	322,962	160,443
88,582	-3,999	322,591	160,207
89,597	-4,019	322,348	160,052
90,611	-4,054	322,325	159,987
91,626	-3,842	321,850	159,970
92,641	-3,937	321,787	159,820
93,655	-3,889	321,380	159,656
94,670	-3,986	321,143	159,418
95,684	-3,972	320,893	159,295
96,699	-3,902	320,728	159,276
97,714	-4,061	320,627	159,037
98,728	-3,935	320,265	158,982
99,743	-4,073	320,105	158,737
100,757	-3,810	319,759	158,838
101,772	-3,873	319,534	158,644
102,787	-3,972	319,290	158,400
103,801	-4,019	319,137	158,258
104,816	-4,073	318,963	158,100
105,830	-4,062	318,637	157,936
106,845	-4,092	318,545	157,844
107,860	-3,910	318,003	157,759
108,874	-3,994	317,841	157,574
109,889	-3,981	317,645	157,476
110,903	-4,129	317,410	157,185
111,918	-4,034	317,169	157,154
112,933	-3,945	316,921	157,114
113,947	-3,910	316,847	157,101
114,962	-3,958	316,513	156,870
115,976	-3,848	316,165	156,802
116,991	-4,036	316,091	156,548
118,006	-3,937	315,940	156,566
119,020	-4,044	315,741	156,339
120,035	-3,930	315,510	156,333
121,049	-4,067	315,320	156,078
122,064	-3,811	314,992	156,176
123,079	-3,990	314,915	155,932
124,093	-3,959	314,520	155,756
125,108	-3,981	314,170	155,545
126,122	-4,140	314,133	155,342
127,137	-3,902	314,110	155,573
128,151	-3,884	313,755	155,402
129,166	-3,929	313,478	155,203
130,181	-3,964	313,292	155,059
131,195	-3,896	313,050	154,998
132,210	-3,939	312,788	154,808
133,224	-3,886	312,562	154,739
134,239	-3,856	312,175	154,566
135,254	-4,040	312,137	154,338
136,268	-3,946	311,742	154,229
137,283	-3,934	311,638	154,176
138,297	-3,916	311,315	154,021
139,312	-3,915	311,064	153,885
140,327	-4,046	311,052	153,726
141,341	-3,859	310,700	153,736
142,356	-3,900	310,445	153,553
143,370	-3,918	310,329	153,463
144,385	-4,084	310,124	153,173
145,400	-3,967	309,853	153,149
146,414	-3,798	309,521	153,149
147,429	-3,795	309,281	153,020
148,443	-3,908	309,234	152,864
149,458	-4,051	309,125	152,646
150,473	-3,873	308,737	152,628
151,487	-4,079	308,572	152,316
152,502	-3,968	308,238	152,254
153,516	-4,115	308,230	152,083
154,531	-3,953	307,870	152,061
155,546	-3,991	307,768	151,957
156,560	-4,046	307,513	151,760
157,575	-3,899	307,195	151,743
158,589	-3,872	306,924	151,624
159,604	-3,908	306,772	151,498
160,619	-3,905	306,641	151,423
161,633	-3,979	306,552	151,288
162,648	-3,929	306,288	151,197
163,662	-3,973	306,142	151,065
164,677	-3,946	305,780	150,902
165,692	-3,873	305,469	150,810
166,706	-4,028	305,480	150,642
167,721	-3,873	305,233	150,667
168,735	-3,830	305,012	150,588
169,750	-3,990	304,888	150,349
170,764	-4,093	304,667	150,119
171,779	-3,935	304,398	150,137
172,794	-3,924	304,238	150,056
173,808	-3,962	304,045	149,908
174,823	-3,777	303,709	149,920
175,837	-3,694	303,537	149,907
176,852	-3,941	303,410	149,576
177,867	-3,953	303,139	149,417
178,881	-4,030	302,953	149,233
179,896	-3,878	302,805	149,304
180,910	-4,014	302,525	149,012
181,925	-3,956	302,269	148,932
182,940	-3,906	302,099	148,886
183,954	-4,084	301,976	148,630
184,969	-3,819	301,825	148,814
185,983	-3,882	301,627	148,639
186,998	-3,653	301,351	148,723
188,013	-3,781	301,139	148,475
189,027	-3,942	300,823	148,142
190,042	-3,888	300,708	148,127
191,056	-3,818	300,550	148,107
192,071	-4,044	300,191	147,687
193,086	-4,010	300,030	147,629
194,100	-3,937	299,805	147,579
195,115	-3,835	299,612	147,574
196,129	-3,869	299,431	147,438
197,144	-3,861	299,199	147,319
198,159	-3,797	298,922	147,235
199,173	-3,968	298,753	146,965
200,188	-4,063	298,534	146,748
201,202	-4,094	298,317	146,597
202,217	-3,883	298,174	146,726
203,232	-3,789	297,912	146,679
204,246	-3,813	297,675	146,525
205,261	-4,039	297,607	146,251
206,275	-3,900	297,302	146,228
207,290	-3,999	297,350	146,139
208,304	-3,851	297,040	146,122
209,319	-3,991	296,869	145,884
210,334	-3,806	296,342	145,797
211,348	-3,685	296,171	145,822
212,363	-3,824	296,221	145,695
213,377	-3,843	295,946	145,527
214,392	-3,966	295,763	145,301
215,407	-3,842	295,671	145,367
216,421	-3,897	295,325	145,129
217,436	-3,840	295,123	145,074
218,450	-3,939	294,937	144,870
219,465	-3,798	294,682	144,873
220,480	-3,995	294,665	144,655
221,494	-3,962	294,441	144,565
222,509	-3,925	294,269	144,505
223,523	-3,997	294,021	144,298
224,538	-3,883	293,918	144,348
225,553	-3,921	293,629	144,156
226,567	-3,651	293,325	144,262
227,582	-4,019	293,297	143,870
228,596	-3,884	293,073	143,881
229,611	-4,080	292,985	143,632
230,626	-3,902	292,556	143,584
231,640	-3,791	292,498	143,653
232,655	-3,897	292,209	143,393
233,669	-3,860	292,117	143,372
234,684	-3,667	291,797	143,392
235,699	-3,796	291,767	143,237
236,713	-3,875	291,656	143,093
237,728	-3,817	291,409	143,015
238,742	-3,894	291,162	142,805
239,757	-4,070	290,944	142,513
240,772	-3,880	290,779	142,606
241,786	-4,030	290,633	142,375
242,801	-3,886	290,394	142,386
243,815	-3,852	290,235	142,329
244,830	-3,822	289,903	142,183
245,844	-3,776	289,657	142,094
246,859	-3,832	289,596	141,997
247,874	-3,720	289,436	142,014
248,888	-3,770	289,234	141,855
249,903	-3,993	289,091	141,554
250,917	-3,933	288,775	141,445
251,932	-3,903	288,641	141,396
252,947	-4,244	288,269	140,870
253,961	-4,681	288,004	140,303
254,976	-4,663	287,861	140,238
255,990	-4,350	287,570	140,388
257,005	-3,392	288,025	141,528
258,020	-1,177	288,721	144,011
259,034	0,095	288,966	145,357
260,049	0,528	289,148	145,857
261,063	1,090	289,048	146,339
262,078	1,414	288,996	146,615
263,093	1,540	288,900	146,675
264,107	1,866	288,740	146,897
265,122	1,980	288,697	146,972
266,136	2,165	288,662	147,121
267,151	2,078	288,347	146,862
268,166	2,371	288,097	147,006
269,180	2,259	287,971	146,819
270,195	2,347	287,686	146,747
271,209	2,336	287,539	146,648
272,224	2,158	287,431	146,408
273,239	2,212	287,219	146,339
274,253	2,185	286,966	146,171
275,268	2,160	286,755	146,027
276,282	1,913	286,596	145,695
277,297	2,108	286,383	145,761
278,312	2,211	286,287	145,798
279,326	2,325	286,034	145,766
280,341	1,981	285,812	145,310
281,355	2,137	285,608	145,343
282,370	2,015	285,522	145,169
283,384	2,124	285,286	145,140
284,399	2,159	285,072	145,052
285,414	1,994	284,967	144,828
286,428	2,068	284,649	144,724
287,443	2,226	284,328	144,698
288,457	1,898	284,384	144,401
289,472	1,879	284,069	144,211
290,487	1,951	283,936	144,199
291,501	1,866	283,709	143,989
292,516	1,788	283,603	143,849
293,530	1,724	283,397	143,671
294,545	1,951	283,127	143,737
295,560	1,937	283,070	143,682
296,574	1,844	283,020	143,555
297,589	1,875	282,554	143,336
298,603	1,801	282,385	143,166
299,618	1,986	282,275	143,273
300,633	1,884	282,111	143,081
301,647	1,918	281,874	142,980
302,662	2,033	281,758	143,017
303,676	2,147	281,621	143,042
304,691	2,035	281,453	142,838
305,706	2,168	281,206	142,825
306,720	2,048	281,106	142,649
307,735	2,022	281,045	142,581
308,749	2,185	280,769	142,581
309,764	2,112	280,433	142,329
310,779	2,027	280,334	142,187
311,793	2,044	280,164	142,104
312,808	2,121	279,875	142,016
313,822	1,967	279,667	141,754
314,837	1,974	279,462	141,644
315,852	2,000	279,548	141,700
316,866	1,979	279,333	141,558
317,881	2,073	279,024	141,477
318,895	1,876	278,894	141,215
319,910	2,031	278,689	141,242
320,925	1,936	278,535	141,064
321,939	2,078	278,312	141,070
322,954	1,971	278,218	140,911
323,968	2,217	278,024	141,028
324,983	2,117	277,842	140,830
325,997	2,035	277,792	140,716
327,012	2,093	277,488	140,604
328,027	2,378	277,199	140,708
329,041	2,074	277,121	140,375
330,056	2,127	276,996	140,348
331,070	2,162	276,785	140,261
332,085	2,253	276,618	140,248
333,100	2,109	276,307	139,945
334,114	2,092	276,148	139,837
335,129	2,066	276,062	139,756
336,143	2,182	275,893	139,765
337,158	2,233	275,803	139,754
338,173	2,096	275,545	139,484
339,187	2,261	275,365	139,533
340,202	2,369	275,088	139,479
341,216	2,136	274,936	139,176
342,231	2,094	274,761	139,036
343,246	2,070	274,705	138,974
344,260	2,118	274,493	138,899
345,275	2,264	274,309	138,927
346,289	2,308	274,220	138,909
347,304	2,313	273,918	138,748
348,319	2,122	273,835	138,519
349,333	2,245	273,578	138,489
350,348	2,138	273,398	138,288
351,362	2,116	273,233	138,173
352,377	2,206	273,185	138,217
353,392	2,308	272,873	138,140
354,406	2,297	272,724	138,043
355,421	192,313	1347,251	1428,910
356,435	155,311	1478,249	1429,028
