DTS Sentinel unit serial number:	SN410029Multiplexer serial number:	ORYXHardware model number:	OX2-SRSoftware version number:	ORYX F/W v4,00 Oryx Data Collector v3.7.2.0data status	okinstallation	B4 Nyhavnadifferential loss correction	single-endedforward channel	channel 2reverse channel	N/Adate	2023/12/16time	06:05:13forward acquisition time	300,00reverse acquisition time	0,00gamma	499,1914k internal	0,3128k external	0,3128temperature offset calibration	1,0000default loss term (dB/km)	0,3820temperature slope calibration	1,0000multiplexer offset coefficient	1,0000multiplexer slope coefficient	1,0000fibre end	0,00T internal ref (°C)	22,25T ext. ref 1 (°C)	7,55T ext. ref 2 (°C)	7,73length (m)	temperature (°C)	Stokes	anti-Stokes-744,400	-200,000	-0,028	-0,109
-743,385	71,738	-0,112	0,086
-742,371	-184,461	0,157	0,002
-741,356	-13,418	-0,167	0,080
-740,342	-115,161	0,056	-0,008
-739,327	32,901	-0,287	0,185
-738,312	800,000	-0,015	0,032
-737,298	-108,694	-0,185	0,029
-736,283	73,771	0,041	-0,032
-735,269	-76,821	-0,243	0,063
-734,254	-200,000	-0,029	0,098
-733,239	-105,439	-0,395	-0,066
-732,225	1,497	0,076	0,041
-731,210	74,022	-0,121	0,095
-730,196	800,000	-0,059	-0,161
-729,181	-76,470	-0,042	0,011
-728,167	800,000	0,005	0,012
-727,152	20,262	-0,142	0,085
-726,137	-112,759	-0,244	-0,036
-725,123	423,962	0,071	-0,114
-724,108	-71,246	-0,154	-0,043
-723,094	-136,305	0,064	-0,005
-722,079	0,414	-0,150	-0,079
-721,064	-200,000	0,013	-0,148
-720,050	288,355	-0,064	0,086
-719,035	25,424	-0,102	0,063
-718,021	-200,000	-0,026	-0,149
-717,006	9,986	0,033	0,019
-715,991	-200,000	-0,007	0,029
-714,977	-158,027	-0,103	-0,004
-713,962	-200,000	-0,039	-0,179
-712,948	-162,867	-0,104	0,004
-711,933	-84,973	-0,059	0,014
-710,918	661,870	-0,023	0,044
-709,904	-200,000	-0,037	-0,153
-708,889	308,253	-0,027	-0,038
-707,875	-76,401	-0,069	-0,018
-706,860	-200,000	0,000	-0,083
-705,845	-200,000	0,011	-0,077
-704,831	-62,795	0,037	-0,011
-703,816	800,000	-0,035	0,078
-702,802	-200,000	-0,174	0,000
-701,787	-200,000	0,005	-0,101
-700,772	800,000	-0,032	-0,080
-699,758	321,944	-0,031	0,043
-698,743	-186,420	0,063	0,001
-697,729	330,888	-0,064	0,092
-696,714	-200,000	-0,014	-0,061
-695,699	36,255	0,048	-0,031
-694,685	427,777	-0,042	-0,068
-693,670	-29,381	-0,062	0,026
-692,656	800,000	-0,042	-0,134
-691,641	183,047	0,017	0,018
-690,627	800,000	-0,032	0,076
-689,612	36,465	0,087	0,057
-688,597	162,437	-0,042	0,044
-687,583	-143,448	-0,125	-0,009
-686,568	-120,000	0,072	-0,009
-685,554	-200,000	-0,014	-0,055
-684,539	-119,589	0,073	-0,009
-683,524	-200,000	-0,014	-0,058
-682,510	-200,000	-0,007	-0,071
-681,495	460,721	-0,007	-0,011
-680,481	-200,000	-0,001	-0,014
-679,466	-184,451	-0,081	-0,001
-678,451	-49,752	0,048	-0,017
-677,437	800,000	-0,070	0,146
-676,422	-89,983	0,063	0,014
-675,408	-113,569	-0,249	0,036
-674,393	368,729	-0,074	-0,111
-673,378	-127,868	-0,127	0,013
-672,364	-172,333	-0,140	0,003
-671,349	-200,000	0,004	-0,043
-670,335	429,218	-0,041	-0,066
-669,320	-12,586	-0,118	0,057
-668,305	338,927	0,089	0,129
-667,291	76,039	-0,076	-0,059
-666,276	-53,262	-0,096	0,033
-665,262	-200,000	0,014	-0,055
-664,247	-200,000	0,022	0,155
-663,232	-200,000	-0,010	0,111
-662,218	61,701	0,008	-0,006
-661,203	-200,000	0,012	0,097
-660,189	-47,102	0,095	0,034
-659,174	-79,272	-0,033	-0,008
-658,159	-191,637	0,122	0,001
-657,145	-200,000	0,010	-0,141
-656,130	-42,451	0,134	0,050
-655,116	-70,939	0,155	0,043
-654,101	-200,000	0,065	0,227
-653,086	-64,322	-0,071	-0,021
-652,072	29,167	0,085	0,054
-651,057	92,177	-0,109	-0,091
-650,043	426,910	0,002	-0,004
-649,028	190,162	-0,060	0,067
-648,014	-200,000	-0,015	-0,073
-646,999	800,000	0,064	0,150
-645,984	800,000	-0,020	0,050
-644,970	-181,954	-0,111	0,002
-643,955	145,563	-0,080	-0,080
-642,941	-200,000	0,014	-0,129
-641,926	-63,911	0,054	-0,016
-640,911	12,017	0,118	-0,067
-639,897	206,805	-0,071	0,082
-638,882	237,963	0,010	0,013
-637,868	-200,000	-0,011	-0,094
-636,853	785,577	-0,038	-0,078
-635,838	-12,330	0,033	-0,016
-634,824	79,048	0,056	-0,045
-633,809	-200,000	-0,011	-0,092
-632,795	-22,543	-0,096	0,043
-631,780	-110,140	-0,118	0,018
-630,765	-104,014	-0,113	0,019
-629,751	-200,000	-0,003	-0,023
-628,736	800,000	-0,048	-0,113
-627,722	-200,000	-0,006	0,041
-626,707	-68,802	-0,129	0,037
-625,692	554,034	-0,055	0,099
-624,678	800,000	-0,049	0,116
-623,663	80,695	-0,083	-0,066
-622,649	154,237	-0,087	-0,089
-621,634	251,686	-0,071	-0,090
-620,619	-60,035	0,046	0,015
-619,605	-8,423	-0,039	-0,020
-618,590	-94,427	-0,084	0,017
-617,576	800,000	-0,042	-0,091
-616,561	-41,432	0,073	0,028
-615,546	135,062	-0,034	-0,032
-614,532	405,804	0,059	-0,092
-613,517	-163,508	-0,097	-0,003
-612,503	-2,588	0,076	-0,040
-611,488	119,240	-0,046	-0,042
-610,474	800,000	0,036	0,088
-609,459	191,324	-0,060	0,067
-608,444	-135,010	-0,074	0,006
-607,430	-152,290	-0,234	0,012
-606,415	-200,000	0,010	-0,043
-605,401	357,649	0,064	0,095
-604,386	-23,676	-0,275	0,121
-603,371	-89,219	-0,040	-0,009
-602,357	800,000	0,019	-0,045
-601,342	325,233	0,064	-0,090
-600,328	439,992	-0,085	0,137
-599,313	159,916	0,069	-0,072
-598,298	334,265	0,060	-0,086
-597,284	-1,414	0,046	-0,024
-596,269	-1,859	0,036	-0,019
-595,255	-66,736	-0,042	-0,012
-594,240	243,275	0,004	-0,005
-593,225	-200,000	-0,026	-0,157
-592,211	245,606	-0,086	-0,107
-591,196	800,000	-0,014	-0,036
-590,182	800,000	0,029	-0,077
-589,167	476,649	0,043	0,073
-588,152	-78,419	0,110	0,028
-587,138	-32,672	-0,138	-0,057
-586,123	-76,816	-0,104	0,027
-585,109	788,466	0,019	-0,039
-584,094	277,174	-0,049	-0,064
-583,079	800,000	-0,039	0,121
-582,065	467,462	0,075	-0,124
-581,050	-64,122	0,042	-0,013
-580,036	-137,947	-0,091	-0,007
-579,021	45,712	-0,023	0,016
-578,006	800,000	-0,022	-0,060
-576,992	800,000	0,072	-0,207
-575,977	800,000	0,020	0,061
-574,963	232,348	0,054	0,065
-573,948	-200,000	0,002	0,071
-572,934	-154,566	-0,161	0,008
-571,919	-7,912	0,082	-0,041
-570,904	-200,000	0,006	-0,121
-569,890	17,234	0,029	-0,017
-568,875	-200,000	-0,046	-0,162
-567,861	-109,504	-0,037	-0,006
-566,846	800,000	-0,053	-0,149
-565,831	85,145	-0,136	-0,110
-564,817	397,182	-0,031	-0,049
-563,802	-200,000	0,027	0,101
-562,788	32,559	-0,146	-0,093
-561,773	152,821	-0,112	0,114
-560,758	-200,000	-0,015	0,061
-559,744	334,650	-0,060	-0,086
-558,729	-4,761	0,046	0,023
-557,715	-71,675	-0,047	-0,013
-556,700	-75,353	-0,122	-0,032
-555,685	-25,557	0,048	0,021
-554,671	-200,000	-0,001	-0,030
-553,656	506,996	-0,054	-0,092
-552,642	-134,656	-0,076	0,007
-551,627	-70,574	-0,074	0,021
-550,612	800,000	0,024	0,078
-549,598	133,112	-0,066	0,063
-548,583	800,000	0,015	-0,041
-547,569	-167,868	-0,132	-0,004
-546,554	-200,000	-0,034	0,206
-545,539	220,387	0,069	0,081
-544,525	59,236	0,028	-0,020
-543,510	-200,000	-0,015	0,120
-542,496	-120,867	0,090	0,011
-541,481	-114,888	-0,069	0,010
-540,466	-22,538	0,088	-0,039
-539,452	-200,000	0,021	0,123
-538,437	99,689	0,065	-0,055
-537,423	108,341	0,104	-0,091
-536,408	-72,405	-0,098	-0,027
-535,393	28,409	-0,065	0,040
-534,379	63,678	-0,051	-0,038
-533,364	118,108	-0,097	-0,089
-532,350	134,247	-0,064	0,062
-531,335	3,535	0,160	0,086
-530,321	249,710	0,021	0,026
-529,306	554,026	-0,055	0,099
-528,291	-200,000	-0,016	0,055
-527,277	-80,058	-0,047	-0,012
-526,262	312,574	0,034	0,047
-525,248	-115,924	-0,095	-0,013
-524,233	256,679	-0,081	0,103
-523,218	800,000	-0,025	0,055
-522,204	-12,263	0,063	-0,030
-521,189	39,623	-0,053	0,035
-520,175	-200,000	0,002	-0,067
-519,160	-200,000	-0,001	-0,070
-518,145	-200,000	-0,002	-0,032
-517,131	-200,000	0,017	0,100
-516,116	80,306	0,033	0,026
-515,102	-99,329	0,124	0,023
-514,087	164,581	-0,051	-0,053
-513,072	-200,000	0,002	0,019
-512,058	-200,000	0,005	0,052
-511,043	-200,000	0,000	0,017
-510,029	800,000	-0,005	0,013
-509,014	-145,014	-0,174	-0,012
-507,999	296,276	0,080	0,109
-506,985	225,924	-0,082	-0,099
-505,970	395,570	-0,077	-0,119
-504,956	-48,576	0,066	0,023
-503,941	51,027	0,107	-0,075
-502,926	-200,000	0,006	-0,070
-501,912	-200,000	-0,004	-0,033
-500,897	132,450	0,058	-0,055
-499,883	-110,705	-0,071	-0,011
-498,868	268,370	0,118	-0,152
-497,853	-13,285	0,024	-0,012
-496,839	800,000	0,056	0,157
-495,824	302,932	0,051	0,070
-494,810	-113,907	0,170	0,024
-493,795	-84,560	0,065	-0,015
-492,781	584,492	-0,034	0,061
-491,766	159,978	-0,002	0,002
-490,751	73,297	-0,109	-0,084
-489,737	-131,812	-0,047	0,004
-488,722	297,415	-0,034	-0,046
-487,708	-200,000	-0,009	0,138
-486,693	-56,869	0,094	0,030
-485,678	-96,087	0,145	0,028
-484,664	-8,356	-0,066	0,033
-483,649	76,258	-0,083	-0,065
-482,635	-109,719	-0,046	0,007
-481,620	800,000	0,024	-0,064
-480,605	-200,000	0,004	0,127
-479,591	326,891	-0,028	0,040
-478,576	-101,849	0,038	-0,007
-477,562	269,519	0,024	0,031
-476,547	-66,320	-0,190	-0,055
-475,532	135,486	-0,041	-0,039
-474,518	-200,000	0,012	0,080
-473,503	102,864	0,032	-0,027
-472,489	-84,806	-0,037	-0,008
-471,474	188,489	0,110	0,121
-470,459	252,779	-0,092	0,116
-469,445	257,996	-0,053	-0,067
-468,430	-55,812	-0,076	0,025
-467,416	-89,073	0,037	-0,008
-466,401	-89,973	0,128	-0,027
-465,386	-18,587	-0,070	0,032
-464,372	248,159	-0,022	0,028
-463,357	-200,000	0,019	0,072
-462,343	800,000	-0,037	-0,110
-461,328	-9,290	-0,048	-0,023
-460,313	-200,000	-0,001	0,017
-459,299	-73,911	0,115	-0,031
-458,284	-128,079	0,119	-0,012
-457,270	75,309	0,132	0,102
-456,255	211,725	-0,064	-0,075
-455,241	-200,000	0,007	-0,091
-454,226	441,060	-0,015	0,024
-453,211	-68,345	0,054	0,015
-452,197	600,728	-0,048	0,089
-451,182	125,553	0,174	0,161
-450,168	-200,000	0,018	0,139
-449,153	-24,361	0,044	0,019
-448,138	368,017	-0,083	0,124
-447,124	-10,731	0,059	-0,028
-446,109	-4,920	0,045	0,023
-445,095	-113,960	0,081	0,011
-444,080	-105,416	0,087	0,014
-443,065	-200,000	0,011	-0,119
-442,051	-200,000	-0,008	-0,091
-441,036	-68,313	-0,049	-0,014
-440,022	-200,000	0,023	0,076
-439,007	55,983	-0,060	0,042
-437,992	95,439	0,073	-0,061
-436,978	800,000	0,012	0,038
-435,963	-200,000	-0,003	0,035
-434,949	-49,988	-0,069	0,024
-433,934	800,000	-0,022	-0,057
-432,919	-200,000	0,005	0,031
-431,905	-104,269	-0,072	-0,012
-430,890	67,233	0,039	-0,029
-429,876	53,237	-0,012	-0,009
-428,861	-200,000	-0,021	0,096
-427,846	-59,680	0,081	-0,025
-426,832	90,355	-0,023	0,019
-425,817	-200,000	0,012	-0,065
-424,803	183,690	-0,075	-0,082
-423,788	-88,946	0,020	-0,004
-422,773	61,720	0,062	0,045
-421,759	-4,502	0,091	0,046
-420,744	123,893	0,053	-0,048
-419,730	-200,000	0,005	0,120
-418,715	-98,740	-0,103	0,019
-417,701	-200,000	0,013	0,134
-416,686	285,322	0,085	0,112
-415,671	800,000	0,026	0,072
-414,657	-113,289	0,055	-0,008
-413,642	-200,000	0,018	0,069
-412,628	-50,142	-0,071	0,024
-411,613	-51,895	0,092	0,031
-410,598	800,000	0,014	0,045
-409,584	125,599	0,012	0,011
-408,569	8,280	-0,023	-0,013
-407,555	800,000	0,084	0,182
-406,540	123,985	0,063	0,058
-405,525	139,298	0,032	0,031
-404,511	-130,920	-0,060	0,006
-403,496	-160,814	-0,088	0,003
-402,482	800,000	0,028	0,060
-401,467	-20,406	-0,043	-0,020
-400,452	-0,488	0,016	0,008
-399,438	800,000	-0,028	-0,064
-398,423	95,778	0,073	0,061
-397,409	-95,934	-0,115	-0,022
-396,394	626,154	-0,075	-0,139
-395,379	64,595	-0,052	-0,039
-394,365	230,650	0,099	0,119
-393,350	458,191	0,093	0,152
-392,336	-200,000	0,010	0,044
-391,321	11,152	0,041	-0,023
-390,306	74,463	-0,052	0,040
-389,292	-91,971	-0,107	-0,022
-388,277	800,000	0,062	0,129
-387,263	-13,789	0,089	0,042
-386,248	-16,540	0,142	-0,066
-385,233	-163,923	0,109	-0,004
-384,219	160,095	-0,061	0,063
-383,204	-7,786	-0,125	-0,062
-382,190	-109,376	0,150	0,023
-381,175	800,000	-0,061	-0,194
-380,160	90,040	0,025	-0,021
-379,146	94,309	0,106	0,089
-378,131	659,693	0,045	-0,085
-377,117	-56,032	-0,084	0,027
-376,102	800,000	0,021	0,061
-375,088	-200,000	0,021	-0,189
-374,073	91,141	0,073	0,060
-373,058	234,793	0,087	0,106
-372,044	93,649	0,086	0,071
-371,029	204,168	-0,057	-0,065
-370,015	-200,000	-0,003	0,063
-369,000	109,401	0,087	-0,077
-367,985	216,342	-0,102	-0,119
-366,971	80,037	-0,057	0,045
-365,956	218,126	0,078	0,091
-364,942	106,287	0,081	0,070
-363,927	-147,150	-0,082	-0,005
-362,912	-142,700	0,133	0,009
-361,898	78,395	0,082	-0,064
-360,883	11,459	-0,104	-0,059
-359,869	38,654	-0,087	0,057
-358,854	-126,898	-0,121	-0,013
-357,839	-31,731	-0,061	-0,025
-356,825	382,010	-0,023	0,034
-355,810	-173,059	0,069	0,002
-354,796	77,595	-0,176	0,138
-353,781	-6,109	0,142	0,071
-352,766	-125,013	0,078	-0,009
-351,752	233,204	0,035	0,042
-350,737	-64,274	0,103	-0,031
-349,723	198,785	0,049	0,055
-348,708	-72,601	-0,112	0,030
-347,693	-102,692	0,068	0,012
-346,679	52,894	-0,121	-0,085
-345,664	800,000	-0,044	0,116
-344,650	138,651	0,130	0,125
-343,635	800,000	-0,038	0,122
-342,620	135,422	-0,009	-0,009
-341,606	-58,218	-0,073	-0,023
-340,591	36,872	-0,026	0,017
-339,577	-20,351	-0,093	0,042
-338,562	-121,022	-0,056	-0,007
-337,548	-200,000	0,004	-0,018
-336,533	800,000	-0,020	0,048
-335,518	-8,172	-0,106	0,052
-334,504	800,000	0,026	0,062
-333,489	-200,000	0,012	0,205
-332,475	-200,000	0,005	0,110
-331,460	-111,384	-0,123	0,018
-330,445	-200,000	0,008	0,104
-329,431	800,000	-0,043	0,096
-328,416	800,000	0,012	-0,026
-327,402	181,044	-0,115	0,124
-326,387	800,000	0,063	-0,149
-325,372	776,503	-0,020	-0,039
-324,358	-166,980	-0,159	0,005
-323,343	90,834	0,054	0,045
-322,329	56,178	-0,060	-0,043
-321,314	800,000	0,025	0,062
-320,299	-49,168	0,163	-0,057
-319,285	-200,000	0,005	-0,137
-318,270	-200,000	0,039	-0,200
-317,256	-89,903	-0,057	0,012
-316,241	-174,869	0,117	-0,002
-315,226	342,300	-0,065	0,093
-314,212	800,000	-0,007	-0,019
-313,197	382,046	0,039	0,059
-312,183	-19,599	0,041	-0,019
-311,168	395,063	-0,063	-0,097
-310,153	800,000	-0,056	-0,132
-309,139	439,879	-0,049	-0,079
-308,124	-200,000	0,001	0,069
-307,110	-62,697	-0,080	-0,024
-306,095	-6,658	-0,048	-0,024
-305,080	120,971	-0,014	0,013
-304,066	-200,000	-0,022	-0,072
-303,051	-200,000	-0,028	-0,122
-302,037	106,164	0,028	-0,024
-301,022	-200,000	0,020	-0,139
-300,008	137,732	0,062	0,059
-298,993	90,809	0,006	-0,005
-297,978	283,613	-0,064	0,084
-296,964	-200,000	0,013	0,059
-295,949	-200,000	-0,013	-0,063
-294,935	800,000	0,020	-0,044
-293,920	116,508	-0,047	-0,042
-292,905	800,000	0,035	0,092
-291,891	36,809	0,164	0,106
-290,876	-200,000	-0,007	-0,066
-289,862	57,682	0,080	-0,057
-288,847	-102,168	0,113	-0,020
-287,832	101,396	-0,026	-0,022
-286,818	10,771	-0,157	0,087
-285,803	210,588	0,100	-0,115
-284,789	16,135	0,144	0,083
-283,774	97,865	0,081	-0,068
-282,759	-200,000	0,026	0,097
-281,745	-12,866	-0,058	0,027
-280,730	217,006	0,068	-0,079
-279,716	-168,494	0,039	-0,001
-278,701	-200,000	0,008	0,087
-277,686	800,000	0,019	-0,041
-276,672	57,949	0,042	-0,030
-275,657	-90,643	-0,169	-0,035
-274,643	-139,203	0,186	-0,014
-273,628	416,528	-0,041	-0,064
-272,613	-200,000	0,003	-0,042
-271,599	9,729	-0,124	0,068
-270,584	65,802	-0,043	0,032
-269,570	800,000	0,023	0,066
-268,555	-98,281	0,089	-0,017
-267,540	-200,000	0,006	-0,172
-266,526	56,305	-0,058	-0,041
-265,511	-104,474	0,061	-0,010
-264,497	21,661	0,100	-0,059
-263,482	-200,000	-0,003	0,039
-262,467	-152,197	-0,011	0,001
-261,453	167,506	-0,095	0,099
-260,438	-68,046	-0,078	0,022
-259,424	185,154	0,043	0,047
-258,409	543,776	-0,062	-0,108
-257,395	333,037	0,049	-0,070
-256,380	500,617	-0,068	-0,115
-255,365	-200,000	-0,010	0,218
-254,351	105,914	0,037	-0,032
-253,336	-31,869	-0,110	0,045
-252,322	125,673	0,088	-0,081
-251,307	-200,000	-0,001	0,011
-250,292	-88,882	0,174	0,037
-249,278	-4,210	0,125	-0,063
-248,263	7,074	-0,020	-0,011
-247,249	82,394	-0,115	0,091
-246,234	-127,191	0,063	-0,007
-245,219	-48,776	-0,105	0,036
-244,205	-1,004	0,108	-0,055
-243,190	800,000	-0,052	-0,136
-242,176	174,686	0,066	0,069
-241,161	800,000	-0,005	0,014
-240,146	-200,000	-0,031	0,126
-239,132	-11,643	0,106	0,050
-238,117	-111,684	-0,122	-0,018
-237,103	-119,992	0,193	0,024
-236,088	800,000	0,038	0,097
-235,073	42,419	0,030	0,020
-234,059	210,118	0,030	-0,034
-233,044	-75,140	-0,045	0,012
-232,030	-16,230	0,093	-0,043
-231,015	800,000	0,030	-0,078
-230,000	-200,000	0,003	-0,087
-228,986	511,500	0,034	-0,058
-227,971	459,508	-0,025	-0,041
-226,957	74,571	0,125	-0,096
-225,942	-46,983	-0,089	0,031
-224,927	157,232	0,042	-0,043
-223,913	355,398	-0,093	-0,135
-222,898	-200,000	-0,023	-0,088
-221,884	800,000	0,036	-0,091
-220,869	-79,773	0,054	-0,013
-219,855	177,083	-0,075	0,080
-218,840	97,510	0,080	0,067
-217,825	139,016	-0,078	-0,075
-216,811	249,626	0,041	0,050
-215,796	-200,000	-0,025	-0,130
-214,782	41,415	-0,159	-0,105
-213,767	-122,454	0,053	0,006
-212,752	175,334	0,069	-0,073
-211,738	-173,591	0,197	0,004
-210,723	-22,552	0,093	-0,041
-209,709	559,988	0,049	-0,086
-208,694	-200,000	-0,021	-0,077
-207,679	-107,888	0,167	0,026
-206,665	11,543	0,070	-0,039
-205,650	424,936	-0,059	0,092
-204,636	-140,540	0,094	-0,007
-203,621	800,000	-0,050	0,141
-202,606	-72,096	0,221	0,059
-201,592	-65,458	-0,094	-0,027
-200,577	161,153	0,049	-0,050
-199,563	17,558	-0,084	-0,048
-198,548	-92,936	-0,054	0,011
-197,533	-200,000	-0,001	-0,030
-196,519	419,703	-0,061	-0,095
-195,504	800,000	-0,017	0,042
-194,490	800,000	0,030	-0,075
-193,475	-200,000	0,008	-0,042
-192,460	182,296	0,056	-0,060
-191,446	-97,123	-0,031	0,006
-190,431	313,257	0,019	-0,027
-189,417	800,000	0,031	0,095
-188,402	63,788	0,045	0,033
-187,387	800,000	-0,045	-0,098
-186,373	-200,000	0,031	-0,129
-185,358	-145,404	-0,161	0,010
-184,344	69,491	0,122	0,091
-183,329	-200,000	0,001	0,051
-182,315	42,776	0,124	0,082
-181,300	-174,954	0,098	0,002
-180,285	-105,540	0,053	-0,009
-179,271	5,513	0,082	-0,044
-178,256	-200,000	0,020	0,113
-177,242	231,526	0,098	0,117
-176,227	154,464	0,064	0,064
-175,212	65,648	0,057	0,042
-174,198	-80,849	-0,087	0,021
-173,183	621,900	-0,054	-0,100
-172,169	263,698	-0,019	-0,024
-171,154	-200,000	-0,009	-0,139
-170,139	-200,000	-0,007	-0,130
-169,125	262,557	0,084	0,107
-168,110	-200,000	0,018	-0,072
-167,096	81,241	-0,079	-0,062
-166,081	-178,850	0,052	-0,001
-165,066	333,782	-0,089	-0,126
-164,052	184,171	0,031	-0,034
-163,037	-40,824	0,125	-0,047
-162,023	338,943	-0,019	0,027
-161,008	-200,000	0,008	0,070
-159,993	181,947	0,072	0,077
-158,979	-200,000	-0,020	-0,125
-157,964	800,000	-0,019	-0,054
-156,950	-115,416	-0,147	-0,020
-155,935	-72,773	-0,208	0,055
-154,920	-200,000	0,025	0,168
-153,906	-118,340	0,087	-0,011
-152,891	-33,937	0,030	-0,012
-151,877	328,861	-0,095	-0,133
-150,862	-200,000	-0,017	-0,070
-149,847	800,000	0,027	0,056
-148,833	-97,772	-0,092	-0,017
-147,818	767,047	0,008	0,016
-146,804	498,786	0,049	0,083
-145,789	-154,394	-0,097	0,005
-144,775	175,786	0,075	0,079
-143,760	-116,309	-0,077	0,010
-142,745	203,125	0,032	-0,036
-141,731	86,963	-0,079	0,063
-140,716	-200,000	0,055	0,245
-139,702	800,000	-0,019	0,040
-138,687	-2,901	0,060	0,030
-137,672	495,388	0,088	0,147
-136,658	-165,559	-0,069	-0,002
-135,643	-140,659	0,073	-0,005
-134,629	800,000	0,023	-0,067
-133,614	118,821	-0,016	-0,014
-132,599	85,493	0,055	-0,044
-131,585	-18,524	0,040	0,018
-130,570	-200,000	-0,008	0,099
-129,556	314,343	-0,020	0,027
-128,541	-47,757	-0,129	0,045
-127,526	-200,000	-0,013	0,043
-126,512	-45,928	0,025	-0,009
-125,497	-60,096	0,011	-0,003
-124,483	365,631	-0,035	0,052
-123,468	-67,590	-0,080	-0,023
-122,453	-4,979	-0,104	-0,052
-121,439	-27,786	-0,065	-0,027
-120,424	-200,000	0,002	0,034
-119,410	50,559	0,114	0,078
-118,395	-200,000	-0,012	0,164
-117,380	800,000	-0,045	-0,096
-116,366	308,428	0,068	0,092
-115,351	-200,000	0,003	0,032
-114,337	-200,000	-0,002	-0,029
-113,322	-162,379	0,057	-0,002
-112,307	-106,271	-0,118	-0,019
-111,293	388,608	-0,013	-0,020
-110,278	800,000	-0,017	0,046
-109,264	800,000	0,078	0,167
-108,249	-200,000	-0,001	-0,101
-107,234	-200,000	0,018	-0,057
-106,220	-200,000	0,005	-0,127
-105,205	-200,000	-0,000	-0,041
-104,191	-166,121	0,150	-0,005
-103,176	262,373	-0,046	0,058
-102,162	-82,587	-0,000	0,000
-101,147	-200,000	0,011	-0,057
-100,132	-200,000	-0,003	0,055
-99,118	262,087	0,091	-0,115
-98,103	-200,000	-0,003	-0,065
-97,089	-80,525	-0,050	-0,012
-96,074	423,453	-0,019	0,030
-95,059	-132,969	0,092	-0,008
-94,045	-200,000	0,017	0,122
-93,030	192,632	-0,068	-0,074
-92,016	-43,982	-0,026	-0,009
-91,001	-200,000	-0,017	-0,074
-89,986	-20,077	-0,030	-0,013
-88,972	-151,783	0,177	-0,009
-87,957	-57,816	-0,153	0,048
-86,943	-200,000	0,025	0,111
-85,928	-200,000	-0,014	-0,063
-84,913	800,000	-0,081	-0,167
-83,899	32,106	0,008	-0,005
-82,884	408,444	0,006	0,009
-81,870	212,749	-0,025	0,029
-80,855	63,690	0,071	-0,051
-79,840	46,431	0,052	-0,035
-78,826	-167,198	-0,072	0,002
-77,811	-200,000	-0,014	-0,150
-76,797	-34,002	-0,036	0,014
-75,782	107,752	0,080	0,069
-74,767	169,066	0,025	0,026
-73,753	-128,441	-0,008	0,001
-72,738	276,284	-0,112	0,144
-71,724	-180,607	-0,096	-0,001
-70,709	-200,000	-0,034	-0,109
-69,694	-4,383	-0,195	0,097
-68,680	29,424	0,033	0,020
-67,665	-200,000	0,006	0,044
-66,651	-13,873	-0,016	0,007
-65,636	501,155	-0,048	0,080
-64,622	-88,048	-0,093	0,020
-63,607	-72,679	0,087	-0,023
-62,592	13,747	0,055	0,031
-61,578	800,000	-0,043	-0,098
-60,563	-200,000	0,011	0,137
-59,549	-200,000	-0,006	0,034
-58,534	-152,949	-1,428	0,072
-57,519	539,839	-0,825	-1,428
-56,505	-200,000	-0,810	-4,472
-55,490	-36,065	0,590	-0,230
-54,476	800,000	4,934	11,494
-53,461	-200,000	13,807	251,399
-52,446	-200,000	690,111	2245,526
-51,432	589,037	1620,403	2904,788
-50,417	118,961	1631,594	1460,967
-49,403	74,101	1286,332	977,096
-48,388	38,135	1022,327	657,694
-47,373	24,235	980,466	585,190
-46,359	23,493	970,131	576,572
-45,344	22,508	965,620	570,660
-44,330	22,429	964,261	569,577
-43,315	22,301	962,789	568,268
-42,300	22,317	961,799	567,713
-41,286	22,300	960,944	567,130
-40,271	22,265	959,935	566,401
-39,257	22,251	959,159	565,874
-38,242	22,238	958,009	565,130
-37,227	22,314	957,145	564,845
-36,213	22,233	956,420	564,134
-35,198	22,197	955,397	563,391
-34,184	22,315	954,737	563,358
-33,169	22,220	954,040	562,621
-32,154	22,320	953,038	562,330
-31,140	22,330	951,942	561,690
-30,125	22,315	951,289	561,237
-29,111	22,224	950,781	560,623
-28,096	22,278	949,763	560,172
-27,082	22,242	949,280	559,750
-26,067	22,381	948,185	559,528
-25,052	22,279	947,754	558,925
-24,038	22,272	947,122	558,507
-23,023	22,292	946,517	558,193
-22,009	22,369	945,765	557,972
-20,994	22,324	945,056	557,389
-19,979	22,315	944,334	556,912
-18,965	22,339	943,964	556,747
-17,950	22,298	943,328	556,219
-16,936	22,200	942,638	555,481
-15,921	22,233	941,981	555,175
-14,906	22,184	941,346	554,623
-13,892	22,233	940,318	554,152
-12,877	22,155	939,955	553,669
-11,863	22,157	939,254	553,239
-10,848	22,167	938,745	552,949
-9,833	22,252	938,345	552,959
-8,819	22,201	937,663	552,376
-7,804	22,169	936,974	551,848
-6,790	22,151	936,554	551,522
-5,775	22,218	935,871	551,309
-4,760	22,214	935,186	550,868
-3,746	22,158	934,526	550,282
-2,731	22,036	933,923	549,520
-1,717	21,973	933,251	548,905
-0,702	21,990	932,633	548,574
0,313	21,793	931,991	548,405
1,327	24,360	929,549	554,964
2,342	32,222	808,088	503,703
3,356	27,429	508,270	308,639
4,371	3,395	372,814	195,942
5,386	0,310	355,866	183,247
6,400	-1,277	349,584	178,088
7,415	-2,185	346,943	175,644
8,429	-2,358	345,402	174,642
9,444	-2,295	344,244	174,115
10,459	-2,339	343,781	173,814
11,473	-2,324	343,044	173,444
12,488	-2,026	342,766	173,640
13,502	-2,055	342,081	173,243
14,517	-2,076	341,597	172,957
15,531	-2,365	341,143	172,373
16,546	-2,402	340,635	172,058
17,561	-2,377	340,275	171,889
18,575	-2,366	339,814	171,654
19,590	-2,384	339,363	171,390
20,604	-2,275	339,057	171,347
21,619	-2,446	338,659	170,932
22,634	-2,346	338,418	170,911
23,648	-2,377	337,948	170,622
24,663	-2,250	337,635	170,597
25,677	-2,322	337,351	170,354
26,692	-2,335	336,978	170,135
27,707	-2,369	336,804	169,994
28,721	-2,321	336,403	169,832
29,736	-2,201	336,131	169,818
30,750	-2,280	335,850	169,569
31,765	-2,410	335,559	169,257
32,780	-2,382	335,370	169,180
33,794	-2,507	335,124	168,897
34,809	-2,410	334,676	168,767
35,823	-2,341	334,245	168,613
36,838	-2,425	334,075	168,416
37,853	-2,475	333,716	168,163
38,867	-2,458	333,474	168,046
39,882	-2,409	333,389	168,044
40,896	-2,459	332,942	167,747
41,911	-2,530	332,656	167,507
42,926	-2,460	332,602	167,544
43,940	-2,515	332,068	167,198
44,955	-2,546	331,810	167,017
45,969	-2,629	331,748	166,877
46,984	-2,735	331,313	166,523
47,999	-2,939	330,989	166,114
49,013	-2,984	330,695	165,900
50,028	-3,086	330,440	165,641
51,042	-3,113	330,037	165,394
52,057	-3,138	329,649	165,157
53,071	-2,941	329,497	165,289
54,086	-2,969	329,223	165,104
55,101	-2,867	329,164	165,175
56,115	-2,849	328,917	165,057
57,130	-2,424	328,889	165,507
58,144	-2,125	328,639	165,703
59,159	-2,291	328,418	165,390
60,174	-2,146	328,104	165,381
61,188	-2,199	327,818	165,163
62,203	-2,350	327,611	164,874
63,217	-2,344	327,331	164,725
64,232	-2,366	327,153	164,596
65,247	-2,241	326,947	164,618
66,261	-2,097	326,574	164,576
67,276	-2,404	326,135	163,998
68,290	-2,662	325,794	163,523
69,305	-2,736	325,807	163,433
70,320	-2,602	325,354	163,340
71,334	-2,355	325,115	163,480
72,349	-2,170	324,954	163,591
73,363	-2,119	324,670	163,490
74,378	-2,278	324,569	163,249
75,393	-2,320	324,201	163,003
76,407	-2,342	324,004	162,864
77,422	-2,281	323,753	162,791
78,436	-2,171	323,695	162,869
79,451	-2,155	323,100	162,573
80,466	-2,431	322,937	162,171
81,480	-2,564	322,769	161,925
82,495	-2,643	322,389	161,634
83,509	-2,534	322,165	161,627
84,524	-2,597	321,870	161,395
85,539	-2,756	321,713	161,127
86,553	-2,708	321,389	161,003
87,568	-2,632	321,236	160,996
88,582	-2,559	321,008	160,947
89,597	-2,683	320,700	160,642
90,611	-2,566	320,625	160,719
91,626	-2,467	320,290	160,645
92,641	-2,340	320,132	160,691
93,655	-2,498	319,918	160,396
94,670	-2,397	319,484	160,274
95,684	-2,375	319,279	160,181
96,699	-2,427	319,123	160,031
97,714	-2,629	318,846	159,659
98,728	-2,489	318,634	159,691
99,743	-2,670	318,293	159,309
100,757	-2,609	317,979	159,204
101,772	-2,564	317,811	159,154
102,787	-2,608	317,697	159,035
103,801	-2,449	317,637	159,163
104,816	-2,387	317,367	159,081
105,830	-2,341	317,126	158,996
106,845	-2,373	316,984	158,875
107,860	-2,311	316,657	158,765
108,874	-2,375	316,450	158,577
109,889	-2,503	316,207	158,304
110,903	-2,461	315,961	158,211
111,918	-2,559	315,645	157,933
112,933	-2,432	315,528	157,997
113,947	-2,347	315,249	157,935
114,962	-2,440	315,025	157,710
115,976	-2,288	314,838	157,764
116,991	-2,326	314,578	157,579
118,006	-2,257	314,227	157,463
119,020	-2,421	314,250	157,285
120,035	-2,534	314,126	157,089
121,049	-2,287	313,835	157,193
122,064	-2,258	313,547	157,066
123,079	-2,372	313,209	156,761
124,093	-2,483	313,068	156,558
125,108	-2,667	312,822	156,225
126,122	-2,807	312,458	155,880
127,137	-2,842	312,260	155,730
128,151	-2,667	312,027	155,786
129,166	-2,630	311,855	155,726
130,181	-2,581	311,578	155,625
131,195	-2,551	311,277	155,493
132,210	-2,705	311,306	155,331
133,224	-2,461	311,007	155,426
134,239	-2,308	310,807	155,473
135,254	-2,349	310,648	155,338
136,268	-2,608	310,357	154,903
137,283	-2,681	309,966	154,618
138,297	-2,726	309,765	154,456
139,312	-2,902	309,570	154,160
140,327	-2,500	309,499	154,534
141,341	-2,173	309,410	154,820
142,356	-2,311	309,331	154,622
143,370	-2,134	309,052	154,654
144,385	-1,947	308,779	154,700
145,400	-2,096	308,566	154,423
146,414	-2,079	308,302	154,296
147,429	-2,039	308,170	154,258
148,443	-2,157	307,926	153,999
149,458	-2,154	307,896	153,973
150,473	-2,094	307,507	153,827
151,487	-2,181	307,258	153,598
152,502	-2,181	307,184	153,547
153,516	-2,046	306,855	153,510
154,531	-1,900	306,667	153,555
155,546	-2,094	306,387	153,198
156,560	-2,124	306,221	153,071
157,575	-2,302	305,871	152,697
158,589	-2,291	305,631	152,575
159,604	-2,076	305,538	152,738
160,619	-2,083	305,388	152,642
161,633	-2,101	305,235	152,533
162,648	-2,125	305,070	152,412
163,662	-2,094	304,786	152,289
164,677	-2,158	304,598	152,116
165,692	-2,074	304,416	152,097
166,706	-2,066	304,297	152,033
167,721	-2,075	303,853	151,788
168,735	-2,050	303,801	151,774
169,750	-1,940	303,669	151,809
170,764	-1,994	303,501	151,656
171,779	-1,968	303,266	151,551
172,794	-2,002	303,093	151,416
173,808	-2,170	302,860	151,114
174,823	-2,460	302,403	150,575
175,837	-2,706	302,222	150,219
176,852	-2,469	302,225	150,450
177,867	-2,025	301,965	150,762
178,881	-1,907	301,779	150,777
179,896	-1,877	301,666	150,737
180,910	-1,942	301,445	150,546
181,925	-1,883	301,208	150,475
182,940	-1,812	301,003	150,432
183,954	-1,861	300,830	150,281
184,969	-2,068	300,642	149,963
185,983	-1,984	300,496	149,963
186,998	-2,128	300,358	149,734
188,013	-2,238	300,120	149,490
189,027	-2,044	299,846	149,538
190,042	-1,783	299,558	149,646
191,056	-1,927	299,338	149,376
192,071	-1,963	299,439	149,377
193,086	-1,809	299,101	149,351
194,100	-1,838	298,874	149,195
195,115	-1,949	298,608	148,936
196,129	-1,913	298,370	148,841
197,144	-1,947	298,290	148,754
198,159	-1,919	298,109	148,678
199,173	-1,916	297,800	148,513
200,188	-1,842	297,541	148,446
201,202	-2,037	297,336	148,135
202,217	-2,596	297,006	147,395
203,232	-2,599	296,771	147,262
204,246	-2,180	296,574	147,572
205,261	-1,888	296,494	147,811
206,275	-1,941	296,455	147,726
207,290	-1,842	296,030	147,600
208,304	-1,929	295,978	147,474
209,319	-1,887	295,746	147,387
210,334	-1,972	295,555	147,194
211,348	-1,883	295,377	147,181
212,363	-2,149	295,122	146,776
213,377	-1,987	294,944	146,835
214,392	-2,043	294,792	146,690
215,407	-2,192	294,569	146,419
216,421	-2,311	294,379	146,192
217,436	-2,221	294,135	146,147
218,450	-2,281	293,901	145,959
219,465	-2,249	293,965	146,009
220,480	-2,214	293,709	145,903
221,494	-2,088	293,447	145,885
222,509	-2,432	293,358	145,488
223,523	-2,215	293,228	145,625
224,538	-1,901	292,942	145,780
225,553	-1,798	292,602	145,700
226,567	-1,829	292,433	145,572
227,582	-1,967	292,476	145,444
228,596	-1,938	292,328	145,386
229,611	-1,754	292,278	145,530
230,626	-1,850	291,752	145,160
231,640	-2,128	291,405	144,702
232,655	-2,418	291,075	144,240
233,669	-2,503	290,833	144,023
234,684	-2,594	290,735	143,873
235,699	-2,561	290,593	143,823
236,713	-2,480	290,488	143,837
237,728	-2,236	290,190	143,916
238,742	-2,240	290,191	143,899
239,757	-2,044	289,861	143,914
240,772	-2,091	289,855	143,853
241,786	-2,004	289,668	143,832
242,801	-2,253	289,347	143,417
243,815	-2,239	289,111	143,301
244,830	-2,090	289,011	143,384
245,844	-2,140	288,709	143,172
246,859	-2,283	288,639	142,986
247,874	-2,268	288,331	142,835
248,888	-2,190	288,279	142,872
249,903	-2,071	288,265	142,969
250,917	-1,873	288,075	143,053
251,932	-1,887	287,956	142,968
252,947	-1,335	287,950	143,487
253,961	-1,699	287,551	142,923
254,976	-0,701	288,035	144,118
255,990	2,161	288,678	147,205
257,005	2,569	289,047	147,776
258,020	3,971	289,327	149,267
259,034	4,342	289,129	149,511
260,049	4,049	288,924	149,108
261,063	3,785	288,589	148,666
262,078	4,128	288,583	148,982
263,093	4,720	288,546	149,522
264,107	4,408	288,301	149,080
265,122	4,696	288,283	149,336
266,136	4,857	288,110	149,387
267,151	4,693	287,941	149,129
268,166	4,578	287,678	148,869
269,180	4,390	287,437	148,550
270,195	4,749	287,284	148,802
271,209	4,639	286,991	148,532
272,224	4,456	286,852	148,271
273,239	4,456	286,551	148,102
274,253	4,367	286,455	147,954
275,268	4,644	286,456	148,207
276,282	4,664	286,267	148,115
277,297	4,657	285,963	147,938
278,312	4,876	285,925	148,115
279,326	4,761	285,713	147,882
280,341	4,660	285,528	147,676
281,355	4,456	285,315	147,358
282,370	4,357	285,094	147,136
283,384	4,270	284,888	146,934
284,399	4,519	284,648	147,034
285,414	4,400	284,518	146,841
286,428	4,255	284,392	146,625
287,443	4,090	284,119	146,314
288,457	4,007	283,772	146,043
289,472	4,068	283,696	146,049
290,487	4,385	283,394	146,181
291,501	3,970	283,319	145,737
292,516	3,744	283,049	145,371
293,530	3,832	282,847	145,337
294,545	4,348	282,719	145,746
295,560	4,389	282,527	145,673
296,574	4,122	282,253	145,267
297,589	4,033	282,335	145,212
298,603	4,404	282,059	145,407
299,618	4,565	282,020	145,525
300,633	4,305	281,841	145,175
301,647	4,292	281,705	145,080
302,662	4,341	281,443	144,978
303,676	4,021	281,147	144,512
304,691	3,925	280,820	144,242
305,706	3,826	280,589	144,017
306,720	3,948	280,411	144,027
307,735	4,056	280,225	144,020
308,749	3,904	280,183	143,843
309,764	4,012	280,174	143,926
310,779	3,936	279,838	143,670
311,793	3,732	279,652	143,371
312,808	3,826	279,520	143,379
313,822	3,943	279,081	143,250
314,837	3,739	278,947	142,978
315,852	3,718	278,786	142,864
316,866	3,736	278,666	142,806
317,881	3,880	278,534	142,860
318,895	3,776	278,277	142,619
319,910	3,735	278,141	142,498
320,925	3,613	277,851	142,224
321,939	3,878	277,788	142,424
322,954	3,883	277,737	142,389
323,968	4,087	277,483	142,436
324,983	3,919	277,353	142,201
325,997	3,922	277,209	142,117
327,012	4,138	277,062	142,228
328,027	4,092	277,001	142,142
329,041	3,991	276,685	141,874
330,056	4,044	276,530	141,831
331,070	4,075	276,237	141,697
332,085	3,876	276,074	141,417
333,100	4,056	276,005	141,534
334,114	3,959	275,738	141,295
335,129	3,715	275,576	140,977
336,143	3,982	275,408	141,123
337,158	4,221	275,355	141,303
338,173	4,072	275,129	141,037
339,187	4,042	274,987	140,924
340,202	4,114	274,642	140,800
341,216	4,064	274,742	140,794
342,231	4,129	274,252	140,589
343,246	3,908	274,226	140,362
344,260	3,999	274,039	140,337
345,275	4,092	273,989	140,383
346,289	4,503	273,945	140,723
347,304	4,364	273,771	140,494
348,319	4,340	273,373	140,256
349,333	4,151	273,247	140,007
350,348	4,160	273,259	140,009
351,362	4,257	273,078	139,991
352,377	4,325	272,821	139,909
353,392	4,329	272,613	139,793
354,406	4,354	272,384	139,687
355,421	191,964	1331,379	1410,448
356,435	155,101	1460,498	1410,571
