DTS Sentinel unit serial number:	SN410029Multiplexer serial number:	ORYXHardware model number:	OX2-SRSoftware version number:	ORYX F/W v4,00 Oryx Data Collector v3.7.2.0data status	okinstallation	B4 Nyhavnadifferential loss correction	single-endedforward channel	channel 2reverse channel	N/Adate	2023/12/15time	17:25:13forward acquisition time	300,00reverse acquisition time	0,00gamma	499,1914k internal	0,3142k external	0,3142temperature offset calibration	1,0000default loss term (dB/km)	0,3820temperature slope calibration	1,0000multiplexer offset coefficient	1,0000multiplexer slope coefficient	1,0000fibre end	0,00T internal ref (°C)	18,31T ext. ref 1 (°C)	4,08T ext. ref 2 (°C)	4,18length (m)	temperature (°C)	Stokes	anti-Stokes-744,400	241,585	0,058	0,072
-743,385	-173,488	-0,138	-0,003
-742,371	270,712	0,076	0,099
-741,356	-115,581	-0,295	0,041
-740,342	121,413	0,138	0,127
-739,327	-141,740	-0,252	-0,018
-738,312	-200,000	-0,008	-0,061
-737,298	423,920	-0,055	0,088
-736,283	-200,000	-0,005	0,040
-735,269	-65,391	-0,287	0,085
-734,254	300,628	-0,066	-0,090
-733,239	-40,758	-0,452	-0,172
-732,225	-22,280	0,202	0,090
-731,210	607,917	0,022	0,040
-730,196	800,000	-0,043	-0,140
-729,181	53,363	-0,083	-0,059
-728,167	123,100	-0,012	-0,011
-727,152	-147,669	-0,072	-0,004
-726,137	800,000	0,047	0,105
-725,123	-123,326	-0,170	-0,020
-724,108	800,000	-0,048	-0,143
-723,094	142,629	-0,092	-0,090
-722,079	368,819	0,032	-0,048
-721,064	620,967	0,037	-0,069
-720,050	596,235	-0,021	-0,038
-719,035	-200,000	-0,016	0,088
-718,021	-164,321	-0,117	-0,004
-717,006	-68,874	-0,035	0,010
-715,991	800,000	0,033	-0,106
-714,977	19,592	-0,067	-0,040
-713,962	-51,628	-0,069	0,024
-712,948	571,063	-0,041	0,075
-711,933	697,536	-0,025	0,050
-710,918	-38,737	-0,153	0,060
-709,904	-105,521	-0,211	-0,035
-708,889	-106,512	-0,049	0,008
-707,875	-200,000	-0,005	-0,037
-706,860	150,051	-0,041	0,041
-705,845	-200,000	-0,012	-0,120
-704,831	-24,786	0,080	0,035
-703,816	250,491	0,060	0,076
-702,802	156,396	-0,027	-0,028
-701,787	33,837	-0,049	-0,032
-700,772	-200,000	-0,039	-0,151
-699,758	-200,000	-0,003	-0,103
-698,743	577,549	0,040	-0,073
-697,729	87,027	-0,092	0,075
-696,714	76,809	-0,072	0,057
-695,699	-69,086	-0,138	-0,039
-694,685	27,609	0,049	0,030
-693,670	522,364	-0,111	-0,193
-692,656	-200,000	0,027	-0,102
-691,641	89,075	0,146	-0,120
-690,627	85,195	0,040	0,033
-689,612	-85,671	0,060	0,014
-688,597	497,446	0,057	-0,098
-687,583	-144,589	-0,060	-0,004
-686,568	194,762	-0,078	-0,088
-685,554	338,401	-0,036	0,053
-684,539	-122,872	0,092	0,011
-683,524	419,395	-0,085	-0,134
-682,510	122,583	0,067	-0,062
-681,495	20,535	0,116	-0,069
-680,481	-154,921	-0,090	0,004
-679,466	592,828	-0,056	-0,103
-678,451	-13,739	-0,012	0,006
-677,437	681,387	0,068	-0,131
-676,422	1,313	-0,118	-0,063
-675,408	99,795	-0,047	0,040
-674,393	155,796	0,014	0,014
-673,378	90,164	-0,088	-0,072
-672,364	-200,000	-0,033	-0,164
-671,349	577,126	0,068	-0,123
-670,335	-38,138	0,088	-0,034
-669,320	69,454	-0,178	0,135
-668,305	64,496	-0,098	-0,073
-667,291	258,358	-0,071	-0,090
-666,276	169,320	-0,065	-0,069
-665,262	-200,000	0,009	-0,051
-664,247	-162,705	0,061	-0,002
-663,232	82,997	-0,041	-0,033
-662,218	-57,998	-0,034	0,011
-661,203	326,417	-0,139	-0,197
-660,189	-128,912	0,127	0,013
-659,174	-120,855	-0,032	-0,004
-658,159	-69,536	0,109	-0,031
-657,145	-200,000	0,030	-0,133
-656,130	-200,000	-0,025	-0,159
-655,116	26,331	0,067	0,041
-654,101	513,165	0,070	-0,120
-653,086	145,879	0,125	0,124
-652,072	-200,000	-0,002	-0,076
-651,057	800,000	-0,045	-0,146
-650,043	100,919	0,064	-0,055
-649,028	-37,217	0,099	-0,039
-648,014	-200,000	-0,010	0,046
-646,999	-55,696	0,057	-0,019
-645,984	-86,752	-0,045	-0,010
-644,970	-50,191	-0,080	-0,028
-643,955	-200,000	-0,005	-0,032
-642,941	-5,026	-0,103	0,052
-641,926	800,000	-0,042	-0,097
-640,911	800,000	-0,020	-0,059
-639,897	-84,017	0,127	0,029
-638,882	-162,154	-0,068	0,002
-637,868	176,805	0,021	-0,022
-636,853	-9,876	-0,065	-0,032
-635,838	-200,000	0,003	-0,074
-634,824	227,938	0,068	0,082
-633,809	-26,016	-0,065	0,028
-632,795	49,601	0,081	-0,056
-631,780	251,141	0,080	0,101
-630,765	47,181	-0,017	0,011
-629,751	138,475	0,040	-0,039
-628,736	58,973	-0,049	-0,036
-627,722	-149,041	-0,080	0,005
-626,707	800,000	0,031	0,065
-625,692	602,156	-0,060	0,111
-624,678	118,030	-0,046	0,042
-623,663	272,902	0,083	0,108
-622,649	-123,556	-0,115	-0,013
-621,634	91,514	-0,235	-0,195
-620,619	70,168	-0,085	-0,065
-619,605	223,439	0,057	0,068
-618,590	-200,000	-0,000	-0,030
-617,576	-28,446	0,128	0,054
-616,561	800,000	-0,026	0,079
-615,546	28,099	-0,045	-0,028
-614,532	-114,997	-0,149	-0,021
-613,517	654,417	-0,040	-0,076
-612,503	-200,000	-0,016	0,057
-611,488	16,666	0,168	0,098
-610,474	36,700	-0,078	0,051
-609,459	33,029	0,123	0,079
-608,444	-125,843	-0,119	-0,013
-607,430	346,783	0,038	0,055
-606,415	-200,000	0,016	0,070
-605,401	5,339	-0,047	-0,025
-604,386	9,882	-0,192	0,107
-603,371	-66,072	0,054	-0,016
-602,357	287,578	0,079	0,105
-601,342	800,000	0,012	-0,036
-600,328	-200,000	0,001	0,006
-599,313	-78,515	0,091	-0,023
-598,298	-157,358	0,047	-0,002
-597,284	800,000	-0,026	0,056
-596,269	-101,699	-0,064	0,011
-595,255	681,738	0,076	0,146
-594,240	-72,643	-0,138	0,037
-593,225	39,025	-0,066	-0,043
-592,211	-75,108	-0,144	-0,038
-591,196	-200,000	-0,025	0,123
-590,182	350,511	0,085	0,124
-589,167	-141,178	-0,165	0,012
-588,152	-30,451	0,159	-0,066
-587,138	-200,000	-0,010	0,053
-586,123	-200,000	0,020	-0,104
-585,109	192,865	-0,089	-0,100
-584,094	68,850	-0,014	-0,011
-583,079	-200,000	-0,010	0,044
-582,065	-200,000	-0,017	-0,077
-581,050	800,000	0,027	0,068
-580,036	-19,634	-0,045	-0,021
-579,021	-200,000	0,023	-0,121
-578,006	-200,000	-0,010	0,045
-576,992	-200,000	-0,012	-0,095
-575,977	800,000	0,033	0,091
-574,963	-25,044	0,099	0,043
-573,948	15,548	-0,084	-0,049
-572,934	58,664	0,143	-0,103
-571,919	-200,000	0,009	-0,057
-570,904	-125,184	-0,139	-0,015
-569,890	187,747	0,018	-0,020
-568,875	-200,000	-0,036	-0,186
-567,861	-200,000	-0,011	0,049
-566,846	-112,359	0,092	0,013
-565,831	800,000	-0,018	-0,038
-564,817	800,000	-0,038	-0,110
-563,802	239,163	-0,025	-0,030
-562,788	-200,000	0,007	0,159
-561,773	73,728	-0,094	-0,072
-560,758	-200,000	0,009	0,042
-559,744	172,666	0,074	0,078
-558,729	72,096	-0,031	-0,024
-557,715	800,000	0,040	-0,122
-556,700	-200,000	-0,014	0,081
-555,685	45,769	-0,079	0,053
-554,671	-37,724	-0,055	0,022
-553,656	-104,151	0,124	-0,021
-552,642	-200,000	0,012	-0,062
-551,627	-54,083	0,103	-0,034
-550,612	-63,997	-0,045	-0,013
-549,598	-27,853	-0,078	-0,033
-548,583	-112,720	-0,073	0,010
-547,569	189,489	0,056	-0,061
-546,554	-200,000	-0,022	0,157
-545,539	397,843	0,070	0,108
-544,525	-200,000	0,027	-0,088
-543,510	594,381	0,056	0,103
-542,496	-59,919	-0,096	0,030
-541,481	194,707	-0,077	-0,086
-540,466	-100,106	-0,059	-0,011
-539,452	-29,065	0,154	0,065
-538,437	-106,691	0,096	-0,016
-537,423	800,000	-0,032	0,085
-536,408	359,136	-0,061	-0,089
-535,393	41,692	-0,062	0,041
-534,379	150,490	-0,145	-0,145
-533,364	800,000	-0,039	0,119
-532,350	-200,000	0,030	0,109
-531,335	-200,000	-0,011	0,048
-530,321	85,127	0,071	-0,058
-529,306	-146,340	0,045	-0,003
-528,291	-200,000	0,015	-0,092
-527,277	-99,457	0,038	0,007
-526,262	-157,560	-0,025	0,001
-525,248	163,613	0,116	0,120
-524,233	-183,092	-0,093	-0,001
-523,218	800,000	-0,042	0,104
-522,204	236,176	0,052	0,064
-521,189	89,898	-0,081	0,067
-520,175	89,724	-0,087	0,071
-519,160	-200,000	0,004	0,046
-518,145	-27,946	0,143	0,060
-517,131	114,150	0,095	-0,085
-516,116	800,000	0,018	-0,055
-515,102	800,000	-0,008	0,017
-514,087	-200,000	0,023	0,120
-513,072	800,000	-0,034	-0,084
-512,058	-200,000	-0,023	0,087
-511,043	15,232	0,049	0,028
-510,029	-200,000	-0,002	0,019
-509,014	149,639	0,021	0,021
-507,999	-200,000	-0,004	0,025
-506,985	24,113	-0,136	-0,082
-505,970	-16,591	-0,043	0,020
-504,956	149,529	-0,024	-0,024
-503,941	138,108	-0,109	-0,105
-502,926	-68,704	0,062	0,017
-501,912	-51,620	0,109	0,037
-500,897	378,188	-0,022	-0,033
-499,883	561,563	-0,078	-0,139
-498,868	37,188	0,052	-0,034
-497,853	703,849	-0,035	-0,067
-496,839	192,372	-0,074	-0,082
-495,824	138,299	-0,034	-0,032
-494,810	800,000	0,017	-0,053
-493,795	-82,846	-0,145	-0,034
-492,781	-73,773	0,143	-0,038
-491,766	-17,688	-0,050	-0,023
-490,751	484,164	-0,027	-0,046
-489,737	-9,818	-0,055	-0,027
-488,722	-33,606	0,073	-0,030
-487,708	329,831	-0,011	-0,015
-486,693	800,000	0,016	-0,036
-485,678	81,895	0,056	-0,045
-484,664	681,814	0,052	-0,099
-483,649	-89,844	-0,121	-0,026
-482,635	-200,000	-0,004	-0,098
-481,620	-61,700	0,059	0,018
-480,605	678,823	0,025	0,049
-479,591	-200,000	-0,025	-0,129
-478,576	800,000	0,021	-0,059
-477,562	-200,000	-0,002	0,148
-476,547	8,766	-0,036	0,020
-475,532	-111,607	0,090	0,013
-474,518	800,000	0,049	0,119
-473,503	-38,923	-0,123	0,047
-472,489	106,168	-0,036	0,031
-471,474	97,682	0,135	-0,114
-470,459	15,092	0,050	-0,029
-469,445	-92,508	-0,021	0,004
-468,430	98,740	-0,015	0,013
-467,416	35,386	-0,048	-0,031
-466,401	800,000	-0,049	0,107
-465,386	800,000	0,090	0,183
-464,372	252,687	-0,056	-0,071
-463,357	156,370	-0,031	-0,031
-462,343	38,215	0,082	0,053
-461,328	75,338	0,038	-0,030
-460,313	800,000	-0,030	0,062
-459,299	800,000	0,017	0,044
-458,284	-200,000	-0,042	0,247
-457,270	133,996	0,025	-0,024
-456,255	-200,000	-0,018	0,068
-455,241	-10,471	-0,045	-0,022
-454,226	-200,000	0,002	-0,129
-453,211	37,143	0,088	0,057
-452,197	-123,900	0,165	-0,019
-451,182	800,000	-0,022	0,064
-450,168	-3,450	0,044	-0,023
-449,153	800,000	0,003	0,006
-448,138	-200,000	-0,047	-0,153
-447,124	-200,000	-0,035	-0,120
-446,109	-200,000	-0,000	0,141
-445,095	-200,000	0,003	0,053
-444,080	108,845	-0,053	-0,046
-443,065	-32,309	-0,030	0,012
-442,051	154,645	-0,030	-0,030
-441,036	-186,355	0,031	-0,000
-440,022	69,093	-0,039	-0,030
-439,007	-22,971	-0,066	-0,029
-437,992	-200,000	0,019	0,070
-436,978	-19,843	0,071	-0,032
-435,963	800,000	-0,044	0,092
-434,949	-67,023	-0,059	0,017
-433,934	85,335	-0,067	0,054
-432,919	-19,108	0,157	0,071
-431,905	-143,539	0,080	0,005
-430,890	143,338	0,080	-0,078
-429,876	736,064	-0,088	0,174
-428,861	242,942	-0,048	0,058
-427,846	227,226	0,105	0,125
-426,832	-200,000	0,018	0,069
-425,817	-85,174	0,057	0,013
-424,803	52,443	-0,051	-0,036
-423,788	51,558	0,045	-0,032
-422,773	119,922	-0,025	-0,023
-421,759	-2,403	-0,045	0,023
-420,744	53,133	0,067	0,047
-419,730	-150,433	0,073	-0,004
-418,715	-200,000	0,015	-0,145
-417,701	52,029	0,055	0,039
-416,686	234,944	0,065	-0,078
-415,671	-128,427	0,030	0,003
-414,657	-200,000	-0,010	0,086
-413,642	176,327	0,137	0,146
-412,628	-1,743	0,114	-0,059
-411,613	626,271	0,028	-0,052
-410,598	-60,715	-0,148	0,046
-409,584	33,077	0,153	-0,097
-408,569	106,202	-0,117	0,102
-407,555	-38,024	-0,050	0,019
-406,540	-200,000	0,029	0,115
-405,525	52,025	-0,042	-0,029
-404,511	-173,551	0,015	-0,000
-403,496	800,000	-0,049	-0,120
-402,482	800,000	0,054	-0,143
-401,467	-122,273	0,035	0,004
-400,452	50,139	-0,029	0,020
-399,438	-130,871	0,093	0,009
-398,423	-129,741	0,075	-0,007
-397,409	-30,861	-0,073	0,030
-396,394	340,946	-0,097	0,140
-395,379	-111,560	-0,154	-0,023
-394,365	2,012	0,117	-0,061
-393,350	-200,000	-0,019	0,069
-392,336	86,479	-0,063	0,051
-391,321	-200,000	-0,004	-0,041
-390,306	-101,793	-0,040	-0,007
-389,292	146,044	-0,037	0,036
-388,277	183,421	0,019	0,021
-387,263	220,306	0,095	0,111
-386,248	8,956	-0,037	0,020
-385,233	-200,000	-0,022	-0,155
-384,219	270,672	-0,044	0,057
-383,204	-135,621	0,047	-0,004
-382,190	-200,000	-0,018	-0,237
-381,175	-200,000	-0,003	0,035
-380,160	-200,000	0,012	0,056
-379,146	-74,150	-0,103	0,027
-378,131	-63,514	0,146	0,043
-377,117	21,482	-0,114	-0,067
-376,102	-148,125	-0,122	0,007
-375,088	42,613	-0,075	0,050
-374,073	-147,085	0,100	-0,006
-373,058	-200,000	0,010	0,036
-372,044	-200,000	0,009	-0,095
-371,029	238,685	0,068	0,082
-370,015	309,958	-0,034	0,047
-369,000	232,130	-0,120	-0,144
-367,985	-200,000	-0,011	-0,067
-366,971	-11,475	-0,121	-0,058
-365,956	224,769	0,086	0,102
-364,942	66,829	-0,017	0,013
-363,927	-200,000	0,004	-0,036
-362,912	-200,000	0,018	0,071
-361,898	-200,000	-0,016	-0,095
-360,883	-91,175	-0,126	0,026
-359,869	-132,239	-0,110	0,010
-358,854	429,545	-0,065	0,104
-357,839	800,000	-0,050	0,156
-356,825	-200,000	0,005	0,200
-355,810	-200,000	-0,030	0,206
-354,796	-83,546	0,101	0,023
-353,781	338,945	-0,040	0,057
-352,766	77,673	-0,190	-0,147
-351,752	1,998	0,111	0,058
-350,737	-80,951	0,035	-0,008
-349,723	-175,562	0,107	0,002
-348,708	800,000	-0,022	0,067
-347,693	114,095	0,066	0,058
-346,679	-200,000	-0,024	-0,140
-345,664	-200,000	-0,039	-0,128
-344,650	-107,956	0,144	0,023
-343,635	-16,579	0,096	0,044
-342,620	147,584	0,055	-0,054
-341,606	800,000	-0,030	0,076
-340,591	-200,000	0,043	0,158
-339,577	166,334	0,055	0,057
-338,562	68,289	-0,107	-0,079
-337,548	800,000	-0,014	0,041
-336,533	7,874	0,074	-0,040
-335,518	10,808	-0,096	0,053
-334,504	-64,056	0,207	0,061
-333,489	-66,762	0,052	-0,015
-332,475	645,783	0,039	-0,073
-331,460	761,535	-0,024	0,047
-330,445	631,385	-0,062	-0,116
-329,431	-140,886	-0,105	0,008
-328,416	-13,476	0,119	-0,056
-327,402	262,583	0,060	-0,076
-326,387	371,759	0,124	-0,183
-325,372	491,465	-0,059	-0,099
-324,358	321,197	-0,028	-0,038
-323,343	68,603	0,045	-0,034
-322,329	-26,854	-0,016	-0,007
-321,314	-200,000	0,017	0,055
-320,299	88,526	0,071	0,058
-319,285	181,377	-0,036	0,039
-318,270	26,417	0,092	0,056
-317,256	795,138	0,018	-0,036
-316,241	-200,000	-0,001	-0,095
-315,226	-193,589	0,141	-0,001
-314,212	-55,032	-0,030	0,010
-313,197	-133,250	-0,030	0,003
-312,183	-45,808	0,039	-0,014
-311,168	-200,000	-0,031	-0,146
-310,153	-200,000	-0,008	-0,124
-309,139	229,310	-0,095	0,114
-308,124	618,001	0,074	-0,137
-307,110	73,264	0,069	-0,053
-306,095	377,704	-0,013	-0,020
-305,080	204,047	-0,038	0,043
-304,066	253,347	0,131	-0,163
-303,051	13,725	0,026	-0,015
-302,037	322,043	-0,046	-0,065
-301,022	-127,488	0,095	0,010
-300,008	-25,941	0,086	0,037
-298,993	-114,666	-0,143	0,020
-297,978	-52,014	0,090	0,030
-296,964	104,444	0,080	0,068
-295,949	-31,425	-0,012	-0,005
-294,935	-200,000	-0,004	-0,067
-293,920	534,894	-0,022	-0,037
-292,905	149,879	0,031	0,030
-291,891	800,000	0,037	0,092
-290,876	91,115	-0,064	0,052
-289,862	-200,000	0,028	-0,114
-288,847	-200,000	0,001	-0,086
-287,832	-100,445	-0,008	0,001
-286,818	-72,340	-0,132	0,035
-285,803	223,829	0,016	-0,019
-284,789	-45,518	0,065	0,023
-283,774	-79,501	0,135	-0,033
-282,759	-200,000	-0,009	-0,036
-281,745	800,000	0,035	-0,072
-280,730	341,842	-0,088	-0,125
-279,716	522,221	0,116	-0,199
-278,701	96,190	-0,049	-0,041
-277,686	-74,893	0,126	-0,033
-276,672	-107,801	0,109	-0,017
-275,657	-76,573	-0,138	0,035
-274,643	-200,000	0,000	0,118
-273,628	800,000	0,059	-0,157
-272,613	117,676	-0,044	0,039
-271,599	-75,704	0,113	0,029
-270,584	123,839	0,037	0,034
-269,570	-200,000	0,024	0,114
-268,555	-122,740	0,085	0,010
-267,540	146,528	-0,060	0,059
-266,526	800,000	-0,017	-0,041
-265,511	800,000	-0,079	-0,226
-264,497	-44,115	-0,139	-0,051
-263,482	-200,000	0,009	0,039
-262,467	771,082	0,061	-0,122
-261,453	-200,000	-0,028	0,114
-260,438	-61,451	0,064	0,019
-259,424	144,258	-0,030	-0,029
-258,409	243,174	0,064	-0,078
-257,395	-31,032	0,030	-0,012
-256,380	-56,476	0,031	-0,010
-255,365	800,000	-0,044	0,132
-254,351	525,681	0,025	-0,043
-253,336	24,745	0,025	-0,015
-252,322	282,839	-0,082	0,108
-251,307	-103,125	-0,043	-0,007
-250,292	309,844	0,034	-0,047
-249,278	19,743	-0,054	0,032
-248,263	583,456	0,076	-0,136
-247,249	-200,000	-0,055	0,212
-246,234	-162,512	-0,055	0,002
-245,219	-200,000	0,059	-0,222
-244,205	336,751	-0,043	-0,061
-243,190	800,000	-0,019	0,042
-242,176	-171,639	-0,083	0,002
-241,161	800,000	0,027	0,066
-240,146	71,669	-0,110	-0,083
-239,132	-200,000	-0,034	-0,206
-238,117	-97,690	0,120	-0,022
-237,103	139,957	-0,035	0,033
-236,088	800,000	-0,020	0,044
-235,073	-200,000	-0,001	0,044
-234,059	-120,898	0,037	-0,004
-233,044	-34,462	0,125	-0,050
-232,030	-3,394	-0,019	-0,009
-231,015	5,387	-0,134	-0,072
-230,000	-200,000	-0,019	-0,089
-228,986	-123,845	0,171	0,019
-227,971	800,000	0,055	0,115
-226,957	345,736	-0,047	-0,067
-225,942	-27,564	0,087	-0,036
-224,927	800,000	0,015	-0,047
-223,913	800,000	0,043	-0,097
-222,898	-200,000	0,007	0,034
-221,884	-200,000	0,004	-0,021
-220,869	531,021	0,031	-0,054
-219,855	147,145	-0,107	0,105
-218,840	-200,000	-0,003	0,015
-217,825	-153,753	-0,033	-0,002
-216,811	202,408	-0,112	-0,126
-215,796	12,451	-0,072	0,040
-214,782	-200,000	0,013	-0,093
-213,767	109,497	0,050	-0,044
-212,752	60,703	0,089	0,064
-211,738	127,209	0,059	0,055
-210,723	-24,860	-0,128	0,055
-209,709	800,000	0,031	-0,075
-208,694	187,963	-0,096	-0,104
-207,679	-126,676	0,051	-0,005
-206,665	208,915	-0,055	0,062
-205,650	199,975	0,047	0,053
-204,636	-200,000	0,001	0,034
-203,621	-12,958	0,055	0,026
-202,606	147,011	0,057	-0,056
-201,592	800,000	0,025	-0,057
-200,577	-74,407	-0,114	-0,030
-199,563	-83,679	-0,072	-0,017
-198,548	-62,347	0,095	0,029
-197,533	-175,754	0,119	-0,002
-196,519	788,063	-0,022	0,045
-195,504	54,896	0,040	-0,028
-194,490	-200,000	-0,002	0,072
-193,475	-200,000	0,008	-0,067
-192,460	278,734	-0,063	0,081
-191,446	-13,991	-0,041	0,019
-190,431	800,000	-0,025	-0,052
-189,417	-200,000	-0,026	0,144
-188,402	427,378	0,064	0,101
-187,387	33,243	-0,091	0,057
-186,373	-200,000	-0,018	-0,069
-185,358	800,000	-0,014	-0,039
-184,344	-80,369	-0,165	-0,040
-183,329	101,918	-0,044	-0,037
-182,315	-10,600	-0,031	0,015
-181,300	-150,984	0,064	0,003
-180,285	56,108	-0,047	0,033
-179,271	99,048	0,013	0,011
-178,256	12,646	0,141	0,079
-177,242	-6,674	-0,060	0,029
-176,227	-70,614	0,036	0,010
-175,212	65,384	0,020	-0,015
-174,198	-64,902	-0,100	0,029
-173,183	-162,965	0,062	-0,002
-172,169	-129,606	-0,084	0,008
-171,154	-200,000	0,002	0,240
-170,139	10,993	0,019	0,010
-169,125	800,000	-0,010	-0,023
-168,110	-200,000	0,018	0,065
-167,096	-200,000	0,001	-0,009
-166,081	-200,000	0,017	0,067
-165,066	-200,000	0,012	-0,079
-164,052	-13,096	-0,078	0,037
-163,037	595,923	-0,017	-0,031
-162,023	-200,000	-0,036	0,212
-161,008	-200,000	-0,002	-0,063
-159,993	299,699	-0,088	-0,118
-158,979	-200,000	0,011	-0,075
-157,964	-64,670	-0,010	0,003
-156,950	800,000	-0,044	-0,133
-155,935	-23,535	0,082	0,036
-154,920	-55,307	0,033	0,011
-153,906	32,313	0,079	-0,049
-152,891	-200,000	0,043	0,143
-151,877	-140,089	-0,169	0,013
-150,862	-53,217	-0,106	-0,035
-149,847	448,187	-0,056	-0,089
-148,833	-62,497	-0,051	-0,015
-147,818	-200,000	0,033	-0,132
-146,804	326,096	-0,100	-0,140
-145,789	-110,836	-0,086	0,013
-144,775	-200,000	-0,006	0,086
-143,760	-112,932	-0,092	0,013
-142,745	-37,305	-0,109	0,042
-141,731	394,166	-0,006	-0,010
-140,716	416,985	-0,016	-0,024
-139,702	-70,889	0,084	0,023
-138,687	-126,856	-0,036	-0,004
-137,672	800,000	-0,007	0,023
-136,658	220,910	0,045	0,053
-135,643	-200,000	-0,025	-0,083
-134,629	48,438	0,086	-0,058
-133,614	-200,000	-0,009	0,055
-132,599	162,935	-0,036	0,037
-131,585	398,206	0,025	0,037
-130,570	-32,795	0,019	0,008
-129,556	-128,767	-0,126	-0,013
-128,541	-46,598	-0,084	-0,030
-127,526	-200,000	0,016	-0,067
-126,512	800,000	-0,053	0,106
-125,497	800,000	-0,034	0,074
-124,483	-10,191	-0,103	0,049
-123,468	31,688	0,040	-0,025
-122,453	-200,000	0,037	0,139
-121,439	-8,153	-0,126	-0,061
-120,424	-136,314	-0,118	0,010
-119,410	214,375	0,072	-0,083
-118,395	498,215	-0,103	0,172
-117,380	-200,000	-0,016	-0,068
-116,366	-81,993	-0,112	-0,026
-115,351	-200,000	0,013	-0,079
-114,337	-66,276	-0,164	-0,047
-113,322	-59,423	-0,067	-0,021
-112,307	-14,960	-0,052	-0,024
-111,293	54,118	0,143	-0,099
-110,278	40,133	-0,042	-0,027
-109,264	-2,947	-0,143	0,072
-108,249	-200,000	0,031	-0,149
-107,234	-200,000	-0,054	-0,214
-106,220	-167,630	-0,134	-0,004
-105,205	800,000	-0,014	0,042
-104,191	313,301	0,041	0,056
-103,176	800,000	0,067	0,160
-102,162	7,797	-0,074	0,040
-101,147	-96,538	-0,157	0,030
-100,132	-134,037	-0,031	0,003
-99,118	-80,588	-0,138	-0,033
-98,103	-182,830	0,128	0,002
-97,089	755,623	0,040	0,079
-96,074	-116,660	-0,055	-0,007
-95,059	-71,015	0,066	-0,018
-94,045	-41,742	-0,101	0,037
-93,030	31,430	0,106	-0,065
-92,016	490,391	-0,075	-0,125
-91,001	-83,715	0,059	0,013
-89,986	800,000	-0,061	-0,191
-88,972	-57,661	0,066	0,021
-87,957	13,170	-0,088	0,049
-86,943	-200,000	0,002	-0,100
-85,928	3,860	-0,115	-0,060
-84,913	-200,000	-0,022	0,120
-83,899	22,027	-0,054	-0,032
-82,884	419,362	0,012	-0,019
-81,870	28,776	0,099	-0,060
-80,855	800,000	-0,074	0,185
-79,840	703,737	-0,060	-0,116
-78,826	-7,523	0,041	0,020
-77,811	-45,010	-0,190	-0,068
-76,797	73,555	0,129	-0,097
-75,782	757,223	0,074	0,146
-74,767	-200,000	0,011	-0,056
-73,753	-79,211	0,055	0,013
-72,738	696,162	-0,042	-0,080
-71,724	18,937	0,089	-0,052
-70,709	800,000	-0,049	-0,135
-69,694	-95,153	0,067	-0,013
-68,680	-149,702	0,035	-0,002
-67,665	-200,000	-0,005	0,073
-66,651	-200,000	0,011	0,073
-65,636	-172,125	-0,109	-0,002
-64,622	-142,064	0,074	-0,005
-63,607	41,678	-0,064	-0,042
-62,592	-200,000	0,053	0,180
-61,578	800,000	-0,037	-0,095
-60,563	-11,797	0,107	0,051
-59,549	-12,658	-0,168	0,079
-58,534	-21,899	-1,647	-0,719
-57,519	800,000	-0,463	-1,220
-56,505	-200,000	-1,107	-4,771
-55,490	-73,721	0,708	0,184
-54,476	800,000	4,908	11,685
-53,461	-200,000	16,094	280,267
-52,446	-200,000	703,539	2257,507
-51,432	575,960	1618,085	2862,375
-50,417	124,711	1620,526	1471,573
-49,403	87,106	1281,567	1020,869
-48,388	37,685	1026,160	655,763
-47,373	21,714	988,393	578,985
-46,359	20,522	976,866	568,292
-45,344	18,555	972,730	559,415
-44,330	18,772	971,415	559,346
-43,315	18,393	970,023	557,281
-42,300	18,402	968,590	556,465
-41,286	18,327	967,821	555,755
-40,271	18,327	966,766	555,127
-39,257	18,381	965,777	554,716
-38,242	18,379	964,964	554,219
-37,227	18,410	964,298	553,916
-36,213	18,367	963,487	553,289
-35,198	18,320	962,600	552,603
-34,184	18,404	961,836	552,416
-33,169	18,296	960,902	551,509
-32,154	18,347	960,168	551,230
-31,140	18,357	959,122	550,638
-30,125	18,405	958,382	550,349
-29,111	18,392	957,758	549,926
-28,096	18,322	957,132	549,319
-27,082	18,364	956,301	548,955
-26,067	18,317	955,416	548,275
-25,052	18,299	954,710	547,791
-24,038	18,351	954,119	547,596
-23,023	18,324	953,255	546,991
-22,009	18,403	952,593	546,844
-20,994	18,388	951,982	546,424
-19,979	18,353	951,519	546,024
-18,965	18,346	950,934	545,642
-17,950	18,378	950,161	545,281
-16,936	18,330	949,583	544,774
-15,921	18,205	948,927	543,977
-14,906	18,131	948,205	543,305
-13,892	18,204	947,633	543,188
-12,877	18,258	946,938	542,941
-11,863	18,214	946,373	542,455
-10,848	18,201	945,703	542,008
-9,833	18,297	945,475	542,162
-8,819	18,324	944,454	541,639
-7,804	18,227	944,060	541,084
-6,790	18,216	943,501	540,708
-5,775	18,262	942,863	540,466
-4,760	18,197	942,320	539,928
-3,746	18,264	941,717	539,773
-2,731	18,106	940,860	538,761
-1,717	18,022	940,235	538,113
-0,702	18,071	939,602	537,887
0,313	17,855	938,827	537,570
1,327	20,314	936,565	543,989
2,342	27,289	810,337	489,588
3,356	21,745	512,852	300,298
4,371	-0,410	383,027	195,449
5,386	-2,843	366,376	183,882
6,400	-3,990	360,364	179,430
7,415	-4,704	357,486	177,105
8,429	-4,954	355,943	176,019
9,444	-5,123	355,090	175,376
10,459	-5,202	354,269	174,859
11,473	-5,190	353,548	174,502
12,488	-4,913	353,103	174,602
13,502	-5,086	352,543	174,101
14,517	-5,381	352,044	173,482
15,531	-5,711	351,247	172,677
16,546	-5,810	350,778	172,311
17,561	-5,850	350,379	172,052
18,575	-5,738	349,908	171,940
19,590	-6,037	349,595	171,413
20,604	-5,841	349,192	171,435
21,619	-5,919	348,889	171,176
22,634	-5,767	348,350	171,079
23,648	-5,807	347,917	170,803
24,663	-5,904	347,738	170,584
25,677	-6,089	347,499	170,232
26,692	-5,968	347,128	170,179
27,707	-5,968	346,811	170,008
28,721	-5,951	346,532	169,876
29,736	-5,956	346,159	169,672
30,750	-6,010	345,960	169,496
31,765	-6,054	345,574	169,239
32,780	-5,923	345,102	169,149
33,794	-5,990	344,977	168,992
34,809	-5,933	344,694	168,907
35,823	-5,815	344,198	168,787
36,838	-6,073	344,074	168,407
37,853	-6,128	343,682	168,136
38,867	-5,995	343,464	168,171
39,882	-6,035	343,103	167,932
40,896	-6,080	342,950	167,789
41,911	-6,010	342,517	167,645
42,926	-6,110	342,321	167,416
43,940	-6,281	342,186	167,135
44,955	-6,064	341,728	167,150
45,969	-6,301	341,515	166,754
46,984	-6,400	341,267	166,502
47,999	-6,532	341,055	166,230
49,013	-6,601	340,659	165,942
50,028	-6,697	340,231	165,606
51,042	-6,565	340,044	165,655
52,057	-6,650	339,626	165,338
53,071	-6,574	339,412	165,307
54,086	-6,774	339,378	165,042
55,101	-6,591	339,046	165,079
56,115	-6,341	338,841	165,255
57,130	-6,034	338,867	165,608
58,144	-5,749	338,594	165,790
59,159	-5,855	338,330	165,523
60,174	-5,736	338,058	165,513
61,188	-5,855	337,908	165,287
62,203	-5,733	337,498	165,212
63,217	-5,814	337,177	164,948
64,232	-5,974	337,000	164,662
65,247	-5,681	336,861	164,917
66,261	-5,703	336,440	164,670
67,276	-5,967	335,977	164,126
68,290	-6,273	335,632	163,592
69,305	-6,024	335,510	163,804
70,320	-6,268	335,240	163,377
71,334	-6,032	334,973	163,503
72,349	-5,759	334,783	163,708
73,363	-5,556	334,565	163,818
74,378	-5,786	334,381	163,451
75,393	-5,702	333,969	163,330
76,407	-5,848	333,608	162,974
77,422	-5,884	333,453	162,843
78,436	-5,855	333,215	162,744
79,451	-5,785	333,076	162,741
80,466	-5,905	332,483	162,301
81,480	-6,126	332,231	161,914
82,495	-6,223	332,081	161,715
83,509	-6,045	331,795	161,764
84,524	-6,206	331,498	161,422
85,539	-6,396	331,207	161,051
86,553	-6,365	330,941	160,943
87,568	-6,251	330,721	160,951
88,582	-6,069	330,563	161,064
89,597	-6,065	330,124	160,840
90,611	-5,971	330,065	160,903
91,626	-5,929	329,886	160,849
92,641	-6,009	329,667	160,638
93,655	-5,943	329,399	160,567
94,670	-6,235	329,162	160,109
95,684	-6,120	329,007	160,149
96,699	-5,998	328,601	160,074
97,714	-6,102	328,364	159,827
98,728	-6,133	327,986	159,595
99,743	-6,232	327,787	159,372
100,757	-6,366	327,769	159,200
101,772	-6,255	327,399	159,130
102,787	-6,131	327,172	159,143
103,801	-5,925	326,809	159,183
104,816	-5,948	326,810	159,143
105,830	-5,869	326,736	159,180
106,845	-5,864	326,381	158,999
107,860	-5,785	326,033	158,903
108,874	-5,923	325,952	158,696
109,889	-6,073	325,510	158,301
110,903	-5,982	325,380	158,324
111,918	-5,924	324,902	158,142
112,933	-6,037	324,890	157,997
113,947	-5,871	324,678	158,063
114,962	-5,913	324,528	157,929
115,976	-6,044	324,206	157,615
116,991	-5,689	323,859	157,822
118,006	-5,928	323,797	157,514
119,020	-5,821	323,549	157,498
120,035	-5,868	323,650	157,481
121,049	-5,914	323,430	157,310
122,064	-5,674	322,940	157,321
123,079	-5,885	322,595	156,907
124,093	-5,994	322,465	156,710
125,108	-6,258	322,154	156,256
126,122	-6,246	321,809	156,088
127,137	-6,465	321,522	155,695
128,151	-6,320	321,453	155,807
129,166	-6,051	321,112	155,922
130,181	-6,203	320,997	155,685
131,195	-6,268	320,715	155,464
132,210	-6,006	320,445	155,604
133,224	-5,840	320,395	155,747
134,239	-5,806	320,245	155,697
135,254	-5,940	319,748	155,296
136,268	-5,912	319,487	155,187
137,283	-6,220	319,268	154,732
138,297	-6,281	319,078	154,560
139,312	-6,204	318,856	154,523
140,327	-5,873	318,709	154,796
141,341	-5,509	318,526	155,086
142,356	-5,601	318,622	155,019
143,370	-5,425	318,180	154,980
144,385	-5,471	318,056	154,857
145,400	-5,519	317,750	154,643
146,414	-5,325	317,496	154,713
147,429	-5,645	317,311	154,265
148,443	-5,545	317,056	154,235
149,458	-5,645	317,139	154,155
150,473	-5,485	316,672	154,085
151,487	-5,520	316,372	153,888
152,502	-5,488	316,223	153,837
153,516	-5,733	316,001	153,451
154,531	-5,577	315,819	153,517
155,546	-5,509	315,423	153,383
156,560	-5,641	315,403	153,219
157,575	-5,604	314,953	153,026
158,589	-5,666	314,931	152,936
159,604	-5,505	314,604	152,934
160,619	-5,520	314,345	152,779
161,633	-5,428	314,223	152,804
162,648	-5,670	314,168	152,506
163,662	-5,618	313,874	152,405
164,677	-5,579	313,638	152,319
165,692	-5,516	313,422	152,267
166,706	-5,523	313,429	152,249
167,721	-5,479	313,101	152,123
168,735	-5,394	312,871	152,088
169,750	-5,403	312,723	151,992
170,764	-5,167	312,460	152,101
171,779	-5,377	312,116	151,699
172,794	-5,421	312,090	151,625
173,808	-5,424	311,747	151,442
174,823	-5,882	311,405	150,780
175,837	-6,121	311,122	150,378
176,852	-5,667	311,218	150,889
177,867	-5,340	311,009	151,118
178,881	-5,379	310,865	150,994
179,896	-5,395	310,728	150,896
180,910	-5,382	310,451	150,762
181,925	-5,424	310,179	150,573
182,940	-5,170	310,005	150,741
183,954	-5,367	309,864	150,453
184,969	-5,470	309,696	150,250
185,983	-5,316	309,311	150,211
186,998	-5,442	309,241	150,032
188,013	-5,437	308,961	149,887
189,027	-5,348	308,739	149,859
190,042	-5,252	308,641	149,898
191,056	-5,119	308,421	149,917
192,071	-5,072	308,192	149,841
193,086	-5,098	307,957	149,686
194,100	-5,030	307,793	149,664
195,115	-5,219	307,459	149,292
196,129	-5,248	307,173	149,110
197,144	-5,176	306,929	149,053
198,159	-5,059	306,855	149,124
199,173	-5,168	306,659	148,904
200,188	-4,988	306,561	149,029
201,202	-5,480	306,181	148,323
202,217	-5,836	305,777	147,746
203,232	-5,852	305,436	147,551
204,246	-5,651	305,457	147,756
205,261	-5,286	305,224	148,007
206,275	-5,146	305,148	148,100
207,290	-5,269	304,937	147,858
208,304	-5,174	304,676	147,816
209,319	-5,144	304,455	147,726
210,334	-5,280	304,356	147,525
211,348	-5,279	304,037	147,358
212,363	-5,166	303,902	147,396
213,377	-5,228	303,739	147,240
214,392	-5,220	303,560	147,148
215,407	-5,412	303,196	146,763
216,421	-5,608	303,048	146,478
217,436	-5,561	302,745	146,366
218,450	-5,541	302,702	146,352
219,465	-5,506	302,524	146,290
220,480	-5,437	302,502	146,335
221,494	-5,500	301,982	146,006
222,509	-5,639	302,071	145,896
223,523	-5,400	301,763	145,977
224,538	-5,131	301,512	146,116
225,553	-5,119	301,387	146,054
226,567	-5,179	301,253	145,915
227,582	-5,218	301,111	145,794
228,596	-5,211	300,958	145,714
229,611	-5,063	300,676	145,715
230,626	-5,401	300,460	145,254
231,640	-5,535	300,005	144,886
232,655	-5,806	299,663	144,435
233,669	-6,163	299,417	143,944
234,684	-5,973	299,429	144,128
235,699	-5,876	299,048	144,030
236,713	-5,804	298,995	144,064
237,728	-5,768	299,016	144,097
238,742	-5,580	298,829	144,183
239,757	-5,437	298,705	144,254
240,772	-5,287	298,439	144,263
241,786	-5,339	298,248	144,106
242,801	-5,583	298,029	143,743
243,815	-5,554	297,798	143,647
244,830	-5,494	297,717	143,656
245,844	-5,716	297,443	143,288
246,859	-5,469	297,161	143,386
247,874	-5,391	296,929	143,340
248,888	-5,369	296,843	143,308
249,903	-5,282	296,793	143,358
250,917	-5,293	296,662	143,270
251,932	-4,807	296,710	143,766
252,947	-3,923	296,712	144,635
253,961	-4,121	296,594	144,367
254,976	-2,979	297,028	145,704
255,990	-1,535	297,206	147,217
257,005	-1,910	297,063	146,760
258,020	-0,079	297,710	148,892
259,034	0,836	297,555	149,712
260,049	0,600	297,412	149,392
261,063	0,686	297,204	149,360
262,078	0,980	297,195	149,634
263,093	1,590	297,211	150,235
264,107	1,536	297,137	150,131
265,122	1,656	296,893	150,113
266,136	1,696	296,745	150,064
267,151	1,746	296,339	149,895
268,166	1,419	296,122	149,448
269,180	1,573	295,926	149,489
270,195	1,730	295,845	149,590
271,209	1,370	295,621	149,108
272,224	1,356	295,457	148,997
273,239	1,310	295,277	148,848
274,253	1,417	295,231	148,917
275,268	1,840	294,954	149,181
276,282	1,435	294,803	148,692
277,297	1,392	294,409	148,438
278,312	1,380	294,386	148,402
279,326	1,502	294,267	148,448
280,341	1,587	294,100	148,434
281,355	1,557	293,778	148,229
282,370	1,454	293,637	148,044
283,384	1,400	293,292	147,804
284,399	1,721	293,267	148,092
285,414	1,706	292,997	147,928
286,428	1,513	292,893	147,674
287,443	1,535	292,571	147,520
288,457	1,482	292,473	147,405
289,472	1,520	292,209	147,296
290,487	1,368	292,071	147,065
291,501	1,328	291,707	146,830
292,516	1,326	291,365	146,643
293,530	1,028	291,453	146,384
294,545	1,157	291,341	146,441
295,560	1,483	291,165	146,655
296,574	1,357	290,958	146,416
297,589	1,392	290,844	146,380
298,603	1,718	290,748	146,634
299,618	1,581	290,505	146,366
300,633	1,526	290,287	146,190
301,647	1,411	290,146	145,995
302,662	1,478	290,012	145,979
303,676	1,335	289,593	145,617
304,691	1,114	289,401	145,294
305,706	1,072	289,126	145,103
306,720	0,996	288,926	144,916
307,735	0,967	288,773	144,799
308,749	1,164	288,665	144,922
309,764	1,278	288,411	144,890
310,779	1,161	288,032	144,575
311,793	0,940	287,903	144,285
312,808	0,962	287,686	144,184
313,822	0,909	287,601	144,078
314,837	0,739	287,416	143,810
315,852	0,837	287,091	143,729
316,866	0,906	286,960	143,716
317,881	0,781	286,808	143,508
318,895	1,075	286,605	143,674
319,910	0,884	286,522	143,437
320,925	0,954	286,241	143,350
321,939	0,962	286,172	143,310
322,954	0,808	285,930	143,030
323,968	1,007	285,787	143,135
324,983	1,091	285,643	143,130
325,997	0,959	285,365	142,853
327,012	1,153	285,252	142,967
328,027	0,899	284,949	142,562
329,041	0,915	284,898	142,539
330,056	1,033	284,710	142,544
331,070	1,284	284,338	142,582
332,085	0,901	284,414	142,246
333,100	1,104	284,116	142,275
334,114	1,071	283,852	142,099
335,129	0,931	283,769	141,913
336,143	1,123	283,719	142,057
337,158	1,308	283,622	142,170
338,173	1,169	283,302	141,866
339,187	1,144	282,993	141,675
340,202	1,046	282,993	141,570
341,216	1,445	282,611	141,741
342,231	1,295	282,471	141,517
343,246	1,298	282,399	141,471
344,260	1,188	282,199	141,255
345,275	1,438	282,058	141,406
346,289	1,579	281,958	141,476
347,304	1,469	281,695	141,229
348,319	1,091	281,431	140,730
349,333	1,130	281,247	140,662
350,348	1,387	281,154	140,843
351,362	1,561	281,045	140,938
352,377	1,348	280,865	140,636
353,392	1,480	280,770	140,699
354,406	1,686	280,586	140,786
355,421	190,761	1328,942	1397,845
356,435	154,341	1456,693	1397,875
