DTS Sentinel unit serial number:	SN410029Multiplexer serial number:	ORYXHardware model number:	OX2-SRSoftware version number:	ORYX F/W v4,00 Oryx Data Collector v3.7.2.0data status	okinstallation	B4 Nyhavnadifferential loss correction	single-endedforward channel	channel 2reverse channel	N/Adate	2023/12/15time	17:40:13forward acquisition time	300,00reverse acquisition time	0,00gamma	499,1914k internal	0,3141k external	0,3141temperature offset calibration	1,0000default loss term (dB/km)	0,3820temperature slope calibration	1,0000multiplexer offset coefficient	1,0000multiplexer slope coefficient	1,0000fibre end	0,00T internal ref (°C)	18,52T ext. ref 1 (°C)	4,26T ext. ref 2 (°C)	4,31length (m)	temperature (°C)	Stokes	anti-Stokes-744,400	-45,909	0,043	0,016
-743,385	-49,809	-0,246	0,086
-742,371	-133,681	0,047	0,004
-741,356	106,701	-0,192	0,168
-740,342	62,383	0,117	0,086
-739,327	-17,748	-0,248	0,115
-738,312	-200,000	0,017	-0,066
-737,298	-104,275	-0,270	-0,046
-736,283	-66,516	0,067	0,020
-735,269	-132,644	-0,371	-0,035
-734,254	-4,946	0,129	-0,065
-733,239	30,063	-0,386	-0,243
-732,225	6,914	0,134	0,074
-731,210	-84,032	-0,137	-0,032
-730,196	211,791	-0,039	0,046
-729,181	800,000	-0,030	0,066
-728,167	800,000	0,021	-0,056
-727,152	-70,468	-0,166	-0,046
-726,137	49,934	-0,067	0,047
-725,123	-200,000	-0,004	-0,045
-724,108	17,331	-0,172	-0,101
-723,094	274,022	-0,142	-0,186
-722,079	235,413	0,092	0,113
-721,064	163,563	-0,142	-0,148
-720,050	43,632	0,053	0,036
-719,035	-200,000	0,023	0,121
-718,021	292,914	0,048	0,065
-717,006	56,069	-0,070	0,050
-715,991	-200,000	-0,000	-0,134
-714,977	100,513	0,035	-0,030
-713,962	-200,000	0,004	-0,119
-712,948	-200,000	0,016	-0,112
-711,933	-200,000	0,013	0,052
-710,918	26,025	-0,135	0,083
-709,904	-4,899	-0,043	-0,022
-708,889	26,606	-0,068	0,042
-707,875	-200,000	0,012	-0,099
-706,860	-81,425	0,209	-0,051
-705,845	211,578	-0,035	-0,040
-704,831	-29,809	0,126	-0,053
-703,816	70,249	0,034	-0,026
-702,802	-200,000	0,007	-0,137
-701,787	-54,837	-0,161	-0,053
-700,772	-200,000	0,009	-0,139
-699,758	-20,777	0,024	0,011
-698,743	141,593	0,065	0,064
-697,729	-9,837	0,026	-0,013
-696,714	-200,000	-0,003	0,045
-695,699	275,049	-0,022	-0,029
-694,685	-200,000	0,002	0,031
-693,670	19,470	-0,117	0,069
-692,656	-200,000	-0,027	0,098
-691,641	23,416	-0,067	0,041
-690,627	37,458	-0,010	-0,006
-689,612	800,000	0,052	-0,138
-688,597	-67,470	-0,153	0,044
-687,583	-200,000	-0,004	-0,097
-686,568	212,445	-0,078	-0,091
-685,554	-50,948	-0,049	0,017
-684,539	-200,000	-0,025	0,198
-683,524	800,000	-0,028	0,084
-682,510	108,757	0,039	0,034
-681,495	-148,939	0,038	0,002
-680,481	-17,146	0,036	-0,017
-679,466	-199,521	-0,195	0,001
-678,451	-48,404	-0,049	-0,017
-677,437	-200,000	-0,001	0,045
-676,422	113,100	0,040	-0,036
-675,408	-200,000	0,000	0,035
-674,393	-68,449	-0,089	0,025
-673,378	800,000	0,023	0,051
-672,364	114,825	0,026	-0,023
-671,349	-106,193	-0,033	0,005
-670,335	11,652	0,159	-0,090
-669,320	800,000	0,016	-0,048
-668,305	-34,449	-0,100	0,040
-667,291	685,802	-0,062	0,120
-666,276	-17,347	-0,126	-0,058
-665,262	-200,000	-0,042	-0,156
-664,247	-116,546	0,109	-0,015
-663,232	-145,711	0,077	-0,005
-662,218	-111,762	0,114	0,017
-661,203	-128,923	-0,235	0,024
-660,189	136,687	0,064	0,062
-659,174	346,628	-0,049	-0,071
-658,159	-86,006	-0,161	0,036
-657,145	180,292	-0,105	-0,114
-656,130	-88,898	-0,116	0,025
-655,116	-200,000	0,022	0,092
-654,101	58,877	-0,094	0,068
-653,086	7,539	-0,053	-0,029
-652,072	-27,190	-0,147	0,063
-651,057	-121,351	-0,170	0,021
-650,043	-38,140	-0,055	0,021
-649,028	800,000	-0,031	0,068
-648,014	37,934	-0,021	0,014
-646,999	712,725	-0,016	0,031
-645,984	133,688	0,072	-0,069
-644,970	131,987	0,054	-0,052
-643,955	-49,833	-0,202	-0,071
-642,941	145,007	-0,068	-0,067
-641,926	-129,753	-0,057	-0,006
-640,911	6,109	0,118	0,064
-639,897	800,000	0,003	-0,006
-638,882	171,025	-0,138	0,146
-637,868	-61,865	-0,041	-0,013
-636,853	368,184	-0,062	-0,092
-635,838	800,000	-0,024	-0,072
-634,824	167,820	-0,046	-0,048
-633,809	39,309	-0,053	0,035
-632,795	-200,000	-0,021	0,105
-631,780	-200,000	-0,001	0,014
-630,765	800,000	-0,083	0,174
-629,751	62,100	0,069	0,051
-628,736	30,388	-0,132	-0,083
-627,722	-200,000	0,009	0,058
-626,707	-93,576	0,077	0,016
-625,692	252,603	0,028	-0,035
-624,678	-200,000	0,008	-0,029
-623,663	-132,386	0,161	-0,015
-622,649	544,631	-0,051	-0,090
-621,634	-200,000	0,017	-0,063
-620,619	114,847	0,078	0,070
-619,605	55,802	-0,161	0,115
-618,590	661,292	0,056	0,107
-617,576	800,000	0,043	-0,132
-616,561	314,082	-0,065	-0,090
-615,546	800,000	-0,036	-0,097
-614,532	-200,000	-0,004	-0,094
-613,517	-147,951	-0,061	-0,004
-612,503	29,408	0,132	-0,083
-611,488	18,627	-0,187	-0,110
-610,474	-200,000	-0,008	-0,043
-609,459	-43,273	0,092	-0,034
-608,444	-27,949	-0,051	-0,022
-607,430	-89,351	0,066	0,014
-606,415	-200,000	-0,001	-0,015
-605,401	-200,000	-0,004	-0,079
-604,386	-131,272	-0,191	-0,018
-603,371	744,452	0,112	0,222
-602,357	206,206	-0,038	0,044
-601,342	-124,203	-0,108	0,012
-600,328	-52,498	-0,101	0,034
-599,313	-200,000	0,061	-0,209
-598,298	-81,600	-0,071	-0,017
-597,284	-200,000	-0,024	0,105
-596,269	40,195	0,119	-0,078
-595,255	15,481	-0,010	-0,006
-594,240	-200,000	-0,002	0,012
-593,225	-87,233	0,091	0,020
-592,211	-103,054	0,035	0,006
-591,196	306,977	0,007	-0,010
-590,182	-184,354	0,067	-0,001
-589,167	-121,437	0,144	0,017
-588,152	247,017	-0,044	0,055
-587,138	-75,249	-0,016	0,004
-586,123	20,254	-0,108	-0,064
-585,109	-200,000	0,045	-0,162
-584,094	-177,372	-0,014	-0,000
-583,079	-151,385	0,030	-0,002
-582,065	-200,000	-0,066	-0,000
-581,050	407,434	-0,014	-0,022
-580,036	-200,000	-0,017	-0,087
-579,021	406,180	-0,031	0,048
-578,006	3,260	-0,055	-0,029
-576,992	229,344	-0,011	0,014
-575,977	209,200	0,011	0,013
-574,963	-9,345	0,143	-0,070
-573,948	295,642	0,011	-0,015
-572,934	3,378	0,068	-0,036
-571,919	-200,000	-0,009	0,054
-570,904	-200,000	0,011	-0,078
-569,890	-200,000	-0,002	0,054
-568,875	-200,000	-0,009	0,086
-567,861	-200,000	-0,009	0,114
-566,846	558,062	0,036	0,064
-565,831	-136,467	0,061	-0,005
-564,817	-181,716	-0,077	0,001
-563,802	-104,288	0,112	-0,019
-562,788	434,352	-0,045	0,072
-561,773	-113,173	0,136	0,020
-560,758	372,112	0,069	0,104
-559,744	168,677	0,067	0,070
-558,729	49,345	0,048	-0,033
-557,715	-110,921	-0,128	-0,019
-556,700	800,000	-0,051	0,162
-555,685	-114,538	0,047	-0,007
-554,671	-200,000	-0,039	0,153
-553,656	-11,522	0,052	-0,025
-552,642	-200,000	0,008	0,027
-551,627	800,000	-0,048	0,131
-550,612	-11,890	0,080	0,039
-549,598	188,602	-0,099	-0,109
-548,583	800,000	-0,053	0,135
-547,569	800,000	-0,050	-0,138
-546,554	-150,098	0,082	0,005
-545,539	-200,000	0,017	-0,074
-544,525	-200,000	0,032	0,112
-543,510	-92,250	-0,187	0,039
-542,496	280,068	-0,081	-0,106
-541,481	0,393	-0,121	-0,063
-540,466	252,713	0,044	-0,056
-539,452	-67,954	0,178	0,051
-538,437	800,000	0,017	0,055
-537,423	168,408	0,045	-0,048
-536,408	73,325	-0,104	0,080
-535,393	-61,792	-0,075	-0,023
-534,379	24,805	0,021	0,013
-533,364	-17,246	0,051	-0,024
-532,350	800,000	0,022	0,049
-531,335	101,618	0,094	-0,080
-530,321	800,000	0,017	-0,046
-529,306	80,387	-0,105	-0,083
-528,291	-58,308	-0,129	-0,041
-527,277	-62,170	-0,134	-0,041
-526,262	800,000	-0,018	-0,048
-525,248	-200,000	0,006	-0,079
-524,233	-200,000	-0,004	0,030
-523,218	293,700	-0,011	0,014
-522,204	-43,282	-0,044	-0,016
-521,189	353,705	-0,020	0,029
-520,175	-94,398	-0,082	-0,016
-519,160	34,465	-0,078	0,050
-518,145	84,118	-0,048	0,038
-517,131	127,308	-0,047	0,044
-516,116	14,554	-0,081	0,046
-515,102	-85,768	-0,063	0,014
-514,087	78,769	-0,133	-0,104
-513,072	-200,000	0,022	-0,100
-512,058	23,773	0,042	-0,026
-511,043	800,000	-0,044	-0,129
-510,029	296,509	0,076	-0,103
-509,014	216,480	0,086	0,101
-507,999	-20,203	0,061	0,028
-506,985	256,957	-0,036	-0,046
-505,970	148,375	-0,056	-0,056
-504,956	-7,654	0,055	-0,027
-503,941	693,565	-0,032	0,062
-502,926	-200,000	-0,015	-0,160
-501,912	800,000	0,049	0,118
-500,897	70,261	-0,154	-0,117
-499,883	17,367	-0,041	0,024
-498,868	-124,971	-0,115	-0,013
-497,853	-200,000	0,003	-0,049
-496,839	800,000	-0,026	0,055
-495,824	30,025	0,101	0,063
-494,810	499,621	-0,038	0,064
-493,795	800,000	0,035	0,077
-492,781	-200,000	-0,011	-0,156
-491,766	131,350	-0,109	-0,103
-490,751	-200,000	-0,000	0,047
-489,737	-200,000	0,029	-0,199
-488,722	-200,000	-0,015	-0,082
-487,708	-51,746	0,047	-0,016
-486,693	-137,137	0,129	-0,011
-485,678	119,782	0,121	-0,110
-484,664	-97,505	-0,112	-0,021
-483,649	-53,574	0,103	-0,034
-482,635	599,422	-0,007	0,013
-481,620	729,274	0,067	0,132
-480,605	-200,000	0,015	0,051
-479,591	-200,000	0,030	0,104
-478,576	-22,263	-0,077	0,034
-477,562	800,000	-0,028	-0,071
-476,547	800,000	-0,020	0,050
-475,532	-200,000	-0,026	0,101
-474,518	-87,779	0,096	-0,021
-473,503	67,287	0,074	0,055
-472,489	339,883	-0,086	0,124
-471,474	-80,150	0,151	0,037
-470,459	161,843	-0,097	0,100
-469,445	506,410	-0,076	0,130
-468,430	-162,607	0,062	-0,002
-467,416	136,544	0,060	0,058
-466,401	1,541	0,042	0,022
-465,386	331,565	0,072	0,102
-464,372	-200,000	0,041	0,178
-463,357	-137,255	-0,080	-0,007
-462,343	800,000	0,073	-0,183
-461,328	-79,359	0,046	-0,011
-460,313	-200,000	-0,015	0,126
-459,299	33,140	-0,066	0,042
-458,284	101,383	0,114	0,097
-457,270	800,000	-0,039	0,115
-456,255	-200,000	0,019	0,120
-455,241	-51,318	-0,078	0,027
-454,226	273,330	0,086	-0,111
-453,211	3,836	0,057	-0,030
-452,197	291,124	0,025	-0,033
-451,182	-200,000	-0,005	0,049
-450,168	722,150	-0,039	-0,076
-449,153	-6,292	-0,065	-0,032
-448,138	158,222	0,014	-0,014
-447,124	-91,083	-0,110	-0,023
-446,109	212,624	-0,061	-0,070
-445,095	800,000	0,051	0,139
-444,080	-200,000	0,005	0,071
-443,065	-48,800	0,079	-0,028
-442,051	65,376	0,075	0,055
-441,036	800,000	0,006	-0,020
-440,022	593,045	-0,104	-0,189
-439,007	-19,912	-0,126	0,057
-437,992	35,333	0,104	-0,067
-436,978	81,851	0,135	0,107
-435,963	308,822	0,079	0,108
-434,949	-200,000	0,002	0,022
-433,934	800,000	0,051	-0,134
-432,919	184,286	0,022	0,024
-431,905	140,406	0,048	-0,046
-430,890	163,983	0,103	-0,106
-429,876	59,760	0,077	-0,056
-428,861	-200,000	0,019	0,093
-427,846	-200,000	0,008	-0,204
-426,832	-200,000	0,016	-0,183
-425,817	95,232	-0,070	-0,058
-424,803	61,206	0,109	-0,079
-423,788	-200,000	0,003	0,031
-422,773	-200,000	0,017	-0,093
-421,759	188,300	0,020	0,022
-420,744	-200,000	0,017	-0,084
-419,730	-183,893	-0,128	-0,002
-418,715	161,358	-0,084	-0,086
-417,701	-54,564	-0,086	0,028
-416,686	196,460	-0,081	0,090
-415,671	-150,301	-0,023	0,001
-414,657	726,822	0,029	-0,056
-413,642	253,945	-0,040	-0,050
-412,628	101,065	-0,104	-0,089
-411,613	15,929	0,044	0,026
-410,598	-200,000	-0,008	-0,040
-409,584	-200,000	-0,023	0,101
-408,569	-200,000	0,007	0,065
-407,555	800,000	0,049	0,124
-406,540	440,279	0,043	-0,070
-405,525	-200,000	0,012	0,108
-404,511	-172,606	0,043	0,001
-403,496	800,000	-0,105	-0,222
-402,482	-1,432	0,080	0,041
-401,467	202,205	0,040	0,046
-400,452	264,087	-0,081	-0,104
-399,438	2,936	0,069	0,036
-398,423	-1,460	-0,071	0,037
-397,409	-200,000	-0,012	0,054
-396,394	68,892	-0,123	-0,092
-395,379	-116,932	0,130	-0,017
-394,365	1,473	0,067	0,035
-393,350	-200,000	-0,002	0,191
-392,336	602,394	0,084	0,154
-391,321	2,289	0,009	0,005
-390,306	800,000	0,027	0,070
-389,292	800,000	0,022	0,061
-388,277	800,000	0,016	0,036
-387,263	-200,000	0,009	-0,037
-386,248	234,547	0,100	0,120
-385,233	-62,074	0,047	-0,014
-384,219	-200,000	-0,026	-0,095
-383,204	142,684	0,103	0,100
-382,190	792,229	0,025	0,050
-381,175	-92,560	0,028	-0,006
-380,160	-141,612	-0,216	-0,016
-379,146	-20,699	0,130	0,058
-378,131	-200,000	-0,000	-0,047
-377,117	-200,000	-0,002	0,021
-376,102	-26,947	-0,009	-0,004
-375,088	-166,984	-0,040	0,001
-374,073	-200,000	-0,005	-0,078
-373,058	177,758	0,074	-0,079
-372,044	-8,606	0,114	0,056
-371,029	63,736	0,041	0,030
-370,015	-53,432	0,110	-0,037
-369,000	55,630	-0,059	-0,041
-367,985	-130,480	-0,088	-0,009
-366,971	251,222	0,017	0,021
-365,956	-101,922	-0,135	-0,024
-364,942	800,000	-0,016	0,045
-363,927	800,000	-0,048	-0,144
-362,912	-200,000	-0,002	0,086
-361,898	11,580	-0,056	-0,031
-360,883	-20,386	0,030	-0,014
-359,869	800,000	0,047	-0,096
-358,854	-110,846	0,143	0,021
-357,839	-129,822	0,087	-0,009
-356,825	107,952	-0,109	0,095
-355,810	-200,000	-0,001	0,112
-354,796	-200,000	-0,002	0,043
-353,781	800,000	0,021	0,057
-352,766	-137,838	0,102	0,008
-351,752	392,164	-0,047	0,072
-350,737	-200,000	0,015	-0,069
-349,723	-52,084	0,127	-0,043
-348,708	69,687	0,128	-0,096
-347,693	-16,073	-0,147	-0,068
-346,679	-192,708	0,078	0,001
-345,664	800,000	-0,020	0,044
-344,650	-185,829	0,058	0,001
-343,635	8,912	0,013	0,007
-342,620	268,118	0,040	-0,051
-341,606	-200,000	0,013	0,132
-340,591	92,406	-0,102	0,084
-339,577	38,519	-0,075	-0,049
-338,562	293,975	0,025	-0,033
-337,548	-56,943	0,065	0,021
-336,533	-200,000	-0,009	0,106
-335,518	178,470	0,065	0,070
-334,504	-200,000	0,000	0,020
-333,489	-77,638	-0,104	0,026
-332,475	-165,039	0,077	0,002
-331,460	-200,000	-0,009	-0,079
-330,445	739,447	-0,070	-0,138
-329,431	320,800	-0,053	0,074
-328,416	-163,525	0,142	0,005
-327,402	-6,504	0,040	-0,020
-326,387	52,484	0,071	-0,049
-325,372	-157,181	0,137	-0,006
-324,358	348,885	-0,079	-0,113
-323,343	-152,350	-0,109	0,006
-322,329	-200,000	0,042	0,141
-321,314	-70,612	0,168	0,046
-320,299	-100,764	0,082	-0,014
-319,285	178,534	-0,065	-0,070
-318,270	-200,000	-0,009	-0,050
-317,256	-143,554	0,092	-0,006
-316,241	712,616	-0,025	0,049
-315,226	800,000	-0,037	0,099
-314,212	365,222	-0,037	-0,055
-313,197	104,357	-0,076	-0,065
-312,183	-200,000	-0,012	0,130
-311,168	-75,309	-0,111	-0,029
-310,153	-23,329	-0,017	0,007
-309,139	-3,886	-0,124	-0,062
-308,124	47,399	0,070	-0,047
-307,110	-181,553	0,133	-0,002
-306,095	-83,160	-0,147	-0,034
-305,080	-200,000	-0,003	-0,055
-304,066	125,908	-0,007	0,007
-303,051	-200,000	-0,019	-0,201
-302,037	287,087	0,073	-0,097
-301,022	-177,519	-0,211	0,004
-300,008	51,063	0,043	-0,030
-298,993	800,000	0,035	-0,078
-297,978	800,000	-0,031	0,087
-296,964	-93,450	-0,164	0,033
-295,949	184,911	-0,053	0,057
-294,935	800,000	0,029	0,079
-293,920	-171,121	0,091	-0,002
-292,905	55,422	-0,159	0,112
-291,891	743,389	0,064	0,127
-290,876	-130,049	-0,031	0,003
-289,862	-200,000	-0,006	-0,126
-288,847	5,703	0,069	0,037
-287,832	86,792	0,036	0,029
-286,818	-200,000	0,005	0,148
-285,803	-200,000	-0,011	0,061
-284,789	303,177	-0,017	0,023
-283,774	-57,121	-0,123	0,039
-282,759	38,022	0,052	0,034
-281,745	-200,000	-0,017	-0,118
-280,730	48,774	-0,112	-0,077
-279,716	800,000	-0,026	0,053
-278,701	-19,445	-0,074	0,033
-277,686	-29,010	-0,035	0,015
-276,672	-141,976	-0,091	0,006
-275,657	-200,000	-0,002	0,031
-274,643	288,534	-0,061	-0,080
-273,628	198,160	-0,075	-0,084
-272,613	-139,589	0,092	-0,007
-271,599	175,233	0,083	-0,087
-270,584	625,019	0,033	0,061
-269,570	800,000	-0,040	-0,101
-268,555	15,520	0,122	-0,070
-267,540	-42,806	-0,010	-0,004
-266,526	-101,864	-0,115	0,020
-265,511	23,347	0,052	0,031
-264,497	-200,000	0,019	0,071
-263,482	-41,398	-0,031	-0,012
-262,467	7,354	-0,034	-0,018
-261,453	-200,000	0,023	0,088
-260,438	800,000	0,061	-0,134
-259,424	74,932	-0,054	-0,041
-258,409	-200,000	-0,003	-0,029
-257,395	800,000	0,023	0,063
-256,380	10,317	0,136	0,075
-255,365	297,058	0,148	0,197
-254,351	-200,000	0,010	-0,092
-253,336	53,538	-0,042	-0,029
-252,322	800,000	-0,034	-0,079
-251,307	281,404	-0,050	-0,066
-250,292	-14,762	0,069	-0,032
-249,278	283,265	0,037	0,048
-248,263	-200,000	0,009	-0,030
-247,249	41,616	-0,046	-0,030
-246,234	800,000	-0,007	-0,023
-245,219	800,000	-0,030	-0,062
-244,205	-200,000	-0,010	-0,083
-243,190	-200,000	0,014	-0,084
-242,176	-94,270	0,052	-0,010
-241,161	-200,000	0,018	0,124
-240,146	800,000	-0,068	0,213
-239,132	48,447	0,073	0,050
-238,117	130,155	0,006	-0,005
-237,103	800,000	0,041	-0,104
-236,088	59,346	-0,088	0,063
-235,073	75,418	0,034	-0,026
-234,059	229,343	0,087	0,103
-233,044	-118,279	0,171	0,022
-232,030	-200,000	-0,008	0,036
-231,015	-200,000	0,004	-0,012
-230,000	94,993	-0,126	-0,104
-228,986	109,837	-0,061	0,053
-227,971	-27,071	-0,142	0,060
-226,957	800,000	0,035	0,106
-225,942	92,006	-0,055	0,045
-224,927	208,070	0,099	-0,113
-223,913	535,094	-0,046	-0,079
-222,898	800,000	0,046	-0,094
-221,884	-0,313	-0,077	0,039
-220,869	-200,000	-0,001	-0,043
-219,855	9,493	0,056	0,031
-218,840	-89,591	0,188	-0,040
-217,825	-200,000	-0,044	-0,144
-216,811	-26,792	0,150	0,063
-215,796	-200,000	-0,015	-0,055
-214,782	-200,000	0,003	-0,014
-213,767	-19,843	0,015	-0,007
-212,752	-153,514	-0,096	0,005
-211,738	-74,640	-0,126	-0,033
-210,723	-200,000	0,006	-0,070
-209,709	-107,974	-0,062	-0,010
-208,694	16,038	-0,119	0,068
-207,679	-200,000	0,016	0,065
-206,665	118,963	-0,102	0,092
-205,650	-120,610	0,105	0,013
-204,636	442,870	-0,078	0,125
-203,621	50,859	0,116	-0,080
-202,606	-200,000	0,006	0,027
-201,592	-68,867	-0,070	-0,019
-200,577	181,504	-0,041	0,043
-199,563	-31,483	0,141	0,057
-198,548	-200,000	0,022	0,108
-197,533	-2,851	0,165	0,083
-196,519	800,000	-0,042	0,122
-195,504	800,000	-0,049	0,113
-194,490	800,000	-0,074	-0,172
-193,475	-200,000	-0,022	-0,098
-192,460	800,000	-0,012	-0,032
-191,446	800,000	0,083	-0,170
-190,431	724,872	-0,051	0,098
-189,417	254,602	-0,036	0,044
-188,402	800,000	-0,009	-0,027
-187,387	604,154	-0,040	0,073
-186,373	525,683	-0,062	0,106
-185,358	800,000	-0,012	-0,035
-184,344	109,282	0,038	-0,033
-183,329	215,757	0,069	0,080
-182,315	-40,257	-0,056	-0,021
-181,300	-200,000	-0,000	-0,076
-180,285	-187,715	-0,090	0,001
-179,271	-86,846	-0,076	-0,017
-178,256	-200,000	-0,003	-0,155
-177,242	74,421	0,109	-0,083
-176,227	-134,991	0,077	0,007
-175,212	-69,826	0,082	0,022
-174,198	6,693	0,041	0,022
-173,183	-107,115	-0,113	-0,018
-172,169	800,000	-0,046	-0,102
-171,154	87,476	0,008	0,006
-170,139	711,842	0,044	0,085
-169,125	-84,749	0,117	-0,026
-168,110	-56,439	-0,110	0,035
-167,096	-69,122	0,149	0,041
-166,081	64,696	-0,047	0,035
-165,066	142,278	-0,120	-0,115
-164,052	325,016	0,068	-0,095
-163,037	-58,581	0,138	-0,043
-162,023	-151,417	0,039	-0,002
-161,008	712,140	0,047	0,090
-159,993	800,000	-0,033	0,088
-158,979	72,498	0,071	-0,054
-157,964	-200,000	-0,001	-0,123
-156,950	-97,060	-0,063	0,012
-155,935	88,960	0,107	0,087
-154,920	6,855	0,086	-0,046
-153,906	118,940	-0,120	0,107
-152,891	39,349	-0,061	0,039
-151,877	57,438	-0,118	-0,083
-150,862	-79,702	-0,057	0,014
-149,847	-44,985	-0,082	0,029
-148,833	408,345	0,041	-0,063
-147,818	-33,520	-0,073	0,029
-146,804	235,001	0,120	0,144
-145,789	731,238	0,050	-0,098
-144,775	-200,000	-0,018	0,132
-143,760	-17,298	0,077	-0,035
-142,745	800,000	-0,033	-0,104
-141,731	13,583	0,152	0,085
-140,716	755,733	-0,048	0,095
-139,702	-70,854	-0,033	0,009
-138,687	-64,961	-0,105	-0,031
-137,672	-200,000	0,004	-0,083
-136,658	-119,366	0,031	0,004
-135,643	-200,000	0,000	0,019
-134,629	-62,261	0,027	0,008
-133,614	68,862	0,113	-0,084
-132,599	70,855	0,038	-0,028
-131,585	264,825	-0,109	0,137
-130,570	68,836	-0,095	-0,070
-129,556	-1,657	0,091	-0,046
-128,541	386,899	-0,068	-0,101
-127,526	-94,411	-0,107	-0,021
-126,512	-200,000	0,002	-0,084
-125,497	800,000	0,111	0,243
-124,483	-200,000	0,023	0,079
-123,468	-200,000	-0,004	-0,031
-122,453	-200,000	-0,017	-0,098
-121,439	-162,156	-0,078	0,003
-120,424	-200,000	0,006	0,114
-119,410	43,402	0,095	-0,063
-118,395	174,756	0,053	-0,055
-117,380	-200,000	0,005	0,036
-116,366	47,672	-0,104	0,070
-115,351	-10,953	-0,036	-0,017
-114,337	-200,000	0,031	0,116
-113,322	-200,000	-0,010	0,063
-112,307	-200,000	-0,013	0,053
-111,293	-88,890	0,092	-0,019
-110,278	107,207	0,095	0,082
-109,264	9,390	-0,159	0,086
-108,249	800,000	-0,046	-0,126
-107,234	-200,000	0,029	-0,251
-106,220	123,660	-0,079	-0,072
-105,205	246,355	0,078	0,095
-104,191	800,000	-0,014	0,039
-103,176	73,095	0,155	0,117
-102,162	52,510	-0,120	-0,083
-101,147	229,051	-0,065	0,077
-100,132	-200,000	-0,032	-0,147
-99,118	271,011	-0,077	0,098
-98,103	423,813	-0,020	0,032
-97,089	-64,946	0,216	0,063
-96,074	113,888	-0,121	-0,106
-95,059	-200,000	-0,003	0,116
-94,045	-84,865	-0,146	-0,033
-93,030	800,000	-0,069	-0,183
-92,016	-0,394	-0,046	-0,024
-91,001	-13,242	-0,117	0,054
-89,986	454,917	0,087	0,139
-88,972	-2,985	0,048	0,024
-87,957	-200,000	-0,024	0,100
-86,943	-101,645	-0,055	0,010
-85,928	137,485	-0,185	-0,175
-84,913	-200,000	0,019	0,113
-83,899	800,000	-0,032	0,066
-82,884	-19,221	0,059	-0,026
-81,870	800,000	0,042	0,109
-80,855	-68,689	0,141	0,039
-79,840	-200,000	-0,005	0,018
-78,826	-25,012	-0,072	0,031
-77,811	-77,754	-0,083	-0,021
-76,797	-32,005	0,118	-0,047
-75,782	-200,000	-0,093	-0,000
-74,767	-19,358	0,067	-0,030
-73,753	800,000	-0,011	0,023
-72,738	415,299	0,038	-0,058
-71,724	800,000	0,010	-0,026
-70,709	800,000	0,022	-0,047
-69,694	62,805	0,070	0,051
-68,680	-143,534	0,150	-0,010
-67,665	-110,264	0,102	0,015
-66,651	-77,985	0,028	0,007
-65,636	176,939	-0,033	0,035
-64,622	44,036	-0,179	-0,118
-63,607	278,369	-0,021	-0,027
-62,592	-20,993	0,142	0,062
-61,578	-2,168	0,092	-0,047
-60,563	55,412	0,070	-0,049
-59,549	800,000	-0,065	0,180
-58,534	-34,188	-1,787	-0,705
-57,519	800,000	-0,487	-1,210
-56,505	-200,000	-1,067	-4,897
-55,490	-88,185	0,675	0,145
-54,476	800,000	4,863	11,614
-53,461	-200,000	15,934	279,020
-52,446	-200,000	702,061	2259,349
-51,432	577,548	1617,451	2864,730
-50,417	123,359	1620,835	1465,740
-49,403	84,772	1281,610	1011,839
-48,388	37,326	1025,337	654,097
-47,373	21,746	987,238	578,480
-46,359	20,577	976,145	568,117
-45,344	18,806	971,689	559,702
-44,330	18,897	970,500	559,292
-43,315	18,648	968,813	557,486
-42,300	18,546	967,773	556,530
-41,286	18,571	966,814	556,038
-40,271	18,535	965,912	555,382
-39,257	18,579	964,981	554,968
-38,242	18,627	964,111	554,601
-37,227	18,564	963,470	554,005
-36,213	18,551	962,490	553,377
-35,198	18,555	961,655	552,888
-34,184	18,593	960,901	552,556
-33,169	18,516	960,103	551,827
-32,154	18,576	959,179	551,468
-31,140	18,563	958,406	550,957
-30,125	18,571	957,658	550,533
-29,111	18,521	956,843	549,880
-28,096	18,546	956,342	549,653
-27,082	18,552	955,371	549,090
-26,067	18,561	954,388	548,534
-25,052	18,578	953,692	548,167
-24,038	18,551	953,089	547,711
-23,023	18,538	952,534	547,330
-22,009	18,551	951,739	546,891
-20,994	18,602	951,126	546,683
-19,979	18,529	950,828	546,256
-18,965	18,621	949,914	546,004
-17,950	18,541	949,357	545,404
-16,936	18,482	948,884	544,923
-15,921	18,487	948,127	544,482
-14,906	18,459	947,466	543,993
-13,892	18,417	946,832	543,473
-12,877	18,402	946,284	543,088
-11,863	18,361	945,521	542,499
-10,848	18,425	944,977	542,367
-9,833	18,537	944,353	542,344
-8,819	18,598	943,606	542,088
-7,804	18,437	943,184	541,313
-6,790	18,429	942,532	540,893
-5,775	18,479	941,999	540,722
-4,760	18,463	941,243	540,216
-3,746	18,432	940,798	539,842
-2,731	18,369	939,929	539,122
-1,717	18,185	939,514	538,281
-0,702	18,260	938,648	537,999
0,313	18,030	938,176	537,813
1,327	20,581	935,743	544,416
2,342	27,893	809,503	490,775
3,356	22,313	511,901	300,753
4,371	-0,218	381,521	194,954
5,386	-2,812	365,017	183,259
6,400	-3,699	358,746	179,004
7,415	-4,486	355,946	176,629
8,429	-4,949	354,422	175,295
9,444	-4,887	353,418	174,857
10,459	-4,974	352,675	174,369
11,473	-5,104	352,089	173,906
12,488	-4,859	351,623	173,956
13,502	-5,016	350,869	173,378
14,517	-5,288	350,538	172,872
15,531	-5,482	349,733	172,228
16,546	-5,626	349,192	171,773
17,561	-5,617	348,848	171,599
18,575	-5,649	348,408	171,330
19,590	-5,705	347,994	171,043
20,604	-5,644	347,697	170,956
21,619	-5,776	347,299	170,587
22,634	-5,729	347,061	170,511
23,648	-5,837	346,456	170,070
24,663	-5,717	346,253	170,097
25,677	-5,764	345,968	169,887
26,692	-5,671	345,467	169,736
27,707	-5,661	345,186	169,595
28,721	-5,741	344,876	169,333
29,736	-5,713	344,614	169,222
30,750	-5,767	344,302	168,990
31,765	-5,866	344,102	168,760
32,780	-5,925	343,682	168,469
33,794	-5,634	343,402	168,660
34,809	-5,708	343,080	168,399
35,823	-5,705	342,765	168,233
36,838	-5,811	342,463	167,946
37,853	-5,882	342,192	167,715
38,867	-5,853	341,909	167,595
39,882	-5,790	341,646	167,524
40,896	-5,816	341,512	167,414
41,911	-5,757	341,112	167,271
42,926	-5,820	340,667	166,965
43,940	-5,997	340,568	166,696
44,955	-5,910	340,269	166,635
45,969	-5,847	339,852	166,490
46,984	-6,220	339,738	165,985
47,999	-6,324	339,382	165,675
49,013	-6,276	338,896	165,480
50,028	-6,404	338,668	165,205
51,042	-6,447	338,406	165,013
52,057	-6,442	338,194	164,901
53,071	-6,369	337,839	164,797
54,086	-6,387	337,742	164,714
55,101	-6,328	337,591	164,694
56,115	-6,225	337,314	164,663
57,130	-5,751	337,203	165,141
58,144	-5,560	336,902	165,199
59,159	-5,529	336,721	165,130
60,174	-5,461	336,447	165,060
61,188	-5,588	336,016	164,688
62,203	-5,678	335,802	164,465
63,217	-5,518	335,702	164,584
64,232	-5,616	335,425	164,322
65,247	-5,368	335,156	164,460
66,261	-5,375	334,760	164,242
67,276	-6,010	334,500	163,375
68,290	-5,912	334,130	163,292
69,305	-5,816	333,875	163,261
70,320	-5,945	333,685	163,007
71,334	-5,789	333,456	163,058
72,349	-5,504	333,365	163,324
73,363	-5,366	333,155	163,363
74,378	-5,536	332,767	162,965
75,393	-5,593	332,493	162,752
76,407	-5,499	332,132	162,667
77,422	-5,674	331,903	162,343
78,436	-5,579	331,806	162,388
79,451	-5,604	331,529	162,209
80,466	-5,757	331,028	161,777
81,480	-5,869	330,782	161,516
82,495	-5,938	330,501	161,286
83,509	-5,856	330,123	161,181
84,524	-6,026	330,081	160,954
85,539	-6,093	329,565	160,612
86,553	-6,064	329,407	160,554
87,568	-6,084	329,325	160,477
88,582	-5,995	329,163	160,484
89,597	-5,855	328,760	160,430
90,611	-5,738	328,672	160,504
91,626	-5,815	328,503	160,320
92,641	-5,728	328,225	160,268
93,655	-5,901	328,011	159,955
94,670	-5,796	327,579	159,848
95,684	-5,785	327,391	159,754
96,699	-5,766	327,112	159,625
97,714	-5,828	326,865	159,421
98,728	-6,084	326,623	159,004
99,743	-5,967	326,337	158,980
100,757	-5,970	326,017	158,807
101,772	-6,023	325,962	158,708
102,787	-6,001	325,697	158,588
103,801	-5,942	325,468	158,528
104,816	-5,817	325,231	158,538
105,830	-5,772	325,191	158,554
106,845	-5,636	324,826	158,512
107,860	-5,659	324,736	158,428
108,874	-5,613	324,287	158,246
109,889	-5,755	324,090	157,979
110,903	-5,572	323,852	158,050
111,918	-5,657	323,668	157,853
112,933	-5,850	323,650	157,618
113,947	-5,668	323,204	157,587
114,962	-5,759	323,152	157,447
115,976	-5,665	322,867	157,398
116,991	-5,703	322,586	157,205
118,006	-5,802	322,415	156,999
119,020	-5,528	322,058	157,112
120,035	-5,576	322,096	157,064
121,049	-5,632	321,959	156,920
122,064	-5,637	321,598	156,725
123,079	-5,720	321,324	156,487
124,093	-5,626	320,923	156,381
125,108	-5,949	320,791	155,951
126,122	-6,121	320,434	155,575
127,137	-6,172	320,066	155,328
128,151	-6,209	320,080	155,280
129,166	-5,824	319,708	155,504
130,181	-5,922	319,365	155,217
131,195	-6,024	319,348	155,085
132,210	-5,847	319,119	155,151
133,224	-5,803	319,177	155,213
134,239	-5,670	318,794	155,157
135,254	-5,592	318,559	155,113
136,268	-5,573	318,130	154,911
137,283	-5,928	317,873	154,389
138,297	-5,981	317,486	154,131
139,312	-6,023	317,262	153,963
140,327	-5,849	317,349	154,179
141,341	-5,328	317,217	154,662
142,356	-5,184	316,998	154,695
143,370	-5,312	317,054	154,571
144,385	-5,358	316,698	154,335
145,400	-5,436	316,423	154,104
146,414	-5,345	316,128	154,043
147,429	-5,461	315,962	153,824
148,443	-5,385	315,715	153,771
149,458	-5,325	315,480	153,708
150,473	-5,221	315,290	153,713
151,487	-5,316	315,042	153,477
152,502	-5,316	314,787	153,339
153,516	-5,354	314,573	153,180
154,531	-5,446	314,444	153,006
155,546	-5,376	314,107	152,903
156,560	-5,439	313,922	152,732
157,575	-5,468	313,715	152,587
158,589	-5,412	313,519	152,537
159,604	-5,294	313,293	152,540
160,619	-5,259	313,078	152,458
161,633	-5,448	312,874	152,145
162,648	-5,306	312,662	152,179
163,662	-5,330	312,373	151,999
164,677	-5,285	312,196	151,947
165,692	-5,383	312,049	151,758
166,706	-5,319	311,964	151,771
167,721	-5,334	311,626	151,578
168,735	-5,328	311,468	151,493
169,750	-5,214	311,327	151,531
170,764	-5,176	311,271	151,530
171,779	-5,172	310,912	151,346
172,794	-5,067	310,666	151,323
173,808	-5,329	310,355	150,883
174,823	-5,705	310,100	150,351
175,837	-5,894	309,795	149,992
176,852	-5,522	309,799	150,371
177,867	-5,235	309,664	150,592
178,881	-5,241	309,452	150,469
179,896	-5,189	309,208	150,391
180,910	-5,156	309,039	150,330
181,925	-5,059	308,749	150,278
182,940	-5,182	308,589	150,058
183,954	-5,102	308,433	150,052
184,969	-5,209	308,182	149,805
185,983	-5,237	308,113	149,729
186,998	-4,998	307,737	149,782
188,013	-5,208	307,675	149,519
189,027	-4,985	307,322	149,566
190,042	-5,022	307,228	149,468
191,056	-4,901	307,216	149,576
192,071	-4,859	306,682	149,345
193,086	-4,856	306,537	149,265
194,100	-4,960	306,461	149,107
195,115	-4,931	306,004	148,900
196,129	-5,163	306,008	148,649
197,144	-5,065	305,647	148,563
198,159	-5,003	305,458	148,520
199,173	-5,040	305,353	148,419
200,188	-4,994	305,182	148,369
201,202	-5,145	304,836	148,033
202,217	-5,621	304,292	147,267
203,232	-5,649	304,110	147,136
204,246	-5,504	304,034	147,236
205,261	-5,255	303,896	147,410
206,275	-5,107	303,840	147,522
207,290	-5,076	303,591	147,420
208,304	-5,213	303,453	147,200
209,319	-4,964	303,179	147,308
210,334	-5,019	302,974	147,140
211,348	-5,131	302,818	146,936
212,363	-4,926	302,576	147,015
213,377	-5,112	302,401	146,726
214,392	-5,015	302,259	146,744
215,407	-5,398	301,859	146,147
216,421	-5,436	301,665	146,001
217,436	-5,480	301,469	145,848
218,450	-5,440	301,275	145,782
219,465	-5,237	301,063	145,873
220,480	-5,234	300,971	145,818
221,494	-5,148	300,723	145,772
222,509	-5,296	300,634	145,566
223,523	-5,155	300,375	145,570
224,538	-5,013	300,275	145,653
225,553	-5,031	300,092	145,532
226,567	-5,053	299,947	145,427
227,582	-4,952	299,599	145,347
228,596	-4,924	299,636	145,380
229,611	-4,862	299,340	145,286
230,626	-4,997	299,079	145,011
231,640	-5,385	298,657	144,404
232,655	-5,737	298,374	143,900
233,669	-5,926	298,192	143,610
234,684	-5,709	297,920	143,684
235,699	-5,648	297,893	143,719
236,713	-5,499	297,847	143,833
237,728	-5,371	297,567	143,813
238,742	-5,417	297,458	143,701
239,757	-5,127	297,232	143,870
240,772	-5,177	297,060	143,723
241,786	-5,157	296,769	143,590
242,801	-5,345	296,686	143,349
243,815	-5,394	296,449	143,174
244,830	-5,248	296,264	143,217
245,844	-5,472	295,988	142,848
246,859	-5,307	295,936	142,973
247,874	-5,392	295,769	142,795
248,888	-5,298	295,555	142,773
249,903	-5,001	295,350	142,956
250,917	-4,954	295,229	142,932
251,932	-4,735	295,189	143,117
252,947	-3,884	295,336	144,019
253,961	-3,937	295,117	143,847
254,976	-2,803	295,634	145,211
255,990	-1,172	295,796	146,896
257,005	-1,562	295,754	146,475
258,020	0,387	296,444	148,739
259,034	1,187	296,357	149,475
260,049	1,073	296,181	149,260
261,063	0,990	295,999	149,072
262,078	1,235	295,835	149,219
263,093	1,878	295,961	149,906
264,107	1,906	295,862	149,869
265,122	2,086	295,683	149,944
266,136	2,100	295,550	149,876
267,151	1,847	295,199	149,435
268,166	1,697	295,013	149,181
269,180	1,885	294,770	149,230
270,195	1,816	294,569	149,046
271,209	1,917	294,440	149,068
272,224	1,690	294,271	148,745
273,239	1,585	294,028	148,507
274,253	1,748	293,768	148,522
275,268	2,028	293,734	148,766
276,282	2,022	293,526	148,641
277,297	1,628	293,228	148,091
278,312	1,710	293,111	148,100
279,326	1,848	293,019	148,175
280,341	2,060	292,853	148,284
281,355	2,097	292,505	148,131
282,370	2,034	292,151	147,878
283,384	2,051	292,122	147,867
284,399	1,938	291,942	147,652
285,414	1,914	291,940	147,614
286,428	1,942	291,657	147,485
287,443	1,721	291,535	147,195
288,457	1,976	291,112	147,216
289,472	1,710	290,898	146,837
290,487	1,718	290,836	146,800
291,501	1,818	290,376	146,651
292,516	1,405	290,396	146,249
293,530	1,372	290,216	146,113
294,545	1,619	289,993	146,227
295,560	1,855	289,855	146,372
296,574	1,785	289,648	146,187
297,589	1,717	289,601	146,084
298,603	1,998	289,496	146,289
299,618	2,051	289,242	146,199
300,633	1,856	289,021	145,886
301,647	2,015	288,777	145,903
302,662	1,926	288,620	145,726
303,676	1,702	288,319	145,346
304,691	1,407	288,084	144,931
305,706	1,161	287,695	144,487
306,720	1,143	287,557	144,387
307,735	1,086	287,385	144,233
308,749	1,325	287,391	144,453
309,764	1,390	287,171	144,391
310,779	1,257	286,919	144,124
311,793	1,096	286,675	143,835
312,808	1,222	286,334	143,772
313,822	1,214	286,272	143,719
314,837	1,029	286,233	143,512
315,852	1,064	285,866	143,348
316,866	1,063	285,702	143,251
317,881	1,233	285,639	143,369
318,895	1,273	285,405	143,276
319,910	0,946	285,260	142,881
320,925	1,075	284,978	142,850
321,939	1,183	284,885	142,892
322,954	1,184	284,684	142,780
323,968	1,320	284,684	142,896
324,983	1,221	284,439	142,666
325,997	1,317	284,262	142,656
327,012	1,474	283,935	142,627
328,027	1,283	283,792	142,362
329,041	1,053	283,718	142,095
330,056	1,426	283,377	142,264
331,070	1,254	283,159	141,979
332,085	1,279	283,049	141,935
333,100	1,442	282,798	141,949
334,114	1,305	282,693	141,756
335,129	1,140	282,409	141,446
336,143	1,337	282,358	141,592
337,158	1,601	282,319	141,808
338,173	1,467	282,225	141,622
339,187	1,310	281,828	141,263
340,202	1,358	281,625	141,194
341,216	1,488	281,537	141,259
342,231	1,504	281,338	141,161
343,246	1,325	281,238	140,932
344,260	1,274	280,926	140,715
345,275	1,592	280,811	140,941
346,289	1,877	280,743	141,160
347,304	1,747	280,524	140,916
348,319	1,579	280,326	140,648
349,333	1,522	280,019	140,428
350,348	1,573	280,133	140,520
351,362	1,745	279,832	140,516
352,377	1,743	279,732	140,452
353,392	1,988	279,378	140,488
354,406	1,794	279,410	140,312
355,421	192,376	1326,939	1401,122
356,435	155,692	1454,592	1401,166
