DTS Sentinel unit serial number:	SN410029Multiplexer serial number:	ORYXHardware model number:	OX2-SRSoftware version number:	ORYX F/W v4,00 Oryx Data Collector v3.7.2.0data status	okinstallation	B4 Nyhavnadifferential loss correction	single-endedforward channel	channel 2reverse channel	N/Adate	2023/12/15time	23:15:13forward acquisition time	300,00reverse acquisition time	0,00gamma	499,1914k internal	0,3129k external	0,3129temperature offset calibration	1,0000default loss term (dB/km)	0,3820temperature slope calibration	1,0000multiplexer offset coefficient	1,0000multiplexer slope coefficient	1,0000fibre end	0,00T internal ref (°C)	21,63T ext. ref 1 (°C)	6,71T ext. ref 2 (°C)	6,86length (m)	temperature (°C)	Stokes	anti-Stokes-744,400	-94,767	-0,095	-0,019
-743,385	-84,648	-0,189	0,044
-742,371	4,239	0,092	0,050
-741,356	87,572	-0,141	0,116
-740,342	-75,703	0,183	0,048
-739,327	-11,967	-0,313	0,152
-738,312	-132,264	0,041	0,004
-737,298	-99,345	-0,261	0,049
-736,283	-93,646	0,157	0,032
-735,269	536,827	-0,138	0,245
-734,254	-127,956	0,093	-0,010
-733,239	-70,866	-0,448	-0,125
-732,225	249,843	-0,091	0,114
-731,210	-62,357	-0,088	0,027
-730,196	499,378	-0,030	0,052
-729,181	-63,299	-0,044	0,013
-728,167	-5,607	0,053	-0,027
-727,152	-18,619	0,049	0,022
-726,137	360,104	-0,121	-0,180
-725,123	800,000	0,037	0,086
-724,108	-200,000	0,007	0,040
-723,094	-141,650	-0,035	0,003
-722,079	65,581	-0,080	-0,060
-721,064	-66,530	0,096	0,028
-720,050	101,551	-0,071	0,062
-719,035	221,341	-0,073	-0,087
-718,021	187,638	-0,105	-0,117
-717,006	-102,552	0,084	-0,015
-715,991	94,100	-0,106	-0,089
-714,977	654,160	-0,031	-0,059
-713,962	351,627	-0,021	0,031
-712,948	129,598	-0,122	0,116
-711,933	-7,027	0,113	0,057
-710,918	-200,000	-0,008	0,037
-709,904	800,000	-0,074	-0,212
-708,889	-200,000	0,027	-0,100
-707,875	476,571	0,026	-0,043
-706,860	84,770	0,114	0,093
-705,845	558,183	0,023	0,041
-704,831	84,048	0,040	-0,032
-703,816	536,035	0,036	-0,064
-702,802	-156,774	-0,023	0,001
-701,787	120,074	0,043	0,039
-700,772	-200,000	0,007	-0,061
-699,758	-44,822	0,074	0,027
-698,743	74,982	0,047	0,037
-697,729	164,009	0,103	-0,108
-696,714	-116,293	0,057	-0,008
-695,699	-200,000	0,005	0,020
-694,685	243,242	-0,063	-0,079
-693,670	-146,282	-0,062	0,004
-692,656	189,263	0,044	-0,049
-691,641	133,427	-0,092	-0,089
-690,627	31,747	-0,019	-0,012
-689,612	-200,000	-0,001	-0,041
-688,597	-141,731	0,049	-0,004
-687,583	-72,783	-0,097	0,026
-686,568	-200,000	-0,013	0,103
-685,554	91,193	-0,072	-0,060
-684,539	138,057	0,028	0,028
-683,524	-87,687	-0,135	0,030
-682,510	-200,000	-0,015	0,198
-681,495	-186,873	-0,104	0,001
-680,481	800,000	-0,036	0,098
-679,466	800,000	-0,072	-0,195
-678,451	469,760	-0,030	-0,050
-677,437	-115,092	0,234	0,033
-676,422	-200,000	0,011	0,066
-675,408	-200,000	0,022	-0,073
-674,393	218,397	0,084	-0,100
-673,378	58,436	-0,166	-0,120
-672,364	-200,000	-0,022	-0,098
-671,349	800,000	0,008	0,017
-670,335	800,000	0,008	-0,017
-669,320	308,016	0,073	0,101
-668,305	16,879	0,060	0,035
-667,291	-110,441	0,052	0,008
-666,276	-59,522	-0,116	0,037
-665,262	-200,000	0,020	-0,112
-664,247	4,159	-0,063	0,034
-663,232	325,638	-0,085	0,122
-662,218	129,525	-0,048	-0,045
-661,203	58,245	-0,059	0,043
-660,189	302,036	0,038	-0,052
-659,174	-18,734	-0,047	-0,022
-658,159	-20,188	-0,108	-0,049
-657,145	-130,036	0,131	-0,013
-656,130	-54,868	0,074	0,024
-655,116	800,000	-0,030	0,063
-654,101	45,009	-0,044	0,030
-653,086	236,850	-0,045	-0,055
-652,072	77,700	-0,054	-0,042
-651,057	-200,000	0,007	-0,051
-650,043	-200,000	-0,025	-0,161
-649,028	-57,642	-0,134	-0,043
-648,014	-179,404	0,093	0,001
-646,999	-200,000	0,003	0,062
-645,984	-45,685	-0,145	0,053
-644,970	189,659	0,089	-0,099
-643,955	800,000	-0,010	-0,030
-642,941	-106,809	-0,057	-0,009
-641,926	-84,936	0,058	-0,013
-640,911	800,000	-0,107	-0,248
-639,897	86,275	-0,086	-0,070
-638,882	-65,729	0,179	0,053
-637,868	364,181	-0,043	-0,064
-636,853	-200,000	0,003	-0,127
-635,838	-200,000	-0,002	0,010
-634,824	7,555	-0,068	0,038
-633,809	679,780	0,010	-0,020
-632,795	-3,338	-0,042	0,022
-631,780	-53,272	0,206	0,069
-630,765	-77,256	-0,056	-0,014
-629,751	139,284	-0,028	0,028
-628,736	-132,941	-0,144	-0,013
-627,722	800,000	0,017	0,054
-626,707	-67,637	0,072	0,021
-625,692	800,000	0,027	0,071
-624,678	94,996	0,089	0,075
-623,663	-147,611	-0,065	0,004
-622,649	-200,000	-0,014	0,100
-621,634	20,297	-0,108	-0,064
-620,619	-200,000	0,013	-0,080
-619,605	264,307	-0,031	0,040
-618,590	72,802	0,051	0,039
-617,576	-23,110	0,022	-0,010
-616,561	153,977	-0,078	0,079
-615,546	-41,783	-0,117	0,044
-614,532	-200,000	-0,013	-0,061
-613,517	54,213	-0,058	-0,041
-612,503	-79,181	0,034	0,008
-611,488	47,020	0,081	0,056
-610,474	-60,688	-0,142	-0,044
-609,459	-200,000	-0,023	0,150
-608,444	-200,000	0,000	0,044
-607,430	74,647	-0,089	-0,069
-606,415	159,276	-0,045	0,046
-605,401	-200,000	-0,019	0,158
-604,386	132,007	0,055	0,052
-603,371	-25,222	0,087	-0,038
-602,357	-170,169	0,100	0,003
-601,342	147,816	-0,101	-0,101
-600,328	350,590	-0,056	-0,083
-599,313	14,931	-0,049	-0,028
-598,298	97,273	0,057	-0,048
-597,284	-40,347	0,107	0,041
-596,269	-94,197	0,091	-0,018
-595,255	128,894	-0,068	0,064
-594,240	-200,000	-0,007	-0,105
-593,225	800,000	-0,041	0,092
-592,211	169,639	0,031	-0,033
-591,196	-11,651	-0,137	-0,066
-590,182	127,805	-0,062	0,059
-589,167	119,992	0,119	-0,109
-588,152	115,474	0,046	0,042
-587,138	-131,260	0,098	0,009
-586,123	733,969	-0,031	-0,062
-585,109	-200,000	0,087	0,000
-584,094	-141,649	-0,079	-0,006
-583,079	-200,000	0,057	0,284
-582,065	230,606	-0,073	0,089
-581,050	-200,000	-0,003	-0,058
-580,036	750,628	-0,018	-0,036
-579,021	777,126	0,015	-0,030
-578,006	-115,464	0,098	0,013
-576,992	-200,000	0,007	-0,092
-575,977	-145,848	0,107	-0,007
-574,963	31,909	-0,050	-0,032
-573,948	481,006	-0,044	-0,075
-572,934	-91,701	-0,050	-0,010
-571,919	-200,000	-0,006	-0,154
-570,904	-81,268	-0,054	-0,013
-569,890	-200,000	-0,011	-0,155
-568,875	800,000	0,025	-0,068
-567,861	13,505	-0,094	-0,054
-566,846	-91,588	0,127	-0,026
-565,831	220,247	-0,048	0,057
-564,817	800,000	-0,023	-0,073
-563,802	218,559	-0,122	-0,145
-562,788	17,673	0,091	-0,053
-561,773	302,931	-0,045	-0,061
-560,758	-105,853	0,050	0,008
-559,744	293,478	-0,085	-0,115
-558,729	218,387	-0,047	0,056
-557,715	270,618	-0,041	0,053
-556,700	800,000	0,021	-0,047
-555,685	31,746	0,108	0,069
-554,671	800,000	-0,050	-0,129
-553,656	105,063	-0,023	-0,020
-552,642	-200,000	0,001	0,100
-551,627	-44,690	-0,033	0,012
-550,612	214,404	-0,128	-0,150
-549,598	-129,350	0,029	-0,003
-548,583	126,676	-0,133	-0,125
-547,569	38,252	-0,026	-0,017
-546,554	-68,732	0,093	-0,026
-545,539	-200,000	-0,116	0,000
-544,525	159,211	-0,081	0,083
-543,510	-200,000	-0,011	-0,082
-542,496	-200,000	-0,046	-0,206
-541,481	4,739	-0,111	-0,060
-540,466	247,377	0,073	0,092
-539,452	-200,000	-0,002	0,263
-538,437	-109,441	0,067	-0,010
-537,423	-80,612	0,128	-0,031
-536,408	800,000	-0,020	-0,064
-535,393	584,672	-0,073	-0,133
-534,379	639,704	-0,065	0,123
-533,364	-200,000	-0,016	-0,061
-532,350	399,405	0,098	0,152
-531,335	97,714	-0,061	0,052
-530,321	-200,000	0,028	0,123
-529,306	800,000	0,026	-0,069
-528,291	800,000	-0,028	-0,081
-527,277	67,413	-0,177	-0,133
-526,262	243,835	-0,082	-0,102
-525,248	-194,102	0,086	0,001
-524,233	800,000	0,007	-0,016
-523,218	-200,000	0,003	-0,026
-522,204	-119,944	0,052	-0,007
-521,189	69,853	-0,077	0,059
-520,175	42,670	-0,034	-0,023
-519,160	29,786	-0,065	-0,041
-518,145	55,584	0,045	-0,032
-517,131	-200,000	-0,031	0,146
-516,116	512,070	0,027	-0,046
-515,102	800,000	0,052	-0,153
-514,087	294,573	0,069	0,093
-513,072	-135,254	-0,086	0,008
-512,058	800,000	0,031	-0,074
-511,043	-92,544	-0,043	-0,009
-510,029	-200,000	-0,000	0,019
-509,014	343,145	0,073	0,106
-507,999	305,335	0,062	0,085
-506,985	70,506	-0,153	0,117
-505,970	-200,000	0,018	-0,074
-504,956	196,882	-0,085	-0,095
-503,941	-200,000	0,135	-0,000
-502,926	-47,075	0,092	-0,033
-501,912	800,000	-0,033	0,084
-500,897	76,440	0,162	0,126
-499,883	-97,965	-0,147	-0,028
-498,868	800,000	0,030	-0,078
-497,853	-112,576	0,045	0,007
-496,839	-200,000	0,021	-0,092
-495,824	274,441	0,040	-0,052
-494,810	-200,000	0,044	0,185
-493,795	-200,000	-0,046	0,160
-492,781	-74,191	-0,026	-0,007
-491,766	753,086	-0,094	-0,188
-490,751	335,871	0,058	-0,082
-489,737	-120,252	0,039	-0,005
-488,722	-26,884	-0,136	-0,058
-487,708	-38,588	0,092	0,036
-486,693	255,374	-0,060	0,076
-485,678	512,843	0,071	0,123
-484,664	221,255	-0,064	0,076
-483,649	381,209	0,022	-0,033
-482,635	278,089	0,034	0,045
-481,620	-4,027	-0,099	0,051
-480,605	29,050	0,151	0,094
-479,591	800,000	0,035	-0,112
-478,576	104,432	0,036	-0,031
-477,562	748,928	-0,026	-0,051
-476,547	29,599	-0,041	0,026
-475,532	6,501	0,102	-0,056
-474,518	80,828	0,144	0,114
-473,503	343,822	0,084	0,121
-472,489	596,470	-0,055	-0,101
-471,474	397,296	-0,033	0,051
-470,459	-200,000	-0,001	-0,007
-469,445	-192,365	-0,075	0,001
-468,430	800,000	0,017	-0,044
-467,416	229,998	-0,022	-0,026
-466,401	-12,398	0,108	-0,052
-465,386	143,034	-0,029	0,028
-464,372	67,770	-0,048	-0,036
-463,357	18,591	-0,078	-0,046
-462,343	-84,972	0,107	0,025
-461,328	42,334	-0,092	-0,061
-460,313	-200,000	0,029	-0,100
-459,299	194,509	-0,036	-0,040
-458,284	-200,000	-0,013	0,053
-457,270	524,647	-0,082	0,142
-456,255	33,871	-0,122	-0,078
-455,241	-200,000	-0,002	-0,131
-454,226	73,025	0,056	-0,043
-453,211	248,258	-0,039	0,049
-452,197	-200,000	0,007	0,025
-451,182	800,000	0,015	0,045
-450,168	-154,677	-0,098	0,005
-449,153	-56,661	0,144	0,046
-448,138	225,227	-0,090	-0,108
-447,124	15,737	-0,019	0,011
-446,109	-200,000	0,012	-0,263
-445,095	96,041	0,084	-0,070
-444,080	64,666	-0,079	0,058
-443,065	-9,250	-0,125	0,061
-442,051	-165,856	0,168	-0,005
-441,036	143,263	0,038	-0,037
-440,022	-91,475	-0,087	-0,018
-439,007	148,626	-0,081	0,080
-437,992	-64,334	-0,022	-0,007
-436,978	-16,564	0,060	0,028
-435,963	-57,796	-0,035	-0,011
-434,949	-200,000	-0,008	-0,047
-433,934	210,256	-0,027	0,032
-432,919	41,937	0,075	0,050
-431,905	-165,729	0,140	-0,004
-430,890	-200,000	0,003	0,127
-429,876	800,000	0,044	0,111
-428,861	-150,313	-0,123	0,007
-427,846	97,950	0,031	0,027
-426,832	-142,033	-0,051	-0,004
-425,817	-5,933	0,154	0,077
-424,803	-200,000	-0,015	-0,076
-423,788	800,000	0,049	0,152
-422,773	-8,263	0,166	0,082
-421,759	35,856	0,159	0,102
-420,744	-179,306	-0,168	0,003
-419,730	400,453	0,081	-0,125
-418,715	-67,308	-0,079	0,023
-417,701	-96,491	-0,088	-0,017
-416,686	559,291	0,050	0,090
-415,671	-96,208	0,087	-0,017
-414,657	800,000	-0,054	0,111
-413,642	-200,000	0,020	0,082
-412,628	-200,000	0,012	0,061
-411,613	800,000	-0,050	-0,106
-410,598	165,760	-0,087	-0,091
-409,584	800,000	0,035	-0,076
-408,569	302,859	0,070	0,095
-407,555	83,718	0,106	-0,085
-406,540	351,630	-0,041	-0,060
-405,525	110,108	0,034	-0,030
-404,511	800,000	-0,034	0,084
-403,496	-17,663	0,139	0,064
-402,482	-15,013	-0,111	-0,052
-401,467	800,000	0,038	0,085
-400,452	-174,941	0,052	0,001
-399,438	724,197	-0,028	-0,056
-398,423	366,491	-0,079	-0,118
-397,409	-200,000	-0,009	-0,042
-396,394	-200,000	-0,003	-0,067
-395,379	800,000	0,013	0,038
-394,365	-186,444	-0,193	-0,002
-393,350	475,111	0,041	-0,068
-392,336	-65,423	0,046	-0,014
-391,321	-177,512	0,057	-0,001
-390,306	-200,000	0,013	-0,094
-389,292	-145,631	0,058	0,004
-388,277	-112,881	-0,195	-0,028
-387,263	17,985	0,003	-0,002
-386,248	-168,652	-0,041	-0,001
-385,233	574,059	-0,064	0,115
-384,219	371,158	-0,030	-0,045
-383,204	54,280	-0,059	-0,042
-382,190	-90,528	-0,031	0,007
-381,175	-200,000	-0,017	-0,078
-380,160	192,103	-0,086	0,095
-379,146	800,000	-0,040	0,116
-378,131	331,916	0,058	0,083
-377,117	-154,024	0,028	0,001
-376,102	-22,236	-0,142	-0,063
-375,088	800,000	-0,028	-0,072
-374,073	204,674	-0,030	0,034
-373,058	-121,494	-0,011	-0,001
-372,044	93,990	-0,119	0,099
-371,029	536,793	-0,030	0,052
-370,015	-67,220	-0,026	-0,008
-369,000	-200,000	-0,006	0,113
-367,985	-200,000	-0,018	0,076
-366,971	-200,000	0,021	0,093
-365,956	800,000	0,014	0,030
-364,942	31,842	-0,008	-0,005
-363,927	-44,275	0,036	0,013
-362,912	-145,283	0,131	-0,009
-361,898	65,014	-0,106	-0,079
-360,883	-200,000	-0,002	-0,020
-359,869	800,000	-0,017	-0,038
-358,854	-162,414	-0,156	0,006
-357,839	41,921	0,096	0,063
-356,825	137,833	0,112	0,107
-355,810	-111,545	0,139	-0,020
-354,796	119,106	-0,062	0,056
-353,781	-200,000	-0,031	-0,149
-352,766	15,103	-0,060	-0,034
-351,752	14,287	0,031	-0,018
-350,737	-200,000	0,007	0,075
-349,723	14,607	0,106	0,060
-348,708	-200,000	0,000	-0,007
-347,693	-27,921	-0,054	-0,023
-346,679	494,546	0,133	-0,224
-345,664	800,000	-0,025	-0,054
-344,650	-50,561	-0,064	0,022
-343,635	-150,670	0,018	-0,001
-342,620	-200,000	-0,021	0,112
-341,606	17,850	-0,172	-0,100
-340,591	-61,206	0,120	0,037
-339,577	-115,155	-0,125	0,017
-338,562	-139,347	0,134	-0,010
-337,548	-62,785	0,066	-0,020
-336,533	70,181	-0,167	0,126
-335,518	-68,612	0,124	-0,035
-334,504	84,061	0,061	0,049
-333,489	-123,489	0,037	-0,004
-332,475	-117,015	-0,071	-0,009
-331,460	-200,000	0,004	-0,161
-330,445	-81,912	0,018	-0,004
-329,431	-125,643	-0,087	0,010
-328,416	-117,902	0,031	-0,004
-327,402	124,457	0,068	0,063
-326,387	-28,465	0,071	-0,030
-325,372	86,086	0,032	-0,026
-324,358	800,000	-0,033	-0,078
-323,343	638,523	-0,017	0,032
-322,329	285,548	0,025	-0,034
-321,314	-200,000	0,004	0,078
-320,299	149,940	-0,040	0,039
-319,285	-91,907	0,037	0,008
-318,270	-129,845	0,117	0,012
-317,256	-200,000	0,019	0,064
-316,241	-134,397	-0,128	0,011
-315,226	-146,126	0,137	-0,009
-314,212	218,990	-0,050	0,059
-313,197	227,870	0,052	0,062
-312,183	177,415	0,038	-0,041
-311,168	-60,052	-0,091	0,028
-310,153	800,000	0,043	-0,109
-309,139	-47,021	-0,107	0,038
-308,124	256,520	-0,046	0,058
-307,110	-144,514	0,132	0,009
-306,095	-200,000	0,006	0,021
-305,080	-74,299	0,050	-0,013
-304,066	-153,299	-0,053	0,003
-303,051	-124,257	-0,005	0,001
-302,037	800,000	-0,020	0,043
-301,022	127,097	-0,046	0,042
-300,008	-200,000	0,016	0,067
-298,993	77,233	0,090	0,070
-297,978	384,934	-0,098	0,149
-296,964	-200,000	-0,007	-0,047
-295,949	124,645	-0,039	-0,036
-294,935	-69,659	-0,033	-0,009
-293,920	208,352	-0,013	0,015
-292,905	-172,598	0,171	0,004
-291,891	-58,653	0,085	-0,027
-290,876	-31,437	0,132	0,054
-289,862	163,076	0,043	0,044
-288,847	800,000	-0,051	0,142
-287,832	328,492	0,013	0,019
-286,818	800,000	-0,057	-0,133
-285,803	800,000	0,021	-0,052
-284,789	-94,840	0,024	-0,005
-283,774	28,181	0,045	-0,028
-282,759	13,045	0,124	0,070
-281,745	-15,576	0,061	0,028
-280,730	-168,621	-0,108	-0,003
-279,716	-200,000	-0,019	-0,119
-278,701	-200,000	0,013	-0,151
-277,686	204,944	0,077	0,088
-276,672	94,905	0,003	0,003
-275,657	-147,427	-0,127	0,008
-274,643	51,248	-0,103	-0,072
-273,628	186,983	0,034	-0,037
-272,613	117,773	0,009	0,008
-271,599	-125,122	0,123	-0,014
-270,584	-99,299	0,105	-0,019
-269,570	-200,000	-0,030	0,113
-268,555	-200,000	-0,018	0,167
-267,540	24,969	-0,070	-0,042
-266,526	800,000	-0,044	-0,103
-265,511	63,365	0,045	0,033
-264,497	145,580	-0,084	0,082
-263,482	100,689	0,045	0,038
-262,467	-91,390	0,177	0,037
-261,453	326,525	-0,056	-0,079
-260,438	-21,032	0,063	-0,028
-259,424	-200,000	0,010	-0,184
-258,409	129,837	0,082	-0,077
-257,395	-200,000	0,034	-0,139
-256,380	800,000	0,044	0,090
-255,365	-200,000	-0,018	0,141
-254,351	800,000	0,054	-0,162
-253,336	-100,655	-0,072	-0,013
-252,322	800,000	-0,026	-0,066
-251,307	-89,653	0,053	0,011
-250,292	-77,244	0,087	-0,022
-249,278	-143,982	-0,015	0,001
-248,263	-200,000	0,027	0,183
-247,249	800,000	-0,023	0,064
-246,234	75,481	-0,066	0,051
-245,219	-99,156	-0,106	-0,019
-244,205	-200,000	-0,010	-0,089
-243,190	-100,147	0,177	0,032
-242,176	295,231	-0,035	-0,047
-241,161	-111,155	0,084	0,012
-240,146	55,375	0,112	-0,079
-239,132	-46,061	-0,068	-0,024
-238,117	800,000	-0,037	-0,102
-237,103	74,947	0,049	0,037
-236,088	-14,828	-0,067	0,031
-235,073	137,256	-0,027	0,026
-234,059	800,000	0,046	0,102
-233,044	328,000	-0,167	0,234
-232,030	324,086	-0,053	-0,074
-231,015	800,000	-0,042	-0,125
-230,000	94,338	0,043	-0,035
-228,986	-44,070	0,078	-0,029
-227,971	576,235	-0,042	0,075
-226,957	323,633	0,049	-0,068
-225,942	519,037	0,051	0,088
-224,927	38,095	-0,091	-0,059
-223,913	677,250	-0,045	-0,086
-222,898	800,000	0,074	0,156
-221,884	-200,000	0,035	0,146
-220,869	-114,769	-0,046	0,006
-219,855	-200,000	-0,013	-0,045
-218,840	58,411	0,074	-0,053
-217,825	81,863	0,144	0,113
-216,811	543,435	-0,060	-0,105
-215,796	150,088	-0,026	0,026
-214,782	283,269	0,028	0,037
-213,767	-79,611	0,085	0,021
-212,752	800,000	-0,063	0,181
-211,738	-15,377	0,151	-0,070
-210,723	-200,000	-0,012	0,115
-209,709	-87,685	-0,024	0,005
-208,694	370,312	0,024	-0,035
-207,679	80,999	0,035	-0,027
-206,665	125,557	0,112	-0,103
-205,650	30,377	-0,128	-0,080
-204,636	-200,000	-0,034	0,155
-203,621	800,000	0,021	0,044
-202,606	12,421	-0,073	0,041
-201,592	115,783	-0,106	-0,094
-200,577	74,373	-0,020	0,015
-199,563	-200,000	0,008	0,049
-198,548	-87,387	0,115	0,025
-197,533	25,670	0,089	0,054
-196,519	-200,000	-0,010	0,078
-195,504	175,884	-0,080	-0,085
-194,490	-200,000	-0,008	0,115
-193,475	179,655	-0,080	-0,085
-192,460	-20,175	0,141	-0,063
-191,446	-110,552	0,078	0,012
-190,431	-94,140	0,114	-0,022
-189,417	593,572	-0,033	0,061
-188,402	-28,250	-0,057	-0,024
-187,387	-43,677	0,084	-0,031
-186,373	-148,362	-0,087	0,005
-185,358	414,591	0,032	-0,049
-184,344	133,623	-0,048	0,045
-183,329	-200,000	-0,012	0,044
-182,315	-200,000	0,008	0,127
-181,300	87,345	0,075	-0,060
-180,285	80,584	-0,132	0,103
-179,271	-88,300	0,057	-0,012
-178,256	800,000	-0,033	-0,078
-177,242	-200,000	0,026	0,090
-176,227	-40,103	0,039	0,015
-175,212	-200,000	-0,030	0,099
-174,198	-152,606	0,043	-0,002
-173,183	-57,319	-0,059	-0,019
-172,169	12,074	-0,102	-0,057
-171,154	10,986	-0,035	-0,019
-170,139	115,796	0,049	-0,044
-169,125	-133,219	0,048	-0,004
-168,110	-200,000	-0,032	0,144
-167,096	-182,852	0,124	0,002
-166,081	73,470	0,089	-0,067
-165,066	800,000	-0,013	0,036
-164,052	-127,013	-0,064	0,007
-163,037	-200,000	-0,004	0,064
-162,023	366,511	-0,039	0,057
-161,008	-200,000	0,056	-0,224
-159,993	395,242	0,031	0,047
-158,979	-78,245	-0,038	-0,010
-157,964	-132,602	-0,079	-0,007
-156,950	-200,000	-0,002	0,009
-155,935	38,616	-0,025	-0,016
-154,920	58,131	-0,025	0,017
-153,906	800,000	0,063	-0,132
-152,891	-156,889	0,089	-0,004
-151,877	-200,000	-0,043	0,145
-150,862	-200,000	-0,039	-0,152
-149,847	800,000	-0,014	0,030
-148,833	561,897	-0,077	-0,136
-147,818	34,751	-0,031	-0,019
-146,804	132,379	0,081	0,076
-145,789	-159,172	0,093	0,004
-144,775	358,027	-0,074	0,107
-143,760	-176,971	-0,101	0,002
-142,745	59,170	0,169	-0,121
-141,731	180,695	-0,106	-0,114
-140,716	-200,000	0,001	-0,130
-139,702	800,000	0,031	0,099
-138,687	-118,610	-0,052	0,007
-137,672	33,599	0,081	0,051
-136,658	-20,302	-0,033	-0,015
-135,643	102,382	0,101	-0,086
-134,629	-38,976	0,197	0,075
-133,614	-200,000	0,006	0,050
-132,599	800,000	0,042	0,103
-131,585	-200,000	0,009	0,098
-130,570	800,000	-0,014	0,039
-129,556	-200,000	0,026	0,098
-128,541	800,000	0,029	0,066
-127,526	165,296	0,099	-0,101
-126,512	120,993	0,074	0,067
-125,497	800,000	0,048	0,107
-124,483	28,054	0,124	0,076
-123,468	441,298	-0,029	-0,045
-122,453	228,300	-0,102	0,121
-121,439	289,923	-0,062	0,081
-120,424	712,698	-0,019	-0,038
-119,410	800,000	0,025	0,052
-118,395	-200,000	0,001	0,076
-117,380	145,995	-0,025	-0,024
-116,366	-0,792	0,028	0,015
-115,351	483,061	-0,040	-0,066
-114,337	-200,000	-0,001	-0,106
-113,322	129,266	-0,068	-0,063
-112,307	-147,330	0,010	0,001
-111,293	-103,703	0,034	-0,006
-110,278	282,376	0,065	0,085
-109,264	-100,590	0,078	0,014
-108,249	-200,000	-0,011	0,072
-107,234	800,000	0,009	0,023
-106,220	-137,922	0,094	-0,007
-105,205	-18,099	0,121	0,055
-104,191	243,389	0,078	0,096
-103,176	-145,415	0,023	0,001
-102,162	270,013	0,042	0,054
-101,147	169,943	-0,090	-0,094
-100,132	-200,000	-0,039	-0,170
-99,118	268,833	0,024	0,031
-98,103	29,694	-0,089	-0,055
-97,089	-83,486	0,135	0,031
-96,074	-200,000	-0,003	0,165
-95,059	317,268	0,026	-0,036
-94,045	340,037	0,066	0,094
-93,030	-200,000	-0,046	-0,178
-92,016	384,350	0,058	-0,087
-91,001	-200,000	0,000	0,022
-89,986	-151,183	-0,026	0,001
-88,972	0,558	-0,077	0,040
-87,957	-200,000	-0,033	-0,128
-86,943	-11,079	0,155	0,074
-85,928	361,592	0,020	0,030
-84,913	-28,754	-0,038	0,016
-83,899	-200,000	-0,007	0,047
-82,884	800,000	0,053	-0,107
-81,870	81,953	0,082	-0,065
-80,855	-103,918	-0,136	0,023
-79,840	800,000	-0,032	-0,083
-78,826	-200,000	-0,023	-0,151
-77,811	718,423	-0,043	-0,084
-76,797	615,322	0,030	-0,055
-75,782	-101,958	0,113	0,020
-74,767	525,416	0,019	-0,033
-73,753	-29,211	-0,095	0,039
-72,738	219,139	0,069	-0,080
-71,724	12,929	-0,105	-0,059
-70,709	800,000	0,011	-0,029
-69,694	-51,534	-0,235	-0,079
-68,680	-200,000	-0,033	0,175
-67,665	-98,250	0,180	0,033
-66,651	352,488	0,023	0,034
-65,636	800,000	0,081	-0,165
-64,622	800,000	0,041	-0,091
-63,607	127,843	0,048	0,044
-62,592	106,484	0,088	-0,076
-61,578	70,211	-0,016	-0,012
-60,563	-200,000	-0,001	0,011
-59,549	-35,314	-0,166	0,065
-58,534	-104,001	-1,232	-0,206
-57,519	800,000	-0,746	-1,501
-56,505	-200,000	-0,849	-4,296
-55,490	-135,571	0,636	-0,054
-54,476	800,000	4,858	11,495
-53,461	-200,000	14,015	252,281
-52,446	-200,000	694,389	2232,826
-51,432	576,276	1621,469	2880,134
-50,417	117,029	1629,143	1448,905
-49,403	73,998	1283,416	973,996
-48,388	37,598	1020,643	654,475
-47,373	23,681	979,369	582,426
-46,359	22,927	968,899	573,713
-45,344	21,874	964,411	567,605
-44,330	21,844	963,253	566,804
-43,315	21,667	961,851	565,381
-42,300	21,696	960,628	564,736
-41,286	21,659	959,632	564,006
-40,271	21,713	958,468	563,475
-39,257	21,668	957,632	562,817
-38,242	21,652	956,681	562,184
-37,227	21,648	955,982	561,738
-36,213	21,623	954,959	561,034
-35,198	21,588	954,197	560,451
-34,184	21,667	953,453	560,246
-33,169	21,596	952,573	559,478
-32,154	21,676	951,847	559,285
-31,140	21,648	950,709	558,505
-30,125	21,708	950,164	558,356
-29,111	21,662	949,274	557,665
-28,096	21,710	948,506	557,343
-27,082	21,642	947,982	556,797
-26,067	21,718	947,070	556,483
-25,052	21,685	946,436	555,982
-24,038	21,662	945,769	555,494
-23,023	21,629	945,154	555,005
-22,009	21,736	944,321	554,835
-20,994	21,727	943,662	554,398
-19,979	21,686	943,241	553,998
-18,965	21,692	942,532	553,578
-17,950	21,642	942,050	553,113
-16,936	21,669	941,292	552,733
-15,921	21,616	940,557	552,112
-14,906	21,628	939,616	551,574
-13,892	21,548	939,121	551,009
-12,877	21,506	938,633	550,569
-11,863	21,549	937,979	550,300
-10,848	21,559	937,447	549,995
-9,833	21,657	937,124	550,096
-8,819	21,542	936,599	549,401
-7,804	21,609	935,649	549,035
-6,790	21,511	935,267	548,478
-5,775	21,570	934,379	548,122
-4,760	21,564	933,931	547,820
-3,746	21,531	933,245	547,289
-2,731	21,351	932,629	546,341
-1,717	21,352	931,938	545,919
-0,702	21,342	931,186	545,426
0,313	21,205	930,675	545,520
1,327	23,646	928,237	551,684
2,342	31,205	806,457	499,707
3,356	26,252	508,290	306,493
4,371	2,447	374,148	195,331
5,386	-0,401	357,097	182,920
6,400	-2,170	350,773	177,531
7,415	-2,868	347,939	175,245
8,429	-3,057	346,449	174,254
9,444	-3,218	345,518	173,578
10,459	-3,346	344,885	173,093
11,473	-3,164	344,260	172,979
12,488	-2,827	343,609	173,036
13,502	-2,929	343,133	172,660
14,517	-2,892	342,550	172,395
15,531	-3,442	342,172	171,542
16,546	-3,278	341,685	171,475
17,561	-3,233	341,199	171,269
18,575	-3,244	340,954	171,117
19,590	-3,309	340,386	170,741
20,604	-3,330	340,052	170,535
21,619	-3,300	339,720	170,388
22,634	-3,254	339,329	170,229
23,648	-3,341	338,908	169,901
24,663	-3,334	338,715	169,798
25,677	-3,139	338,287	169,796
26,692	-3,330	338,203	169,516
27,707	-3,288	337,718	169,306
28,721	-3,122	337,294	169,271
29,736	-3,388	337,023	168,812
30,750	-3,288	336,735	168,769
31,765	-3,264	336,504	168,665
32,780	-3,444	336,247	168,314
33,794	-3,393	335,864	168,165
34,809	-3,195	335,563	168,228
35,823	-3,338	335,430	167,982
36,838	-3,326	335,015	167,773
37,853	-3,372	334,694	167,544
38,867	-3,300	334,431	167,480
39,882	-3,366	334,157	167,252
40,896	-3,324	334,016	167,215
41,911	-3,483	333,745	166,882
42,926	-3,364	333,327	166,795
43,940	-3,528	333,024	166,441
44,955	-3,497	332,856	166,377
45,969	-3,456	332,473	166,217
46,984	-3,541	332,319	166,029
47,999	-3,668	331,936	165,679
49,013	-3,776	331,734	165,439
50,028	-3,776	331,573	165,345
51,042	-3,798	331,056	165,047
52,057	-3,905	330,778	164,773
53,071	-3,763	330,559	164,809
54,086	-3,949	330,360	164,485
55,101	-3,722	330,014	164,554
56,115	-3,533	329,923	164,709
57,130	-3,292	329,623	164,817
58,144	-3,148	329,530	164,918
59,159	-3,195	329,121	164,645
60,174	-3,159	329,038	164,629
61,188	-3,187	328,695	164,412
62,203	-3,385	328,570	164,113
63,217	-3,234	328,309	164,137
64,232	-3,219	328,145	164,057
65,247	-3,158	327,886	163,982
66,261	-3,234	327,548	163,713
67,276	-3,339	327,154	163,383
68,290	-3,360	326,878	163,207
69,305	-3,392	326,467	162,952
70,320	-3,503	326,441	162,800
71,334	-3,328	326,183	162,853
72,349	-3,181	326,034	162,928
73,363	-3,219	325,683	162,695
74,378	-3,094	325,396	162,677
75,393	-3,233	325,236	162,427
76,407	-3,375	324,919	162,096
77,422	-3,295	324,722	162,073
78,436	-3,194	324,492	162,056
79,451	-3,286	324,212	161,800
80,466	-3,173	323,785	161,697
81,480	-3,319	323,542	161,400
82,495	-3,694	323,493	160,947
83,509	-3,583	323,165	160,892
84,524	-3,463	322,824	160,840
85,539	-3,521	322,506	160,603
86,553	-3,550	322,403	160,506
87,568	-3,485	322,138	160,431
88,582	-3,509	321,894	160,268
89,597	-3,592	321,782	160,107
90,611	-3,406	321,500	160,158
91,626	-3,250	321,325	160,227
92,641	-3,148	320,906	160,116
93,655	-3,355	320,782	159,813
94,670	-3,538	320,546	159,480
95,684	-3,484	320,335	159,420
96,699	-3,464	320,072	159,297
97,714	-3,367	319,888	159,297
98,728	-3,513	319,597	158,978
99,743	-3,698	319,254	158,592
100,757	-3,653	319,155	158,578
101,772	-3,471	318,906	158,638
102,787	-3,521	318,694	158,465
103,801	-3,446	318,478	158,424
104,816	-3,383	318,180	158,330
105,830	-3,262	318,119	158,417
106,845	-3,297	317,822	158,217
107,860	-3,228	317,545	158,140
108,874	-3,417	317,363	157,830
109,889	-3,431	317,129	157,685
110,903	-3,384	316,905	157,610
111,918	-3,379	316,593	157,446
112,933	-3,442	316,548	157,342
113,947	-3,470	316,315	157,182
114,962	-3,451	316,195	157,128
115,976	-3,412	315,850	156,985
116,991	-3,575	315,687	156,714
118,006	-3,378	315,338	156,739
119,020	-3,303	315,112	156,694
120,035	-3,352	315,020	156,581
121,049	-3,292	314,770	156,508
122,064	-3,303	314,632	156,413
123,079	-3,335	314,305	156,202
124,093	-3,387	314,030	155,996
125,108	-3,409	313,813	155,850
126,122	-3,573	313,423	155,468
127,137	-3,511	313,293	155,456
128,151	-3,477	313,014	155,339
129,166	-3,405	312,694	155,244
130,181	-3,444	312,511	155,097
131,195	-3,674	312,488	154,828
132,210	-3,426	312,157	154,914
133,224	-3,354	311,923	154,860
134,239	-3,248	311,695	154,845
135,254	-3,300	311,449	154,654
136,268	-3,288	311,286	154,572
137,283	-3,667	311,010	154,021
138,297	-3,709	310,886	153,901
139,312	-3,683	310,571	153,759
140,327	-3,381	310,368	153,964
141,341	-3,192	310,277	154,104
142,356	-3,257	310,199	153,982
143,370	-3,109	309,921	153,987
144,385	-2,892	309,687	154,086
145,400	-3,094	309,462	153,747
146,414	-3,026	309,152	153,651
147,429	-3,081	309,081	153,544
148,443	-2,951	308,808	153,531
149,458	-3,072	308,571	153,273
150,473	-3,057	308,347	153,164
151,487	-3,147	308,182	152,974
152,502	-3,163	307,999	152,853
153,516	-3,112	307,611	152,700
154,531	-3,170	307,461	152,551
155,546	-3,126	307,294	152,501
156,560	-3,105	307,041	152,383
157,575	-3,189	306,707	152,117
158,589	-3,140	306,556	152,079
159,604	-3,052	306,294	152,027
160,619	-2,956	306,310	152,121
161,633	-3,147	306,199	151,854
162,648	-3,106	305,731	151,651
163,662	-3,156	305,673	151,556
164,677	-3,118	305,449	151,472
165,692	-3,124	305,299	151,377
166,706	-3,176	305,172	151,247
167,721	-3,082	304,868	151,180
168,735	-3,069	304,668	151,081
169,750	-2,982	304,523	151,086
170,764	-2,891	304,273	151,042
171,779	-2,978	304,203	150,904
172,794	-2,962	304,053	150,832
173,808	-3,187	303,747	150,436
174,823	-3,432	303,478	150,036
175,837	-3,472	303,120	149,806
176,852	-3,157	303,007	150,059
177,867	-2,938	303,045	150,290
178,881	-3,041	302,870	150,084
179,896	-3,036	302,556	149,920
180,910	-3,039	302,148	149,702
181,925	-3,100	302,095	149,600
182,940	-3,058	301,985	149,575
183,954	-3,035	301,637	149,413
184,969	-3,136	301,491	149,224
185,983	-3,013	301,322	149,252
186,998	-3,149	301,204	149,042
188,013	-3,046	300,801	148,934
189,027	-3,013	300,663	148,887
190,042	-3,068	300,542	148,757
191,056	-2,978	300,344	148,737
192,071	-2,990	300,193	148,636
193,086	-2,951	300,043	148,589
194,100	-2,827	299,749	148,556
195,115	-2,959	299,484	148,277
196,129	-2,983	299,311	148,154
197,144	-2,892	299,138	148,148
198,159	-2,898	298,761	147,942
199,173	-2,830	298,626	147,930
200,188	-2,773	298,457	147,891
201,202	-3,140	298,132	147,346
202,217	-3,337	297,673	146,908
203,232	-3,357	297,607	146,842
204,246	-3,212	297,502	146,923
205,261	-2,931	297,349	147,117
206,275	-3,128	297,170	146,818
207,290	-2,954	296,995	146,893
208,304	-2,927	296,746	146,784
209,319	-2,959	296,599	146,666
210,334	-2,998	296,402	146,516
211,348	-2,879	296,061	146,454
212,363	-2,905	295,923	146,347
213,377	-2,906	295,654	146,199
214,392	-2,944	295,494	146,069
215,407	-3,187	295,361	145,748
216,421	-3,228	295,231	145,630
217,436	-3,048	294,869	145,618
218,450	-3,247	294,771	145,358
219,465	-2,996	294,451	145,437
220,480	-3,153	294,459	145,271
221,494	-3,074	294,134	145,177
222,509	-3,168	294,035	145,022
223,523	-3,285	293,946	144,849
224,538	-3,038	293,726	144,973
225,553	-2,979	293,488	144,901
226,567	-3,014	293,313	144,767
227,582	-3,094	293,109	144,574
228,596	-3,007	293,029	144,607
229,611	-2,872	292,887	144,658
230,626	-2,888	292,562	144,468
231,640	-3,118	292,191	144,046
232,655	-3,406	291,958	143,634
233,669	-3,610	291,818	143,352
234,684	-3,488	291,615	143,359
235,699	-3,474	291,494	143,301
236,713	-3,218	291,348	143,468
237,728	-3,283	291,205	143,321
238,742	-3,058	290,877	143,367
239,757	-2,980	290,811	143,398
240,772	-3,135	290,792	143,224
241,786	-3,229	290,506	142,978
242,801	-3,066	290,119	142,935
243,815	-3,181	290,095	142,798
244,830	-3,023	289,875	142,831
245,844	-3,078	289,575	142,617
246,859	-3,170	289,517	142,487
247,874	-3,247	289,405	142,344
248,888	-3,108	289,053	142,292
249,903	-2,922	289,021	142,445
250,917	-3,065	288,851	142,210
251,932	-2,832	288,773	142,385
252,947	-2,132	288,846	143,090
253,961	-2,576	288,441	142,445
254,976	-1,771	288,767	143,375
255,990	0,854	289,607	146,336
257,005	1,665	289,867	147,244
258,020	3,220	290,119	148,873
259,034	3,382	290,074	148,994
260,049	3,354	289,713	148,768
261,063	2,926	289,549	148,255
262,078	3,042	289,503	148,331
263,093	3,732	289,470	148,970
264,107	3,903	289,170	148,968
265,122	3,994	289,050	148,981
266,136	4,146	289,013	149,096
267,151	4,004	288,792	148,831
268,166	3,897	288,534	148,581
269,180	3,885	288,367	148,470
270,195	3,953	288,150	148,411
271,209	3,931	287,958	148,278
272,224	3,829	287,749	148,059
273,239	3,747	287,555	147,867
274,253	3,654	287,322	147,644
275,268	3,808	287,379	147,809
276,282	4,045	287,074	147,866
277,297	3,840	287,020	147,629
278,312	4,393	286,958	148,114
279,326	4,107	286,726	147,708
280,341	3,952	286,414	147,385
281,355	3,630	286,094	146,899
282,370	3,719	286,014	146,930
283,384	3,788	285,624	146,782
284,399	3,957	285,644	146,941
285,414	3,987	285,302	146,780
286,428	4,016	285,131	146,707
287,443	3,613	284,952	146,217
288,457	3,526	284,724	146,005
289,472	3,483	284,491	145,832
290,487	3,422	284,353	145,689
291,501	3,428	284,083	145,544
292,516	3,217	283,806	145,189
293,530	3,189	283,758	145,125
294,545	3,499	283,834	145,445
295,560	3,704	283,442	145,425
296,574	3,472	283,198	145,068
297,589	3,613	283,130	145,153
298,603	3,867	283,172	145,402
299,618	3,793	282,933	145,197
300,633	3,904	282,629	145,132
301,647	3,772	282,406	144,880
302,662	3,644	282,341	144,713
303,676	3,450	282,050	144,369
304,691	3,287	281,714	144,030
305,706	3,170	281,537	143,817
306,720	3,165	281,179	143,616
307,735	3,107	280,956	143,435
308,749	3,249	281,032	143,595
309,764	3,409	280,865	143,647
310,779	3,148	280,622	143,265
311,793	3,157	280,369	143,132
312,808	3,314	280,209	143,184
313,822	3,084	280,104	142,903
314,837	3,129	279,854	142,804
315,852	2,847	279,843	142,522
316,866	3,264	279,502	142,725
317,881	3,251	279,321	142,608
318,895	3,297	278,954	142,451
319,910	3,041	278,854	142,149
320,925	3,137	278,783	142,189
321,939	3,239	278,705	142,232
322,954	3,440	278,522	142,312
323,968	3,347	278,326	142,112
324,983	3,447	278,219	142,138
325,997	3,713	278,040	142,280
327,012	3,511	277,862	141,989
328,027	3,437	277,609	141,780
329,041	3,262	277,363	141,479
330,056	3,433	277,216	141,550
331,070	3,361	277,163	141,444
332,085	3,079	276,961	141,067
333,100	3,369	276,778	141,230
334,114	3,198	276,533	140,934
335,129	2,941	276,256	140,544
336,143	3,383	276,145	140,882
337,158	3,754	276,243	141,260
338,173	3,355	276,007	140,760
339,187	3,161	275,729	140,427
340,202	3,429	275,582	140,586
341,216	3,421	275,389	140,468
342,231	3,410	275,299	140,400
343,246	3,595	275,010	140,409
344,260	3,396	274,921	140,169
345,275	3,457	274,802	140,151
346,289	3,798	274,712	140,404
347,304	3,779	274,462	140,247
348,319	3,440	274,271	139,827
349,333	3,518	274,058	139,778
350,348	3,872	273,862	139,987
351,362	3,766	273,789	139,841
352,377	3,748	273,659	139,746
353,392	3,787	273,404	139,639
354,406	3,943	273,287	139,709
355,421	191,201	1330,185	1406,022
356,435	154,486	1459,035	1406,121
