DTS Sentinel unit serial number:	SN410029Multiplexer serial number:	ORYXHardware model number:	OX2-SRSoftware version number:	ORYX F/W v4,00 Oryx Data Collector v3.7.2.0data status	okinstallation	B4 Nyhavnadifferential loss correction	single-endedforward channel	channel 2reverse channel	N/Adate	2023/12/19time	11:50:13forward acquisition time	300,00reverse acquisition time	0,00gamma	499,1914k internal	0,3128k external	0,3128temperature offset calibration	1,0000default loss term (dB/km)	0,3820temperature slope calibration	1,0000multiplexer offset coefficient	1,0000multiplexer slope coefficient	1,0000fibre end	0,00T internal ref (°C)	19,70T ext. ref 1 (°C)	4,44T ext. ref 2 (°C)	4,40length (m)	temperature (°C)	Stokes	anti-Stokes-744,400	15,914	0,087	0,051
-743,385	106,060	-0,179	0,158
-742,371	169,491	-0,020	0,021
-741,356	-5,508	-0,211	0,107
-740,342	-63,683	0,066	-0,020
-739,327	-125,861	-0,214	0,024
-738,312	57,385	0,084	-0,061
-737,298	-44,315	-0,242	0,090
-736,283	-68,860	0,158	-0,045
-735,269	-91,952	-0,163	0,034
-734,254	226,378	0,071	-0,086
-733,239	14,415	-0,413	-0,239
-732,225	290,473	0,084	-0,114
-731,210	-97,218	0,011	-0,002
-730,196	193,595	-0,085	-0,096
-729,181	56,882	0,086	0,063
-728,167	-125,399	0,019	0,002
-727,152	-200,000	-0,009	-0,052
-726,137	205,449	-0,131	0,151
-725,123	305,641	-0,052	0,073
-724,108	800,000	-0,056	-0,155
-723,094	800,000	-0,071	-0,184
-722,079	-200,000	-0,001	-0,036
-721,064	52,132	0,042	-0,029
-720,050	-52,759	0,047	-0,016
-719,035	107,781	-0,058	-0,052
-718,021	796,969	-0,060	-0,123
-717,006	-200,000	0,013	-0,070
-715,991	276,281	-0,108	-0,143
-714,977	-149,036	-0,008	-0,000
-713,962	-200,000	-0,003	0,115
-712,948	-200,000	-0,022	-0,127
-711,933	-200,000	-0,013	0,095
-710,918	31,946	-0,114	-0,073
-709,904	155,404	0,055	-0,057
-708,889	-167,631	0,028	0,001
-707,875	130,718	-0,104	-0,099
-706,860	-127,256	0,060	-0,006
-705,845	161,807	-0,088	0,091
-704,831	800,000	0,035	-0,089
-703,816	113,765	-0,113	-0,102
-702,802	-24,815	-0,021	-0,009
-701,787	51,512	0,054	0,038
-700,772	67,844	-0,015	-0,011
-699,758	110,450	0,030	-0,027
-698,743	800,000	-0,029	0,082
-697,729	800,000	0,016	0,033
-696,714	-200,000	-0,008	0,064
-695,699	118,404	-0,057	-0,052
-694,685	-96,279	0,025	0,005
-693,670	-63,874	-0,144	-0,043
-692,656	53,270	-0,050	0,036
-691,641	-14,071	-0,019	-0,009
-690,627	356,251	0,071	0,106
-689,612	70,109	-0,051	0,039
-688,597	-160,188	-0,149	-0,006
-687,583	401,561	-0,150	-0,234
-686,568	62,339	-0,132	-0,098
-685,554	713,675	0,027	0,054
-684,539	-63,526	0,070	0,021
-683,524	-73,479	-0,181	0,049
-682,510	69,655	0,028	-0,022
-681,495	729,688	-0,060	0,119
-680,481	-200,000	0,012	-0,178
-679,466	-179,795	0,098	0,002
-678,451	800,000	0,045	-0,133
-677,437	-77,815	-0,111	-0,028
-676,422	800,000	0,052	0,158
-675,408	-49,147	-0,163	0,058
-674,393	-200,000	0,018	0,083
-673,378	-33,200	-0,208	-0,085
-672,364	-73,209	-0,061	0,017
-671,349	-200,000	-0,001	0,139
-670,335	3,765	-0,133	0,072
-669,320	49,209	0,083	0,058
-668,305	-150,400	-0,166	-0,009
-667,291	660,355	0,041	-0,078
-666,276	800,000	-0,010	0,025
-665,262	800,000	0,045	-0,097
-664,247	-200,000	-0,026	-0,119
-663,232	134,550	-0,101	-0,098
-662,218	-20,318	0,054	-0,025
-661,203	0,054	0,074	-0,039
-660,189	-200,000	-0,026	0,123
-659,174	422,643	0,027	0,044
-658,159	496,240	-0,033	-0,056
-657,145	800,000	-0,054	-0,121
-656,130	2,098	-0,083	-0,044
-655,116	-97,607	-0,013	-0,002
-654,101	215,554	0,131	0,155
-653,086	-200,000	-0,006	0,033
-652,072	307,846	-0,055	-0,077
-651,057	406,472	-0,051	-0,080
-650,043	-130,598	0,046	0,004
-649,028	43,854	0,030	-0,020
-648,014	800,000	-0,027	-0,084
-646,999	135,143	0,119	-0,115
-645,984	71,231	0,093	-0,071
-644,970	-200,000	-0,017	0,154
-643,955	-79,352	0,102	-0,026
-642,941	800,000	-0,056	-0,134
-641,926	464,643	-0,028	0,047
-640,911	-200,000	0,014	0,146
-639,897	110,613	0,015	0,013
-638,882	49,500	0,129	0,090
-637,868	800,000	-0,028	0,077
-636,853	800,000	0,054	-0,148
-635,838	366,297	-0,063	-0,095
-634,824	800,000	0,049	-0,102
-633,809	353,532	-0,009	0,014
-632,795	-8,090	0,115	-0,057
-631,780	-200,000	0,030	0,117
-630,765	539,712	0,048	-0,085
-629,751	110,739	-0,072	0,064
-628,736	393,176	0,046	-0,072
-627,722	207,550	0,072	0,084
-626,707	-200,000	-0,011	-0,116
-625,692	388,044	-0,042	-0,064
-624,678	-200,000	0,011	0,084
-623,663	303,881	0,011	-0,016
-622,649	-113,861	-0,077	-0,011
-621,634	296,915	0,023	-0,031
-620,619	64,372	0,071	-0,053
-619,605	-110,346	-0,154	-0,023
-618,590	800,000	-0,025	0,060
-617,576	107,888	-0,033	0,029
-616,561	-200,000	-0,003	-0,105
-615,546	-106,952	-0,057	-0,009
-614,532	800,000	-0,054	-0,153
-613,517	-200,000	-0,035	-0,187
-612,503	-109,947	0,068	-0,010
-611,488	353,000	0,025	0,036
-610,474	322,959	-0,026	0,037
-609,459	237,540	0,012	0,014
-608,444	156,317	-0,147	0,151
-607,430	-47,724	-0,234	-0,083
-606,415	800,000	0,020	-0,044
-605,401	104,372	-0,005	-0,004
-604,386	-78,222	-0,080	0,020
-603,371	-26,690	0,046	-0,020
-602,357	-200,000	0,006	-0,093
-601,342	19,772	-0,239	-0,142
-600,328	800,000	-0,049	-0,104
-599,313	-78,438	0,010	-0,003
-598,298	-138,025	-0,091	-0,007
-597,284	-187,149	0,073	0,001
-596,269	800,000	0,021	-0,047
-595,255	-200,000	-0,012	0,096
-594,240	-4,823	-0,090	-0,046
-593,225	617,600	-0,064	-0,120
-592,211	447,190	0,027	-0,045
-591,196	-26,105	0,048	-0,021
-590,182	62,564	0,018	0,013
-589,167	3,361	0,107	-0,058
-588,152	-160,654	0,073	0,003
-587,138	800,000	-0,039	0,089
-586,123	-46,089	-0,106	-0,038
-585,109	169,536	-0,029	0,031
-584,094	76,365	0,075	-0,059
-583,079	-141,209	0,041	-0,003
-582,065	-156,626	-0,071	-0,003
-581,050	-7,401	-0,056	0,028
-580,036	800,000	0,055	0,120
-579,021	-5,338	0,050	-0,025
-578,006	-103,618	-0,098	-0,017
-576,992	518,365	-0,053	-0,092
-575,977	30,208	0,042	0,027
-574,963	138,867	0,064	-0,062
-573,948	-76,440	-0,068	0,018
-572,934	172,586	0,057	-0,061
-571,919	800,000	0,012	-0,033
-570,904	-24,868	-0,120	0,053
-569,890	-149,793	-0,061	0,003
-568,875	499,917	0,061	0,104
-567,861	-200,000	-0,020	0,073
-566,846	-200,000	0,016	0,077
-565,831	800,000	0,013	-0,031
-564,817	800,000	0,029	-0,091
-563,802	-6,734	0,045	0,023
-562,788	-200,000	-0,018	-0,061
-561,773	-91,029	-0,040	-0,008
-560,758	800,000	-0,038	0,087
-559,744	83,586	-0,058	0,047
-558,729	139,967	0,124	0,121
-557,715	136,043	-0,083	0,080
-556,700	800,000	-0,036	-0,083
-555,685	79,204	-0,037	0,029
-554,671	-62,260	-0,075	0,023
-553,656	-200,000	0,008	-0,026
-552,642	134,832	0,157	-0,150
-551,627	800,000	-0,057	-0,120
-550,612	213,267	0,060	-0,070
-549,598	-200,000	-0,012	-0,068
-548,583	800,000	-0,040	-0,096
-547,569	100,014	-0,101	0,086
-546,554	207,395	0,066	-0,076
-545,539	-21,816	0,074	0,033
-544,525	-200,000	0,015	0,072
-543,510	-200,000	-0,005	-0,044
-542,496	-200,000	0,004	0,045
-541,481	-42,513	-0,087	0,033
-540,466	606,717	0,073	-0,135
-539,452	48,150	-0,113	0,078
-538,437	-112,131	0,037	0,005
-537,423	-109,699	-0,034	0,005
-536,408	450,335	-0,002	-0,003
-535,393	183,000	-0,059	-0,065
-534,379	-25,409	-0,013	-0,006
-533,364	-200,000	-0,001	0,015
-532,350	-29,395	-0,036	-0,015
-531,335	-200,000	-0,012	0,087
-530,321	-200,000	-0,020	-0,096
-529,306	-82,989	0,079	0,019
-528,291	-115,741	-0,062	0,008
-527,277	157,446	0,079	-0,081
-526,262	1,171	0,067	-0,035
-525,248	-200,000	-0,018	-0,127
-524,233	-79,172	0,118	-0,029
-523,218	-200,000	0,005	0,028
-522,204	8,635	-0,070	0,039
-521,189	408,889	-0,066	-0,103
-520,175	-141,925	-0,179	-0,013
-519,160	76,115	0,092	-0,072
-518,145	-144,605	-0,062	-0,004
-517,131	800,000	-0,047	-0,132
-516,116	-200,000	0,004	-0,025
-515,102	247,459	-0,076	0,095
-514,087	217,128	-0,043	-0,050
-513,072	-8,783	-0,114	-0,056
-512,058	-118,684	0,072	0,009
-511,043	-84,844	-0,026	0,006
-510,029	-69,823	0,116	-0,033
-509,014	457,422	0,034	0,055
-507,999	-119,501	0,070	0,009
-506,985	354,545	-0,036	-0,053
-505,970	112,765	-0,019	-0,017
-504,956	-200,000	-0,007	-0,145
-503,941	-200,000	-0,002	0,063
-502,926	-158,680	0,154	0,006
-501,912	-99,538	0,062	-0,011
-500,897	-179,630	-0,077	0,001
-499,883	207,349	0,070	0,080
-498,868	-152,276	0,052	0,003
-497,853	-200,000	-0,006	0,030
-496,839	150,367	0,051	0,051
-495,824	225,710	0,039	-0,047
-494,810	316,865	0,066	0,093
-493,795	52,076	0,195	0,136
-492,781	-132,869	0,100	-0,009
-491,766	-104,818	-0,080	0,013
-490,751	-68,038	-0,030	0,009
-489,737	53,731	-0,070	0,049
-488,722	-162,598	-0,019	0,001
-487,708	-200,000	-0,007	0,102
-486,693	-200,000	0,012	-0,063
-485,678	-200,000	0,001	0,109
-484,664	491,257	-0,115	0,194
-483,649	800,000	0,051	0,160
-482,635	150,191	-0,058	-0,058
-481,620	41,044	0,110	-0,073
-480,605	571,741	0,033	-0,059
-479,591	-7,672	0,044	-0,022
-478,576	-83,156	-0,041	0,010
-477,562	-200,000	0,028	-0,120
-476,547	225,300	0,037	-0,044
-475,532	459,530	0,101	0,166
-474,518	132,149	0,049	0,047
-473,503	800,000	-0,031	-0,065
-472,489	-200,000	-0,036	0,126
-471,474	800,000	-0,069	0,146
-470,459	19,797	-0,123	-0,073
-469,445	-59,790	0,104	-0,033
-468,430	-58,549	-0,117	-0,037
-467,416	-200,000	0,008	0,025
-466,401	-200,000	-0,026	0,135
-465,386	-54,469	0,125	0,041
-464,372	-200,000	0,001	-0,064
-463,357	-25,484	-0,088	-0,038
-462,343	722,644	-0,032	-0,064
-461,328	-200,000	-0,034	-0,130
-460,313	29,420	0,077	0,048
-459,299	405,254	-0,115	0,179
-458,284	46,334	-0,065	0,045
-457,270	-13,918	0,128	-0,061
-456,255	294,352	-0,025	0,034
-455,241	-0,317	-0,179	0,093
-454,226	-200,000	0,000	0,072
-453,211	35,877	0,097	0,063
-452,197	-11,074	0,099	-0,048
-451,182	800,000	-0,003	-0,008
-450,168	-104,959	-0,010	-0,002
-449,153	-200,000	-0,011	-0,060
-448,138	97,333	-0,068	0,057
-447,124	800,000	0,033	-0,107
-446,109	800,000	-0,011	0,027
-445,095	-144,082	0,078	-0,005
-444,080	-32,204	0,092	0,038
-443,065	-123,968	0,067	-0,008
-442,051	85,082	-0,080	0,064
-441,036	-200,000	0,001	0,127
-440,022	-200,000	0,010	0,063
-439,007	372,183	0,060	-0,089
-437,992	49,369	-0,059	-0,040
-436,978	199,396	0,047	0,054
-435,963	-200,000	-0,009	-0,054
-434,949	221,447	-0,095	-0,112
-433,934	-10,843	0,051	0,025
-432,919	222,082	0,048	-0,056
-431,905	-145,829	-0,133	0,009
-430,890	268,614	0,039	-0,051
-429,876	-111,811	0,065	-0,010
-428,861	573,894	0,022	0,039
-427,846	-200,000	-0,004	0,036
-426,832	408,330	-0,067	0,104
-425,817	-200,000	-0,011	-0,057
-424,803	205,463	-0,032	-0,037
-423,788	358,708	0,082	0,121
-422,773	-200,000	-0,007	0,041
-421,759	627,335	0,060	0,112
-420,744	800,000	-0,039	0,096
-419,730	545,733	-0,020	0,035
-418,715	-200,000	-0,040	-0,136
-417,701	179,674	-0,055	0,060
-416,686	-200,000	0,008	-0,051
-415,671	-200,000	0,023	0,129
-414,657	800,000	-0,025	-0,078
-413,642	9,625	0,093	0,052
-412,628	553,929	-0,078	0,139
-411,613	127,671	0,070	-0,065
-410,598	195,562	-0,112	-0,126
-409,584	-200,000	0,032	0,117
-408,569	647,268	-0,022	0,041
-407,555	800,000	-0,025	0,068
-406,540	113,943	-0,057	-0,051
-405,525	800,000	0,024	0,061
-404,511	-121,050	-0,135	0,016
-403,496	-145,026	-0,091	-0,006
-402,482	-200,000	-0,001	0,139
-401,467	492,696	-0,082	0,139
-400,452	800,000	0,016	0,049
-399,438	133,421	0,124	-0,118
-398,423	159,148	-0,052	0,053
-397,409	-24,433	-0,069	-0,030
-396,394	313,235	-0,021	-0,029
-395,379	26,400	-0,096	0,059
-394,365	-24,425	-0,075	0,033
-393,350	-97,729	0,112	0,021
-392,336	76,032	0,125	-0,097
-391,321	74,731	-0,051	0,039
-390,306	473,978	-0,074	0,123
-389,292	-81,741	-0,117	-0,028
-388,277	-175,032	0,110	-0,002
-387,263	154,472	0,029	-0,029
-386,248	263,546	0,019	-0,025
-385,233	-200,000	-0,025	0,093
-384,219	-200,000	0,005	0,021
-383,204	-9,059	-0,092	-0,045
-382,190	-200,000	0,011	0,096
-381,175	100,683	-0,058	0,049
-380,160	-86,679	0,093	-0,021
-379,146	-28,934	-0,122	0,051
-378,131	-200,000	-0,006	0,123
-377,117	-133,339	0,068	0,006
-376,102	51,116	-0,040	0,028
-375,088	-200,000	-0,004	0,124
-374,073	48,851	0,072	-0,049
-373,058	-77,036	0,141	0,036
-372,044	800,000	-0,055	-0,152
-371,029	21,948	0,056	-0,033
-370,015	91,562	0,052	-0,043
-369,000	1,948	0,105	0,056
-367,985	58,189	-0,092	0,066
-366,971	-200,000	-0,015	0,060
-365,956	334,327	0,045	0,064
-364,942	-129,683	-0,082	0,008
-363,927	281,610	0,048	-0,064
-362,912	176,477	-0,059	0,063
-361,898	-38,798	-0,143	0,055
-360,883	126,944	-0,051	0,048
-359,869	-13,451	-0,155	0,074
-358,854	-115,756	-0,168	-0,023
-357,839	-45,292	0,063	-0,023
-356,825	26,487	-0,088	0,054
-355,810	-8,035	0,040	0,020
-354,796	-58,825	-0,052	-0,016
-353,781	-120,961	-0,143	0,017
-352,766	-65,313	0,087	-0,025
-351,752	96,915	0,053	0,045
-350,737	44,293	0,121	0,081
-349,723	-200,000	0,000	0,081
-348,708	-120,681	0,064	0,008
-347,693	246,495	-0,017	0,021
-346,679	58,073	-0,133	-0,096
-345,664	-91,223	-0,135	-0,028
-344,650	80,966	-0,031	0,025
-343,635	800,000	-0,013	-0,033
-342,620	-26,265	0,149	0,064
-341,606	-200,000	-0,012	0,063
-340,591	800,000	0,018	-0,048
-339,577	665,157	0,030	-0,056
-338,562	800,000	-0,046	-0,125
-337,548	8,878	0,106	0,059
-336,533	-150,114	0,097	0,005
-335,518	-200,000	-0,014	0,071
-334,504	303,060	0,071	0,097
-333,489	13,703	-0,105	0,059
-332,475	-200,000	0,071	0,000
-331,460	-54,739	-0,100	-0,033
-330,445	-200,000	-0,022	-0,158
-329,431	-200,000	-0,003	-0,109
-328,416	505,445	0,024	0,041
-327,402	-45,233	-0,106	0,038
-326,387	800,000	-0,046	0,126
-325,372	-108,651	-0,155	0,024
-324,358	75,868	-0,021	-0,016
-323,343	-66,067	0,096	-0,028
-322,329	346,344	-0,053	0,077
-321,314	-200,000	-0,010	-0,058
-320,299	24,056	0,045	0,027
-319,285	101,119	-0,027	0,023
-318,270	-162,000	-0,063	0,002
-317,256	476,572	-0,111	-0,185
-316,241	-144,040	0,234	-0,016
-315,226	-112,088	0,053	-0,008
-314,212	-29,074	0,170	0,071
-313,197	-129,343	0,088	0,009
-312,183	800,000	0,035	0,096
-311,168	-200,000	-0,036	0,000
-310,153	-200,000	0,003	-0,012
-309,139	-200,000	-0,013	-0,052
-308,124	800,000	-0,027	0,071
-307,110	-83,633	0,153	0,035
-306,095	-200,000	0,003	0,076
-305,080	33,261	-0,102	0,064
-304,066	321,445	-0,054	-0,076
-303,051	27,677	-0,088	0,054
-302,037	800,000	-0,027	0,081
-301,022	-68,225	0,031	-0,009
-300,008	174,960	0,056	-0,059
-298,993	-200,000	-0,025	-0,141
-297,978	-49,778	-0,082	0,028
-296,964	-16,688	0,055	0,025
-295,949	-200,000	0,001	0,049
-294,935	775,349	-0,053	-0,106
-293,920	-48,329	0,112	-0,039
-292,905	-200,000	-0,008	-0,029
-291,891	-37,417	-0,089	-0,034
-290,876	-70,857	0,186	-0,051
-289,862	-89,173	0,019	-0,004
-288,847	352,145	-0,049	-0,072
-287,832	252,764	0,040	0,050
-286,818	-102,592	-0,160	0,028
-285,803	433,805	-0,030	-0,048
-284,789	800,000	0,062	-0,148
-283,774	406,771	-0,049	0,076
-282,759	800,000	-0,055	0,133
-281,745	74,951	0,127	-0,097
-280,730	800,000	0,024	-0,055
-279,716	-49,745	0,101	0,035
-278,701	70,188	-0,013	-0,010
-277,686	176,201	0,139	0,148
-276,672	-51,574	0,033	-0,011
-275,657	-200,000	0,006	-0,049
-274,643	25,304	-0,104	-0,063
-273,628	200,885	-0,049	-0,055
-272,613	-18,018	0,124	0,056
-271,599	-200,000	-0,007	0,089
-270,584	-62,756	0,123	-0,037
-269,570	82,898	-0,029	-0,023
-268,555	-111,639	-0,022	-0,003
-267,540	-71,423	0,054	0,015
-266,526	-200,000	-0,009	-0,066
-265,511	-154,239	0,140	-0,007
-264,497	-200,000	0,015	0,096
-263,482	-169,389	-0,021	0,001
-262,467	83,623	0,071	0,057
-261,453	666,204	0,046	-0,087
-260,438	-127,601	-0,032	-0,003
-259,424	-39,232	-0,112	-0,043
-258,409	-200,000	-0,003	-0,045
-257,395	219,617	0,046	0,054
-256,380	-32,932	0,087	0,035
-255,365	8,702	0,110	0,060
-254,351	151,867	0,070	-0,070
-253,336	233,661	0,049	0,058
-252,322	58,504	0,027	-0,019
-251,307	11,464	-0,011	0,006
-250,292	-189,301	0,159	-0,001
-249,278	-154,115	-0,015	-0,001
-248,263	29,052	0,057	0,035
-247,249	-200,000	0,032	0,110
-246,234	408,082	-0,027	0,042
-245,219	311,495	0,061	-0,084
-244,205	-200,000	-0,029	-0,112
-243,190	417,045	-0,026	-0,041
-242,176	545,818	-0,046	0,081
-241,161	-200,000	-0,007	-0,070
-240,146	800,000	0,029	0,081
-239,132	17,118	-0,028	-0,016
-238,117	-200,000	-0,001	0,014
-237,103	420,127	0,029	-0,045
-236,088	11,100	0,087	0,049
-235,073	15,534	0,108	0,062
-234,059	535,759	-0,079	0,137
-233,044	156,695	-0,034	0,034
-232,030	800,000	-0,026	-0,063
-231,015	322,743	0,065	-0,091
-230,000	-91,408	-0,136	-0,028
-228,986	129,172	0,056	-0,052
-227,971	800,000	-0,045	0,104
-226,957	-7,146	0,062	-0,031
-225,942	-71,806	0,078	-0,021
-224,927	800,000	-0,035	-0,103
-223,913	539,918	0,055	-0,095
-222,898	800,000	-0,036	-0,104
-221,884	334,665	-0,067	0,095
-220,869	-200,000	0,015	-0,083
-219,855	-13,404	0,106	0,050
-218,840	800,000	0,030	-0,061
-217,825	-85,161	-0,047	-0,011
-216,811	-148,788	-0,084	0,005
-215,796	-200,000	0,010	-0,112
-214,782	-17,159	0,073	0,034
-213,767	-146,325	0,140	0,009
-212,752	316,590	0,038	-0,052
-211,738	196,524	0,133	0,148
-210,723	800,000	-0,021	0,051
-209,709	191,287	-0,020	-0,022
-208,694	-17,825	-0,158	0,072
-207,679	-12,910	0,025	0,012
-206,665	742,060	0,062	-0,122
-205,650	136,071	-0,073	0,069
-204,636	73,593	0,037	0,028
-203,621	-200,000	-0,002	-0,105
-202,606	215,033	-0,072	-0,083
-201,592	17,186	-0,081	-0,047
-200,577	-83,888	0,030	-0,007
-199,563	800,000	0,053	0,132
-198,548	-200,000	0,017	0,127
-197,533	-200,000	-0,021	0,105
-196,519	507,909	0,089	0,152
-195,504	-139,105	-0,121	-0,009
-194,490	-200,000	-0,004	-0,104
-193,475	328,833	-0,056	-0,079
-192,460	16,659	0,092	-0,053
-191,446	791,144	-0,097	-0,196
-190,431	229,933	-0,106	-0,126
-189,417	12,449	-0,023	0,013
-188,402	245,137	0,056	0,069
-187,387	-111,773	-0,038	-0,006
-186,373	-4,939	-0,183	-0,091
-185,358	776,498	-0,056	0,112
-184,344	-200,000	0,018	0,081
-183,329	64,988	0,095	0,070
-182,315	-100,437	-0,073	0,013
-181,300	17,352	-0,002	0,001
-180,285	311,209	-0,084	-0,114
-179,271	-200,000	-0,010	0,048
-178,256	36,314	0,022	-0,014
-177,242	7,534	0,085	-0,046
-176,227	-125,752	-0,133	0,014
-175,212	142,815	-0,056	0,054
-174,198	264,912	0,029	-0,037
-173,183	347,864	0,025	0,036
-172,169	605,858	0,067	-0,122
-171,154	93,193	0,051	0,042
-170,139	326,323	0,030	-0,042
-169,125	205,409	-0,012	-0,013
-168,110	800,000	0,021	0,045
-167,096	174,180	-0,032	0,033
-166,081	-96,915	-0,156	-0,030
-165,066	-200,000	-0,021	-0,103
-164,052	-200,000	0,008	-0,143
-163,037	-200,000	0,012	-0,085
-162,023	67,122	0,034	0,025
-161,008	-91,094	0,099	0,021
-159,993	800,000	0,045	-0,134
-158,979	-200,000	0,001	0,028
-157,964	45,473	-0,022	-0,015
-156,950	47,371	0,051	0,035
-155,935	-123,321	0,100	0,011
-154,920	251,974	0,021	-0,026
-153,906	-133,970	0,029	-0,003
-152,891	-82,571	0,086	-0,020
-151,877	84,217	-0,043	0,034
-150,862	200,987	-0,075	0,084
-149,847	800,000	0,023	-0,062
-148,833	417,956	-0,029	0,045
-147,818	-200,000	-0,007	-0,092
-146,804	1,070	0,050	0,026
-145,789	-93,752	-0,072	0,014
-144,775	-200,000	-0,004	0,046
-143,760	800,000	-0,028	0,073
-142,745	-200,000	-0,024	0,083
-141,731	41,408	0,105	0,069
-140,716	125,684	-0,063	0,058
-139,702	60,514	-0,061	-0,044
-138,687	516,736	0,010	-0,017
-137,672	65,043	-0,040	-0,029
-136,658	-200,000	-0,008	-0,069
-135,643	-200,000	0,001	0,052
-134,629	161,110	0,088	-0,089
-133,614	-200,000	-0,009	-0,106
-132,599	-19,320	0,054	0,024
-131,585	53,430	0,123	0,086
-130,570	-200,000	0,011	0,051
-129,556	193,647	-0,072	0,079
-128,541	519,566	-0,095	-0,162
-127,526	-128,284	0,097	-0,010
-126,512	359,042	0,038	0,055
-125,497	-200,000	-0,004	-0,046
-124,483	33,042	-0,049	0,031
-123,468	331,887	-0,081	0,114
-122,453	113,005	-0,115	0,102
-121,439	85,856	0,132	0,105
-120,424	-200,000	-0,018	-0,062
-119,410	297,037	0,080	0,106
-118,395	189,934	0,108	0,118
-117,380	-130,826	-0,135	0,013
-116,366	464,167	0,037	0,060
-115,351	800,000	-0,026	0,075
-114,337	19,908	-0,097	0,056
-113,322	18,834	0,036	0,021
-112,307	51,855	0,055	0,038
-111,293	41,903	0,040	0,027
-110,278	-69,623	0,054	-0,015
-109,264	24,086	-0,025	0,015
-108,249	-200,000	-0,008	-0,041
-107,234	52,334	-0,139	-0,096
-106,220	-35,650	0,071	-0,028
-105,205	-200,000	-0,021	0,119
-104,191	28,418	-0,041	0,025
-103,176	27,484	-0,074	0,045
-102,162	-24,587	-0,038	-0,016
-101,147	-200,000	-0,014	-0,100
-100,132	72,662	0,016	-0,012
-99,118	165,276	0,118	0,121
-98,103	-108,389	0,082	-0,013
-97,089	-200,000	0,020	0,118
-96,074	-200,000	0,000	-0,079
-95,059	-143,460	-0,067	0,005
-94,045	-4,337	-0,102	-0,051
-93,030	-118,549	-0,077	-0,010
-92,016	-4,501	0,016	-0,008
-91,001	-56,651	0,103	-0,033
-89,986	-200,000	0,022	0,092
-88,972	276,791	-0,034	0,044
-87,957	374,971	0,056	-0,083
-86,943	-84,233	0,161	0,037
-85,928	-88,657	-0,112	0,024
-84,913	-14,491	0,022	0,010
-83,899	-200,000	-0,001	-0,069
-82,884	11,948	-0,113	-0,063
-81,870	-166,217	0,109	-0,003
-80,855	79,273	-0,097	-0,075
-79,840	346,202	-0,032	0,046
-78,826	-200,000	-0,025	-0,180
-77,811	-127,779	-0,079	0,008
-76,797	800,000	-0,028	-0,068
-75,782	800,000	0,024	-0,059
-74,767	-200,000	-0,012	0,048
-73,753	-171,736	0,117	-0,003
-72,738	711,640	0,059	-0,114
-71,724	800,000	-0,028	0,064
-70,709	210,406	0,025	0,029
-69,694	800,000	-0,011	-0,028
-68,680	106,267	0,052	0,045
-67,665	-200,000	0,015	0,072
-66,651	372,604	0,014	0,021
-65,636	-10,516	0,222	-0,106
-64,622	-200,000	0,017	-0,094
-63,607	-53,851	0,037	0,012
-62,592	320,001	0,057	0,078
-61,578	-200,000	-0,024	0,100
-60,563	51,626	0,087	0,060
-59,549	800,000	0,078	0,212
-58,534	-88,128	-1,682	-0,362
-57,519	729,180	-0,671	-1,305
-56,505	-200,000	-0,860	-4,517
-55,490	-133,994	0,513	-0,045
-54,476	800,000	5,027	11,910
-53,461	-200,000	15,083	266,086
-52,446	-200,000	695,828	2238,960
-51,432	584,689	1617,349	2891,167
-50,417	120,895	1625,843	1465,119
-49,403	82,918	1281,892	1009,131
-48,388	37,672	1022,117	656,066
-47,373	22,438	982,843	580,722
-46,359	21,442	971,814	570,914
-45,344	19,980	967,508	563,579
-44,330	20,041	965,978	562,864
-43,315	19,795	964,731	561,310
-42,300	19,848	963,482	560,737
-41,286	19,748	962,709	559,936
-40,271	19,754	961,807	559,410
-39,257	19,753	960,813	558,806
-38,242	19,790	959,900	558,372
-37,227	19,762	959,236	557,873
-36,213	19,773	958,189	557,277
-35,198	19,700	957,344	556,527
-34,184	19,729	956,562	556,145
-33,169	19,682	955,610	555,418
-32,154	19,730	954,726	555,038
-31,140	19,741	953,952	554,603
-30,125	19,783	953,084	554,209
-29,111	19,742	952,115	553,493
-28,096	19,768	951,586	553,248
-27,082	19,747	951,014	552,826
-26,067	19,709	950,165	552,188
-25,052	19,707	949,386	551,705
-24,038	19,719	948,782	551,370
-23,023	19,701	948,256	550,986
-22,009	19,805	947,215	550,694
-20,994	19,769	946,782	550,305
-19,979	19,751	946,232	549,904
-18,965	19,720	945,616	549,426
-17,950	19,733	945,042	549,112
-16,936	19,719	944,423	548,686
-15,921	19,624	943,869	548,037
-14,906	19,624	942,985	547,503
-13,892	19,632	942,286	547,101
-12,877	19,595	941,716	546,632
-11,863	19,604	941,112	546,287
-10,848	19,589	940,627	545,936
-9,833	19,656	940,086	545,814
-8,819	19,720	939,422	545,608
-7,804	19,658	938,729	544,988
-6,790	19,602	938,317	544,550
-5,775	19,613	937,662	544,185
-4,760	19,695	936,987	544,029
-3,746	19,635	936,363	543,456
-2,731	19,521	935,596	542,629
-1,717	19,493	934,966	542,154
-0,702	19,512	934,395	541,862
0,313	19,212	933,800	541,385
1,327	21,672	931,379	547,681
2,342	28,761	806,049	493,164
3,356	23,042	506,019	299,842
4,371	-0,972	373,109	190,522
5,386	-3,705	356,283	178,560
6,400	-4,654	350,485	174,493
7,415	-5,032	347,876	172,725
8,429	-5,136	346,577	171,941
9,444	-5,112	345,660	171,498
10,459	-4,999	345,117	171,348
11,473	-5,104	344,427	170,866
12,488	-5,072	343,818	170,586
13,502	-5,081	343,237	170,273
14,517	-5,048	342,781	170,070
15,531	-5,148	342,368	169,732
16,546	-5,023	342,057	169,710
17,561	-4,994	341,452	169,428
18,575	-4,861	340,920	169,306
19,590	-4,906	340,685	169,122
20,604	-4,896	340,389	168,971
21,619	-4,973	339,945	168,646
22,634	-4,893	339,601	168,554
23,648	-4,980	339,317	168,296
24,663	-4,963	338,953	168,120
25,677	-5,068	338,818	167,915
26,692	-4,874	338,250	167,845
27,707	-4,871	338,022	167,720
28,721	-4,929	337,730	167,493
29,736	-4,930	337,274	167,251
30,750	-4,907	337,058	167,155
31,765	-4,764	336,790	167,173
32,780	-4,944	336,638	166,874
33,794	-4,963	336,303	166,672
34,809	-4,809	335,967	166,668
35,823	-4,923	335,710	166,394
36,838	-4,957	335,438	166,205
37,853	-4,887	335,116	166,112
38,867	-4,889	334,843	165,958
39,882	-4,866	334,537	165,818
40,896	-4,875	334,416	165,735
41,911	-4,936	334,062	165,474
42,926	-4,948	333,676	165,255
43,940	-4,973	333,483	165,115
44,955	-4,979	333,307	165,006
45,969	-5,002	332,969	164,797
46,984	-4,912	332,745	164,775
47,999	-5,059	332,759	164,600
49,013	-4,845	332,328	164,615
50,028	-4,727	331,940	164,543
51,042	-5,059	331,834	164,098
52,057	-4,894	331,269	163,992
53,071	-4,858	331,220	163,993
54,086	-4,898	330,981	163,816
55,101	-4,885	330,714	163,683
56,115	-4,918	330,468	163,509
57,130	-5,036	330,251	163,254
58,144	-4,957	329,833	163,122
59,159	-4,965	329,525	162,946
60,174	-4,879	329,243	162,889
61,188	-4,955	329,117	162,727
62,203	-4,932	328,901	162,632
63,217	-4,808	328,500	162,558
64,232	-4,975	328,350	162,282
65,247	-4,926	328,031	162,164
66,261	-4,887	327,771	162,066
67,276	-4,905	327,573	161,933
68,290	-4,977	327,388	161,746
69,305	-4,949	326,897	161,520
70,320	-4,815	326,867	161,642
71,334	-4,956	326,507	161,291
72,349	-4,887	326,331	161,267
73,363	-5,052	325,940	160,875
74,378	-5,021	325,783	160,818
75,393	-4,895	325,438	160,773
76,407	-5,000	325,306	160,576
77,422	-4,860	324,933	160,535
78,436	-4,992	324,821	160,317
79,451	-5,040	324,429	160,057
80,466	-4,836	324,091	160,102
81,480	-4,877	323,918	159,957
82,495	-4,918	323,836	159,857
83,509	-4,947	323,526	159,657
84,524	-4,915	323,303	159,569
85,539	-4,817	322,998	159,512
86,553	-4,873	322,874	159,375
87,568	-4,906	322,599	159,188
88,582	-4,904	322,271	159,015
89,597	-4,869	321,985	158,898
90,611	-4,900	321,859	158,787
91,626	-5,059	321,537	158,439
92,641	-4,721	321,269	158,665
93,655	-4,863	321,210	158,465
94,670	-4,853	320,818	158,269
95,684	-5,021	320,555	157,941
96,699	-5,015	320,414	157,864
97,714	-4,827	320,189	157,945
98,728	-4,775	319,905	157,847
99,743	-4,797	319,695	157,705
100,757	-4,784	319,449	157,584
101,772	-4,849	319,188	157,370
102,787	-4,882	318,875	157,166
103,801	-4,896	318,678	157,041
104,816	-5,087	318,599	156,779
105,830	-4,964	318,344	156,774
106,845	-4,895	318,065	156,697
107,860	-4,907	317,861	156,570
108,874	-4,827	317,604	156,516
109,889	-4,655	317,236	156,507
110,903	-4,836	317,060	156,211
111,918	-4,768	316,909	156,195
112,933	-5,053	316,786	155,812
113,947	-4,942	316,571	155,813
114,962	-4,824	316,148	155,718
115,976	-5,022	316,025	155,430
116,991	-4,929	315,835	155,423
118,006	-4,858	315,546	155,343
119,020	-4,910	315,352	155,179
120,035	-4,756	315,181	155,246
121,049	-4,819	314,930	155,040
122,064	-5,057	314,951	154,781
123,079	-4,926	314,472	154,673
124,093	-4,869	314,287	154,629
125,108	-4,946	314,023	154,403
126,122	-4,840	313,773	154,379
127,137	-4,722	313,623	154,418
128,151	-4,854	313,352	154,130
129,166	-4,742	313,148	154,136
130,181	-4,668	312,842	154,050
131,195	-4,797	312,730	153,844
132,210	-4,970	312,491	153,528
133,224	-5,000	312,235	153,357
134,239	-4,759	312,021	153,494
135,254	-4,809	311,752	153,296
136,268	-4,835	311,525	153,142
137,283	-4,869	311,359	153,011
138,297	-4,768	311,026	152,940
139,312	-4,771	310,791	152,808
140,327	-4,883	310,588	152,576
141,341	-4,767	310,370	152,579
142,356	-4,864	310,113	152,336
143,370	-4,909	309,884	152,162
144,385	-4,914	309,847	152,125
145,400	-4,799	309,487	152,056
146,414	-4,829	309,264	151,901
147,429	-4,936	309,056	151,673
148,443	-4,838	308,937	151,704
149,458	-4,944	308,653	151,440
150,473	-4,851	308,435	151,418
151,487	-4,902	308,384	151,325
152,502	-4,847	307,978	151,170
153,516	-4,768	307,765	151,135
154,531	-4,825	307,442	150,903
155,546	-4,816	307,286	150,822
156,560	-4,751	306,982	150,727
157,575	-4,681	306,987	150,790
158,589	-4,846	306,568	150,398
159,604	-4,733	306,367	150,404
160,619	-4,775	306,163	150,247
161,633	-4,772	306,064	150,188
162,648	-4,805	305,984	150,101
163,662	-4,874	305,608	149,831
164,677	-4,962	305,385	149,617
165,692	-4,802	305,261	149,709
166,706	-4,742	305,116	149,687
167,721	-4,872	305,007	149,485
168,735	-4,787	304,757	149,437
169,750	-4,862	304,424	149,184
170,764	-4,899	304,384	149,112
171,779	-4,787	304,139	149,094
172,794	-4,785	303,832	148,933
173,808	-4,912	303,699	148,723
174,823	-4,679	303,464	148,835
175,837	-4,637	303,113	148,693
176,852	-4,811	303,087	148,488
177,867	-4,773	302,811	148,378
178,881	-4,821	302,668	148,245
179,896	-4,766	302,564	148,238
180,910	-4,692	302,204	148,125
181,925	-4,757	302,034	147,961
182,940	-4,926	301,847	147,684
183,954	-4,685	301,661	147,826
184,969	-4,831	301,488	147,578
185,983	-4,668	301,198	147,590
186,998	-4,692	301,069	147,490
188,013	-4,741	300,889	147,338
189,027	-4,836	300,479	147,027
190,042	-4,915	300,435	146,912
191,056	-4,767	300,199	146,935
192,071	-4,918	299,976	146,659
193,086	-5,044	299,707	146,386
194,100	-4,964	299,626	146,414
195,115	-4,789	299,273	146,406
196,129	-4,701	299,164	146,429
197,144	-4,832	298,816	146,112
198,159	-4,846	298,663	146,011
199,173	-4,587	298,413	146,138
200,188	-4,773	298,291	145,877
201,202	-4,888	298,167	145,687
202,217	-4,738	297,799	145,646
203,232	-4,789	297,627	145,497
204,246	-4,746	297,281	145,358
205,261	-4,706	297,140	145,317
206,275	-4,887	297,103	145,104
207,290	-4,791	296,782	145,031
208,304	-4,708	296,727	145,074
209,319	-4,523	296,388	145,081
210,334	-4,659	296,028	144,756
211,348	-4,787	295,965	144,584
212,363	-4,743	295,796	144,532
213,377	-4,714	295,559	144,432
214,392	-4,739	295,426	144,329
215,407	-4,699	295,209	144,251
216,421	-4,866	295,128	144,032
217,436	-4,725	294,654	143,928
218,450	-4,892	294,495	143,671
219,465	-4,926	294,461	143,608
220,480	-4,807	294,247	143,610
221,494	-4,762	294,024	143,532
222,509	-4,788	293,738	143,354
223,523	-4,850	293,740	143,280
224,538	-4,854	293,444	143,119
225,553	-4,853	293,272	143,024
226,567	-4,677	292,927	143,017
227,582	-4,704	292,931	142,979
228,596	-4,710	292,726	142,861
229,611	-4,713	292,474	142,722
230,626	-4,768	292,418	142,627
231,640	-4,801	292,097	142,426
232,655	-4,668	291,871	142,433
233,669	-4,789	291,687	142,212
234,684	-4,651	291,588	142,288
235,699	-4,635	291,305	142,152
236,713	-4,677	291,099	141,998
237,728	-4,617	290,955	141,974
238,742	-4,684	290,868	141,853
239,757	-4,817	290,419	141,491
240,772	-4,818	290,333	141,435
241,786	-4,944	290,252	141,259
242,801	-4,761	289,992	141,300
243,815	-4,470	289,684	141,422
244,830	-4,678	289,614	141,172
245,844	-4,742	289,372	140,978
246,859	-4,674	289,182	140,939
247,874	-4,692	289,069	140,854
248,888	-4,876	288,812	140,537
249,903	-4,708	288,519	140,546
250,917	-4,936	288,448	140,277
251,932	-4,871	288,246	140,229
252,947	-5,066	287,930	139,874
253,961	-5,488	287,628	139,305
254,976	-5,892	287,241	138,713
255,990	-5,653	287,262	138,943
257,005	-3,783	287,786	140,999
258,020	-1,381	288,546	143,693
259,034	-0,055	288,936	145,163
260,049	0,245	288,894	145,421
261,063	0,812	289,000	146,011
262,078	1,044	288,798	146,121
263,093	1,447	288,911	146,556
264,107	1,640	288,748	146,648
265,122	1,937	288,592	146,843
266,136	1,832	288,381	146,621
267,151	1,934	288,250	146,641
268,166	1,988	288,021	146,563
269,180	2,079	287,809	146,530
270,195	1,968	287,719	146,364
271,209	2,013	287,481	146,273
272,224	2,030	287,349	146,209
273,239	1,952	287,174	146,033
274,253	1,897	286,850	145,801
275,268	1,979	286,799	145,841
276,282	1,784	286,611	145,546
277,297	1,904	286,266	145,472
278,312	1,841	286,143	145,337
279,326	1,727	286,126	145,206
280,341	1,879	285,837	145,192
281,355	1,782	285,601	144,966
282,370	1,898	285,373	144,948
283,384	1,836	285,185	144,781
284,399	1,778	285,035	144,636
285,414	1,728	284,851	144,483
286,428	1,636	284,762	144,336
287,443	1,919	284,372	144,395
288,457	1,723	284,296	144,158
289,472	1,643	284,209	144,024
290,487	1,749	283,948	143,980
291,501	1,716	283,596	143,758
292,516	1,618	283,444	143,575
293,530	1,728	283,273	143,579
294,545	1,756	283,086	143,498
295,560	1,708	282,886	143,338
296,574	1,639	282,754	143,194
297,589	1,668	282,484	143,071
298,603	1,655	282,215	142,910
299,618	1,671	282,150	142,880
300,633	1,809	282,044	142,943
301,647	1,709	281,946	142,786
302,662	1,901	281,574	142,767
303,676	1,801	281,456	142,600
304,691	1,871	281,209	142,528
305,706	1,761	281,156	142,385
306,720	1,894	281,043	142,440
307,735	1,871	280,756	142,260
308,749	1,857	280,689	142,200
309,764	1,814	280,433	142,018
310,779	1,944	280,249	142,033
311,793	1,906	279,947	141,833
312,808	1,854	279,896	141,745
313,822	1,900	279,718	141,685
314,837	1,739	279,639	141,482
315,852	1,792	279,421	141,408
316,866	1,887	279,216	141,381
317,881	1,901	278,957	141,251
318,895	1,924	278,700	141,130
319,910	1,998	278,413	141,040
320,925	1,857	278,434	140,906
321,939	1,794	278,332	140,784
322,954	2,031	278,129	140,889
323,968	1,910	277,990	140,694
324,983	1,874	277,862	140,583
325,997	1,739	277,618	140,322
327,012	1,804	277,387	140,253
328,027	2,067	277,062	140,319
329,041	1,927	277,046	140,169
330,056	1,946	276,870	140,085
331,070	1,897	276,756	139,969
332,085	1,983	276,500	139,907
333,100	1,969	276,219	139,740
334,114	1,939	276,093	139,636
335,129	2,008	275,755	139,515
336,143	1,904	275,710	139,385
337,158	1,769	275,706	139,246
338,173	2,027	275,406	139,319
339,187	1,967	275,297	139,197
340,202	1,909	275,107	139,035
341,216	1,987	274,849	138,964
342,231	2,042	274,807	138,980
343,246	2,032	274,481	138,794
344,260	1,930	274,350	138,622
345,275	1,930	274,423	138,646
346,289	1,966	274,144	138,526
347,304	1,988	273,863	138,392
348,319	2,117	273,671	138,400
349,333	1,911	273,335	138,031
350,348	1,817	273,307	137,918
351,362	2,111	273,189	138,114
352,377	1,969	272,983	137,869
353,392	1,917	272,808	137,721
354,406	2,134	272,597	137,799
355,421	191,902	1346,016	1425,920
356,435	154,964	1476,869	1426,022
