DTS Sentinel unit serial number:	SN410029Multiplexer serial number:	ORYXHardware model number:	OX2-SRSoftware version number:	ORYX F/W v4,00 Oryx Data Collector v3.7.2.0data status	okinstallation	B4 Nyhavnadifferential loss correction	single-endedforward channel	channel 2reverse channel	N/Adate	2023/12/16time	06:40:13forward acquisition time	300,00reverse acquisition time	0,00gamma	499,1914k internal	0,3127k external	0,3127temperature offset calibration	1,0000default loss term (dB/km)	0,3820temperature slope calibration	1,0000multiplexer offset coefficient	1,0000multiplexer slope coefficient	1,0000fibre end	0,00T internal ref (°C)	22,31T ext. ref 1 (°C)	7,58T ext. ref 2 (°C)	7,75length (m)	temperature (°C)	Stokes	anti-Stokes-744,400	-75,925	0,085	-0,022
-743,385	77,993	-0,193	0,153
-742,371	560,214	0,080	0,144
-741,356	88,790	-0,109	0,090
-740,342	-200,000	0,002	-0,081
-739,327	-1,600	-0,286	0,149
-738,312	-200,000	-0,005	-0,131
-737,298	61,146	-0,248	0,183
-736,283	-200,000	-0,006	0,082
-735,269	-161,111	-0,247	-0,009
-734,254	-134,605	-0,080	0,007
-733,239	-104,223	-0,340	-0,058
-732,225	-200,000	0,005	-0,145
-731,210	14,217	-0,104	0,060
-730,196	-71,450	0,058	-0,016
-729,181	-61,822	-0,042	-0,013
-728,167	-146,428	0,042	0,003
-727,152	-84,010	-0,019	0,004
-726,137	-105,875	-0,106	0,018
-725,123	800,000	0,023	0,053
-724,108	-200,000	-0,018	0,120
-723,094	371,139	-0,036	-0,054
-722,079	800,000	-0,064	-0,185
-721,064	466,578	-0,028	-0,046
-720,050	222,075	0,029	0,035
-719,035	800,000	-0,042	0,088
-718,021	-200,000	-0,001	0,078
-717,006	800,000	0,024	-0,073
-715,991	-113,280	-0,222	0,032
-714,977	800,000	-0,033	-0,099
-713,962	800,000	-0,012	0,028
-712,948	-108,500	0,075	0,012
-711,933	800,000	0,043	0,095
-710,918	67,228	0,018	0,014
-709,904	-200,000	-0,030	-0,172
-708,889	49,238	-0,066	-0,046
-707,875	54,211	-0,103	-0,073
-706,860	800,000	0,022	0,056
-705,845	333,661	-0,099	0,143
-704,831	387,774	0,061	0,095
-703,816	452,852	0,027	-0,044
-702,802	-119,116	-0,115	0,015
-701,787	93,657	-0,131	-0,110
-700,772	-200,000	0,016	-0,101
-699,758	-114,701	-0,036	-0,005
-698,743	800,000	0,037	-0,117
-697,729	176,670	0,034	-0,037
-696,714	-120,107	-0,132	0,017
-695,699	-200,000	-0,003	0,040
-694,685	6,976	-0,104	0,057
-693,670	-126,418	-0,058	0,006
-692,656	-200,000	0,053	-0,256
-691,641	738,610	-0,018	-0,036
-690,627	800,000	-0,043	0,090
-689,612	-165,497	0,035	-0,001
-688,597	800,000	0,045	-0,136
-687,583	-84,617	-0,154	-0,036
-686,568	-200,000	0,014	0,062
-685,554	-7,375	-0,083	0,042
-684,539	800,000	0,006	-0,018
-683,524	469,526	-0,008	-0,014
-682,510	422,162	0,028	-0,045
-681,495	3,062	-0,051	-0,028
-680,481	-91,157	-0,048	0,010
-679,466	-164,722	-0,163	0,005
-678,451	103,384	-0,084	0,073
-677,437	-200,000	-0,022	-0,162
-676,422	453,898	-0,094	0,155
-675,408	89,508	0,030	-0,025
-674,393	53,496	0,114	0,081
-673,378	-117,639	-0,039	-0,005
-672,364	800,000	-0,068	-0,147
-671,349	-200,000	-0,003	-0,025
-670,335	-200,000	-0,005	0,044
-669,320	-147,776	0,140	-0,009
-668,305	-200,000	0,009	0,199
-667,291	-200,000	0,005	0,055
-666,276	265,836	-0,012	-0,015
-665,262	-200,000	0,014	-0,054
-664,247	-112,274	0,055	-0,008
-663,232	-43,858	0,016	0,006
-662,218	-200,000	-0,017	0,090
-661,203	-200,000	0,032	0,149
-660,189	800,000	0,048	-0,115
-659,174	255,442	-0,042	-0,054
-658,159	-200,000	-0,010	-0,106
-657,145	125,496	0,031	-0,029
-656,130	-29,154	0,049	0,021
-655,116	570,572	-0,072	0,131
-654,101	145,944	0,035	0,035
-653,086	-93,621	-0,119	-0,024
-652,072	-150,260	0,106	-0,006
-651,057	-64,317	-0,122	0,037
-650,043	487,266	0,033	0,056
-649,028	-200,000	0,013	-0,111
-648,014	16,838	-0,115	-0,067
-646,999	196,265	-0,062	0,070
-645,984	39,290	-0,041	-0,027
-644,970	-73,755	-0,139	-0,037
-643,955	-200,000	-0,003	-0,055
-642,941	-200,000	-0,019	-0,159
-641,926	42,569	0,018	-0,012
-640,911	-200,000	-0,001	-0,032
-639,897	-200,000	0,028	-0,171
-638,882	300,935	0,068	-0,093
-637,868	136,312	-0,008	-0,008
-636,853	800,000	-0,044	-0,106
-635,838	-200,000	0,004	0,026
-634,824	800,000	-0,009	-0,027
-633,809	41,501	-0,039	-0,026
-632,795	-200,000	-0,000	0,012
-631,780	272,589	0,035	0,046
-630,765	87,982	0,065	0,053
-629,751	-200,000	-0,004	0,168
-628,736	86,601	-0,066	0,054
-627,722	-171,785	-0,075	0,002
-626,707	334,346	0,101	0,145
-625,692	-200,000	0,019	0,215
-624,678	800,000	0,040	-0,131
-623,663	111,066	-0,083	0,074
-622,649	41,427	-0,088	0,059
-621,634	-50,866	0,073	-0,025
-620,619	11,806	-0,146	-0,083
-619,605	-200,000	0,046	0,172
-618,590	570,524	-0,089	0,161
-617,576	114,673	-0,063	0,057
-616,561	578,609	-0,004	0,008
-615,546	-48,157	-0,199	-0,071
-614,532	146,910	-0,022	0,022
-613,517	-200,000	-0,015	0,055
-612,503	800,000	-0,043	0,102
-611,488	373,835	-0,078	0,118
-610,474	26,535	0,054	0,034
-609,459	18,426	-0,074	0,043
-608,444	528,818	0,027	0,047
-607,430	-200,000	0,005	0,065
-606,415	-90,520	0,017	-0,004
-605,401	-151,117	-0,129	0,007
-604,386	0,515	0,029	-0,015
-603,371	301,522	0,007	0,010
-602,357	184,434	-0,058	0,063
-601,342	336,700	-0,019	0,028
-600,328	800,000	0,008	-0,022
-599,313	-12,156	-0,019	-0,009
-598,298	114,406	-0,106	0,096
-597,284	587,069	0,041	0,075
-596,269	-157,610	-0,132	-0,006
-595,255	82,070	-0,113	0,091
-594,240	-160,840	-0,117	0,005
-593,225	34,574	0,050	-0,032
-592,211	29,168	0,009	-0,006
-591,196	-157,557	-0,105	-0,005
-590,182	145,206	0,034	0,034
-589,167	800,000	-0,055	0,120
-588,152	92,966	-0,044	-0,037
-587,138	-66,189	0,025	-0,007
-586,123	-80,960	-0,057	-0,014
-585,109	800,000	0,062	-0,149
-584,094	-73,918	0,105	-0,028
-583,079	111,811	-0,086	0,077
-582,065	-37,202	-0,108	0,043
-581,050	-200,000	-0,002	0,039
-580,036	-200,000	-0,029	0,114
-579,021	-95,967	0,101	-0,020
-578,006	81,816	0,072	-0,058
-576,992	72,402	0,053	-0,041
-575,977	41,922	-0,063	0,042
-574,963	-200,000	-0,032	0,111
-573,948	-200,000	0,015	0,060
-572,934	327,612	0,054	0,077
-571,919	-200,000	0,028	-0,142
-570,904	627,303	-0,084	0,157
-569,890	-61,125	0,104	0,032
-568,875	-200,000	-0,002	-0,043
-567,861	191,905	-0,055	0,062
-566,846	196,648	-0,040	0,045
-565,831	51,584	-0,019	-0,013
-564,817	-200,000	-0,008	-0,104
-563,802	800,000	0,057	-0,119
-562,788	517,419	-0,070	0,122
-561,773	-200,000	-0,003	-0,170
-560,758	273,480	0,049	0,064
-559,744	800,000	-0,008	-0,023
-558,729	258,561	0,027	0,034
-557,715	317,005	0,045	-0,063
-556,700	-200,000	0,030	-0,118
-555,685	120,058	0,137	0,126
-554,671	-200,000	0,015	-0,097
-553,656	281,608	0,096	-0,128
-552,642	800,000	-0,014	0,037
-551,627	-194,757	-0,102	-0,001
-550,612	733,373	0,020	0,040
-549,598	75,260	-0,027	-0,021
-548,583	-200,000	0,033	-0,139
-547,569	-96,922	0,022	-0,004
-546,554	-200,000	-0,016	-0,051
-545,539	15,261	0,084	-0,049
-544,525	-200,000	0,025	0,095
-543,510	167,653	-0,071	0,074
-542,496	-125,039	0,032	0,004
-541,481	-36,911	-0,224	-0,088
-540,466	-200,000	0,024	-0,122
-539,452	-9,952	0,087	0,043
-538,437	-112,775	0,199	-0,029
-537,423	-124,765	-0,129	0,015
-536,408	800,000	0,023	-0,067
-535,393	493,437	0,065	-0,111
-534,379	-200,000	0,003	-0,057
-533,364	214,843	0,077	-0,090
-532,350	585,600	-0,019	-0,035
-531,335	-200,000	-0,022	0,129
-530,321	776,553	0,093	0,189
-529,306	-200,000	-0,024	0,116
-528,291	800,000	0,027	0,062
-527,277	-87,821	0,135	-0,030
-526,262	800,000	0,046	-0,115
-525,248	-20,931	-0,103	0,047
-524,233	-200,000	-0,003	-0,061
-523,218	34,651	0,072	0,047
-522,204	-200,000	-0,040	0,167
-521,189	69,977	0,028	0,021
-520,175	-200,000	0,014	-0,075
-519,160	344,943	-0,002	-0,003
-518,145	160,457	0,037	0,038
-517,131	800,000	-0,051	-0,110
-516,116	311,109	0,088	-0,123
-515,102	67,113	0,044	0,033
-514,087	-71,112	-0,080	-0,022
-513,072	800,000	-0,060	0,128
-512,058	800,000	0,020	0,054
-511,043	13,041	0,112	-0,064
-510,029	-42,214	0,054	0,020
-509,014	226,498	-0,058	0,069
-507,999	133,901	0,045	-0,043
-506,985	30,673	0,058	0,036
-505,970	-64,394	0,062	-0,018
-504,956	-200,000	-0,030	-0,134
-503,941	5,059	-0,052	-0,028
-502,926	576,400	0,090	0,162
-501,912	10,419	0,128	-0,072
-500,897	248,314	0,029	-0,037
-499,883	462,344	-0,052	-0,085
-498,868	506,499	0,067	-0,116
-497,853	249,452	-0,104	-0,130
-496,839	800,000	-0,066	0,211
-495,824	346,054	0,090	0,131
-494,810	-8,241	0,040	-0,020
-493,795	-82,422	0,044	-0,010
-492,781	122,010	-0,084	-0,077
-491,766	-40,169	-0,093	-0,035
-490,751	246,748	0,067	-0,083
-489,737	-161,882	0,063	-0,002
-488,722	-35,596	-0,067	0,027
-487,708	309,067	0,026	0,036
-486,693	231,296	0,113	0,137
-485,678	39,469	-0,021	0,014
-484,664	19,724	-0,071	-0,042
-483,649	98,786	-0,156	0,133
-482,635	252,678	0,044	-0,056
-481,620	70,546	0,057	0,044
-480,605	800,000	-0,013	0,029
-479,591	-68,282	0,060	-0,017
-478,576	-200,000	0,006	0,024
-477,562	-200,000	-0,040	-0,206
-476,547	800,000	0,020	-0,048
-475,532	-59,484	0,039	-0,012
-474,518	-25,463	0,045	0,019
-473,503	-13,511	0,035	0,017
-472,489	695,165	0,080	0,154
-471,474	418,172	0,012	0,019
-470,459	217,959	-0,094	0,111
-469,445	-200,000	0,011	-0,069
-468,430	91,897	0,012	-0,010
-467,416	324,361	-0,037	-0,052
-466,401	-200,000	0,017	-0,069
-465,386	-36,088	0,103	-0,041
-464,372	-77,332	0,057	-0,014
-463,357	800,000	-0,036	-0,075
-462,343	366,385	0,017	-0,025
-461,328	800,000	-0,041	-0,128
-460,313	800,000	-0,023	0,055
-459,299	-0,954	0,067	0,035
-458,284	653,965	0,060	0,115
-457,270	-29,785	0,149	0,062
-456,255	18,984	-0,151	-0,089
-455,241	-200,000	-0,006	0,135
-454,226	-102,555	0,080	0,014
-453,211	800,000	-0,009	0,027
-452,197	715,133	-0,068	-0,133
-451,182	40,869	0,148	0,098
-450,168	17,607	-0,059	-0,035
-449,153	-200,000	0,012	0,108
-448,138	390,275	-0,049	-0,075
-447,124	-3,404	-0,127	-0,065
-446,109	234,526	0,080	-0,097
-445,095	-63,979	0,041	0,012
-444,080	800,000	0,107	0,249
-443,065	194,521	0,082	0,091
-442,051	663,716	0,052	-0,099
-441,036	114,977	-0,125	-0,112
-440,022	314,464	-0,040	-0,056
-439,007	-30,938	0,017	0,007
-437,992	800,000	0,063	0,163
-436,978	-200,000	0,033	0,163
-435,963	-200,000	0,014	0,110
-434,949	760,712	0,097	0,194
-433,934	-18,522	-0,062	0,028
-432,919	-200,000	0,017	-0,097
-431,905	-116,957	0,106	0,014
-430,890	-200,000	-0,014	0,163
-429,876	51,043	-0,088	0,061
-428,861	10,440	0,102	0,057
-427,846	77,748	-0,045	0,035
-426,832	397,598	-0,025	-0,039
-425,817	-87,638	0,040	0,009
-424,803	-200,000	0,002	-0,031
-423,788	-7,490	0,118	0,059
-422,773	-200,000	-0,011	0,229
-421,759	350,509	0,050	0,074
-420,744	-51,725	-0,062	0,021
-419,730	787,601	0,038	0,076
-418,715	12,642	-0,129	-0,073
-417,701	-45,409	0,199	0,072
-416,686	-200,000	-0,009	0,062
-415,671	-200,000	0,021	0,113
-414,657	6,681	0,037	0,020
-413,642	175,390	0,054	0,058
-412,628	-150,140	-0,157	-0,009
-411,613	-160,565	-0,024	0,001
-410,598	-45,879	0,137	-0,049
-409,584	72,756	0,070	0,053
-408,569	-200,000	-0,008	0,068
-407,555	-134,581	-0,172	0,015
-406,540	211,560	0,054	0,062
-405,525	423,073	-0,066	0,104
-404,511	-200,000	-0,011	-0,105
-403,496	-69,909	-0,160	-0,044
-402,482	-108,182	-0,073	0,012
-401,467	-68,954	0,040	0,011
-400,452	-97,238	0,046	-0,009
-399,438	-200,000	0,012	-0,049
-398,423	-33,668	-0,049	0,020
-397,409	-200,000	-0,041	-0,000
-396,394	-157,421	-0,141	0,006
-395,379	106,321	-0,110	-0,096
-394,365	-200,000	0,013	-0,145
-393,350	53,461	0,106	-0,075
-392,336	-78,822	0,068	0,017
-391,321	-40,559	-0,139	-0,053
-390,306	50,129	0,064	0,045
-389,292	800,000	-0,047	0,099
-388,277	800,000	-0,023	0,047
-387,263	800,000	0,015	-0,041
-386,248	800,000	-0,067	-0,212
-385,233	-46,644	0,088	0,031
-384,219	-200,000	0,024	-0,079
-383,204	-51,734	-0,004	0,001
-382,190	-200,000	0,007	0,023
-381,175	185,304	0,031	-0,033
-380,160	-200,000	-0,046	0,181
-379,146	165,031	0,064	0,067
-378,131	45,315	0,100	0,068
-377,117	-152,879	-0,046	0,002
-376,102	33,436	-0,070	-0,044
-375,088	-8,947	0,132	-0,065
-374,073	-94,109	-0,116	0,023
-373,058	-49,281	0,216	0,075
-372,044	-200,000	-0,006	0,063
-371,029	800,000	0,030	0,072
-370,015	-200,000	-0,002	0,103
-369,000	-173,419	0,043	0,001
-367,985	-200,000	0,003	-0,035
-366,971	264,424	-0,090	-0,115
-365,956	-103,251	0,089	0,015
-364,942	8,690	-0,028	-0,015
-363,927	-74,983	-0,115	0,030
-362,912	-200,000	0,019	-0,130
-361,898	-131,531	0,067	0,006
-360,883	-200,000	-0,036	-0,181
-359,869	800,000	0,059	-0,153
-358,854	-200,000	-0,007	-0,140
-357,839	19,354	0,060	-0,035
-356,825	104,576	0,042	0,036
-355,810	328,977	-0,009	0,013
-354,796	188,624	-0,061	-0,067
-353,781	155,945	0,099	-0,100
-352,766	-140,097	-0,087	-0,007
-351,752	21,325	-0,020	0,012
-350,737	159,995	0,097	0,099
-349,723	-8,173	0,048	-0,023
-348,708	75,180	0,049	0,038
-347,693	15,707	-0,015	-0,009
-346,679	800,000	-0,019	0,042
-345,664	-200,000	0,001	0,067
-344,650	-200,000	0,006	-0,032
-343,635	-42,648	0,049	-0,018
-342,620	335,006	0,065	-0,092
-341,606	-121,442	0,096	-0,012
-340,591	467,446	-0,022	0,037
-339,577	277,536	0,057	-0,074
-338,562	800,000	-0,060	-0,150
-337,548	263,527	-0,101	0,128
-336,533	268,057	0,075	-0,097
-335,518	-77,679	-0,130	-0,033
-334,504	-200,000	-0,004	0,060
-333,489	663,508	0,006	0,011
-332,475	-78,007	-0,124	0,031
-331,460	55,795	0,089	0,063
-330,445	35,038	0,060	0,038
-329,431	-200,000	-0,001	-0,045
-328,416	30,397	0,151	0,094
-327,402	-191,475	0,098	0,001
-326,387	19,105	0,087	-0,051
-325,372	45,660	0,119	0,080
-324,358	2,090	-0,075	0,040
-323,343	-121,070	-0,075	-0,009
-322,329	157,125	0,073	0,074
-321,314	-89,848	0,055	-0,012
-320,299	93,080	-0,081	-0,067
-319,285	-30,691	0,082	0,034
-318,270	-127,248	-0,080	0,008
-317,256	-200,000	0,011	-0,068
-316,241	800,000	-0,018	0,050
-315,226	52,319	-0,082	-0,057
-314,212	-200,000	0,007	0,041
-313,197	399,178	-0,044	-0,067
-312,183	210,693	0,041	0,048
-311,168	140,165	-0,055	-0,054
-310,153	-200,000	-0,013	-0,050
-309,139	-200,000	0,019	-0,099
-308,124	27,351	-0,054	0,033
-307,110	-73,809	0,080	0,021
-306,095	193,279	-0,098	0,109
-305,080	26,427	-0,086	0,052
-304,066	76,798	-0,068	0,053
-303,051	-67,327	-0,095	-0,027
-302,037	782,237	-0,037	-0,074
-301,022	-200,000	0,029	-0,114
-300,008	-20,627	0,092	0,041
-298,993	397,090	0,025	-0,039
-297,978	64,075	-0,104	-0,076
-296,964	56,538	0,069	0,049
-295,949	244,386	-0,093	-0,114
-294,935	-200,000	0,007	-0,122
-293,920	-200,000	-0,034	-0,150
-292,905	329,344	0,032	0,046
-291,891	-82,683	0,110	-0,026
-290,876	-200,000	-0,013	0,083
-289,862	-200,000	-0,026	0,113
-288,847	-156,351	-0,148	0,007
-287,832	-64,750	-0,063	-0,019
-286,818	-200,000	0,002	-0,164
-285,803	-21,939	-0,021	0,009
-284,789	69,184	0,095	0,071
-283,774	0,362	-0,008	-0,004
-282,759	141,996	-0,113	0,110
-281,745	-165,815	-0,020	0,001
-280,730	48,265	-0,038	-0,026
-279,716	514,254	0,050	0,086
-278,701	277,027	-0,059	0,077
-277,686	544,614	-0,080	0,141
-276,672	-8,389	-0,042	0,021
-275,657	32,882	0,021	-0,013
-274,643	136,292	-0,129	-0,123
-273,628	800,000	0,045	-0,121
-272,613	419,083	0,069	-0,108
-271,599	-200,000	0,020	0,069
-270,584	800,000	0,045	0,135
-269,570	-200,000	-0,021	0,098
-268,555	261,704	0,040	-0,051
-267,540	-200,000	-0,026	0,103
-266,526	800,000	-0,031	-0,081
-265,511	800,000	0,024	0,059
-264,497	-76,794	0,161	-0,041
-263,482	-200,000	-0,041	0,171
-262,467	-200,000	-0,041	0,184
-261,453	150,002	0,037	0,036
-260,438	-43,917	-0,087	-0,032
-259,424	38,756	0,017	-0,011
-258,409	-200,000	-0,018	-0,095
-257,395	143,604	0,030	-0,029
-256,380	-94,857	0,160	-0,031
-255,365	683,214	-0,019	0,036
-254,351	800,000	-0,030	-0,077
-253,336	424,278	-0,018	0,028
-252,322	-200,000	0,024	-0,116
-251,307	-200,000	-0,063	-0,223
-250,292	800,000	-0,055	-0,122
-249,278	-19,010	0,123	0,056
-248,263	361,080	-0,043	0,063
-247,249	-200,000	-0,022	0,085
-246,234	88,162	-0,050	0,041
-245,219	-28,831	0,080	-0,033
-244,205	800,000	0,048	-0,128
-243,190	-200,000	-0,005	-0,017
-242,176	-132,505	0,125	-0,012
-241,161	800,000	0,015	-0,037
-240,146	-3,616	-0,057	0,029
-239,132	181,438	0,048	0,051
-238,117	177,547	0,029	0,031
-237,103	800,000	-0,013	-0,033
-236,088	49,488	-0,035	-0,024
-235,073	-200,000	0,024	0,082
-234,059	81,602	0,075	0,059
-233,044	42,165	-0,083	0,055
-232,030	79,460	-0,040	0,032
-231,015	-168,608	-0,058	0,002
-230,000	-200,000	-0,004	-0,126
-228,986	-65,718	-0,071	0,020
-227,971	197,860	0,080	0,090
-226,957	-200,000	0,009	0,115
-225,942	-43,811	0,061	0,022
-224,927	800,000	0,020	0,057
-223,913	800,000	-0,074	0,181
-222,898	-200,000	-0,015	-0,133
-221,884	-200,000	0,019	-0,117
-220,869	72,893	0,022	0,017
-219,855	-105,484	0,101	0,017
-218,840	-63,030	-0,038	-0,011
-217,825	252,376	0,085	-0,106
-216,811	800,000	-0,026	-0,055
-215,796	133,337	-0,056	0,053
-214,782	800,000	-0,062	-0,160
-213,767	-200,000	0,007	-0,074
-212,752	-123,199	-0,102	-0,012
-211,738	-200,000	0,003	-0,097
-210,723	546,095	0,047	0,083
-209,709	800,000	-0,060	-0,130
-208,694	-60,939	0,163	-0,050
-207,679	318,628	-0,097	-0,134
-206,665	507,934	-0,061	-0,104
-205,650	213,272	0,080	0,092
-204,636	-25,530	0,023	-0,010
-203,621	151,876	-0,086	0,086
-202,606	-74,502	0,056	-0,015
-201,592	112,251	-0,078	-0,069
-200,577	-46,728	0,065	-0,023
-199,563	65,706	0,056	0,041
-198,548	5,751	0,062	-0,033
-197,533	-182,339	0,151	-0,002
-196,519	47,622	0,089	-0,060
-195,504	8,771	-0,082	-0,045
-194,490	618,458	-0,056	-0,102
-193,475	-200,000	0,021	0,112
-192,460	-78,513	0,070	-0,017
-191,446	5,017	-0,128	-0,068
-190,431	360,216	0,125	0,182
-189,417	11,157	-0,051	0,029
-188,402	142,973	0,087	0,084
-187,387	-96,524	-0,133	-0,025
-186,373	-52,981	0,168	-0,056
-185,358	69,479	-0,069	-0,051
-184,344	-59,711	0,105	-0,033
-183,329	-77,734	0,084	-0,021
-182,315	-5,679	-0,039	-0,019
-181,300	-200,000	-0,028	-0,091
-180,285	109,643	-0,021	-0,019
-179,271	800,000	-0,046	-0,097
-178,256	113,445	-0,041	0,036
-177,242	-31,075	0,144	-0,059
-176,227	136,618	-0,103	-0,098
-175,212	234,990	0,049	-0,059
-174,198	-200,000	-0,027	-0,091
-173,183	800,000	-0,027	0,060
-172,169	800,000	-0,016	0,045
-171,154	-200,000	0,024	0,080
-170,139	800,000	-0,040	-0,090
-169,125	-200,000	0,017	0,115
-168,110	276,178	-0,044	0,057
-167,096	-50,024	-0,138	-0,047
-166,081	-200,000	0,027	-0,102
-165,066	-200,000	0,025	-0,097
-164,052	87,291	-0,130	-0,105
-163,037	320,812	0,028	0,039
-162,023	-37,436	-0,050	-0,019
-161,008	433,667	0,013	0,020
-159,993	-79,520	-0,161	-0,039
-158,979	120,258	-0,102	-0,092
-157,964	-200,000	-0,001	-0,094
-156,950	-113,093	-0,105	-0,015
-155,935	545,729	0,064	-0,111
-154,920	-200,000	0,002	0,095
-153,906	280,970	-0,044	-0,057
-152,891	11,846	0,025	0,014
-151,877	-75,132	0,114	-0,029
-150,862	-200,000	-0,002	-0,022
-149,847	-200,000	-0,036	-0,116
-148,833	95,601	-0,022	0,019
-147,818	-200,000	-0,012	0,062
-146,804	-79,663	0,211	-0,051
-145,789	-94,639	0,145	0,028
-144,775	800,000	-0,025	0,052
-143,760	-200,000	-0,001	-0,025
-142,745	-200,000	-0,003	-0,039
-141,731	49,177	0,089	-0,061
-140,716	-200,000	-0,010	0,065
-139,702	-200,000	0,034	0,140
-138,687	-154,854	-0,157	-0,007
-137,672	-200,000	0,005	0,038
-136,658	426,312	-0,055	-0,087
-135,643	-200,000	-0,022	-0,151
-134,629	-88,417	-0,076	0,016
-133,614	-200,000	0,010	0,194
-132,599	-45,143	0,053	-0,019
-131,585	800,000	-0,007	0,017
-130,570	-200,000	-0,017	-0,079
-129,556	86,397	0,007	0,006
-128,541	-200,000	0,002	-0,148
-127,526	670,020	0,022	0,042
-126,512	239,307	-0,075	-0,091
-125,497	-200,000	0,023	-0,077
-124,483	-10,211	0,036	0,017
-123,468	-17,331	-0,106	-0,048
-122,453	-200,000	0,003	-0,086
-121,439	234,181	-0,024	0,029
-120,424	-96,280	-0,036	0,007
-119,410	-200,000	0,019	-0,064
-118,395	-200,000	0,042	0,175
-117,380	50,983	0,148	0,102
-116,366	800,000	-0,034	0,075
-115,351	-200,000	0,009	-0,079
-114,337	-80,359	-0,173	-0,042
-113,322	646,656	0,077	0,143
-112,307	33,718	0,058	0,037
-111,293	47,745	0,078	0,053
-110,278	188,759	0,110	0,119
-109,264	-97,499	-0,061	0,011
-108,249	-200,000	0,005	0,016
-107,234	-200,000	-0,052	-0,203
-106,220	684,164	-0,011	0,020
-105,205	-200,000	0,008	-0,041
-104,191	-200,000	-0,023	0,093
-103,176	-99,541	0,070	0,013
-102,162	-200,000	-0,016	0,088
-101,147	-7,374	0,076	0,037
-100,132	-183,315	-0,057	0,001
-99,118	800,000	0,032	0,076
-98,103	67,547	0,031	0,023
-97,089	138,909	0,113	0,108
-96,074	17,507	-0,077	0,045
-95,059	-200,000	-0,004	0,115
-94,045	-200,000	-0,003	-0,058
-93,030	655,742	-0,033	-0,063
-92,016	288,541	-0,019	0,025
-91,001	107,672	-0,123	-0,106
-89,986	337,943	0,088	-0,124
-88,972	-10,291	0,127	-0,061
-87,957	655,382	0,016	-0,031
-86,943	-200,000	-0,008	-0,185
-85,928	800,000	-0,029	0,070
-84,913	800,000	0,015	-0,033
-83,899	-200,000	-0,026	-0,150
-82,884	-154,190	0,202	-0,010
-81,870	153,275	0,009	-0,009
-80,855	-200,000	0,020	-0,150
-79,840	-70,525	0,153	0,042
-78,826	44,757	0,025	-0,016
-77,811	75,629	-0,110	0,084
-76,797	17,104	-0,054	-0,031
-75,782	-200,000	0,009	-0,117
-74,767	155,656	-0,043	-0,043
-73,753	-200,000	-0,006	0,091
-72,738	800,000	-0,032	0,091
-71,724	800,000	-0,035	-0,078
-70,709	800,000	-0,013	0,029
-69,694	-50,924	-0,023	-0,008
-68,680	800,000	0,057	-0,140
-67,665	-62,905	0,084	0,025
-66,651	328,636	0,023	0,032
-65,636	212,920	0,021	0,024
-64,622	59,658	0,038	-0,027
-63,607	422,205	0,019	-0,030
-62,592	-200,000	0,013	-0,196
-61,578	800,000	0,059	0,140
-60,563	800,000	-0,051	0,119
-59,549	249,224	-0,088	0,109
-58,534	-149,949	-1,403	-0,078
-57,519	800,000	-0,734	-1,484
-56,505	-200,000	-0,982	-4,454
-55,490	12,855	0,500	-0,279
-54,476	800,000	4,779	11,531
-53,461	-200,000	13,679	251,384
-52,446	-200,000	689,898	2247,801
-51,432	590,650	1619,931	2907,846
-50,417	119,163	1631,637	1462,349
-49,403	74,207	1286,347	977,796
-48,388	38,152	1022,522	658,048
-47,373	24,317	980,466	585,614
-46,359	23,562	969,927	576,826
-45,344	22,539	965,800	571,018
-44,330	22,537	964,164	570,018
-43,315	22,378	962,841	568,699
-42,300	22,314	961,679	567,783
-41,286	22,374	960,862	567,472
-40,271	22,326	960,096	566,841
-39,257	22,316	959,014	566,147
-38,242	22,300	957,987	565,467
-37,227	22,341	957,111	565,059
-36,213	22,273	956,381	564,388
-35,198	22,250	955,442	563,736
-34,184	22,300	954,995	563,613
-33,169	22,337	953,989	563,115
-32,154	22,321	953,077	562,501
-31,140	22,387	952,175	562,158
-30,125	22,437	951,150	561,691
-29,111	22,396	950,447	561,125
-28,096	22,346	949,996	560,675
-27,082	22,371	949,213	560,270
-26,067	22,344	948,427	559,697
-25,052	22,377	947,460	559,209
-24,038	22,233	947,206	558,580
-23,023	22,324	946,439	558,395
-22,009	22,373	945,698	558,091
-20,994	22,421	944,979	557,798
-19,979	22,436	944,414	557,490
-18,965	22,325	943,964	556,848
-17,950	22,349	943,190	556,446
-16,936	22,304	942,532	555,893
-15,921	22,283	941,783	555,362
-14,906	22,271	941,065	554,878
-13,892	22,244	940,473	554,421
-12,877	22,236	939,923	554,051
-11,863	22,191	939,379	553,565
-10,848	22,207	938,771	553,238
-9,833	22,332	938,454	553,423
-8,819	22,329	937,531	552,849
-7,804	22,235	936,876	552,142
-6,790	22,196	936,533	551,795
-5,775	22,290	935,625	551,535
-4,760	22,238	935,138	551,061
-3,746	22,283	934,608	550,870
-2,731	22,110	933,963	549,923
-1,717	22,059	933,107	549,236
-0,702	22,083	932,370	548,857
0,313	21,829	931,842	548,576
1,327	24,346	929,515	555,049
2,342	32,024	807,817	503,132
3,356	27,165	508,188	308,221
4,371	3,240	372,632	195,700
5,386	0,178	355,529	182,960
6,400	-1,170	349,165	178,050
7,415	-2,012	346,346	175,593
8,429	-2,263	344,928	174,561
9,444	-2,269	343,986	174,062
10,459	-2,364	343,432	173,654
11,473	-2,268	342,675	173,369
12,488	-1,881	342,416	173,678
13,502	-2,074	341,971	173,210
14,517	-1,929	341,173	172,960
15,531	-2,235	340,669	172,331
16,546	-2,230	340,124	172,046
17,561	-2,279	339,876	171,848
18,575	-2,212	339,382	171,660
19,590	-2,418	339,026	171,225
20,604	-2,246	338,888	171,341
21,619	-2,279	338,392	171,036
22,634	-2,106	337,872	170,959
23,648	-2,307	337,613	170,579
24,663	-2,245	337,263	170,459
25,677	-2,260	336,990	170,289
26,692	-2,247	336,769	170,177
27,707	-2,234	336,427	170,004
28,721	-2,253	336,037	169,770
29,736	-2,294	335,806	169,590
30,750	-2,251	335,560	169,501
31,765	-2,234	335,166	169,307
32,780	-2,017	334,871	169,392
33,794	-2,389	334,714	168,869
34,809	-2,213	334,308	168,852
35,823	-2,175	333,986	168,718
36,838	-2,066	333,582	168,624
37,853	-2,239	333,522	168,380
38,867	-2,221	333,136	168,191
39,882	-2,279	332,916	167,998
40,896	-2,295	332,554	167,782
41,911	-2,281	332,262	167,636
42,926	-2,197	331,864	167,517
43,940	-2,440	331,820	167,202
44,955	-2,440	331,494	167,023
45,969	-2,503	331,247	166,812
46,984	-2,582	330,973	166,569
47,999	-2,694	330,479	166,179
49,013	-2,853	330,429	165,959
50,028	-2,913	330,019	165,670
51,042	-3,091	329,853	165,370
52,057	-2,987	329,438	165,265
53,071	-2,926	329,182	165,191
54,086	-2,915	328,949	165,071
55,101	-2,923	328,884	165,015
56,115	-2,663	328,731	165,217
57,130	-2,221	328,379	165,523
58,144	-2,075	328,220	165,592
59,159	-2,043	327,974	165,489
60,174	-2,108	327,859	165,344
61,188	-2,148	327,515	165,110
62,203	-2,319	327,291	164,791
63,217	-2,098	326,861	164,807
64,232	-2,264	326,824	164,587
65,247	-2,078	326,448	164,593
66,261	-1,968	326,255	164,603
67,276	-2,387	325,886	163,935
68,290	-2,503	325,512	163,603
69,305	-2,318	325,256	163,665
70,320	-2,501	325,243	163,440
71,334	-2,326	324,913	163,454
72,349	-2,022	324,572	163,606
73,363	-2,030	324,537	163,565
74,378	-2,066	324,261	163,371
75,393	-2,248	324,015	163,031
76,407	-2,211	323,679	162,888
77,422	-2,172	323,557	162,856
78,436	-2,148	323,297	162,736
79,451	-2,201	323,000	162,515
80,466	-2,242	322,593	162,249
81,480	-2,276	322,125	161,963
82,495	-2,395	321,876	161,691
83,509	-2,369	321,819	161,677
84,524	-2,527	321,732	161,445
85,539	-2,518	321,430	161,289
86,553	-2,394	321,034	161,212
87,568	-2,444	320,779	161,015
88,582	-2,493	320,750	160,932
89,597	-2,433	320,431	160,824
90,611	-2,310	320,153	160,805
91,626	-2,193	320,104	160,894
92,641	-2,228	319,709	160,642
93,655	-2,256	319,416	160,451
94,670	-2,355	319,222	160,231
95,684	-2,399	319,032	160,073
96,699	-2,458	318,809	159,883
97,714	-2,533	318,548	159,656
98,728	-2,443	318,183	159,556
99,743	-2,579	318,048	159,327
100,757	-2,662	317,714	159,055
101,772	-2,567	317,594	159,084
102,787	-2,554	317,396	158,985
103,801	-2,393	317,082	158,988
104,816	-2,465	317,010	158,860
105,830	-2,214	316,939	159,082
106,845	-2,246	316,659	158,892
107,860	-2,382	316,397	158,599
108,874	-2,406	316,202	158,461
109,889	-2,206	315,941	158,532
110,903	-2,312	315,477	158,171
111,918	-2,420	315,321	157,962
112,933	-2,388	315,031	157,837
113,947	-2,383	315,022	157,825
114,962	-2,256	314,787	157,829
115,976	-2,241	314,457	157,666
116,991	-2,321	314,326	157,500
118,006	-2,312	313,924	157,294
119,020	-2,273	313,938	157,328
120,035	-2,298	313,817	157,228
121,049	-2,085	313,419	157,242
122,064	-2,118	313,401	157,183
123,079	-2,297	313,072	156,813
124,093	-2,399	312,740	156,525
125,108	-2,610	312,603	156,217
126,122	-2,733	312,175	155,858
127,137	-2,695	311,779	155,687
128,151	-2,639	311,739	155,713
129,166	-2,453	311,636	155,845
130,181	-2,618	311,347	155,511
131,195	-2,661	311,216	155,387
132,210	-2,329	311,002	155,617
133,224	-2,350	310,750	155,456
134,239	-2,310	310,532	155,374
135,254	-2,288	310,484	155,360
136,268	-2,413	310,174	155,059
137,283	-2,664	309,839	154,613
138,297	-2,575	309,414	154,481
139,312	-2,664	309,133	154,233
140,327	-2,457	309,250	154,496
141,341	-1,982	309,136	154,925
142,356	-2,011	308,894	154,760
143,370	-1,858	308,834	154,876
144,385	-1,912	308,567	154,671
145,400	-2,058	308,266	154,353
146,414	-1,916	308,113	154,412
147,429	-2,076	307,885	154,117
148,443	-1,903	307,627	154,155
149,458	-1,975	307,358	153,932
150,473	-2,109	307,260	153,728
151,487	-1,966	307,041	153,755
152,502	-1,946	306,843	153,662
153,516	-1,931	306,601	153,543
154,531	-1,955	306,282	153,345
155,546	-1,829	306,024	153,332
156,560	-2,073	305,941	153,024
157,575	-2,165	305,734	152,811
158,589	-2,112	305,404	152,687
159,604	-2,065	305,357	152,700
160,619	-1,983	305,019	152,601
161,633	-2,028	304,757	152,410
162,648	-2,113	304,711	152,286
163,662	-2,033	304,560	152,279
164,677	-2,149	304,232	151,982
165,692	-2,126	304,122	151,937
166,706	-1,837	303,846	152,084
167,721	-1,953	303,651	151,853
168,735	-2,072	303,451	151,616
169,750	-1,967	303,401	151,686
170,764	-1,903	303,301	151,689
171,779	-1,621	302,982	151,805
172,794	-1,830	302,845	151,508
173,808	-2,008	302,525	151,153
174,823	-2,468	302,186	150,498
175,837	-2,460	301,898	150,350
176,852	-2,123	301,857	150,660
177,867	-1,861	301,855	150,915
178,881	-1,917	301,564	150,699
179,896	-1,745	301,417	150,787
180,910	-1,740	301,313	150,727
181,925	-1,951	300,974	150,328
182,940	-1,833	300,841	150,369
183,954	-1,884	300,555	150,161
184,969	-1,943	300,331	149,976
185,983	-1,977	300,331	149,927
186,998	-2,104	299,961	149,600
188,013	-1,985	299,725	149,590
189,027	-1,899	299,587	149,594
190,042	-1,734	299,267	149,589
191,056	-1,894	299,161	149,360
192,071	-1,748	298,973	149,401
193,086	-1,724	298,760	149,305
194,100	-1,777	298,559	149,139
195,115	-1,861	298,287	148,904
196,129	-1,766	297,991	148,840
197,144	-1,879	298,036	148,735
198,159	-1,844	297,681	148,579
199,173	-1,707	297,530	148,629
200,188	-1,549	297,214	148,617
201,202	-1,953	296,931	148,056
202,217	-2,346	296,590	147,478
203,232	-2,532	296,407	147,188
204,246	-2,057	296,313	147,604
205,261	-1,830	296,255	147,789
206,275	-1,657	295,754	147,699
207,290	-1,907	295,901	147,509
208,304	-1,863	295,585	147,382
209,319	-1,767	295,287	147,317
210,334	-1,851	295,165	147,159
211,348	-1,973	295,107	146,995
212,363	-1,866	294,857	146,964
213,377	-1,889	294,673	146,836
214,392	-1,871	294,437	146,724
215,407	-1,981	294,162	146,464
216,421	-2,114	293,893	146,185
217,436	-2,145	293,833	146,112
218,450	-2,123	293,566	145,988
219,465	-2,004	293,480	146,050
220,480	-2,016	293,368	145,969
221,494	-2,028	293,152	145,837
222,509	-2,048	292,914	145,685
223,523	-1,819	292,666	145,775
224,538	-1,798	292,613	145,757
225,553	-1,698	292,350	145,711
226,567	-1,694	292,244	145,650
227,582	-1,685	292,042	145,545
228,596	-1,778	292,056	145,447
229,611	-1,791	291,838	145,313
230,626	-1,641	291,441	145,249
231,640	-2,078	291,189	144,681
232,655	-2,453	290,860	144,137
233,669	-2,370	290,501	144,028
234,684	-2,451	290,306	143,839
235,699	-2,531	290,301	143,746
236,713	-2,200	290,151	143,982
237,728	-2,077	289,879	143,955
238,742	-2,210	289,915	143,830
239,757	-2,034	289,758	143,911
240,772	-1,984	289,592	143,865
241,786	-1,972	289,302	143,720
242,801	-1,991	289,076	143,576
243,815	-1,998	288,936	143,487
244,830	-2,149	288,795	143,257
245,844	-2,219	288,634	143,096
246,859	-2,231	288,415	142,963
247,874	-2,075	288,121	142,956
248,888	-2,216	287,793	142,644
249,903	-1,814	287,841	143,044
250,917	-1,877	287,704	142,903
251,932	-1,679	287,609	143,035
252,947	-1,189	287,591	143,488
253,961	-1,771	287,150	142,692
254,976	-0,849	287,696	143,843
255,990	1,651	288,382	146,599
257,005	2,598	288,585	147,606
258,020	3,981	288,972	149,133
259,034	4,171	288,844	149,237
260,049	4,020	288,557	148,929
261,063	3,865	288,296	148,632
262,078	4,157	288,176	148,839
263,093	4,648	288,165	149,294
264,107	4,548	288,147	149,175
265,122	4,524	288,031	149,078
266,136	4,728	287,836	149,161
267,151	4,648	287,578	148,936
268,166	4,744	287,277	148,860
269,180	4,493	287,201	148,566
270,195	4,707	286,854	148,578
271,209	4,551	286,840	148,408
272,224	4,388	286,643	148,136
273,239	4,335	286,422	147,958
274,253	4,332	286,211	147,833
275,268	4,871	286,077	148,267
276,282	4,801	285,975	148,134
277,297	4,507	285,652	147,673
278,312	4,906	285,679	148,054
279,326	4,807	285,460	147,833
280,341	4,654	285,179	147,529
281,355	4,471	284,878	147,185
282,370	4,594	284,628	147,160
283,384	4,461	284,469	146,938
284,399	4,445	284,496	146,924
285,414	4,390	284,221	146,716
286,428	4,283	284,015	146,496
287,443	4,208	283,676	146,237
288,457	4,125	283,351	145,977
289,472	3,963	283,433	145,853
290,487	4,353	283,104	146,040
291,501	4,087	282,816	145,626
292,516	3,878	282,569	145,289
293,530	3,991	282,376	145,283
294,545	4,301	282,345	145,547
295,560	4,265	282,393	145,525
296,574	3,950	282,094	145,061
297,589	4,104	281,927	145,107
298,603	4,555	281,859	145,484
299,618	4,564	281,841	145,470
300,633	4,321	281,451	145,027
301,647	4,336	281,231	144,915
302,662	4,359	281,062	144,837
303,676	4,165	280,815	144,514
304,691	3,968	280,512	144,161
305,706	3,798	280,424	143,944
306,720	3,750	280,146	143,743
307,735	3,945	280,005	143,841
308,749	4,028	280,006	143,905
309,764	4,214	279,783	143,952
310,779	4,015	279,404	143,559
311,793	3,928	279,219	143,370
312,808	3,933	279,139	143,320
313,822	4,054	278,808	143,250
314,837	3,827	278,739	142,991
315,852	3,890	278,525	142,927
316,866	3,782	278,430	142,765
317,881	4,019	278,192	142,850
318,895	3,857	278,107	142,644
319,910	3,816	277,835	142,454
320,925	3,801	277,487	142,249
321,939	3,730	277,368	142,109
322,954	4,063	277,267	142,353
323,968	4,173	277,072	142,341
324,983	4,094	277,049	142,244
325,997	4,244	276,810	142,246
327,012	4,309	276,695	142,235
328,027	4,195	276,581	142,059
329,041	4,165	276,357	141,903
330,056	4,150	276,320	141,858
331,070	4,046	276,033	141,602
332,085	3,937	275,824	141,383
333,100	4,047	275,728	141,422
334,114	4,104	275,552	141,371
335,129	3,823	275,309	140,977
336,143	3,876	275,101	140,906
337,158	4,374	274,893	141,242
338,173	4,260	274,804	141,079
339,187	3,938	274,683	140,711
340,202	4,104	274,463	140,737
341,216	4,026	274,319	140,580
342,231	4,148	274,121	140,577
343,246	4,166	273,866	140,449
344,260	4,017	273,761	140,248
345,275	4,214	273,537	140,299
346,289	4,588	273,550	140,634
347,304	4,598	273,342	140,524
348,319	4,147	273,110	139,982
349,333	4,126	272,968	139,878
350,348	4,325	272,871	139,996
351,362	4,448	272,614	139,963
352,377	4,465	272,360	139,837
353,392	4,456	272,210	139,738
354,406	4,462	272,237	139,745
355,421	192,113	1330,392	1410,257
356,435	155,230	1459,405	1410,380
