DTS Sentinel unit serial number:	SN410029Multiplexer serial number:	ORYXHardware model number:	OX2-SRSoftware version number:	ORYX F/W v4,00 Oryx Data Collector v3.7.2.0data status	okinstallation	B4 Nyhavnadifferential loss correction	single-endedforward channel	channel 2reverse channel	N/Adate	2023/12/19time	12:40:13forward acquisition time	300,00reverse acquisition time	0,00gamma	499,1914k internal	0,3128k external	0,3128temperature offset calibration	1,0000default loss term (dB/km)	0,3820temperature slope calibration	1,0000multiplexer offset coefficient	1,0000multiplexer slope coefficient	1,0000fibre end	0,00T internal ref (°C)	19,52T ext. ref 1 (°C)	4,35T ext. ref 2 (°C)	4,31length (m)	temperature (°C)	Stokes	anti-Stokes-744,400	-122,477	0,182	-0,022
-743,385	-85,175	-0,225	0,052
-742,371	-55,468	0,143	-0,047
-741,356	-7,952	-0,245	0,122
-740,342	24,536	-0,075	0,046
-739,327	-138,648	-0,149	-0,012
-738,312	-30,001	-0,064	-0,027
-737,298	-98,896	-0,273	0,051
-736,283	-74,606	0,159	0,042
-735,269	270,999	-0,160	0,209
-734,254	800,000	-0,035	-0,082
-733,239	-152,430	-0,420	0,022
-732,225	-130,729	0,104	0,010
-731,210	-106,130	-0,139	0,023
-730,196	-109,951	0,077	0,012
-729,181	-151,081	-0,113	-0,006
-728,167	8,377	-0,084	0,047
-727,152	-77,827	0,088	0,022
-726,137	-200,000	-0,029	-0,118
-725,123	25,849	-0,077	-0,048
-724,108	10,515	-0,090	0,051
-723,094	78,857	-0,109	-0,087
-722,079	-200,000	0,032	-0,138
-721,064	-115,538	-0,135	-0,019
-720,050	30,197	0,072	-0,046
-719,035	15,770	-0,165	-0,096
-718,021	8,522	-0,179	0,100
-717,006	712,809	-0,060	-0,118
-715,991	-200,000	0,021	-0,098
-714,977	107,997	0,094	-0,083
-713,962	-200,000	-0,028	-0,161
-712,948	569,480	0,080	0,144
-711,933	255,150	-0,017	0,021
-710,918	24,411	-0,072	-0,044
-709,904	-12,599	0,043	0,021
-708,889	331,248	-0,025	0,036
-707,875	21,689	-0,124	-0,075
-706,860	800,000	0,017	0,055
-705,845	-52,636	0,114	0,039
-704,831	219,555	0,075	0,090
-703,816	625,747	-0,103	0,195
-702,802	113,527	-0,101	0,091
-701,787	-22,005	-0,091	-0,041
-700,772	800,000	-0,034	-0,088
-699,758	516,774	-0,050	-0,087
-698,743	-200,000	0,007	-0,080
-697,729	17,827	0,121	0,072
-696,714	-200,000	-0,008	0,046
-695,699	-200,000	-0,007	0,025
-694,685	800,000	0,020	-0,066
-693,670	-115,576	-0,046	-0,006
-692,656	-113,866	0,062	0,009
-691,641	800,000	0,047	0,099
-690,627	541,601	0,045	0,079
-689,612	-8,308	-0,186	0,092
-688,597	800,000	0,018	0,050
-687,583	800,000	-0,053	-0,119
-686,568	81,452	-0,073	0,058
-685,554	-200,000	0,020	-0,089
-684,539	322,807	0,015	0,021
-683,524	-40,480	0,045	-0,017
-682,510	800,000	0,064	-0,151
-681,495	800,000	-0,026	-0,082
-680,481	-200,000	0,014	-0,059
-679,466	-63,642	0,060	-0,018
-678,451	-51,765	-0,127	-0,044
-677,437	97,752	0,085	-0,073
-676,422	187,583	0,039	0,043
-675,408	-126,112	-0,062	-0,007
-674,393	-96,442	-0,062	0,012
-673,378	800,000	0,024	0,063
-672,364	-200,000	-0,029	-0,109
-671,349	-46,869	0,127	-0,046
-670,335	520,813	-0,088	0,153
-669,320	800,000	0,053	0,123
-668,305	-199,432	0,006	0,000
-667,291	-106,802	-0,171	-0,028
-666,276	-200,000	0,001	-0,050
-665,262	93,216	-0,111	-0,093
-664,247	800,000	-0,031	-0,069
-663,232	72,914	0,060	-0,046
-662,218	-88,461	-0,056	-0,012
-661,203	-6,736	0,098	0,049
-660,189	-64,218	-0,009	0,003
-659,174	-112,647	-0,071	-0,010
-658,159	-1,284	-0,068	0,036
-657,145	256,077	-0,071	-0,090
-656,130	76,115	-0,035	0,027
-655,116	-200,000	0,000	0,071
-654,101	143,853	0,085	0,084
-653,086	-200,000	0,025	-0,175
-652,072	-49,738	0,138	0,048
-651,057	222,268	0,062	0,074
-650,043	-153,789	0,036	-0,002
-649,028	122,614	-0,103	-0,095
-648,014	71,545	0,004	-0,003
-646,999	243,248	0,057	0,071
-645,984	12,928	-0,055	-0,032
-644,970	631,780	-0,058	0,109
-643,955	693,209	-0,026	0,051
-642,941	158,055	-0,030	-0,031
-641,926	8,535	0,083	-0,046
-640,911	16,415	0,082	-0,048
-639,897	800,000	-0,032	0,083
-638,882	-83,905	0,169	-0,040
-637,868	167,316	0,056	-0,059
-636,853	9,088	-0,111	-0,062
-635,838	-200,000	0,031	-0,139
-634,824	-200,000	0,010	-0,058
-633,809	800,000	0,024	-0,055
-632,795	-37,711	0,096	0,038
-631,780	-185,830	0,072	0,001
-630,765	81,788	0,060	0,048
-629,751	163,458	-0,087	-0,091
-628,736	-200,000	-0,016	-0,087
-627,722	134,438	-0,056	0,054
-626,707	377,591	-0,026	-0,039
-625,692	23,706	0,057	-0,034
-624,678	-168,252	0,091	-0,003
-623,663	-200,000	-0,023	-0,120
-622,649	-68,890	-0,142	-0,040
-621,634	-129,767	0,009	0,001
-620,619	-127,428	-0,064	-0,007
-619,605	-91,992	0,159	-0,033
-618,590	173,303	-0,117	0,125
-617,576	0,543	0,209	0,110
-616,561	-200,000	0,041	0,187
-615,546	-100,662	-0,107	-0,019
-614,532	202,132	-0,073	-0,084
-613,517	304,470	-0,049	-0,067
-612,503	-14,941	-0,045	-0,021
-611,488	-131,613	0,124	-0,012
-610,474	-84,692	0,067	0,016
-609,459	-200,000	-0,011	0,061
-608,444	800,000	-0,017	-0,053
-607,430	-126,310	-0,209	0,023
-606,415	23,305	-0,057	-0,035
-605,401	273,050	0,094	-0,123
-604,386	-119,631	0,086	0,011
-603,371	254,732	0,099	-0,126
-602,357	107,784	-0,057	0,050
-601,342	-122,852	-0,197	-0,023
-600,328	-121,718	0,071	-0,009
-599,313	43,915	-0,078	0,053
-598,298	268,374	-0,194	0,253
-597,284	367,715	0,070	0,106
-596,269	-92,656	0,144	0,030
-595,255	60,956	-0,037	0,027
-594,240	-78,265	-0,157	0,040
-593,225	429,806	-0,028	0,045
-592,211	76,176	0,009	-0,007
-591,196	-119,958	-0,127	0,016
-590,182	-36,646	0,096	0,038
-589,167	-142,715	0,070	-0,005
-588,152	800,000	-0,047	0,138
-587,138	-200,000	-0,005	-0,108
-586,123	-200,000	-0,005	-0,068
-585,109	800,000	-0,021	-0,044
-584,094	-39,275	-0,073	-0,028
-583,079	-48,103	-0,032	0,011
-582,065	800,000	0,016	0,040
-581,050	104,237	0,102	0,088
-580,036	-52,400	-0,125	-0,043
-579,021	98,967	-0,033	0,028
-578,006	198,253	-0,103	0,117
-576,992	-200,000	-0,003	-0,012
-575,977	132,253	0,066	-0,063
-574,963	-200,000	0,012	0,085
-573,948	800,000	0,004	0,011
-572,934	-200,000	0,005	-0,077
-571,919	800,000	-0,009	-0,028
-570,904	-55,075	-0,111	0,037
-569,890	207,105	-0,060	-0,069
-568,875	-153,812	-0,072	0,004
-567,861	-200,000	0,030	0,126
-566,846	800,000	0,031	0,071
-565,831	581,905	0,045	-0,082
-564,817	-200,000	0,037	-0,143
-563,802	-200,000	-0,009	-0,031
-562,788	312,225	0,007	-0,010
-561,773	623,456	0,055	0,103
-560,758	-1,109	0,028	-0,015
-559,744	-17,200	0,139	0,064
-558,729	800,000	0,047	0,110
-557,715	-63,405	-0,007	-0,002
-556,700	-108,923	-0,060	0,009
-555,685	-112,557	0,028	0,004
-554,671	-200,000	-0,004	-0,226
-553,656	726,509	-0,011	0,021
-552,642	800,000	-0,039	0,106
-551,627	33,150	-0,055	0,035
-550,612	-8,377	-0,117	-0,058
-549,598	217,252	-0,024	-0,028
-548,583	800,000	0,056	-0,155
-547,569	800,000	-0,002	-0,005
-546,554	-77,411	-0,106	-0,027
-545,539	153,648	-0,077	-0,078
-544,525	99,884	0,051	-0,043
-543,510	-33,754	-0,057	-0,023
-542,496	-200,000	0,031	-0,166
-541,481	-177,255	0,125	-0,002
-540,466	-200,000	0,037	0,126
-539,452	206,891	0,040	0,047
-538,437	-50,297	-0,076	-0,026
-537,423	-66,356	-0,144	0,042
-536,408	-109,344	0,138	0,021
-535,393	615,440	0,057	0,107
-534,379	-200,000	0,017	-0,070
-533,364	427,917	-0,038	-0,061
-532,350	-27,797	0,110	0,047
-531,335	427,893	-0,038	0,061
-530,321	125,355	-0,029	-0,027
-529,306	800,000	0,022	0,070
-528,291	-51,190	0,119	-0,041
-527,277	800,000	-0,046	-0,125
-526,262	685,736	0,031	0,060
-525,248	800,000	0,002	-0,005
-524,233	-200,000	-0,024	0,184
-523,218	-200,000	-0,046	0,000
-522,204	800,000	0,020	0,052
-521,189	-92,821	0,027	0,005
-520,175	-86,899	-0,158	0,035
-519,160	148,767	0,134	-0,134
-518,145	159,721	0,083	0,085
-517,131	246,427	-0,014	0,018
-516,116	-43,422	0,120	0,045
-515,102	122,658	0,099	-0,091
-514,087	77,810	-0,008	-0,006
-513,072	-168,069	0,055	0,002
-512,058	-200,000	0,021	-0,078
-511,043	206,292	0,025	-0,028
-510,029	800,000	-0,009	-0,022
-509,014	-121,717	0,113	-0,014
-507,999	800,000	0,073	0,217
-506,985	-127,758	-0,045	0,005
-505,970	-9,215	0,069	-0,034
-504,956	800,000	0,012	0,038
-503,941	-200,000	-0,021	0,084
-502,926	116,453	-0,009	0,008
-501,912	-200,000	0,006	0,066
-500,897	-125,911	-0,037	0,004
-499,883	99,553	-0,098	0,084
-498,868	-200,000	0,000	0,010
-497,853	83,169	0,024	-0,019
-496,839	-45,384	-0,098	-0,035
-495,824	-30,781	0,079	0,033
-494,810	161,134	-0,031	-0,032
-493,795	800,000	-0,030	0,078
-492,781	234,003	0,030	0,036
-491,766	-200,000	-0,022	-0,179
-490,751	-93,916	-0,107	0,022
-489,737	-133,475	0,110	-0,010
-488,722	-200,000	0,014	0,045
-487,708	800,000	0,028	-0,082
-486,693	101,468	0,088	-0,076
-485,678	800,000	-0,071	-0,165
-484,664	545,956	-0,072	0,127
-483,649	-132,292	-0,079	0,007
-482,635	-42,807	0,047	-0,018
-481,620	-116,170	0,153	-0,021
-480,605	-86,264	0,033	0,007
-479,591	103,795	-0,092	0,080
-478,576	-105,170	0,101	-0,017
-477,562	-130,764	-0,105	0,010
-476,547	800,000	-0,040	-0,089
-475,532	800,000	0,066	-0,165
-474,518	-86,220	-0,080	-0,018
-473,503	-68,057	0,131	0,037
-472,489	800,000	0,046	0,119
-471,474	143,211	0,019	0,019
-470,459	-99,788	0,092	0,017
-469,445	-114,358	-0,167	0,023
-468,430	589,628	-0,071	0,130
-467,416	404,898	-0,092	-0,143
-466,401	-119,642	-0,104	0,013
-465,386	126,190	0,033	-0,031
-464,372	-200,000	0,007	-0,105
-463,357	275,594	0,061	-0,080
-462,343	-51,690	-0,167	0,057
-461,328	742,004	-0,047	0,094
-460,313	-200,000	0,004	-0,125
-459,299	-68,870	-0,169	0,048
-458,284	-104,561	-0,070	-0,012
-457,270	171,062	0,081	0,086
-456,255	143,631	-0,080	-0,078
-455,241	132,134	0,085	-0,081
-454,226	-200,000	-0,005	0,050
-453,211	-73,876	0,145	-0,038
-452,197	-200,000	-0,020	0,152
-451,182	73,685	-0,121	0,093
-450,168	800,000	0,052	0,120
-449,153	-200,000	-0,024	-0,108
-448,138	-35,534	-0,122	-0,048
-447,124	560,137	0,023	-0,041
-446,109	-137,676	0,049	0,004
-445,095	112,588	0,072	-0,064
-444,080	-200,000	0,020	0,095
-443,065	8,038	0,029	0,016
-442,051	15,449	-0,085	0,049
-441,036	-200,000	-0,003	-0,020
-440,022	99,129	-0,132	-0,112
-439,007	800,000	-0,031	-0,064
-437,992	-81,341	-0,024	0,006
-436,978	-200,000	-0,021	0,156
-435,963	800,000	-0,004	0,010
-434,949	186,884	0,018	-0,020
-433,934	-167,283	-0,068	0,002
-432,919	-2,085	0,021	-0,011
-431,905	-200,000	-0,030	-0,137
-430,890	2,137	0,126	-0,067
-429,876	26,453	-0,100	-0,061
-428,861	800,000	0,052	0,126
-427,846	-66,301	-0,044	-0,013
-426,832	800,000	0,036	-0,113
-425,817	-200,000	0,012	-0,124
-424,803	621,811	0,039	-0,073
-423,788	174,844	0,110	0,117
-422,773	-200,000	-0,015	0,172
-421,759	800,000	0,080	0,180
-420,744	304,364	-0,036	-0,050
-419,730	-19,639	-0,113	-0,051
-418,715	-139,623	0,128	0,010
-417,701	-70,774	0,085	-0,023
-416,686	800,000	0,011	-0,027
-415,671	-60,929	0,167	-0,052
-414,657	115,529	0,096	-0,087
-413,642	-50,075	0,028	0,010
-412,628	-200,000	0,004	0,070
-411,613	12,043	-0,031	0,018
-410,598	783,691	-0,094	0,189
-409,584	-110,167	0,109	0,017
-408,569	-64,888	0,047	-0,014
-407,555	-153,353	0,082	0,004
-406,540	-195,832	-0,229	-0,001
-405,525	72,242	-0,040	-0,031
-404,511	451,056	-0,039	0,063
-403,496	157,758	0,073	-0,075
-402,482	-5,670	-0,074	-0,037
-401,467	-200,000	-0,002	0,031
-400,452	237,965	0,077	0,094
-399,438	146,069	0,073	-0,072
-398,423	800,000	-0,010	0,025
-397,409	-200,000	-0,011	-0,114
-396,394	26,082	0,051	0,031
-395,379	562,623	0,057	0,101
-394,365	146,296	0,136	0,134
-393,350	1,946	0,071	-0,038
-392,336	575,705	0,054	0,097
-391,321	800,000	-0,015	-0,047
-390,306	708,380	0,071	-0,139
-389,292	-101,486	-0,093	-0,016
-388,277	-200,000	0,013	0,105
-387,263	89,478	0,088	0,072
-386,248	800,000	0,031	0,085
-385,233	446,455	-0,024	-0,039
-384,219	-0,338	0,035	-0,018
-383,204	371,782	0,063	-0,094
-382,190	203,832	-0,118	-0,134
-381,175	234,453	-0,098	0,118
-380,160	-79,557	0,121	-0,030
-379,146	-200,000	0,020	0,073
-378,131	-91,469	-0,179	0,037
-377,117	54,293	-0,124	-0,088
-376,102	800,000	-0,009	0,024
-375,088	-200,000	0,007	-0,125
-374,073	800,000	-0,040	0,107
-373,058	615,076	-0,070	-0,130
-372,044	-74,928	-0,009	0,002
-371,029	-55,874	-0,086	0,028
-370,015	-200,000	0,008	-0,028
-369,000	-41,066	0,050	0,019
-367,985	-42,984	-0,042	0,016
-366,971	-84,707	0,074	-0,017
-365,956	128,829	-0,044	0,041
-364,942	-130,645	0,090	-0,009
-363,927	414,037	-0,016	0,025
-362,912	-125,279	-0,030	-0,003
-361,898	98,725	0,061	0,051
-360,883	-200,000	-0,006	0,120
-359,869	-174,453	-0,080	0,002
-358,854	-89,739	0,065	0,014
-357,839	-146,627	0,049	0,003
-356,825	-77,938	0,035	-0,009
-355,810	800,000	-0,018	0,040
-354,796	-80,463	-0,126	0,030
-353,781	502,208	0,070	-0,119
-352,766	-200,000	0,005	-0,198
-351,752	-95,389	-0,180	0,035
-350,737	271,629	0,127	0,164
-349,723	-200,000	-0,002	-0,051
-348,708	800,000	-0,031	0,093
-347,693	-18,339	0,052	0,024
-346,679	-200,000	0,002	-0,083
-345,664	617,845	0,076	-0,141
-344,650	-175,968	-0,077	-0,001
-343,635	190,969	-0,092	-0,102
-342,620	-48,940	0,150	-0,052
-341,606	11,364	0,084	-0,047
-340,591	800,000	-0,023	-0,055
-339,577	-111,725	-0,156	0,023
-338,562	800,000	0,023	-0,060
-337,548	800,000	0,042	-0,101
-336,533	-200,000	-0,004	0,078
-335,518	0,865	0,214	0,112
-334,504	-156,273	0,106	0,005
-333,489	-35,186	-0,010	0,004
-332,475	-20,973	-0,095	-0,042
-331,460	-19,337	-0,162	-0,073
-330,445	-15,169	-0,135	-0,063
-329,431	-200,000	-0,002	0,065
-328,416	-69,350	0,187	-0,052
-327,402	-91,722	-0,040	0,008
-326,387	800,000	-0,027	-0,057
-325,372	-123,624	-0,078	0,009
-324,358	-98,140	-0,123	0,023
-323,343	-152,552	-0,058	-0,003
-322,329	-200,000	0,091	0,000
-321,314	-59,888	-0,055	0,017
-320,299	461,436	0,022	-0,037
-319,285	-18,057	0,004	0,002
-318,270	1,217	-0,124	0,065
-317,256	175,590	-0,080	-0,085
-316,241	-114,988	0,144	0,020
-315,226	13,687	0,082	0,046
-314,212	-71,305	-0,087	-0,024
-313,197	800,000	0,011	0,035
-312,183	-200,000	0,011	0,078
-311,168	-22,056	0,037	0,016
-310,153	800,000	-0,019	-0,050
-309,139	783,762	-0,019	0,039
-308,124	478,082	0,029	0,047
-307,110	232,538	0,061	0,073
-306,095	-200,000	0,000	0,070
-305,080	-57,295	-0,090	0,029
-304,066	-200,000	-0,008	-0,145
-303,051	258,476	-0,016	-0,020
-302,037	-200,000	0,030	0,118
-301,022	160,324	-0,030	0,031
-300,008	-35,020	-0,037	-0,015
-298,993	-200,000	0,003	0,098
-297,978	-123,954	0,110	-0,012
-296,964	-200,000	0,014	-0,056
-295,949	-200,000	0,019	0,089
-294,935	-86,537	0,151	-0,034
-293,920	-200,000	0,002	-0,050
-292,905	31,146	0,029	0,018
-291,891	180,510	0,056	-0,060
-290,876	275,062	-0,025	0,032
-289,862	235,150	-0,042	0,050
-288,847	-105,935	0,138	0,023
-287,832	-19,779	0,039	-0,018
-286,818	-48,253	-0,056	-0,020
-285,803	-101,842	0,111	-0,020
-284,789	28,648	0,146	-0,090
-283,774	800,000	0,016	0,045
-282,759	10,240	-0,224	0,124
-281,745	-136,455	-0,176	0,015
-280,730	-84,533	0,050	-0,012
-279,716	-116,453	0,185	-0,025
-278,701	237,974	0,108	0,131
-277,686	-53,662	-0,041	0,014
-276,672	214,319	-0,050	0,058
-275,657	272,426	0,060	0,077
-274,643	800,000	0,020	-0,043
-273,628	31,767	-0,079	-0,050
-272,613	800,000	0,026	-0,069
-271,599	800,000	0,042	0,132
-270,584	13,567	0,054	0,031
-269,570	28,491	-0,069	0,043
-268,555	-155,927	-0,102	0,005
-267,540	206,473	-0,008	0,009
-266,526	708,097	-0,073	-0,141
-265,511	407,890	0,062	0,096
-264,497	800,000	0,050	-0,155
-263,482	-129,707	0,076	0,008
-262,467	156,217	0,040	-0,040
-261,453	-10,299	-0,084	0,041
-260,438	260,425	-0,005	-0,006
-259,424	800,000	0,023	-0,047
-258,409	-36,690	-0,104	-0,041
-257,395	396,794	0,038	-0,058
-256,380	800,000	-0,020	-0,061
-255,365	-16,492	0,125	-0,058
-254,351	800,000	-0,012	0,027
-253,336	-74,347	-0,066	-0,017
-252,322	21,240	-0,078	0,046
-251,307	506,522	-0,042	-0,072
-250,292	699,998	-0,027	-0,053
-249,278	-165,634	0,051	-0,002
-248,263	584,075	-0,011	-0,020
-247,249	288,862	0,044	0,059
-246,234	-79,887	-0,175	-0,043
-245,219	800,000	0,015	0,044
-244,205	77,602	-0,094	0,073
-243,190	-200,000	-0,005	0,033
-242,176	56,677	0,107	0,076
-241,161	-103,546	0,060	-0,010
-240,146	-33,924	-0,114	-0,045
-239,132	-200,000	0,029	-0,162
-238,117	41,477	-0,064	-0,043
-237,103	-60,089	-0,197	-0,061
-236,088	-200,000	-0,014	-0,065
-235,073	-191,756	0,133	-0,001
-234,059	75,836	0,109	-0,084
-233,044	-163,559	0,098	-0,003
-232,030	800,000	-0,070	0,217
-231,015	800,000	0,012	-0,033
-230,000	-180,446	-0,042	-0,001
-228,986	242,883	-0,092	-0,113
-227,971	800,000	-0,043	0,102
-226,957	-200,000	-0,003	-0,026
-225,942	268,472	0,013	0,017
-224,927	101,342	0,037	0,032
-223,913	-200,000	-0,031	-0,106
-222,898	-200,000	0,018	-0,085
-221,884	-200,000	0,082	0,000
-220,869	536,397	-0,117	0,203
-219,855	-200,000	0,000	0,042
-218,840	100,560	-0,029	-0,024
-217,825	-200,000	-0,035	-0,138
-216,811	29,242	-0,029	0,018
-215,796	-74,232	-0,115	-0,030
-214,782	800,000	-0,048	0,107
-213,767	-200,000	0,015	0,065
-212,752	455,813	0,025	-0,041
-211,738	-200,000	0,025	0,091
-210,723	-22,443	0,069	-0,030
-209,709	-200,000	-0,004	-0,020
-208,694	163,407	-0,092	-0,095
-207,679	-200,000	0,020	0,085
-206,665	172,479	-0,069	-0,073
-205,650	554,500	-0,033	0,058
-204,636	-141,798	-0,089	-0,006
-203,621	-200,000	0,000	0,236
-202,606	0,667	0,049	-0,026
-201,592	800,000	0,035	-0,096
-200,577	-200,000	0,014	-0,091
-199,563	-0,451	-0,059	0,030
-198,548	-38,307	0,060	0,023
-197,533	551,441	0,104	0,182
-196,519	800,000	0,110	0,251
-195,504	-200,000	-0,008	-0,028
-194,490	-150,124	-0,102	0,006
-193,475	-200,000	0,007	-0,062
-192,460	800,000	0,049	-0,112
-191,446	-84,900	0,106	0,024
-190,431	182,375	0,015	0,016
-189,417	800,000	-0,023	0,050
-188,402	800,000	0,033	-0,079
-187,387	-62,236	-0,083	-0,025
-186,373	-102,559	-0,165	-0,028
-185,358	-56,010	-0,034	-0,011
-184,344	317,139	0,101	0,139
-183,329	14,790	0,098	-0,055
-182,315	7,721	-0,027	0,015
-181,300	-200,000	0,019	-0,061
-180,285	-200,000	0,029	-0,211
-179,271	-200,000	-0,015	-0,075
-178,256	-128,197	-0,043	-0,004
-177,242	680,118	0,070	0,133
-176,227	-82,974	0,008	0,002
-175,212	-21,258	0,007	0,003
-174,198	124,168	-0,042	0,039
-173,183	90,256	-0,142	-0,115
-172,169	-200,000	0,001	-0,100
-171,154	-200,000	0,016	-0,190
-170,139	800,000	-0,014	0,037
-169,125	222,291	0,045	0,053
-168,110	316,673	0,070	0,097
-167,096	800,000	0,029	-0,062
-166,081	293,781	-0,044	0,058
-165,066	-113,212	-0,038	-0,005
-164,052	238,499	0,061	0,074
-163,037	282,228	0,021	0,028
-162,023	-36,933	0,073	0,028
-161,008	167,801	0,088	-0,092
-159,993	48,234	-0,088	-0,060
-158,979	-200,000	0,005	-0,079
-157,964	-200,000	-0,019	-0,062
-156,950	4,884	-0,110	0,059
-155,935	-129,962	0,071	-0,007
-154,920	-157,742	0,088	-0,004
-153,906	169,822	0,061	0,064
-152,891	-200,000	-0,036	0,252
-151,877	-21,441	-0,063	-0,028
-150,862	129,323	-0,046	-0,043
-149,847	800,000	-0,026	-0,068
-148,833	800,000	-0,009	-0,029
-147,818	41,144	0,086	-0,056
-146,804	86,825	-0,064	-0,051
-145,789	-200,000	-0,006	0,211
-144,775	-18,897	-0,111	0,050
-143,760	165,422	-0,098	-0,101
-142,745	193,194	0,039	-0,043
-141,731	-200,000	-0,011	0,054
-140,716	-200,000	-0,003	0,058
-139,702	-200,000	0,025	0,125
-138,687	-200,000	-0,001	-0,049
-137,672	4,303	0,126	-0,067
-136,658	-59,669	-0,113	0,035
-135,643	-0,294	-0,138	-0,071
-134,629	102,855	-0,027	-0,023
-133,614	800,000	0,026	0,057
-132,599	-200,000	-0,013	0,084
-131,585	-32,296	0,189	-0,076
-130,570	253,856	0,068	-0,085
-129,556	259,293	-0,085	-0,107
-128,541	-200,000	-0,040	-0,136
-127,526	280,443	0,054	-0,071
-126,512	-200,000	0,003	-0,059
-125,497	-78,749	0,115	0,028
-124,483	158,544	-0,081	0,082
-123,468	-85,930	-0,104	-0,023
-122,453	34,177	-0,055	-0,035
-121,439	-161,615	0,093	0,003
-120,424	-34,401	0,062	-0,025
-119,410	800,000	0,051	-0,164
-118,395	-200,000	-0,013	0,041
-117,380	-128,666	0,095	0,010
-116,366	-200,000	-0,004	0,045
-115,351	800,000	-0,039	-0,083
-114,337	-34,919	0,052	0,020
-113,322	-200,000	-0,007	-0,115
-112,307	-200,000	-0,055	0,202
-111,293	180,596	0,155	0,165
-110,278	-70,396	-0,044	-0,012
-109,264	455,248	-0,027	0,044
-108,249	-200,000	0,031	-0,110
-107,234	-200,000	0,016	0,113
-106,220	-51,900	-0,125	0,042
-105,205	607,819	0,051	0,092
-104,191	-19,606	0,032	0,014
-103,176	83,939	0,094	-0,075
-102,162	24,758	0,051	-0,030
-101,147	187,309	-0,131	0,142
-100,132	101,794	0,040	0,034
-99,118	-70,537	0,086	0,023
-98,103	-41,772	0,144	0,053
-97,089	58,022	0,054	0,038
-96,074	800,000	0,029	-0,085
-95,059	401,101	0,032	0,049
-94,045	137,092	0,024	0,023
-93,030	-57,260	0,046	-0,015
-92,016	768,730	-0,046	-0,092
-91,001	-200,000	0,003	0,121
-89,986	-27,194	0,150	0,063
-88,972	-102,970	-0,130	0,022
-87,957	-200,000	0,031	-0,147
-86,943	-200,000	0,001	0,116
-85,928	-129,507	-0,026	0,003
-84,913	800,000	-0,023	-0,060
-83,899	1,465	0,027	-0,014
-82,884	-200,000	0,008	0,088
-81,870	496,019	0,042	-0,070
-80,855	-200,000	-0,003	-0,035
-79,840	172,364	-0,012	0,013
-78,826	30,343	-0,105	-0,065
-77,811	-131,146	-0,217	0,021
-76,797	800,000	0,054	0,117
-75,782	800,000	0,038	0,108
-74,767	-200,000	0,006	0,047
-73,753	248,600	0,043	0,053
-72,738	267,351	-0,055	0,070
-71,724	184,414	-0,062	-0,067
-70,709	68,020	-0,104	0,077
-69,694	800,000	0,037	-0,082
-68,680	-200,000	0,018	-0,073
-67,665	75,648	0,144	-0,110
-66,651	-4,272	0,037	-0,018
-65,636	9,179	0,031	0,017
-64,622	604,212	-0,096	0,173
-63,607	355,424	0,025	0,036
-62,592	-136,607	-0,237	0,020
-61,578	107,711	-0,027	0,023
-60,563	59,646	-0,085	0,061
-59,549	528,995	0,021	-0,036
-58,534	-54,615	-1,612	-0,525
-57,519	693,711	-0,737	-1,408
-56,505	-200,000	-0,916	-4,512
-55,490	-133,748	0,574	0,051
-54,476	800,000	4,911	11,712
-53,461	-200,000	15,154	269,409
-52,446	-200,000	696,011	2250,780
-51,432	588,898	1616,599	2897,749
-50,417	121,163	1624,945	1465,423
-49,403	82,904	1281,813	1008,912
-48,388	37,512	1022,427	655,656
-47,373	22,268	983,312	580,375
-46,359	21,266	972,339	570,583
-45,344	19,787	968,280	563,335
-44,330	19,853	966,690	562,605
-43,315	19,654	965,133	561,025
-42,300	19,513	964,065	559,924
-41,286	19,591	963,011	559,542
-40,271	19,593	962,131	559,018
-39,257	19,600	961,267	558,514
-38,242	19,566	960,382	557,867
-37,227	19,573	959,707	557,475
-36,213	19,558	958,816	556,888
-35,198	19,538	957,837	556,234
-34,184	19,558	957,152	555,877
-33,169	19,570	956,135	555,302
-32,154	19,639	955,098	554,902
-31,140	19,549	954,499	554,241
-30,125	19,484	953,768	553,586
-29,111	19,537	952,828	553,190
-28,096	19,561	952,120	552,834
-27,082	19,537	951,497	552,372
-26,067	19,524	950,780	551,892
-25,052	19,559	950,007	551,533
-24,038	19,557	949,285	551,087
-23,023	19,579	948,506	550,683
-22,009	19,663	947,905	550,581
-20,994	19,616	947,211	550,006
-19,979	19,555	946,866	549,589
-18,965	19,549	946,159	549,137
-17,950	19,567	945,490	548,785
-16,936	19,536	944,903	548,323
-15,921	19,493	944,208	547,762
-14,906	19,462	943,421	547,185
-13,892	19,474	942,916	546,907
-12,877	19,423	942,307	546,369
-11,863	19,379	941,558	545,775
-10,848	19,407	941,262	545,671
-9,833	19,534	940,654	545,701
-8,819	19,503	939,896	545,138
-7,804	19,501	939,264	544,746
-6,790	19,398	938,839	544,151
-5,775	19,459	938,198	543,949
-4,760	19,509	937,499	543,681
-3,746	19,455	936,989	543,195
-2,731	19,336	936,242	542,364
-1,717	19,266	935,519	541,700
-0,702	19,258	934,938	541,318
0,313	19,068	934,338	541,188
1,327	21,554	932,101	547,677
2,342	29,152	806,257	494,296
3,356	23,278	506,061	300,239
4,371	-1,021	373,157	190,464
5,386	-3,704	356,373	178,588
6,400	-4,936	350,793	174,287
7,415	-5,266	348,310	172,642
8,429	-5,261	346,958	171,962
9,444	-5,234	346,005	171,506
10,459	-5,174	345,361	171,244
11,473	-5,148	344,671	170,917
12,488	-5,170	344,043	170,565
13,502	-5,279	343,609	170,206
14,517	-5,153	343,271	170,171
15,531	-5,116	342,649	169,891
16,546	-5,152	342,361	169,692
17,561	-5,189	341,877	169,393
18,575	-5,037	341,399	169,319
19,590	-5,110	340,882	168,963
20,604	-5,117	340,822	168,909
21,619	-5,274	340,386	168,494
22,634	-5,105	339,940	168,456
23,648	-5,322	339,576	168,007
24,663	-5,031	339,306	168,198
25,677	-5,147	339,037	167,914
26,692	-5,083	338,734	167,824
27,707	-5,240	338,616	167,567
28,721	-5,139	338,108	167,420
29,736	-5,030	337,735	167,346
30,750	-5,181	337,445	167,012
31,765	-5,142	337,320	166,981
32,780	-4,990	336,906	166,937
33,794	-5,102	336,702	166,692
34,809	-5,041	336,443	166,619
35,823	-4,986	336,082	166,488
36,838	-5,081	335,808	166,229
37,853	-5,051	335,539	166,115
38,867	-5,227	335,334	165,796
39,882	-5,083	335,057	165,810
40,896	-4,984	334,515	165,641
41,911	-5,022	334,360	165,506
42,926	-4,885	333,962	165,451
43,940	-5,195	333,916	165,058
44,955	-5,150	333,605	164,941
45,969	-5,107	333,440	164,895
46,984	-5,021	333,378	164,947
47,999	-4,990	333,060	164,810
49,013	-5,046	332,759	164,583
50,028	-5,102	332,447	164,350
51,042	-5,031	332,061	164,225
52,057	-5,158	331,887	163,980
53,071	-4,951	331,580	164,050
54,086	-5,050	331,310	163,788
55,101	-4,962	331,034	163,738
56,115	-5,114	330,901	163,484
57,130	-5,155	330,667	163,307
58,144	-5,206	330,456	163,131
59,159	-5,062	329,933	163,022
60,174	-5,055	329,724	162,912
61,188	-5,098	329,425	162,701
62,203	-5,080	329,276	162,634
63,217	-5,019	328,952	162,527
64,232	-5,098	328,673	162,286
65,247	-5,232	328,588	162,078
66,261	-4,989	328,097	162,095
67,276	-5,109	327,970	161,883
68,290	-5,119	327,729	161,738
69,305	-5,124	327,358	161,535
70,320	-5,137	327,202	161,430
71,334	-4,995	326,965	161,457
72,349	-5,067	326,614	161,189
73,363	-5,069	326,253	160,994
74,378	-5,208	326,207	160,801
75,393	-5,107	325,891	160,745
76,407	-5,139	325,497	160,500
77,422	-5,096	325,414	160,493
78,436	-5,016	325,192	160,458
79,451	-5,042	324,873	160,257
80,466	-5,229	324,619	159,910
81,480	-5,177	324,380	159,835
82,495	-5,088	324,096	159,780
83,509	-5,168	323,936	159,598
84,524	-5,129	323,772	159,547
85,539	-4,928	323,336	159,540
86,553	-5,169	323,296	159,239
87,568	-5,126	323,038	159,146
88,582	-5,052	322,833	159,112
89,597	-5,013	322,377	158,916
90,611	-5,013	322,258	158,843
91,626	-5,065	322,054	158,672
92,641	-5,091	321,712	158,460
93,655	-5,002	321,564	158,471
94,670	-5,038	321,370	158,322
95,684	-5,043	321,058	158,148
96,699	-5,062	320,786	157,979
97,714	-5,008	320,631	157,948
98,728	-5,053	320,514	157,827
99,743	-5,013	320,259	157,731
100,757	-5,052	319,937	157,516
101,772	-5,085	319,654	157,326
102,787	-5,110	319,616	157,266
103,801	-4,932	319,098	157,192
104,816	-5,187	319,011	156,857
105,830	-5,036	318,739	156,873
106,845	-5,079	318,638	156,763
107,860	-4,991	318,293	156,675
108,874	-5,088	317,983	156,404
109,889	-5,096	317,731	156,256
110,903	-5,292	317,663	155,996
111,918	-4,968	317,473	156,240
112,933	-5,065	317,128	155,951
113,947	-4,907	316,922	156,008
114,962	-5,038	316,742	155,764
115,976	-5,053	316,543	155,636
116,991	-5,075	316,180	155,420
118,006	-4,993	315,900	155,356
119,020	-5,127	315,877	155,187
120,035	-5,148	315,583	155,005
121,049	-4,933	315,430	155,148
122,064	-5,127	315,319	154,871
123,079	-5,078	314,902	154,705
124,093	-5,126	314,736	154,558
125,108	-5,173	314,446	154,352
126,122	-5,028	314,307	154,425
127,137	-5,212	314,187	154,154
128,151	-4,919	313,766	154,248
129,166	-4,953	313,556	154,095
130,181	-5,083	313,466	153,898
131,195	-4,969	313,152	153,852
132,210	-5,016	312,722	153,577
133,224	-5,037	312,683	153,521
134,239	-5,069	312,407	153,338
135,254	-4,824	312,073	153,421
136,268	-4,934	311,895	153,203
137,283	-4,978	311,750	153,072
138,297	-4,988	311,489	152,919
139,312	-5,018	311,243	152,753
140,327	-4,992	310,914	152,606
141,341	-5,020	310,773	152,493
142,356	-5,112	310,693	152,343
143,370	-5,021	310,459	152,311
144,385	-4,906	310,149	152,266
145,400	-4,808	309,872	152,220
146,414	-4,980	309,830	152,004
147,429	-5,028	309,549	151,803
148,443	-5,051	309,322	151,653
149,458	-5,045	309,034	151,505
150,473	-4,994	308,739	151,400
151,487	-5,046	308,603	151,266
152,502	-4,934	308,369	151,255
153,516	-4,984	308,148	151,080
154,531	-4,901	307,969	151,067
155,546	-5,060	307,777	150,792
156,560	-4,913	307,438	150,767
157,575	-5,000	307,300	150,594
158,589	-5,028	307,064	150,436
159,604	-4,900	306,814	150,434
160,619	-4,951	306,634	150,279
161,633	-4,806	306,329	150,267
162,648	-5,032	306,401	150,054
163,662	-4,939	306,091	149,985
164,677	-4,991	305,932	149,840
165,692	-5,004	305,744	149,720
166,706	-4,899	305,414	149,655
167,721	-4,926	305,263	149,539
168,735	-5,025	305,096	149,342
169,750	-4,998	304,874	149,248
170,764	-5,038	304,732	149,124
171,779	-5,131	304,567	148,933
172,794	-5,000	304,420	148,983
173,808	-4,868	304,083	148,942
174,823	-4,938	303,944	148,788
175,837	-5,058	303,653	148,509
176,852	-4,846	303,393	148,587
177,867	-5,056	303,354	148,337
178,881	-5,105	303,037	148,119
179,896	-5,063	302,942	148,103
180,910	-4,862	302,571	148,115
181,925	-4,944	302,422	147,945
182,940	-5,171	302,260	147,618
183,954	-4,999	301,977	147,644
184,969	-4,859	301,968	147,770
185,983	-4,836	301,766	147,682
186,998	-4,767	301,480	147,598
188,013	-4,897	301,370	147,399
189,027	-4,816	301,019	147,297
190,042	-4,898	300,756	147,071
191,056	-4,983	300,563	146,877
192,071	-5,224	300,420	146,549
193,086	-4,988	300,106	146,623
194,100	-5,077	299,898	146,417
195,115	-4,866	299,684	146,514
196,129	-4,853	299,363	146,357
197,144	-4,892	299,290	146,269
198,159	-4,979	299,022	146,037
199,173	-5,165	298,942	145,796
200,188	-4,998	298,624	145,797
201,202	-5,100	298,468	145,605
202,217	-4,688	298,130	145,844
203,232	-5,015	298,054	145,463
204,246	-4,893	297,782	145,440
205,261	-4,854	297,684	145,419
206,275	-4,833	297,335	145,256
207,290	-4,955	297,204	145,056
208,304	-5,037	296,955	144,840
209,319	-4,835	296,776	144,942
210,334	-4,969	296,576	144,697
211,348	-4,927	296,368	144,625
212,363	-4,858	296,103	144,552
213,377	-4,825	296,011	144,527
214,392	-4,936	295,904	144,351
215,407	-4,868	295,676	144,295
216,421	-4,924	295,478	144,129
217,436	-4,939	295,285	144,008
218,450	-4,982	295,023	143,823
219,465	-4,911	294,893	143,818
220,480	-4,968	294,520	143,567
221,494	-4,857	294,406	143,609
222,509	-4,992	294,169	143,347
223,523	-5,019	294,073	143,260
224,538	-4,704	293,664	143,360
225,553	-4,931	293,449	143,018
226,567	-4,873	293,356	143,017
227,582	-4,787	293,289	143,057
228,596	-4,972	293,130	142,784
229,611	-4,913	292,990	142,761
230,626	-4,976	292,718	142,554
231,640	-4,973	292,647	142,510
232,655	-4,859	292,246	142,414
233,669	-4,914	291,978	142,216
234,684	-4,887	291,868	142,176
235,699	-4,871	291,725	142,110
236,713	-5,023	291,440	141,809
237,728	-4,896	291,413	141,908
238,742	-4,920	291,088	141,713
239,757	-5,037	291,005	141,545
240,772	-5,063	290,857	141,435
241,786	-4,954	290,533	141,372
242,801	-4,915	290,317	141,293
243,815	-4,870	290,148	141,242
244,830	-4,924	290,076	141,141
245,844	-5,047	289,913	140,929
246,859	-5,066	289,573	140,733
247,874	-4,944	289,447	140,778
248,888	-4,993	289,285	140,639
249,903	-4,892	288,983	140,578
250,917	-4,993	288,961	140,457
251,932	-5,044	288,684	140,260
252,947	-5,181	288,252	139,904
253,961	-5,539	287,943	139,393
254,976	-5,658	287,762	139,177
255,990	-5,332	287,660	139,432
257,005	-3,813	288,388	141,250
258,020	-1,229	289,107	144,105
259,034	-0,026	289,425	145,422
260,049	0,400	289,356	145,788
261,063	0,946	289,331	146,294
262,078	1,014	289,362	146,362
263,093	1,445	289,178	146,675
264,107	1,774	289,053	146,918
265,122	1,852	289,065	146,986
266,136	1,903	288,915	146,947
267,151	1,862	288,653	146,760
268,166	1,876	288,511	146,689
269,180	1,811	288,262	146,486
270,195	2,028	288,127	146,614
271,209	1,996	288,031	146,522
272,224	1,749	287,817	146,161
273,239	2,049	287,524	146,289
274,253	2,051	287,289	146,158
275,268	1,674	287,274	145,775
276,282	1,782	287,007	145,729
277,297	1,757	286,758	145,566
278,312	1,878	286,680	145,630
279,326	1,792	286,387	145,385
280,341	1,863	286,254	145,374
281,355	1,895	285,957	145,240
282,370	1,940	285,724	145,152
283,384	1,808	285,608	144,954
284,399	1,682	285,466	144,749
285,414	1,816	285,215	144,736
286,428	1,543	284,980	144,344
287,443	1,628	284,935	144,388
288,457	1,684	284,743	144,332
289,472	1,962	284,402	144,411
290,487	1,662	284,287	144,054
291,501	1,544	284,216	143,893
292,516	1,659	283,947	143,853
293,530	1,784	283,680	143,824
294,545	1,545	283,685	143,587
295,560	1,624	283,307	143,457
296,574	1,687	283,111	143,405
297,589	1,571	283,047	143,250
298,603	1,589	282,914	143,187
299,618	1,783	282,518	143,157
300,633	1,859	282,323	143,118
301,647	1,714	282,304	142,959
302,662	1,915	282,055	143,009
303,676	1,654	282,014	142,729
304,691	1,870	281,682	142,752
305,706	1,862	281,630	142,705
306,720	1,795	281,375	142,501
307,735	1,856	281,162	142,436
308,749	1,966	281,078	142,484
309,764	1,900	280,830	142,284
310,779	1,876	280,681	142,174
311,793	1,848	280,461	142,024
312,808	1,725	280,325	141,827
313,822	1,788	280,035	141,727
314,837	1,633	279,935	141,518
315,852	1,769	279,670	141,499
316,866	1,796	279,510	141,430
317,881	1,778	279,393	141,342
318,895	1,780	279,067	141,166
319,910	1,793	279,067	141,166
320,925	1,749	278,885	141,019
321,939	1,749	278,664	140,896
322,954	1,953	278,512	140,996
323,968	1,974	278,475	140,984
324,983	2,106	277,983	140,845
325,997	1,778	278,002	140,538
327,012	1,942	277,773	140,561
328,027	2,036	277,619	140,558
329,041	1,907	277,390	140,311
330,056	2,083	277,260	140,394
331,070	2,145	277,157	140,387
332,085	1,878	276,896	139,996
333,100	1,781	276,686	139,787
334,114	1,827	276,606	139,778
335,129	1,841	276,319	139,633
336,143	1,868	276,249	139,610
337,158	1,861	275,905	139,417
338,173	1,862	275,853	139,380
339,187	1,924	275,628	139,310
340,202	1,893	275,402	139,155
341,216	2,115	275,248	139,268
342,231	1,683	275,231	138,851
343,246	1,902	275,016	138,931
344,260	1,849	274,809	138,766
345,275	1,892	274,633	138,704
346,289	2,198	274,493	138,900
347,304	2,029	274,330	138,651
348,319	1,915	274,112	138,424
349,333	1,978	274,097	138,463
350,348	2,017	273,700	138,284
351,362	1,995	273,594	138,199
352,377	2,057	273,471	138,181
353,392	2,068	273,283	138,084
354,406	1,942	273,048	137,837
355,421	192,707	1346,701	1429,149
356,435	155,655	1477,574	1429,241
