DTS Sentinel unit serial number:	SN410029Multiplexer serial number:	ORYXHardware model number:	OX2-SRSoftware version number:	ORYX F/W v4,00 Oryx Data Collector v3.7.2.0data status	okinstallation	B4 Nyhavnadifferential loss correction	single-endedforward channel	channel 2reverse channel	N/Adate	2023/12/16time	02:00:13forward acquisition time	300,00reverse acquisition time	0,00gamma	499,1914k internal	0,3128k external	0,3128temperature offset calibration	1,0000default loss term (dB/km)	0,3820temperature slope calibration	1,0000multiplexer offset coefficient	1,0000multiplexer slope coefficient	1,0000fibre end	0,00T internal ref (°C)	21,93T ext. ref 1 (°C)	7,19T ext. ref 2 (°C)	7,39length (m)	temperature (°C)	Stokes	anti-Stokes-744,400	479,470	0,027	-0,046
-743,385	-109,475	-0,250	0,039
-742,371	-65,196	0,060	0,018
-741,356	176,058	-0,163	0,177
-740,342	-200,000	0,057	-0,229
-739,327	800,000	-0,106	0,229
-738,312	200,818	0,043	-0,050
-737,298	37,063	-0,209	0,137
-736,283	413,840	0,062	-0,098
-735,269	109,277	-0,169	0,151
-734,254	800,000	-0,039	-0,085
-733,239	-41,869	-0,502	-0,190
-732,225	15,524	-0,051	-0,030
-731,210	16,588	0,027	0,016
-730,196	179,843	-0,009	0,010
-729,181	4,952	-0,097	-0,053
-728,167	-200,000	-0,000	0,082
-727,152	554,946	0,029	0,052
-726,137	193,692	-0,080	-0,090
-725,123	800,000	-0,050	-0,107
-724,108	-90,066	-0,093	0,020
-723,094	455,027	-0,027	-0,045
-722,079	-87,874	0,007	0,002
-721,064	-200,000	0,021	0,074
-720,050	-74,886	-0,118	-0,031
-719,035	-105,394	-0,129	0,022
-718,021	-199,468	0,075	0,000
-717,006	185,992	-0,114	-0,126
-715,991	-200,000	0,005	-0,057
-714,977	458,090	-0,077	-0,127
-713,962	-143,325	0,059	-0,004
-712,948	-122,532	0,030	-0,004
-711,933	441,227	0,014	-0,022
-710,918	664,251	-0,050	-0,096
-709,904	59,093	-0,067	0,049
-708,889	210,256	0,035	-0,041
-707,875	299,700	-0,009	-0,012
-706,860	492,209	0,016	0,027
-705,845	-13,564	-0,098	0,047
-704,831	82,274	0,092	0,074
-703,816	-200,000	-0,023	-0,146
-702,802	12,425	-0,189	-0,108
-701,787	233,795	-0,103	-0,126
-700,772	-135,757	0,108	-0,009
-699,758	800,000	0,036	0,101
-698,743	418,726	-0,053	0,085
-697,729	800,000	-0,046	0,116
-696,714	352,596	-0,058	-0,086
-695,699	-114,627	-0,089	-0,012
-694,685	528,560	-0,049	-0,087
-693,670	-200,000	0,000	-0,058
-692,656	146,950	-0,129	-0,129
-691,641	-42,279	0,077	-0,029
-690,627	-16,897	-0,053	0,025
-689,612	113,741	-0,058	0,052
-688,597	800,000	-0,032	0,086
-687,583	-100,327	-0,093	0,017
-686,568	669,107	-0,020	0,039
-685,554	400,490	0,011	0,017
-684,539	-200,000	-0,023	-0,158
-683,524	-165,099	0,176	0,006
-682,510	-200,000	0,004	0,083
-681,495	165,683	-0,111	-0,116
-680,481	800,000	0,015	-0,032
-679,466	20,686	-0,102	-0,061
-678,451	78,077	-0,092	-0,073
-677,437	-200,000	0,005	0,155
-676,422	-47,659	-0,209	0,075
-675,408	800,000	0,004	-0,009
-674,393	-200,000	0,023	-0,085
-673,378	246,678	-0,036	-0,045
-672,364	118,617	-0,102	-0,093
-671,349	557,943	0,028	0,051
-670,335	111,515	0,055	0,049
-669,320	-200,000	0,032	0,137
-668,305	223,141	-0,073	0,087
-667,291	19,703	-0,073	0,044
-666,276	177,921	0,036	-0,039
-665,262	748,801	0,050	-0,101
-664,247	-61,186	0,122	0,038
-663,232	70,793	0,068	-0,053
-662,218	24,597	0,148	-0,091
-661,203	-91,770	0,071	0,015
-660,189	800,000	-0,023	-0,052
-659,174	84,060	-0,168	-0,136
-658,159	-9,630	-0,068	0,033
-657,145	-101,500	-0,163	0,029
-656,130	302,719	-0,048	0,066
-655,116	151,709	-0,062	0,062
-654,101	-200,000	-0,025	-0,085
-653,086	800,000	-0,040	-0,111
-652,072	800,000	-0,031	-0,088
-651,057	-64,070	-0,210	-0,063
-650,043	-200,000	-0,007	-0,242
-649,028	192,290	-0,023	-0,025
-648,014	-93,273	-0,044	-0,009
-646,999	50,056	0,106	-0,074
-645,984	800,000	0,040	0,120
-644,970	8,640	0,002	0,001
-643,955	-57,997	0,062	-0,020
-642,941	239,462	0,044	0,055
-641,926	-155,129	0,094	0,004
-640,911	-48,361	0,146	0,052
-639,897	-151,631	-0,063	0,003
-638,882	125,174	-0,031	0,029
-637,868	-200,000	0,007	0,034
-636,853	131,650	-0,060	-0,057
-635,838	-21,056	-0,071	-0,032
-634,824	-116,150	-0,018	0,002
-633,809	280,962	-0,070	-0,093
-632,795	421,542	0,070	0,112
-631,780	399,365	0,072	0,112
-630,765	-163,914	0,030	-0,001
-629,751	-200,000	-0,010	-0,051
-628,736	800,000	-0,046	-0,123
-627,722	-200,000	0,004	-0,083
-626,707	611,889	-0,020	-0,037
-625,692	133,146	0,029	-0,027
-624,678	-163,622	-0,046	0,002
-623,663	-53,419	0,070	0,024
-622,649	-168,303	-0,098	-0,003
-621,634	351,883	0,101	-0,149
-620,619	800,000	-0,014	-0,039
-619,605	404,141	0,052	-0,082
-618,590	-120,214	0,040	0,005
-617,576	-24,325	-0,063	0,028
-616,561	-200,000	-0,021	0,185
-615,546	800,000	-0,033	-0,085
-614,532	-200,000	-0,064	-0,239
-613,517	736,542	0,020	-0,040
-612,503	389,049	-0,055	0,084
-611,488	618,106	0,048	-0,090
-610,474	133,430	0,042	-0,040
-609,459	-191,454	-0,097	-0,001
-608,444	-99,540	-0,272	-0,050
-607,430	-200,000	-0,005	-0,138
-606,415	-200,000	0,022	-0,111
-605,401	800,000	0,066	-0,154
-604,386	-55,939	0,177	0,058
-603,371	61,925	0,106	0,078
-602,357	-10,175	-0,098	0,048
-601,342	369,188	0,038	0,057
-600,328	-200,000	0,060	0,211
-599,313	65,857	-0,029	0,022
-598,298	800,000	-0,039	-0,125
-597,284	82,748	0,050	0,040
-596,269	-117,316	0,047	-0,006
-595,255	-200,000	-0,025	0,086
-594,240	-179,068	0,063	-0,001
-593,225	-200,000	0,021	-0,118
-592,211	-200,000	-0,002	-0,017
-591,196	-124,629	-0,013	-0,001
-590,182	-61,380	-0,119	0,037
-589,167	253,913	0,135	0,171
-588,152	110,822	-0,086	-0,077
-587,138	386,808	-0,088	0,134
-586,123	-14,884	-0,065	0,031
-585,109	800,000	0,003	-0,010
-584,094	800,000	0,005	-0,013
-583,079	397,494	0,091	0,141
-582,065	-61,291	0,124	0,038
-581,050	64,521	-0,043	0,032
-580,036	-133,588	-0,091	0,008
-579,021	800,000	-0,087	-0,204
-578,006	-52,772	-0,148	-0,050
-576,992	617,752	-0,068	-0,126
-575,977	-185,474	0,014	-0,000
-574,963	800,000	0,052	0,134
-573,948	260,659	-0,033	-0,043
-572,934	51,365	-0,139	-0,097
-571,919	782,659	-0,041	-0,084
-570,904	-200,000	-0,027	-0,148
-569,890	-200,000	-0,000	-0,078
-568,875	566,269	-0,053	0,095
-567,861	-200,000	-0,000	0,032
-566,846	141,969	0,051	-0,050
-565,831	-39,910	0,025	0,010
-564,817	209,139	-0,086	-0,100
-563,802	-131,179	-0,086	-0,008
-562,788	768,018	0,032	0,064
-561,773	-90,745	0,103	0,022
-560,758	70,172	0,081	0,061
-559,744	-86,479	0,043	0,010
-558,729	-59,061	0,073	-0,023
-557,715	-61,696	0,046	-0,014
-556,700	-192,173	-0,102	-0,001
-555,685	800,000	-0,075	-0,197
-554,671	-142,281	-0,124	-0,009
-553,656	-200,000	0,041	0,138
-552,642	-78,780	0,068	0,017
-551,627	-200,000	0,014	-0,081
-550,612	623,911	0,034	-0,064
-549,598	-200,000	0,009	-0,115
-548,583	292,701	-0,123	0,166
-547,569	-200,000	-0,010	0,055
-546,554	-23,691	-0,077	-0,034
-545,539	800,000	0,054	0,127
-544,525	71,920	-0,043	-0,033
-543,510	107,289	-0,133	0,117
-542,496	66,286	-0,174	-0,130
-541,481	-106,253	-0,134	0,022
-540,466	-200,000	0,017	-0,094
-539,452	123,612	-0,079	-0,073
-538,437	75,063	-0,071	-0,055
-537,423	70,196	-0,116	-0,089
-536,408	-123,402	0,114	-0,013
-535,393	37,753	-0,109	-0,071
-534,379	70,332	-0,100	-0,076
-533,364	-67,506	0,092	0,027
-532,350	-66,223	0,022	-0,006
-531,335	-42,614	0,052	-0,019
-530,321	-82,407	0,120	0,029
-529,306	275,639	0,060	-0,079
-528,291	149,915	0,057	0,057
-527,277	800,000	0,061	0,165
-526,262	-69,339	-0,163	-0,046
-525,248	235,737	-0,021	-0,026
-524,233	-56,397	-0,045	-0,015
-523,218	800,000	0,060	0,155
-522,204	24,284	-0,071	-0,043
-521,189	691,289	-0,040	-0,078
-520,175	80,403	-0,067	0,053
-519,160	-200,000	-0,006	-0,043
-518,145	-145,194	0,142	-0,009
-517,131	142,082	0,057	0,056
-516,116	-188,849	0,117	0,001
-515,102	25,487	-0,033	0,020
-514,087	800,000	-0,012	-0,036
-513,072	-200,000	-0,011	-0,053
-512,058	-34,923	0,068	0,027
-511,043	483,440	0,040	0,067
-510,029	-200,000	0,031	-0,122
-509,014	-131,806	0,125	-0,012
-507,999	114,273	-0,085	0,076
-506,985	85,770	-0,095	-0,077
-505,970	-104,420	0,057	-0,010
-504,956	405,549	-0,063	-0,098
-503,941	-200,000	-0,044	-0,162
-502,926	800,000	-0,012	-0,033
-501,912	708,512	-0,046	0,089
-500,897	-38,225	-0,112	0,044
-499,883	49,169	-0,043	-0,030
-498,868	-80,170	-0,121	0,030
-497,853	-34,916	-0,058	0,023
-496,839	-200,000	-0,002	-0,115
-495,824	-79,435	0,211	-0,052
-494,810	800,000	0,032	-0,092
-493,795	-200,000	0,064	-0,229
-492,781	-200,000	-0,047	-0,189
-491,766	800,000	0,033	-0,073
-490,751	5,056	0,082	-0,044
-489,737	-127,001	0,049	-0,005
-488,722	132,232	0,016	0,015
-487,708	-200,000	-0,021	0,101
-486,693	3,486	-0,127	0,068
-485,678	305,024	0,029	-0,040
-484,664	131,070	-0,100	-0,094
-483,649	54,292	-0,044	-0,031
-482,635	177,777	0,010	0,010
-481,620	90,691	-0,081	0,066
-480,605	252,900	0,033	0,041
-479,591	516,562	-0,071	0,122
-478,576	205,898	-0,082	-0,094
-477,562	173,525	-0,087	-0,093
-476,547	-73,119	-0,093	0,025
-475,532	-200,000	0,005	-0,088
-474,518	-7,988	-0,199	0,099
-473,503	-34,693	0,053	-0,021
-472,489	-151,495	0,129	-0,007
-471,474	800,000	0,030	0,092
-470,459	-177,447	-0,089	0,002
-469,445	215,406	-0,054	-0,063
-468,430	70,795	-0,040	-0,031
-467,416	-200,000	-0,018	0,086
-466,401	70,147	0,034	0,026
-465,386	-9,302	0,059	0,029
-464,372	79,950	0,043	-0,034
-463,357	61,190	-0,091	0,067
-462,343	86,931	0,061	-0,050
-461,328	800,000	0,031	-0,088
-460,313	800,000	0,036	-0,083
-459,299	-21,025	-0,125	0,056
-458,284	97,519	0,072	0,061
-457,270	-123,603	0,078	-0,009
-456,255	-10,792	0,099	-0,048
-455,241	110,138	-0,072	-0,064
-454,226	800,000	0,027	0,063
-453,211	-200,000	0,001	0,104
-452,197	427,819	0,007	-0,011
-451,182	212,240	0,070	0,081
-450,168	405,600	0,038	0,058
-449,153	-200,000	0,031	0,207
-448,138	-150,251	-0,157	-0,009
-447,124	121,864	-0,122	-0,112
-446,109	800,000	0,019	-0,043
-445,095	-66,999	0,161	0,046
-444,080	400,511	-0,037	0,057
-443,065	194,484	-0,054	0,060
-442,051	-152,344	0,017	-0,001
-441,036	-200,000	-0,014	0,106
-440,022	-200,000	0,012	-0,118
-439,007	800,000	-0,045	0,105
-437,992	-29,799	-0,078	0,032
-436,978	-61,541	0,119	0,036
-435,963	-200,000	-0,021	-0,080
-434,949	800,000	0,023	0,059
-433,934	93,887	-0,122	0,102
-432,919	-200,000	-0,033	0,133
-431,905	112,507	0,040	0,036
-430,890	135,230	-0,053	0,051
-429,876	800,000	0,040	0,110
-428,861	-200,000	0,027	0,164
-427,846	-35,489	0,061	0,024
-426,832	111,806	-0,106	0,094
-425,817	138,469	0,078	0,075
-424,803	115,847	-0,029	-0,026
-423,788	628,242	-0,034	-0,064
-422,773	644,424	-0,019	-0,036
-421,759	800,000	-0,015	-0,047
-420,744	-200,000	-0,019	0,065
-419,730	-200,000	-0,026	-0,108
-418,715	85,981	-0,052	0,042
-417,701	501,555	0,051	0,086
-416,686	-46,133	0,046	-0,016
-415,671	106,425	0,069	0,060
-414,657	-2,606	0,087	-0,045
-413,642	-200,000	0,015	0,064
-412,628	76,127	0,053	-0,041
-411,613	-33,599	0,036	-0,015
-410,598	800,000	0,034	0,080
-409,584	-200,000	0,001	0,072
-408,569	-161,744	0,175	0,006
-407,555	105,776	-0,089	-0,077
-406,540	-200,000	-0,009	0,044
-405,525	800,000	0,064	-0,137
-404,511	-200,000	0,019	-0,135
-403,496	47,934	0,036	-0,025
-402,482	-80,617	-0,110	-0,027
-401,467	800,000	0,024	0,060
-400,452	-200,000	-0,009	-0,049
-399,438	-122,088	0,095	0,011
-398,423	137,695	-0,076	-0,073
-397,409	245,066	-0,042	-0,053
-396,394	-53,477	-0,013	0,004
-395,379	-200,000	0,021	0,081
-394,365	152,982	0,087	0,087
-393,350	800,000	-0,045	-0,120
-392,336	-200,000	0,031	-0,120
-391,321	-200,000	-0,026	0,123
-390,306	275,377	-0,028	-0,036
-389,292	800,000	-0,046	-0,130
-388,277	-200,000	-0,000	0,096
-387,263	-53,478	0,055	0,019
-386,248	-180,291	0,032	-0,000
-385,233	-62,983	-0,142	-0,043
-384,219	-200,000	0,013	0,058
-383,204	-74,243	-0,110	-0,029
-382,190	781,219	-0,073	-0,147
-381,175	397,228	0,051	0,079
-380,160	800,000	-0,028	0,061
-379,146	-200,000	-0,009	-0,118
-378,131	-17,122	-0,024	-0,011
-377,117	-11,345	0,015	-0,007
-376,102	602,104	-0,010	-0,017
-375,088	430,807	0,111	0,178
-374,073	800,000	-0,025	-0,057
-373,058	298,467	-0,067	0,090
-372,044	-200,000	0,007	0,022
-371,029	76,047	0,037	0,029
-370,015	263,458	0,036	0,047
-369,000	800,000	0,030	-0,076
-367,985	275,540	0,069	0,090
-366,971	-200,000	0,016	-0,084
-365,956	-85,097	0,096	0,022
-364,942	-185,742	0,077	0,001
-363,927	195,304	0,027	-0,030
-362,912	75,384	0,051	0,040
-361,898	101,819	-0,027	-0,023
-360,883	800,000	-0,077	0,167
-359,869	-184,183	0,078	-0,001
-358,854	0,457	-0,056	0,029
-357,839	2,773	0,086	0,046
-356,825	-200,000	-0,023	-0,149
-355,810	-200,000	0,004	-0,029
-354,796	-145,575	-0,064	0,004
-353,781	-200,000	-0,020	-0,073
-352,766	-200,000	0,031	-0,123
-351,752	-200,000	0,008	0,058
-350,737	800,000	-0,041	0,087
-349,723	-183,612	0,075	-0,001
-348,708	111,430	-0,076	0,067
-347,693	-200,000	0,022	0,091
-346,679	-200,000	0,005	0,028
-345,664	-90,150	0,088	-0,019
-344,650	539,610	-0,035	-0,061
-343,635	-99,900	0,042	-0,008
-342,620	510,793	-0,007	0,011
-341,606	-200,000	-0,013	0,063
-340,591	447,975	0,007	-0,011
-339,577	222,272	0,116	0,137
-338,562	800,000	-0,039	-0,100
-337,548	-150,853	-0,074	-0,004
-336,533	-78,568	0,027	-0,007
-335,518	337,420	-0,031	0,044
-334,504	56,842	0,042	0,030
-333,489	-109,143	-0,062	0,010
-332,475	-14,635	-0,069	0,032
-331,460	18,723	0,100	-0,058
-330,445	-113,361	-0,066	0,009
-329,431	277,075	0,023	0,029
-328,416	-86,756	0,100	0,022
-327,402	-200,000	-0,018	0,145
-326,387	-200,000	-0,004	0,055
-325,372	800,000	-0,020	0,062
-324,358	-200,000	0,008	-0,075
-323,343	-94,864	0,102	-0,020
-322,329	313,302	0,082	0,112
-321,314	39,998	-0,049	0,032
-320,299	303,939	0,057	0,077
-319,285	-200,000	0,011	-0,080
-318,270	22,112	0,035	0,021
-317,256	-200,000	-0,005	0,022
-316,241	-56,294	0,122	-0,039
-315,226	-69,345	0,159	-0,044
-314,212	-109,322	0,109	-0,017
-313,197	-18,210	0,130	0,059
-312,183	-200,000	0,008	0,139
-311,168	-132,596	-0,074	0,007
-310,153	-200,000	-0,014	0,050
-309,139	-3,277	-0,045	-0,023
-308,124	800,000	-0,013	0,031
-307,110	87,889	0,074	0,060
-306,095	800,000	-0,046	-0,105
-305,080	-141,072	-0,065	0,005
-304,066	800,000	-0,007	0,021
-303,051	800,000	-0,029	-0,070
-302,037	283,257	0,060	0,079
-301,022	382,215	-0,030	0,046
-300,008	-77,346	-0,051	0,013
-298,993	-200,000	0,008	0,085
-297,978	389,903	0,054	-0,083
-296,964	74,030	-0,088	0,067
-295,949	-59,832	0,052	0,016
-294,935	-46,704	-0,089	0,032
-293,920	15,711	0,017	-0,010
-292,905	-137,002	0,053	-0,004
-291,891	800,000	-0,024	0,048
-290,876	90,468	0,046	0,038
-289,862	-200,000	0,035	-0,114
-288,847	-200,000	-0,009	-0,095
-287,832	42,015	-0,116	-0,077
-286,818	-64,581	-0,113	0,033
-285,803	800,000	-0,028	0,089
-284,789	-104,089	0,062	-0,011
-283,774	58,166	0,088	0,063
-282,759	-39,259	-0,150	-0,057
-281,745	613,855	-0,052	0,095
-280,730	-33,404	0,047	-0,019
-279,716	113,365	-0,064	0,057
-278,701	235,658	0,057	0,069
-277,686	332,539	0,044	-0,062
-276,672	315,736	0,067	0,093
-275,657	144,866	0,041	-0,040
-274,643	46,340	-0,057	-0,038
-273,628	138,594	-0,093	-0,089
-272,613	105,548	-0,053	0,046
-271,599	3,450	0,135	-0,072
-270,584	-200,000	-0,001	0,003
-269,570	-84,921	-0,056	-0,013
-268,555	-200,000	-0,012	-0,079
-267,540	-94,107	0,085	-0,017
-266,526	-101,811	-0,183	-0,032
-265,511	3,467	-0,084	-0,045
-264,497	800,000	0,029	0,071
-263,482	218,558	-0,079	0,092
-262,467	-200,000	-0,005	0,056
-261,453	335,169	0,042	0,060
-260,438	800,000	-0,036	-0,096
-259,424	260,766	0,048	0,061
-258,409	226,980	-0,142	0,169
-257,395	97,483	-0,109	0,092
-256,380	41,419	-0,005	0,003
-255,365	-41,152	0,063	-0,023
-254,351	4,378	0,100	-0,053
-253,336	-200,000	0,014	0,115
-252,322	800,000	0,044	-0,101
-251,307	-104,539	-0,218	-0,036
-250,292	-200,000	-0,008	-0,115
-249,278	-49,660	0,079	-0,027
-248,263	800,000	0,015	0,034
-247,249	-200,000	0,007	0,130
-246,234	91,911	0,077	-0,064
-245,219	800,000	0,021	-0,042
-244,205	-65,749	-0,031	-0,009
-243,190	-97,374	0,046	0,009
-242,176	333,645	0,135	-0,191
-241,161	324,234	0,105	-0,146
-240,146	-95,078	0,079	0,015
-239,132	155,032	0,099	0,099
-238,117	404,301	0,020	0,031
-237,103	-50,717	-0,126	0,043
-236,088	-57,161	0,148	0,047
-235,073	-119,374	0,038	0,005
-234,059	-69,623	0,073	-0,020
-233,044	-145,663	-0,055	0,004
-232,030	-200,000	-0,019	0,085
-231,015	-200,000	0,001	-0,004
-230,000	-150,587	-0,117	-0,006
-228,986	124,197	0,035	0,032
-227,971	800,000	0,070	0,159
-226,957	-200,000	-0,000	0,267
-225,942	70,154	-0,088	-0,066
-224,927	121,154	0,065	0,059
-223,913	103,686	-0,115	-0,098
-222,898	568,753	0,024	-0,043
-221,884	45,456	-0,082	0,055
-220,869	110,032	0,066	-0,058
-219,855	102,958	0,079	-0,068
-218,840	162,150	0,066	0,067
-217,825	-200,000	0,001	-0,048
-216,811	-200,000	-0,003	-0,036
-215,796	201,957	-0,072	-0,081
-214,782	-24,990	-0,056	-0,024
-213,767	194,968	0,087	-0,096
-212,752	105,384	0,056	-0,048
-211,738	-142,752	0,118	0,008
-210,723	-200,000	-0,010	-0,075
-209,709	371,854	-0,114	-0,170
-208,694	-34,075	0,085	0,034
-207,679	-183,269	-0,013	-0,000
-206,665	362,502	0,066	-0,096
-205,650	800,000	-0,038	0,118
-204,636	125,509	0,034	0,031
-203,621	238,032	-0,043	0,052
-202,606	-191,128	-0,109	-0,001
-201,592	800,000	-0,035	-0,080
-200,577	-200,000	-0,001	0,011
-199,563	-200,000	-0,018	0,148
-198,548	800,000	0,013	-0,038
-197,533	286,199	-0,019	0,025
-196,519	-80,734	0,109	-0,026
-195,504	163,143	0,043	0,044
-194,490	95,455	0,073	0,060
-193,475	-162,763	0,100	0,004
-192,460	-87,278	0,110	-0,024
-191,446	-35,353	0,051	-0,020
-190,431	-18,160	0,182	-0,083
-189,417	-100,542	-0,155	0,028
-188,402	183,574	-0,055	0,059
-187,387	223,593	-0,027	0,032
-186,373	-200,000	-0,029	-0,161
-185,358	134,842	0,098	-0,093
-184,344	4,595	-0,072	0,039
-183,329	137,697	-0,044	0,042
-182,315	-60,317	0,075	-0,023
-181,300	-87,983	-0,092	-0,020
-180,285	-200,000	0,004	-0,019
-179,271	-135,754	0,018	-0,002
-178,256	-200,000	0,015	-0,087
-177,242	800,000	0,045	-0,120
-176,227	180,536	0,029	0,031
-175,212	-200,000	0,126	0,000
-174,198	4,096	-0,161	0,085
-173,183	111,227	-0,047	-0,041
-172,169	276,736	-0,072	0,093
-171,154	-200,000	0,004	-0,024
-170,139	-55,208	0,025	-0,008
-169,125	-120,676	0,067	-0,008
-168,110	119,975	0,081	0,073
-167,096	246,342	-0,096	-0,118
-166,081	36,646	0,214	-0,137
-165,066	800,000	-0,018	0,058
-164,052	-200,000	-0,016	0,153
-163,037	800,000	0,033	0,096
-162,023	-200,000	0,013	-0,067
-161,008	326,751	0,091	0,128
-159,993	-200,000	0,032	0,117
-158,979	-41,270	-0,075	0,028
-157,964	221,356	-0,071	-0,083
-156,950	-97,964	-0,129	-0,024
-155,935	125,115	0,038	-0,035
-154,920	168,510	-0,050	-0,052
-153,906	-200,000	0,007	0,166
-152,891	4,851	-0,112	-0,060
-151,877	55,754	-0,025	-0,018
-150,862	22,356	-0,134	0,079
-149,847	131,105	-0,083	0,077
-148,833	-200,000	0,032	-0,117
-147,818	-200,000	0,016	0,091
-146,804	282,874	0,111	0,145
-145,789	613,108	0,066	0,120
-144,775	-3,243	0,078	0,039
-143,760	-154,959	0,100	-0,005
-142,745	800,000	0,024	-0,059
-141,731	-200,000	-0,004	0,092
-140,716	-200,000	-0,024	0,160
-139,702	-185,318	-0,103	-0,001
-138,687	-200,000	0,022	-0,141
-137,672	-92,281	-0,041	0,008
-136,658	-149,006	0,042	0,002
-135,643	436,941	0,091	0,145
-134,629	800,000	-0,021	0,047
-133,614	0,407	-0,056	0,029
-132,599	-200,000	0,051	-0,204
-131,585	-200,000	-0,007	0,070
-130,570	95,841	-0,157	0,130
-129,556	564,231	-0,060	-0,106
-128,541	49,903	-0,019	0,013
-127,526	-134,067	-0,091	0,008
-126,512	-200,000	-0,018	0,178
-125,497	-200,000	0,022	-0,189
-124,483	-94,282	-0,011	-0,002
-123,468	423,437	-0,068	0,107
-122,453	800,000	0,044	-0,126
-121,439	143,391	-0,062	-0,060
-120,424	-200,000	0,009	-0,040
-119,410	67,242	0,147	0,109
-118,395	800,000	-0,028	-0,060
-117,380	74,508	-0,021	-0,016
-116,366	-200,000	-0,003	0,060
-115,351	-200,000	-0,013	0,080
-114,337	-200,000	-0,004	0,041
-113,322	65,889	-0,057	-0,042
-112,307	136,036	-0,106	0,101
-111,293	-200,000	-0,002	-0,009
-110,278	-76,343	0,118	-0,030
-109,264	-127,668	-0,024	0,002
-108,249	-157,831	-0,206	-0,009
-107,234	53,284	-0,032	-0,022
-106,220	482,341	-0,062	-0,102
-105,205	187,582	-0,027	-0,029
-104,191	-71,785	0,062	0,017
-103,176	-76,439	0,054	0,014
-102,162	243,045	-0,058	-0,071
-101,147	51,210	-0,072	-0,049
-100,132	-200,000	-0,015	0,095
-99,118	496,265	0,039	-0,066
-98,103	800,000	-0,031	-0,091
-97,089	-145,117	0,087	-0,006
-96,074	-200,000	-0,020	0,073
-95,059	-45,608	0,086	0,031
-94,045	-200,000	0,001	0,090
-93,030	127,717	0,048	-0,044
-92,016	607,841	-0,069	0,126
-91,001	800,000	-0,027	-0,063
-89,986	-132,403	-0,052	-0,005
-88,972	800,000	0,042	0,109
-87,957	-26,837	0,156	-0,066
-86,943	-113,583	0,127	0,018
-85,928	800,000	0,016	0,034
-84,913	-200,000	0,015	-0,130
-83,899	-106,842	0,112	-0,018
-82,884	-67,001	0,104	0,029
-81,870	53,395	-0,072	-0,050
-80,855	214,201	-0,041	0,048
-79,840	8,074	0,026	0,014
-78,826	97,978	-0,062	-0,051
-77,811	800,000	0,040	-0,121
-76,797	146,381	-0,028	-0,027
-75,782	800,000	0,022	0,058
-74,767	193,394	-0,031	-0,034
-73,753	-200,000	0,039	0,151
-72,738	-83,031	0,003	-0,001
-71,724	153,171	-0,096	-0,095
-70,709	211,882	0,103	-0,118
-69,694	-15,731	-0,144	0,066
-68,680	228,168	-0,027	-0,032
-67,665	334,786	0,027	-0,038
-66,651	0,264	-0,030	-0,015
-65,636	67,558	0,039	0,029
-64,622	67,132	0,085	0,063
-63,607	-194,745	0,030	-0,000
-62,592	800,000	0,054	-0,109
-61,578	27,597	0,159	-0,097
-60,563	-125,239	0,150	-0,016
-59,549	800,000	-0,013	0,039
-58,534	-150,316	-1,258	-0,069
-57,519	729,685	-0,767	-1,492
-56,505	-200,000	-0,836	-4,537
-55,490	-157,708	0,621	-0,026
-54,476	800,000	4,938	11,570
-53,461	-200,000	13,945	251,216
-52,446	-200,000	692,940	2237,078
-51,432	580,914	1621,628	2890,798
-50,417	117,670	1630,318	1453,588
-49,403	73,938	1284,749	975,162
-48,388	37,753	1021,785	655,999
-47,373	23,976	980,009	584,014
-46,359	23,162	969,385	575,003
-45,344	22,199	965,044	569,267
-44,330	22,079	963,722	568,077
-43,315	22,045	962,099	566,986
-42,300	21,925	961,222	566,057
-41,286	21,951	960,390	565,631
-40,271	21,935	959,221	564,866
-39,257	22,018	958,259	564,545
-38,242	21,976	957,285	563,816
-37,227	21,945	956,579	563,274
-36,213	21,933	955,722	562,710
-35,198	21,877	954,785	561,955
-34,184	21,962	954,085	561,794
-33,169	21,871	953,339	561,042
-32,154	22,007	952,332	560,862
-31,140	22,014	951,366	560,295
-30,125	21,943	950,946	559,798
-29,111	21,988	949,925	559,319
-28,096	21,957	949,198	558,769
-27,082	21,948	948,493	558,301
-26,067	22,013	947,766	558,061
-25,052	21,988	947,133	557,584
-24,038	22,007	946,353	557,164
-23,023	21,963	945,818	556,688
-22,009	21,999	945,031	556,318
-20,994	21,976	944,397	555,848
-19,979	22,013	943,935	555,673
-18,965	22,001	943,130	555,138
-17,950	21,990	942,680	554,814
-16,936	21,936	941,897	554,162
-15,921	21,907	941,167	553,617
-14,906	21,857	940,516	553,054
-13,892	21,854	939,827	552,616
-12,877	21,857	939,273	552,279
-11,863	21,845	938,603	551,826
-10,848	21,818	938,276	551,527
-9,833	21,966	937,558	551,549
-8,819	21,849	937,092	550,885
-7,804	21,806	936,512	550,385
-6,790	21,862	935,870	550,163
-5,775	21,869	935,178	549,757
-4,760	21,842	934,577	549,297
-3,746	21,791	934,176	548,877
-2,731	21,750	933,251	548,184
-1,717	21,683	932,533	547,531
-0,702	21,687	931,995	547,204
0,313	21,442	931,506	546,975
1,327	23,941	928,741	553,130
2,342	31,736	807,012	501,684
3,356	26,929	507,515	307,306
4,371	2,941	372,751	195,313
5,386	-0,035	355,647	182,699
6,400	-1,628	349,226	177,471
7,415	-2,638	346,387	174,808
8,429	-2,806	344,953	173,870
9,444	-2,782	343,893	173,349
10,459	-2,693	343,132	173,055
11,473	-2,827	342,701	172,664
12,488	-2,421	342,112	172,830
13,502	-2,204	341,389	172,703
14,517	-2,551	341,090	172,130
15,531	-2,839	340,449	171,454
16,546	-2,852	340,094	171,245
17,561	-2,907	339,636	170,934
18,575	-2,681	339,177	170,952
19,590	-2,710	338,854	170,740
20,604	-2,665	338,558	170,628
21,619	-2,760	338,201	170,322
22,634	-2,831	337,783	170,014
23,648	-2,808	337,310	169,788
24,663	-2,770	337,173	169,747
25,677	-2,746	336,721	169,533
26,692	-2,795	336,698	169,449
27,707	-2,842	336,346	169,202
28,721	-2,830	335,775	168,914
29,736	-2,684	335,469	168,914
30,750	-2,911	335,312	168,558
31,765	-2,929	334,986	168,358
32,780	-2,822	334,823	168,385
33,794	-2,843	334,333	168,099
34,809	-2,875	334,101	167,931
35,823	-2,822	333,738	167,794
36,838	-2,920	333,659	167,627
37,853	-2,843	333,184	167,462
38,867	-3,014	332,986	167,152
39,882	-3,049	332,822	167,014
40,896	-2,946	332,534	166,972
41,911	-2,992	332,262	166,769
42,926	-3,086	331,921	166,475
43,940	-3,015	331,803	166,481
44,955	-2,938	331,258	166,281
45,969	-3,153	331,158	165,972
46,984	-3,229	330,921	165,752
47,999	-3,253	330,476	165,487
49,013	-3,332	330,261	165,276
50,028	-3,305	329,843	165,082
51,042	-3,536	329,714	164,741
52,057	-3,412	329,398	164,709
53,071	-3,418	329,136	164,556
54,086	-3,481	329,048	164,426
55,101	-3,395	328,863	164,416
56,115	-3,120	328,500	164,530
57,130	-2,970	328,341	164,604
58,144	-2,843	328,154	164,639
59,159	-2,848	327,898	164,490
60,174	-2,690	327,679	164,543
61,188	-2,808	327,340	164,226
62,203	-2,703	327,102	164,209
63,217	-2,773	326,702	163,916
64,232	-2,766	326,522	163,819
65,247	-2,768	326,454	163,768
66,261	-2,633	326,095	163,723
67,276	-2,981	325,886	163,216
68,290	-2,961	325,366	162,963
69,305	-3,032	325,236	162,805
70,320	-2,945	325,047	162,793
71,334	-2,970	324,879	162,666
72,349	-2,797	324,862	162,835
73,363	-2,616	324,437	162,809
74,378	-2,741	324,083	162,478
75,393	-2,709	323,739	162,326
76,407	-2,802	323,611	162,144
77,422	-2,699	323,226	162,052
78,436	-2,750	323,128	161,931
79,451	-2,790	322,801	161,709
80,466	-2,838	322,474	161,477
81,480	-3,088	322,261	161,080
82,495	-3,025	321,959	160,985
83,509	-3,141	321,786	160,756
84,524	-2,899	321,406	160,818
85,539	-3,047	321,122	160,500
86,553	-3,064	320,919	160,365
87,568	-2,971	320,574	160,280
88,582	-2,967	320,508	160,237
89,597	-3,204	320,337	159,878
90,611	-3,085	319,982	159,816
91,626	-2,948	319,940	159,931
92,641	-2,902	319,529	159,762
93,655	-2,943	319,431	159,653
94,670	-2,935	319,055	159,461
95,684	-2,935	318,875	159,356
96,699	-2,878	318,691	159,312
97,714	-2,947	318,376	159,065
98,728	-2,992	318,084	158,856
99,743	-3,080	318,032	158,720
100,757	-2,999	317,733	158,646
101,772	-3,132	317,554	158,397
102,787	-2,970	317,169	158,367
103,801	-3,074	317,039	158,175
104,816	-3,024	316,857	158,124
105,830	-2,967	316,781	158,134
106,845	-2,912	316,481	158,029
107,860	-2,922	316,263	157,896
108,874	-2,826	315,831	157,769
109,889	-2,804	315,633	157,680
110,903	-2,896	315,467	157,484
111,918	-2,987	315,362	157,320
112,933	-2,905	315,110	157,268
113,947	-2,826	314,897	157,233
114,962	-2,974	314,776	156,999
115,976	-2,839	314,444	156,965
116,991	-2,934	314,240	156,746
118,006	-3,093	313,997	156,441
119,020	-2,921	313,723	156,475
120,035	-2,887	313,616	156,444
121,049	-2,699	313,299	156,473
122,064	-2,802	313,067	156,232
123,079	-2,921	312,953	156,035
124,093	-2,895	312,635	155,890
125,108	-2,968	312,442	155,702
126,122	-2,999	312,012	155,441
127,137	-3,204	311,892	155,150
128,151	-3,209	311,845	155,107
129,166	-3,133	311,667	155,086
130,181	-3,217	311,333	154,817
131,195	-3,263	311,047	154,612
132,210	-2,975	310,778	154,769
133,224	-3,002	310,708	154,692
134,239	-2,855	310,376	154,668
135,254	-2,813	310,158	154,589
136,268	-3,077	310,068	154,253
137,283	-3,068	309,640	154,036
138,297	-3,214	309,475	153,786
139,312	-3,191	309,298	153,708
140,327	-3,023	309,036	153,741
141,341	-2,730	309,007	154,021
142,356	-2,541	308,887	154,146
143,370	-2,448	308,517	154,045
144,385	-2,497	308,390	153,917
145,400	-2,606	308,012	153,600
146,414	-2,777	308,173	153,488
147,429	-2,535	307,676	153,480
148,443	-2,601	307,529	153,324
149,458	-2,676	307,370	153,152
150,473	-2,488	307,067	153,184
151,487	-2,606	306,882	152,955
152,502	-2,619	306,715	152,844
153,516	-2,563	306,512	152,788
154,531	-2,494	306,217	152,699
155,546	-2,565	306,119	152,563
156,560	-2,711	305,923	152,299
157,575	-2,850	305,665	152,014
158,589	-2,790	305,429	151,945
159,604	-2,576	305,076	151,978
160,619	-2,611	304,864	151,823
161,633	-2,593	304,599	151,695
162,648	-2,566	304,576	151,698
163,662	-2,638	304,450	151,547
164,677	-2,683	304,153	151,340
165,692	-2,673	304,106	151,313
166,706	-2,689	303,896	151,178
167,721	-2,520	303,492	151,138
168,735	-2,635	303,517	151,018
169,750	-2,414	303,300	151,125
170,764	-2,445	303,178	151,018
171,779	-2,463	302,888	150,841
172,794	-2,502	302,853	150,771
173,808	-2,747	302,354	150,258
174,823	-3,034	302,090	149,819
175,837	-3,132	301,967	149,645
176,852	-2,728	301,757	149,941
177,867	-2,373	301,687	150,256
178,881	-2,555	301,505	149,965
179,896	-2,339	301,211	150,027
180,910	-2,501	301,191	149,838
181,925	-2,492	300,879	149,678
182,940	-2,379	300,637	149,660
183,954	-2,491	300,503	149,465
184,969	-2,758	300,287	149,073
185,983	-2,643	300,033	149,051
186,998	-2,460	299,845	149,130
188,013	-2,545	299,635	148,925
189,027	-2,534	299,438	148,826
190,042	-2,528	299,150	148,675
191,056	-2,408	299,187	148,802
192,071	-2,416	299,001	148,688
193,086	-2,385	298,759	148,586
194,100	-2,245	298,408	148,540
195,115	-2,378	298,123	148,251
196,129	-2,558	297,853	147,921
197,144	-2,420	297,758	148,000
198,159	-2,464	297,590	147,859
199,173	-2,385	297,343	147,803
200,188	-2,460	297,245	147,665
201,202	-2,623	297,059	147,396
202,217	-2,854	296,564	146,905
203,232	-2,967	296,390	146,693
204,246	-2,757	296,172	146,782
205,261	-2,490	296,198	147,050
206,275	-2,461	295,924	146,930
207,290	-2,542	295,925	146,836
208,304	-2,390	295,558	146,792
209,319	-2,561	295,326	146,493
210,334	-2,502	295,060	146,407
211,348	-2,365	294,742	146,373
212,363	-2,512	294,738	146,212
213,377	-2,409	294,448	146,157
214,392	-2,622	294,374	145,896
215,407	-2,707	294,086	145,655
216,421	-2,936	293,878	145,311
217,436	-2,640	293,781	145,545
218,450	-2,685	293,438	145,317
219,465	-2,702	293,400	145,268
220,480	-2,748	293,154	145,088
221,494	-2,756	293,072	145,027
222,509	-2,840	292,949	144,869
223,523	-2,692	292,769	144,914
224,538	-2,307	292,646	145,220
225,553	-2,345	292,357	145,027
226,567	-2,389	292,098	144,842
227,582	-2,411	291,965	144,742
228,596	-2,446	291,793	144,609
229,611	-2,460	291,799	144,585
230,626	-2,375	291,360	144,438
231,640	-2,790	291,138	143,908
232,655	-3,049	290,853	143,500
233,669	-3,086	290,570	143,311
234,684	-3,072	290,335	143,196
235,699	-3,072	290,214	143,123
236,713	-2,966	290,225	143,220
237,728	-2,608	289,820	143,358
238,742	-2,628	289,681	143,256
239,757	-2,509	289,538	143,289
240,772	-2,662	289,391	143,054
241,786	-2,795	289,353	142,893
242,801	-2,611	289,038	142,904
243,815	-2,737	288,896	142,698
244,830	-2,678	288,708	142,650
245,844	-2,896	288,562	142,353
246,859	-2,693	288,179	142,348
247,874	-2,846	288,217	142,205
248,888	-2,775	288,014	142,162
249,903	-2,584	287,970	142,313
250,917	-2,466	287,590	142,226
251,932	-2,351	287,571	142,317
252,947	-1,743	287,609	142,911
253,961	-2,260	287,218	142,205
254,976	-1,299	287,626	143,324
255,990	1,219	288,300	146,089
257,005	2,449	288,678	147,460
258,020	3,841	289,123	149,024
259,034	3,816	288,741	148,790
260,049	3,562	288,652	148,485
261,063	3,421	288,287	148,147
262,078	3,658	288,308	148,374
263,093	4,297	288,390	149,021
264,107	4,524	288,112	149,083
265,122	4,412	287,882	148,842
266,136	4,478	287,952	148,929
267,151	4,454	287,659	148,741
268,166	4,228	287,310	148,330
269,180	4,430	287,229	148,469
270,195	4,354	287,030	148,279
271,209	4,343	286,851	148,164
272,224	4,102	286,556	147,768
273,239	3,911	286,258	147,417
274,253	3,950	286,159	147,390
275,268	4,608	286,080	147,966
276,282	4,354	285,853	147,593
277,297	4,431	285,825	147,639
278,312	4,789	285,743	147,926
279,326	4,379	285,458	147,374
280,341	4,228	285,158	147,061
281,355	4,112	284,927	146,818
282,370	4,055	284,745	146,657
283,384	3,967	284,662	146,517
284,399	4,036	284,396	146,433
285,414	4,019	284,273	146,341
286,428	3,983	284,076	146,193
287,443	3,888	283,687	145,888
288,457	3,778	283,634	145,744
289,472	3,691	283,339	145,497
290,487	3,784	283,186	145,493
291,501	3,682	282,957	145,267
292,516	3,607	282,546	144,972
293,530	3,655	282,425	144,942
294,545	3,849	282,551	145,177
295,560	3,891	282,326	145,088
296,574	3,689	282,150	144,794
297,589	4,105	281,866	145,027
298,603	4,378	281,849	145,263
299,618	4,362	281,622	145,118
300,633	4,154	281,450	144,820
301,647	4,082	281,217	144,620
302,662	3,938	281,080	144,402
303,676	3,792	280,893	144,156
304,691	3,579	280,590	143,788
305,706	3,367	280,380	143,469
306,720	3,383	280,143	143,350
307,735	3,426	279,978	143,293
308,749	3,727	279,949	143,547
309,764	3,793	279,859	143,549
310,779	3,619	279,408	143,143
311,793	3,450	279,323	142,928
312,808	3,698	279,172	143,070
313,822	3,693	278,981	142,955
314,837	3,525	278,766	142,676
315,852	3,384	278,439	142,364
316,866	3,526	278,382	142,454
317,881	3,691	278,145	142,474
318,895	3,420	278,032	142,152
319,910	3,476	277,809	142,076
320,925	3,315	277,652	141,835
321,939	3,306	277,575	141,774
322,954	3,415	277,520	141,834
323,968	3,713	277,228	141,948
324,983	3,990	277,057	142,104
325,997	3,760	276,989	141,844
327,012	3,795	276,836	141,785
328,027	3,911	276,652	141,785
329,041	3,817	276,399	141,556
330,056	3,869	276,166	141,472
331,070	3,655	276,059	141,208
332,085	3,645	275,767	141,036
333,100	3,894	275,603	141,169
334,114	3,652	275,430	140,845
335,129	3,599	275,231	140,683
336,143	3,800	275,071	140,772
337,158	3,818	275,140	140,812
338,173	3,976	274,874	140,808
339,187	3,789	274,544	140,455
340,202	3,741	274,543	140,399
341,216	3,875	274,348	140,409
342,231	3,852	274,090	140,243
343,246	3,683	273,894	139,976
344,260	3,619	273,756	139,835
345,275	3,814	273,684	139,963
346,289	4,221	273,622	140,290
347,304	4,085	273,372	140,026
348,319	4,004	273,043	139,771
349,333	3,777	273,170	139,617
350,348	4,045	272,892	139,706
351,362	4,177	272,787	139,758
352,377	4,192	272,616	139,672
353,392	4,033	272,341	139,375
354,406	4,109	272,270	139,395
355,421	191,142	1331,734	1408,036
356,435	154,401	1460,886	1408,150
