DTS Sentinel unit serial number:	SN410029Multiplexer serial number:	ORYXHardware model number:	OX2-SRSoftware version number:	ORYX F/W v4,00 Oryx Data Collector v3.7.2.0data status	okinstallation	B4 Nyhavnadifferential loss correction	single-endedforward channel	channel 2reverse channel	N/Adate	2023/12/16time	08:20:13forward acquisition time	300,00reverse acquisition time	0,00gamma	499,1914k internal	0,3127k external	0,3127temperature offset calibration	1,0000default loss term (dB/km)	0,3820temperature slope calibration	1,0000multiplexer offset coefficient	1,0000multiplexer slope coefficient	1,0000fibre end	0,00T internal ref (°C)	22,50T ext. ref 1 (°C)	8,34T ext. ref 2 (°C)	8,49length (m)	temperature (°C)	Stokes	anti-Stokes-744,400	400,054	0,037	-0,058
-743,385	92,531	-0,095	0,080
-742,371	75,396	0,061	0,048
-741,356	800,000	-0,085	0,192
-740,342	-200,000	0,016	0,160
-739,327	-183,463	-0,317	0,004
-738,312	800,000	-0,063	-0,140
-737,298	49,949	-0,246	0,173
-736,283	-200,000	0,033	-0,164
-735,269	237,216	-0,086	0,106
-734,254	-51,053	0,084	-0,029
-733,239	1,136	-0,396	-0,211
-732,225	-34,722	0,135	-0,055
-731,210	-185,699	0,031	-0,000
-730,196	-200,000	0,000	-0,014
-729,181	-75,849	-0,075	-0,020
-728,167	-89,149	0,121	-0,026
-727,152	-111,548	-0,123	0,018
-726,137	-32,768	-0,129	-0,053
-725,123	-200,000	0,001	0,075
-724,108	-80,638	-0,153	0,038
-723,094	324,399	-0,093	-0,132
-722,079	-200,000	0,019	-0,106
-721,064	-58,950	-0,198	0,063
-720,050	106,298	-0,044	-0,039
-719,035	-19,337	0,032	0,015
-718,021	334,388	0,054	-0,078
-717,006	187,814	-0,071	0,079
-715,991	-83,101	-0,098	-0,023
-714,977	-200,000	-0,010	-0,077
-713,962	592,159	-0,048	-0,088
-712,948	-107,096	0,077	-0,013
-711,933	-39,792	-0,160	0,062
-710,918	-54,684	-0,099	-0,033
-709,904	-200,000	-0,008	0,065
-708,889	-4,043	-0,089	0,046
-707,875	800,000	-0,022	0,066
-706,860	395,464	0,029	0,045
-705,845	-73,762	0,088	0,024
-704,831	-200,000	0,008	-0,034
-703,816	-31,154	-0,155	0,065
-702,802	102,827	0,047	0,040
-701,787	-166,486	-0,075	-0,002
-700,772	-200,000	-0,017	-0,108
-699,758	163,183	0,068	-0,071
-698,743	800,000	-0,022	-0,047
-697,729	438,926	-0,050	0,082
-696,714	126,545	0,055	-0,051
-695,699	182,095	0,111	-0,121
-694,685	74,238	0,026	-0,021
-693,670	-200,000	0,012	-0,163
-692,656	430,375	0,041	-0,066
-691,641	632,193	-0,028	0,054
-690,627	23,685	0,147	0,090
-689,612	79,715	-0,026	-0,021
-688,597	99,185	0,024	-0,021
-687,583	-103,314	-0,166	0,029
-686,568	-11,577	-0,038	0,018
-685,554	612,538	0,025	0,047
-684,539	-200,000	-0,018	0,106
-683,524	-200,000	-0,022	0,082
-682,510	800,000	-0,053	0,138
-681,495	-117,979	0,165	-0,022
-680,481	-102,808	-0,070	-0,012
-679,466	-86,830	-0,118	-0,027
-678,451	-102,100	-0,161	-0,029
-677,437	-87,185	-0,067	0,015
-676,422	409,073	0,059	0,093
-675,408	80,257	-0,136	0,109
-674,393	-116,226	0,074	0,010
-673,378	209,754	0,035	-0,040
-672,364	-34,751	-0,168	-0,068
-671,349	-68,398	-0,091	-0,026
-670,335	-59,879	0,011	-0,003
-669,320	407,578	-0,111	0,175
-668,305	29,451	0,045	0,028
-667,291	-200,000	0,011	-0,136
-666,276	68,540	-0,083	-0,063
-665,262	-200,000	-0,011	-0,114
-664,247	-108,033	-0,038	-0,006
-663,232	4,131	0,128	0,069
-662,218	-200,000	0,002	-0,067
-661,203	-200,000	-0,007	-0,032
-660,189	71,363	-0,056	-0,043
-659,174	475,381	-0,071	0,119
-658,159	-97,292	-0,090	-0,017
-657,145	-124,207	-0,091	-0,010
-656,130	-50,437	0,081	0,028
-655,116	-200,000	-0,006	0,107
-654,101	260,038	-0,056	0,072
-653,086	-148,881	-0,163	0,010
-652,072	44,832	-0,111	-0,076
-651,057	-36,802	-0,139	0,055
-650,043	35,376	0,080	-0,052
-649,028	-200,000	-0,035	-0,149
-648,014	192,099	-0,166	-0,186
-646,999	211,964	-0,041	-0,048
-645,984	-200,000	-0,011	0,057
-644,970	29,389	0,135	-0,085
-643,955	80,976	-0,127	0,101
-642,941	103,415	-0,069	-0,060
-641,926	82,717	0,024	0,020
-640,911	366,432	0,029	0,044
-639,897	333,017	0,034	0,049
-638,882	-146,512	-0,192	-0,012
-637,868	535,257	-0,101	0,178
-636,853	-93,930	-0,037	0,008
-635,838	-200,000	-0,004	-0,040
-634,824	800,000	-0,023	0,054
-633,809	-123,199	0,075	-0,009
-632,795	1,326	0,082	0,044
-631,780	-200,000	0,002	0,021
-630,765	-74,777	-0,103	-0,027
-629,751	47,427	0,098	-0,068
-628,736	103,387	-0,079	-0,068
-627,722	289,650	-0,012	-0,016
-626,707	-47,765	0,040	0,014
-625,692	-200,000	-0,001	0,113
-624,678	-45,872	0,072	-0,026
-623,663	-116,469	0,016	0,002
-622,649	-200,000	-0,008	-0,102
-621,634	780,029	-0,026	-0,053
-620,619	-12,347	-0,048	0,023
-619,605	-151,411	0,067	0,004
-618,590	-19,042	0,096	-0,044
-617,576	-139,299	0,036	-0,003
-616,561	-200,000	-0,017	-0,058
-615,546	-52,981	0,070	0,024
-614,532	180,512	-0,009	-0,010
-613,517	7,130	0,116	-0,064
-612,503	175,907	0,053	-0,057
-611,488	-115,023	0,150	0,021
-610,474	-26,832	-0,103	-0,044
-609,459	-200,000	-0,004	-0,065
-608,444	-200,000	0,020	-0,080
-607,430	800,000	0,054	-0,142
-606,415	618,558	-0,033	0,062
-605,401	188,095	0,047	0,052
-604,386	492,491	-0,028	0,048
-603,371	48,765	0,076	0,053
-602,357	-37,033	-0,150	-0,059
-601,342	-147,664	-0,078	-0,005
-600,328	103,785	-0,092	-0,080
-599,313	-53,228	0,110	-0,037
-598,298	481,441	0,010	0,018
-597,284	800,000	-0,057	0,128
-596,269	-200,000	-0,008	0,031
-595,255	6,730	0,072	-0,039
-594,240	-200,000	-0,019	0,129
-593,225	215,234	0,046	-0,054
-592,211	-200,000	0,002	-0,112
-591,196	800,000	-0,079	-0,165
-590,182	-158,895	0,159	0,007
-589,167	-100,171	-0,130	0,024
-588,152	40,315	-0,013	-0,008
-587,138	-200,000	0,013	-0,083
-586,123	19,919	0,100	-0,060
-585,109	-15,098	-0,152	0,072
-584,094	-200,000	-0,037	0,128
-583,079	800,000	0,017	0,036
-582,065	-25,694	0,049	0,021
-581,050	-29,661	-0,073	-0,031
-580,036	67,612	0,056	0,042
-579,021	-118,248	-0,046	0,006
-578,006	18,913	-0,052	0,031
-576,992	89,839	-0,068	-0,056
-575,977	-15,290	-0,014	0,007
-574,963	-200,000	0,014	-0,066
-573,948	-94,141	0,133	0,027
-572,934	-200,000	-0,008	0,056
-571,919	11,563	-0,164	-0,093
-570,904	384,664	0,039	-0,059
-569,890	337,866	-0,035	-0,050
-568,875	-200,000	-0,013	0,127
-567,861	-154,382	0,073	0,004
-566,846	192,296	-0,050	-0,056
-565,831	334,079	0,017	-0,025
-564,817	-200,000	-0,001	0,023
-563,802	-200,000	-0,002	0,064
-562,788	800,000	0,008	0,021
-561,773	377,009	0,045	0,067
-560,758	44,798	0,089	-0,061
-559,744	-200,000	0,035	0,123
-558,729	312,547	-0,028	0,039
-557,715	-200,000	0,013	-0,050
-556,700	-200,000	-0,032	-0,113
-555,685	-200,000	-0,015	0,050
-554,671	800,000	0,028	0,072
-553,656	30,568	0,064	-0,040
-552,642	-119,727	-0,051	-0,006
-551,627	-173,276	0,103	-0,002
-550,612	-163,102	0,056	-0,002
-549,598	84,321	0,065	0,053
-548,583	604,793	0,071	-0,132
-547,569	-200,000	0,011	-0,087
-546,554	-200,000	-0,004	0,178
-545,539	-200,000	-0,004	0,079
-544,525	430,686	0,077	0,123
-543,510	204,036	0,102	0,117
-542,496	-200,000	0,014	0,051
-541,481	316,185	0,085	-0,118
-540,466	-77,014	0,163	0,042
-539,452	129,862	-0,018	-0,017
-538,437	3,557	0,112	-0,060
-537,423	-5,112	0,087	-0,044
-536,408	800,000	-0,017	-0,045
-535,393	800,000	-0,038	-0,111
-534,379	800,000	-0,020	0,061
-533,364	800,000	0,039	-0,099
-532,350	-200,000	-0,005	-0,033
-531,335	-80,974	0,061	-0,015
-530,321	108,704	-0,076	0,067
-529,306	13,541	-0,059	0,033
-528,291	-92,673	0,131	-0,027
-527,277	-178,833	0,079	-0,001
-526,262	-200,000	-0,021	0,097
-525,248	-109,116	-0,045	-0,007
-524,233	-25,610	0,098	0,043
-523,218	-200,000	0,001	0,096
-522,204	-59,303	-0,140	0,044
-521,189	-200,000	-0,001	-0,110
-520,175	-200,000	0,030	0,135
-519,160	7,156	0,030	0,017
-518,145	-127,535	-0,089	-0,009
-517,131	182,391	-0,102	0,112
-516,116	800,000	0,013	0,037
-515,102	-200,000	0,012	-0,070
-514,087	800,000	-0,019	-0,058
-513,072	-113,568	-0,119	-0,017
-512,058	800,000	0,015	-0,042
-511,043	800,000	0,037	0,115
-510,029	-200,000	-0,004	-0,149
-509,014	13,546	0,054	-0,031
-507,999	-200,000	0,005	-0,049
-506,985	199,860	-0,143	-0,163
-505,970	-175,516	-0,115	0,002
-504,956	-145,688	-0,118	0,008
-503,941	17,030	0,121	-0,070
-502,926	-200,000	-0,001	-0,062
-501,912	55,462	-0,053	-0,038
-500,897	-200,000	-0,007	0,045
-499,883	138,515	-0,065	-0,063
-498,868	338,345	0,023	-0,033
-497,853	58,800	-0,088	0,064
-496,839	-34,508	0,097	-0,039
-495,824	-87,711	0,025	-0,006
-494,810	253,235	-0,034	0,043
-493,795	233,175	-0,079	0,096
-492,781	95,194	-0,068	-0,057
-491,766	800,000	-0,034	-0,088
-490,751	232,421	-0,059	-0,072
-489,737	-9,706	0,143	0,070
-488,722	800,000	-0,026	-0,058
-487,708	116,220	-0,110	0,099
-486,693	-68,123	-0,083	0,024
-485,678	800,000	-0,050	0,149
-484,664	-6,848	-0,111	0,055
-483,649	-121,088	0,059	-0,007
-482,635	180,542	0,111	-0,121
-481,620	-82,429	-0,086	0,020
-480,605	-12,437	-0,059	-0,028
-479,591	-140,944	0,025	-0,002
-478,576	-120,490	-0,066	0,008
-477,562	-30,247	-0,182	0,076
-476,547	-78,843	-0,045	-0,011
-475,532	-24,412	0,070	-0,031
-474,518	-200,000	-0,000	0,154
-473,503	149,113	0,123	0,122
-472,489	800,000	-0,037	0,089
-471,474	141,463	-0,040	-0,039
-470,459	-50,934	-0,093	0,032
-469,445	168,643	-0,106	0,111
-468,430	21,968	0,108	0,065
-467,416	46,445	0,128	0,088
-466,401	-200,000	-0,006	0,044
-465,386	-95,970	0,050	-0,010
-464,372	-200,000	-0,008	-0,049
-463,357	800,000	-0,060	-0,137
-462,343	-92,021	-0,035	-0,007
-461,328	-117,282	-0,083	-0,011
-460,313	333,058	0,136	-0,194
-459,299	576,578	-0,013	0,023
-458,284	-144,666	-0,060	-0,004
-457,270	345,462	-0,059	-0,086
-456,255	-27,184	-0,014	0,006
-455,241	-200,000	-0,036	0,134
-454,226	18,775	0,069	-0,041
-453,211	56,984	0,053	-0,038
-452,197	257,601	0,091	-0,116
-451,182	80,318	-0,093	-0,074
-450,168	38,102	-0,069	0,045
-449,153	-84,454	-0,018	0,004
-448,138	800,000	0,040	0,105
-447,124	-79,789	0,093	0,023
-446,109	236,582	-0,036	0,043
-445,095	-138,379	-0,047	-0,004
-444,080	88,518	0,110	0,090
-443,065	118,476	-0,087	-0,079
-442,051	74,029	-0,105	-0,081
-441,036	441,321	0,018	-0,029
-440,022	-39,320	0,034	-0,013
-439,007	800,000	-0,056	-0,150
-437,992	-200,000	-0,003	-0,085
-436,978	-28,202	0,108	0,046
-435,963	800,000	-0,021	0,047
-434,949	-200,000	-0,018	-0,123
-433,934	788,031	0,044	-0,089
-432,919	99,267	0,037	-0,032
-431,905	116,088	-0,034	0,031
-430,890	-200,000	-0,009	-0,058
-429,876	6,742	-0,075	-0,041
-428,861	-200,000	-0,010	-0,091
-427,846	214,716	-0,044	0,052
-426,832	636,316	-0,018	0,033
-425,817	-200,000	0,014	-0,054
-424,803	38,933	0,083	0,055
-423,788	-75,274	0,040	-0,010
-422,773	-101,994	0,170	0,030
-421,759	261,452	0,044	-0,056
-420,744	134,509	0,065	-0,062
-419,730	69,461	0,014	-0,011
-418,715	221,232	0,167	0,197
-417,701	51,898	-0,054	0,038
-416,686	-200,000	0,014	0,080
-415,671	276,780	-0,040	0,052
-414,657	668,178	0,028	0,054
-413,642	800,000	-0,025	0,060
-412,628	-200,000	-0,004	-0,079
-411,613	110,385	-0,055	-0,048
-410,598	-53,244	-0,062	-0,021
-409,584	-200,000	-0,019	0,125
-408,569	224,361	-0,030	-0,035
-407,555	-200,000	0,028	-0,121
-406,540	377,501	-0,041	-0,061
-405,525	64,815	-0,038	0,029
-404,511	-120,584	-0,092	0,011
-403,496	-200,000	-0,004	-0,033
-402,482	-200,000	0,011	0,037
-401,467	-103,854	0,125	0,021
-400,452	186,647	0,077	0,084
-399,438	800,000	-0,067	0,139
-398,423	113,315	0,087	-0,078
-397,409	800,000	0,077	-0,202
-396,394	-200,000	-0,032	-0,124
-395,379	192,775	0,094	0,104
-394,365	-200,000	-0,005	-0,055
-393,350	760,441	-0,037	0,073
-392,336	95,911	-0,071	-0,059
-391,321	94,878	-0,107	-0,089
-390,306	77,646	-0,088	-0,069
-389,292	-46,863	-0,045	0,016
-388,277	-28,038	-0,121	-0,051
-387,263	194,645	-0,049	0,055
-386,248	134,200	0,058	0,055
-385,233	182,314	-0,047	-0,051
-384,219	162,853	0,089	0,092
-383,204	-35,448	-0,104	0,041
-382,190	800,000	0,032	-0,077
-381,175	25,243	-0,026	-0,016
-380,160	321,122	0,085	-0,119
-379,146	214,010	-0,075	-0,087
-378,131	-29,828	0,067	0,028
-377,117	-200,000	-0,016	0,143
-376,102	367,123	0,055	-0,082
-375,088	-0,043	-0,025	0,013
-374,073	-119,798	-0,045	-0,006
-373,058	800,000	-0,031	0,064
-372,044	23,632	0,059	-0,035
-371,029	349,213	-0,024	0,035
-370,015	700,090	-0,021	0,040
-369,000	-136,776	-0,115	-0,010
-367,985	115,407	-0,037	-0,033
-366,971	-164,998	-0,037	0,001
-365,956	80,005	-0,099	-0,078
-364,942	-153,030	0,196	-0,010
-363,927	-99,481	0,065	0,012
-362,912	20,595	-0,119	-0,071
-361,898	-71,188	0,104	-0,029
-360,883	95,945	-0,018	-0,015
-359,869	-155,166	-0,069	-0,003
-358,854	-148,419	0,049	-0,003
-357,839	-132,141	0,142	-0,013
-356,825	800,000	-0,010	0,021
-355,810	386,658	-0,087	0,132
-354,796	146,063	-0,050	-0,050
-353,781	-45,659	-0,111	0,040
-352,766	-200,000	-0,018	-0,170
-351,752	-130,660	-0,028	0,003
-350,737	39,692	-0,126	0,083
-349,723	800,000	0,045	0,121
-348,708	-103,862	0,118	-0,020
-347,693	420,578	-0,017	-0,027
-346,679	114,752	-0,030	-0,027
-345,664	-200,000	-0,014	-0,051
-344,650	800,000	0,014	-0,039
-343,635	-71,345	-0,019	-0,005
-342,620	800,000	0,047	0,111
-341,606	131,763	0,078	0,074
-340,591	25,059	0,007	-0,004
-339,577	209,647	-0,021	0,024
-338,562	351,703	-0,030	-0,044
-337,548	800,000	-0,055	-0,115
-336,533	-144,358	0,116	-0,008
-335,518	-116,997	0,067	-0,009
-334,504	394,334	-0,075	0,115
-333,489	115,237	-0,074	-0,066
-332,475	687,002	-0,059	-0,113
-331,460	-200,000	-0,024	-0,119
-330,445	-200,000	0,007	-0,086
-329,431	131,726	-0,021	-0,020
-328,416	-12,865	-0,060	0,028
-327,402	-147,284	0,120	-0,007
-326,387	500,084	-0,072	-0,121
-325,372	-200,000	-0,014	0,106
-324,358	-200,000	-0,002	-0,012
-323,343	158,930	0,060	-0,061
-322,329	-71,256	0,085	0,023
-321,314	800,000	0,066	0,151
-320,299	394,825	0,048	0,074
-319,285	800,000	-0,038	-0,093
-318,270	508,224	0,019	-0,032
-317,256	-6,534	-0,065	0,032
-316,241	222,136	-0,029	0,034
-315,226	30,771	0,042	0,026
-314,212	-10,086	0,066	0,032
-313,197	32,492	0,090	-0,057
-312,183	-200,000	-0,007	0,046
-311,168	46,973	0,146	-0,099
-310,153	-97,564	-0,178	0,033
-309,139	-7,580	0,130	0,064
-308,124	-151,083	0,114	0,006
-307,110	-153,468	0,052	-0,003
-306,095	-200,000	-0,015	0,083
-305,080	650,491	0,048	0,091
-304,066	-200,000	-0,015	0,156
-303,051	800,000	0,046	-0,113
-302,037	-200,000	0,024	-0,124
-301,022	800,000	0,018	0,050
-300,008	800,000	0,020	0,044
-298,993	-130,788	-0,118	0,011
-297,978	306,758	0,082	0,112
-296,964	-73,075	0,063	0,017
-295,949	-200,000	-0,025	-0,104
-294,935	-200,000	0,027	-0,184
-293,920	109,607	0,113	0,099
-292,905	800,000	-0,046	-0,106
-291,891	400,767	-0,050	-0,077
-290,876	-200,000	0,041	0,156
-289,862	800,000	-0,042	0,103
-288,847	-55,061	-0,149	0,049
-287,832	-0,125	-0,048	-0,025
-286,818	-85,711	0,033	0,007
-285,803	78,726	0,070	-0,054
-284,789	800,000	-0,028	0,064
-283,774	800,000	-0,039	0,091
-282,759	-138,415	-0,082	-0,006
-281,745	561,266	-0,075	0,133
-280,730	-113,692	0,162	-0,023
-279,716	800,000	0,031	-0,067
-278,701	-200,000	-0,002	-0,070
-277,686	274,171	0,079	0,103
-276,672	800,000	-0,058	0,163
-275,657	103,243	-0,070	-0,060
-274,643	-200,000	0,005	-0,070
-273,628	-127,861	0,122	0,013
-272,613	800,000	-0,049	0,144
-271,599	274,687	0,096	0,125
-270,584	140,349	0,033	-0,032
-269,570	-200,000	-0,001	0,045
-268,555	-5,303	0,049	-0,025
-267,540	-200,000	-0,005	-0,043
-266,526	-200,000	0,015	-0,065
-265,511	-200,000	-0,021	-0,109
-264,497	800,000	0,055	-0,153
-263,482	96,945	0,062	0,052
-262,467	750,891	-0,072	0,143
-261,453	-200,000	-0,033	-0,131
-260,438	23,025	-0,050	-0,030
-259,424	-200,000	0,008	0,044
-258,409	-113,025	-0,029	0,004
-257,395	-35,602	0,090	0,036
-256,380	800,000	-0,019	-0,050
-255,365	56,481	0,070	0,049
-254,351	18,714	-0,056	-0,033
-253,336	320,932	-0,018	-0,024
-252,322	-20,562	0,092	-0,041
-251,307	-141,393	0,084	-0,006
-250,292	594,345	-0,041	0,074
-249,278	-37,887	0,089	-0,034
-248,263	-105,162	-0,059	0,010
-247,249	103,407	-0,025	-0,021
-246,234	-121,551	0,132	0,016
-245,219	24,592	0,091	-0,055
-244,205	-125,955	0,130	0,014
-243,190	-49,231	-0,012	-0,004
-242,176	-200,000	-0,021	0,080
-241,161	-200,000	0,006	-0,050
-240,146	-50,749	-0,114	-0,039
-239,132	-200,000	-0,015	-0,082
-238,117	258,948	-0,116	-0,146
-237,103	-128,490	0,112	0,011
-236,088	-145,682	-0,116	-0,007
-235,073	350,562	-0,028	-0,040
-234,059	-47,072	0,113	0,040
-233,044	-200,000	0,023	0,245
-232,030	-200,000	-0,003	-0,174
-231,015	47,809	0,066	-0,045
-230,000	90,262	-0,041	0,033
-228,986	113,474	0,130	-0,115
-227,971	85,539	0,026	-0,021
-226,957	-134,282	-0,070	-0,006
-225,942	-92,111	-0,095	-0,019
-224,927	254,863	0,049	0,061
-223,913	-34,358	0,054	0,021
-222,898	46,668	-0,020	-0,013
-221,884	158,043	-0,024	0,024
-220,869	-200,000	0,021	-0,117
-219,855	554,257	0,036	0,063
-218,840	-156,886	0,064	0,003
-217,825	-28,500	-0,078	0,033
-216,811	-159,530	-0,084	0,003
-215,796	116,260	0,128	-0,114
-214,782	-200,000	-0,075	-0,265
-213,767	-198,678	-0,106	0,000
-212,752	800,000	0,017	-0,041
-211,738	-200,000	0,007	-0,045
-210,723	388,652	0,031	-0,047
-209,709	-57,694	-0,055	0,018
-208,694	-114,435	-0,012	-0,002
-207,679	163,647	-0,036	-0,037
-206,665	63,701	0,034	-0,025
-205,650	461,248	0,063	0,102
-204,636	159,602	0,044	-0,045
-203,621	-200,000	-0,024	0,118
-202,606	-25,314	0,105	0,045
-201,592	-109,090	-0,163	0,025
-200,577	-124,014	0,168	-0,019
-199,563	-20,828	-0,072	-0,032
-198,548	800,000	0,084	0,194
-197,533	-200,000	-0,003	0,111
-196,519	40,654	0,149	0,097
-195,504	-75,262	-0,133	-0,034
-194,490	-1,188	0,079	-0,040
-193,475	756,931	-0,054	-0,107
-192,460	293,807	0,043	-0,058
-191,446	-200,000	0,041	0,137
-190,431	-200,000	0,000	-0,006
-189,417	-32,110	0,059	-0,024
-188,402	22,470	-0,074	0,044
-187,387	-104,714	-0,121	0,020
-186,373	120,994	0,024	0,022
-185,358	310,578	0,034	0,046
-184,344	800,000	-0,062	0,159
-183,329	-32,676	0,091	0,037
-182,315	-90,406	-0,137	0,029
-181,300	-90,574	-0,083	0,017
-180,285	10,398	-0,115	-0,064
-179,271	613,366	0,020	-0,037
-178,256	388,698	0,010	-0,014
-177,242	178,460	-0,008	-0,009
-176,227	-111,443	0,049	0,007
-175,212	340,103	-0,064	-0,091
-174,198	43,027	-0,018	0,012
-173,183	-200,000	0,002	0,141
-172,169	-79,821	-0,139	0,034
-171,154	800,000	-0,014	0,032
-170,139	591,422	0,045	0,081
-169,125	375,366	-0,042	0,062
-168,110	800,000	-0,074	0,161
-167,096	400,632	-0,022	0,034
-166,081	-47,516	-0,052	-0,018
-165,066	16,904	0,083	0,048
-164,052	18,818	-0,112	0,065
-163,037	-200,000	0,022	0,098
-162,023	190,637	0,041	0,045
-161,008	209,895	-0,105	0,120
-159,993	-200,000	-0,013	0,181
-158,979	-43,120	-0,034	-0,012
-157,964	116,241	0,046	-0,041
-156,950	800,000	0,007	-0,014
-155,935	380,387	-0,070	0,104
-154,920	5,703	0,088	-0,047
-153,906	649,096	0,052	0,096
-152,891	-200,000	0,016	-0,096
-151,877	130,203	0,094	-0,088
-150,862	128,981	0,075	-0,069
-149,847	-142,970	0,076	0,005
-148,833	-119,926	-0,114	0,014
-147,818	242,844	0,022	0,027
-146,804	-200,000	0,011	0,101
-145,789	-200,000	-0,007	-0,079
-144,775	-46,306	-0,075	-0,027
-143,760	800,000	0,024	0,069
-142,745	593,334	-0,079	0,143
-141,731	23,758	-0,095	0,057
-140,716	85,788	0,177	0,141
-139,702	553,766	-0,036	-0,063
-138,687	-106,396	0,105	0,017
-137,672	-200,000	-0,035	0,128
-136,658	-200,000	-0,028	0,119
-135,643	-17,241	-0,030	0,014
-134,629	800,000	-0,008	0,026
-133,614	-52,373	-0,072	0,024
-132,599	132,995	0,110	0,103
-131,585	57,717	0,090	0,064
-130,570	800,000	-0,024	-0,074
-129,556	-116,488	-0,094	-0,012
-128,541	169,754	-0,103	0,107
-127,526	108,908	0,078	0,068
-126,512	-157,787	0,107	0,005
-125,497	-135,274	0,140	-0,012
-124,483	-200,000	-0,006	0,050
-123,468	-79,662	0,070	0,017
-122,453	800,000	-0,033	-0,079
-121,439	71,142	0,051	0,039
-120,424	47,986	-0,077	-0,052
-119,410	-134,421	-0,032	-0,003
-118,395	800,000	-0,033	-0,074
-117,380	431,556	0,038	-0,060
-116,366	-200,000	0,013	0,062
-115,351	308,561	0,039	-0,053
-114,337	57,450	0,033	-0,024
-113,322	-52,411	-0,188	0,063
-112,307	484,728	0,051	0,085
-111,293	5,940	0,050	0,027
-110,278	-111,937	-0,086	-0,012
-109,264	-102,200	0,164	0,028
-108,249	326,261	0,071	0,100
-107,234	-26,206	0,099	-0,042
-106,220	800,000	0,030	-0,083
-105,205	-200,000	0,004	0,068
-104,191	-171,438	-0,063	0,001
-103,176	77,770	0,124	0,096
-102,162	-6,890	0,151	0,074
-101,147	800,000	-0,046	0,105
-100,132	-200,000	-0,001	0,082
-99,118	800,000	-0,029	0,075
-98,103	415,584	0,042	-0,065
-97,089	-200,000	0,011	0,131
-96,074	-200,000	0,016	0,058
-95,059	-200,000	0,003	0,052
-94,045	-200,000	0,002	-0,021
-93,030	493,967	0,076	0,127
-92,016	3,224	-0,120	0,063
-91,001	-88,212	-0,094	-0,020
-89,986	5,328	0,031	-0,017
-88,972	230,944	0,059	-0,071
-87,957	516,928	0,090	0,152
-86,943	-182,446	0,166	-0,002
-85,928	294,549	-0,095	-0,126
-84,913	6,577	-0,148	-0,080
-83,899	-200,000	0,033	-0,113
-82,884	-200,000	-0,003	-0,020
-81,870	-200,000	-0,005	-0,056
-80,855	115,246	0,091	0,080
-79,840	175,533	0,088	0,092
-78,826	-21,745	-0,110	0,048
-77,811	-200,000	0,018	0,143
-76,797	-138,387	0,052	0,004
-75,782	638,515	0,051	-0,094
-74,767	140,078	0,027	0,025
-73,753	138,837	0,012	0,011
-72,738	-200,000	0,023	0,085
-71,724	-97,801	-0,217	-0,040
-70,709	800,000	0,024	0,066
-69,694	778,230	-0,041	-0,081
-68,680	800,000	0,047	-0,139
-67,665	-119,957	0,097	-0,012
-66,651	429,286	-0,039	-0,062
-65,636	119,623	0,072	0,065
-64,622	-142,102	-0,213	-0,015
-63,607	294,300	-0,036	-0,048
-62,592	-78,586	-0,154	0,038
-61,578	39,385	0,072	-0,047
-60,563	-200,000	-0,013	0,106
-59,549	-200,000	-0,001	0,038
-58,534	-177,594	-1,285	-0,022
-57,519	800,000	-0,705	-1,496
-56,505	-200,000	-0,834	-4,331
-55,490	-138,747	0,697	-0,054
-54,476	800,000	4,749	11,494
-53,461	-200,000	13,544	251,146
-52,446	-200,000	687,259	2254,022
-51,432	597,013	1618,547	2917,946
-50,417	120,207	1631,830	1467,608
-49,403	74,647	1286,793	980,006
-48,388	38,420	1022,658	659,107
-47,373	24,478	980,422	586,175
-46,359	23,668	970,169	577,375
-45,344	22,688	965,923	571,631
-44,330	22,646	964,381	570,559
-43,315	22,533	963,000	569,351
-42,300	22,470	961,986	568,524
-41,286	22,568	961,099	568,294
-40,271	22,567	960,150	567,707
-39,257	22,602	959,002	567,120
-38,242	22,534	958,084	566,336
-37,227	22,540	957,268	565,850
-36,213	22,531	956,253	565,199
-35,198	22,476	955,545	564,581
-34,184	22,549	955,018	564,482
-33,169	22,494	954,073	563,724
-32,154	22,520	953,118	563,220
-31,140	22,556	952,190	562,765
-30,125	22,509	951,689	562,297
-29,111	22,502	950,572	561,593
-28,096	22,541	950,055	561,388
-27,082	22,510	949,308	560,826
-26,067	22,561	948,545	560,517
-25,052	22,553	947,770	560,011
-24,038	22,574	947,092	559,653
-23,023	22,536	946,522	559,175
-22,009	22,580	945,838	558,887
-20,994	22,531	945,275	558,376
-19,979	22,616	944,788	558,337
-18,965	22,566	944,064	557,730
-17,950	22,521	943,453	557,201
-16,936	22,528	942,755	556,791
-15,921	22,476	942,038	556,180
-14,906	22,433	941,272	555,568
-13,892	22,418	940,809	555,225
-12,877	22,444	939,965	554,789
-11,863	22,434	939,332	554,361
-10,848	22,451	938,751	554,051
-9,833	22,511	938,487	554,062
-8,819	22,469	937,778	553,487
-7,804	22,367	937,259	552,838
-6,790	22,383	936,595	552,476
-5,775	22,456	935,993	552,328
-4,760	22,428	935,412	551,874
-3,746	22,426	934,667	551,406
-2,731	22,265	934,078	550,531
-1,717	22,209	933,468	549,973
-0,702	22,242	932,715	549,611
0,313	22,061	931,991	549,444
1,327	24,643	929,539	556,044
2,342	32,517	808,104	504,689
3,356	27,992	508,560	309,887
4,371	3,927	373,166	196,878
5,386	1,005	356,068	184,268
6,400	-0,512	349,897	179,233
7,415	-1,373	346,992	176,701
8,429	-1,473	345,430	175,771
9,444	-1,479	344,549	175,300
10,459	-1,630	343,855	174,753
11,473	-1,650	343,228	174,395
12,488	-1,338	342,811	174,536
13,502	-1,271	342,224	174,300
14,517	-1,471	341,713	173,789
15,531	-1,722	340,953	173,092
16,546	-1,874	340,677	172,759
17,561	-1,916	340,173	172,438
18,575	-1,778	339,867	172,429
19,590	-1,935	339,501	172,045
20,604	-1,761	339,164	172,063
21,619	-1,755	338,596	171,766
22,634	-1,847	338,526	171,608
23,648	-1,922	337,967	171,221
24,663	-1,682	337,595	171,297
25,677	-1,895	337,431	170,952
26,692	-1,689	336,927	170,919
27,707	-1,900	336,742	170,566
28,721	-2,042	336,461	170,245
29,736	-1,893	336,185	170,261
30,750	-2,051	335,832	169,885
31,765	-1,987	335,543	169,798
32,780	-1,926	335,287	169,723
33,794	-1,794	334,955	169,692
34,809	-1,631	334,528	169,648
35,823	-1,766	334,264	169,344
36,838	-1,897	334,170	169,130
37,853	-1,840	333,725	168,956
38,867	-1,884	333,614	168,834
39,882	-1,889	333,370	168,690
40,896	-1,820	332,945	168,538
41,911	-1,932	332,871	168,359
42,926	-2,081	332,441	167,955
43,940	-2,139	332,101	167,703
44,955	-1,884	331,827	167,840
45,969	-2,145	331,689	167,458
46,984	-2,379	331,384	167,023
47,999	-2,417	331,035	166,789
49,013	-2,450	330,751	166,594
50,028	-2,704	330,523	166,176
51,042	-2,358	330,034	166,307
52,057	-2,441	329,825	166,092
53,071	-2,593	329,690	165,839
54,086	-2,509	329,433	165,789
55,101	-2,359	329,062	165,757
56,115	-2,265	329,042	165,838
57,130	-1,733	328,767	166,285
58,144	-1,593	328,707	166,397
59,159	-1,600	328,402	166,219
60,174	-1,609	328,219	166,102
61,188	-1,660	328,062	165,950
62,203	-1,750	327,768	165,686
63,217	-1,859	327,465	165,395
64,232	-1,629	327,089	165,449
65,247	-1,541	327,003	165,489
66,261	-1,566	326,641	165,264
67,276	-1,994	326,264	164,579
68,290	-2,124	326,054	164,313
69,305	-2,044	325,815	164,268
70,320	-1,976	325,390	164,115
71,334	-1,968	325,326	164,076
72,349	-1,747	325,206	164,248
73,363	-1,765	325,066	164,142
74,378	-1,675	324,643	164,013
75,393	-1,750	324,349	163,768
76,407	-1,862	324,267	163,587
77,422	-1,687	323,844	163,554
78,436	-1,673	323,559	163,410
79,451	-1,603	323,367	163,376
80,466	-1,793	323,028	162,980
81,480	-1,896	322,665	162,669
82,495	-2,026	322,563	162,459
83,509	-2,054	322,257	162,260
84,524	-2,128	322,020	162,045
85,539	-2,267	321,648	161,690
86,553	-2,133	321,422	161,710
87,568	-2,158	321,316	161,614
88,582	-2,140	321,102	161,512
89,597	-2,161	320,954	161,400
90,611	-1,876	320,544	161,492
91,626	-1,949	320,569	161,409
92,641	-1,930	320,262	161,262
93,655	-1,933	320,038	161,132
94,670	-1,949	319,754	160,957
95,684	-1,839	319,481	160,925
96,699	-1,848	319,249	160,784
97,714	-2,080	319,096	160,439
98,728	-2,044	318,680	160,255
99,743	-2,184	318,336	159,915
100,757	-2,261	318,325	159,812
101,772	-2,196	317,929	159,670
102,787	-1,991	317,911	159,869
103,801	-1,964	317,719	159,788
104,816	-1,918	317,472	159,699
105,830	-1,739	317,250	159,767
106,845	-1,823	317,117	159,594
107,860	-1,753	316,869	159,532
108,874	-1,884	316,535	159,207
109,889	-1,842	316,186	159,063
110,903	-1,827	316,052	158,997
111,918	-1,955	315,791	158,715
112,933	-2,022	315,765	158,615
113,947	-1,844	315,490	158,654
114,962	-1,886	315,181	158,439
115,976	-1,837	314,937	158,355
116,991	-1,913	314,849	158,215
118,006	-1,873	314,595	158,116
119,020	-1,914	314,613	158,068
120,035	-1,844	314,345	157,993
121,049	-1,879	314,178	157,859
122,064	-1,812	313,777	157,715
123,079	-1,797	313,562	157,609
124,093	-1,838	313,187	157,361
125,108	-2,126	313,023	156,958
126,122	-2,386	312,621	156,466
127,137	-2,343	312,340	156,357
128,151	-2,179	312,174	156,434
129,166	-2,264	312,085	156,285
130,181	-2,083	311,960	156,401
131,195	-2,181	311,620	156,113
132,210	-1,954	311,481	156,269
133,224	-1,948	311,249	156,146
134,239	-1,881	311,112	156,135
135,254	-1,864	310,950	156,057
136,268	-1,803	310,514	155,889
137,283	-2,200	310,185	155,291
138,297	-2,274	309,905	155,058
139,312	-2,290	309,839	154,995
140,327	-1,847	309,592	155,324
141,341	-1,684	309,641	155,507
142,356	-1,460	309,394	155,604
143,370	-1,564	309,443	155,505
144,385	-1,537	309,138	155,367
145,400	-1,571	308,828	155,161
146,414	-1,504	308,539	155,073
147,429	-1,542	308,387	154,943
148,443	-1,451	308,144	154,902
149,458	-1,464	307,920	154,762
150,473	-1,511	307,816	154,647
151,487	-1,617	307,500	154,364
152,502	-1,499	307,271	154,358
153,516	-1,425	306,999	154,285
154,531	-1,685	306,900	153,950
155,546	-1,430	306,604	154,054
156,560	-1,537	306,376	153,814
157,575	-1,764	306,143	153,447
158,589	-1,830	306,207	153,397
159,604	-1,659	305,725	153,319
160,619	-1,577	305,412	153,234
161,633	-1,751	305,459	153,063
162,648	-1,648	305,335	153,095
163,662	-1,566	305,090	153,043
164,677	-1,554	304,833	152,913
165,692	-1,449	304,486	152,833
166,706	-1,475	304,499	152,799
167,721	-1,650	304,129	152,419
168,735	-1,563	304,054	152,458
169,750	-1,579	303,947	152,375
170,764	-1,347	303,718	152,485
171,779	-1,242	303,617	152,528
172,794	-1,210	303,344	152,410
173,808	-1,493	302,913	151,890
174,823	-1,880	302,581	151,313
175,837	-2,150	302,406	150,935
176,852	-1,823	302,406	151,257
177,867	-1,475	302,345	151,570
178,881	-1,355	302,179	151,596
179,896	-1,414	301,945	151,405
180,910	-1,305	301,776	151,418
181,925	-1,189	301,431	151,350
182,940	-1,256	301,255	151,180
183,954	-1,194	301,120	151,161
184,969	-1,399	300,932	150,845
185,983	-1,415	300,602	150,649
186,998	-1,472	300,467	150,510
188,013	-1,462	300,250	150,398
189,027	-1,412	299,885	150,253
190,042	-1,229	299,805	150,385
191,056	-1,305	299,640	150,211
192,071	-1,324	299,590	150,154
193,086	-1,299	299,337	150,040
194,100	-1,306	299,245	149,973
195,115	-1,410	298,928	149,696
196,129	-1,557	298,644	149,391
197,144	-1,325	298,564	149,572
198,159	-1,284	298,337	149,486
199,173	-1,180	297,954	149,386
200,188	-1,011	297,768	149,450
201,202	-1,368	297,628	149,007
202,217	-2,031	297,332	148,179
203,232	-1,962	297,083	148,111
204,246	-1,630	296,770	148,274
205,261	-1,315	296,792	148,588
206,275	-1,337	296,609	148,462
207,290	-1,185	296,402	148,497
208,304	-1,308	296,178	148,248
209,319	-1,178	296,036	148,295
210,334	-1,352	295,876	148,027
211,348	-1,331	295,596	147,894
212,363	-1,337	295,333	147,744
213,377	-1,340	295,236	147,679
214,392	-1,313	295,049	147,600
215,407	-1,512	294,953	147,339
216,421	-1,541	294,345	146,993
217,436	-1,602	294,191	146,844
218,450	-1,532	294,150	146,880
219,465	-1,545	294,010	146,783
220,480	-1,387	293,762	146,804
221,494	-1,349	293,693	146,793
222,509	-1,515	293,423	146,481
223,523	-1,354	293,279	146,556
224,538	-1,205	293,179	146,640
225,553	-1,090	293,036	146,669
226,567	-1,255	292,860	146,404
227,582	-1,302	292,724	146,277
228,596	-1,128	292,409	146,278
229,611	-1,077	292,363	146,293
230,626	-1,214	292,122	146,024
231,640	-1,758	291,635	145,232
232,655	-2,014	291,430	144,865
233,669	-1,952	291,081	144,740
234,684	-2,070	291,051	144,597
235,699	-1,936	290,872	144,626
236,713	-1,974	290,724	144,502
237,728	-1,672	290,659	144,753
238,742	-1,409	290,411	144,874
239,757	-1,329	290,187	144,827
240,772	-1,259	289,979	144,779
241,786	-1,377	289,874	144,599
242,801	-1,605	289,704	144,278
243,815	-1,657	289,482	144,105
244,830	-1,629	289,420	144,088
245,844	-1,750	289,080	143,788
246,859	-1,517	288,922	143,923
247,874	-1,493	288,599	143,773
248,888	-1,604	288,662	143,684
249,903	-1,281	288,412	143,860
250,917	-1,283	288,309	143,794
251,932	-1,027	288,332	144,041
252,947	-0,413	288,267	144,592
253,961	-0,308	288,115	144,604
254,976	0,444	288,496	145,512
255,990	2,339	288,978	147,583
257,005	2,864	289,094	148,139
258,020	3,818	289,338	149,177
259,034	4,179	289,272	149,480
260,049	4,177	288,885	149,265
261,063	3,802	288,771	148,829
262,078	4,280	288,551	149,166
263,093	4,848	288,633	149,744
264,107	4,726	288,462	149,525
265,122	4,734	288,201	149,383
266,136	4,978	288,205	149,607
267,151	4,856	288,003	149,372
268,166	4,552	287,780	148,949
269,180	4,663	287,467	148,882
270,195	4,637	287,288	148,750
271,209	4,775	287,081	148,762
272,224	4,679	286,916	148,571
273,239	4,395	286,868	148,261
274,253	4,662	286,504	148,316
275,268	4,900	286,470	148,513
276,282	4,794	286,410	148,367
277,297	4,750	286,077	148,139
278,312	5,065	285,941	148,356
279,326	4,904	285,853	148,143
280,341	4,762	285,555	147,841
281,355	4,585	285,264	147,508
282,370	4,374	285,247	147,284
283,384	4,573	284,946	147,305
284,399	4,372	284,855	147,054
285,414	4,744	284,509	147,216
286,428	4,580	284,206	146,891
287,443	4,204	284,067	146,448
288,457	4,217	283,884	146,353
289,472	4,312	283,704	146,337
290,487	4,347	283,601	146,305
291,501	4,213	283,276	145,996
292,516	4,046	282,924	145,644
293,530	4,102	282,876	145,659
294,545	4,354	282,907	145,901
295,560	4,426	282,618	145,806
296,574	4,183	282,447	145,476
297,589	4,345	282,279	145,530
298,603	4,621	282,221	145,747
299,618	4,656	282,114	145,712
300,633	4,384	281,830	145,296
301,647	4,443	281,546	145,192
302,662	4,579	281,446	145,255
303,676	4,256	281,209	144,817
304,691	3,984	280,986	144,434
305,706	4,036	280,690	144,317
306,720	3,961	280,504	144,138
307,735	3,904	280,410	144,024
308,749	4,131	280,318	144,176
309,764	4,357	280,201	144,315
310,779	4,124	279,739	143,847
311,793	4,058	279,513	143,656
312,808	3,966	279,532	143,567
313,822	4,128	279,264	143,567
314,837	3,846	279,157	143,237
315,852	3,807	278,908	143,060
316,866	4,054	278,645	143,142
317,881	4,169	278,618	143,223
318,895	4,016	278,474	142,994
319,910	3,814	278,106	142,604
320,925	3,742	277,918	142,428
321,939	4,015	277,816	142,616
322,954	4,048	277,760	142,606
323,968	4,032	277,811	142,604
324,983	4,114	277,497	142,506
325,997	4,170	277,362	142,476
327,012	4,495	277,072	142,615
328,027	4,532	276,861	142,527
329,041	4,085	276,789	142,066
330,056	4,121	276,520	141,948
331,070	4,191	276,312	141,893
332,085	4,209	276,225	141,852
333,100	4,219	275,958	141,711
334,114	4,246	275,806	141,645
335,129	4,033	275,471	141,265
336,143	4,302	275,438	141,482
337,158	4,533	275,417	141,671
338,173	4,343	275,150	141,347
339,187	4,170	274,826	141,010
340,202	4,214	274,689	140,967
341,216	4,390	274,606	141,073
342,231	4,094	274,443	140,706
343,246	4,168	274,260	140,667
344,260	4,151	274,025	140,518
345,275	4,320	273,984	140,639
346,289	4,545	274,028	140,854
347,304	4,601	273,692	140,720
348,319	4,328	273,455	140,338
349,333	4,213	273,245	140,112
350,348	4,469	273,068	140,241
351,362	4,666	273,040	140,393
352,377	4,570	272,925	140,235
353,392	4,560	272,761	140,129
354,406	4,507	272,636	140,004
355,421	190,855	1331,419	1407,379
356,435	154,167	1460,513	1407,500
