DTS Sentinel unit serial number:	SN410029Multiplexer serial number:	ORYXHardware model number:	OX2-SRSoftware version number:	ORYX F/W v4,00 Oryx Data Collector v3.7.2.0data status	okinstallation	B4 Nyhavnadifferential loss correction	single-endedforward channel	channel 2reverse channel	N/Adate	2023/12/18time	19:15:13forward acquisition time	300,00reverse acquisition time	0,00gamma	499,1914k internal	0,3124k external	0,3124temperature offset calibration	1,0000default loss term (dB/km)	0,3820temperature slope calibration	1,0000multiplexer offset coefficient	1,0000multiplexer slope coefficient	1,0000fibre end	0,00T internal ref (°C)	21,88T ext. ref 1 (°C)	6,94T ext. ref 2 (°C)	6,97length (m)	temperature (°C)	Stokes	anti-Stokes-744,400	-141,789	-0,153	0,011
-743,385	125,870	-0,121	0,114
-742,371	-131,125	0,100	-0,010
-741,356	-108,630	-0,217	0,034
-740,342	1,541	0,019	0,010
-739,327	79,897	-0,269	0,215
-738,312	-76,139	0,054	0,014
-737,298	31,073	-0,208	0,133
-736,283	318,774	0,054	-0,076
-735,269	64,627	-0,178	0,134
-734,254	-128,600	0,083	0,009
-733,239	-150,460	-0,440	0,025
-732,225	-170,682	0,174	0,004
-731,210	269,730	-0,126	0,165
-730,196	-149,232	-0,019	-0,001
-729,181	300,110	-0,068	0,093
-728,167	186,438	0,045	0,050
-727,152	-126,491	-0,226	0,025
-726,137	18,755	-0,017	0,010
-725,123	475,705	-0,030	-0,051
-724,108	-129,709	-0,149	-0,015
-723,094	142,873	-0,120	-0,119
-722,079	-200,000	-0,002	-0,132
-721,064	-200,000	-0,027	0,092
-720,050	183,366	0,007	-0,008
-719,035	-200,000	0,015	-0,064
-718,021	-126,178	-0,186	-0,020
-717,006	-114,876	0,022	0,003
-715,991	23,866	-0,080	-0,049
-714,977	800,000	-0,065	0,180
-713,962	1,293	-0,101	-0,054
-712,948	-200,000	0,011	0,085
-711,933	-46,923	0,056	0,020
-710,918	616,313	0,051	0,096
-709,904	-11,639	-0,055	-0,027
-708,889	313,476	-0,043	0,060
-707,875	-168,549	-0,099	0,003
-706,860	80,107	-0,122	0,098
-705,845	-200,000	0,006	-0,164
-704,831	-155,194	-0,012	0,001
-703,816	800,000	0,050	0,125
-702,802	25,127	0,018	0,011
-701,787	94,099	-0,179	-0,151
-700,772	-194,019	0,165	0,001
-699,758	94,742	0,090	-0,076
-698,743	269,120	0,074	0,096
-697,729	-15,741	-0,072	-0,034
-696,714	-58,613	0,023	-0,007
-695,699	220,758	-0,025	-0,030
-694,685	-200,000	-0,004	0,056
-693,670	-200,000	0,007	0,096
-692,656	-137,023	0,045	-0,004
-691,641	800,000	-0,046	-0,141
-690,627	-200,000	-0,004	0,072
-689,612	800,000	0,039	0,109
-688,597	16,495	-0,134	0,078
-687,583	227,017	0,056	-0,068
-686,568	104,616	-0,060	-0,052
-685,554	-100,838	-0,082	0,015
-684,539	-4,256	0,153	0,079
-683,524	-177,485	-0,100	0,002
-682,510	400,003	-0,016	0,025
-681,495	-148,692	-0,204	0,012
-680,481	-91,330	0,088	-0,018
-679,466	22,670	0,120	-0,073
-678,451	11,411	-0,084	-0,047
-677,437	-200,000	-0,014	-0,057
-676,422	800,000	0,020	-0,058
-675,408	132,101	-0,062	-0,060
-674,393	163,052	-0,090	-0,094
-673,378	326,538	-0,048	-0,068
-672,364	107,449	-0,073	0,064
-671,349	-9,380	0,070	-0,035
-670,335	35,535	0,009	0,006
-669,320	-200,000	-0,037	-0,147
-668,305	-200,000	0,014	0,112
-667,291	-135,245	0,064	-0,006
-666,276	46,992	-0,061	-0,042
-665,262	-97,251	-0,074	0,014
-664,247	1,272	-0,116	0,062
-663,232	160,909	0,079	-0,082
-662,218	0,467	0,055	0,029
-661,203	696,334	0,015	0,030
-660,189	150,907	-0,055	-0,055
-659,174	177,047	0,067	-0,073
-658,159	-102,039	-0,063	0,011
-657,145	800,000	-0,044	0,142
-656,130	781,156	-0,005	-0,010
-655,116	44,326	0,101	0,069
-654,101	131,939	-0,065	0,062
-653,086	99,183	0,021	0,018
-652,072	-200,000	-0,028	0,117
-651,057	24,395	-0,089	0,055
-650,043	60,817	-0,052	-0,038
-649,028	800,000	-0,066	-0,204
-648,014	62,518	-0,056	0,042
-646,999	-200,000	0,002	0,011
-645,984	800,000	-0,031	0,075
-644,970	86,651	-0,103	-0,084
-643,955	-28,810	-0,095	-0,040
-642,941	-200,000	-0,017	-0,167
-641,926	335,687	0,044	0,063
-640,911	-31,524	0,059	0,024
-639,897	141,760	-0,104	0,102
-638,882	-95,500	0,044	0,009
-637,868	-200,000	0,011	-0,084
-636,853	324,191	-0,050	0,071
-635,838	-200,000	0,004	-0,023
-634,824	-94,800	-0,013	0,003
-633,809	180,546	-0,015	0,017
-632,795	-80,557	0,029	0,007
-631,780	5,170	0,165	0,090
-630,765	-24,814	-0,099	-0,043
-629,751	-80,237	-0,126	-0,031
-628,736	-29,998	0,046	-0,019
-627,722	-200,000	-0,004	0,065
-626,707	195,427	-0,084	-0,095
-625,692	46,353	0,046	-0,031
-624,678	-200,000	-0,005	0,016
-623,663	-68,570	-0,047	-0,013
-622,649	58,954	-0,166	-0,121
-621,634	10,235	-0,113	-0,064
-620,619	-170,289	-0,010	-0,000
-619,605	-200,000	0,010	0,104
-618,590	800,000	-0,079	0,189
-617,576	190,509	0,052	0,058
-616,561	264,716	-0,080	0,103
-615,546	71,578	-0,082	0,063
-614,532	636,372	-0,042	-0,080
-613,517	96,464	-0,041	-0,035
-612,503	660,671	-0,018	-0,034
-611,488	606,221	0,051	-0,095
-610,474	74,575	-0,126	-0,098
-609,459	482,583	-0,025	0,043
-608,444	207,745	-0,038	-0,044
-607,430	-200,000	-0,039	-0,203
-606,415	153,731	-0,088	-0,090
-605,401	-95,697	0,140	0,027
-604,386	-96,437	-0,027	0,005
-603,371	-200,000	0,024	0,098
-602,357	-200,000	0,001	-0,007
-601,342	-9,391	-0,123	-0,061
-600,328	-11,669	-0,032	-0,016
-599,313	661,588	0,044	0,084
-598,298	-7,945	0,060	0,030
-597,284	800,000	-0,041	0,130
-596,269	194,292	-0,087	0,098
-595,255	151,050	0,004	-0,004
-594,240	-200,000	0,027	0,096
-593,225	-200,000	0,009	-0,092
-592,211	503,797	0,042	-0,072
-591,196	-200,000	-0,010	0,114
-590,182	115,360	0,199	0,180
-589,167	149,558	-0,063	-0,063
-588,152	-132,341	-0,074	-0,007
-587,138	-46,410	0,070	0,025
-586,123	-200,000	0,015	-0,069
-585,109	-84,639	0,066	0,015
-584,094	92,249	-0,063	-0,053
-583,079	-54,299	0,034	0,011
-582,065	124,825	0,044	-0,041
-581,050	-200,000	-0,008	-0,034
-580,036	89,330	-0,131	-0,108
-579,021	800,000	0,085	-0,191
-578,006	-167,144	-0,071	-0,002
-576,992	-127,314	0,056	-0,006
-575,977	-200,000	-0,008	-0,035
-574,963	-200,000	-0,010	-0,112
-573,948	-40,250	0,059	-0,023
-572,934	-200,000	-0,004	-0,030
-571,919	731,262	-0,061	-0,121
-570,904	-200,000	-0,011	0,036
-569,890	60,821	-0,056	-0,041
-568,875	121,517	-0,066	0,061
-567,861	117,064	0,069	0,062
-566,846	-23,441	-0,045	0,020
-565,831	5,162	-0,035	-0,019
-564,817	-89,034	0,036	-0,008
-563,802	-200,000	0,006	-0,094
-562,788	-200,000	-0,004	0,165
-561,773	-13,457	-0,071	0,034
-560,758	50,066	0,122	0,085
-559,744	-200,000	0,002	0,152
-558,729	50,141	-0,072	-0,050
-557,715	-200,000	-0,005	0,123
-556,700	194,847	-0,037	0,042
-555,685	-46,167	-0,113	0,041
-554,671	-95,021	-0,012	-0,002
-553,656	-200,000	0,012	-0,055
-552,642	-47,665	0,044	0,016
-551,627	-125,438	-0,029	-0,003
-550,612	800,000	-0,040	0,098
-549,598	-39,374	-0,047	0,018
-548,583	-200,000	-0,009	-0,036
-547,569	223,434	-0,023	-0,027
-546,554	800,000	-0,013	-0,030
-545,539	-200,000	-0,019	0,090
-544,525	-163,498	0,054	0,002
-543,510	-86,563	-0,069	-0,015
-542,496	-21,552	-0,123	0,055
-541,481	-6,191	-0,085	0,043
-540,466	535,983	-0,080	-0,140
-539,452	-100,082	0,009	0,002
-538,437	-191,520	0,047	0,000
-537,423	348,780	0,026	0,039
-536,408	674,783	-0,033	0,063
-535,393	297,354	0,009	-0,013
-534,379	-200,000	-0,012	0,042
-533,364	-82,523	-0,054	-0,013
-532,350	110,383	0,073	-0,065
-531,335	199,303	-0,071	-0,081
-530,321	25,962	0,145	-0,089
-529,306	163,027	-0,079	-0,082
-528,291	305,260	-0,042	0,058
-527,277	-13,237	-0,135	0,065
-526,262	57,723	-0,037	-0,027
-525,248	-97,398	0,038	-0,007
-524,233	258,104	0,054	0,068
-523,218	9,261	0,066	0,037
-522,204	17,932	-0,161	0,094
-521,189	-200,000	0,000	0,013
-520,175	250,517	-0,051	0,065
-519,160	-176,461	0,136	-0,003
-518,145	124,063	-0,052	0,048
-517,131	267,375	0,085	0,110
-516,116	-200,000	-0,004	-0,043
-515,102	-88,386	0,184	0,040
-514,087	8,813	0,050	-0,028
-513,072	95,130	-0,086	-0,073
-512,058	-35,911	0,117	0,047
-511,043	-200,000	-0,005	-0,108
-510,029	773,199	-0,029	0,058
-509,014	-146,063	0,098	-0,006
-507,999	-64,292	0,086	-0,026
-506,985	-78,955	-0,047	-0,012
-505,970	-32,010	-0,115	-0,047
-504,956	-99,204	-0,131	0,024
-503,941	303,925	-0,073	-0,100
-502,926	-200,000	-0,010	0,034
-501,912	-200,000	0,029	0,106
-500,897	-200,000	-0,028	-0,173
-499,883	-122,380	0,110	0,013
-498,868	-200,000	0,017	0,222
-497,853	-139,466	-0,097	0,008
-496,839	202,830	0,050	0,057
-495,824	18,412	-0,034	0,020
-494,810	-64,408	0,039	-0,011
-493,795	282,512	0,139	0,184
-492,781	100,227	-0,101	-0,087
-491,766	-200,000	-0,008	-0,056
-490,751	47,425	0,090	-0,062
-489,737	302,017	-0,020	0,028
-488,722	459,371	-0,041	0,068
-487,708	-66,332	0,166	-0,048
-486,693	224,739	0,018	0,021
-485,678	-99,154	0,119	-0,022
-484,664	800,000	-0,077	-0,158
-483,649	-200,000	-0,014	-0,088
-482,635	274,757	0,117	0,154
-481,620	475,576	0,062	-0,104
-480,605	598,294	0,053	0,098
-479,591	159,779	-0,007	0,007
-478,576	251,654	0,052	0,066
-477,562	800,000	0,030	0,084
-476,547	-124,625	0,115	-0,013
-475,532	105,710	0,055	-0,048
-474,518	-200,000	-0,035	-0,130
-473,503	292,938	0,078	-0,105
-472,489	94,544	-0,030	-0,025
-471,474	-200,000	-0,021	0,113
-470,459	139,853	-0,110	-0,107
-469,445	800,000	-0,045	-0,096
-468,430	443,653	-0,060	0,097
-467,416	-200,000	0,003	-0,018
-466,401	-200,000	-0,023	0,116
-465,386	-92,024	0,063	0,013
-464,372	-123,142	-0,071	-0,008
-463,357	6,721	-0,146	0,080
-462,343	-13,071	0,053	0,025
-461,328	248,836	-0,046	-0,057
-460,313	800,000	0,081	-0,192
-459,299	-200,000	0,009	0,121
-458,284	800,000	-0,033	0,084
-457,270	-200,000	0,009	-0,050
-456,255	-28,438	0,031	-0,013
-455,241	800,000	0,082	-0,172
-454,226	758,333	-0,052	0,105
-453,211	322,210	0,030	0,043
-452,197	-17,167	-0,020	0,009
-451,182	800,000	0,043	0,094
-450,168	-200,000	-0,012	0,049
-449,153	-200,000	-0,035	0,188
-448,138	-200,000	-0,009	-0,100
-447,124	183,026	0,022	-0,024
-446,109	-73,257	0,058	0,015
-445,095	151,143	-0,016	-0,016
-444,080	-119,320	-0,080	0,010
-443,065	-4,024	0,155	0,079
-442,051	800,000	0,040	0,110
-441,036	-106,335	0,025	0,004
-440,022	-200,000	-0,015	-0,071
-439,007	-73,135	0,013	0,004
-437,992	-200,000	0,035	0,203
-436,978	467,686	0,038	0,062
-435,963	-200,000	-0,010	0,036
-434,949	283,010	-0,084	-0,111
-433,934	197,997	0,063	-0,071
-432,919	100,383	-0,119	-0,102
-431,905	800,000	-0,027	-0,063
-430,890	653,035	-0,062	0,118
-429,876	-78,081	0,120	-0,030
-428,861	-141,851	-0,036	0,003
-427,846	-104,110	0,068	0,012
-426,832	-200,000	0,048	-0,160
-425,817	29,701	-0,078	0,049
-424,803	-180,371	0,217	0,003
-423,788	57,486	0,012	-0,009
-422,773	-200,000	-0,031	-0,136
-421,759	9,732	0,055	0,031
-420,744	-200,000	-0,014	0,087
-419,730	800,000	0,068	-0,147
-418,715	10,751	-0,152	-0,085
-417,701	220,271	0,053	0,063
-416,686	703,098	-0,077	0,150
-415,671	-156,855	0,145	0,006
-414,657	16,810	0,067	0,039
-413,642	-136,703	0,028	0,002
-412,628	597,082	-0,037	0,068
-411,613	80,067	0,061	0,048
-410,598	-200,000	-0,024	-0,107
-409,584	-120,851	0,158	-0,019
-408,569	771,098	0,037	-0,074
-407,555	489,530	0,073	0,124
-406,540	-119,469	-0,077	0,010
-405,525	-200,000	-0,006	-0,084
-404,511	556,038	0,035	-0,063
-403,496	-200,000	-0,011	0,107
-402,482	-200,000	-0,020	0,107
-401,467	800,000	-0,050	0,103
-400,452	-200,000	-0,022	0,075
-399,438	-111,429	0,045	0,007
-398,423	-200,000	-0,001	0,032
-397,409	-44,898	0,073	-0,027
-396,394	-24,583	0,104	-0,045
-395,379	609,008	-0,042	0,078
-394,365	-125,295	-0,041	-0,005
-393,350	-186,665	0,123	0,001
-392,336	-200,000	-0,015	-0,065
-391,321	-70,363	-0,039	-0,011
-390,306	-200,000	0,019	-0,137
-389,292	257,244	-0,040	0,051
-388,277	800,000	-0,040	-0,116
-387,263	800,000	-0,017	-0,053
-386,248	52,030	0,082	0,058
-385,233	415,955	0,021	-0,032
-384,219	-120,800	0,057	0,007
-383,204	550,168	-0,009	0,016
-382,190	-28,190	-0,078	-0,033
-381,175	-200,000	0,006	0,032
-380,160	-200,000	0,001	0,005
-379,146	201,183	0,022	0,025
-378,131	277,475	0,034	0,045
-377,117	33,389	0,058	0,037
-376,102	-51,504	-0,101	0,034
-375,088	-11,319	-0,090	-0,043
-374,073	-3,247	0,093	0,047
-373,058	88,236	-0,052	-0,042
-372,044	-69,617	0,174	-0,049
-371,029	20,492	-0,032	0,019
-370,015	-148,393	-0,094	-0,006
-369,000	-116,856	0,064	-0,008
-367,985	-11,905	-0,077	-0,037
-366,971	-48,724	-0,119	-0,042
-365,956	-200,000	0,004	-0,092
-364,942	800,000	-0,015	0,031
-363,927	-200,000	-0,020	0,088
-362,912	-200,000	0,004	-0,076
-361,898	141,954	-0,218	-0,213
-360,883	-200,000	0,177	-0,000
-359,869	707,287	0,030	-0,058
-358,854	255,761	0,067	-0,085
-357,839	150,010	0,043	0,043
-356,825	4,631	-0,033	-0,018
-355,810	17,816	-0,059	-0,035
-354,796	-131,790	-0,133	-0,013
-353,781	-52,220	-0,073	-0,025
-352,766	158,085	0,032	-0,032
-351,752	-200,000	0,001	0,015
-350,737	62,037	0,117	0,086
-349,723	800,000	-0,058	0,133
-348,708	800,000	-0,049	0,104
-347,693	88,498	-0,043	-0,035
-346,679	-103,857	0,035	0,006
-345,664	64,914	-0,035	-0,026
-344,650	702,254	0,033	-0,064
-343,635	245,514	-0,027	0,034
-342,620	130,818	0,067	0,064
-341,606	1,483	0,039	0,020
-340,591	-165,495	0,198	0,006
-339,577	-200,000	-0,010	0,069
-338,562	-47,793	-0,112	0,039
-337,548	-200,000	0,019	-0,119
-336,533	-200,000	-0,015	0,050
-335,518	800,000	0,030	0,085
-334,504	303,895	-0,063	-0,086
-333,489	-200,000	0,002	0,072
-332,475	222,708	0,060	-0,071
-331,460	-200,000	-0,010	0,050
-330,445	-200,000	-0,002	-0,019
-329,431	-200,000	-0,023	-0,077
-328,416	-177,173	0,039	-0,001
-327,402	800,000	0,076	0,183
-326,387	455,376	0,075	0,122
-325,372	-29,231	-0,066	-0,028
-324,358	15,398	0,142	-0,082
-323,343	79,936	-0,101	-0,080
-322,329	-74,261	-0,070	0,019
-321,314	-146,938	0,144	-0,009
-320,299	168,255	0,037	0,039
-319,285	32,342	-0,084	0,053
-318,270	800,000	-0,010	-0,023
-317,256	237,455	-0,032	0,039
-316,241	380,385	-0,030	0,045
-315,226	-108,565	0,157	0,024
-314,212	-200,000	-0,006	0,050
-313,197	800,000	-0,016	-0,036
-312,183	6,968	0,018	0,010
-311,168	85,758	-0,102	-0,082
-310,153	384,498	-0,090	0,136
-309,139	-200,000	0,005	-0,055
-308,124	153,145	0,049	-0,049
-307,110	-39,343	0,072	0,028
-306,095	-68,120	0,044	0,013
-305,080	119,674	0,054	0,049
-304,066	-200,000	0,009	-0,097
-303,051	-200,000	0,004	-0,118
-302,037	148,904	-0,213	-0,211
-301,022	59,583	0,043	0,031
-300,008	22,355	0,106	0,063
-298,993	800,000	0,046	0,146
-297,978	100,252	0,028	0,023
-296,964	-200,000	0,024	0,087
-295,949	-200,000	0,010	0,113
-294,935	18,593	-0,056	0,033
-293,920	22,744	0,119	-0,071
-292,905	305,024	0,088	0,120
-291,891	-30,528	-0,063	-0,026
-290,876	-72,309	0,080	-0,021
-289,862	-149,934	-0,066	-0,004
-288,847	777,590	-0,105	-0,211
-287,832	800,000	0,009	0,029
-286,818	-200,000	0,017	-0,095
-285,803	414,761	-0,038	-0,059
-284,789	237,793	0,085	-0,103
-283,774	283,506	0,062	-0,082
-282,759	26,639	0,071	-0,044
-281,745	13,075	-0,082	-0,046
-280,730	-200,000	-0,018	0,111
-279,716	282,870	0,074	-0,097
-278,701	56,518	0,094	-0,067
-277,686	199,531	0,074	-0,084
-276,672	-200,000	0,023	0,079
-275,657	-200,000	0,017	0,066
-274,643	65,421	-0,054	-0,040
-273,628	-1,597	-0,012	-0,006
-272,613	403,661	0,050	-0,078
-271,599	-47,858	-0,039	-0,014
-270,584	-200,000	-0,007	-0,027
-269,570	-200,000	-0,026	0,117
-268,555	-129,685	-0,053	0,005
-267,540	76,093	-0,186	-0,144
-266,526	-200,000	0,059	-0,253
-265,511	800,000	0,022	0,068
-264,497	108,173	-0,034	0,030
-263,482	-192,889	0,059	0,000
-262,467	800,000	-0,017	-0,045
-261,453	-161,554	0,089	-0,003
-260,438	414,627	0,095	0,149
-259,424	-164,900	-0,126	-0,004
-258,409	-200,000	0,021	-0,081
-257,395	-113,176	0,109	0,015
-256,380	328,764	0,094	0,133
-255,365	-55,947	-0,065	-0,021
-254,351	330,570	0,061	0,086
-253,336	-22,441	-0,036	0,016
-252,322	-14,516	-0,155	0,072
-251,307	94,015	-0,088	-0,073
-250,292	133,258	0,053	-0,050
-249,278	-5,486	0,091	0,046
-248,263	-200,000	0,013	0,170
-247,249	-110,949	0,094	0,014
-246,234	-1,295	0,071	-0,037
-245,219	-200,000	-0,034	-0,151
-244,205	-200,000	-0,016	-0,085
-243,190	38,227	0,127	-0,083
-242,176	86,985	-0,059	0,048
-241,161	-200,000	-0,011	-0,036
-240,146	800,000	-0,045	-0,108
-239,132	800,000	-0,050	-0,107
-238,117	-129,772	-0,095	-0,009
-237,103	535,661	-0,038	0,066
-236,088	-128,006	0,031	-0,003
-235,073	377,544	-0,020	0,029
-234,059	185,931	-0,122	0,133
-233,044	-134,528	0,090	0,008
-232,030	333,256	0,076	0,107
-231,015	-200,000	-0,008	-0,098
-230,000	39,682	0,053	-0,034
-228,986	-51,296	0,057	-0,019
-227,971	800,000	0,029	-0,086
-226,957	18,899	0,052	-0,030
-225,942	-151,737	0,051	0,003
-224,927	-101,601	0,076	0,013
-223,913	-60,191	-0,114	0,035
-222,898	800,000	-0,046	0,129
-221,884	-52,869	-0,074	-0,025
-220,869	-73,764	-0,067	-0,018
-219,855	5,083	0,095	0,051
-218,840	347,833	0,070	0,101
-217,825	66,933	-0,161	-0,120
-216,811	142,965	-0,039	0,038
-215,796	-13,990	-0,110	-0,052
-214,782	278,803	-0,091	-0,119
-213,767	704,647	0,093	-0,180
-212,752	324,279	-0,055	0,077
-211,738	-200,000	0,027	0,114
-210,723	-136,630	-0,016	-0,001
-209,709	89,344	-0,036	0,029
-208,694	-50,189	-0,069	-0,024
-207,679	800,000	-0,030	-0,067
-206,665	-200,000	-0,023	0,116
-205,650	731,797	-0,032	0,063
-204,636	135,506	0,092	0,087
-203,621	67,138	-0,046	-0,034
-202,606	-9,944	-0,046	-0,022
-201,592	127,736	-0,074	-0,068
-200,577	158,489	-0,060	-0,061
-199,563	424,892	-0,029	0,046
-198,548	-55,761	-0,010	-0,003
-197,533	-200,000	-0,021	0,102
-196,519	93,476	-0,086	-0,071
-195,504	117,156	-0,050	-0,044
-194,490	-104,603	-0,024	-0,004
-193,475	800,000	0,035	-0,104
-192,460	-48,968	-0,106	-0,037
-191,446	-200,000	0,000	-0,129
-190,431	-30,245	-0,032	-0,013
-189,417	48,327	0,052	-0,035
-188,402	-200,000	0,019	-0,099
-187,387	141,660	-0,046	0,045
-186,373	-200,000	0,011	0,083
-185,358	-200,000	-0,014	0,056
-184,344	201,417	0,105	0,118
-183,329	800,000	-0,042	0,117
-182,315	-52,813	0,018	-0,006
-181,300	800,000	0,025	0,072
-180,285	-10,231	-0,078	-0,038
-179,271	-76,281	0,054	0,014
-178,256	109,022	0,142	0,124
-177,242	-73,020	0,115	-0,031
-176,227	-200,000	0,024	0,194
-175,212	-22,424	0,047	0,021
-174,198	-200,000	-0,042	0,172
-173,183	-113,070	0,140	0,020
-172,169	-122,459	-0,082	-0,010
-171,154	-200,000	-0,025	-0,160
-170,139	-49,434	0,055	0,019
-169,125	800,000	0,080	0,214
-168,110	250,295	-0,047	0,058
-167,096	772,269	-0,026	-0,051
-166,081	123,366	0,057	0,052
-165,066	26,091	-0,091	0,055
-164,052	591,312	-0,007	-0,013
-163,037	169,731	-0,058	0,061
-162,023	353,414	0,074	-0,107
-161,008	255,989	0,043	-0,054
-159,993	-73,242	0,054	-0,014
-158,979	-200,000	-0,017	-0,093
-157,964	-200,000	0,022	-0,139
-156,950	254,669	0,042	0,053
-155,935	-39,614	0,140	0,053
-154,920	224,843	0,086	-0,102
-153,906	-0,014	0,095	0,049
-152,891	69,066	-0,179	-0,134
-151,877	156,354	-0,048	0,049
-150,862	-22,918	-0,114	-0,050
-149,847	707,114	0,034	0,067
-148,833	-200,000	0,036	-0,159
-147,818	800,000	0,054	-0,113
-146,804	104,665	-0,060	0,052
-145,789	130,851	0,073	0,069
-144,775	28,435	0,061	0,037
-143,760	-112,324	-0,116	-0,017
-142,745	800,000	-0,025	-0,076
-141,731	-200,000	0,021	0,084
-140,716	77,786	0,057	-0,044
-139,702	700,414	0,002	-0,005
-138,687	-200,000	0,001	0,018
-137,672	300,967	0,027	0,036
-136,658	-129,397	-0,071	-0,007
-135,643	-59,704	-0,265	0,082
-134,629	39,018	-0,067	-0,044
-133,614	336,047	-0,059	-0,084
-132,599	-200,000	-0,013	-0,103
-131,585	-200,000	0,005	0,051
-130,570	85,200	0,089	-0,071
-129,556	330,151	-0,043	0,061
-128,541	-200,000	-0,003	-0,123
-127,526	800,000	-0,052	-0,158
-126,512	75,273	-0,102	0,079
-125,497	151,316	-0,065	0,064
-124,483	800,000	-0,035	0,106
-123,468	-55,991	0,095	-0,031
-122,453	-81,926	0,095	-0,022
-121,439	800,000	-0,023	-0,054
-120,424	604,536	0,033	-0,060
-119,410	-138,965	-0,017	0,001
-118,395	-51,031	0,059	0,020
-117,380	173,305	0,101	0,106
-116,366	115,608	-0,111	0,099
-115,351	-24,428	-0,120	0,052
-114,337	-200,000	-0,024	-0,153
-113,322	800,000	-0,043	-0,097
-112,307	-200,000	0,011	-0,084
-111,293	-1,840	0,048	-0,025
-110,278	51,298	-0,124	0,085
-109,264	9,588	0,123	0,067
-108,249	636,860	0,023	0,043
-107,234	22,915	-0,089	0,053
-106,220	-26,581	0,133	-0,056
-105,205	800,000	-0,040	-0,084
-104,191	-86,622	0,093	-0,021
-103,176	144,696	-0,044	0,042
-102,162	-27,846	0,111	0,046
-101,147	800,000	-0,017	0,044
-100,132	754,870	-0,013	-0,025
-99,118	-200,000	0,043	-0,141
-98,103	-200,000	0,022	0,078
-97,089	800,000	0,022	0,067
-96,074	10,543	-0,029	0,016
-95,059	-101,601	-0,102	0,018
-94,045	375,838	0,077	-0,115
-93,030	800,000	0,029	0,070
-92,016	-8,876	-0,061	-0,029
-91,001	25,162	-0,077	-0,047
-89,986	-60,707	0,042	0,013
-88,972	-76,014	-0,093	-0,024
-87,957	-15,547	-0,100	-0,046
-86,943	222,784	-0,141	0,166
-85,928	800,000	-0,048	-0,128
-84,913	120,232	0,069	-0,062
-83,899	60,726	0,103	0,074
-82,884	800,000	0,025	0,078
-81,870	-62,077	0,064	0,019
-80,855	100,416	-0,044	-0,037
-79,840	38,269	-0,051	-0,033
-78,826	662,203	-0,065	-0,123
-77,811	-200,000	0,014	0,078
-76,797	44,157	-0,029	-0,019
-75,782	-122,266	0,032	0,004
-74,767	445,078	0,048	-0,078
-73,753	-76,392	-0,152	0,039
-72,738	-102,457	-0,044	0,008
-71,724	-3,946	0,092	-0,046
-70,709	800,000	0,014	0,032
-69,694	-150,831	-0,102	0,006
-68,680	12,304	-0,103	0,058
-67,665	171,411	0,097	0,102
-66,651	800,000	0,046	0,143
-65,636	143,731	-0,125	0,121
-64,622	-59,999	-0,073	-0,023
-63,607	527,205	0,015	0,025
-62,592	-66,983	0,155	0,044
-61,578	800,000	0,036	0,098
-60,563	20,117	0,108	0,063
-59,549	388,070	-0,063	0,095
-58,534	-149,109	-1,292	-0,074
-57,519	465,594	-0,859	-1,399
-56,505	-200,000	-0,810	-4,301
-55,490	-58,912	0,488	-0,152
-54,476	800,000	4,886	11,672
-53,461	-200,000	13,970	253,777
-52,446	-200,000	693,420	2262,663
-51,432	600,451	1624,206	2937,845
-50,417	117,795	1633,631	1459,299
-49,403	73,464	1287,748	976,967
-48,388	37,384	1023,837	657,038
-47,373	23,881	982,132	585,836
-46,359	23,129	971,738	577,146
-45,344	22,138	967,192	571,182
-44,330	22,062	965,617	569,983
-43,315	21,916	964,465	568,803
-42,300	21,905	963,278	568,044
-41,286	21,957	962,294	567,613
-40,271	21,930	961,337	566,936
-39,257	21,917	960,391	566,316
-38,242	21,864	959,595	565,649
-37,227	21,863	958,623	565,052
-36,213	21,871	957,699	564,510
-35,198	21,858	956,781	563,905
-34,184	21,945	956,168	563,804
-33,169	21,833	955,438	562,989
-32,154	21,942	954,347	562,676
-31,140	21,960	953,401	562,154
-30,125	22,027	952,614	561,882
-29,111	21,972	951,835	561,223
-28,096	21,909	951,182	560,612
-27,082	21,951	950,500	560,325
-26,067	21,902	949,655	559,645
-25,052	21,956	948,869	559,333
-24,038	21,912	948,509	558,959
-23,023	21,934	947,561	558,450
-22,009	21,941	946,799	558,001
-20,994	21,903	946,409	557,627
-19,979	21,919	945,800	557,297
-18,965	21,921	945,179	556,916
-17,950	21,924	944,447	556,469
-16,936	21,878	943,930	555,998
-15,921	21,831	943,099	555,337
-14,906	21,821	942,405	554,874
-13,892	21,801	941,845	554,458
-12,877	21,806	941,346	554,158
-11,863	21,779	940,602	553,612
-10,848	21,808	940,090	553,381
-9,833	21,841	939,736	553,255
-8,819	21,878	939,006	552,922
-7,804	21,737	938,375	552,082
-6,790	21,773	937,843	551,859
-5,775	21,845	937,060	551,604
-4,760	21,838	936,546	551,259
-3,746	21,767	935,886	550,622
-2,731	21,635	935,199	549,780
-1,717	21,583	934,605	549,244
-0,702	21,556	933,829	548,681
0,313	21,419	933,104	548,653
1,327	23,896	930,718	554,990
2,342	31,476	809,417	503,222
3,356	26,116	510,156	307,968
4,371	1,725	375,081	195,257
5,386	-1,216	357,953	182,700
6,400	-2,222	352,074	178,463
7,415	-2,412	349,412	176,869
8,429	-2,437	348,153	176,186
9,444	-2,333	347,176	175,801
10,459	-2,155	346,509	175,660
11,473	-2,284	345,865	175,163
12,488	-2,289	345,365	174,889
13,502	-2,348	344,722	174,478
14,517	-2,306	344,202	174,249
15,531	-2,254	343,920	174,152
16,546	-1,978	343,421	174,210
17,561	-2,029	342,931	173,886
18,575	-1,953	342,587	173,786
19,590	-2,121	342,243	173,398
20,604	-1,952	341,843	173,378
21,619	-2,124	341,389	172,931
22,634	-2,158	341,219	172,789
23,648	-2,094	340,879	172,677
24,663	-2,096	340,477	172,455
25,677	-1,996	340,139	172,386
26,692	-1,973	339,868	172,260
27,707	-2,044	339,516	171,983
28,721	-2,180	339,287	171,694
29,736	-1,959	339,045	171,813
30,750	-2,132	338,679	171,412
31,765	-2,130	338,323	171,218
32,780	-1,934	338,096	171,315
33,794	-2,088	337,718	170,930
34,809	-2,179	337,578	170,738
35,823	-2,139	337,317	170,637
36,838	-2,082	336,780	170,416
37,853	-2,225	336,568	170,128
38,867	-2,089	336,339	170,154
39,882	-2,026	336,100	170,091
40,896	-2,057	335,829	169,903
41,911	-2,087	335,603	169,739
42,926	-2,028	335,318	169,648
43,940	-2,012	335,077	169,529
44,955	-2,104	334,752	169,244
45,969	-1,981	334,503	169,244
46,984	-2,153	334,323	168,941
47,999	-2,066	334,060	168,892
49,013	-2,020	333,829	168,813
50,028	-2,114	333,615	168,583
51,042	-2,285	333,262	168,193
52,057	-2,289	332,943	168,013
53,071	-2,185	332,644	167,966
54,086	-2,173	332,442	167,863
55,101	-2,120	332,234	167,803
56,115	-2,141	331,952	167,621
57,130	-1,998	331,699	167,641
58,144	-2,127	331,294	167,275
59,159	-2,055	330,953	167,170
60,174	-2,124	330,788	166,994
61,188	-2,129	330,660	166,908
62,203	-2,022	330,264	166,815
63,217	-2,181	330,271	166,624
64,232	-2,059	329,773	166,496
65,247	-2,035	329,489	166,364
66,261	-2,164	329,407	166,162
67,276	-2,068	329,044	166,072
68,290	-2,030	328,816	165,985
69,305	-2,141	328,576	165,724
70,320	-1,937	328,255	165,777
71,334	-2,142	328,078	165,442
72,349	-2,051	327,841	165,411
73,363	-2,162	327,553	165,126
74,378	-2,210	327,309	164,934
75,393	-2,044	326,839	164,868
76,407	-2,006	326,806	164,880
77,422	-2,004	326,508	164,717
78,436	-2,125	326,201	164,412
79,451	-2,069	325,930	164,323
80,466	-2,083	325,630	164,142
81,480	-2,021	325,527	164,145
82,495	-1,912	325,271	164,122
83,509	-2,083	325,106	163,834
84,524	-2,136	324,882	163,648
85,539	-1,923	324,540	163,697
86,553	-1,953	324,474	163,616
87,568	-2,030	324,138	163,347
88,582	-2,004	323,878	163,231
89,597	-1,994	323,603	163,087
90,611	-2,088	323,353	162,843
91,626	-1,961	323,200	162,892
92,641	-1,995	322,893	162,686
93,655	-2,140	322,647	162,387
94,670	-2,239	322,409	162,144
95,684	-2,060	322,194	162,218
96,699	-2,183	322,086	162,014
97,714	-2,045	321,792	162,003
98,728	-2,059	321,714	161,934
99,743	-2,070	321,335	161,717
100,757	-2,082	321,198	161,620
101,772	-1,984	320,835	161,531
102,787	-2,265	320,625	161,103
103,801	-2,118	320,390	161,131
104,816	-2,134	320,144	160,976
105,830	-2,113	319,906	160,864
106,845	-2,009	319,728	160,874
107,860	-2,267	319,451	160,439
108,874	-2,137	319,185	160,432
109,889	-2,167	318,817	160,201
110,903	-2,145	318,612	160,108
111,918	-2,122	318,469	160,046
112,933	-2,097	318,177	159,913
113,947	-2,119	318,046	159,809
114,962	-2,055	317,807	159,744
115,976	-2,167	317,652	159,530
116,991	-2,232	317,476	159,358
118,006	-2,099	317,103	159,299
119,020	-2,174	317,066	159,186
120,035	-2,120	316,778	159,085
121,049	-1,971	316,609	159,147
122,064	-2,098	316,367	158,874
123,079	-2,004	316,113	158,834
124,093	-2,079	315,864	158,614
125,108	-2,006	315,534	158,513
126,122	-2,121	315,255	158,234
127,137	-2,035	315,260	158,315
128,151	-2,072	314,929	158,096
129,166	-2,009	314,631	157,999
130,181	-1,933	314,491	157,996
131,195	-1,954	314,169	157,798
132,210	-2,101	313,861	157,472
133,224	-2,074	313,809	157,461
134,239	-2,188	313,510	157,175
135,254	-2,130	313,333	157,134
136,268	-2,137	313,055	156,973
137,283	-1,962	312,844	157,040
138,297	-2,119	312,726	156,799
139,312	-2,292	312,440	156,457
140,327	-2,057	312,110	156,528
141,341	-2,066	311,965	156,432
142,356	-2,117	311,798	156,281
143,370	-2,190	311,647	156,113
144,385	-2,030	311,476	156,183
145,400	-1,981	311,062	156,014
146,414	-2,066	310,887	155,822
147,429	-2,177	310,720	155,607
148,443	-2,159	310,494	155,499
149,458	-2,195	310,478	155,439
150,473	-1,947	310,002	155,448
151,487	-2,103	309,866	155,202
152,502	-2,112	309,688	155,089
153,516	-2,088	309,445	154,979
154,531	-1,993	309,063	154,874
155,546	-1,944	308,971	154,866
156,560	-2,207	308,846	154,513
157,575	-2,052	308,590	154,533
158,589	-2,037	308,208	154,345
159,604	-2,049	308,035	154,231
160,619	-1,928	307,895	154,274
161,633	-1,727	307,652	154,349
162,648	-1,951	307,473	154,012
163,662	-1,842	307,226	153,987
164,677	-1,937	307,080	153,802
165,692	-1,991	306,897	153,640
166,706	-1,971	306,628	153,512
167,721	-1,842	306,542	153,590
168,735	-2,019	306,376	153,309
169,750	-2,035	306,255	153,218
170,764	-2,181	305,977	152,913
171,779	-2,074	305,721	152,883
172,794	-1,993	305,601	152,893
173,808	-2,134	305,334	152,600
174,823	-2,080	304,985	152,467
175,837	-2,058	305,007	152,488
176,852	-1,920	304,651	152,439
177,867	-1,873	304,441	152,369
178,881	-2,059	304,346	152,116
179,896	-2,131	304,106	151,908
180,910	-2,036	303,810	151,845
181,925	-2,148	303,616	151,619
182,940	-2,177	303,399	151,467
183,954	-1,851	303,223	151,701
184,969	-2,057	303,094	151,412
185,983	-1,848	302,904	151,517
186,998	-1,898	302,658	151,330
188,013	-1,884	302,450	151,226
189,027	-1,936	302,359	151,114
190,042	-2,114	302,048	150,763
191,056	-1,979	301,788	150,758
192,071	-1,967	301,503	150,614
193,086	-2,137	301,343	150,347
194,100	-2,030	301,124	150,334
195,115	-1,956	301,040	150,354
196,129	-1,965	300,856	150,240
197,144	-1,909	300,426	150,068
198,159	-2,086	300,286	149,805
199,173	-1,955	299,994	149,780
200,188	-2,252	299,747	149,341
201,202	-2,123	299,644	149,407
202,217	-2,045	299,336	149,319
203,232	-2,066	299,219	149,227
204,246	-1,911	298,951	149,236
205,261	-1,976	298,774	149,068
206,275	-1,988	298,842	149,077
207,290	-2,000	298,623	148,943
208,304	-1,920	298,402	148,900
209,319	-1,950	298,054	148,683
210,334	-1,794	297,699	148,649
211,348	-2,027	297,671	148,387
212,363	-1,961	297,546	148,379
213,377	-1,949	297,254	148,231
214,392	-1,884	296,927	148,121
215,407	-2,021	296,869	147,941
216,421	-1,945	296,618	147,879
217,436	-2,027	296,350	147,650
218,450	-2,112	296,172	147,464
219,465	-2,068	296,007	147,412
220,480	-1,927	295,875	147,473
221,494	-2,076	295,727	147,238
222,509	-1,943	295,567	147,278
223,523	-2,148	295,225	146,890
224,538	-1,817	295,005	147,098
225,553	-1,996	294,875	146,841
226,567	-2,015	294,782	146,762
227,582	-1,758	294,439	146,834
228,596	-1,900	294,290	146,605
229,611	-2,002	294,143	146,419
230,626	-1,883	293,925	146,415
231,640	-1,975	293,746	146,221
232,655	-1,834	293,454	146,203
233,669	-2,059	293,299	145,890
234,684	-1,945	293,109	145,895
235,699	-1,995	292,972	145,764
236,713	-2,118	292,886	145,586
237,728	-2,138	292,581	145,403
238,742	-1,899	292,298	145,484
239,757	-2,083	292,126	145,204
240,772	-2,081	292,087	145,174
241,786	-1,979	291,778	145,108
242,801	-2,148	291,703	144,892
243,815	-2,028	291,450	144,871
244,830	-2,133	291,224	144,642
245,844	-2,048	290,972	144,589
246,859	-2,023	290,723	144,476
247,874	-2,233	290,698	144,244
248,888	-1,955	290,387	144,350
249,903	-2,180	290,305	144,076
250,917	-2,249	290,072	143,880
251,932	-2,191	289,845	143,811
252,947	-2,460	289,576	143,402
253,961	-2,692	289,063	142,909
254,976	-3,053	288,978	142,502
255,990	-3,056	288,583	142,292
257,005	-2,563	288,945	142,938
258,020	-0,101	289,645	145,675
259,034	1,303	290,253	147,339
260,049	1,996	290,085	147,917
261,063	2,369	289,984	148,215
262,078	2,618	289,951	148,428
263,093	2,722	289,885	148,483
264,107	3,026	289,868	148,756
265,122	3,301	289,783	148,968
266,136	3,445	289,461	148,929
267,151	3,473	289,343	148,882
268,166	3,384	289,060	148,636
269,180	3,392	288,895	148,547
270,195	3,130	288,844	148,253
271,209	3,019	288,627	148,021
272,224	3,180	288,345	148,019
273,239	3,142	288,192	147,890
274,253	3,102	287,830	147,653
275,268	3,066	287,735	147,555
276,282	3,005	287,655	147,443
277,297	3,216	287,279	147,440
278,312	3,201	287,263	147,404
279,326	3,220	286,949	147,248
280,341	3,163	286,747	147,077
281,355	3,172	286,584	146,988
282,370	3,093	286,389	146,800
283,384	3,002	286,241	146,624
284,399	3,004	286,116	146,548
285,414	2,966	285,957	146,417
286,428	3,097	285,638	146,366
287,443	3,024	285,382	146,152
288,457	2,855	285,279	145,925
289,472	2,972	284,955	145,858
290,487	2,788	284,985	145,684
291,501	3,032	284,424	145,617
292,516	2,698	284,487	145,318
293,530	2,836	284,421	145,403
294,545	2,961	284,167	145,379
295,560	2,773	283,990	145,096
296,574	2,810	283,725	144,983
297,589	2,599	283,615	144,714
298,603	2,784	283,317	144,724
299,618	2,931	283,118	144,749
300,633	2,792	283,029	144,559
301,647	2,846	282,880	144,521
302,662	3,048	282,825	144,671
303,676	3,056	282,557	144,529
304,691	3,058	282,440	144,459
305,706	3,211	282,255	144,496
306,720	3,255	282,252	144,522
307,735	3,281	281,964	144,386
308,749	3,143	281,837	144,179
309,764	3,229	281,513	144,082
310,779	3,244	281,236	143,941
311,793	3,212	281,065	143,810
312,808	3,025	281,000	143,588
313,822	3,108	280,754	143,528
314,837	3,183	280,639	143,527
315,852	3,158	280,337	143,336
316,866	3,034	280,393	143,235
317,881	3,054	280,119	143,102
318,895	2,963	279,752	142,816
319,910	2,997	279,614	142,765
320,925	3,179	279,358	142,791
321,939	3,089	279,396	142,714
322,954	3,204	279,178	142,697
323,968	3,295	279,050	142,703
324,983	3,105	278,956	142,466
325,997	3,180	278,808	142,447
327,012	3,194	278,509	142,295
328,027	3,267	278,412	142,301
329,041	3,209	278,111	142,080
330,056	3,249	277,967	142,031
331,070	3,227	277,776	141,900
332,085	3,138	277,645	141,739
333,100	3,260	277,226	141,624
334,114	3,102	277,283	141,495
335,129	3,252	276,951	141,452
336,143	3,265	276,757	141,352
337,158	3,100	276,716	141,166
338,173	3,189	276,646	141,199
339,187	3,234	276,321	141,063
340,202	3,146	276,110	140,862
341,216	3,349	275,812	140,884
342,231	3,316	275,722	140,795
343,246	3,223	275,615	140,642
344,260	3,209	275,357	140,484
345,275	3,208	275,306	140,446
346,289	3,308	275,003	140,370
347,304	3,072	274,949	140,114
348,319	3,083	274,771	140,021
349,333	3,192	274,648	140,045
350,348	3,203	274,441	139,938
351,362	3,169	274,275	139,809
352,377	3,274	274,115	139,811
353,392	3,254	273,921	139,681
354,406	3,195	273,669	139,487
355,421	191,647	1351,192	1432,404
356,435	154,747	1482,585	1432,539
