DTS Sentinel unit serial number:	SN410029Multiplexer serial number:	ORYXHardware model number:	OX2-SRSoftware version number:	ORYX F/W v4,00 Oryx Data Collector v3.7.2.0data status	okinstallation	B4 Nyhavnadifferential loss correction	single-endedforward channel	channel 2reverse channel	N/Adate	2023/12/19time	12:50:13forward acquisition time	300,00reverse acquisition time	0,00gamma	499,1914k internal	0,3128k external	0,3128temperature offset calibration	1,0000default loss term (dB/km)	0,3820temperature slope calibration	1,0000multiplexer offset coefficient	1,0000multiplexer slope coefficient	1,0000fibre end	0,00T internal ref (°C)	19,49T ext. ref 1 (°C)	4,33T ext. ref 2 (°C)	4,24length (m)	temperature (°C)	Stokes	anti-Stokes-744,400	85,674	0,100	-0,082
-743,385	-81,298	-0,126	0,031
-742,371	-30,737	0,089	-0,037
-741,356	1,382	-0,134	-0,072
-740,342	207,818	0,062	0,073
-739,327	-153,523	-0,351	0,018
-738,312	-200,000	-0,014	-0,057
-737,298	7,601	-0,253	0,140
-736,283	-123,252	0,236	0,028
-735,269	23,795	-0,383	0,234
-734,254	-22,402	0,102	0,046
-733,239	-130,592	-0,577	-0,057
-732,225	800,000	0,045	0,102
-731,210	-200,000	0,007	0,096
-730,196	110,901	0,026	-0,023
-729,181	27,866	0,071	0,044
-728,167	-108,136	-0,056	-0,009
-727,152	-100,472	-0,038	-0,007
-726,137	202,820	-0,066	-0,076
-725,123	800,000	0,039	-0,087
-724,108	-75,476	-0,044	0,012
-723,094	-119,476	-0,098	0,012
-722,079	-62,265	-0,143	0,044
-721,064	-200,000	-0,018	-0,063
-720,050	-145,949	0,102	0,007
-719,035	463,346	-0,053	-0,088
-718,021	196,170	0,062	-0,071
-717,006	-200,000	0,009	-0,146
-715,991	76,851	-0,118	-0,093
-714,977	-106,144	-0,192	-0,032
-713,962	-200,000	-0,011	-0,097
-712,948	-79,666	0,112	-0,028
-711,933	-139,536	-0,147	0,011
-710,918	-47,196	-0,136	-0,049
-709,904	800,000	-0,029	-0,065
-708,889	218,380	-0,164	-0,195
-707,875	-14,114	-0,063	-0,030
-706,860	509,268	0,051	-0,089
-705,845	345,597	-0,011	0,017
-704,831	-200,000	0,007	0,046
-703,816	58,325	0,040	-0,029
-702,802	507,055	-0,027	-0,047
-701,787	-103,960	-0,096	-0,016
-700,772	-200,000	-0,024	0,140
-699,758	-200,000	-0,028	-0,207
-698,743	800,000	0,025	0,066
-697,729	98,169	0,059	-0,050
-696,714	196,584	-0,083	-0,094
-695,699	-12,998	-0,072	0,035
-694,685	108,559	-0,068	-0,061
-693,670	-0,223	-0,039	0,021
-692,656	678,162	-0,043	-0,083
-691,641	-91,753	-0,082	0,017
-690,627	-27,988	0,164	-0,070
-689,612	-17,254	-0,029	-0,013
-688,597	800,000	-0,036	-0,084
-687,583	73,563	-0,107	-0,083
-686,568	-40,785	-0,154	-0,059
-685,554	-128,111	-0,157	0,016
-684,539	104,715	0,062	0,054
-683,524	19,569	0,085	-0,051
-682,510	191,117	-0,039	-0,043
-681,495	76,137	-0,091	0,071
-680,481	800,000	-0,025	0,080
-679,466	800,000	-0,024	-0,059
-678,451	800,000	-0,061	0,146
-677,437	-200,000	0,029	0,157
-676,422	-200,000	0,013	0,078
-675,408	-200,000	0,042	0,179
-674,393	237,893	0,010	0,013
-673,378	146,959	-0,067	-0,067
-672,364	-16,455	-0,155	0,073
-671,349	-8,910	0,120	0,060
-670,335	-200,000	-0,030	0,142
-669,320	-200,000	-0,006	-0,071
-668,305	-1,068	0,083	-0,044
-667,291	89,191	-0,038	0,031
-666,276	48,345	-0,128	-0,089
-665,262	195,205	0,105	-0,119
-664,247	6,672	-0,123	-0,068
-663,232	-70,109	0,116	-0,032
-662,218	67,638	0,113	0,085
-661,203	27,797	-0,094	0,059
-660,189	-30,251	-0,068	-0,028
-659,174	-62,700	-0,055	-0,017
-658,159	-18,493	-0,153	-0,071
-657,145	-200,000	-0,014	-0,126
-656,130	25,156	-0,087	-0,054
-655,116	-133,758	-0,081	0,007
-654,101	-119,944	0,152	-0,019
-653,086	-27,736	-0,111	-0,047
-652,072	253,837	-0,055	0,069
-651,057	-190,838	-0,109	-0,001
-650,043	-144,606	0,051	0,003
-649,028	-200,000	0,007	-0,146
-648,014	57,206	0,063	-0,046
-646,999	58,399	-0,137	0,100
-645,984	800,000	-0,012	0,034
-644,970	49,390	-0,114	-0,079
-643,955	800,000	0,017	-0,043
-642,941	27,887	-0,126	-0,078
-641,926	-78,430	-0,112	-0,028
-640,911	-27,534	0,074	0,032
-639,897	-41,252	-0,069	-0,026
-638,882	259,957	0,123	-0,158
-637,868	-200,000	-0,009	0,104
-636,853	152,584	-0,065	0,066
-635,838	557,894	-0,073	-0,131
-634,824	442,577	-0,017	-0,028
-633,809	-71,315	-0,069	-0,019
-632,795	776,401	-0,018	0,036
-631,780	-9,738	0,105	0,052
-630,765	422,765	0,012	-0,019
-629,751	-63,292	-0,083	-0,025
-628,736	-56,811	-0,067	-0,022
-627,722	-200,000	-0,015	-0,064
-626,707	280,870	0,012	0,016
-625,692	-200,000	0,012	0,061
-624,678	-33,471	-0,048	0,020
-623,663	46,911	-0,054	-0,037
-622,649	800,000	-0,011	-0,027
-621,634	-200,000	0,003	-0,072
-620,619	-200,000	0,005	-0,084
-619,605	-31,486	-0,126	0,052
-618,590	-41,641	-0,046	-0,017
-617,576	-129,499	0,072	0,007
-616,561	-200,000	-0,025	0,095
-615,546	-39,985	-0,061	0,023
-614,532	-98,938	-0,079	-0,015
-613,517	-78,646	0,097	0,024
-612,503	800,000	-0,089	0,205
-611,488	-72,095	0,092	0,025
-610,474	378,201	0,043	-0,066
-609,459	-73,954	-0,115	0,031
-608,444	-128,978	-0,066	-0,007
-607,430	800,000	-0,016	-0,038
-606,415	800,000	-0,028	-0,084
-605,401	-65,556	0,187	0,055
-604,386	-132,177	0,146	0,014
-603,371	-71,994	0,067	0,018
-602,357	145,861	0,061	-0,061
-601,342	149,530	0,115	0,115
-600,328	800,000	-0,053	-0,124
-599,313	119,064	-0,127	-0,116
-598,298	800,000	0,047	-0,104
-597,284	322,491	0,007	0,010
-596,269	-36,003	-0,064	-0,025
-595,255	145,378	-0,042	0,042
-594,240	786,903	-0,037	-0,076
-593,225	82,477	0,071	-0,057
-592,211	201,975	0,017	-0,020
-591,196	-200,000	0,008	0,157
-590,182	187,667	0,048	-0,053
-589,167	62,927	-0,038	0,028
-588,152	78,854	-0,045	0,036
-587,138	-200,000	-0,003	0,050
-586,123	-73,828	0,068	0,018
-585,109	-160,259	-0,054	-0,002
-584,094	-200,000	0,000	-0,063
-583,079	800,000	-0,024	0,056
-582,065	800,000	0,052	0,118
-581,050	149,101	-0,051	0,051
-580,036	-51,330	-0,053	0,018
-579,021	-14,050	0,026	0,013
-578,006	-200,000	-0,001	0,012
-576,992	-32,889	-0,097	0,040
-575,977	397,805	0,054	-0,084
-574,963	-200,000	0,006	-0,033
-573,948	66,295	0,060	0,045
-572,934	-19,627	-0,110	0,050
-571,919	26,342	0,027	-0,016
-570,904	67,160	0,080	-0,060
-569,890	800,000	-0,042	-0,096
-568,875	800,000	0,020	0,059
-567,861	-134,262	-0,055	0,005
-566,846	-200,000	-0,015	0,070
-565,831	-26,734	-0,108	0,047
-564,817	-200,000	0,012	-0,054
-563,802	-107,772	-0,069	-0,011
-562,788	60,129	-0,176	-0,128
-561,773	-8,067	-0,040	0,020
-560,758	-137,585	0,019	-0,002
-559,744	-78,128	0,162	-0,041
-558,729	-101,751	0,118	-0,021
-557,715	-12,311	-0,098	-0,047
-556,700	300,436	0,049	-0,067
-555,685	-200,000	-0,001	0,025
-554,671	-46,870	0,140	-0,050
-553,656	-10,740	0,042	-0,020
-552,642	-158,275	0,050	-0,002
-551,627	392,921	-0,030	0,047
-550,612	7,065	0,153	0,084
-549,598	800,000	0,051	-0,128
-548,583	-200,000	-0,006	-0,064
-547,569	-79,143	-0,024	0,006
-546,554	121,033	0,032	-0,029
-545,539	72,960	0,027	-0,021
-544,525	-200,000	0,015	0,059
-543,510	623,989	0,047	0,088
-542,496	174,917	-0,050	-0,053
-541,481	760,862	-0,026	-0,052
-540,466	-154,207	0,096	-0,005
-539,452	552,590	0,052	0,092
-538,437	-200,000	0,071	0,269
-537,423	800,000	-0,018	0,054
-536,408	-200,000	0,002	-0,045
-535,393	-21,342	-0,130	-0,058
-534,379	800,000	-0,041	-0,095
-533,364	451,946	-0,048	-0,079
-532,350	-200,000	-0,008	-0,059
-531,335	-200,000	-0,003	0,024
-530,321	800,000	-0,033	0,107
-529,306	-116,005	0,043	-0,006
-528,291	303,070	0,035	-0,048
-527,277	-200,000	-0,009	0,038
-526,262	64,803	0,063	0,047
-525,248	212,061	-0,015	0,018
-524,233	-102,293	0,130	0,023
-523,218	-54,505	-0,144	0,048
-522,204	-200,000	-0,026	-0,103
-521,189	-200,000	-0,011	-0,144
-520,175	302,592	-0,070	0,095
-519,160	-89,837	0,113	0,024
-518,145	84,503	-0,080	0,064
-517,131	-14,601	0,086	0,041
-516,116	559,611	-0,044	0,078
-515,102	-134,673	0,033	0,003
-514,087	800,000	-0,044	-0,119
-513,072	-17,823	-0,031	0,015
-512,058	-89,760	-0,101	0,022
-511,043	800,000	0,069	-0,147
-510,029	-121,269	-0,097	0,012
-509,014	184,041	-0,051	0,056
-507,999	-100,959	0,024	0,004
-506,985	-41,922	0,110	0,041
-505,970	-106,398	-0,042	-0,007
-504,956	-92,476	-0,064	0,013
-503,941	-60,817	0,088	-0,027
-502,926	-103,903	0,133	-0,023
-501,912	191,418	0,093	0,104
-500,897	-91,303	-0,135	0,028
-499,883	17,630	-0,119	-0,070
-498,868	-200,000	-0,019	-0,127
-497,853	-200,000	-0,010	-0,101
-496,839	-23,176	-0,160	-0,071
-495,824	-200,000	0,008	-0,067
-494,810	-75,237	0,114	0,030
-493,795	-200,000	0,016	-0,081
-492,781	-3,574	0,028	-0,015
-491,766	210,529	0,039	-0,045
-490,751	397,745	-0,067	-0,103
-489,737	57,265	-0,037	-0,026
-488,722	77,103	-0,027	0,021
-487,708	-28,075	0,101	0,043
-486,693	800,000	0,009	0,021
-485,678	259,882	0,068	-0,086
-484,664	-200,000	-0,030	-0,103
-483,649	-200,000	-0,032	-0,130
-482,635	651,274	0,082	-0,156
-481,620	364,987	0,077	-0,114
-480,605	-111,442	0,121	-0,018
-479,591	69,087	0,025	0,019
-478,576	800,000	0,010	-0,030
-477,562	349,650	0,025	0,037
-476,547	-200,000	0,043	-0,158
-475,532	-100,487	0,132	-0,024
-474,518	-35,978	0,074	0,030
-473,503	97,178	0,039	0,033
-472,489	397,930	0,080	-0,124
-471,474	-32,192	0,160	-0,065
-470,459	-84,043	-0,057	0,013
-469,445	800,000	-0,049	-0,141
-468,430	800,000	0,020	-0,045
-467,416	-66,022	0,147	0,043
-466,401	10,655	0,027	0,015
-465,386	-26,352	0,107	0,046
-464,372	-200,000	0,036	0,120
-463,357	-200,000	-0,016	0,056
-462,343	317,417	-0,042	0,059
-461,328	-125,923	-0,036	-0,004
-460,313	-200,000	-0,013	-0,058
-459,299	-116,537	0,070	0,009
-458,284	800,000	-0,021	0,048
-457,270	-35,385	0,099	0,039
-456,255	-200,000	0,009	-0,062
-455,241	247,604	-0,108	-0,135
-454,226	505,096	-0,076	0,131
-453,211	800,000	-0,040	0,123
-452,197	-185,718	0,104	0,001
-451,182	156,514	0,068	0,069
-450,168	800,000	0,012	0,036
-449,153	800,000	-0,012	-0,033
-448,138	154,291	-0,051	0,052
-447,124	-200,000	-0,017	0,061
-446,109	-90,191	-0,055	-0,012
-445,095	-200,000	-0,001	0,049
-444,080	-23,271	0,161	0,071
-443,065	-100,838	0,135	0,024
-442,051	-115,220	0,072	0,010
-441,036	49,368	-0,050	-0,034
-440,022	-200,000	0,012	0,095
-439,007	296,197	-0,047	0,064
-437,992	-200,000	-0,002	-0,014
-436,978	-200,000	-0,005	0,080
-435,963	164,481	0,048	0,049
-434,949	-200,000	0,008	-0,031
-433,934	-200,000	-0,011	-0,114
-432,919	800,000	-0,024	0,054
-431,905	800,000	0,022	0,056
-430,890	-200,000	-0,033	-0,107
-429,876	-114,678	-0,028	-0,004
-428,861	142,771	0,084	0,082
-427,846	372,678	0,008	0,012
-426,832	-200,000	-0,004	-0,130
-425,817	-8,051	-0,180	0,089
-424,803	-75,992	0,150	-0,039
-423,788	800,000	-0,046	-0,106
-422,773	463,130	0,095	0,157
-421,759	664,448	0,028	-0,054
-420,744	87,769	0,022	-0,018
-419,730	-200,000	-0,024	-0,127
-418,715	-98,609	-0,035	-0,006
-417,701	-200,000	-0,014	0,083
-416,686	-200,000	-0,012	-0,081
-415,671	422,681	0,009	-0,014
-414,657	84,515	0,082	0,066
-413,642	415,755	0,053	-0,083
-412,628	-200,000	-0,022	-0,190
-411,613	97,938	0,057	0,048
-410,598	-200,000	-0,029	-0,141
-409,584	473,001	0,036	0,060
-408,569	458,569	0,056	0,091
-407,555	74,175	0,056	-0,043
-406,540	-137,350	-0,064	0,005
-405,525	-18,612	0,089	-0,041
-404,511	800,000	-0,028	-0,067
-403,496	250,011	-0,042	0,053
-402,482	-73,703	-0,109	0,029
-401,467	-200,000	0,025	0,124
-400,452	-12,699	0,120	-0,057
-399,438	-197,167	-0,103	0,000
-398,423	-200,000	-0,005	-0,118
-397,409	-200,000	0,007	0,087
-396,394	23,262	0,031	0,019
-395,379	505,398	0,041	0,071
-394,365	129,022	0,057	0,054
-393,350	-200,000	0,084	-0,000
-392,336	23,653	-0,139	-0,084
-391,321	118,804	-0,026	-0,024
-390,306	-200,000	-0,004	-0,051
-389,292	800,000	-0,056	-0,149
-388,277	-113,197	-0,094	0,013
-387,263	-200,000	-0,003	0,087
-386,248	-200,000	0,018	0,077
-385,233	800,000	-0,030	0,078
-384,219	50,603	-0,056	0,039
-383,204	80,353	-0,017	-0,013
-382,190	58,285	-0,070	-0,050
-381,175	-143,892	-0,067	0,005
-380,160	800,000	0,072	0,173
-379,146	46,438	0,111	-0,076
-378,131	92,629	-0,102	0,085
-377,117	-200,000	-0,003	0,142
-376,102	27,572	0,074	-0,046
-375,088	-91,028	0,076	-0,016
-374,073	246,202	-0,080	-0,099
-373,058	-177,530	0,125	0,002
-372,044	-25,817	-0,091	0,039
-371,029	-154,943	-0,078	0,004
-370,015	96,427	-0,024	0,020
-369,000	334,525	-0,044	-0,063
-367,985	-200,000	-0,016	0,055
-366,971	-200,000	0,001	0,084
-365,956	-200,000	-0,045	0,256
-364,942	800,000	0,026	0,077
-363,927	590,273	-0,048	0,087
-362,912	90,974	0,072	0,059
-361,898	-64,839	-0,075	-0,022
-360,883	484,963	0,034	0,057
-359,869	84,139	-0,051	-0,041
-358,854	13,929	0,072	-0,041
-357,839	120,288	0,038	-0,035
-356,825	-29,514	0,118	-0,049
-355,810	800,000	0,033	-0,094
-354,796	-98,006	0,166	-0,031
-353,781	233,690	-0,031	-0,037
-352,766	-200,000	-0,004	0,016
-351,752	-4,467	0,078	0,039
-350,737	-200,000	0,005	0,107
-349,723	-200,000	-0,031	0,182
-348,708	800,000	0,017	-0,041
-347,693	-200,000	-0,027	0,112
-346,679	-200,000	-0,007	-0,045
-345,664	251,702	-0,129	-0,161
-344,650	771,683	0,056	-0,111
-343,635	-52,358	0,113	0,038
-342,620	334,322	-0,046	-0,065
-341,606	104,325	0,066	0,057
-340,591	-200,000	-0,002	-0,107
-339,577	800,000	-0,021	-0,047
-338,562	457,144	0,019	0,032
-337,548	-145,995	0,068	-0,004
-336,533	-200,000	0,000	0,023
-335,518	800,000	-0,034	0,100
-334,504	55,480	0,049	0,035
-333,489	800,000	-0,021	0,047
-332,475	-200,000	0,006	0,048
-331,460	186,418	0,062	-0,068
-330,445	-103,336	-0,118	0,020
-329,431	286,004	0,058	0,077
-328,416	318,368	0,119	-0,165
-327,402	-146,637	0,077	-0,005
-326,387	-200,000	-0,020	0,112
-325,372	111,783	-0,016	0,014
-324,358	-141,802	-0,062	-0,004
-323,343	800,000	0,004	-0,010
-322,329	-20,241	0,168	0,075
-321,314	-200,000	-0,008	-0,160
-320,299	61,202	-0,035	0,026
-319,285	6,147	-0,113	0,061
-318,270	-84,758	0,058	-0,013
-317,256	350,858	-0,063	0,092
-316,241	36,334	0,047	-0,030
-315,226	-200,000	0,012	0,115
-314,212	-200,000	0,006	-0,047
-313,197	-200,000	0,007	-0,096
-312,183	-14,705	-0,143	-0,067
-311,168	-200,000	-0,025	0,180
-310,153	-200,000	-0,026	-0,092
-309,139	85,049	0,062	0,050
-308,124	38,750	-0,100	-0,065
-307,110	-11,031	0,015	-0,007
-306,095	800,000	-0,017	0,037
-305,080	-200,000	-0,013	-0,048
-304,066	-200,000	-0,006	-0,041
-303,051	-67,835	0,057	0,016
-302,037	800,000	0,011	-0,025
-301,022	167,887	0,066	0,069
-300,008	152,401	0,056	0,056
-298,993	367,456	0,036	-0,054
-297,978	5,613	-0,016	0,008
-296,964	800,000	-0,045	-0,092
-295,949	-200,000	0,015	0,223
-294,935	-100,825	0,055	-0,010
-293,920	-200,000	0,001	0,116
-292,905	-37,721	0,186	-0,072
-291,891	-200,000	0,014	-0,087
-290,876	-112,349	-0,041	-0,006
-289,862	-200,000	0,028	0,112
-288,847	800,000	-0,029	0,067
-287,832	309,916	-0,098	-0,134
-286,818	319,500	0,025	-0,035
-285,803	83,286	0,076	-0,060
-284,789	366,601	-0,076	-0,112
-283,774	278,906	-0,094	-0,123
-282,759	-6,333	0,094	-0,046
-281,745	63,166	0,049	0,036
-280,730	37,285	-0,026	-0,017
-279,716	-63,122	-0,025	0,007
-278,701	-75,803	0,111	-0,029
-277,686	269,064	-0,035	0,045
-276,672	-12,421	0,091	0,043
-275,657	-200,000	-0,064	0,257
-274,643	800,000	-0,044	0,108
-273,628	332,045	-0,050	0,071
-272,613	551,976	-0,051	0,090
-271,599	800,000	0,047	-0,119
-270,584	-170,606	-0,072	0,002
-269,570	800,000	0,014	0,042
-268,555	590,860	0,021	0,039
-267,540	410,232	0,020	-0,030
-266,526	-10,440	0,052	0,025
-265,511	-67,669	-0,083	0,024
-264,497	-33,518	0,079	-0,032
-263,482	147,192	0,127	0,125
-262,467	23,611	0,056	0,034
-261,453	-39,421	-0,095	0,036
-260,438	60,416	-0,121	0,087
-259,424	-200,000	0,011	-0,096
-258,409	-44,118	-0,096	-0,035
-257,395	110,850	-0,080	-0,070
-256,380	-85,860	-0,135	0,030
-255,365	-200,000	0,008	-0,050
-254,351	35,153	-0,046	-0,029
-253,336	-71,334	-0,146	0,040
-252,322	287,017	-0,057	-0,076
-251,307	800,000	-0,044	-0,105
-250,292	800,000	-0,023	-0,068
-249,278	-200,000	-0,013	-0,042
-248,263	-72,383	0,083	0,022
-247,249	-200,000	-0,027	0,123
-246,234	-200,000	0,013	0,049
-245,219	800,000	-0,008	-0,017
-244,205	-111,694	-0,096	0,014
-243,190	800,000	-0,049	0,126
-242,176	190,629	-0,034	0,037
-241,161	-200,000	0,006	0,098
-240,146	-121,565	-0,150	-0,018
-239,132	173,734	-0,045	0,048
-238,117	-69,817	-0,123	0,034
-237,103	-154,260	-0,059	0,003
-236,088	134,808	-0,034	0,032
-235,073	800,000	0,014	0,033
-234,059	270,623	-0,015	-0,019
-233,044	800,000	-0,019	0,052
-232,030	-35,415	-0,150	-0,059
-231,015	-76,822	-0,087	0,022
-230,000	167,400	-0,085	-0,089
-228,986	-200,000	-0,003	0,027
-227,971	-200,000	0,046	-0,180
-226,957	136,777	-0,077	-0,074
-225,942	-200,000	-0,007	-0,066
-224,927	150,918	0,014	-0,014
-223,913	-13,047	-0,057	-0,027
-222,898	225,134	0,087	-0,103
-221,884	-200,000	-0,012	-0,050
-220,869	21,726	0,136	-0,081
-219,855	413,866	-0,050	-0,078
-218,840	29,378	-0,041	-0,026
-217,825	-54,402	-0,110	0,036
-216,811	29,139	0,029	0,018
-215,796	800,000	-0,035	0,071
-214,782	800,000	0,051	0,110
-213,767	-200,000	-0,003	0,021
-212,752	106,980	0,073	0,063
-211,738	-20,143	-0,040	-0,018
-210,723	-26,719	-0,048	-0,020
-209,709	-200,000	0,025	-0,090
-208,694	166,627	0,040	0,041
-207,679	-179,246	-0,112	-0,002
-206,665	186,080	0,070	-0,076
-205,650	-200,000	-0,015	-0,058
-204,636	-200,000	-0,008	0,074
-203,621	399,763	-0,015	-0,023
-202,606	243,737	0,014	0,017
-201,592	283,181	-0,082	-0,108
-200,577	-200,000	-0,013	-0,054
-199,563	292,815	-0,097	0,130
-198,548	289,648	0,073	0,096
-197,533	-90,525	0,063	0,013
-196,519	-100,769	0,072	-0,013
-195,504	321,073	-0,019	0,026
-194,490	800,000	-0,059	-0,177
-193,475	14,649	0,076	0,043
-192,460	-148,934	-0,108	-0,006
-191,446	1,758	0,102	0,053
-190,431	15,877	0,074	0,043
-189,417	55,494	0,105	-0,074
-188,402	-200,000	0,010	-0,099
-187,387	800,000	0,017	-0,053
-186,373	360,343	-0,044	0,064
-185,358	176,439	-0,045	-0,047
-184,344	-200,000	-0,001	0,128
-183,329	800,000	0,020	0,050
-182,315	42,750	0,041	0,027
-181,300	457,634	-0,054	0,087
-180,285	-37,765	-0,122	0,047
-179,271	515,696	-0,017	0,029
-178,256	800,000	-0,035	-0,084
-177,242	-145,461	0,056	-0,004
-176,227	-100,292	-0,123	0,022
-175,212	785,782	-0,046	-0,091
-174,198	387,867	0,025	0,038
-173,183	137,197	0,069	-0,066
-172,169	-37,974	0,073	0,028
-171,154	800,000	-0,024	-0,054
-170,139	-142,801	0,160	0,011
-169,125	-200,000	0,030	-0,108
-168,110	800,000	-0,080	0,177
-167,096	-200,000	0,024	0,162
-166,081	178,790	-0,077	0,082
-165,066	234,064	0,087	0,104
-164,052	393,173	0,025	0,038
-163,037	-0,888	0,043	-0,022
-162,023	109,046	-0,031	0,027
-161,008	97,326	-0,028	0,024
-159,993	-102,734	-0,067	-0,012
-158,979	-200,000	0,036	-0,184
-157,964	-98,997	-0,020	0,004
-156,950	-77,459	0,101	0,025
-155,935	-32,922	0,067	0,027
-154,920	-105,641	-0,090	0,015
-153,906	800,000	0,033	0,081
-152,891	-200,000	0,022	0,143
-151,877	318,024	0,061	0,084
-150,862	86,287	-0,082	0,065
-149,847	-43,454	0,105	0,038
-148,833	-200,000	0,009	-0,033
-147,818	3,813	-0,080	-0,043
-146,804	-200,000	0,018	0,207
-145,789	-200,000	-0,014	0,097
-144,775	-186,312	-0,048	0,000
-143,760	-68,937	-0,084	-0,024
-142,745	800,000	0,014	-0,045
-141,731	-164,622	0,132	0,004
-140,716	-87,636	-0,116	-0,025
-139,702	301,973	0,090	0,122
-138,687	625,266	0,088	0,162
-137,672	-200,000	-0,011	-0,043
-136,658	-104,074	-0,227	0,038
-135,643	229,742	-0,015	0,018
-134,629	-92,230	0,011	0,002
-133,614	800,000	0,081	0,219
-132,599	730,895	0,035	0,068
-131,585	-200,000	0,005	-0,072
-130,570	566,146	0,041	-0,072
-129,556	84,587	-0,075	0,059
-128,541	-62,526	-0,143	-0,043
-127,526	-200,000	-0,027	-0,123
-126,512	519,046	-0,021	-0,036
-125,497	-200,000	0,007	0,068
-124,483	181,212	0,033	-0,036
-123,468	800,000	0,049	0,107
-122,453	108,864	-0,046	-0,040
-121,439	800,000	-0,035	0,096
-120,424	-54,425	-0,122	0,040
-119,410	800,000	0,038	-0,083
-118,395	-65,287	-0,106	0,031
-117,380	265,081	-0,107	0,136
-116,366	-200,000	-0,006	0,029
-115,351	122,575	-0,061	0,056
-114,337	800,000	-0,047	-0,121
-113,322	-107,733	-0,067	-0,010
-112,307	24,531	0,070	-0,042
-111,293	-200,000	0,034	0,207
-110,278	280,317	0,084	0,109
-109,264	-25,716	0,170	-0,072
-108,249	-200,000	0,013	-0,105
-107,234	-85,726	0,026	-0,006
-106,220	229,499	-0,047	-0,056
-105,205	-200,000	0,032	0,154
-104,191	-130,615	0,106	-0,010
-103,176	-95,198	0,106	0,021
-102,162	-52,327	0,062	0,021
-101,147	124,060	0,021	0,019
-100,132	-0,994	0,036	-0,018
-99,118	-91,724	-0,157	0,032
-98,103	800,000	0,038	-0,090
-97,089	-127,317	0,065	-0,007
-96,074	330,726	0,093	0,130
-95,059	22,416	-0,110	0,065
-94,045	-135,554	-0,063	0,005
-93,030	14,696	0,091	0,051
-92,016	-39,754	-0,151	-0,057
-91,001	800,000	-0,045	-0,094
-89,986	243,000	0,018	-0,022
-88,972	-33,946	-0,072	-0,028
-87,957	-127,541	-0,090	-0,009
-86,943	-129,787	-0,091	-0,009
-85,928	521,526	-0,034	0,058
-84,913	-200,000	-0,002	0,052
-83,899	53,413	-0,166	-0,115
-82,884	17,433	-0,136	0,078
-81,870	605,838	0,087	0,158
-80,855	-109,085	0,054	0,008
-79,840	-200,000	-0,016	0,057
-78,826	51,720	-0,109	-0,075
-77,811	-123,116	0,113	-0,013
-76,797	362,662	0,021	-0,031
-75,782	-200,000	0,015	-0,077
-74,767	-143,620	0,098	-0,007
-73,753	-148,230	0,025	0,001
-72,738	-3,197	0,039	-0,019
-71,724	418,703	-0,069	0,107
-70,709	-46,276	-0,120	-0,042
-69,694	-200,000	-0,015	0,055
-68,680	-112,668	0,024	0,003
-67,665	-61,536	0,160	-0,048
-66,651	-64,292	-0,121	-0,035
-65,636	308,869	-0,035	-0,048
-64,622	-200,000	0,013	-0,137
-63,607	694,796	-0,048	0,091
-62,592	-52,671	-0,064	0,021
-61,578	213,842	0,081	0,092
-60,563	800,000	0,069	0,155
-59,549	246,135	-0,040	0,049
-58,534	-67,459	-1,638	-0,463
-57,519	679,881	-0,770	-1,460
-56,505	-200,000	-0,938	-4,507
-55,490	-125,999	0,610	0,066
-54,476	800,000	5,163	11,842
-53,461	-200,000	15,084	270,827
-52,446	-200,000	696,108	2254,768
-51,432	589,784	1616,446	2899,397
-50,417	121,178	1624,820	1465,481
-49,403	82,836	1281,789	1008,690
-48,388	37,482	1022,758	655,811
-47,373	22,265	983,524	580,528
-46,359	21,276	972,449	570,723
-45,344	19,755	968,339	563,306
-44,330	19,782	967,019	562,604
-43,315	19,558	965,392	560,901
-42,300	19,566	964,293	560,266
-41,286	19,519	963,296	559,513
-40,271	19,482	962,556	558,939
-39,257	19,537	961,591	558,538
-38,242	19,575	960,597	558,061
-37,227	19,533	959,962	557,534
-36,213	19,520	959,111	556,976
-35,198	19,478	957,964	556,151
-34,184	19,554	957,278	555,975
-33,169	19,452	956,512	555,179
-32,154	19,565	955,376	554,865
-31,140	19,554	954,641	554,379
-30,125	19,611	953,792	554,047
-29,111	19,531	953,093	553,361
-28,096	19,561	952,545	553,118
-27,082	19,530	951,726	552,521
-26,067	19,532	950,938	552,047
-25,052	19,519	950,366	551,651
-24,038	19,534	949,391	551,112
-23,023	19,574	948,771	550,859
-22,009	19,603	948,103	550,544
-20,994	19,574	947,515	550,087
-19,979	19,541	946,922	549,613
-18,965	19,510	946,236	549,096
-17,950	19,516	945,722	548,794
-16,936	19,484	945,113	548,315
-15,921	19,459	944,472	547,842
-14,906	19,352	943,911	547,156
-13,892	19,425	943,024	546,851
-12,877	19,382	942,452	546,361
-11,863	19,339	941,758	545,801
-10,848	19,357	941,415	545,638
-9,833	19,439	940,823	545,533
-8,819	19,466	940,245	545,264
-7,804	19,431	939,652	544,784
-6,790	19,364	938,956	544,147
-5,775	19,439	938,540	544,123
-4,760	19,461	937,559	543,601
-3,746	19,382	937,112	543,071
-2,731	19,274	936,471	542,336
-1,717	19,265	935,696	541,837
-0,702	19,255	935,064	541,418
0,313	19,006	934,555	541,155
1,327	21,586	932,173	547,860
2,342	29,118	806,278	494,251
3,356	23,276	506,035	300,241
4,371	-0,872	373,174	190,677
5,386	-3,753	356,457	178,583
6,400	-4,844	350,860	174,443
7,415	-5,287	348,461	172,703
8,429	-5,202	346,864	171,998
9,444	-5,375	345,930	171,313
10,459	-5,084	345,298	171,331
11,473	-5,191	344,736	170,910
12,488	-5,327	344,183	170,459
13,502	-5,383	343,498	170,039
14,517	-5,261	343,213	170,027
15,531	-5,269	342,863	169,829
16,546	-5,173	342,202	169,600
17,561	-5,139	341,808	169,429
18,575	-5,064	341,387	169,293
19,590	-5,165	341,041	168,988
20,604	-4,975	340,736	169,045
21,619	-5,149	340,404	168,661
22,634	-4,982	339,848	168,566
23,648	-5,106	339,620	168,293
24,663	-5,090	339,304	168,140
25,677	-5,088	338,961	167,957
26,692	-5,135	338,786	167,801
27,707	-5,150	338,557	167,655
28,721	-5,136	338,168	167,463
29,736	-5,255	337,822	167,139
30,750	-5,097	337,443	167,120
31,765	-5,202	337,265	166,896
32,780	-5,132	336,849	166,755
33,794	-4,982	336,508	166,745
34,809	-4,962	336,243	166,622
35,823	-4,986	335,914	166,417
36,838	-5,219	335,892	166,121
37,853	-4,995	335,558	166,201
38,867	-5,142	335,209	165,843
39,882	-5,199	334,992	165,655
40,896	-5,168	334,823	165,593
41,911	-5,111	334,430	165,449
42,926	-5,156	334,158	165,248
43,940	-5,022	333,822	165,221
44,955	-5,087	333,611	165,028
45,969	-5,114	333,396	164,876
46,984	-4,991	333,178	164,893
47,999	-5,102	333,047	164,688
49,013	-5,118	332,798	164,531
50,028	-4,961	332,325	164,462
51,042	-5,205	332,253	164,133
52,057	-5,098	331,850	164,042
53,071	-5,040	331,696	164,017
54,086	-4,967	331,390	163,934
55,101	-5,229	331,224	163,539
56,115	-5,009	330,675	163,504
57,130	-5,211	330,652	163,248
58,144	-5,191	330,355	163,110
59,159	-5,020	330,020	163,123
60,174	-5,078	329,780	162,924
61,188	-4,981	329,362	162,813
62,203	-5,059	329,288	162,674
63,217	-5,106	329,177	162,551
64,232	-5,162	328,848	162,311
65,247	-5,212	328,473	162,056
66,261	-5,252	328,232	161,877
67,276	-5,094	327,942	161,897
68,290	-5,039	327,757	161,853
69,305	-5,012	327,447	161,716
70,320	-5,179	327,206	161,395
71,334	-5,048	326,926	161,390
72,349	-5,208	326,669	161,069
73,363	-4,984	326,339	161,143
74,378	-5,075	326,047	160,882
75,393	-5,055	325,898	160,817
76,407	-5,236	325,824	160,564
77,422	-5,184	325,428	160,413
78,436	-5,005	325,122	160,446
79,451	-5,067	324,837	160,223
80,466	-5,095	324,531	160,026
81,480	-5,145	324,301	159,843
82,495	-4,973	324,140	159,941
83,509	-5,008	323,963	159,800
84,524	-5,181	323,665	159,447
85,539	-5,042	323,378	159,445
86,553	-4,979	323,114	159,371
87,568	-4,872	322,912	159,375
88,582	-4,926	322,741	159,217
89,597	-5,065	322,533	158,946
90,611	-5,052	322,240	158,802
91,626	-5,053	322,148	158,742
92,641	-5,088	321,796	158,516
93,655	-5,154	321,498	158,282
94,670	-5,071	321,296	158,260
95,684	-5,152	321,140	158,080
96,699	-5,124	320,773	157,916
97,714	-5,083	320,574	157,849
98,728	-5,169	320,518	157,713
99,743	-5,107	320,183	157,601
100,757	-5,236	320,066	157,389
101,772	-4,980	319,653	157,451
102,787	-5,218	319,435	157,070
103,801	-5,101	319,215	157,076
104,816	-5,007	318,959	157,038
105,830	-5,087	318,732	156,825
106,845	-5,052	318,576	156,773
107,860	-5,075	318,175	156,536
108,874	-5,018	317,976	156,487
109,889	-5,039	317,825	156,375
110,903	-4,957	317,518	156,299
111,918	-5,024	317,455	156,181
112,933	-5,056	317,089	155,953
113,947	-5,057	317,017	155,902
114,962	-5,026	316,616	155,725
115,976	-5,007	316,490	155,670
116,991	-4,999	316,272	155,557
118,006	-5,003	316,064	155,436
119,020	-5,079	315,778	155,200
120,035	-5,036	315,676	155,183
121,049	-5,014	315,491	155,101
122,064	-4,913	315,088	154,999
123,079	-4,906	314,818	154,859
124,093	-4,989	314,799	154,746
125,108	-5,077	314,419	154,452
126,122	-5,003	314,328	154,472
127,137	-5,008	314,114	154,348
128,151	-4,837	313,768	154,348
129,166	-4,878	313,468	154,142
130,181	-5,054	313,416	153,915
131,195	-4,868	313,119	153,954
132,210	-5,094	312,918	153,600
133,224	-5,062	312,609	153,469
134,239	-4,957	312,333	153,432
135,254	-5,111	312,218	153,197
136,268	-5,004	312,009	153,195
137,283	-4,962	311,629	153,039
138,297	-4,997	311,532	152,942
139,312	-4,956	311,217	152,817
140,327	-5,058	311,080	152,627
141,341	-4,990	310,763	152,531
142,356	-4,945	310,563	152,466
143,370	-5,023	310,393	152,286
144,385	-5,033	310,153	152,144
145,400	-4,937	309,870	152,094
146,414	-4,969	309,732	151,978
147,429	-5,065	309,529	151,764
148,443	-4,994	309,268	151,697
149,458	-5,025	309,075	151,557
150,473	-5,073	308,869	151,392
151,487	-4,990	308,588	151,327
152,502	-4,889	308,311	151,284
153,516	-4,797	308,108	151,268
154,531	-4,964	307,898	150,977
155,546	-5,069	307,830	150,820
156,560	-4,967	307,497	150,750
157,575	-4,977	307,332	150,644
158,589	-4,880	306,938	150,540
159,604	-5,040	306,702	150,243
160,619	-4,825	306,718	150,462
161,633	-4,824	306,410	150,299
162,648	-5,002	306,342	150,066
163,662	-4,940	306,030	149,965
164,677	-4,931	305,839	149,866
165,692	-4,847	305,557	149,803
166,706	-4,976	305,529	149,641
167,721	-4,992	305,272	149,486
168,735	-5,025	305,167	149,387
169,750	-4,996	304,867	149,257
170,764	-4,953	304,609	149,162
171,779	-5,084	304,483	148,951
172,794	-4,943	304,294	148,991
173,808	-4,933	304,013	148,850
174,823	-4,937	303,793	148,725
175,837	-4,858	303,552	148,676
176,852	-4,861	303,494	148,631
177,867	-4,885	303,226	148,461
178,881	-4,908	303,123	148,374
179,896	-5,005	302,966	148,184
180,910	-4,824	302,648	148,202
181,925	-5,071	302,455	147,840
182,940	-5,028	302,269	147,780
183,954	-5,072	302,100	147,639
184,969	-4,866	301,795	147,688
185,983	-4,804	301,707	147,696
186,998	-4,801	301,484	147,576
188,013	-4,940	301,260	147,311
189,027	-4,986	300,989	147,118
190,042	-5,052	300,812	146,952
191,056	-4,956	300,619	146,942
192,071	-4,947	300,433	146,848
193,086	-4,934	299,978	146,625
194,100	-4,992	299,965	146,546
195,115	-4,919	299,820	146,537
196,129	-4,965	299,492	146,317
197,144	-4,956	299,226	146,183
198,159	-5,065	299,020	145,959
199,173	-5,033	298,884	145,911
200,188	-5,246	298,672	145,580
201,202	-5,005	298,380	145,668
202,217	-4,906	298,202	145,668
203,232	-4,889	297,983	145,565
204,246	-5,168	297,858	145,210
205,261	-5,057	297,591	145,179
206,275	-5,025	297,399	145,104
207,290	-5,127	297,251	144,916
208,304	-4,961	297,153	145,023
209,319	-4,805	296,807	144,998
210,334	-5,070	296,594	144,615
211,348	-4,956	296,376	144,610
212,363	-4,861	296,220	144,616
213,377	-4,787	295,991	144,566
214,392	-5,010	295,883	144,277
215,407	-4,869	295,485	144,210
216,421	-4,854	295,467	144,203
217,436	-4,799	295,175	144,104
218,450	-5,004	295,048	143,824
219,465	-5,087	294,857	143,636
220,480	-4,951	294,606	143,636
221,494	-5,013	294,541	143,529
222,509	-5,076	294,299	143,337
223,523	-4,894	294,108	143,411
224,538	-5,004	293,833	143,155
225,553	-5,007	293,780	143,113
226,567	-4,944	293,520	143,037
227,582	-4,871	293,372	143,024
228,596	-4,992	293,203	142,809
229,611	-4,893	292,850	142,722
230,626	-4,999	292,735	142,549
231,640	-4,865	292,494	142,551
232,655	-4,813	292,161	142,427
233,669	-4,975	292,039	142,196
234,684	-4,816	291,892	142,268
235,699	-5,047	291,714	141,941
236,713	-4,894	291,545	141,997
237,728	-4,844	291,389	141,958
238,742	-4,987	291,106	141,666
239,757	-4,794	290,907	141,746
240,772	-4,922	290,695	141,505
241,786	-4,979	290,620	141,399
242,801	-4,974	290,345	141,258
243,815	-4,978	290,193	141,167
244,830	-4,827	289,962	141,191
245,844	-4,898	289,788	141,024
246,859	-4,844	289,532	140,939
247,874	-5,091	289,516	140,677
248,888	-4,852	289,181	140,735
249,903	-4,963	288,954	140,504
250,917	-5,115	288,956	140,344
251,932	-5,089	288,570	140,169
252,947	-5,325	288,355	139,824
253,961	-5,416	287,909	139,506
254,976	-5,494	287,691	139,312
255,990	-5,265	287,833	139,591
257,005	-3,758	288,424	141,331
258,020	-1,441	289,273	143,992
259,034	-0,221	289,408	145,234
260,049	0,440	289,345	145,833
261,063	0,807	289,292	146,149
262,078	1,028	289,288	146,349
263,093	1,374	289,225	146,641
264,107	1,645	289,162	146,859
265,122	1,890	289,049	147,026
266,136	1,771	289,030	146,887
267,151	1,875	288,724	146,820
268,166	1,757	288,611	146,634
269,180	1,983	288,197	146,630
270,195	2,034	288,038	146,585
271,209	2,021	287,797	146,437
272,224	1,966	287,809	146,377
273,239	1,985	287,428	146,188
274,253	1,877	287,419	146,066
275,268	1,821	287,112	145,844
276,282	1,803	286,869	145,690
277,297	1,796	286,844	145,657
278,312	1,995	286,461	145,641
279,326	1,758	286,355	145,347
280,341	1,967	286,167	145,438
281,355	1,820	286,069	145,236
282,370	1,871	285,819	145,144
283,384	1,750	285,682	144,945
284,399	1,759	285,497	144,848
285,414	1,730	285,301	144,708
286,428	1,764	285,011	144,580
287,443	1,779	284,864	144,506
288,457	1,596	284,802	144,287
289,472	1,749	284,465	144,249
290,487	1,601	284,326	144,026
291,501	1,722	284,096	144,011
292,516	1,744	283,945	143,943
293,530	1,507	283,789	143,626
294,545	1,641	283,552	143,621
295,560	1,561	283,356	143,432
296,574	1,765	283,262	143,565
297,589	1,608	283,056	143,300
298,603	1,627	282,707	143,128
299,618	1,551	282,698	143,039
300,633	1,696	282,424	143,024
301,647	1,715	282,384	143,010
302,662	1,796	282,110	142,934
303,676	1,810	281,966	142,861
304,691	2,049	281,846	143,014
305,706	1,848	281,677	142,726
306,720	1,903	281,420	142,634
307,735	1,810	281,286	142,467
308,749	1,758	281,032	142,276
309,764	1,800	280,899	142,235
310,779	1,777	280,741	142,121
311,793	1,912	280,509	142,118
312,808	1,608	280,200	141,664
313,822	1,796	280,109	141,781
314,837	1,854	280,096	141,816
315,852	1,672	279,790	141,478
316,866	1,952	279,582	141,622
317,881	1,993	279,249	141,479
318,895	1,618	279,223	141,104
319,910	1,936	279,014	141,282
320,925	1,944	278,784	141,160
321,939	1,773	278,731	140,962
322,954	1,736	278,573	140,835
323,968	1,771	278,416	140,776
324,983	2,146	278,262	141,033
325,997	2,019	277,933	140,736
327,012	1,944	277,789	140,580
328,027	1,909	277,675	140,479
329,041	1,883	277,477	140,341
330,056	1,906	277,266	140,244
331,070	1,861	277,137	140,124
332,085	1,885	276,873	140,000
333,100	2,091	276,682	140,082
334,114	1,893	276,478	139,783
335,129	2,025	276,142	139,722
336,143	1,966	276,171	139,670
337,158	1,957	275,978	139,552
338,173	1,981	275,918	139,532
339,187	1,956	275,636	139,353
340,202	1,850	275,700	139,276
341,216	1,966	275,263	139,149
342,231	1,781	275,136	138,903
343,246	1,930	274,845	138,880
344,260	1,919	274,811	138,841
345,275	1,755	274,733	138,638
346,289	1,915	274,442	138,625
347,304	1,944	274,365	138,601
348,319	2,093	274,192	138,638
349,333	1,948	273,887	138,338
350,348	1,794	273,818	138,151
351,362	1,999	273,570	138,200
352,377	1,953	273,423	138,071
353,392	1,937	273,277	137,970
354,406	1,984	273,028	137,876
355,421	192,974	1345,933	1429,309
356,435	155,886	1476,705	1429,392
