DTS Sentinel unit serial number:	SN410029Multiplexer serial number:	ORYXHardware model number:	OX2-SRSoftware version number:	ORYX F/W v4,00 Oryx Data Collector v3.7.2.0data status	okinstallation	B4 Nyhavnadifferential loss correction	single-endedforward channel	channel 2reverse channel	N/Adate	2023/12/18time	20:35:13forward acquisition time	300,00reverse acquisition time	0,00gamma	499,1914k internal	0,3124k external	0,3124temperature offset calibration	1,0000default loss term (dB/km)	0,3820temperature slope calibration	1,0000multiplexer offset coefficient	1,0000multiplexer slope coefficient	1,0000fibre end	0,00T internal ref (°C)	21,86T ext. ref 1 (°C)	7,04T ext. ref 2 (°C)	6,97length (m)	temperature (°C)	Stokes	anti-Stokes-744,400	247,066	0,116	-0,146
-743,385	443,542	-0,050	0,083
-742,371	218,545	0,006	-0,007
-741,356	22,761	-0,216	0,131
-740,342	375,872	-0,034	0,052
-739,327	-66,220	-0,270	0,079
-738,312	-200,000	0,009	-0,146
-737,298	133,926	-0,090	0,086
-736,283	54,177	0,053	0,038
-735,269	-49,337	-0,308	0,109
-734,254	800,000	-0,080	-0,184
-733,239	-108,705	-0,385	-0,061
-732,225	-62,095	0,175	-0,054
-731,210	800,000	-0,025	-0,059
-730,196	17,954	-0,064	-0,038
-729,181	360,173	0,014	-0,021
-728,167	800,000	-0,060	-0,151
-727,152	-23,085	0,068	0,030
-726,137	176,499	-0,053	0,058
-725,123	249,462	-0,092	-0,117
-724,108	800,000	-0,078	-0,173
-723,094	-69,508	-0,080	0,023
-722,079	800,000	0,065	-0,192
-721,064	629,264	-0,040	-0,075
-720,050	442,952	-0,020	-0,032
-719,035	-200,000	0,022	-0,163
-718,021	65,882	-0,126	-0,095
-717,006	-144,013	-0,175	-0,012
-715,991	298,410	-0,068	-0,093
-714,977	-200,000	0,002	-0,107
-713,962	-124,125	-0,041	0,005
-712,948	475,257	-0,023	-0,038
-711,933	68,734	0,058	0,044
-710,918	142,528	-0,108	-0,107
-709,904	370,538	-0,095	-0,144
-708,889	144,148	0,068	-0,067
-707,875	349,562	-0,031	-0,045
-706,860	-62,388	-0,021	-0,007
-705,845	-200,000	-0,004	0,040
-704,831	-200,000	0,001	-0,065
-703,816	-128,052	-0,075	0,008
-702,802	29,891	-0,133	-0,084
-701,787	271,475	-0,081	-0,106
-700,772	800,000	0,042	-0,133
-699,758	80,379	-0,078	-0,062
-698,743	-157,778	0,100	0,004
-697,729	777,973	0,021	0,043
-696,714	614,111	-0,018	0,034
-695,699	59,107	-0,150	0,109
-694,685	39,658	-0,143	-0,095
-693,670	800,000	-0,048	-0,106
-692,656	156,768	-0,049	-0,051
-691,641	800,000	-0,022	-0,064
-690,627	193,534	0,071	-0,081
-689,612	-200,000	-0,003	0,013
-688,597	-200,000	0,010	0,114
-687,583	-132,171	-0,193	-0,018
-686,568	-134,833	0,034	0,003
-685,554	-114,679	0,077	0,011
-684,539	-9,716	0,077	-0,038
-683,524	800,000	-0,015	-0,048
-682,510	21,376	-0,090	0,054
-681,495	385,168	0,014	0,021
-680,481	244,066	-0,125	-0,156
-679,466	800,000	-0,010	-0,032
-678,451	118,201	0,048	-0,044
-677,437	619,991	0,047	0,088
-676,422	128,346	-0,055	-0,052
-675,408	-25,837	-0,060	-0,026
-674,393	191,245	0,019	-0,021
-673,378	211,665	-0,041	-0,048
-672,364	-200,000	0,013	-0,082
-671,349	-200,000	-0,023	-0,078
-670,335	800,000	0,021	-0,052
-669,320	-200,000	-0,005	0,069
-668,305	23,037	-0,073	-0,044
-667,291	-200,000	-0,020	-0,170
-666,276	-200,000	0,001	-0,103
-665,262	-20,311	0,026	0,012
-664,247	-130,534	-0,157	0,016
-663,232	-8,617	0,154	-0,077
-662,218	-200,000	0,005	0,028
-661,203	-8,488	0,221	-0,110
-660,189	-200,000	-0,048	-0,203
-659,174	-200,000	-0,023	-0,099
-658,159	-83,157	-0,121	-0,029
-657,145	59,426	-0,047	0,034
-656,130	164,350	-0,057	0,060
-655,116	-18,952	0,131	0,060
-654,101	-76,210	-0,042	-0,011
-653,086	800,000	-0,025	0,068
-652,072	204,767	0,066	-0,076
-651,057	-34,057	-0,113	0,046
-650,043	-200,000	0,016	-0,078
-649,028	-9,940	-0,086	-0,042
-648,014	-107,543	-0,089	0,014
-646,999	40,262	0,016	0,011
-645,984	-192,428	0,030	-0,000
-644,970	-200,000	-0,050	-0,178
-643,955	-106,665	0,065	-0,011
-642,941	-200,000	-0,018	-0,104
-641,926	-136,672	-0,022	-0,002
-640,911	-23,394	0,076	0,034
-639,897	568,947	0,049	0,089
-638,882	137,533	0,083	0,081
-637,868	139,876	-0,071	-0,069
-636,853	27,351	-0,093	-0,058
-635,838	-200,000	-0,010	-0,077
-634,824	-161,422	0,036	-0,001
-633,809	30,427	0,069	0,044
-632,795	-200,000	0,009	0,033
-631,780	-116,060	-0,108	0,015
-630,765	-150,200	-0,099	-0,006
-629,751	-85,797	-0,092	-0,021
-628,736	243,235	0,098	-0,122
-627,722	426,090	-0,029	-0,046
-626,707	-149,450	0,076	-0,004
-625,692	-200,000	0,000	-0,100
-624,678	-22,630	-0,060	0,027
-623,663	-57,409	-0,039	-0,013
-622,649	-200,000	0,014	0,063
-621,634	-26,067	0,056	0,024
-620,619	435,961	0,025	-0,041
-619,605	105,199	0,078	0,068
-618,590	101,251	-0,035	0,030
-617,576	154,143	0,089	-0,091
-616,561	-200,000	-0,007	-0,027
-615,546	17,767	-0,068	0,040
-614,532	800,000	-0,008	-0,027
-613,517	-102,583	-0,104	-0,018
-612,503	-93,194	-0,082	0,017
-611,488	26,267	-0,085	0,052
-610,474	104,709	0,118	0,103
-609,459	-200,000	-0,003	-0,063
-608,444	-200,000	0,017	-0,057
-607,430	-45,729	-0,093	-0,034
-606,415	-200,000	-0,001	-0,054
-605,401	82,695	-0,102	0,082
-604,386	-115,660	-0,049	0,007
-603,371	467,260	0,110	-0,183
-602,357	188,703	-0,029	0,032
-601,342	-97,462	-0,046	-0,009
-600,328	-69,844	0,086	-0,024
-599,313	281,874	0,037	-0,049
-598,298	14,978	-0,081	-0,047
-597,284	43,843	-0,024	0,017
-596,269	197,246	0,015	-0,017
-595,255	-49,061	0,031	-0,011
-594,240	-135,904	0,141	0,012
-593,225	800,000	-0,047	-0,127
-592,211	-200,000	-0,013	-0,054
-591,196	-60,290	0,123	0,038
-590,182	29,388	-0,160	-0,100
-589,167	-200,000	-0,013	-0,090
-588,152	221,613	0,089	0,107
-587,138	-29,949	0,090	-0,038
-586,123	800,000	0,022	0,068
-585,109	19,929	-0,060	0,035
-584,094	-117,987	0,123	-0,016
-583,079	-123,348	0,077	-0,009
-582,065	-94,225	0,090	0,018
-581,050	-200,000	-0,053	-0,213
-580,036	-82,341	-0,003	-0,001
-579,021	-45,008	0,115	-0,042
-578,006	75,950	-0,067	-0,053
-576,992	74,047	0,130	0,101
-575,977	84,399	-0,029	0,023
-574,963	800,000	-0,049	-0,158
-573,948	245,998	0,070	-0,088
-572,934	-91,133	-0,112	0,024
-571,919	-200,000	-0,041	-0,236
-570,904	-2,925	-0,049	-0,025
-569,890	-200,000	-0,011	0,081
-568,875	-39,363	0,162	-0,063
-567,861	800,000	0,019	-0,048
-566,846	-200,000	0,017	0,087
-565,831	-200,000	0,007	0,109
-564,817	-6,672	-0,005	0,003
-563,802	-200,000	-0,033	-0,173
-562,788	-200,000	0,011	-0,067
-561,773	800,000	-0,068	-0,183
-560,758	209,052	0,032	0,038
-559,744	-200,000	0,015	0,141
-558,729	-200,000	0,022	0,111
-557,715	-5,097	-0,085	0,043
-556,700	-140,223	0,126	0,010
-555,685	-122,347	0,111	-0,013
-554,671	694,459	0,054	0,105
-553,656	244,527	0,088	0,110
-552,642	-200,000	0,008	0,149
-551,627	67,052	-0,025	-0,019
-550,612	-200,000	0,005	-0,023
-549,598	-108,037	-0,099	0,016
-548,583	-200,000	0,009	0,051
-547,569	-88,829	-0,030	0,007
-546,554	119,236	0,165	0,151
-545,539	39,416	0,116	-0,077
-544,525	800,000	0,028	-0,064
-543,510	800,000	0,046	-0,095
-542,496	-200,000	-0,009	0,065
-541,481	800,000	0,019	0,054
-540,466	610,792	0,022	-0,040
-539,452	57,026	0,012	0,009
-538,437	-200,000	0,004	0,027
-537,423	16,790	-0,070	0,041
-536,408	-32,949	-0,090	-0,037
-535,393	372,503	-0,061	-0,092
-534,379	768,318	0,021	0,043
-533,364	137,726	0,028	-0,027
-532,350	800,000	0,054	-0,127
-531,335	-200,000	-0,015	0,049
-530,321	276,142	0,016	-0,022
-529,306	-200,000	0,173	-0,000
-528,291	3,876	0,093	0,050
-527,277	108,047	0,098	-0,086
-526,262	-200,000	-0,015	0,121
-525,248	-127,189	0,096	0,010
-524,233	-12,292	0,128	-0,062
-523,218	136,854	-0,004	-0,004
-522,204	706,418	-0,054	-0,105
-521,189	800,000	0,053	-0,145
-520,175	800,000	-0,035	-0,077
-519,160	-97,683	-0,110	0,021
-518,145	800,000	-0,009	-0,021
-517,131	-160,035	-0,067	-0,003
-516,116	800,000	0,048	-0,110
-515,102	17,364	-0,056	-0,032
-514,087	-95,245	-0,132	0,026
-513,072	338,823	-0,073	-0,105
-512,058	196,159	0,060	0,068
-511,043	129,334	-0,024	0,023
-510,029	297,369	0,023	0,031
-509,014	145,554	-0,113	0,111
-507,999	341,481	-0,060	0,087
-506,985	-200,000	-0,005	0,120
-505,970	-70,296	0,062	-0,017
-504,956	-200,000	0,009	-0,150
-503,941	130,396	0,124	0,118
-502,926	-7,389	0,071	0,036
-501,912	-200,000	-0,040	0,156
-500,897	-105,250	-0,103	-0,017
-499,883	-150,742	-0,047	-0,003
-498,868	-0,502	-0,064	0,034
-497,853	105,565	0,046	0,040
-496,839	-31,153	-0,064	0,027
-495,824	-200,000	0,024	-0,111
-494,810	-200,000	0,007	-0,059
-493,795	121,602	-0,030	0,027
-492,781	800,000	-0,016	0,039
-491,766	-200,000	-0,013	-0,097
-490,751	341,169	-0,046	-0,067
-489,737	-200,000	-0,003	-0,070
-488,722	90,214	0,057	-0,047
-487,708	75,668	0,022	0,017
-486,693	469,054	0,115	0,192
-485,678	800,000	0,017	0,040
-484,664	24,841	0,066	0,040
-483,649	-200,000	-0,010	-0,106
-482,635	-200,000	-0,016	-0,065
-481,620	732,167	0,048	0,096
-480,605	800,000	-0,027	0,082
-479,591	-200,000	0,019	-0,078
-478,576	572,867	-0,017	0,031
-477,562	-88,129	-0,070	0,015
-476,547	-200,000	0,030	-0,100
-475,532	-200,000	0,006	-0,075
-474,518	-62,306	-0,101	0,031
-473,503	86,799	-0,108	0,088
-472,489	8,839	0,054	0,030
-471,474	1,366	0,068	-0,036
-470,459	-144,280	0,098	0,007
-469,445	-44,233	-0,176	-0,065
-468,430	224,984	-0,103	0,123
-467,416	-92,338	-0,131	-0,027
-466,401	-52,228	0,056	-0,019
-465,386	-200,000	0,020	0,098
-464,372	-200,000	-0,019	-0,147
-463,357	205,326	-0,057	0,065
-462,343	212,651	-0,084	-0,098
-461,328	258,684	-0,005	0,007
-460,313	-117,680	0,056	-0,007
-459,299	800,000	0,015	0,031
-458,284	111,573	0,007	0,007
-457,270	278,645	-0,037	-0,049
-456,255	777,987	-0,056	0,113
-455,241	-108,836	0,066	-0,010
-454,226	-200,000	0,005	0,088
-453,211	122,636	-0,027	0,025
-452,197	189,454	-0,090	-0,100
-451,182	278,447	-0,024	0,032
-450,168	-149,688	-0,054	-0,003
-449,153	98,063	0,084	-0,072
-448,138	800,000	0,021	-0,057
-447,124	69,984	-0,101	-0,076
-446,109	13,147	-0,136	0,077
-445,095	133,096	-0,049	-0,047
-444,080	-200,000	-0,001	0,075
-443,065	13,415	0,032	-0,018
-442,051	-62,260	-0,068	-0,021
-441,036	-132,906	0,030	0,003
-440,022	-200,000	-0,018	-0,100
-439,007	-36,573	0,013	0,005
-437,992	269,982	0,082	0,106
-436,978	-200,000	0,007	0,099
-435,963	-42,182	0,086	0,032
-434,949	9,776	-0,093	-0,052
-433,934	-121,100	-0,060	0,007
-432,919	-200,000	0,001	-0,009
-431,905	-200,000	0,005	-0,072
-430,890	-200,000	-0,005	0,115
-429,876	467,878	-0,046	-0,076
-428,861	298,311	0,106	-0,144
-427,846	-70,107	0,072	0,020
-426,832	800,000	-0,025	0,074
-425,817	470,690	0,083	-0,137
-424,803	285,512	0,024	-0,031
-423,788	149,960	-0,063	0,063
-422,773	142,188	0,130	0,127
-421,759	-67,673	0,156	0,045
-420,744	-1,835	0,087	-0,045
-419,730	695,094	0,071	-0,137
-418,715	-24,969	-0,074	-0,032
-417,701	342,125	0,040	0,058
-416,686	143,163	-0,058	-0,057
-415,671	69,050	0,037	0,028
-414,657	-89,931	0,069	-0,015
-413,642	27,683	0,083	-0,052
-412,628	-200,000	-0,007	-0,068
-411,613	612,817	-0,065	-0,121
-410,598	488,057	0,058	-0,097
-409,584	-4,573	0,117	0,059
-408,569	-53,255	0,105	0,035
-407,555	-200,000	-0,002	0,166
-406,540	-168,009	0,084	-0,002
-405,525	-19,239	-0,083	0,038
-404,511	44,813	-0,068	-0,046
-403,496	-95,161	0,122	0,024
-402,482	-200,000	-0,005	0,032
-401,467	139,774	0,071	-0,069
-400,452	-51,338	-0,138	0,047
-399,438	-115,488	0,082	0,011
-398,423	172,357	-0,073	-0,078
-397,409	37,229	-0,114	-0,074
-396,394	800,000	0,023	-0,062
-395,379	152,223	0,049	-0,049
-394,365	-171,758	0,077	-0,002
-393,350	-102,932	0,093	0,016
-392,336	418,441	0,023	-0,036
-391,321	84,571	-0,116	-0,094
-390,306	353,272	0,038	-0,056
-389,292	-200,000	0,018	0,079
-388,277	39,663	0,040	0,026
-387,263	-200,000	0,028	0,170
-386,248	-26,237	0,104	0,045
-385,233	270,027	0,089	0,115
-384,219	257,112	-0,065	-0,082
-383,204	-44,467	-0,158	0,058
-382,190	643,895	0,032	0,060
-381,175	-92,865	-0,027	-0,006
-380,160	800,000	0,028	0,077
-379,146	21,324	-0,094	-0,056
-378,131	800,000	-0,039	-0,094
-377,117	121,854	0,008	-0,007
-376,102	-106,968	-0,064	-0,010
-375,088	-123,056	-0,107	0,012
-374,073	596,432	-0,047	0,086
-373,058	272,396	-0,036	0,047
-372,044	259,503	0,072	0,091
-371,029	800,000	-0,070	0,169
-370,015	139,711	-0,067	0,065
-369,000	-32,850	-0,138	-0,056
-367,985	-200,000	0,003	-0,051
-366,971	-90,299	0,076	-0,016
-365,956	-131,913	-0,016	0,002
-364,942	147,218	0,112	0,111
-363,927	-200,000	0,012	-0,076
-362,912	104,557	0,027	-0,024
-361,898	435,628	0,018	0,029
-360,883	-200,000	-0,029	-0,115
-359,869	95,795	-0,071	-0,059
-358,854	-200,000	0,001	-0,085
-357,839	-110,245	0,016	0,002
-356,825	-168,487	0,056	0,002
-355,810	-2,024	0,026	-0,013
-354,796	122,628	-0,062	-0,057
-353,781	-42,960	-0,135	-0,050
-352,766	689,281	-0,079	0,152
-351,752	153,620	0,073	0,074
-350,737	220,598	-0,076	-0,089
-349,723	786,326	0,009	-0,018
-348,708	276,235	-0,073	0,095
-347,693	-200,000	-0,020	0,123
-346,679	-115,772	-0,152	-0,021
-345,664	800,000	0,041	0,116
-344,650	53,680	-0,074	-0,052
-343,635	-200,000	0,001	0,040
-342,620	-16,538	-0,025	0,012
-341,606	580,721	-0,010	0,019
-340,591	182,162	-0,052	0,056
-339,577	-72,708	0,059	0,016
-338,562	29,361	0,092	-0,057
-337,548	-1,258	-0,134	-0,069
-336,533	-200,000	0,002	0,108
-335,518	59,298	-0,020	-0,015
-334,504	7,040	0,139	0,076
-333,489	800,000	-0,061	0,133
-332,475	244,295	-0,057	0,071
-331,460	-200,000	0,044	0,153
-330,445	-200,000	-0,021	0,068
-329,431	-46,070	-0,108	-0,039
-328,416	222,481	0,035	-0,041
-327,402	763,567	0,041	0,082
-326,387	779,143	-0,034	-0,069
-325,372	800,000	0,020	-0,043
-324,358	138,091	0,027	0,026
-323,343	64,953	0,039	-0,029
-322,329	110,741	-0,077	0,068
-321,314	800,000	-0,053	0,116
-320,299	-151,982	0,073	-0,004
-319,285	36,267	0,062	0,040
-318,270	103,303	0,123	-0,106
-317,256	438,382	-0,046	0,074
-316,241	-161,183	-0,128	0,005
-315,226	-200,000	0,031	-0,166
-314,212	99,244	0,045	-0,038
-313,197	93,930	-0,087	-0,072
-312,183	800,000	-0,006	-0,016
-311,168	-200,000	-0,003	-0,021
-310,153	6,533	-0,172	0,093
-309,139	-28,119	-0,093	-0,039
-308,124	-172,381	0,053	0,001
-307,110	-200,000	0,006	-0,036
-306,095	-148,147	-0,055	0,003
-305,080	-130,368	0,038	-0,004
-304,066	105,344	0,038	0,033
-303,051	-107,079	-0,075	0,012
-302,037	-200,000	0,015	0,096
-301,022	-152,600	0,090	-0,005
-300,008	-106,350	0,057	0,009
-298,993	161,005	-0,081	0,083
-297,978	-95,226	0,191	0,037
-296,964	-16,666	-0,031	-0,014
-295,949	800,000	0,009	-0,026
-294,935	29,632	-0,013	0,008
-293,920	-200,000	-0,019	0,099
-292,905	-45,376	0,119	0,043
-291,891	97,762	-0,037	-0,031
-290,876	-200,000	0,013	-0,133
-289,862	94,214	-0,030	0,025
-288,847	223,524	-0,038	0,045
-287,832	-137,958	0,088	0,007
-286,818	322,251	-0,067	0,094
-285,803	60,320	0,105	-0,076
-284,789	109,913	0,105	0,092
-283,774	800,000	0,017	0,039
-282,759	-200,000	-0,020	-0,167
-281,745	0,677	-0,043	-0,022
-280,730	-200,000	-0,002	0,047
-279,716	800,000	-0,039	0,096
-278,701	-85,374	0,049	0,011
-277,686	800,000	0,040	-0,100
-276,672	-200,000	0,006	-0,138
-275,657	-182,105	0,142	-0,002
-274,643	-200,000	-0,011	-0,095
-273,628	-200,000	0,011	-0,115
-272,613	800,000	-0,060	-0,132
-271,599	-200,000	0,015	0,100
-270,584	-82,161	-0,064	0,015
-269,570	-200,000	-0,004	0,047
-268,555	68,168	-0,069	0,052
-267,540	393,343	-0,072	0,111
-266,526	-107,348	-0,011	-0,002
-265,511	109,699	-0,094	0,082
-264,497	800,000	-0,015	0,039
-263,482	-200,000	0,036	0,118
-262,467	170,305	-0,064	0,067
-261,453	214,808	-0,020	0,024
-260,438	-96,475	0,187	-0,036
-259,424	800,000	-0,042	-0,097
-258,409	150,366	-0,015	0,015
-257,395	244,345	0,057	-0,070
-256,380	78,044	0,047	0,037
-255,365	521,125	0,046	0,079
-254,351	-200,000	0,009	0,053
-253,336	-6,651	0,021	-0,010
-252,322	-200,000	-0,042	0,137
-251,307	119,929	0,095	0,087
-250,292	-55,609	-0,093	0,030
-249,278	-200,000	-0,019	0,066
-248,263	-200,000	-0,044	0,193
-247,249	110,073	-0,085	0,075
-246,234	800,000	0,010	-0,022
-245,219	633,180	-0,002	0,004
-244,205	-129,752	0,106	-0,011
-243,190	-29,671	-0,012	-0,005
-242,176	-200,000	0,027	0,197
-241,161	-200,000	-0,008	0,029
-240,146	-200,000	0,003	0,047
-239,132	-200,000	-0,002	-0,043
-238,117	-200,000	0,017	-0,082
-237,103	111,225	-0,077	-0,068
-236,088	-142,527	-0,079	-0,006
-235,073	-200,000	-0,010	0,087
-234,059	-79,193	0,076	-0,019
-233,044	374,507	0,031	-0,046
-232,030	-13,543	-0,038	-0,018
-231,015	800,000	-0,041	-0,097
-230,000	-200,000	-0,032	-0,222
-228,986	-200,000	0,013	-0,064
-227,971	-105,063	-0,053	-0,009
-226,957	-200,000	-0,015	0,068
-225,942	78,617	0,025	0,019
-224,927	97,846	-0,042	0,035
-223,913	24,415	0,022	0,013
-222,898	-42,156	0,077	0,029
-221,884	559,512	-0,049	-0,087
-220,869	149,296	-0,056	0,056
-219,855	-200,000	0,011	0,046
-218,840	-90,557	0,054	-0,011
-217,825	-163,212	-0,085	0,003
-216,811	399,571	0,013	-0,020
-215,796	-200,000	0,007	-0,113
-214,782	291,384	-0,104	-0,138
-213,767	680,759	-0,016	-0,030
-212,752	-200,000	-0,012	-0,073
-211,738	344,056	-0,062	-0,089
-210,723	97,996	0,017	0,015
-209,709	-200,000	-0,005	0,119
-208,694	-200,000	-0,012	-0,084
-207,679	-200,000	-0,001	-0,078
-206,665	-200,000	-0,008	-0,056
-205,650	654,358	-0,083	0,157
-204,636	-45,142	0,026	0,009
-203,621	-192,625	0,035	0,000
-202,606	-79,906	0,084	0,020
-201,592	319,762	0,021	-0,029
-200,577	75,636	-0,077	-0,059
-199,563	237,616	-0,083	0,100
-198,548	364,436	-0,065	0,096
-197,533	-200,000	0,005	0,040
-196,519	-15,675	-0,035	-0,016
-195,504	611,323	0,037	0,068
-194,490	-200,000	-0,000	-0,107
-193,475	-200,000	0,027	-0,162
-192,460	-200,000	0,018	0,079
-191,446	425,492	-0,006	0,009
-190,431	224,530	0,049	0,058
-189,417	190,587	0,123	0,135
-188,402	-200,000	-0,025	-0,108
-187,387	-72,156	-0,082	-0,022
-186,373	401,284	0,045	0,069
-185,358	800,000	0,046	0,094
-184,344	319,469	0,026	-0,036
-183,329	800,000	0,037	-0,110
-182,315	-122,787	0,070	0,008
-181,300	-129,762	-0,100	0,010
-180,285	-200,000	0,025	-0,124
-179,271	-200,000	0,016	-0,067
-178,256	10,861	0,116	0,065
-177,242	-200,000	0,030	0,150
-176,227	-200,000	0,002	-0,020
-175,212	-200,000	0,048	0,183
-174,198	241,348	0,042	-0,051
-173,183	800,000	0,032	-0,074
-172,169	82,756	-0,098	-0,077
-171,154	3,689	-0,047	0,025
-170,139	-60,238	0,102	0,031
-169,125	800,000	0,027	-0,063
-168,110	98,941	-0,045	0,038
-167,096	62,699	0,046	0,033
-166,081	164,731	0,084	0,086
-165,066	-200,000	-0,048	-0,203
-164,052	800,000	-0,066	0,184
-163,037	83,203	-0,074	0,059
-162,023	-200,000	0,005	0,022
-161,008	800,000	0,048	0,133
-159,993	-7,595	-0,079	0,039
-158,979	65,812	-0,149	-0,110
-157,964	-200,000	-0,031	-0,180
-156,950	-173,855	0,076	-0,002
-155,935	800,000	-0,070	0,165
-154,920	800,000	0,003	0,011
-153,906	-200,000	0,015	-0,081
-152,891	-149,802	0,107	-0,006
-151,877	-200,000	-0,001	-0,150
-150,862	354,944	-0,062	-0,090
-149,847	54,407	-0,051	-0,036
-148,833	-109,798	0,139	0,021
-147,818	-78,405	0,072	-0,018
-146,804	-116,073	-0,031	-0,004
-145,789	-200,000	0,006	0,077
-144,775	800,000	0,042	-0,103
-143,760	9,478	-0,088	-0,048
-142,745	425,294	-0,029	-0,045
-141,731	192,809	0,074	0,082
-140,716	800,000	-0,029	0,083
-139,702	-158,590	0,028	-0,001
-138,687	-200,000	-0,029	0,105
-137,672	800,000	-0,031	0,088
-136,658	-72,287	0,123	0,033
-135,643	117,372	-0,084	0,075
-134,629	800,000	0,062	0,133
-133,614	-80,324	0,121	0,029
-132,599	253,248	-0,113	0,141
-131,585	-131,701	0,047	-0,004
-130,570	-30,903	-0,119	-0,049
-129,556	2,706	0,076	-0,040
-128,541	209,029	0,018	0,020
-127,526	111,031	-0,029	0,025
-126,512	238,331	0,086	0,104
-125,497	-98,666	0,070	-0,013
-124,483	-94,749	0,077	-0,015
-123,468	-75,515	-0,089	-0,023
-122,453	223,909	-0,110	-0,130
-121,439	88,775	0,053	-0,043
-120,424	-200,000	-0,007	-0,030
-119,410	-200,000	0,009	0,058
-118,395	-175,409	0,039	0,001
-117,380	-200,000	0,004	0,085
-116,366	-28,383	-0,034	-0,014
-115,351	-168,354	-0,108	0,003
-114,337	30,160	-0,006	-0,004
-113,322	175,453	-0,066	-0,070
-112,307	800,000	0,017	0,038
-111,293	189,054	0,051	0,055
-110,278	-54,871	0,063	0,021
-109,264	336,801	0,061	-0,086
-108,249	-20,576	-0,123	-0,055
-107,234	370,540	-0,077	0,114
-106,220	114,199	-0,036	-0,032
-105,205	51,541	-0,074	0,051
-104,191	149,342	0,056	0,055
-103,176	-200,000	0,028	0,246
-102,162	192,436	-0,005	-0,006
-101,147	531,170	-0,028	-0,048
-100,132	-200,000	0,004	-0,126
-99,118	39,479	-0,146	-0,095
-98,103	721,129	-0,030	0,057
-97,089	129,748	0,047	0,044
-96,074	-60,428	0,142	-0,044
-95,059	-60,224	-0,075	0,023
-94,045	116,317	0,087	0,077
-93,030	-0,801	-0,060	0,031
-92,016	296,565	0,037	0,049
-91,001	-195,673	-0,070	0,000
-89,986	800,000	-0,020	0,045
-88,972	-200,000	0,048	0,186
-87,957	-200,000	-0,014	0,093
-86,943	404,846	0,057	-0,087
-85,928	-200,000	-0,012	-0,051
-84,913	-200,000	0,014	-0,055
-83,899	207,021	0,090	-0,102
-82,884	-139,259	-0,110	0,008
-81,870	-55,036	0,034	0,011
-80,855	65,902	0,113	0,083
-79,840	-200,000	-0,026	-0,090
-78,826	-200,000	0,000	-0,003
-77,811	-200,000	-0,036	-0,156
-76,797	-90,896	-0,076	0,016
-75,782	-199,767	0,088	-0,000
-74,767	290,062	0,133	0,176
-73,753	-200,000	-0,021	0,118
-72,738	800,000	-0,027	0,057
-71,724	362,462	-0,056	-0,082
-70,709	-200,000	-0,013	-0,155
-69,694	800,000	-0,037	-0,082
-68,680	-200,000	-0,007	-0,114
-67,665	663,327	0,085	0,160
-66,651	-200,000	0,017	0,162
-65,636	145,327	0,031	0,030
-64,622	800,000	0,040	-0,106
-63,607	675,794	0,095	-0,181
-62,592	-149,205	0,077	-0,004
-61,578	-200,000	-0,013	0,060
-60,563	576,724	-0,017	0,030
-59,549	115,763	0,089	-0,079
-58,534	-134,860	-1,382	-0,120
-57,519	637,062	-0,867	-1,605
-56,505	-200,000	-0,709	-4,327
-55,490	71,722	0,420	-0,316
-54,476	800,000	5,030	11,649
-53,461	-200,000	13,980	254,567
-52,446	-200,000	694,216	2263,353
-51,432	599,224	1624,493	2935,660
-50,417	117,714	1633,662	1458,768
-49,403	73,560	1287,477	977,035
-48,388	37,442	1023,727	657,087
-47,373	23,949	982,059	585,949
-46,359	23,168	971,400	577,003
-45,344	22,093	967,051	570,885
-44,330	22,020	965,792	569,881
-43,315	21,895	964,255	568,546
-42,300	21,929	963,160	567,987
-41,286	21,863	962,358	567,277
-40,271	21,916	961,323	566,818
-39,257	21,878	960,307	566,071
-38,242	21,905	959,278	565,531
-37,227	21,898	958,660	565,121
-36,213	21,859	957,755	564,438
-35,198	21,857	956,893	563,902
-34,184	21,852	956,312	563,520
-33,169	21,882	955,202	562,941
-32,154	21,974	954,390	562,736
-31,140	21,915	953,507	562,004
-30,125	21,978	952,794	561,765
-29,111	21,918	951,896	561,021
-28,096	21,906	951,272	560,590
-27,082	21,849	950,620	560,000
-26,067	21,927	949,650	559,658
-25,052	21,976	948,959	559,385
-24,038	21,901	948,401	558,793
-23,023	21,853	947,779	558,251
-22,009	21,929	947,002	558,015
-20,994	21,899	946,554	557,632
-19,979	21,906	945,895	557,245
-18,965	21,870	945,252	556,729
-17,950	21,897	944,662	556,446
-16,936	21,872	943,899	555,894
-15,921	21,869	943,139	555,416
-14,906	21,794	942,484	554,770
-13,892	21,817	941,828	554,435
-12,877	21,801	941,260	554,026
-11,863	21,715	940,728	553,417
-10,848	21,698	940,191	553,025
-9,833	21,864	939,811	553,307
-8,819	21,886	939,093	552,932
-7,804	21,780	938,409	552,174
-6,790	21,795	937,662	551,760
-5,775	21,772	937,257	551,424
-4,760	21,810	936,493	551,073
-3,746	21,732	935,868	550,438
-2,731	21,684	935,174	549,856
-1,717	21,581	934,605	549,174
-0,702	21,591	933,865	548,748
0,313	21,419	933,237	548,668
1,327	23,898	930,666	554,898
2,342	31,322	809,121	502,563
3,356	26,020	509,746	307,521
4,371	1,513	374,882	194,858
5,386	-1,219	357,677	182,534
6,400	-2,268	351,833	178,264
7,415	-2,712	349,135	176,347
8,429	-2,669	347,754	175,686
9,444	-2,623	346,673	175,179
10,459	-2,473	346,068	175,037
11,473	-2,593	345,605	174,643
12,488	-2,624	344,936	174,253
13,502	-2,682	344,339	173,867
14,517	-2,667	343,714	173,553
15,531	-2,690	343,559	173,432
16,546	-2,560	342,916	173,246
17,561	-2,511	342,501	173,078
18,575	-2,558	342,396	172,954
19,590	-2,593	341,799	172,597
20,604	-2,457	341,594	172,638
21,619	-2,527	341,012	172,246
22,634	-2,523	340,737	172,097
23,648	-2,700	340,449	171,729
24,663	-2,508	340,034	171,728
25,677	-2,407	339,814	171,720
26,692	-2,349	339,399	171,563
27,707	-2,514	339,119	171,213
28,721	-2,505	338,658	170,977
29,736	-2,516	338,526	170,881
30,750	-2,610	338,327	170,656
31,765	-2,580	338,021	170,522
32,780	-2,516	337,635	170,386
33,794	-2,608	337,421	170,156
34,809	-2,467	337,162	170,174
35,823	-2,647	336,913	169,825
36,838	-2,485	336,425	169,750
37,853	-2,698	336,256	169,404
38,867	-2,579	335,970	169,382
39,882	-2,586	335,696	169,221
40,896	-2,535	335,513	169,172
41,911	-2,528	335,284	169,049
42,926	-2,516	334,991	168,901
43,940	-2,537	334,574	168,651
44,955	-2,608	334,452	168,493
45,969	-2,580	334,140	168,353
46,984	-2,443	333,907	168,378
47,999	-2,540	333,608	168,101
49,013	-2,456	333,366	168,060
50,028	-2,547	333,062	167,788
51,042	-2,484	332,865	167,746
52,057	-2,608	332,514	167,412
53,071	-2,649	332,276	167,231
54,086	-2,642	332,098	167,134
55,101	-2,639	331,773	166,959
56,115	-2,661	331,634	166,849
57,130	-2,583	331,167	166,689
58,144	-2,515	330,999	166,666
59,159	-2,535	330,603	166,429
60,174	-2,513	330,371	166,323
61,188	-2,715	330,230	166,007
62,203	-2,516	330,040	166,122
63,217	-2,548	329,779	165,941
64,232	-2,586	329,524	165,755
65,247	-2,535	329,202	165,635
66,261	-2,570	328,962	165,460
67,276	-2,533	328,525	165,267
68,290	-2,588	328,409	165,132
69,305	-2,755	328,146	164,797
70,320	-2,518	327,865	164,908
71,334	-2,511	327,472	164,704
72,349	-2,606	327,393	164,542
73,363	-2,572	327,118	164,428
74,378	-2,695	326,945	164,189
75,393	-2,487	326,559	164,213
76,407	-2,551	326,385	164,039
77,422	-2,460	326,055	163,959
78,436	-2,556	325,927	163,774
79,451	-2,520	325,537	163,603
80,466	-2,429	325,322	163,582
81,480	-2,449	325,023	163,395
82,495	-2,500	324,904	163,264
83,509	-2,340	324,673	163,311
84,524	-2,415	324,329	163,040
85,539	-2,453	324,149	162,894
86,553	-2,619	323,928	162,583
87,568	-2,581	323,753	162,523
88,582	-2,566	323,377	162,337
89,597	-2,496	323,152	162,286
90,611	-2,674	323,060	162,030
91,626	-2,490	322,806	162,090
92,641	-2,493	322,593	161,966
93,655	-2,434	322,294	161,866
94,670	-2,502	321,948	161,603
95,684	-2,415	321,902	161,662
96,699	-2,475	321,474	161,366
97,714	-2,463	321,285	161,270
98,728	-2,622	321,171	161,024
99,743	-2,670	320,916	160,828
100,757	-2,433	320,604	160,918
101,772	-2,527	320,521	160,759
102,787	-2,763	320,235	160,343
103,801	-2,538	319,989	160,452
104,816	-2,647	319,773	160,209
105,830	-2,443	319,473	160,268
106,845	-2,288	319,180	160,275
107,860	-2,480	319,005	159,964
108,874	-2,471	318,677	159,795
109,889	-2,627	318,519	159,531
110,903	-2,766	318,301	159,257
111,918	-2,610	318,148	159,336
112,933	-2,531	317,838	159,253
113,947	-2,469	317,644	159,208
114,962	-2,533	317,387	158,996
115,976	-2,388	317,222	159,056
116,991	-2,526	317,045	158,803
118,006	-2,701	316,738	158,446
119,020	-2,413	316,657	158,704
120,035	-2,419	316,293	158,500
121,049	-2,577	316,190	158,264
122,064	-2,466	315,882	158,216
123,079	-2,422	315,769	158,192
124,093	-2,538	315,516	157,927
125,108	-2,594	315,199	157,694
126,122	-2,547	315,006	157,633
127,137	-2,452	314,778	157,607
128,151	-2,563	314,531	157,351
129,166	-2,478	314,375	157,349
130,181	-2,486	314,117	157,198
131,195	-2,582	313,852	156,948
132,210	-2,519	313,481	156,817
133,224	-2,562	313,412	156,722
134,239	-2,637	313,136	156,490
135,254	-2,409	312,893	156,597
136,268	-2,479	312,553	156,338
137,283	-2,742	312,607	156,072
138,297	-2,664	312,324	155,999
139,312	-2,502	311,963	155,978
140,327	-2,529	311,771	155,839
141,341	-2,490	311,587	155,774
142,356	-2,446	311,359	155,693
143,370	-2,435	311,108	155,566
144,385	-2,446	311,013	155,492
145,400	-2,341	310,715	155,441
146,414	-2,471	310,516	155,189
147,429	-2,582	310,282	154,942
148,443	-2,414	310,005	154,967
149,458	-2,449	309,876	154,852
150,473	-2,420	309,671	154,766
151,487	-2,298	309,456	154,773
152,502	-2,417	309,197	154,505
153,516	-2,445	309,061	154,394
154,531	-2,485	308,708	154,161
155,546	-2,417	308,529	154,130
156,560	-2,481	308,404	153,986
157,575	-2,471	308,109	153,835
158,589	-2,554	307,892	153,627
159,604	-2,497	307,792	153,622
160,619	-2,497	307,532	153,479
161,633	-2,282	307,274	153,562
162,648	-2,189	307,187	153,601
163,662	-2,300	306,812	153,284
164,677	-2,375	306,750	153,162
165,692	-2,409	306,592	153,034
166,706	-2,469	306,258	152,791
167,721	-2,578	306,262	152,666
168,735	-2,494	305,924	152,570
169,750	-2,431	305,761	152,542
170,764	-2,352	305,542	152,500
171,779	-2,362	305,297	152,354
172,794	-2,376	305,200	152,278
173,808	-2,486	304,899	152,000
174,823	-2,474	304,569	151,835
175,837	-2,659	304,536	151,614
176,852	-2,572	304,315	151,580
177,867	-2,226	303,975	151,753
178,881	-2,371	303,879	151,542
179,896	-2,594	303,765	151,242
180,910	-2,542	303,436	151,119
181,925	-2,236	303,261	151,333
182,940	-2,387	303,077	151,072
183,954	-2,543	302,993	150,857
184,969	-2,383	302,846	150,934
185,983	-2,327	302,562	150,837
186,998	-2,286	302,197	150,683
188,013	-2,393	302,053	150,489
189,027	-2,468	301,968	150,356
190,042	-2,535	301,766	150,173
191,056	-2,421	301,443	150,117
192,071	-2,533	301,272	149,903
193,086	-2,483	300,991	149,801
194,100	-2,323	300,817	149,864
195,115	-2,366	300,653	149,725
196,129	-2,498	300,515	149,509
197,144	-2,308	300,121	149,493
198,159	-2,470	299,969	149,239
199,173	-2,408	299,705	149,157
200,188	-2,470	299,624	149,040
201,202	-2,390	299,412	149,003
202,217	-2,604	299,181	148,658
203,232	-2,350	298,793	148,709
204,246	-2,413	298,595	148,534
205,261	-2,557	298,527	148,341
206,275	-2,295	298,337	148,498
207,290	-2,436	298,092	148,220
208,304	-2,273	297,970	148,311
209,319	-2,265	297,565	148,105
210,334	-2,366	297,378	147,896
211,348	-2,364	297,287	147,839
212,363	-2,427	297,055	147,647
213,377	-2,295	296,921	147,701
214,392	-2,239	296,714	147,641
215,407	-2,272	296,486	147,481
216,421	-2,335	296,301	147,313
217,436	-2,475	296,085	147,052
218,450	-2,538	295,838	146,853
219,465	-2,260	295,639	147,019
220,480	-2,488	295,549	146,733
221,494	-2,463	295,344	146,644
222,509	-2,427	295,242	146,616
223,523	-2,483	295,027	146,440
224,538	-2,552	294,891	146,291
225,553	-2,138	294,476	146,484
226,567	-2,357	294,511	146,270
227,582	-2,439	294,231	146,037
228,596	-2,389	294,022	145,969
229,611	-2,382	293,856	145,881
230,626	-2,482	293,784	145,733
231,640	-2,422	293,437	145,607
232,655	-2,458	293,172	145,427
233,669	-2,499	293,010	145,293
234,684	-2,492	292,911	145,239
235,699	-2,376	292,749	145,259
236,713	-2,272	292,441	145,196
237,728	-2,376	292,373	145,048
238,742	-2,553	292,244	144,796
239,757	-2,256	291,693	144,803
240,772	-2,412	291,666	144,622
241,786	-2,572	291,471	144,355
242,801	-2,550	291,396	144,327
243,815	-2,429	291,138	144,305
244,830	-2,440	290,951	144,189
245,844	-2,390	290,733	144,117
246,859	-2,422	290,537	143,975
247,874	-2,512	290,298	143,756
248,888	-2,439	290,023	143,678
249,903	-2,404	289,848	143,613
250,917	-2,462	289,791	143,515
251,932	-2,629	289,734	143,311
252,947	-2,439	289,327	143,282
253,961	-2,872	288,940	142,656
254,976	-3,153	288,772	142,286
255,990	-3,199	288,499	142,095
257,005	-2,675	288,688	142,685
258,020	-0,633	289,404	145,018
259,034	0,990	289,818	146,796
260,049	1,811	289,783	147,565
261,063	2,031	289,781	147,765
262,078	2,447	289,689	148,111
263,093	2,631	289,535	148,197
264,107	2,673	289,614	148,266
265,122	2,835	289,589	148,396
266,136	2,973	289,340	148,390
267,151	2,939	289,252	148,299
268,166	3,000	288,975	148,203
269,180	3,207	288,730	148,265
270,195	3,070	288,509	148,005
271,209	3,135	288,319	147,958
272,224	3,053	288,106	147,756
273,239	2,897	287,832	147,451
274,253	2,938	287,535	147,325
275,268	2,876	287,516	147,242
276,282	2,876	287,159	147,047
277,297	2,884	287,115	147,019
278,312	2,811	286,996	146,875
279,326	2,812	286,835	146,780
280,341	2,910	286,563	146,722
281,355	2,856	286,301	146,522
282,370	2,810	286,277	146,453
283,384	2,842	286,045	146,353
284,399	2,727	285,829	146,118
285,414	2,738	285,586	145,991
286,428	2,712	285,429	145,873
287,443	2,579	285,366	145,701
288,457	2,471	285,188	145,495
289,472	2,695	284,832	145,513
290,487	2,556	284,694	145,298
291,501	2,692	284,491	145,310
292,516	2,536	284,250	145,025
293,530	2,573	284,096	144,969
294,545	2,657	283,997	144,986
295,560	2,513	283,671	144,670
296,574	2,640	283,462	144,670
297,589	2,502	283,186	144,386
298,603	2,663	283,068	144,466
299,618	2,591	282,903	144,300
300,633	2,595	282,765	144,221
301,647	2,698	282,644	144,244
302,662	2,869	282,476	144,307
303,676	2,792	282,272	144,117
304,691	2,880	282,231	144,166
305,706	2,792	282,021	143,963
306,720	2,912	281,811	143,957
307,735	3,049	281,651	143,991
308,749	2,892	281,542	143,774
309,764	2,943	281,269	143,670
310,779	2,944	281,123	143,584
311,793	2,670	280,985	143,243
312,808	2,904	280,642	143,275
313,822	2,918	280,520	143,213
314,837	2,686	280,302	142,872
315,852	2,900	280,134	142,973
316,866	2,880	279,947	142,846
317,881	2,786	279,647	142,593
318,895	2,701	279,580	142,466
319,910	2,779	279,390	142,430
320,925	2,831	279,100	142,318
321,939	2,742	279,020	142,181
322,954	2,905	278,976	142,298
323,968	2,918	278,610	142,111
324,983	3,082	278,474	142,182
325,997	2,947	278,380	141,996
327,012	2,987	278,115	141,885
328,027	3,029	278,039	141,873
329,041	3,150	277,952	141,927
330,056	2,937	277,751	141,615
331,070	3,030	277,575	141,598
332,085	3,045	277,333	141,476
333,100	2,942	277,118	141,259
334,114	2,928	276,964	141,155
335,129	2,988	276,772	141,100
336,143	3,025	276,492	140,979
337,158	2,868	276,395	140,772
338,173	2,958	276,265	140,776
339,187	2,981	276,162	140,732
340,202	2,844	275,990	140,506
341,216	2,858	275,757	140,388
342,231	3,033	275,494	140,402
343,246	3,059	275,170	140,248
344,260	2,929	275,177	140,120
345,275	3,057	275,037	140,154
346,289	3,146	274,806	140,105
347,304	3,065	274,679	139,954
348,319	3,025	274,559	139,843
349,333	3,053	274,339	139,744
350,348	3,058	274,072	139,600
351,362	2,911	273,960	139,397
352,377	2,897	273,857	139,319
353,392	3,072	273,619	139,345
354,406	3,026	273,575	139,268
355,421	191,040	1349,775	1428,725
356,435	154,241	1480,991	1428,854
