DTS Sentinel unit serial number:	SN410029Multiplexer serial number:	ORYXHardware model number:	OX2-SRSoftware version number:	ORYX F/W v4,00 Oryx Data Collector v3.7.2.0data status	okinstallation	B4 Nyhavnadifferential loss correction	single-endedforward channel	channel 2reverse channel	N/Adate	2023/12/16time	06:25:13forward acquisition time	300,00reverse acquisition time	0,00gamma	499,1914k internal	0,3127k external	0,3127temperature offset calibration	1,0000default loss term (dB/km)	0,3820temperature slope calibration	1,0000multiplexer offset coefficient	1,0000multiplexer slope coefficient	1,0000fibre end	0,00T internal ref (°C)	22,27T ext. ref 1 (°C)	7,61T ext. ref 2 (°C)	7,76length (m)	temperature (°C)	Stokes	anti-Stokes-744,400	-200,000	0,027	-0,096
-743,385	-61,589	-0,340	0,106
-742,371	101,230	0,086	0,074
-741,356	-3,061	-0,152	0,079
-740,342	-0,567	0,119	-0,063
-739,327	-101,947	-0,374	0,067
-738,312	800,000	-0,065	0,141
-737,298	-58,648	-0,315	0,101
-736,283	-200,000	-0,003	-0,052
-735,269	-47,458	-0,198	0,071
-734,254	-200,000	-0,011	-0,063
-733,239	-137,790	-0,393	-0,032
-732,225	-100,003	0,066	-0,012
-731,210	-200,000	-0,004	-0,067
-730,196	-200,000	-0,004	0,061
-729,181	-9,621	-0,038	0,019
-728,167	412,025	0,066	0,105
-727,152	800,000	-0,025	-0,078
-726,137	-75,007	-0,079	0,021
-725,123	-8,351	-0,080	0,040
-724,108	-138,678	-0,075	0,006
-723,094	-200,000	-0,023	-0,095
-722,079	606,126	0,030	0,055
-721,064	-95,544	0,122	0,024
-720,050	-166,984	-0,074	-0,002
-719,035	235,182	-0,082	0,101
-718,021	800,000	0,044	0,108
-717,006	57,389	-0,172	-0,125
-715,991	250,993	-0,107	-0,136
-714,977	800,000	0,035	-0,083
-713,962	14,778	-0,012	-0,007
-712,948	441,588	-0,032	-0,052
-711,933	-77,320	-0,004	-0,001
-710,918	50,787	0,025	0,018
-709,904	366,730	-0,083	0,125
-708,889	709,975	-0,069	-0,136
-707,875	100,773	-0,049	-0,042
-706,860	-185,615	-0,048	0,001
-705,845	-200,000	0,005	-0,045
-704,831	-200,000	0,026	-0,167
-703,816	1,755	0,045	-0,024
-702,802	80,665	-0,138	-0,111
-701,787	-115,708	-0,103	0,014
-700,772	-200,000	0,001	0,043
-699,758	172,553	-0,040	0,043
-698,743	-59,532	-0,129	0,041
-697,729	-145,061	-0,054	0,004
-696,714	-15,394	-0,077	-0,037
-695,699	-20,750	-0,197	-0,090
-694,685	-110,102	0,019	0,003
-693,670	8,627	-0,059	-0,033
-692,656	-200,000	-0,011	-0,107
-691,641	-175,209	0,094	-0,002
-690,627	464,932	-0,103	0,172
-689,612	-200,000	-0,003	0,064
-688,597	-200,000	-0,029	0,101
-687,583	-137,633	0,120	-0,010
-686,568	-111,723	-0,109	0,016
-685,554	65,029	-0,099	0,074
-684,539	25,069	0,080	-0,049
-683,524	800,000	-0,043	0,092
-682,510	-200,000	0,025	0,086
-681,495	448,774	-0,029	-0,048
-680,481	-90,766	-0,111	-0,024
-679,466	-200,000	-0,032	-0,131
-678,451	-200,000	-0,026	-0,095
-677,437	800,000	0,044	0,095
-676,422	-47,693	0,123	0,044
-675,408	312,912	0,055	0,078
-674,393	-22,424	0,009	-0,004
-673,378	-114,363	-0,123	0,017
-672,364	-89,272	-0,134	-0,029
-671,349	176,481	-0,085	-0,092
-670,335	-162,845	0,036	0,001
-669,320	227,254	-0,055	-0,066
-668,305	250,142	0,102	-0,128
-667,291	-200,000	0,001	0,044
-666,276	-132,527	-0,103	0,010
-665,262	-200,000	0,012	0,063
-664,247	-200,000	-0,007	-0,045
-663,232	-7,262	-0,026	0,013
-662,218	-200,000	0,022	0,086
-661,203	93,782	0,058	0,049
-660,189	800,000	-0,086	0,181
-659,174	167,667	-0,091	0,096
-658,159	81,417	-0,059	-0,047
-657,145	238,182	0,021	-0,026
-656,130	280,253	-0,091	0,121
-655,116	97,599	-0,077	0,065
-654,101	209,186	-0,026	-0,030
-653,086	170,786	-0,078	0,083
-652,072	-135,965	-0,136	-0,012
-651,057	166,597	-0,062	-0,065
-650,043	-200,000	0,004	-0,024
-649,028	800,000	-0,060	-0,167
-648,014	589,968	0,035	0,063
-646,999	800,000	-0,049	0,123
-645,984	-200,000	-0,027	0,151
-644,970	-95,868	0,107	-0,021
-643,955	301,687	-0,139	-0,191
-642,941	475,154	-0,064	-0,108
-641,926	343,733	-0,039	0,057
-640,911	252,518	0,063	0,079
-639,897	-96,865	-0,161	0,031
-638,882	800,000	-0,032	-0,087
-637,868	-200,000	0,022	-0,080
-636,853	-156,557	-0,216	0,010
-635,838	-200,000	-0,005	-0,045
-634,824	800,000	0,009	-0,023
-633,809	-200,000	0,023	0,126
-632,795	13,663	-0,054	-0,031
-631,780	-52,752	0,048	0,016
-630,765	-200,000	-0,048	-0,173
-629,751	-200,000	0,025	-0,151
-628,736	422,473	-0,091	-0,146
-627,722	95,777	0,073	0,062
-626,707	-135,020	-0,058	-0,005
-625,692	416,661	-0,067	0,107
-624,678	800,000	-0,020	0,057
-623,663	6,118	0,070	0,038
-622,649	-200,000	-0,020	-0,091
-621,634	-110,659	-0,219	0,033
-620,619	10,162	-0,156	0,088
-619,605	630,361	0,010	0,018
-618,590	-160,995	0,132	-0,005
-617,576	302,247	0,070	0,096
-616,561	-107,774	-0,071	-0,011
-615,546	-84,058	0,055	0,013
-614,532	-13,827	-0,043	0,021
-613,517	-113,922	-0,078	-0,011
-612,503	23,609	-0,059	0,036
-611,488	99,500	0,122	0,105
-610,474	322,755	-0,108	0,153
-609,459	-200,000	-0,032	0,221
-608,444	170,101	-0,083	-0,088
-607,430	268,321	-0,068	0,088
-606,415	-113,259	-0,139	0,020
-605,401	800,000	0,046	-0,119
-604,386	25,746	-0,042	-0,026
-603,371	-200,000	-0,022	0,216
-602,357	800,000	0,034	0,110
-601,342	788,232	-0,006	-0,012
-600,328	35,355	-0,075	-0,049
-599,313	-1,509	-0,064	0,033
-598,298	-200,000	0,010	-0,053
-597,284	-34,895	0,165	-0,067
-596,269	9,981	-0,159	0,089
-595,255	-52,802	-0,179	0,061
-594,240	221,213	0,078	-0,092
-593,225	-89,971	-0,061	-0,013
-592,211	60,615	0,155	-0,113
-591,196	-200,000	-0,014	0,063
-590,182	308,129	0,048	-0,066
-589,167	327,118	-0,011	0,016
-588,152	23,511	-0,016	0,010
-587,138	-77,031	-0,111	0,028
-586,123	-200,000	-0,001	0,041
-585,109	-173,494	0,025	-0,001
-584,094	-200,000	-0,018	-0,117
-583,079	-11,531	-0,084	0,041
-582,065	189,408	0,043	0,048
-581,050	342,400	0,062	0,090
-580,036	800,000	0,037	-0,080
-579,021	-200,000	0,030	0,125
-578,006	167,427	-0,115	-0,121
-576,992	762,500	0,058	-0,116
-575,977	-58,861	0,194	0,062
-574,963	348,374	-0,032	-0,047
-573,948	-200,000	-0,002	0,074
-572,934	7,740	0,147	0,081
-571,919	24,164	-0,084	0,051
-570,904	-71,741	-0,056	0,015
-569,890	800,000	-0,019	-0,047
-568,875	320,387	0,029	-0,041
-567,861	-24,537	-0,076	0,034
-566,846	-200,000	-0,009	0,116
-565,831	-148,024	-0,044	-0,003
-564,817	3,095	0,020	-0,011
-563,802	126,411	-0,094	-0,088
-562,788	800,000	-0,064	-0,158
-561,773	125,858	-0,019	-0,018
-560,758	-200,000	-0,013	0,081
-559,744	800,000	-0,054	0,133
-558,729	335,953	-0,072	-0,103
-557,715	-200,000	0,020	-0,090
-556,700	165,933	-0,031	-0,032
-555,685	-200,000	0,008	0,049
-554,671	-80,873	-0,129	0,031
-553,656	-56,892	0,025	0,008
-552,642	-200,000	0,022	0,099
-551,627	90,749	-0,049	0,040
-550,612	-200,000	-0,029	-0,120
-549,598	-200,000	-0,021	0,123
-548,583	-200,000	0,016	-0,069
-547,569	-16,332	0,106	-0,049
-546,554	-126,615	-0,056	-0,006
-545,539	12,151	-0,031	0,018
-544,525	-200,000	0,003	-0,040
-543,510	85,387	-0,098	-0,080
-542,496	-200,000	-0,010	-0,039
-541,481	-79,374	-0,076	0,019
-540,466	-68,187	-0,172	0,049
-539,452	-0,362	0,106	0,055
-538,437	-34,432	0,056	-0,022
-537,423	-200,000	0,000	-0,040
-536,408	35,995	-0,060	0,039
-535,393	-30,823	-0,166	0,069
-534,379	3,185	-0,026	0,014
-533,364	32,094	-0,065	-0,042
-532,350	18,943	0,046	0,027
-531,335	800,000	-0,038	0,093
-530,321	-60,612	-0,042	-0,013
-529,306	-82,717	-0,074	0,017
-528,291	-96,927	-0,064	-0,012
-527,277	-200,000	-0,025	-0,184
-526,262	-200,000	-0,016	-0,094
-525,248	-200,000	0,004	-0,184
-524,233	-127,459	-0,122	-0,013
-523,218	148,469	0,090	0,090
-522,204	800,000	-0,031	0,074
-521,189	-65,496	-0,119	-0,035
-520,175	23,878	0,073	0,044
-519,160	155,457	-0,086	-0,088
-518,145	-131,207	0,067	0,006
-517,131	-200,000	0,016	0,060
-516,116	10,749	-0,040	0,023
-515,102	176,878	-0,115	-0,124
-514,087	-200,000	-0,003	-0,108
-513,072	-182,123	-0,124	-0,002
-512,058	118,387	0,058	0,053
-511,043	12,210	0,027	-0,015
-510,029	3,066	-0,091	0,048
-509,014	55,414	-0,025	0,018
-507,999	164,621	0,018	0,018
-506,985	-152,106	0,093	0,005
-505,970	800,000	0,050	-0,135
-504,956	-86,617	-0,040	-0,009
-503,941	43,568	0,051	0,035
-502,926	-200,000	-0,021	0,224
-501,912	-200,000	0,031	0,101
-500,897	800,000	0,055	-0,144
-499,883	-187,956	-0,199	-0,002
-498,868	-200,000	-0,031	-0,124
-497,853	800,000	0,008	-0,023
-496,839	31,369	-0,031	0,020
-495,824	-200,000	0,023	-0,090
-494,810	800,000	0,005	-0,014
-493,795	800,000	0,009	0,029
-492,781	-77,987	0,102	0,026
-491,766	-74,487	-0,136	-0,036
-490,751	800,000	-0,054	0,138
-489,737	54,101	0,106	-0,075
-488,722	-24,208	0,151	0,066
-487,708	-39,835	0,122	-0,047
-486,693	-200,000	0,008	-0,081
-485,678	-22,932	-0,054	0,024
-484,664	800,000	-0,039	0,115
-483,649	-36,633	-0,106	0,042
-482,635	178,947	-0,031	-0,033
-481,620	-0,042	0,066	-0,034
-480,605	361,620	0,027	0,040
-479,591	-185,050	0,076	0,001
-478,576	70,424	0,077	0,058
-477,562	-200,000	0,005	0,023
-476,547	-200,000	0,009	-0,121
-475,532	-13,221	0,085	-0,041
-474,518	-40,280	-0,049	0,019
-473,503	-148,098	0,093	0,006
-472,489	-86,648	-0,224	-0,050
-471,474	-200,000	-0,048	-0,170
-470,459	800,000	0,025	0,053
-469,445	-200,000	0,029	-0,103
-468,430	-113,526	-0,056	0,008
-467,416	-43,025	0,084	-0,031
-466,401	604,727	0,082	0,151
-465,386	800,000	-0,070	-0,197
-464,372	-200,000	0,033	0,184
-463,357	205,025	0,089	-0,102
-462,343	800,000	0,020	-0,047
-461,328	89,025	-0,097	0,079
-460,313	800,000	0,040	-0,083
-459,299	128,514	0,160	-0,150
-458,284	-200,000	-0,006	-0,045
-457,270	160,270	-0,044	-0,046
-456,255	-200,000	0,010	0,079
-455,241	-200,000	-0,007	0,086
-454,226	167,809	-0,123	-0,129
-453,211	-111,901	0,093	0,014
-452,197	182,219	0,102	0,110
-451,182	123,320	0,046	0,043
-450,168	503,193	-0,067	0,115
-449,153	800,000	0,008	0,026
-448,138	70,205	0,020	0,015
-447,124	-24,159	-0,060	-0,026
-446,109	53,286	-0,162	0,114
-445,095	475,280	0,052	0,087
-444,080	289,593	-0,032	0,043
-443,065	32,554	-0,052	0,033
-442,051	-36,980	-0,017	-0,007
-441,036	125,387	-0,065	0,060
-440,022	-109,954	-0,112	-0,017
-439,007	-200,000	0,000	-0,022
-437,992	100,531	0,102	-0,087
-436,978	800,000	0,044	0,093
-435,963	-106,710	0,098	-0,016
-434,949	-67,029	0,058	-0,017
-433,934	-200,000	0,024	0,092
-432,919	800,000	-0,002	0,006
-431,905	97,531	-0,060	0,050
-430,890	75,257	0,098	-0,076
-429,876	-200,000	-0,001	0,088
-428,861	505,011	0,041	0,071
-427,846	202,394	-0,056	0,063
-426,832	-100,542	-0,064	-0,012
-425,817	141,435	0,030	0,029
-424,803	-17,569	-0,070	-0,032
-423,788	800,000	-0,030	0,084
-422,773	96,745	0,124	0,105
-421,759	-80,149	-0,101	-0,025
-420,744	800,000	0,020	0,054
-419,730	-33,145	0,126	0,051
-418,715	-33,459	-0,112	0,045
-417,701	-97,786	0,100	-0,019
-416,686	-32,765	0,071	0,029
-415,671	-171,853	-0,159	-0,004
-414,657	478,678	0,058	0,097
-413,642	-200,000	-0,008	0,051
-412,628	168,161	0,053	-0,055
-411,613	-200,000	-0,002	-0,059
-410,598	-24,103	-0,107	0,047
-409,584	800,000	0,015	-0,043
-408,569	800,000	0,061	0,139
-407,555	-200,000	0,000	0,176
-406,540	45,879	-0,092	0,062
-405,525	-50,725	0,130	-0,045
-404,511	800,000	0,016	-0,038
-403,496	800,000	-0,041	-0,127
-402,482	-75,696	0,028	-0,007
-401,467	-200,000	-0,024	0,105
-400,452	131,019	0,114	0,108
-399,438	-200,000	-0,012	0,161
-398,423	106,836	0,041	-0,036
-397,409	73,187	-0,034	0,026
-396,394	-137,697	-0,080	-0,006
-395,379	-190,012	-0,128	0,001
-394,365	-46,306	0,048	0,017
-393,350	-100,974	0,144	-0,026
-392,336	580,109	-0,031	-0,056
-391,321	290,845	-0,051	-0,069
-390,306	-200,000	-0,024	-0,097
-389,292	102,298	0,049	-0,042
-388,277	800,000	0,013	-0,031
-387,263	-112,775	-0,057	0,008
-386,248	119,589	0,193	0,176
-385,233	800,000	-0,049	-0,130
-384,219	-16,065	0,026	-0,012
-383,204	363,155	-0,071	-0,105
-382,190	118,124	-0,063	-0,057
-381,175	800,000	0,037	0,085
-380,160	-200,000	0,004	0,145
-379,146	625,329	0,050	0,094
-378,131	156,042	0,067	0,067
-377,117	-26,264	-0,111	-0,048
-376,102	-142,511	-0,023	-0,002
-375,088	80,154	-0,058	-0,046
-374,073	-99,802	-0,045	-0,008
-373,058	-150,240	0,061	0,003
-372,044	800,000	-0,046	-0,145
-371,029	-200,000	0,003	-0,041
-370,015	124,001	0,113	0,104
-369,000	800,000	0,021	0,049
-367,985	294,496	0,049	-0,066
-366,971	800,000	0,036	0,074
-365,956	-200,000	-0,010	0,033
-364,942	173,767	-0,080	0,084
-363,927	549,230	0,067	0,118
-362,912	69,466	0,070	-0,053
-361,898	-200,000	-0,009	0,054
-360,883	800,000	0,023	-0,051
-359,869	53,734	-0,165	-0,116
-358,854	589,691	-0,015	-0,028
-357,839	800,000	-0,069	-0,221
-356,825	-128,872	0,146	-0,015
-355,810	81,486	0,039	-0,031
-354,796	56,751	0,069	0,049
-353,781	417,240	-0,009	0,015
-352,766	-153,502	0,044	-0,002
-351,752	130,542	0,169	0,159
-350,737	-200,000	0,016	0,084
-349,723	573,335	-0,046	0,082
-348,708	-200,000	-0,014	-0,089
-347,693	16,599	-0,082	-0,047
-346,679	-200,000	0,048	0,000
-345,664	-200,000	-0,000	-0,020
-344,650	227,340	0,043	0,051
-343,635	-200,000	0,016	0,076
-342,620	-70,499	0,073	-0,020
-341,606	170,147	-0,011	0,012
-340,591	514,397	-0,056	-0,096
-339,577	166,920	0,114	0,118
-338,562	187,967	0,085	-0,094
-337,548	-131,517	-0,030	-0,003
-336,533	499,435	-0,039	0,066
-335,518	-35,489	0,132	0,052
-334,504	-136,452	0,136	-0,011
-333,489	-200,000	0,001	0,134
-332,475	800,000	0,033	-0,098
-331,460	104,010	0,033	-0,028
-330,445	800,000	0,027	-0,060
-329,431	8,328	0,059	0,032
-328,416	-66,524	0,130	-0,038
-327,402	14,686	0,020	-0,011
-326,387	800,000	-0,030	0,096
-325,372	-150,067	-0,108	0,006
-324,358	800,000	0,035	-0,085
-323,343	26,033	0,032	0,019
-322,329	-6,313	-0,032	-0,016
-321,314	255,187	-0,024	-0,030
-320,299	191,440	-0,077	0,085
-319,285	385,342	0,076	-0,116
-318,270	-200,000	0,006	-0,035
-317,256	-200,000	-0,014	0,060
-316,241	85,467	0,059	0,047
-315,226	3,688	0,090	-0,048
-314,212	-141,774	0,204	0,015
-313,197	578,130	-0,069	0,125
-312,183	-200,000	-0,048	0,168
-311,168	-200,000	0,000	0,056
-310,153	-200,000	0,031	0,170
-309,139	397,561	0,076	-0,117
-308,124	136,950	0,018	0,017
-307,110	800,000	0,029	0,065
-306,095	-71,081	0,105	0,029
-305,080	171,053	-0,050	-0,052
-304,066	631,609	-0,037	-0,069
-303,051	-163,694	0,106	-0,004
-302,037	63,446	-0,123	-0,090
-301,022	-200,000	-0,013	-0,048
-300,008	99,030	0,040	0,034
-298,993	800,000	0,089	0,197
-297,978	-200,000	-0,003	-0,085
-296,964	-16,057	-0,132	-0,061
-295,949	-200,000	0,043	-0,236
-294,935	-200,000	-0,012	-0,098
-293,920	-200,000	-0,004	-0,038
-292,905	300,966	0,039	0,053
-291,891	314,665	-0,037	0,051
-290,876	-200,000	-0,009	0,071
-289,862	332,629	0,041	0,059
-288,847	-200,000	-0,004	-0,036
-287,832	87,101	0,076	-0,061
-286,818	-83,560	0,160	-0,037
-285,803	-91,338	-0,059	0,012
-284,789	800,000	-0,032	0,099
-283,774	42,607	0,077	0,051
-282,759	393,824	0,065	-0,099
-281,745	46,583	-0,043	-0,029
-280,730	-174,183	-0,084	-0,002
-279,716	198,726	0,024	-0,027
-278,701	299,794	0,008	-0,011
-277,686	-15,195	0,136	0,064
-276,672	-200,000	-0,007	0,036
-275,657	-200,000	0,009	-0,091
-274,643	-200,000	-0,004	0,021
-273,628	73,853	0,050	-0,038
-272,613	-200,000	0,004	-0,073
-271,599	-200,000	-0,001	-0,085
-270,584	-181,127	-0,121	0,002
-269,570	-200,000	0,004	0,043
-268,555	-74,776	0,044	-0,012
-267,540	-200,000	0,015	-0,088
-266,526	483,724	0,050	0,083
-265,511	274,347	-0,036	0,046
-264,497	193,178	-0,055	-0,061
-263,482	144,279	0,124	-0,121
-262,467	232,217	0,068	-0,082
-261,453	129,681	0,033	-0,031
-260,438	-200,000	-0,003	-0,054
-259,424	800,000	0,001	-0,002
-258,409	-200,000	-0,029	-0,195
-257,395	800,000	0,053	-0,114
-256,380	61,439	0,020	-0,014
-255,365	142,255	0,125	0,121
-254,351	70,703	0,129	-0,097
-253,336	170,875	-0,096	-0,100
-252,322	-200,000	0,002	-0,122
-251,307	-200,000	-0,010	-0,057
-250,292	800,000	-0,042	-0,118
-249,278	114,755	0,143	0,127
-248,263	344,570	0,112	0,162
-247,249	206,708	0,205	0,233
-246,234	800,000	-0,026	-0,068
-245,219	-115,087	0,123	0,017
-244,205	-84,868	-0,072	0,016
-243,190	-138,163	0,072	-0,006
-242,176	-158,342	0,111	0,005
-241,161	-49,305	0,086	0,030
-240,146	-114,875	0,074	-0,010
-239,132	-59,031	0,086	0,027
-238,117	-200,000	-0,029	-0,127
-237,103	-200,000	-0,005	-0,117
-236,088	800,000	0,027	-0,054
-235,073	-168,904	0,183	0,005
-234,059	-53,064	0,048	-0,016
-233,044	800,000	-0,029	0,059
-232,030	800,000	0,031	-0,094
-231,015	-200,000	-0,066	-0,244
-230,000	-158,190	-0,090	-0,004
-228,986	800,000	-0,051	0,106
-227,971	162,159	-0,080	-0,082
-226,957	8,371	0,189	0,103
-225,942	-200,000	0,004	-0,021
-224,927	800,000	0,004	-0,014
-223,913	-13,797	-0,104	0,049
-222,898	-200,000	0,008	-0,027
-221,884	100,021	0,112	-0,095
-220,869	123,203	-0,052	-0,048
-219,855	-128,336	0,042	0,004
-218,840	-98,377	-0,189	-0,035
-217,825	800,000	-0,014	0,037
-216,811	-52,569	0,132	-0,044
-215,796	-130,553	-0,143	-0,014
-214,782	800,000	-0,022	-0,060
-213,767	154,754	0,041	-0,041
-212,752	-17,641	-0,102	0,046
-211,738	-155,365	0,093	-0,004
-210,723	321,811	0,072	-0,101
-209,709	174,945	0,015	-0,016
-208,694	449,962	0,041	-0,066
-207,679	90,719	-0,063	0,052
-206,665	-78,977	-0,022	-0,005
-205,650	202,303	-0,051	-0,058
-204,636	-101,447	0,097	0,017
-203,621	28,927	0,041	-0,025
-202,606	13,998	-0,063	-0,036
-201,592	-200,000	-0,031	-0,144
-200,577	56,029	-0,063	-0,044
-199,563	766,820	-0,032	-0,063
-198,548	-200,000	-0,019	0,084
-197,533	-33,470	-0,095	0,038
-196,519	-200,000	-0,003	0,091
-195,504	504,644	-0,088	0,150
-194,490	-80,156	-0,069	-0,017
-193,475	187,683	0,052	0,057
-192,460	-15,048	0,129	0,060
-191,446	35,802	-0,078	-0,050
-190,431	-200,000	-0,012	0,090
-189,417	800,000	-0,030	0,066
-188,402	491,205	0,016	-0,027
-187,387	800,000	0,030	-0,073
-186,373	-84,854	-0,057	0,013
-185,358	-200,000	-0,015	-0,067
-184,344	-51,112	0,074	0,025
-183,329	-200,000	0,001	0,033
-182,315	49,869	-0,078	-0,053
-181,300	59,699	-0,069	0,050
-180,285	800,000	0,010	0,021
-179,271	170,734	-0,049	-0,052
-178,256	800,000	0,017	0,042
-177,242	691,274	0,045	0,087
-176,227	-146,338	0,170	-0,011
-175,212	-200,000	-0,012	-0,073
-174,198	-167,428	0,040	-0,001
-173,183	-167,105	0,063	0,002
-172,169	-193,286	-0,165	0,001
-171,154	-80,108	-0,056	0,013
-170,139	544,050	0,026	0,045
-169,125	-30,424	0,130	0,053
-168,110	800,000	-0,033	0,085
-167,096	-57,399	-0,059	-0,019
-166,081	-7,893	0,040	0,019
-165,066	800,000	0,036	-0,080
-164,052	176,174	-0,083	-0,087
-163,037	800,000	-0,053	0,136
-162,023	-187,120	0,062	-0,001
-161,008	307,775	-0,044	0,060
-159,993	373,836	-0,069	0,103
-158,979	-35,071	-0,045	-0,018
-157,964	-90,208	0,085	0,018
-156,950	-200,000	-0,028	-0,094
-155,935	-47,444	-0,039	0,014
-154,920	800,000	0,049	-0,105
-153,906	-200,000	0,027	0,096
-152,891	800,000	-0,061	-0,170
-151,877	519,183	0,022	-0,037
-150,862	-200,000	0,000	-0,033
-149,847	302,431	-0,049	-0,066
-148,833	-111,720	-0,042	-0,006
-147,818	371,688	0,070	-0,103
-146,804	-200,000	-0,000	0,080
-145,789	-200,000	-0,026	0,089
-144,775	366,702	-0,055	0,081
-143,760	-93,846	0,138	0,027
-142,745	800,000	-0,050	-0,147
-141,731	102,164	0,068	0,058
-140,716	-200,000	-0,044	0,151
-139,702	558,813	-0,075	0,133
-138,687	23,852	-0,060	0,036
-137,672	-200,000	-0,011	0,114
-136,658	-79,721	0,084	-0,020
-135,643	-200,000	0,011	-0,047
-134,629	-58,073	0,096	0,030
-133,614	7,348	0,116	0,063
-132,599	245,659	0,024	0,029
-131,585	-42,886	-0,130	0,048
-130,570	48,773	-0,172	0,117
-129,556	-89,022	-0,085	-0,018
-128,541	120,485	0,039	-0,035
-127,526	8,748	-0,002	-0,001
-126,512	184,675	-0,079	0,085
-125,497	92,016	0,061	-0,050
-124,483	-88,188	-0,103	-0,022
-123,468	-200,000	0,007	-0,214
-122,453	-92,034	-0,111	0,023
-121,439	262,378	0,050	-0,063
-120,424	-89,404	0,111	-0,023
-119,410	600,461	-0,032	-0,058
-118,395	122,516	-0,060	0,055
-117,380	25,751	0,086	-0,052
-116,366	28,973	0,025	-0,016
-115,351	92,038	-0,049	-0,040
-114,337	162,850	-0,042	0,043
-113,322	-111,253	0,036	0,005
-112,307	800,000	-0,036	0,100
-111,293	160,288	0,133	0,135
-110,278	27,454	0,128	0,078
-109,264	498,041	0,089	0,150
-108,249	91,745	-0,078	0,064
-107,234	800,000	-0,045	-0,111
-106,220	537,383	0,061	0,105
-105,205	-200,000	-0,018	0,088
-104,191	-99,592	0,036	0,007
-103,176	515,134	0,077	-0,132
-102,162	418,011	0,086	-0,133
-101,147	800,000	0,012	0,027
-100,132	-70,610	-0,045	0,012
-99,118	-200,000	0,010	0,039
-98,103	-200,000	0,009	-0,033
-97,089	-38,754	0,044	0,017
-96,074	-120,489	0,089	0,011
-95,059	-138,410	0,114	-0,009
-94,045	303,674	-0,025	-0,034
-93,030	-171,800	-0,100	-0,002
-92,016	-113,563	-0,050	-0,007
-91,001	-180,595	0,108	-0,002
-89,986	800,000	0,021	0,065
-88,972	-200,000	0,038	0,186
-87,957	-52,070	0,078	0,026
-86,943	-108,942	-0,130	-0,020
-85,928	-62,621	-0,154	0,046
-84,913	-200,000	-0,023	-0,104
-83,899	190,529	0,059	0,064
-82,884	-200,000	0,017	-0,086
-81,870	-76,381	-0,101	-0,025
-80,855	195,021	0,061	0,067
-79,840	-183,918	-0,010	-0,000
-78,826	-200,000	-0,015	0,135
-77,811	-57,412	0,056	-0,018
-76,797	-3,841	-0,051	0,026
-75,782	-200,000	-0,000	-0,067
-74,767	-9,882	-0,083	0,040
-73,753	-133,558	0,075	-0,007
-72,738	-28,217	0,043	-0,018
-71,724	-67,152	0,071	0,020
-70,709	291,776	-0,066	0,088
-69,694	202,732	-0,059	0,066
-68,680	-114,690	0,050	0,007
-67,665	331,575	-0,055	0,076
-66,651	800,000	-0,041	0,083
-65,636	19,754	-0,044	0,026
-64,622	354,143	0,104	-0,149
-63,607	9,684	0,032	0,018
-62,592	93,111	0,010	0,008
-61,578	-69,884	0,142	0,039
-60,563	800,000	-0,007	-0,019
-59,549	288,847	-0,066	0,086
-58,534	-155,822	-1,297	-0,059
-57,519	800,000	-0,728	-1,469
-56,505	-200,000	-0,857	-4,322
-55,490	-73,173	0,534	-0,141
-54,476	800,000	4,881	11,411
-53,461	-200,000	13,735	250,901
-52,446	-200,000	689,854	2245,925
-51,432	590,095	1620,112	2906,814
-50,417	119,050	1631,758	1461,782
-49,403	74,145	1286,433	977,516
-48,388	38,134	1022,473	657,893
-47,373	24,314	980,399	585,508
-46,359	23,573	969,996	576,850
-45,344	22,561	965,687	570,969
-44,330	22,454	964,272	569,761
-43,315	22,345	963,092	568,685
-42,300	22,359	961,758	567,920
-41,286	22,306	960,994	567,275
-40,271	22,315	959,920	566,648
-39,257	22,313	958,944	566,043
-38,242	22,291	957,995	565,389
-37,227	22,319	957,238	565,009
-36,213	22,316	956,334	564,444
-35,198	22,235	955,510	563,673
-34,184	22,313	954,902	563,546
-33,169	22,260	954,002	562,821
-32,154	22,323	952,879	562,337
-31,140	22,340	952,049	561,882
-30,125	22,330	951,281	561,374
-29,111	22,311	950,700	560,948
-28,096	22,337	949,941	560,562
-27,082	22,347	949,155	560,107
-26,067	22,257	948,559	559,443
-25,052	22,273	947,740	558,989
-24,038	22,328	947,056	558,739
-23,023	22,344	946,487	558,434
-22,009	22,352	945,687	557,966
-20,994	22,299	945,121	557,439
-19,979	22,384	944,478	557,310
-18,965	22,371	943,961	556,940
-17,950	22,339	943,148	556,336
-16,936	22,227	942,665	555,676
-15,921	22,217	941,976	555,215
-14,906	22,192	941,328	554,731
-13,892	22,230	940,499	554,342
-12,877	22,253	939,864	554,018
-11,863	22,138	939,339	553,322
-10,848	22,163	938,721	553,014
-9,833	22,317	938,255	553,206
-8,819	22,271	937,757	552,745
-7,804	22,158	937,144	552,005
-6,790	22,125	936,466	551,479
-5,775	22,235	935,848	551,438
-4,760	22,224	935,094	550,938
-3,746	22,208	934,512	550,523
-2,731	22,057	934,016	549,735
-1,717	21,999	933,212	549,058
-0,702	22,055	932,401	548,735
0,313	21,864	931,811	548,614
1,327	24,348	929,452	554,963
2,342	32,120	807,894	503,391
3,356	27,508	508,162	308,759
4,371	3,288	372,768	195,813
5,386	0,272	355,594	183,092
6,400	-1,358	349,379	177,917
7,415	-2,164	346,512	175,479
8,429	-2,370	345,155	174,532
9,444	-2,375	344,173	174,014
10,459	-2,366	343,603	173,721
11,473	-2,281	342,946	173,473
12,488	-1,896	342,372	173,622
13,502	-1,930	341,900	173,326
14,517	-1,868	341,314	173,086
15,531	-2,275	340,861	172,365
16,546	-2,165	340,329	172,209
17,561	-2,398	339,937	171,723
18,575	-2,251	339,614	171,716
19,590	-2,223	339,095	171,470
20,604	-2,254	338,844	171,292
21,619	-2,249	338,405	171,062
22,634	-2,187	337,984	170,905
23,648	-2,157	337,744	170,803
24,663	-2,225	337,293	170,482
25,677	-2,236	337,148	170,380
26,692	-2,231	336,771	170,180
27,707	-2,305	336,493	169,939
28,721	-2,319	336,236	169,778
29,736	-2,276	335,907	169,646
30,750	-2,305	335,573	169,429
31,765	-2,270	335,304	169,319
32,780	-2,361	335,021	169,056
33,794	-2,245	334,816	169,071
34,809	-2,336	334,497	168,790
35,823	-2,160	334,102	168,777
36,838	-2,334	333,864	168,442
37,853	-2,348	333,539	168,247
38,867	-2,326	333,199	168,087
39,882	-2,329	332,899	167,916
40,896	-2,509	332,839	167,666
41,911	-2,282	332,450	167,713
42,926	-2,243	332,152	167,593
43,940	-2,430	332,003	167,289
44,955	-2,505	331,725	167,050
45,969	-2,497	331,334	166,846
46,984	-2,639	331,180	166,593
47,999	-2,752	330,852	166,284
49,013	-2,905	330,487	165,913
50,028	-2,875	330,203	165,790
51,042	-2,813	329,890	165,687
52,057	-2,884	329,422	165,357
53,071	-2,924	329,354	165,263
54,086	-2,895	329,152	165,181
55,101	-2,798	328,831	165,114
56,115	-2,665	328,811	165,239
57,130	-2,198	328,529	165,608
58,144	-2,155	328,384	165,569
59,159	-2,036	327,930	165,459
60,174	-2,047	327,896	165,415
61,188	-2,144	327,637	165,161
62,203	-2,237	327,390	164,917
63,217	-2,249	327,102	164,744
64,232	-2,184	326,866	164,683
65,247	-2,192	326,764	164,607
66,261	-1,974	326,343	164,625
67,276	-2,358	325,931	163,974
68,290	-2,514	325,680	163,658
69,305	-2,646	325,442	163,378
70,320	-2,567	325,060	163,260
71,334	-2,391	324,951	163,386
72,349	-2,159	324,837	163,572
73,363	-2,096	324,495	163,455
74,378	-2,199	324,344	163,250
75,393	-2,147	324,178	163,210
76,407	-2,210	323,819	162,945
77,422	-2,283	323,721	162,799
78,436	-2,268	323,414	162,648
79,451	-2,196	323,180	162,595
80,466	-2,364	322,712	162,159
81,480	-2,321	322,475	162,074
82,495	-2,545	322,089	161,618
83,509	-2,434	321,927	161,645
84,524	-2,524	321,711	161,423
85,539	-2,482	321,314	161,255
86,553	-2,441	321,196	161,226
87,568	-2,525	320,945	160,994
88,582	-2,562	320,727	160,829
89,597	-2,475	320,393	160,744
90,611	-2,357	320,207	160,765
91,626	-2,248	320,077	160,804
92,641	-2,255	319,946	160,716
93,655	-2,465	319,692	160,345
94,670	-2,398	319,294	160,204
95,684	-2,383	318,980	160,049
96,699	-2,459	318,977	159,951
97,714	-2,375	318,727	159,903
98,728	-2,558	318,418	159,533
99,743	-2,573	318,126	159,357
100,757	-2,584	317,979	159,257
101,772	-2,612	317,576	159,011
102,787	-2,602	317,552	158,995
103,801	-2,540	317,251	158,898
104,816	-2,549	317,063	158,780
105,830	-2,084	316,773	159,124
106,845	-2,296	316,777	158,882
107,860	-2,136	316,300	158,801
108,874	-2,383	316,231	158,486
109,889	-2,311	315,878	158,372
110,903	-2,242	315,509	158,248
111,918	-2,463	315,466	157,974
112,933	-2,446	315,215	157,853
113,947	-2,248	314,897	157,892
114,962	-2,272	314,727	157,767
115,976	-2,343	314,680	157,652
116,991	-2,370	314,416	157,478
118,006	-2,495	314,160	157,201
119,020	-2,403	313,993	157,202
120,035	-2,327	313,889	157,218
121,049	-2,207	313,602	157,188
122,064	-2,207	313,416	157,081
123,079	-2,325	313,105	156,786
124,093	-2,414	312,894	156,570
125,108	-2,623	312,779	156,276
126,122	-2,706	312,457	156,013
127,137	-2,813	312,055	155,684
128,151	-2,687	311,929	155,742
129,166	-2,590	311,643	155,688
130,181	-2,624	311,429	155,532
131,195	-2,811	311,297	155,253
132,210	-2,540	311,106	155,432
133,224	-2,459	310,958	155,429
134,239	-2,541	310,830	155,265
135,254	-2,398	310,456	155,215
136,268	-2,298	310,039	155,098
137,283	-2,611	309,763	154,616
138,297	-2,616	309,498	154,465
139,312	-2,635	309,432	154,398
140,327	-2,395	309,273	154,557
141,341	-2,109	309,087	154,752
142,356	-2,068	309,003	154,739
143,370	-1,885	308,837	154,834
144,385	-2,011	308,638	154,589
145,400	-2,175	308,468	154,317
146,414	-1,975	308,164	154,361
147,429	-1,805	307,889	154,388
148,443	-2,135	307,827	153,997
149,458	-2,052	307,610	153,962
150,473	-2,007	307,320	153,850
151,487	-2,113	307,095	153,613
152,502	-2,036	306,904	153,585
153,516	-2,034	306,591	153,416
154,531	-1,951	306,513	153,450
155,546	-2,057	306,161	153,149
156,560	-2,114	305,943	152,967
157,575	-2,276	305,559	152,594
158,589	-2,097	305,603	152,788
159,604	-2,070	305,322	152,662
160,619	-2,048	305,177	152,599
161,633	-2,106	304,998	152,435
162,648	-2,076	304,776	152,341
163,662	-2,010	304,669	152,343
164,677	-2,134	304,499	152,116
165,692	-2,168	304,187	151,912
166,706	-1,907	303,981	152,065
167,721	-2,037	303,773	151,812
168,735	-2,064	303,617	151,694
169,750	-2,032	303,544	151,676
170,764	-1,891	303,248	151,661
171,779	-1,911	303,081	151,542
172,794	-1,918	302,791	151,377
173,808	-2,003	302,738	151,249
174,823	-2,475	302,311	150,539
175,837	-2,565	302,102	150,329
176,852	-2,270	302,012	150,573
177,867	-1,944	301,892	150,834
178,881	-1,880	301,679	150,779
179,896	-1,808	301,533	150,767
180,910	-1,909	301,326	150,546
181,925	-1,934	301,171	150,430
182,940	-1,793	300,941	150,445
183,954	-1,891	300,638	150,181
184,969	-1,818	300,377	150,111
185,983	-1,914	300,271	149,947
186,998	-1,986	300,054	149,752
188,013	-1,960	299,734	149,606
189,027	-2,021	299,778	149,552
190,042	-1,907	299,446	149,488
191,056	-1,925	299,296	149,383
192,071	-1,800	299,100	149,398
193,086	-1,788	298,987	149,340
194,100	-1,840	298,757	149,159
195,115	-1,845	298,511	149,018
196,129	-1,955	298,139	148,708
197,144	-1,804	297,892	148,724
198,159	-1,705	297,767	148,748
199,173	-1,963	297,704	148,443
200,188	-1,816	297,468	148,460
201,202	-2,015	297,270	148,149
202,217	-2,396	296,606	147,422
203,232	-2,353	296,441	147,370
204,246	-2,251	296,613	147,545
205,261	-1,866	296,256	147,739
206,275	-1,678	296,160	147,867
207,290	-1,896	296,006	147,559
208,304	-1,945	295,890	147,439
209,319	-1,906	295,649	147,344
210,334	-1,941	295,368	147,156
211,348	-2,020	295,198	146,980
212,363	-1,936	294,877	146,890
213,377	-1,992	294,789	146,777
214,392	-2,008	294,718	146,713
215,407	-2,095	294,441	146,476
216,421	-2,239	294,045	146,122
217,436	-2,243	293,812	145,989
218,450	-2,147	293,698	146,015
219,465	-2,079	293,667	146,055
220,480	-1,973	293,468	146,048
221,494	-1,994	293,254	145,907
222,509	-2,151	293,161	145,692
223,523	-1,829	292,902	145,869
224,538	-1,884	292,806	145,754
225,553	-1,848	292,481	145,615
226,567	-1,889	292,459	145,550
227,582	-1,835	292,166	145,444
228,596	-1,811	292,045	145,395
229,611	-1,711	291,865	145,392
230,626	-1,876	291,596	145,082
231,640	-2,245	291,206	144,512
232,655	-2,594	291,108	144,108
233,669	-2,485	290,711	144,005
234,684	-2,580	290,556	143,822
235,699	-2,491	290,373	143,806
236,713	-2,452	290,266	143,779
237,728	-2,239	290,188	143,936
238,742	-2,339	290,058	143,760
239,757	-2,113	289,820	143,851
240,772	-2,016	289,457	143,752
241,786	-1,892	289,356	143,810
242,801	-2,253	289,253	143,394
243,815	-2,125	289,067	143,414
244,830	-2,131	288,933	143,329
245,844	-2,298	288,673	143,025
246,859	-2,200	288,457	143,001
247,874	-2,240	288,207	142,824
248,888	-2,300	288,149	142,724
249,903	-2,026	288,075	142,942
250,917	-1,958	287,809	142,862
251,932	-1,727	287,631	142,985
252,947	-1,275	287,782	143,486
253,961	-1,802	287,324	142,735
254,976	-0,627	287,775	144,084
255,990	1,658	288,557	146,680
257,005	2,513	288,810	147,625
258,020	3,860	289,100	149,067
259,034	4,161	288,944	149,265
260,049	4,189	288,608	149,105
261,063	3,906	288,446	148,734
262,078	3,941	288,488	148,777
263,093	4,477	288,515	149,296
264,107	4,601	288,155	149,216
265,122	4,429	288,061	148,988
266,136	4,814	287,992	149,311
267,151	4,765	287,799	149,150
268,166	4,657	287,517	148,886
269,180	4,473	287,322	148,595
270,195	4,497	287,260	148,572
271,209	4,643	286,855	148,490
272,224	4,577	286,740	148,354
273,239	4,420	286,522	148,077
274,253	4,296	286,319	147,840
275,268	4,890	286,238	148,354
276,282	4,744	286,061	148,110
277,297	4,627	285,788	147,844
278,312	4,834	285,695	147,980
279,326	4,712	285,588	147,795
280,341	4,765	285,234	147,649
281,355	4,557	285,002	147,317
282,370	4,582	284,776	147,211
283,384	4,502	284,698	147,081
284,399	4,583	284,447	147,016
285,414	4,329	284,319	146,695
286,428	4,461	284,031	146,658
287,443	4,119	283,838	146,221
288,457	4,152	283,592	146,113
289,472	4,127	283,523	146,041
290,487	4,197	283,239	145,947
291,501	4,072	283,042	145,715
292,516	3,762	282,855	145,313
293,530	3,756	282,797	145,263
294,545	4,025	282,745	145,479
295,560	4,293	282,421	145,552
296,574	3,997	281,997	145,042
297,589	4,187	282,078	145,249
298,603	4,486	282,010	145,483
299,618	4,605	281,860	145,505
300,633	4,459	281,713	145,278
301,647	4,101	281,515	144,827
302,662	4,537	281,248	145,086
303,676	4,233	280,915	144,615
304,691	3,958	280,680	144,225
305,706	3,862	280,401	143,978
306,720	3,648	280,333	143,730
307,735	3,797	280,166	143,771
308,749	3,979	280,094	143,892
309,764	4,274	279,847	144,027
310,779	3,874	279,606	143,518
311,793	3,827	279,353	143,331
312,808	3,971	279,131	143,338
313,822	3,922	279,036	143,231
314,837	3,745	278,813	142,939
315,852	3,696	278,561	142,751
316,866	3,703	278,455	142,691
317,881	3,936	278,335	142,833
318,895	3,817	278,162	142,621
319,910	3,896	277,858	142,526
320,925	3,620	277,637	142,144
321,939	3,948	277,644	142,439
322,954	3,925	277,587	142,376
323,968	3,931	277,381	142,263
324,983	4,102	277,202	142,317
325,997	4,212	277,053	142,329
327,012	4,130	276,914	142,169
328,027	4,097	276,626	141,978
329,041	3,964	276,521	141,789
330,056	4,033	276,423	141,790
331,070	4,253	276,109	141,819
332,085	3,922	275,920	141,404
333,100	4,076	275,711	141,426
334,114	4,044	275,563	141,308
335,129	3,797	275,238	140,902
336,143	4,199	275,218	141,248
337,158	4,510	275,014	141,416
338,173	4,136	275,008	141,058
339,187	3,970	274,660	140,714
340,202	4,085	274,577	140,765
341,216	4,103	274,423	140,690
342,231	4,140	274,318	140,657
343,246	3,959	274,001	140,317
344,260	3,874	273,913	140,182
345,275	3,979	273,880	140,248
346,289	4,483	273,734	140,620
347,304	4,447	273,487	140,448
348,319	4,117	273,247	140,012
349,333	4,141	273,038	139,914
350,348	4,565	272,909	140,220
351,362	4,405	272,810	140,012
352,377	4,343	272,664	139,868
353,392	4,422	272,526	139,857
354,406	4,384	272,366	139,727
355,421	191,753	1331,442	1410,062
356,435	154,922	1460,567	1410,186
