DTS Sentinel unit serial number:	SN410029Multiplexer serial number:	ORYXHardware model number:	OX2-SRSoftware version number:	ORYX F/W v4,00 Oryx Data Collector v3.7.2.0data status	okinstallation	B4 Nyhavnadifferential loss correction	single-endedforward channel	channel 2reverse channel	N/Adate	2023/12/16time	12:40:13forward acquisition time	300,00reverse acquisition time	0,00gamma	499,1914k internal	0,3126k external	0,3126temperature offset calibration	1,0000default loss term (dB/km)	0,3820temperature slope calibration	1,0000multiplexer offset coefficient	1,0000multiplexer slope coefficient	1,0000fibre end	0,00T internal ref (°C)	24,18T ext. ref 1 (°C)	10,41T ext. ref 2 (°C)	10,56length (m)	temperature (°C)	Stokes	anti-Stokes-744,400	226,373	0,106	-0,129
-743,385	-48,289	-0,294	0,105
-742,371	93,805	-0,047	-0,039
-741,356	246,658	-0,174	0,219
-740,342	-58,248	0,051	0,017
-739,327	-79,827	-0,171	0,042
-738,312	-16,677	0,064	-0,030
-737,298	-181,507	-0,220	0,003
-736,283	-12,846	-0,087	-0,042
-735,269	316,256	-0,166	0,233
-734,254	800,000	-0,045	-0,125
-733,239	-87,605	-0,315	-0,070
-732,225	384,886	0,083	-0,127
-731,210	356,397	-0,040	0,059
-730,196	147,384	-0,089	-0,089
-729,181	-200,000	-0,035	-0,143
-728,167	800,000	0,003	0,007
-727,152	-200,000	0,010	0,079
-726,137	-200,000	-0,016	-0,121
-725,123	89,025	-0,121	-0,100
-724,108	30,451	-0,187	-0,118
-723,094	-81,819	-0,088	-0,021
-722,079	-200,000	-0,003	-0,013
-721,064	800,000	0,028	-0,076
-720,050	310,611	0,007	0,010
-719,035	153,586	-0,070	-0,071
-718,021	-8,240	-0,133	-0,066
-717,006	-3,528	-0,130	-0,067
-715,991	-173,282	-0,231	-0,005
-714,977	-113,222	0,071	0,010
-713,962	800,000	0,010	-0,024
-712,948	21,576	0,063	-0,038
-711,933	662,820	-0,038	-0,073
-710,918	268,672	-0,014	0,018
-709,904	-57,833	0,135	0,044
-708,889	-103,464	-0,127	-0,022
-707,875	40,111	-0,043	0,028
-706,860	91,366	-0,028	0,023
-705,845	-140,328	0,063	0,005
-704,831	261,748	0,106	-0,137
-703,816	101,249	-0,136	-0,118
-702,802	8,736	-0,122	-0,068
-701,787	800,000	0,047	-0,113
-700,772	29,343	-0,144	0,090
-699,758	-200,000	0,002	-0,088
-698,743	-200,000	-0,001	-0,132
-697,729	125,042	-0,151	0,142
-696,714	49,897	0,034	0,024
-695,699	795,919	0,015	0,030
-694,685	-200,000	0,004	-0,149
-693,670	241,659	-0,068	0,085
-692,656	64,819	0,022	0,016
-691,641	-200,000	-0,017	0,068
-690,627	32,168	0,066	0,043
-689,612	94,761	-0,065	-0,055
-688,597	700,183	-0,032	-0,063
-687,583	-200,000	0,003	-0,110
-686,568	760,185	0,090	-0,182
-685,554	334,325	-0,047	-0,068
-684,539	800,000	0,064	0,184
-683,524	-200,000	-0,008	0,029
-682,510	-200,000	-0,003	0,108
-681,495	90,864	0,097	-0,081
-680,481	-178,967	-0,058	0,001
-679,466	84,775	-0,215	-0,175
-678,451	800,000	-0,025	-0,081
-677,437	-33,330	-0,023	-0,009
-676,422	-200,000	-0,011	0,046
-675,408	-100,839	-0,154	-0,028
-674,393	23,172	-0,090	-0,055
-673,378	429,966	0,051	-0,082
-672,364	54,222	-0,064	-0,046
-671,349	93,490	-0,006	0,005
-670,335	184,653	0,138	0,152
-669,320	-200,000	0,041	-0,217
-668,305	28,128	0,103	-0,065
-667,291	30,449	0,057	-0,036
-666,276	365,545	0,062	-0,093
-665,262	-200,000	-0,024	-0,123
-664,247	46,877	-0,100	-0,069
-663,232	-200,000	-0,017	0,104
-662,218	530,058	0,017	0,031
-661,203	232,744	0,114	0,139
-660,189	800,000	0,057	-0,140
-659,174	-128,727	-0,187	0,019
-658,159	-200,000	-0,003	-0,031
-657,145	354,466	-0,030	-0,045
-656,130	800,000	0,030	-0,070
-655,116	416,171	-0,060	0,096
-654,101	-67,305	-0,046	-0,013
-653,086	-175,197	0,073	0,001
-652,072	-152,319	-0,068	-0,004
-651,057	-65,311	-0,096	-0,029
-650,043	164,426	-0,045	0,047
-649,028	147,097	-0,065	-0,065
-648,014	-55,501	0,144	0,048
-646,999	800,000	0,017	0,048
-645,984	-9,088	0,043	-0,021
-644,970	57,121	-0,126	-0,091
-643,955	-200,000	0,014	-0,054
-642,941	75,628	-0,038	0,030
-641,926	105,469	0,064	-0,056
-640,911	124,951	-0,062	-0,058
-639,897	439,046	-0,042	0,069
-638,882	800,000	-0,056	0,126
-637,868	-4,412	0,072	-0,037
-636,853	-200,000	-0,007	-0,039
-635,838	520,883	-0,068	-0,119
-634,824	143,472	0,049	-0,049
-633,809	-52,095	0,060	0,020
-632,795	-200,000	0,009	0,080
-631,780	-105,241	0,099	0,017
-630,765	-95,148	-0,111	-0,022
-629,751	224,731	-0,122	0,146
-628,736	-169,217	-0,047	0,001
-627,722	-200,000	-0,032	-0,223
-626,707	800,000	-0,028	0,085
-625,692	154,606	-0,014	0,014
-624,678	44,325	0,052	-0,036
-623,663	-72,278	-0,145	0,040
-622,649	-31,917	-0,215	-0,089
-621,634	288,299	-0,025	0,033
-620,619	169,419	0,052	-0,055
-619,605	-120,691	0,070	0,009
-618,590	-83,242	-0,110	0,026
-617,576	800,000	0,027	0,061
-616,561	-200,000	0,011	0,044
-615,546	-126,154	-0,104	0,011
-614,532	-33,430	0,090	0,037
-613,517	-200,000	0,001	-0,100
-612,503	-200,000	-0,001	0,004
-611,488	326,897	0,026	-0,037
-610,474	189,035	0,048	-0,054
-609,459	118,919	0,068	-0,063
-608,444	-40,416	-0,071	0,027
-607,430	121,111	-0,067	0,062
-606,415	-146,550	-0,096	0,006
-605,401	-97,427	0,113	0,022
-604,386	-77,817	-0,072	0,018
-603,371	-200,000	-0,015	0,064
-602,357	418,579	0,028	-0,044
-601,342	-83,009	-0,071	-0,017
-600,328	292,048	-0,073	-0,099
-599,313	-50,699	0,062	-0,021
-598,298	800,000	-0,042	-0,124
-597,284	31,742	0,096	0,061
-596,269	103,838	-0,007	0,006
-595,255	471,780	0,032	0,053
-594,240	288,171	-0,038	0,050
-593,225	-200,000	-0,018	-0,194
-592,211	163,856	-0,106	-0,111
-591,196	-104,162	-0,042	-0,007
-590,182	47,255	-0,095	-0,065
-589,167	-200,000	-0,041	0,171
-588,152	616,680	-0,012	0,022
-587,138	-66,089	0,032	-0,010
-586,123	-5,341	-0,053	-0,027
-585,109	50,345	-0,074	0,051
-584,094	258,594	0,041	-0,052
-583,079	282,791	-0,032	-0,043
-582,065	-114,606	0,229	-0,032
-581,050	380,186	0,036	-0,054
-580,036	800,000	0,025	-0,077
-579,021	6,569	-0,129	-0,071
-578,006	-9,095	0,037	0,018
-576,992	21,660	-0,129	-0,078
-575,977	-115,170	0,082	0,011
-574,963	-77,393	-0,123	0,031
-573,948	132,935	0,055	-0,052
-572,934	-41,344	-0,083	-0,031
-571,919	-200,000	0,004	-0,027
-570,904	59,506	0,036	-0,026
-569,890	310,624	-0,128	-0,178
-568,875	312,413	0,071	0,099
-567,861	800,000	-0,029	-0,083
-566,846	-200,000	-0,000	0,022
-565,831	11,539	-0,098	0,056
-564,817	384,809	0,072	0,110
-563,802	800,000	0,046	-0,137
-562,788	-200,000	0,017	-0,088
-561,773	800,000	-0,025	-0,052
-560,758	-91,400	0,012	-0,003
-559,744	323,695	0,102	0,144
-558,729	209,570	-0,058	-0,067
-557,715	-200,000	-0,003	0,030
-556,700	-200,000	-0,021	-0,125
-555,685	284,657	0,045	-0,060
-554,671	-83,128	0,110	0,026
-553,656	-200,000	-0,036	0,144
-552,642	800,000	0,029	0,067
-551,627	-200,000	-0,015	0,273
-550,612	-130,807	0,065	-0,006
-549,598	-125,155	-0,034	-0,004
-548,583	-200,000	-0,004	-0,027
-547,569	-28,383	0,130	0,055
-546,554	32,114	0,031	0,020
-545,539	-200,000	0,012	-0,060
-544,525	-200,000	-0,019	0,071
-543,510	-200,000	-0,015	-0,069
-542,496	61,022	0,060	-0,044
-541,481	4,983	-0,062	-0,034
-540,466	-200,000	-0,016	-0,068
-539,452	-94,244	0,020	0,004
-538,437	-200,000	0,020	0,089
-537,423	625,203	0,064	0,119
-536,408	-43,621	-0,020	-0,008
-535,393	-48,558	-0,077	0,027
-534,379	98,489	0,100	-0,086
-533,364	800,000	-0,030	0,071
-532,350	-200,000	-0,006	0,113
-531,335	19,057	-0,082	0,049
-530,321	-38,560	-0,077	0,030
-529,306	435,039	0,029	0,047
-528,291	143,654	-0,045	0,044
-527,277	70,451	0,083	-0,063
-526,262	-27,585	-0,060	0,026
-525,248	-200,000	0,005	0,038
-524,233	554,471	0,019	0,034
-523,218	77,528	-0,135	-0,106
-522,204	255,024	-0,090	-0,114
-521,189	436,901	0,027	0,043
-520,175	800,000	-0,028	-0,082
-519,160	297,591	-0,083	-0,113
-518,145	-181,806	-0,080	-0,001
-517,131	223,686	-0,060	0,071
-516,116	-52,331	0,170	0,058
-515,102	64,553	0,099	-0,074
-514,087	-200,000	0,029	-0,117
-513,072	-18,440	-0,077	-0,035
-512,058	-200,000	-0,027	-0,206
-511,043	521,647	-0,065	-0,113
-510,029	-65,175	0,058	-0,017
-509,014	800,000	-0,063	0,195
-507,999	10,939	-0,023	-0,013
-506,985	-62,597	0,105	0,032
-505,970	-200,000	-0,008	-0,055
-504,956	85,545	0,025	0,020
-503,941	-21,713	-0,050	-0,022
-502,926	158,870	0,002	-0,002
-501,912	-108,396	0,102	0,016
-500,897	345,211	-0,068	-0,099
-499,883	217,157	-0,082	-0,097
-498,868	80,603	-0,046	0,036
-497,853	-77,285	-0,041	0,010
-496,839	800,000	0,038	0,123
-495,824	84,389	-0,041	-0,033
-494,810	-200,000	-0,038	0,165
-493,795	-91,497	-0,042	0,009
-492,781	213,459	-0,064	0,074
-491,766	-90,079	0,125	0,027
-490,751	586,068	0,056	0,101
-489,737	800,000	-0,052	-0,111
-488,722	-45,609	0,105	-0,038
-487,708	62,144	0,141	0,103
-486,693	246,088	-0,081	-0,101
-485,678	800,000	0,046	-0,137
-484,664	39,395	-0,099	-0,065
-483,649	-50,668	-0,025	0,009
-482,635	619,294	0,005	0,009
-481,620	212,293	0,048	0,056
-480,605	-200,000	0,004	0,110
-479,591	800,000	0,032	-0,078
-478,576	689,407	0,020	-0,038
-477,562	64,116	-0,108	-0,080
-476,547	2,376	-0,157	-0,083
-475,532	-200,000	0,001	0,022
-474,518	223,462	0,063	0,075
-473,503	-200,000	-0,007	0,099
-472,489	313,289	0,072	0,099
-471,474	-127,845	-0,131	0,014
-470,459	-142,767	-0,155	0,011
-469,445	45,279	-0,117	-0,079
-468,430	-47,268	0,060	-0,021
-467,416	800,000	0,038	0,092
-466,401	533,001	0,060	0,105
-465,386	85,655	-0,018	0,015
-464,372	36,028	-0,039	0,025
-463,357	-2,575	-0,100	-0,052
-462,343	-200,000	0,025	-0,101
-461,328	800,000	0,049	-0,104
-460,313	268,452	0,026	0,034
-459,299	132,865	0,030	-0,028
-458,284	-37,637	0,101	0,039
-457,270	800,000	-0,033	0,090
-456,255	75,347	-0,079	-0,062
-455,241	190,589	-0,031	-0,034
-454,226	100,336	0,129	-0,110
-453,211	125,422	0,030	0,028
-452,197	72,312	0,063	0,048
-451,182	15,413	-0,062	-0,036
-450,168	-200,000	-0,000	-0,060
-449,153	-200,000	0,024	-0,104
-448,138	-65,285	-0,025	0,007
-447,124	40,919	-0,043	-0,029
-446,109	2,861	0,067	0,036
-445,095	-150,198	0,160	0,009
-444,080	-118,004	0,105	0,014
-443,065	134,427	-0,090	0,086
-442,051	20,500	-0,106	0,063
-441,036	-41,736	0,045	0,017
-440,022	210,315	-0,059	-0,069
-439,007	-134,847	-0,054	0,005
-437,992	-111,965	0,073	-0,011
-436,978	-200,000	0,010	0,125
-435,963	45,791	0,082	-0,055
-434,949	101,968	-0,086	0,074
-433,934	-3,676	-0,103	0,052
-432,919	148,271	0,065	0,064
-431,905	-144,473	-0,022	0,001
-430,890	2,723	0,137	-0,073
-429,876	-200,000	0,024	0,091
-428,861	304,076	0,048	-0,066
-427,846	233,687	-0,046	0,056
-426,832	519,634	-0,075	-0,129
-425,817	-200,000	-0,004	-0,024
-424,803	800,000	-0,081	0,172
-423,788	-4,144	0,147	-0,074
-422,773	-200,000	-0,000	0,033
-421,759	-200,000	-0,004	-0,032
-420,744	-200,000	-0,012	0,043
-419,730	97,024	0,064	-0,054
-418,715	800,000	0,023	-0,065
-417,701	-200,000	-0,014	-0,080
-416,686	-93,234	0,091	0,018
-415,671	-34,104	0,024	0,009
-414,657	-169,833	0,092	-0,002
-413,642	35,924	0,018	-0,012
-412,628	54,480	-0,030	-0,021
-411,613	-132,985	0,017	-0,002
-410,598	-108,969	-0,148	-0,023
-409,584	211,047	0,106	-0,123
-408,569	-154,668	0,060	0,003
-407,555	-200,000	-0,010	0,237
-406,540	663,272	-0,054	0,103
-405,525	-88,133	-0,111	0,024
-404,511	-183,204	0,101	0,001
-403,496	800,000	-0,021	-0,062
-402,482	-194,839	0,042	-0,000
-401,467	-200,000	0,003	0,094
-400,452	54,500	0,146	0,103
-399,438	304,295	-0,086	0,117
-398,423	-67,722	0,059	0,017
-397,409	-200,000	0,002	0,029
-396,394	-200,000	-0,026	-0,237
-395,379	188,894	-0,095	-0,105
-394,365	-74,551	-0,039	-0,010
-393,350	47,250	-0,015	-0,010
-392,336	-200,000	0,004	0,012
-391,321	408,854	0,073	-0,114
-390,306	146,467	0,095	-0,094
-389,292	800,000	-0,027	-0,068
-388,277	-29,328	0,046	0,019
-387,263	-128,095	0,145	0,015
-386,248	-134,325	0,100	-0,009
-385,233	75,200	0,181	0,140
-384,219	800,000	0,057	-0,180
-383,204	-113,767	0,069	-0,010
-382,190	333,770	0,023	-0,032
-381,175	33,237	0,081	0,051
-380,160	-16,655	0,093	0,043
-379,146	-98,205	0,037	0,007
-378,131	656,630	-0,013	0,025
-377,117	50,231	-0,115	0,079
-376,102	800,000	-0,033	0,102
-375,088	39,577	0,094	-0,061
-374,073	481,704	-0,068	0,114
-373,058	800,000	0,006	0,015
-372,044	-200,000	-0,009	0,039
-371,029	106,928	0,082	0,072
-370,015	309,987	-0,029	-0,040
-369,000	-53,389	0,048	-0,016
-367,985	-200,000	-0,011	-0,039
-366,971	10,689	-0,031	-0,017
-365,956	437,015	-0,043	0,070
-364,942	800,000	-0,041	-0,084
-363,927	82,089	0,128	0,102
-362,912	-9,941	-0,066	0,032
-361,898	-92,151	-0,097	-0,020
-360,883	445,022	-0,080	-0,129
-359,869	-72,938	-0,137	0,037
-358,854	-200,000	-0,027	0,102
-357,839	-200,000	0,020	0,075
-356,825	-200,000	0,002	-0,104
-355,810	182,883	-0,028	-0,030
-354,796	565,917	-0,064	0,115
-353,781	800,000	0,027	-0,081
-352,766	228,073	-0,115	-0,138
-351,752	69,128	0,058	-0,043
-350,737	-200,000	-0,012	0,113
-349,723	-7,353	0,129	0,064
-348,708	-139,296	-0,069	-0,005
-347,693	-73,401	0,087	0,023
-346,679	405,994	0,026	-0,040
-345,664	102,069	0,032	-0,027
-344,650	434,212	0,055	-0,089
-343,635	800,000	0,043	-0,100
-342,620	-97,934	0,130	0,024
-341,606	219,311	0,040	0,047
-340,591	291,098	0,017	0,023
-339,577	356,806	-0,033	0,049
-338,562	174,142	-0,060	0,064
-337,548	172,789	0,035	-0,037
-336,533	176,035	-0,110	-0,117
-335,518	-6,845	-0,118	0,059
-334,504	800,000	0,010	0,031
-333,489	800,000	0,040	0,118
-332,475	303,551	-0,031	-0,043
-331,460	-3,043	-0,124	0,063
-330,445	726,714	-0,047	-0,093
-329,431	77,375	-0,037	-0,029
-328,416	-108,247	0,087	0,014
-327,402	61,256	0,048	0,035
-326,387	-200,000	0,032	0,113
-325,372	-200,000	-0,011	-0,064
-324,358	800,000	-0,090	-0,225
-323,343	-200,000	-0,007	0,128
-322,329	-200,000	0,013	0,082
-321,314	-76,291	0,040	-0,010
-320,299	197,035	0,084	0,093
-319,285	-200,000	0,001	0,082
-318,270	322,996	-0,056	0,078
-317,256	-148,912	-0,043	-0,003
-316,241	-119,000	-0,072	-0,009
-315,226	148,915	0,041	-0,041
-314,212	295,438	-0,005	0,007
-313,197	-200,000	0,014	0,139
-312,183	-67,998	-0,090	0,026
-311,168	-117,856	0,033	0,004
-310,153	-141,071	-0,145	-0,011
-309,139	9,013	0,037	0,020
-308,124	4,476	-0,055	0,030
-307,110	-95,743	-0,069	-0,013
-306,095	-12,011	0,158	0,075
-305,080	-3,899	-0,116	0,059
-304,066	-99,818	0,094	-0,017
-303,051	-195,293	-0,180	0,001
-302,037	49,126	-0,041	0,028
-301,022	800,000	0,017	0,048
-300,008	800,000	0,039	0,094
-298,993	-73,455	0,127	-0,034
-297,978	68,357	0,096	-0,072
-296,964	-90,990	-0,065	0,014
-295,949	22,678	0,045	-0,027
-294,935	800,000	-0,011	-0,030
-293,920	506,572	-0,033	-0,056
-292,905	654,910	0,039	-0,074
-291,891	-185,130	0,120	-0,001
-290,876	-30,052	-0,159	0,066
-289,862	-10,567	-0,051	-0,025
-288,847	-200,000	0,014	-0,077
-287,832	800,000	-0,052	-0,106
-286,818	800,000	0,027	0,073
-285,803	-100,841	0,114	-0,020
-284,789	11,855	-0,082	0,046
-283,774	257,651	0,064	-0,081
-282,759	-81,981	-0,012	-0,003
-281,745	-93,702	0,033	-0,007
-280,730	-145,351	-0,020	-0,001
-279,716	-200,000	-0,007	-0,069
-278,701	-110,825	0,092	0,014
-277,686	79,465	0,054	-0,042
-276,672	-200,000	0,004	-0,077
-275,657	-152,437	0,022	0,001
-274,643	79,521	-0,110	-0,087
-273,628	800,000	0,007	-0,019
-272,613	622,354	-0,059	0,109
-271,599	-55,353	0,015	0,005
-270,584	800,000	0,021	-0,051
-269,570	60,570	0,070	-0,050
-268,555	-15,051	0,126	0,059
-267,540	-42,818	-0,033	0,012
-266,526	800,000	0,009	0,026
-265,511	-140,850	0,057	-0,004
-264,497	373,621	0,086	-0,128
-263,482	-32,431	-0,044	-0,018
-262,467	800,000	0,077	0,167
-261,453	-200,000	-0,008	0,056
-260,438	800,000	-0,025	0,077
-259,424	-18,292	-0,087	-0,040
-258,409	20,090	0,093	0,055
-257,395	-106,035	0,082	0,013
-256,380	-200,000	0,038	0,157
-255,365	456,006	-0,065	-0,106
-254,351	-200,000	-0,008	-0,033
-253,336	-200,000	0,014	0,067
-252,322	-14,935	-0,016	0,007
-251,307	-81,373	0,112	-0,027
-250,292	800,000	-0,051	0,120
-249,278	44,859	0,090	0,060
-248,263	0,704	0,092	0,048
-247,249	-62,254	0,155	-0,047
-246,234	-87,571	-0,062	-0,014
-245,219	341,638	-0,072	-0,104
-244,205	800,000	0,042	-0,095
-243,190	-190,258	-0,171	-0,001
-242,176	115,909	0,088	0,079
-241,161	-200,000	0,032	-0,120
-240,146	82,689	-0,052	-0,041
-239,132	800,000	-0,022	0,067
-238,117	-200,000	-0,007	-0,031
-237,103	74,773	0,039	-0,030
-236,088	146,598	0,039	0,039
-235,073	34,120	0,085	0,054
-234,059	-9,876	-0,037	-0,018
-233,044	-200,000	-0,002	-0,009
-232,030	186,764	-0,035	-0,038
-231,015	404,739	0,021	-0,033
-230,000	800,000	-0,012	-0,025
-228,986	495,836	0,014	-0,024
-227,971	-69,548	0,096	0,027
-226,957	217,453	0,121	0,141
-225,942	-200,000	0,004	0,154
-224,927	91,208	-0,117	-0,096
-223,913	-111,077	-0,192	-0,028
-222,898	37,697	0,028	0,018
-221,884	-116,288	0,073	-0,010
-220,869	285,027	0,084	0,111
-219,855	-44,969	0,046	-0,017
-218,840	142,861	0,074	-0,072
-217,825	-200,000	-0,019	0,078
-216,811	-54,522	-0,089	0,029
-215,796	-6,240	-0,068	0,034
-214,782	46,390	-0,033	-0,022
-213,767	-155,314	-0,028	-0,001
-212,752	800,000	-0,094	0,249
-211,738	800,000	0,044	0,110
-210,723	-200,000	0,005	-0,108
-209,709	155,491	-0,108	-0,108
-208,694	-200,000	0,021	-0,073
-207,679	-99,888	-0,073	0,013
-206,665	-33,405	-0,025	-0,010
-205,650	800,000	0,043	0,099
-204,636	544,601	-0,041	0,073
-203,621	-141,515	0,053	0,004
-202,606	-73,427	0,025	-0,007
-201,592	416,428	-0,057	0,088
-200,577	-25,079	-0,117	-0,050
-199,563	769,564	-0,035	0,070
-198,548	-200,000	0,006	0,044
-197,533	-200,000	0,020	0,066
-196,519	-200,000	-0,043	0,159
-195,504	-200,000	-0,019	0,097
-194,490	-200,000	0,030	-0,214
-193,475	-200,000	0,007	-0,178
-192,460	463,757	0,025	-0,041
-191,446	-200,000	0,065	0,000
-190,431	-60,732	0,151	0,046
-189,417	-88,733	-0,121	-0,026
-188,402	513,472	0,043	-0,073
-187,387	800,000	0,021	-0,048
-186,373	6,035	-0,094	-0,051
-185,358	-191,854	-0,034	-0,000
-184,344	800,000	0,023	-0,053
-183,329	200,045	0,020	0,022
-182,315	-21,137	0,021	-0,009
-181,300	-175,561	0,107	-0,002
-180,285	123,911	0,097	-0,089
-179,271	-200,000	-0,019	-0,205
-178,256	-200,000	-0,013	0,109
-177,242	-200,000	-0,030	-0,105
-176,227	-10,712	-0,031	-0,015
-175,212	-200,000	0,037	0,119
-174,198	-200,000	0,002	0,035
-173,183	-200,000	-0,005	-0,161
-172,169	218,916	0,097	0,113
-171,154	-200,000	-0,026	-0,106
-170,139	-108,549	0,182	0,028
-169,125	-84,800	0,047	0,011
-168,110	145,648	-0,012	-0,012
-167,096	-200,000	0,006	-0,136
-166,081	-200,000	-0,013	0,072
-165,066	-158,533	-0,141	0,006
-164,052	-33,503	0,086	0,034
-163,037	136,498	0,062	-0,059
-162,023	665,811	-0,089	0,168
-161,008	800,000	0,034	0,079
-159,993	58,842	-0,059	0,042
-158,979	658,163	-0,046	-0,087
-157,964	292,544	-0,014	-0,018
-156,950	800,000	-0,036	-0,097
-155,935	-200,000	0,043	0,209
-154,920	287,108	-0,085	0,112
-153,906	-162,642	-0,070	0,002
-152,891	19,483	0,025	-0,015
-151,877	-14,726	-0,086	0,040
-150,862	-200,000	-0,014	0,089
-149,847	-119,203	0,057	-0,007
-148,833	800,000	0,007	0,016
-147,818	49,897	0,038	-0,026
-146,804	198,241	0,070	0,078
-145,789	-200,000	-0,010	-0,083
-144,775	111,710	0,083	-0,073
-143,760	800,000	0,018	0,039
-142,745	307,835	0,047	-0,064
-141,731	-200,000	-0,021	-0,075
-140,716	-200,000	0,008	-0,064
-139,702	538,431	0,021	0,036
-138,687	-200,000	-0,011	0,098
-137,672	98,830	-0,106	0,089
-136,658	699,627	-0,084	-0,161
-135,643	-90,142	-0,048	0,010
-134,629	-13,509	-0,129	0,060
-133,614	349,911	0,036	0,052
-132,599	96,884	-0,115	0,096
-131,585	-121,558	0,082	-0,010
-130,570	196,401	-0,010	-0,011
-129,556	-69,838	0,008	0,002
-128,541	297,830	0,056	-0,075
-127,526	-200,000	0,076	0,000
-126,512	26,675	0,089	-0,054
-125,497	-21,916	-0,066	-0,029
-124,483	-76,074	0,116	-0,030
-123,468	195,889	-0,082	0,091
-122,453	-200,000	-0,025	0,132
-121,439	800,000	-0,020	0,050
-120,424	-200,000	0,019	0,092
-119,410	-172,483	-0,065	0,001
-118,395	-157,173	0,059	0,003
-117,380	197,050	0,045	0,050
-116,366	-200,000	-0,014	0,054
-115,351	-200,000	-0,006	0,138
-114,337	-134,108	-0,046	0,004
-113,322	-8,463	0,021	-0,010
-112,307	170,496	0,163	0,170
-111,293	-92,088	0,202	-0,041
-110,278	-98,993	0,080	0,015
-109,264	800,000	-0,011	0,029
-108,249	39,020	0,141	-0,092
-107,234	201,643	0,054	-0,061
-106,220	-88,056	-0,046	-0,010
-105,205	1,509	0,018	-0,009
-104,191	800,000	0,047	-0,143
-103,176	172,305	0,051	0,054
-102,162	-33,356	0,031	0,013
-101,147	471,171	0,042	0,069
-100,132	57,937	-0,009	-0,006
-99,118	0,292	0,123	-0,064
-98,103	-43,004	-0,097	-0,036
-97,089	486,303	-0,017	-0,029
-96,074	-125,343	-0,114	0,013
-95,059	-177,103	-0,039	-0,001
-94,045	-200,000	0,025	-0,120
-93,030	247,533	0,022	0,027
-92,016	-200,000	0,009	-0,051
-91,001	316,715	0,108	-0,148
-89,986	164,323	0,091	0,093
-88,972	-94,560	0,145	-0,028
-87,957	-108,533	0,047	0,007
-86,943	-36,530	-0,110	0,043
-85,928	-200,000	-0,010	-0,051
-84,913	372,151	-0,061	-0,091
-83,899	49,590	0,049	-0,033
-82,884	-200,000	-0,007	-0,129
-81,870	-158,618	0,039	0,002
-80,855	155,449	0,078	0,078
-79,840	-55,285	0,089	-0,029
-78,826	-200,000	-0,001	0,046
-77,811	-200,000	-0,024	-0,104
-76,797	-42,678	0,078	-0,029
-75,782	-200,000	0,013	0,102
-74,767	-200,000	-0,006	0,310
-73,753	800,000	0,045	0,122
-72,738	115,248	-0,084	0,074
-71,724	-108,183	-0,107	-0,017
-70,709	-200,000	0,002	0,046
-69,694	63,358	-0,085	0,062
-68,680	21,911	0,052	0,031
-67,665	6,242	0,019	0,010
-66,651	465,223	-0,024	0,040
-65,636	6,399	0,023	-0,012
-64,622	277,565	-0,039	-0,051
-63,607	328,104	-0,064	-0,089
-62,592	800,000	-0,035	-0,113
-61,578	261,645	0,069	-0,086
-60,563	800,000	-0,015	-0,045
-59,549	-73,595	0,097	0,026
-58,534	-95,750	-1,239	0,238
-57,519	447,155	-0,977	-1,563
-56,505	-200,000	-0,720	-4,197
-55,490	23,818	0,678	-0,404
-54,476	800,000	4,785	11,555
-53,461	-200,000	12,335	233,136
-52,446	-200,000	680,823	2213,920
-51,432	591,314	1623,613	2916,558
-50,417	126,740	1644,638	1510,389
-49,403	80,833	1301,223	1016,353
-48,388	41,964	1034,965	679,293
-47,373	26,112	991,643	598,446
-46,359	25,209	981,631	589,399
-45,344	24,420	977,302	584,179
-44,330	24,306	975,894	582,938
-43,315	24,297	974,363	581,972
-42,300	24,171	973,350	580,931
-41,286	24,229	972,389	580,522
-40,271	24,207	971,388	579,832
-39,257	24,171	970,435	579,122
-38,242	24,217	969,528	578,707
-37,227	24,276	968,785	578,434
-36,213	24,212	967,844	577,639
-35,198	24,189	966,942	577,002
-34,184	24,210	966,372	576,708
-33,169	24,139	965,284	575,805
-32,154	24,197	964,466	575,482
-31,140	24,226	963,371	574,903
-30,125	24,233	962,732	574,519
-29,111	24,244	961,703	573,918
-28,096	24,213	961,060	573,411
-27,082	24,263	960,486	573,209
-26,067	24,254	959,731	572,704
-25,052	24,224	959,012	572,155
-24,038	24,194	958,395	571,670
-23,023	24,196	957,595	571,176
-22,009	24,237	957,024	570,946
-20,994	24,277	956,349	570,648
-19,979	24,210	955,676	570,009
-18,965	24,214	955,104	569,658
-17,950	24,215	954,360	569,196
-16,936	24,171	953,731	568,654
-15,921	24,179	952,802	568,105
-14,906	24,120	952,176	567,520
-13,892	24,082	951,720	567,105
-12,877	24,057	951,177	566,676
-11,863	24,100	950,382	566,318
-10,848	24,057	949,796	565,809
-9,833	24,258	949,158	566,050
-8,819	24,099	948,961	565,401
-7,804	24,120	948,062	564,912
-6,790	24,067	947,520	564,398
-5,775	24,197	946,864	564,398
-4,760	24,062	946,408	563,674
-3,746	24,113	945,528	563,287
-2,731	24,012	944,966	562,610
-1,717	23,927	944,169	561,844
-0,702	23,997	943,481	561,634
0,313	23,736	942,992	561,361
1,327	26,209	940,623	567,732
2,342	34,071	820,590	516,830
3,356	30,114	517,590	319,126
4,371	6,040	378,919	202,694
5,386	3,009	361,416	189,558
6,400	1,679	355,177	184,646
7,415	0,555	352,174	181,708
8,429	0,266	350,588	180,526
9,444	0,312	349,669	180,092
10,459	0,276	349,065	179,721
11,473	0,189	348,449	179,284
12,488	0,562	347,913	179,438
13,502	0,489	347,348	179,044
14,517	0,335	346,789	178,556
15,531	-0,005	346,138	177,801
16,546	-0,063	345,759	177,521
17,561	0,017	345,075	177,249
18,575	0,065	344,767	177,132
19,590	-0,127	344,557	176,780
20,604	-0,049	344,224	176,687
21,619	-0,121	343,825	176,381
22,634	-0,015	343,371	176,257
23,648	-0,003	342,998	176,064
24,663	0,012	342,751	175,940
25,677	0,003	342,425	175,746
26,692	-0,029	342,144	175,548
27,707	-0,174	341,865	175,219
28,721	-0,063	341,430	175,110
29,736	-0,064	341,111	174,930
30,750	-0,007	340,927	174,887
31,765	-0,034	340,488	174,615
32,780	-0,157	340,293	174,356
33,794	-0,088	340,166	174,356
34,809	-0,092	339,782	174,139
35,823	-0,084	339,413	173,944
36,838	-0,024	339,148	173,862
37,853	-0,194	338,866	173,504
38,867	0,010	338,503	173,540
39,882	-0,029	338,370	173,411
40,896	-0,102	338,078	173,161
41,911	-0,004	337,654	173,042
42,926	-0,156	337,441	172,742
43,940	-0,037	337,028	172,652
44,955	-0,228	337,056	172,430
45,969	-0,131	336,679	172,334
46,984	-0,344	336,407	171,934
47,999	-0,630	336,082	171,423
49,013	-0,602	335,751	171,270
50,028	-0,696	335,377	170,956
51,042	-0,772	335,106	170,716
52,057	-0,812	334,949	170,575
53,071	-0,766	334,513	170,391
54,086	-0,809	334,400	170,268
55,101	-0,697	334,126	170,242
56,115	-0,529	334,089	170,400
57,130	-0,128	333,833	170,713
58,144	0,012	333,768	170,824
59,159	0,006	333,521	170,676
60,174	0,125	333,063	170,562
61,188	0,160	332,877	170,492
62,203	-0,073	332,810	170,176
63,217	-0,115	332,561	169,986
64,232	-0,063	332,152	169,820
65,247	0,223	331,824	169,963
66,261	0,178	331,556	169,759
67,276	-0,230	331,229	169,115
68,290	-0,482	330,974	168,684
69,305	-0,389	330,702	168,635
70,320	-0,217	330,414	168,668
71,334	-0,150	330,275	168,657
72,349	0,123	330,213	168,919
73,363	0,199	329,871	168,815
74,378	0,087	329,612	168,541
75,393	-0,026	329,391	168,286
76,407	0,102	329,159	168,296
77,422	0,081	328,716	168,032
78,436	0,129	328,771	168,099
79,451	0,069	328,304	167,778
80,466	-0,017	327,978	167,499
81,480	-0,145	327,674	167,186
82,495	-0,384	327,419	166,774
83,509	-0,269	327,251	166,802
84,524	-0,156	326,850	166,709
85,539	-0,230	326,498	166,432
86,553	-0,466	326,416	166,112
87,568	-0,298	326,285	166,217
88,582	-0,173	325,892	166,141
89,597	-0,259	325,737	165,952
90,611	-0,111	325,620	166,043
91,626	-0,007	325,455	166,059
92,641	-0,197	325,176	165,691
93,655	-0,106	324,883	165,627
94,670	-0,162	324,654	165,434
95,684	-0,080	324,316	165,339
96,699	-0,166	324,292	165,216
97,714	-0,256	324,006	164,956
98,728	-0,345	323,777	164,727
99,743	-0,342	323,440	164,543
100,757	-0,372	323,182	164,365
101,772	-0,327	322,841	164,226
102,787	-0,302	322,720	164,177
103,801	-0,136	322,469	164,217
104,816	-0,063	322,391	164,244
105,830	0,069	322,133	164,243
106,845	0,074	321,896	164,113
107,860	-0,087	321,777	163,861
108,874	-0,139	321,506	163,651
109,889	-0,059	321,212	163,574
110,903	-0,007	320,840	163,427
111,918	0,000	320,662	163,329
112,933	-0,155	320,482	163,054
113,947	-0,020	320,455	163,173
114,962	0,060	320,100	163,065
115,976	-0,055	319,851	162,798
116,991	-0,169	319,591	162,527
118,006	0,096	319,383	162,695
119,020	0,085	319,289	162,621
120,035	0,078	319,237	162,572
121,049	0,119	318,920	162,441
122,064	0,043	318,799	162,282
123,079	-0,045	318,364	161,951
124,093	0,021	318,139	161,894
125,108	-0,280	317,858	161,410
126,122	-0,488	317,403	160,940
127,137	-0,455	317,155	160,835
128,151	-0,416	317,110	160,840
129,166	-0,293	316,906	160,856
130,181	-0,422	316,462	160,477
131,195	-0,351	316,238	160,425
132,210	-0,258	316,219	160,501
133,224	-0,119	316,189	160,621
134,239	-0,123	315,945	160,479
135,254	-0,024	315,770	160,482
136,268	-0,215	315,397	160,073
137,283	-0,449	314,973	159,593
138,297	-0,412	314,638	159,449
139,312	-0,500	314,462	159,251
140,327	-0,227	314,399	159,497
141,341	0,152	314,313	159,844
142,356	0,248	314,034	159,790
143,370	0,271	314,024	159,795
144,385	0,344	313,709	159,699
145,400	0,166	313,554	159,416
146,414	0,196	313,230	159,269
147,429	0,269	313,118	159,276
148,443	0,414	312,882	159,296
149,458	0,306	312,752	159,100
150,473	0,446	312,516	159,115
151,487	0,306	312,355	158,870
152,502	0,286	311,833	158,569
153,516	0,231	311,849	158,505
154,531	0,260	311,574	158,381
155,546	0,328	311,333	158,318
156,560	0,298	311,065	158,135
157,575	0,007	311,015	157,788
158,589	0,057	310,771	157,702
159,604	0,300	310,437	157,775
160,619	0,110	310,490	157,588
161,633	0,273	309,997	157,496
162,648	0,322	309,890	157,478
163,662	0,289	309,719	157,343
164,677	0,436	309,541	157,393
165,692	0,238	309,495	157,148
166,706	0,333	309,153	157,059
167,721	0,151	308,890	156,721
168,735	0,283	308,610	156,703
169,750	0,385	308,584	156,782
170,764	0,391	308,430	156,697
171,779	0,504	308,202	156,684
172,794	0,468	308,104	156,583
173,808	0,163	307,684	156,038
174,823	0,040	307,145	155,623
175,837	-0,354	307,153	155,203
176,852	-0,019	307,068	155,495
177,867	0,385	306,975	155,854
178,881	0,390	306,897	155,805
179,896	0,455	306,622	155,720
180,910	0,327	306,304	155,412
181,925	0,529	306,101	155,503
182,940	0,365	306,030	155,284
183,954	0,428	305,702	155,169
184,969	0,201	305,555	154,846
185,983	0,255	305,421	154,820
186,998	0,242	305,144	154,652
188,013	0,416	304,874	154,681
189,027	0,491	304,745	154,679
190,042	0,397	304,457	154,422
191,056	0,530	304,261	154,446
192,071	0,661	304,060	154,465
193,086	0,682	303,997	154,441
194,100	0,650	303,709	154,248
195,115	0,663	303,464	154,123
196,129	0,366	303,344	153,744
197,144	0,473	303,053	153,692
198,159	0,475	302,962	153,635
199,173	0,434	302,785	153,489
200,188	0,621	302,647	153,597
201,202	0,224	302,334	153,018
202,217	0,029	301,650	152,460
203,232	-0,187	301,494	152,147
204,246	0,200	301,568	152,565
205,261	0,377	301,359	152,626
206,275	0,486	301,175	152,630
207,290	0,465	300,949	152,481
208,304	0,470	300,792	152,392
209,319	0,558	300,495	152,318
210,334	0,510	300,459	152,238
211,348	0,360	300,201	151,941
212,363	0,531	299,884	151,940
213,377	0,511	299,877	151,903
214,392	0,480	299,730	151,783
215,407	0,409	299,359	151,510
216,421	0,053	299,017	150,965
217,436	0,127	298,945	150,989
218,450	0,243	298,745	150,992
219,465	0,322	298,656	151,013
220,480	0,356	298,505	150,958
221,494	0,336	298,233	150,786
222,509	0,420	298,051	150,765
223,523	0,338	297,875	150,581
224,538	0,423	297,758	150,593
225,553	0,574	297,674	150,688
226,567	0,659	297,261	150,551
227,582	0,508	297,221	150,367
228,596	0,455	297,185	150,282
229,611	0,663	296,816	150,290
230,626	0,447	296,798	150,051
231,640	0,108	296,328	149,461
232,655	-0,376	295,915	148,757
233,669	-0,439	295,778	148,612
234,684	-0,209	295,478	148,678
235,699	-0,337	295,442	148,518
236,713	0,053	295,215	148,779
237,728	0,097	295,041	148,722
238,742	0,167	294,942	148,729
239,757	0,382	294,717	148,815
240,772	0,520	294,633	148,896
241,786	0,442	294,460	148,718
242,801	0,237	294,050	148,295
243,815	0,216	294,025	148,248
244,830	0,181	293,869	148,121
245,844	-0,011	293,714	147,841
246,859	0,250	293,370	147,912
247,874	0,135	293,200	147,699
248,888	0,204	293,086	147,697
249,903	0,523	292,894	147,902
250,917	0,478	292,829	147,811
251,932	0,696	292,745	147,970
252,947	1,342	292,898	148,671
253,961	1,620	292,713	148,837
254,976	2,058	292,735	149,266
255,990	3,355	293,000	150,665
257,005	3,829	292,927	151,079
258,020	4,488	293,190	151,850
259,034	4,403	292,849	151,576
260,049	4,206	292,634	151,258
261,063	4,093	292,446	151,037
262,078	4,344	292,550	151,323
263,093	4,854	292,486	151,777
264,107	4,766	292,274	151,567
265,122	4,975	292,064	151,649
266,136	5,182	291,971	151,790
267,151	4,972	291,746	151,453
268,166	4,906	291,395	151,193
269,180	4,678	291,323	150,920
270,195	4,804	290,977	150,851
271,209	4,702	291,026	150,763
272,224	4,716	290,591	150,538
273,239	4,672	290,347	150,355
274,253	4,608	290,243	150,226
275,268	4,877	290,319	150,513
276,282	4,616	290,159	150,163
277,297	4,974	289,923	150,375
278,312	5,202	289,830	150,535
279,326	5,020	289,526	150,187
280,341	4,812	289,229	149,818
281,355	4,736	288,933	149,578
282,370	4,574	288,769	149,323
283,384	4,433	288,599	149,085
284,399	4,668	288,409	149,201
285,414	4,773	288,296	149,231
286,428	4,524	288,014	148,831
287,443	4,376	287,770	148,550
288,457	4,484	287,479	148,490
289,472	4,313	287,469	148,307
290,487	4,274	287,284	148,161
291,501	4,415	286,956	148,114
292,516	4,188	286,663	147,732
293,530	4,092	286,566	147,577
294,545	4,430	286,619	147,915
295,560	4,541	286,451	147,921
296,574	4,096	285,977	147,238
297,589	4,265	286,027	147,412
298,603	4,702	285,949	147,776
299,618	4,716	285,748	147,673
300,633	4,538	285,465	147,343
301,647	4,603	285,307	147,311
302,662	4,645	285,129	147,246
303,676	4,397	284,758	146,805
304,691	4,359	284,531	146,639
305,706	3,845	284,535	146,139
306,720	4,269	284,136	146,324
307,735	4,066	283,969	146,032
308,749	4,155	283,879	146,057
309,764	4,402	283,749	146,211
310,779	4,266	283,436	145,909
311,793	4,020	283,317	145,601
312,808	4,171	283,047	145,592
313,822	4,092	282,918	145,438
314,837	4,006	282,735	145,250
315,852	3,953	282,494	145,064
316,866	4,321	282,382	145,340
317,881	4,240	282,078	145,094
318,895	4,083	281,994	144,890
319,910	4,058	281,688	144,697
320,925	3,889	281,669	144,515
321,939	4,297	281,396	144,745
322,954	4,312	281,390	144,743
323,968	4,330	281,146	144,621
324,983	4,369	281,064	144,603
325,997	4,334	280,912	144,480
327,012	4,432	280,762	144,481
328,027	4,515	280,402	144,360
329,041	4,458	280,207	144,194
330,056	4,443	280,191	144,159
331,070	4,449	280,004	144,055
332,085	4,211	279,838	143,735
333,100	4,349	279,591	143,724
334,114	4,315	279,333	143,546
335,129	4,229	279,194	143,383
336,143	4,558	279,020	143,587
337,158	4,651	278,935	143,616
338,173	4,454	278,671	143,285
339,187	4,197	278,604	142,999
340,202	4,338	278,447	143,037
341,216	4,534	278,093	143,023
342,231	4,341	278,144	142,858
343,246	4,392	277,798	142,715
344,260	4,369	277,636	142,597
345,275	4,448	277,584	142,631
346,289	4,681	277,596	142,840
347,304	4,896	277,318	142,882
348,319	4,456	277,119	142,362
349,333	4,200	276,940	142,021
350,348	4,815	276,686	142,444
351,362	4,713	276,585	142,285
352,377	4,580	276,429	142,070
353,392	4,788	276,114	142,087
354,406	4,802	276,099	142,080
355,421	192,772	1335,057	1417,743
356,435	155,879	1464,207	1417,911
