DTS Sentinel unit serial number:	SN410029Multiplexer serial number:	ORYXHardware model number:	OX2-SRSoftware version number:	ORYX F/W v4,00 Oryx Data Collector v3.7.2.0data status	okinstallation	B4 Nyhavnadifferential loss correction	single-endedforward channel	channel 2reverse channel	N/Adate	2023/12/19time	00:10:13forward acquisition time	300,00reverse acquisition time	0,00gamma	499,1914k internal	0,3123k external	0,3123temperature offset calibration	1,0000default loss term (dB/km)	0,3820temperature slope calibration	1,0000multiplexer offset coefficient	1,0000multiplexer slope coefficient	1,0000fibre end	0,00T internal ref (°C)	22,22T ext. ref 1 (°C)	7,05T ext. ref 2 (°C)	7,08length (m)	temperature (°C)	Stokes	anti-Stokes-744,400	-200,000	0,012	-0,082
-743,385	-20,880	-0,278	0,126
-742,371	-200,000	-0,006	-0,188
-741,356	23,390	-0,206	0,126
-740,342	-105,177	0,208	0,035
-739,327	5,720	-0,229	0,126
-738,312	-200,000	0,009	-0,114
-737,298	44,479	-0,249	0,170
-736,283	24,205	0,064	0,039
-735,269	33,918	-0,164	0,106
-734,254	-200,000	0,006	0,070
-733,239	-118,124	-0,326	0,043
-732,225	169,107	0,059	0,063
-731,210	-109,900	0,051	-0,008
-730,196	-200,000	-0,012	-0,118
-729,181	-20,379	0,091	-0,042
-728,167	-200,000	-0,002	0,016
-727,152	180,729	0,045	-0,049
-726,137	800,000	-0,059	0,133
-725,123	31,601	-0,050	0,032
-724,108	-200,000	-0,010	-0,034
-723,094	704,999	0,059	-0,117
-722,079	-82,290	-0,087	-0,021
-721,064	272,230	0,116	-0,153
-720,050	-200,000	-0,016	-0,146
-719,035	-21,277	0,109	-0,049
-718,021	208,993	-0,052	-0,061
-717,006	459,542	-0,081	-0,134
-715,991	800,000	-0,016	-0,037
-714,977	276,904	-0,024	0,032
-713,962	800,000	-0,021	0,044
-712,948	19,131	-0,097	0,058
-711,933	333,734	-0,115	-0,166
-710,918	-200,000	0,001	-0,025
-709,904	800,000	0,035	-0,080
-708,889	-142,538	-0,089	0,006
-707,875	800,000	-0,056	-0,157
-706,860	329,534	-0,063	-0,091
-705,845	231,369	-0,008	0,010
-704,831	1,524	-0,143	0,076
-703,816	-167,923	-0,094	-0,003
-702,802	180,264	-0,047	0,051
-701,787	-200,000	0,023	-0,100
-700,772	-70,941	-0,020	0,006
-699,758	242,954	-0,022	-0,028
-698,743	-116,730	0,007	0,001
-697,729	172,432	0,035	0,037
-696,714	-57,706	0,056	0,018
-695,699	800,000	-0,035	0,110
-694,685	39,973	-0,063	0,042
-693,670	-200,000	-0,007	0,061
-692,656	-59,591	0,163	0,052
-691,641	606,017	0,028	-0,052
-690,627	224,472	-0,042	0,051
-689,612	-200,000	0,034	0,119
-688,597	-8,656	0,078	-0,039
-687,583	379,767	-0,042	-0,064
-686,568	800,000	-0,025	-0,064
-685,554	-111,133	0,067	-0,010
-684,539	-79,490	0,015	-0,004
-683,524	106,836	0,057	-0,050
-682,510	-50,058	-0,029	0,010
-681,495	41,175	-0,056	-0,038
-680,481	96,600	-0,106	-0,090
-679,466	-36,974	-0,112	-0,045
-678,451	-200,000	0,011	-0,093
-677,437	-174,096	-0,041	0,001
-676,422	69,065	0,066	-0,051
-675,408	-63,019	0,123	0,038
-674,393	-200,000	-0,035	0,146
-673,378	604,979	-0,041	0,076
-672,364	89,869	-0,087	-0,072
-671,349	554,818	-0,018	-0,032
-670,335	147,294	-0,045	-0,046
-669,320	-200,000	0,018	0,070
-668,305	153,256	0,015	0,015
-667,291	-42,753	-0,090	0,034
-666,276	67,145	-0,091	-0,069
-665,262	-200,000	-0,049	0,170
-664,247	318,797	0,005	0,007
-663,232	107,946	0,053	-0,047
-662,218	-29,760	0,103	0,044
-661,203	-200,000	-0,005	0,027
-660,189	-200,000	-0,011	-0,053
-659,174	800,000	-0,042	0,097
-658,159	713,550	-0,072	-0,142
-657,145	-69,859	-0,124	0,035
-656,130	-50,779	0,107	0,037
-655,116	-48,379	0,061	0,022
-654,101	-54,494	0,125	-0,042
-653,086	800,000	-0,038	0,094
-652,072	0,038	-0,021	0,011
-651,057	-76,791	0,023	-0,006
-650,043	800,000	0,015	-0,043
-649,028	-5,743	0,040	0,020
-648,014	800,000	-0,007	0,016
-646,999	-23,373	-0,082	-0,036
-645,984	320,750	0,047	0,067
-644,970	63,320	-0,038	0,029
-643,955	189,684	-0,115	0,128
-642,941	-98,517	-0,075	0,014
-641,926	-200,000	-0,005	0,134
-640,911	-200,000	-0,015	-0,072
-639,897	-147,248	0,057	-0,004
-638,882	-145,729	0,106	0,007
-637,868	-95,851	0,114	-0,022
-636,853	-82,215	-0,061	0,015
-635,838	-15,811	-0,095	-0,045
-634,824	-200,000	0,012	0,066
-633,809	800,000	0,060	0,137
-632,795	140,064	0,061	0,060
-631,780	-34,892	-0,103	0,041
-630,765	-8,742	-0,123	0,061
-629,751	-200,000	-0,044	-0,170
-628,736	24,636	-0,116	-0,071
-627,722	516,823	0,068	0,119
-626,707	-82,270	0,091	0,022
-625,692	-200,000	-0,023	-0,077
-624,678	-200,000	-0,007	-0,045
-623,663	-156,047	0,088	-0,004
-622,649	-200,000	-0,009	-0,112
-621,634	-200,000	-0,023	0,086
-620,619	-200,000	-0,000	-0,060
-619,605	235,503	-0,056	-0,068
-618,590	354,502	-0,036	-0,054
-617,576	-142,976	0,080	0,006
-616,561	460,677	-0,045	-0,074
-615,546	800,000	0,026	-0,059
-614,532	-138,729	-0,107	0,009
-613,517	78,647	-0,098	-0,077
-612,503	394,033	-0,048	0,074
-611,488	-118,079	0,100	-0,013
-610,474	-164,853	0,096	-0,003
-609,459	-88,633	0,038	0,008
-608,444	721,774	0,048	0,095
-607,430	-117,245	-0,209	-0,028
-606,415	-200,000	-0,005	-0,069
-605,401	9,351	0,088	-0,049
-604,386	-25,828	0,093	-0,040
-603,371	14,212	0,109	-0,063
-602,357	-3,589	0,068	0,035
-601,342	153,013	0,050	-0,051
-600,328	-146,554	0,073	0,005
-599,313	-66,090	-0,060	-0,018
-598,298	44,050	0,055	-0,037
-597,284	-168,009	-0,075	-0,002
-596,269	0,421	0,083	-0,044
-595,255	9,090	0,146	0,082
-594,240	-58,097	-0,131	-0,042
-593,225	38,303	-0,052	-0,034
-592,211	-127,514	-0,008	0,001
-591,196	-200,000	-0,016	0,098
-590,182	741,291	0,030	-0,061
-589,167	-95,118	0,060	0,012
-588,152	-200,000	0,017	0,082
-587,138	69,084	-0,120	-0,092
-586,123	758,189	-0,038	-0,078
-585,109	168,992	-0,044	-0,046
-584,094	133,305	-0,100	-0,096
-583,079	800,000	0,025	-0,080
-582,065	-174,747	-0,052	-0,001
-581,050	-200,000	0,019	0,102
-580,036	231,351	0,043	-0,053
-579,021	457,590	0,035	-0,057
-578,006	-14,568	-0,065	0,031
-576,992	-75,846	0,122	0,032
-575,977	-200,000	-0,010	0,094
-574,963	-200,000	-0,001	-0,024
-573,948	437,185	-0,062	0,101
-572,934	151,678	-0,058	0,059
-571,919	140,358	-0,073	-0,072
-570,904	-130,601	-0,072	-0,007
-569,890	800,000	-0,057	-0,118
-568,875	548,644	0,020	0,036
-567,861	-35,343	-0,112	-0,045
-566,846	-145,260	-0,035	-0,002
-565,831	123,352	0,033	0,030
-564,817	-90,654	-0,084	0,018
-563,802	0,331	-0,094	-0,050
-562,788	451,041	-0,016	-0,026
-561,773	76,601	0,124	-0,097
-560,758	255,367	0,044	0,056
-559,744	-89,719	-0,077	0,017
-558,729	700,678	-0,052	-0,102
-557,715	290,252	-0,112	-0,151
-556,700	566,051	-0,059	-0,106
-555,685	800,000	-0,037	-0,077
-554,671	-38,337	0,069	-0,027
-553,656	236,574	-0,074	0,091
-552,642	-19,548	0,025	0,011
-551,627	800,000	-0,023	-0,072
-550,612	-99,883	0,051	0,009
-549,598	-5,267	0,063	-0,032
-548,583	549,064	0,055	0,098
-547,569	-200,000	0,021	-0,125
-546,554	48,092	0,021	-0,015
-545,539	515,292	0,045	-0,079
-544,525	122,164	0,065	0,060
-543,510	15,146	0,059	-0,034
-542,496	-108,262	-0,104	0,016
-541,481	-200,000	0,002	-0,069
-540,466	-152,484	0,080	-0,004
-539,452	360,495	0,079	0,117
-538,437	679,041	0,018	-0,035
-537,423	-7,358	-0,145	-0,072
-536,408	-200,000	-0,020	0,135
-535,393	-141,870	0,043	-0,003
-534,379	178,896	-0,065	-0,070
-533,364	-22,948	-0,090	0,040
-532,350	28,279	-0,047	-0,030
-531,335	776,087	-0,060	0,122
-530,321	218,416	0,012	-0,015
-529,306	-200,000	0,002	0,057
-528,291	47,677	-0,098	-0,067
-527,277	-112,605	-0,036	0,005
-526,262	800,000	0,041	0,092
-525,248	115,627	0,156	0,141
-524,233	47,870	0,098	-0,067
-523,218	-85,084	-0,064	-0,015
-522,204	-200,000	0,001	0,082
-521,189	364,013	-0,064	0,095
-520,175	-66,455	-0,161	-0,047
-519,160	800,000	0,007	-0,019
-518,145	-79,449	0,148	-0,037
-517,131	-23,709	0,052	0,023
-516,116	131,383	0,020	-0,019
-515,102	800,000	-0,041	-0,097
-514,087	-200,000	0,012	-0,055
-513,072	800,000	-0,085	-0,211
-512,058	117,985	-0,037	0,034
-511,043	800,000	0,028	-0,060
-510,029	86,812	0,049	0,040
-509,014	64,014	0,048	-0,035
-507,999	-111,891	0,120	-0,018
-506,985	211,633	-0,159	-0,185
-505,970	-5,478	-0,037	0,019
-504,956	693,332	0,029	0,057
-503,941	215,565	-0,060	-0,070
-502,926	-22,757	0,051	-0,023
-501,912	800,000	0,021	0,056
-500,897	-200,000	0,005	0,164
-499,883	-200,000	0,027	-0,119
-498,868	-200,000	-0,008	-0,130
-497,853	-19,063	-0,024	0,011
-496,839	372,786	0,067	0,101
-495,824	14,932	0,070	-0,040
-494,810	800,000	-0,048	0,112
-493,795	74,694	0,105	0,082
-492,781	207,903	0,069	0,080
-491,766	110,934	-0,114	-0,101
-490,751	-135,634	-0,079	-0,007
-489,737	203,413	0,078	-0,089
-488,722	25,835	0,047	-0,029
-487,708	-200,000	0,032	0,191
-486,693	-200,000	-0,004	0,143
-485,678	162,939	-0,090	0,094
-484,664	110,652	-0,091	0,081
-483,649	-8,797	0,032	0,016
-482,635	-70,959	-0,124	-0,034
-481,620	800,000	0,077	0,176
-480,605	437,687	-0,053	0,085
-479,591	-12,188	-0,069	0,033
-478,576	-200,000	-0,015	0,060
-477,562	800,000	-0,026	-0,056
-476,547	56,425	-0,111	0,080
-475,532	33,871	0,048	0,031
-474,518	-32,040	0,019	-0,008
-473,503	-83,049	-0,080	-0,019
-472,489	623,980	0,043	-0,080
-471,474	47,612	-0,060	-0,041
-470,459	61,144	-0,049	-0,036
-469,445	-99,091	0,099	-0,018
-468,430	125,296	-0,071	0,066
-467,416	-200,000	-0,017	0,076
-466,401	-37,330	0,083	0,033
-465,386	800,000	0,028	0,070
-464,372	165,939	-0,048	0,051
-463,357	-200,000	-0,012	0,043
-462,343	-200,000	-0,031	-0,136
-461,328	-47,939	-0,097	0,034
-460,313	-200,000	0,003	0,094
-459,299	11,818	0,133	0,075
-458,284	-200,000	0,009	0,090
-457,270	4,495	-0,066	-0,036
-456,255	-37,173	0,064	-0,025
-455,241	-33,643	-0,119	-0,048
-454,226	142,681	0,053	-0,052
-453,211	25,042	0,032	0,020
-452,197	63,044	0,069	0,051
-451,182	-35,110	-0,066	-0,026
-450,168	-48,027	0,073	0,026
-449,153	136,583	-0,107	-0,103
-448,138	800,000	-0,052	-0,109
-447,124	-200,000	0,026	-0,115
-446,109	-200,000	0,008	-0,094
-445,095	83,833	0,074	0,059
-444,080	-17,283	0,091	-0,042
-443,065	-84,158	-0,093	-0,022
-442,051	340,667	-0,097	0,139
-441,036	-157,045	0,030	0,001
-440,022	-200,000	-0,027	0,130
-439,007	767,586	-0,044	-0,088
-437,992	25,415	0,080	-0,049
-436,978	-30,711	-0,046	-0,019
-435,963	-33,387	-0,069	-0,028
-434,949	97,720	-0,091	0,077
-433,934	31,024	0,087	-0,055
-432,919	68,903	-0,039	-0,030
-431,905	-200,000	-0,014	-0,097
-430,890	76,383	-0,103	0,080
-429,876	-200,000	0,007	0,071
-428,861	800,000	0,054	0,140
-427,846	-38,442	-0,106	0,041
-426,832	776,719	-0,006	0,012
-425,817	-17,898	-0,089	-0,041
-424,803	-52,099	0,079	0,027
-423,788	-106,415	0,072	-0,012
-422,773	-27,256	-0,107	0,046
-421,759	24,662	0,077	-0,047
-420,744	-200,000	-0,008	-0,097
-419,730	800,000	-0,049	-0,122
-418,715	-50,715	-0,150	-0,052
-417,701	-200,000	0,004	0,084
-416,686	-56,912	0,129	0,042
-415,671	-200,000	-0,003	0,019
-414,657	688,113	-0,022	0,043
-413,642	263,057	-0,060	0,077
-412,628	-61,177	-0,143	0,044
-411,613	-175,374	-0,137	0,003
-410,598	-200,000	-0,004	-0,112
-409,584	-41,343	0,107	0,040
-408,569	800,000	0,023	0,075
-407,555	-30,836	0,080	-0,033
-406,540	-200,000	-0,002	-0,011
-405,525	-60,014	0,075	-0,024
-404,511	-146,434	0,066	0,004
-403,496	-200,000	-0,012	0,057
-402,482	-200,000	0,017	0,171
-401,467	-24,854	-0,102	0,044
-400,452	-144,270	0,173	0,012
-399,438	374,499	0,052	0,078
-398,423	79,600	-0,079	-0,063
-397,409	157,970	0,048	-0,049
-396,394	733,496	-0,022	-0,044
-395,379	-200,000	-0,048	-0,173
-394,365	-5,902	0,067	0,034
-393,350	24,184	-0,016	-0,010
-392,336	-200,000	0,006	0,090
-391,321	-176,967	-0,119	-0,002
-390,306	54,541	-0,096	0,068
-389,292	-41,607	0,133	0,050
-388,277	-200,000	0,000	0,014
-387,263	-63,979	0,117	-0,035
-386,248	800,000	-0,040	0,106
-385,233	28,977	0,035	0,022
-384,219	-173,910	0,110	-0,002
-383,204	-200,000	0,028	-0,137
-382,190	-29,248	-0,036	-0,015
-381,175	404,868	0,040	-0,062
-380,160	306,274	-0,064	0,088
-379,146	246,478	0,085	0,105
-378,131	-50,430	0,093	-0,032
-377,117	-157,552	0,052	-0,002
-376,102	800,000	-0,018	-0,047
-375,088	-132,516	-0,109	0,010
-374,073	-200,000	-0,071	-0,000
-373,058	224,926	0,035	-0,042
-372,044	-154,675	0,091	0,004
-371,029	-200,000	0,023	0,164
-370,015	-43,876	-0,052	-0,019
-369,000	-200,000	-0,014	-0,092
-367,985	-200,000	-0,040	-0,168
-366,971	-200,000	-0,010	-0,157
-365,956	70,193	0,055	0,041
-364,942	800,000	-0,014	-0,033
-363,927	-102,493	0,191	-0,033
-362,912	503,394	0,045	0,076
-361,898	23,917	0,040	-0,024
-360,883	-68,278	0,235	0,067
-359,869	94,293	-0,036	-0,030
-358,854	3,938	0,014	-0,007
-357,839	-200,000	-0,001	-0,086
-356,825	360,277	0,046	-0,068
-355,810	-200,000	0,022	-0,152
-354,796	-153,941	0,127	0,006
-353,781	-53,653	-0,178	-0,059
-352,766	20,986	-0,045	-0,027
-351,752	-141,587	-0,051	0,004
-350,737	-38,635	0,160	0,062
-349,723	213,690	-0,026	-0,031
-348,708	-10,059	0,112	-0,055
-347,693	369,153	-0,089	0,132
-346,679	-200,000	-0,013	-0,148
-345,664	-26,830	0,053	0,022
-344,650	64,798	-0,079	0,059
-343,635	209,756	0,071	-0,081
-342,620	455,289	0,053	-0,087
-341,606	-163,163	-0,057	0,002
-340,591	159,235	-0,060	-0,061
-339,577	800,000	-0,006	0,017
-338,562	-200,000	0,016	-0,154
-337,548	44,145	0,113	-0,076
-336,533	22,704	0,077	-0,046
-335,518	237,277	0,059	0,071
-334,504	-111,612	-0,056	0,008
-333,489	-200,000	0,003	0,073
-332,475	-46,632	0,048	0,017
-331,460	800,000	0,012	-0,035
-330,445	-200,000	0,010	0,084
-329,431	-81,059	0,039	-0,009
-328,416	369,469	0,028	0,042
-327,402	-200,000	0,013	0,079
-326,387	-200,000	-0,020	0,072
-325,372	-200,000	-0,007	-0,124
-324,358	-200,000	-0,031	-0,112
-323,343	-57,446	0,116	-0,037
-322,329	800,000	-0,038	0,094
-321,314	12,971	-0,048	-0,027
-320,299	110,795	0,045	-0,040
-319,285	-200,000	0,009	0,121
-318,270	-200,000	0,018	-0,063
-317,256	330,929	-0,050	0,071
-316,241	-36,814	0,145	0,057
-315,226	800,000	-0,040	-0,085
-314,212	130,061	0,117	0,110
-313,197	139,302	0,023	0,022
-312,183	800,000	0,019	-0,046
-311,168	-57,432	0,067	0,021
-310,153	-83,751	-0,026	-0,006
-309,139	50,589	0,039	-0,027
-308,124	293,339	0,015	-0,020
-307,110	-102,803	0,126	0,022
-306,095	677,887	0,047	-0,089
-305,080	152,288	-0,029	0,029
-304,066	-73,646	-0,015	-0,004
-303,051	142,718	-0,032	0,032
-302,037	-200,000	-0,007	-0,047
-301,022	-200,000	-0,012	0,083
-300,008	-149,396	0,071	-0,004
-298,993	160,275	0,032	-0,033
-297,978	505,413	-0,065	-0,110
-296,964	-160,762	-0,061	-0,002
-295,949	-23,543	-0,091	0,040
-294,935	214,034	-0,071	0,082
-293,920	656,222	0,087	0,165
-292,905	235,234	0,043	-0,052
-291,891	-200,000	-0,007	0,036
-290,876	71,308	-0,094	0,072
-289,862	-200,000	-0,016	-0,180
-288,847	449,354	-0,078	-0,126
-287,832	74,869	-0,058	0,045
-286,818	7,187	-0,014	0,008
-285,803	38,835	0,036	-0,024
-284,789	-18,738	0,027	-0,012
-283,774	269,337	-0,011	-0,014
-282,759	176,655	0,052	0,055
-281,745	342,430	0,078	0,112
-280,730	15,460	-0,042	0,024
-279,716	-30,161	0,082	0,034
-278,701	800,000	-0,016	0,048
-277,686	-200,000	0,053	0,251
-276,672	-200,000	0,004	0,044
-275,657	-42,260	-0,111	-0,041
-274,643	-200,000	0,027	-0,147
-273,628	39,440	0,128	0,084
-272,613	26,058	-0,050	0,030
-271,599	-200,000	-0,025	0,139
-270,584	-200,000	-0,005	0,074
-269,570	-41,062	0,115	0,043
-268,555	-73,055	0,012	0,003
-267,540	-0,333	0,054	0,028
-266,526	486,104	-0,036	0,061
-265,511	95,365	-0,005	0,004
-264,497	-102,427	0,047	-0,008
-263,482	-181,604	0,171	-0,002
-262,467	800,000	0,056	0,170
-261,453	800,000	-0,045	0,099
-260,438	-118,807	0,111	-0,014
-259,424	129,605	-0,057	-0,053
-258,409	-200,000	0,017	-0,090
-257,395	143,920	-0,045	-0,044
-256,380	-48,520	0,030	-0,011
-255,365	-121,691	0,083	0,010
-254,351	58,481	0,151	-0,108
-253,336	92,888	0,080	-0,066
-252,322	-200,000	0,003	-0,048
-251,307	-87,383	-0,195	0,043
-250,292	-17,624	0,116	0,053
-249,278	-111,837	0,125	-0,018
-248,263	-200,000	-0,004	-0,089
-247,249	-200,000	-0,000	-0,031
-246,234	-200,000	-0,014	-0,102
-245,219	26,548	-0,139	-0,085
-244,205	184,996	0,111	-0,120
-243,190	-188,054	-0,070	-0,001
-242,176	322,714	-0,050	0,070
-241,161	268,572	0,030	0,038
-240,146	24,637	-0,194	0,117
-239,132	800,000	-0,021	0,049
-238,117	800,000	-0,086	-0,202
-237,103	135,816	-0,106	-0,101
-236,088	800,000	0,036	0,082
-235,073	569,498	0,076	-0,135
-234,059	798,219	0,021	-0,043
-233,044	-200,000	-0,038	0,137
-232,030	-78,124	-0,031	-0,008
-231,015	-125,897	-0,058	0,006
-230,000	-4,567	0,045	-0,022
-228,986	295,739	0,042	0,057
-227,971	-200,000	-0,018	0,061
-226,957	53,241	0,064	0,045
-225,942	-34,024	-0,017	-0,007
-224,927	418,847	0,071	0,112
-223,913	196,897	-0,092	-0,103
-222,898	51,425	0,011	-0,008
-221,884	-185,144	0,162	-0,002
-220,869	-54,096	-0,091	0,030
-219,855	-200,000	0,002	-0,090
-218,840	-200,000	-0,017	0,129
-217,825	-0,626	-0,099	-0,051
-216,811	-151,526	-0,083	-0,004
-215,796	110,867	-0,050	0,044
-214,782	-6,537	0,035	0,017
-213,767	-125,993	0,117	-0,013
-212,752	506,117	0,060	0,102
-211,738	-152,833	-0,097	-0,005
-210,723	-200,000	-0,011	0,071
-209,709	67,438	-0,091	0,068
-208,694	-14,400	-0,038	-0,018
-207,679	-115,330	-0,049	-0,007
-206,665	-165,047	0,109	0,003
-205,650	-11,426	0,043	0,021
-204,636	-200,000	-0,006	-0,101
-203,621	220,907	0,048	-0,056
-202,606	800,000	0,031	0,070
-201,592	-200,000	-0,030	-0,118
-200,577	-58,540	-0,044	0,014
-199,563	-40,984	-0,035	-0,013
-198,548	-131,230	0,079	0,008
-197,533	-200,000	-0,001	-0,010
-196,519	800,000	0,034	0,074
-195,504	-16,935	0,110	-0,051
-194,490	-200,000	0,000	0,010
-193,475	-115,856	-0,113	-0,015
-192,460	87,447	-0,056	0,046
-191,446	-200,000	0,039	0,155
-190,431	-200,000	-0,018	0,178
-189,417	-71,733	0,098	0,027
-188,402	800,000	-0,027	-0,069
-187,387	-200,000	0,029	-0,097
-186,373	465,089	-0,063	0,103
-185,358	128,732	-0,062	-0,058
-184,344	-113,077	0,151	0,021
-183,329	316,239	-0,094	-0,130
-182,315	-200,000	-0,019	0,075
-181,300	443,860	-0,061	-0,097
-180,285	-94,641	-0,015	-0,003
-179,271	158,181	0,067	0,068
-178,256	800,000	-0,011	-0,031
-177,242	-200,000	-0,004	0,082
-176,227	-200,000	0,007	-0,034
-175,212	-76,121	0,145	-0,037
-174,198	89,024	-0,041	0,033
-173,183	-189,971	-0,086	0,001
-172,169	-81,967	-0,183	0,043
-171,154	-200,000	0,013	0,072
-170,139	96,833	-0,075	0,063
-169,125	-6,148	0,023	-0,011
-168,110	586,730	0,075	-0,135
-167,096	800,000	-0,041	-0,090
-166,081	-200,000	-0,012	-0,120
-165,066	800,000	-0,040	0,092
-164,052	40,483	-0,012	0,008
-163,037	800,000	0,049	0,108
-162,023	-200,000	-0,025	0,084
-161,008	-200,000	-0,000	0,027
-159,993	82,799	-0,012	0,010
-158,979	153,657	-0,076	0,076
-157,964	-200,000	-0,022	-0,148
-156,950	-200,000	-0,001	-0,044
-155,935	43,919	-0,040	-0,027
-154,920	38,924	0,074	0,048
-153,906	-75,559	-0,119	-0,031
-152,891	800,000	0,030	-0,065
-151,877	-117,180	0,138	-0,018
-150,862	-60,199	-0,089	-0,027
-149,847	800,000	-0,012	0,032
-148,833	-200,000	-0,012	0,127
-147,818	130,535	0,023	0,021
-146,804	217,410	-0,032	0,037
-145,789	36,101	-0,065	0,041
-144,775	-200,000	-0,009	-0,061
-143,760	-200,000	0,009	-0,096
-142,745	-130,271	0,077	-0,008
-141,731	-200,000	0,022	0,072
-140,716	198,675	0,077	0,086
-139,702	335,010	0,076	0,108
-138,687	-200,000	-0,010	0,076
-137,672	-200,000	-0,042	0,155
-136,658	-200,000	0,094	0,000
-135,643	800,000	-0,055	-0,148
-134,629	-42,629	-0,077	0,029
-133,614	34,185	0,072	-0,046
-132,599	-76,091	0,024	-0,006
-131,585	376,264	0,041	0,061
-130,570	504,787	-0,101	0,172
-129,556	5,314	-0,090	-0,048
-128,541	-111,492	-0,107	0,016
-127,526	406,803	0,036	-0,056
-126,512	92,798	0,032	-0,026
-125,497	-200,000	-0,002	0,024
-124,483	800,000	0,037	0,094
-123,468	-200,000	0,005	0,081
-122,453	-79,042	0,043	-0,011
-121,439	192,022	0,051	0,056
-120,424	-200,000	0,004	-0,052
-119,410	-14,988	-0,112	-0,052
-118,395	-200,000	-0,012	0,086
-117,380	60,876	0,036	-0,026
-116,366	329,232	0,047	-0,066
-115,351	155,600	0,180	0,180
-114,337	26,902	-0,086	0,052
-113,322	-50,936	-0,100	-0,034
-112,307	-95,709	0,108	-0,021
-111,293	800,000	0,091	0,184
-110,278	-200,000	-0,001	-0,024
-109,264	-90,609	-0,116	-0,024
-108,249	137,197	-0,076	-0,073
-107,234	-200,000	0,027	-0,171
-106,220	75,966	-0,147	0,113
-105,205	-19,721	-0,053	-0,024
-104,191	-66,388	0,076	0,022
-103,176	-65,108	0,114	0,033
-102,162	0,798	-0,151	-0,079
-101,147	800,000	-0,018	-0,054
-100,132	417,971	-0,035	0,055
-99,118	163,506	-0,055	-0,056
-98,103	-7,253	0,082	-0,040
-97,089	-200,000	-0,009	0,088
-96,074	-75,333	0,102	-0,026
-95,059	-200,000	-0,010	0,127
-94,045	-200,000	0,005	0,063
-93,030	196,999	-0,072	0,080
-92,016	800,000	0,008	-0,019
-91,001	-69,630	0,090	0,025
-89,986	260,515	0,074	0,094
-88,972	385,492	0,066	0,100
-87,957	159,259	0,017	-0,017
-86,943	-200,000	0,010	-0,152
-85,928	154,694	-0,047	-0,047
-84,913	622,497	0,048	0,089
-83,899	27,045	-0,030	0,018
-82,884	-200,000	0,032	0,109
-81,870	232,330	0,108	0,129
-80,855	-200,000	0,009	0,056
-79,840	-200,000	0,027	-0,138
-78,826	-86,997	0,143	0,031
-77,811	366,929	-0,098	-0,144
-76,797	-67,168	-0,096	0,027
-75,782	61,119	-0,077	0,056
-74,767	-200,000	-0,037	0,175
-73,753	-95,105	-0,158	-0,031
-72,738	800,000	-0,016	0,046
-71,724	571,641	0,050	0,088
-70,709	-86,676	-0,068	-0,015
-69,694	-15,556	-0,035	-0,016
-68,680	-58,186	-0,094	0,030
-67,665	30,919	0,110	0,068
-66,651	88,780	0,073	0,059
-65,636	-137,587	-0,070	0,006
-64,622	-2,781	-0,109	-0,055
-63,607	-200,000	-0,003	-0,028
-62,592	-200,000	0,002	0,060
-61,578	192,185	0,140	0,153
-60,563	-52,476	0,031	0,010
-59,549	-152,790	-0,106	-0,005
-58,534	-116,892	-1,358	-0,178
-57,519	668,808	-0,893	-1,683
-56,505	-200,000	-0,797	-4,390
-55,490	-14,149	0,562	-0,262
-54,476	800,000	4,909	11,749
-53,461	-200,000	13,765	252,548
-52,446	-200,000	690,254	2265,813
-51,432	606,812	1621,330	2945,410
-50,417	119,256	1633,107	1466,097
-49,403	74,383	1287,392	980,632
-48,388	37,948	1023,507	658,884
-47,373	24,259	981,572	586,879
-46,359	23,510	971,188	578,193
-45,344	22,419	966,811	571,999
-44,330	22,409	965,399	571,108
-43,315	22,275	963,951	569,791
-42,300	22,271	962,835	569,097
-41,286	22,263	962,018	568,565
-40,271	22,223	961,081	567,858
-39,257	22,271	960,040	567,379
-38,242	22,177	959,251	566,585
-37,227	22,163	958,364	565,991
-36,213	22,245	957,423	565,680
-35,198	22,211	956,436	564,965
-34,184	22,273	955,876	564,810
-33,169	22,167	955,041	563,951
-32,154	22,287	954,054	563,736
-31,140	22,282	953,160	563,168
-30,125	22,255	952,504	562,670
-29,111	22,254	951,554	562,086
-28,096	22,292	950,810	561,745
-27,082	22,302	950,294	561,449
-26,067	22,269	949,411	560,798
-25,052	22,292	948,518	560,325
-24,038	22,256	947,974	559,865
-23,023	22,268	947,358	559,518
-22,009	22,293	946,810	559,250
-20,994	22,236	946,214	558,693
-19,979	22,240	945,608	558,326
-18,965	22,247	944,891	557,905
-17,950	22,225	944,283	557,453
-16,936	22,193	943,526	556,883
-15,921	22,198	943,066	556,603
-14,906	22,200	942,066	555,999
-13,892	22,121	941,602	555,452
-12,877	22,131	941,203	555,227
-11,863	22,102	940,281	554,567
-10,848	22,177	939,674	554,426
-9,833	22,258	939,138	554,345
-8,819	22,219	938,700	553,939
-7,804	22,197	938,059	553,469
-6,790	22,049	937,482	552,639
-5,775	22,138	936,869	552,539
-4,760	22,156	936,331	552,256
-3,746	22,127	935,689	551,762
-2,731	21,975	934,907	550,799
-1,717	21,946	934,276	550,314
-0,702	21,916	933,489	549,735
0,313	21,785	932,939	549,828
1,327	24,316	930,530	556,314
2,342	32,043	808,342	504,194
3,356	26,828	508,207	308,075
4,371	1,833	372,857	194,280
5,386	-1,281	355,659	181,488
6,400	-2,453	349,672	177,005
7,415	-2,972	347,060	175,045
8,429	-2,840	345,546	174,424
9,444	-2,985	344,685	173,801
10,459	-2,952	343,992	173,475
11,473	-2,835	343,331	173,265
12,488	-2,890	342,809	172,921
13,502	-2,899	342,252	172,614
14,517	-2,882	341,829	172,406
15,531	-2,915	341,303	172,086
16,546	-2,626	340,751	172,132
17,561	-2,875	340,524	171,710
18,575	-2,757	340,090	171,614
19,590	-2,862	339,723	171,290
20,604	-2,633	339,350	171,355
21,619	-2,789	338,960	170,961
22,634	-2,755	338,555	170,781
23,648	-2,781	338,109	170,510
24,663	-2,813	337,868	170,336
25,677	-2,909	337,748	170,149
26,692	-2,936	337,296	169,874
27,707	-2,765	336,954	169,886
28,721	-2,732	336,673	169,766
29,736	-2,791	336,498	169,595
30,750	-2,839	336,119	169,333
31,765	-2,733	335,731	169,246
32,780	-2,714	335,416	169,094
33,794	-2,882	335,384	168,869
34,809	-2,784	335,091	168,820
35,823	-2,897	334,702	168,478
36,838	-2,789	334,376	168,424
37,853	-2,834	334,177	168,256
38,867	-2,855	333,912	168,084
39,882	-2,770	333,671	168,044
40,896	-2,818	333,353	167,814
41,911	-2,809	333,069	167,667
42,926	-2,793	332,777	167,524
43,940	-2,853	332,543	167,322
44,955	-2,955	332,239	167,037
45,969	-2,882	332,008	166,990
46,984	-2,897	331,738	166,822
47,999	-2,744	331,575	166,899
49,013	-2,881	331,359	166,620
50,028	-2,915	331,042	166,407
51,042	-2,836	330,716	166,319
52,057	-2,863	330,421	166,125
53,071	-2,906	330,091	165,894
54,086	-2,906	330,006	165,837
55,101	-2,885	329,769	165,727
56,115	-2,856	329,443	165,581
57,130	-2,732	329,066	165,517
58,144	-2,947	328,902	165,177
59,159	-2,688	328,534	165,270
60,174	-2,929	328,342	164,887
61,188	-2,748	328,101	164,954
62,203	-2,857	327,788	164,660
63,217	-2,786	327,590	164,626
64,232	-2,861	327,471	164,467
65,247	-2,902	326,977	164,159
66,261	-2,875	326,766	164,069
67,276	-2,702	326,359	164,043
68,290	-2,759	326,327	163,949
69,305	-2,777	326,033	163,765
70,320	-2,825	325,898	163,630
71,334	-2,792	325,548	163,476
72,349	-2,803	325,191	163,271
73,363	-2,931	325,068	163,052
74,378	-2,874	324,705	162,917
75,393	-2,696	324,486	162,991
76,407	-2,842	324,293	162,718
77,422	-2,850	324,049	162,572
78,436	-2,638	323,685	162,611
79,451	-2,855	323,400	162,212
80,466	-2,719	323,064	162,179
81,480	-2,707	322,957	162,125
82,495	-2,797	322,695	161,879
83,509	-2,864	322,518	161,701
84,524	-2,914	322,514	161,630
85,539	-2,769	321,955	161,495
86,553	-2,855	321,773	161,294
87,568	-2,845	321,454	161,131
88,582	-2,798	321,218	161,051
89,597	-2,941	321,249	160,894
90,611	-2,807	320,809	160,807
91,626	-2,817	320,675	160,715
92,641	-2,707	320,423	160,695
93,655	-2,704	320,070	160,507
94,670	-2,796	320,044	160,379
95,684	-2,776	319,693	160,210
96,699	-2,924	319,550	159,962
97,714	-2,810	319,322	159,959
98,728	-2,745	319,146	159,927
99,743	-2,734	318,929	159,816
100,757	-2,813	318,559	159,531
101,772	-2,841	318,445	159,429
102,787	-2,800	317,992	159,233
103,801	-2,883	317,893	159,078
104,816	-2,786	317,562	159,004
105,830	-2,745	317,463	158,984
106,845	-2,762	317,250	158,845
107,860	-2,745	316,915	158,681
108,874	-2,856	316,799	158,489
109,889	-2,665	316,454	158,509
110,903	-2,767	316,222	158,268
111,918	-2,929	316,120	158,028
112,933	-2,845	315,901	157,995
113,947	-2,788	315,485	157,834
114,962	-2,692	315,403	157,883
115,976	-2,798	315,141	157,624
116,991	-2,972	315,062	157,382
118,006	-3,015	314,768	157,176
119,020	-2,839	314,535	157,235
120,035	-2,909	314,422	157,088
121,049	-2,840	314,127	157,002
122,064	-2,684	313,900	157,041
123,079	-2,838	313,763	156,793
124,093	-2,741	313,371	156,688
125,108	-2,801	313,199	156,523
126,122	-2,768	312,842	156,366
127,137	-2,870	312,901	156,273
128,151	-2,725	312,513	156,220
129,166	-2,833	312,285	155,977
130,181	-2,792	312,107	155,918
131,195	-2,834	311,937	155,774
132,210	-2,699	311,524	155,697
133,224	-2,651	311,155	155,550
134,239	-2,641	311,186	155,562
135,254	-2,840	311,019	155,254
136,268	-2,776	310,789	155,193
137,283	-2,582	310,449	155,215
138,297	-2,768	310,133	154,846
139,312	-2,701	310,006	154,840
140,327	-2,809	309,735	154,576
141,341	-2,742	309,719	154,625
142,356	-2,818	309,405	154,374
143,370	-2,746	309,189	154,329
144,385	-2,738	308,969	154,214
145,400	-2,548	308,731	154,281
146,414	-2,805	308,577	153,921
147,429	-2,622	308,242	153,931
148,443	-2,596	308,105	153,877
149,458	-2,772	308,017	153,635
150,473	-2,622	307,647	153,594
151,487	-2,502	307,450	153,607
152,502	-2,755	307,376	153,292
153,516	-2,764	306,999	153,080
154,531	-2,686	306,816	153,057
155,546	-2,561	306,501	153,017
156,560	-2,767	306,372	152,724
157,575	-2,772	306,162	152,600
158,589	-2,792	306,016	152,493
159,604	-2,703	305,544	152,337
160,619	-2,623	305,417	152,343
161,633	-2,560	305,262	152,317
162,648	-2,714	305,059	152,043
163,662	-2,665	305,025	152,063
164,677	-2,756	304,773	151,830
165,692	-2,780	304,572	151,691
166,706	-2,643	304,280	151,674
167,721	-2,645	304,129	151,584
168,735	-2,572	304,035	151,599
169,750	-2,802	303,791	151,226
170,764	-2,678	303,603	151,246
171,779	-2,782	303,478	151,064
172,794	-2,691	303,280	151,046
173,808	-2,536	302,860	150,983
174,823	-2,822	302,759	150,624
175,837	-2,719	302,525	150,601
176,852	-2,653	302,348	150,566
177,867	-2,657	302,179	150,465
178,881	-2,569	301,868	150,387
179,896	-2,677	301,850	150,253
180,910	-2,585	301,500	150,161
181,925	-2,657	301,329	149,988
182,940	-2,657	301,221	149,921
183,954	-2,576	300,826	149,793
184,969	-2,608	300,687	149,678
185,983	-2,490	300,468	149,676
186,998	-2,542	300,316	149,534
188,013	-2,522	300,125	149,447
189,027	-2,612	299,868	149,213
190,042	-2,648	299,684	149,072
191,056	-2,815	299,438	148,766
192,071	-2,676	299,166	148,759
193,086	-2,767	298,987	148,565
194,100	-2,446	298,762	148,765
195,115	-2,550	298,588	148,560
196,129	-2,610	298,467	148,425
197,144	-2,637	298,235	148,270
198,159	-2,712	297,971	148,049
199,173	-2,643	297,749	147,995
200,188	-2,643	297,488	147,852
201,202	-2,698	297,319	147,700
202,217	-2,646	297,150	147,655
203,232	-2,732	296,925	147,444
204,246	-2,661	296,870	147,475
205,261	-2,471	296,490	147,464
206,275	-2,459	296,253	147,345
207,290	-2,606	296,192	147,154
208,304	-2,750	296,114	146,958
209,319	-2,625	295,784	146,906
210,334	-2,745	295,664	146,712
211,348	-2,652	295,390	146,657
212,363	-2,614	295,173	146,573
213,377	-2,549	294,985	146,532
214,392	-2,693	294,899	146,333
215,407	-2,606	294,478	146,198
216,421	-2,624	294,356	146,106
217,436	-2,663	294,143	145,948
218,450	-2,593	293,928	145,899
219,465	-2,746	293,837	145,688
220,480	-2,662	293,718	145,700
221,494	-2,651	293,609	145,643
222,509	-2,553	293,263	145,557
223,523	-2,583	292,991	145,378
224,538	-2,795	293,054	145,187
225,553	-2,541	292,780	145,289
226,567	-2,504	292,473	145,161
227,582	-2,556	292,277	144,999
228,596	-2,706	292,190	144,795
229,611	-2,638	291,926	144,718
230,626	-2,670	291,756	144,589
231,640	-2,546	291,550	144,596
232,655	-2,768	291,434	144,308
233,669	-2,718	291,204	144,230
234,684	-2,697	290,936	144,105
235,699	-2,720	290,697	143,951
236,713	-2,603	290,564	143,987
237,728	-2,690	290,328	143,772
238,742	-2,660	290,261	143,756
239,757	-2,678	289,862	143,528
240,772	-2,594	289,705	143,519
241,786	-2,725	289,637	143,345
242,801	-2,753	289,445	143,209
243,815	-2,727	289,270	143,135
244,830	-2,725	289,135	143,058
245,844	-2,394	288,848	143,226
246,859	-2,674	288,534	142,784
247,874	-2,676	288,517	142,762
248,888	-2,639	288,256	142,655
249,903	-2,530	288,097	142,670
250,917	-2,772	288,048	142,398
251,932	-2,487	287,732	142,506
252,947	-2,801	287,267	141,959
253,961	-3,337	286,958	141,274
254,976	-3,987	286,610	140,461
255,990	-4,058	286,444	140,298
257,005	-3,058	286,603	141,331
258,020	-0,926	287,443	143,799
259,034	0,765	287,774	145,591
260,049	1,410	287,919	146,277
261,063	1,805	287,685	146,526
262,078	1,889	287,745	146,625
263,093	1,964	287,744	146,684
264,107	2,471	287,629	147,102
265,122	2,810	287,463	147,333
266,136	2,535	287,290	146,965
267,151	2,723	287,058	147,014
268,166	2,803	286,943	147,020
269,180	2,732	286,781	146,855
270,195	2,710	286,569	146,712
271,209	2,657	286,403	146,564
272,224	2,616	286,189	146,400
273,239	2,648	285,995	146,319
274,253	2,482	285,736	146,015
275,268	2,441	285,579	145,882
276,282	2,419	285,326	145,719
277,297	2,317	285,283	145,586
278,312	2,492	285,018	145,606
279,326	2,544	284,865	145,564
280,341	2,607	284,617	145,484
281,355	2,417	284,495	145,228
282,370	2,495	284,297	145,188
283,384	2,345	284,142	144,953
284,399	2,468	283,860	144,913
285,414	2,483	283,703	144,834
286,428	2,382	283,471	144,607
287,443	2,336	283,337	144,482
288,457	2,310	283,153	144,350
289,472	2,457	282,816	144,306
290,487	2,311	282,696	144,092
291,501	2,245	282,526	143,930
292,516	2,157	282,366	143,753
293,530	2,259	282,105	143,704
294,545	2,253	282,009	143,637
295,560	2,201	281,870	143,504
296,574	2,334	281,506	143,431
297,589	2,019	281,434	143,085
298,603	2,152	281,324	143,141
299,618	2,201	281,114	143,068
300,633	2,204	280,858	142,928
301,647	2,394	280,792	143,060
302,662	2,549	280,473	143,031
303,676	2,549	280,357	142,958
304,691	2,511	280,317	142,890
305,706	2,416	280,149	142,703
306,720	2,697	280,061	142,908
307,735	2,537	279,793	142,609
308,749	2,487	279,597	142,450
309,764	2,523	279,440	142,391
310,779	2,421	279,355	142,239
311,793	2,508	278,976	142,114
312,808	2,636	278,800	142,131
313,822	2,583	278,557	141,946
314,837	2,583	278,361	141,834
315,852	2,416	278,356	141,662
316,866	2,660	277,994	141,693
317,881	2,612	277,757	141,514
318,895	2,538	277,761	141,435
319,910	2,441	277,549	141,225
320,925	2,532	277,259	141,149
321,939	2,568	277,181	141,130
322,954	2,559	277,172	141,104
323,968	2,506	277,017	140,964
324,983	2,632	276,743	140,928
325,997	2,575	276,508	140,743
327,012	2,686	276,267	140,710
328,027	2,668	276,120	140,607
329,041	2,615	276,078	140,523
330,056	2,645	275,902	140,449
331,070	2,631	275,643	140,292
332,085	2,543	275,518	140,135
333,100	2,639	275,211	140,055
334,114	2,452	275,100	139,814
335,129	2,590	274,857	139,804
336,143	2,590	274,736	139,731
337,158	2,549	274,512	139,567
338,173	2,582	274,446	139,551
339,187	2,698	274,227	139,533
340,202	2,609	274,067	139,358
341,216	2,756	273,810	139,349
342,231	2,630	273,746	139,189
343,246	2,732	273,505	139,147
344,260	2,731	273,303	139,031
345,275	2,598	273,162	138,826
346,289	2,647	273,102	138,828
347,304	2,438	272,962	138,554
348,319	2,639	272,649	138,565
349,333	2,758	272,534	138,603
350,348	2,607	272,274	138,321
351,362	2,645	272,063	138,236
352,377	2,548	272,109	138,159
353,392	2,727	271,697	138,099
354,406	2,706	271,677	138,058
355,421	192,221	1347,623	1430,819
356,435	155,194	1478,827	1430,953
