DTS Sentinel unit serial number:	SN410029Multiplexer serial number:	ORYXHardware model number:	OX2-SRSoftware version number:	ORYX F/W v4,00 Oryx Data Collector v3.7.2.0data status	okinstallation	B4 Nyhavnadifferential loss correction	single-endedforward channel	channel 2reverse channel	N/Adate	2023/12/15time	19:05:13forward acquisition time	300,00reverse acquisition time	0,00gamma	499,1914k internal	0,3138k external	0,3138temperature offset calibration	1,0000default loss term (dB/km)	0,3820temperature slope calibration	1,0000multiplexer offset coefficient	1,0000multiplexer slope coefficient	1,0000fibre end	0,00T internal ref (°C)	19,61T ext. ref 1 (°C)	5,32T ext. ref 2 (°C)	5,51length (m)	temperature (°C)	Stokes	anti-Stokes-744,400	-181,379	0,076	-0,001
-743,385	-56,608	-0,222	0,073
-742,371	308,998	0,104	0,144
-741,356	99,547	-0,225	0,193
-740,342	-17,830	0,068	0,031
-739,327	11,528	-0,328	0,186
-738,312	-32,918	0,125	0,051
-737,298	-96,886	-0,190	0,037
-736,283	-108,668	0,083	0,013
-735,269	-111,114	-0,326	0,049
-734,254	-148,938	0,114	0,007
-733,239	28,226	-0,411	-0,257
-732,225	97,456	0,090	0,076
-731,210	58,787	0,004	0,003
-730,196	800,000	0,027	-0,088
-729,181	205,185	-0,084	-0,096
-728,167	-200,000	0,013	0,069
-727,152	-45,170	0,119	0,044
-726,137	232,461	0,005	-0,006
-725,123	115,287	-0,133	-0,120
-724,108	800,000	-0,056	-0,160
-723,094	1,345	-0,182	-0,097
-722,079	-44,787	0,146	-0,054
-721,064	90,699	-0,053	-0,044
-720,050	-38,144	0,054	-0,021
-719,035	-200,000	0,017	0,066
-718,021	-123,445	0,073	0,009
-717,006	247,970	-0,089	0,111
-715,991	-200,000	-0,022	0,091
-714,977	601,118	-0,058	-0,107
-713,962	-200,000	-0,011	-0,169
-712,948	-116,922	0,191	0,026
-711,933	-46,098	-0,144	0,052
-710,918	11,664	0,033	0,019
-709,904	-19,683	-0,115	-0,052
-708,889	54,892	-0,151	-0,108
-707,875	-63,825	-0,177	-0,053
-706,860	101,933	0,098	0,085
-705,845	245,667	0,068	0,085
-704,831	-42,576	0,023	-0,009
-703,816	259,717	-0,043	-0,055
-702,802	351,963	-0,040	0,060
-701,787	-200,000	0,021	-0,109
-700,772	-200,000	0,004	-0,057
-699,758	14,875	0,033	0,019
-698,743	-200,000	-0,005	0,042
-697,729	-200,000	-0,002	-0,008
-696,714	-200,000	0,005	0,042
-695,699	-200,000	0,010	0,036
-694,685	54,779	0,119	-0,085
-693,670	800,000	-0,035	-0,079
-692,656	-200,000	0,014	0,054
-691,641	-200,000	-0,007	0,126
-690,627	319,919	0,077	0,109
-689,612	-200,000	0,023	0,118
-688,597	-200,000	-0,000	-0,103
-687,583	572,143	0,034	-0,061
-686,568	-200,000	-0,026	-0,105
-685,554	140,104	0,049	-0,048
-684,539	148,881	0,032	0,032
-683,524	630,758	-0,056	0,106
-682,510	-154,077	-0,076	0,004
-681,495	-96,149	-0,162	-0,032
-680,481	-178,396	-0,060	-0,001
-679,466	-200,000	-0,003	-0,057
-678,451	-164,407	-0,102	-0,003
-677,437	252,485	0,047	0,059
-676,422	-67,725	-0,021	0,006
-675,408	-200,000	-0,004	0,107
-674,393	682,882	-0,056	-0,109
-673,378	-50,282	-0,096	-0,033
-672,364	-84,703	-0,109	0,025
-671,349	-200,000	-0,008	-0,097
-670,335	-200,000	-0,012	-0,103
-669,320	248,568	0,107	0,134
-668,305	309,815	0,083	0,116
-667,291	19,340	-0,098	0,058
-666,276	-65,147	0,066	-0,020
-665,262	215,772	-0,060	-0,071
-664,247	-200,000	-0,006	0,055
-663,232	418,883	-0,047	-0,075
-662,218	4,668	-0,029	-0,015
-661,203	-139,892	-0,127	0,010
-660,189	-129,607	-0,095	0,010
-659,174	-88,665	-0,161	0,035
-658,159	-200,000	0,004	-0,090
-657,145	-4,836	-0,179	0,091
-656,130	-88,625	0,126	0,028
-655,116	-107,805	-0,104	-0,017
-654,101	-200,000	0,034	0,172
-653,086	5,003	-0,222	0,120
-652,072	0,979	-0,029	0,016
-651,057	469,477	-0,086	-0,143
-650,043	-11,219	0,140	0,068
-649,028	-200,000	-0,012	-0,042
-648,014	-172,684	-0,127	0,003
-646,999	-200,000	-0,018	-0,115
-645,984	-200,000	-0,010	0,036
-644,970	-200,000	0,008	0,043
-643,955	-200,000	0,022	-0,169
-642,941	-25,039	-0,176	-0,077
-641,926	29,380	-0,162	-0,102
-640,911	800,000	0,031	-0,078
-639,897	446,496	-0,044	-0,071
-638,882	491,982	0,037	-0,063
-637,868	184,931	0,045	0,049
-636,853	-96,377	-0,039	0,008
-635,838	-147,068	-0,077	0,005
-634,824	-200,000	-0,034	-0,137
-633,809	800,000	-0,089	0,186
-632,795	-18,116	0,153	-0,071
-631,780	-200,000	-0,008	-0,131
-630,765	187,158	-0,104	0,114
-629,751	105,308	0,083	-0,073
-628,736	-200,000	-0,036	-0,230
-627,722	-92,903	0,048	0,010
-626,707	73,499	-0,053	-0,041
-625,692	800,000	-0,019	0,042
-624,678	-200,000	-0,004	-0,013
-623,663	-200,000	0,005	-0,030
-622,649	176,230	-0,051	-0,054
-621,634	-200,000	0,015	-0,080
-620,619	352,356	-0,118	-0,173
-619,605	-170,579	0,089	0,002
-618,590	-19,813	0,042	0,019
-617,576	-123,484	0,064	0,007
-616,561	394,316	0,021	0,032
-615,546	370,703	-0,036	0,054
-614,532	739,934	0,038	-0,076
-613,517	508,022	0,014	-0,025
-612,503	800,000	-0,014	0,043
-611,488	269,125	-0,058	0,075
-610,474	271,640	0,046	0,060
-609,459	800,000	-0,013	-0,040
-608,444	52,462	-0,081	-0,057
-607,430	17,951	-0,151	-0,089
-606,415	-55,873	-0,021	-0,007
-605,401	-200,000	-0,001	0,075
-604,386	56,546	-0,103	-0,074
-603,371	624,621	-0,019	0,035
-602,357	30,243	-0,105	-0,066
-601,342	800,000	-0,045	-0,118
-600,328	800,000	0,029	-0,068
-599,313	92,423	-0,169	-0,141
-598,298	408,848	-0,061	-0,096
-597,284	-104,516	0,053	-0,009
-596,269	-200,000	0,013	-0,067
-595,255	-199,266	0,131	0,000
-594,240	471,130	-0,087	0,145
-593,225	800,000	0,023	-0,048
-592,211	424,283	-0,044	0,070
-591,196	225,071	-0,039	-0,047
-590,182	800,000	0,026	-0,081
-589,167	-200,000	-0,023	0,102
-588,152	268,636	-0,035	0,046
-587,138	-200,000	0,008	-0,145
-586,123	121,199	-0,144	-0,132
-585,109	782,981	0,026	-0,052
-584,094	108,670	-0,038	-0,033
-583,079	-200,000	0,017	0,068
-582,065	762,291	-0,044	0,089
-581,050	-200,000	0,038	0,130
-580,036	338,728	-0,024	-0,035
-579,021	-54,784	-0,069	-0,023
-578,006	-200,000	0,015	-0,117
-576,992	306,239	0,048	-0,066
-575,977	-200,000	-0,008	0,099
-574,963	458,568	-0,031	-0,052
-573,948	-200,000	0,010	0,044
-572,934	-200,000	0,005	0,024
-571,919	-50,299	0,056	0,020
-570,904	429,074	-0,031	0,050
-569,890	233,374	-0,098	0,119
-568,875	-22,321	-0,012	0,005
-567,861	-200,000	0,016	-0,068
-566,846	-200,000	0,003	0,144
-565,831	96,162	0,122	-0,103
-564,817	-200,000	-0,020	-0,125
-563,802	798,167	0,091	-0,186
-562,788	102,876	0,019	-0,017
-561,773	-200,000	-0,013	0,068
-560,758	800,000	0,060	0,123
-559,744	536,392	-0,044	0,077
-558,729	539,033	-0,051	0,089
-557,715	800,000	-0,030	0,063
-556,700	-8,782	-0,025	0,012
-555,685	176,485	-0,072	-0,077
-554,671	-200,000	0,033	0,178
-553,656	127,527	-0,078	0,073
-552,642	184,556	-0,035	-0,038
-551,627	-200,000	0,011	-0,132
-550,612	-200,000	-0,006	-0,043
-549,598	-146,346	-0,070	0,004
-548,583	168,800	-0,132	0,138
-547,569	-136,766	0,076	0,006
-546,554	19,109	-0,056	-0,033
-545,539	800,000	0,065	0,148
-544,525	-200,000	0,001	0,020
-543,510	-200,000	-0,018	-0,068
-542,496	-200,000	-0,011	-0,040
-541,481	180,638	0,052	0,056
-540,466	95,436	0,123	0,103
-539,452	800,000	-0,029	0,088
-538,437	-200,000	0,002	-0,047
-537,423	23,092	-0,123	-0,074
-536,408	257,131	-0,068	-0,087
-535,393	-34,735	0,051	-0,020
-534,379	-139,135	-0,118	-0,009
-533,364	52,734	0,025	0,018
-532,350	175,884	-0,098	0,105
-531,335	273,212	-0,112	0,146
-530,321	360,289	0,060	0,089
-529,306	-83,399	-0,046	0,011
-528,291	11,497	-0,089	0,050
-527,277	-90,543	-0,085	-0,018
-526,262	-25,367	0,082	0,036
-525,248	22,175	0,039	0,024
-524,233	35,863	0,068	0,044
-523,218	155,853	-0,034	0,035
-522,204	136,751	-0,064	0,062
-521,189	-200,000	-0,001	-0,097
-520,175	-57,931	-0,205	0,066
-519,160	122,964	0,107	0,099
-518,145	104,067	0,131	-0,114
-517,131	-200,000	0,009	-0,085
-516,116	800,000	-0,004	0,010
-515,102	82,274	0,074	0,059
-514,087	-10,534	-0,142	-0,069
-513,072	298,441	0,016	0,022
-512,058	355,696	-0,113	-0,166
-511,043	-200,000	0,022	-0,091
-510,029	-33,106	0,127	-0,052
-509,014	26,447	-0,048	-0,029
-507,999	-200,000	0,011	0,037
-506,985	800,000	0,023	0,055
-505,970	328,224	0,042	-0,060
-504,956	-200,000	0,002	-0,069
-503,941	-200,000	0,003	-0,137
-502,926	-88,342	0,105	-0,023
-501,912	43,465	-0,074	0,050
-500,897	-200,000	0,021	-0,162
-499,883	178,852	0,102	-0,110
-498,868	-82,177	-0,086	-0,021
-497,853	-191,537	-0,070	0,000
-496,839	-67,474	-0,149	0,043
-495,824	-111,128	0,043	0,006
-494,810	301,369	0,059	0,080
-493,795	-159,964	-0,067	-0,003
-492,781	536,477	-0,076	-0,133
-491,766	-200,000	-0,013	0,112
-490,751	-200,000	0,045	0,155
-489,737	-200,000	0,007	-0,037
-488,722	-72,108	0,084	0,023
-487,708	-200,000	-0,009	0,047
-486,693	-200,000	-0,012	-0,054
-485,678	-14,588	-0,039	0,019
-484,664	126,994	-0,061	-0,056
-483,649	467,098	0,061	-0,101
-482,635	800,000	-0,061	-0,126
-481,620	318,782	0,037	0,051
-480,605	720,867	0,026	0,051
-479,591	-128,252	0,160	0,017
-478,576	86,317	-0,104	0,084
-477,562	800,000	0,031	0,085
-476,547	470,100	-0,008	-0,013
-475,532	5,832	-0,065	-0,035
-474,518	308,294	0,061	0,084
-473,503	128,735	0,071	-0,066
-472,489	45,640	0,041	-0,028
-471,474	28,992	-0,018	0,011
-470,459	800,000	0,020	-0,048
-469,445	357,810	0,084	-0,123
-468,430	137,692	-0,021	0,020
-467,416	499,829	0,058	0,099
-466,401	-38,053	-0,005	0,002
-465,386	776,240	0,112	0,226
-464,372	800,000	0,010	-0,027
-463,357	-180,666	-0,063	0,001
-462,343	-128,271	-0,070	-0,007
-461,328	199,020	-0,113	-0,127
-460,313	-200,000	0,012	-0,073
-459,299	27,827	0,093	0,057
-458,284	-34,594	0,066	0,026
-457,270	-86,911	0,110	0,024
-456,255	-136,199	-0,130	-0,011
-455,241	-200,000	0,026	-0,097
-454,226	-112,247	0,099	-0,014
-453,211	-84,010	0,135	-0,031
-452,197	-92,293	0,063	0,013
-451,182	417,272	-0,027	0,042
-450,168	800,000	0,016	-0,040
-449,153	88,162	0,072	0,058
-448,138	-200,000	0,019	-0,093
-447,124	-8,656	0,070	-0,034
-446,109	-140,323	0,086	0,006
-445,095	800,000	0,043	0,110
-444,080	-36,178	0,170	0,067
-443,065	-200,000	0,027	0,164
-442,051	486,959	0,028	-0,046
-441,036	-200,000	-0,025	-0,099
-440,022	-200,000	0,000	-0,030
-439,007	-132,863	0,026	0,002
-437,992	-200,000	0,004	-0,014
-436,978	-200,000	0,016	-0,097
-435,963	-195,306	-0,061	-0,000
-434,949	107,691	-0,089	0,078
-433,934	27,113	-0,029	0,018
-432,919	800,000	-0,020	-0,043
-431,905	281,260	-0,057	0,075
-430,890	168,211	0,082	0,085
-429,876	-200,000	0,028	0,099
-428,861	-52,131	0,087	0,030
-427,846	-79,004	-0,086	-0,021
-426,832	-200,000	0,018	-0,062
-425,817	289,771	0,017	-0,023
-424,803	800,000	0,033	-0,105
-423,788	-88,517	0,054	-0,012
-422,773	-200,000	-0,002	-0,012
-421,759	-6,028	0,035	0,017
-420,744	758,697	0,014	0,028
-419,730	-200,000	0,013	-0,143
-418,715	800,000	-0,037	-0,115
-417,701	337,064	0,064	0,091
-416,686	577,684	0,062	-0,112
-415,671	-200,000	-0,026	0,124
-414,657	549,551	-0,020	0,036
-413,642	800,000	0,035	0,075
-412,628	-40,001	0,140	0,053
-411,613	-200,000	-0,014	-0,056
-410,598	-62,088	0,094	0,029
-409,584	32,110	0,042	-0,027
-408,569	800,000	-0,039	0,093
-407,555	92,688	-0,055	0,045
-406,540	-200,000	0,012	-0,164
-405,525	-15,860	-0,080	-0,037
-404,511	-200,000	0,002	-0,006
-403,496	-13,208	-0,120	-0,057
-402,482	-88,749	0,180	-0,039
-401,467	54,189	0,083	0,059
-400,452	-200,000	-0,032	0,124
-399,438	-34,437	-0,087	0,035
-398,423	800,000	-0,029	0,077
-397,409	-147,419	0,081	0,005
-396,394	-42,704	-0,095	0,035
-395,379	-200,000	0,004	0,067
-394,365	101,318	0,111	0,094
-393,350	160,284	0,073	0,075
-392,336	-163,808	0,107	-0,004
-391,321	-67,670	-0,153	0,043
-390,306	-26,037	0,223	0,096
-389,292	-20,114	0,099	-0,044
-388,277	-105,577	0,071	0,012
-387,263	-200,000	-0,021	0,135
-386,248	274,216	0,025	0,033
-385,233	16,744	-0,040	0,023
-384,219	572,921	0,029	0,051
-383,204	-200,000	-0,017	-0,135
-382,190	800,000	-0,048	-0,101
-381,175	25,208	-0,034	0,021
-380,160	-110,537	-0,134	0,020
-379,146	28,584	0,062	0,038
-378,131	-52,788	0,051	0,017
-377,117	36,114	-0,035	-0,022
-376,102	-200,000	0,009	-0,049
-375,088	-200,000	0,008	0,059
-374,073	-18,802	0,111	-0,050
-373,058	9,293	0,016	0,009
-372,044	-200,000	-0,031	0,116
-371,029	334,545	-0,061	0,086
-370,015	-1,740	-0,117	0,060
-369,000	187,164	0,089	-0,097
-367,985	-47,062	0,079	-0,028
-366,971	800,000	0,023	-0,059
-365,956	-200,000	0,014	0,099
-364,942	-93,090	0,018	0,004
-363,927	197,228	0,014	-0,016
-362,912	800,000	-0,011	0,032
-361,898	191,957	0,061	-0,067
-360,883	254,234	-0,031	-0,038
-359,869	-50,915	-0,116	0,040
-358,854	326,384	0,129	0,182
-357,839	59,426	0,168	0,121
-356,825	64,816	0,050	0,037
-355,810	-97,523	0,127	-0,024
-354,796	800,000	-0,044	-0,092
-353,781	35,419	0,050	-0,032
-352,766	50,428	-0,126	-0,087
-351,752	18,872	-0,031	0,018
-350,737	-200,000	0,013	0,051
-349,723	-127,912	-0,038	-0,004
-348,708	189,966	0,089	0,098
-347,693	800,000	-0,041	-0,104
-346,679	217,269	-0,065	-0,076
-345,664	172,286	-0,064	0,068
-344,650	128,270	-0,101	0,094
-343,635	-66,594	0,108	0,031
-342,620	748,565	-0,065	0,128
-341,606	18,919	0,100	-0,059
-340,591	160,260	0,098	-0,100
-339,577	-79,790	-0,139	-0,034
-338,562	160,915	0,059	0,060
-337,548	-115,787	-0,158	-0,021
-336,533	120,934	0,104	0,095
-335,518	-200,000	0,008	0,054
-334,504	800,000	0,032	0,073
-333,489	800,000	0,031	-0,069
-332,475	-178,417	0,072	0,001
-331,460	160,486	-0,043	0,044
-330,445	-200,000	0,050	-0,179
-329,431	-30,853	0,058	-0,024
-328,416	-155,541	0,157	0,007
-327,402	800,000	-0,035	0,072
-326,387	-29,078	-0,080	-0,033
-325,372	145,934	-0,101	-0,099
-324,358	-19,968	0,036	-0,016
-323,343	426,842	-0,017	-0,027
-322,329	800,000	-0,024	0,052
-321,314	150,489	0,063	-0,062
-320,299	381,860	-0,114	0,171
-319,285	-59,612	0,107	-0,033
-318,270	18,618	-0,056	-0,033
-317,256	-63,212	-0,160	-0,048
-316,241	-200,000	0,012	-0,043
-315,226	575,262	-0,019	0,035
-314,212	800,000	0,011	0,033
-313,197	92,860	0,032	-0,027
-312,183	-92,699	0,139	0,028
-311,168	-200,000	-0,032	-0,143
-310,153	-107,576	0,036	0,006
-309,139	185,560	-0,105	-0,114
-308,124	-142,102	0,109	-0,008
-307,110	391,591	-0,127	-0,193
-306,095	-84,691	0,149	0,034
-305,080	641,826	-0,043	0,080
-304,066	800,000	0,045	-0,131
-303,051	-200,000	-0,000	-0,076
-302,037	35,585	0,064	0,041
-301,022	-53,445	0,026	-0,009
-300,008	-200,000	-0,017	0,074
-298,993	800,000	0,058	0,125
-297,978	132,763	0,089	0,084
-296,964	-200,000	-0,027	-0,183
-295,949	-200,000	-0,006	-0,050
-294,935	800,000	0,043	0,136
-293,920	748,968	0,052	-0,103
-292,905	-200,000	0,010	-0,054
-291,891	64,484	0,074	0,054
-290,876	-34,272	0,086	0,034
-289,862	160,897	0,065	-0,067
-288,847	800,000	-0,035	-0,083
-287,832	173,395	0,009	0,010
-286,818	-200,000	0,014	-0,056
-285,803	13,230	0,039	-0,022
-284,789	-62,718	-0,048	-0,015
-283,774	-15,706	0,076	-0,035
-282,759	230,745	-0,080	0,096
-281,745	247,116	-0,053	-0,065
-280,730	800,000	0,058	-0,172
-279,716	-200,000	0,024	-0,104
-278,701	-71,181	0,084	-0,023
-277,686	-200,000	0,000	0,154
-276,672	-128,211	0,095	0,010
-275,657	-85,955	-0,097	0,022
-274,643	3,633	-0,080	-0,042
-273,628	-200,000	-0,026	-0,105
-272,613	48,721	0,083	0,057
-271,599	800,000	0,007	0,017
-270,584	600,883	0,036	0,065
-269,570	800,000	-0,040	0,117
-268,555	36,547	0,030	-0,019
-267,540	337,945	-0,040	-0,056
-266,526	-87,030	-0,076	0,017
-265,511	7,824	-0,019	-0,010
-264,497	-10,540	-0,084	0,041
-263,482	-104,447	-0,098	-0,016
-262,467	253,955	0,013	0,017
-261,453	-2,455	-0,164	0,083
-260,438	57,157	-0,036	0,025
-259,424	652,310	0,042	-0,079
-258,409	-70,745	-0,185	-0,050
-257,395	-164,103	0,118	-0,004
-256,380	235,391	0,095	0,115
-255,365	325,382	0,086	-0,120
-254,351	462,657	-0,098	0,160
-253,336	-200,000	-0,004	0,070
-252,322	234,388	-0,075	-0,090
-251,307	-200,000	0,006	-0,064
-250,292	-28,461	0,097	-0,040
-249,278	196,012	0,032	0,036
-248,263	217,971	0,067	0,077
-247,249	439,175	-0,098	0,157
-246,234	-87,480	-0,085	-0,019
-245,219	171,163	0,023	0,024
-244,205	-47,155	-0,072	0,025
-243,190	1,357	0,052	0,027
-242,176	540,723	0,059	0,102
-241,161	84,687	-0,075	0,060
-240,146	-200,000	-0,006	0,064
-239,132	-200,000	0,015	0,090
-238,117	554,959	0,047	-0,082
-237,103	23,743	-0,012	0,007
-236,088	-200,000	-0,006	0,062
-235,073	-68,525	0,065	0,018
-234,059	192,857	0,094	0,104
-233,044	800,000	0,052	0,136
-232,030	294,948	-0,098	0,130
-231,015	244,108	-0,053	0,064
-230,000	-200,000	-0,059	0,000
-228,986	143,237	-0,022	-0,021
-227,971	-95,124	0,086	-0,017
-226,957	-160,756	-0,040	0,002
-225,942	-200,000	-0,048	0,161
-224,927	95,558	0,130	-0,108
-223,913	472,094	0,090	-0,148
-222,898	-200,000	-0,021	-0,138
-221,884	-0,679	0,041	-0,021
-220,869	-22,545	0,115	0,050
-219,855	6,971	-0,052	-0,028
-218,840	800,000	0,054	0,136
-217,825	-200,000	-0,003	-0,049
-216,811	800,000	0,085	-0,183
-215,796	-50,197	-0,031	-0,011
-214,782	66,951	-0,042	0,031
-213,767	127,288	-0,071	0,066
-212,752	256,288	0,069	0,086
-211,738	-182,837	0,039	0,000
-210,723	-49,546	-0,025	-0,009
-209,709	-55,049	-0,105	-0,034
-208,694	771,070	-0,019	-0,037
-207,679	-200,000	0,010	-0,062
-206,665	197,026	-0,046	0,051
-205,650	14,793	0,060	-0,034
-204,636	800,000	0,050	0,133
-203,621	-200,000	0,020	0,069
-202,606	569,965	-0,011	-0,019
-201,592	-27,462	0,037	0,015
-200,577	-200,000	-0,028	0,180
-199,563	497,518	-0,081	-0,135
-198,548	-167,783	0,050	-0,001
-197,533	-69,169	0,192	-0,053
-196,519	240,494	-0,071	0,086
-195,504	-90,758	-0,113	-0,023
-194,490	800,000	0,010	0,030
-193,475	119,957	-0,081	-0,073
-192,460	800,000	0,037	-0,111
-191,446	313,905	-0,049	0,067
-190,431	315,687	-0,069	-0,094
-189,417	-78,357	-0,050	-0,012
-188,402	529,836	0,038	0,065
-187,387	-111,888	0,029	0,004
-186,373	800,000	-0,004	-0,009
-185,358	95,188	0,059	0,049
-184,344	-200,000	-0,009	-0,062
-183,329	-200,000	0,034	0,199
-182,315	-200,000	0,007	0,141
-181,300	-92,283	-0,109	0,022
-180,285	162,853	0,084	-0,086
-179,271	631,201	-0,055	-0,101
-178,256	252,376	0,032	-0,040
-177,242	800,000	-0,020	-0,063
-176,227	15,985	0,034	0,019
-175,212	-200,000	-0,010	0,085
-174,198	-86,107	-0,089	0,020
-173,183	77,103	-0,047	-0,036
-172,169	-155,085	-0,049	-0,002
-171,154	-200,000	0,000	0,028
-170,139	-200,000	-0,008	0,032
-169,125	176,414	0,040	0,042
-168,110	576,227	-0,012	-0,021
-167,096	203,393	-0,066	-0,074
-166,081	-13,004	-0,114	-0,054
-165,066	64,216	-0,069	-0,050
-164,052	298,807	-0,072	-0,096
-163,037	29,123	0,060	-0,037
-162,023	-125,019	0,044	-0,005
-161,008	-70,671	0,096	-0,026
-159,993	-200,000	-0,018	0,128
-158,979	-9,626	-0,025	0,012
-157,964	74,764	-0,040	-0,031
-156,950	-200,000	0,033	0,107
-155,935	-200,000	0,013	0,164
-154,920	-120,304	-0,217	-0,026
-153,906	-12,987	-0,004	0,002
-152,891	74,439	0,081	0,062
-151,877	-162,809	0,134	-0,005
-150,862	339,178	0,055	-0,078
-149,847	-200,000	0,010	0,034
-148,833	-200,000	-0,019	-0,240
-147,818	15,719	-0,082	0,046
-146,804	120,787	0,055	0,050
-145,789	46,409	0,057	0,038
-144,775	328,416	-0,077	-0,107
-143,760	-200,000	0,022	-0,088
-142,745	800,000	-0,042	-0,120
-141,731	-200,000	-0,002	0,077
-140,716	60,652	0,091	-0,065
-139,702	-73,965	-0,112	-0,029
-138,687	307,826	-0,036	0,049
-137,672	-200,000	-0,011	0,087
-136,658	-200,000	0,014	-0,053
-135,643	611,823	0,064	0,116
-134,629	-69,153	-0,102	-0,028
-133,614	800,000	-0,036	0,098
-132,599	800,000	0,015	-0,037
-131,585	-94,883	0,115	-0,022
-130,570	88,802	0,026	0,021
-129,556	5,614	-0,073	-0,039
-128,541	-200,000	0,009	0,092
-127,526	800,000	-0,084	0,186
-126,512	800,000	0,020	0,052
-125,497	-200,000	-0,004	-0,107
-124,483	34,822	-0,062	-0,039
-123,468	130,043	-0,092	0,086
-122,453	159,081	0,032	-0,033
-121,439	294,431	0,012	-0,016
-120,424	124,701	-0,059	-0,054
-119,410	-200,000	0,011	0,114
-118,395	-54,127	-0,065	0,021
-117,380	-200,000	-0,001	0,203
-116,366	800,000	-0,036	0,082
-115,351	516,220	0,057	-0,097
-114,337	43,605	0,014	-0,009
-113,322	800,000	0,029	0,061
-112,307	-200,000	0,005	0,134
-111,293	18,543	0,128	0,074
-110,278	559,961	0,109	0,192
-109,264	-67,360	-0,043	0,012
-108,249	628,923	0,025	0,046
-107,234	-47,581	0,010	-0,003
-106,220	282,310	-0,052	0,068
-105,205	184,867	0,114	-0,122
-104,191	-143,005	-0,023	0,002
-103,176	800,000	-0,015	0,038
-102,162	-200,000	-0,014	0,111
-101,147	-200,000	0,021	-0,095
-100,132	800,000	0,035	0,088
-99,118	545,872	-0,016	-0,028
-98,103	-200,000	-0,009	0,082
-97,089	244,300	-0,069	-0,084
-96,074	177,820	0,059	0,062
-95,059	-144,338	-0,077	0,005
-94,045	209,913	-0,096	-0,109
-93,030	248,218	0,066	-0,081
-92,016	365,184	0,021	0,031
-91,001	-200,000	0,000	-0,004
-89,986	25,471	0,090	-0,054
-88,972	-118,531	0,139	-0,018
-87,957	12,558	-0,020	0,011
-86,943	320,294	-0,095	-0,130
-85,928	212,657	-0,147	-0,168
-84,913	800,000	0,016	-0,041
-83,899	-93,150	0,113	-0,023
-82,884	28,083	-0,089	0,054
-81,870	81,075	0,091	0,071
-80,855	-79,395	0,061	0,015
-79,840	139,369	0,037	0,035
-78,826	-88,085	0,114	0,025
-77,811	10,611	-0,067	0,037
-76,797	33,145	-0,082	-0,051
-75,782	-69,205	0,113	0,031
-74,767	198,961	0,062	0,069
-73,753	-200,000	0,012	-0,071
-72,738	-2,763	-0,142	-0,071
-71,724	-33,837	-0,085	-0,034
-70,709	56,441	-0,119	0,083
-69,694	467,126	0,057	0,093
-68,680	249,762	0,047	0,057
-67,665	135,688	-0,068	0,064
-66,651	-96,102	-0,103	0,020
-65,636	800,000	0,019	-0,049
-64,622	-49,322	-0,040	0,014
-63,607	800,000	-0,030	-0,071
-62,592	800,000	-0,090	-0,223
-61,578	-119,696	-0,015	0,002
-60,563	-37,476	-0,079	0,030
-59,549	-200,000	0,012	0,126
-58,534	-93,113	-1,520	-0,303
-57,519	800,000	-0,605	-1,273
-56,505	-200,000	-0,970	-4,488
-55,490	-114,214	0,685	0,094
-54,476	800,000	4,909	11,633
-53,461	-200,000	15,130	261,891
-52,446	800,000	695,943	2204,165
-51,432	560,846	1615,831	2831,406
-50,417	120,969	1624,314	1459,248
-49,403	81,969	1281,305	1001,578
-48,388	37,764	1021,702	653,945
-47,373	22,333	982,286	578,128
-46,359	21,390	971,088	568,429
-45,344	19,894	967,033	561,160
-44,330	19,958	965,706	560,573
-43,315	19,711	964,105	558,821
-42,300	19,684	963,069	558,110
-41,286	19,622	962,269	557,421
-40,271	19,623	961,318	556,852
-39,257	19,678	960,411	556,484
-38,242	19,646	959,578	555,876
-37,227	19,693	958,668	555,476
-36,213	19,627	957,667	554,662
-35,198	19,605	956,879	554,112
-34,184	19,664	956,282	553,935
-33,169	19,621	955,108	553,094
-32,154	19,664	954,324	552,756
-31,140	19,677	953,415	552,252
-30,125	19,647	952,752	551,747
-29,111	19,655	951,959	551,292
-28,096	19,688	951,332	551,013
-27,082	19,595	950,696	550,326
-26,067	19,650	949,763	549,940
-25,052	19,664	949,058	549,554
-24,038	19,673	948,286	549,115
-23,023	19,652	947,702	548,686
-22,009	19,700	946,998	548,411
-20,994	19,669	946,474	547,986
-19,979	19,652	945,964	547,615
-18,965	19,609	945,318	547,085
-17,950	19,650	944,635	546,797
-16,936	19,530	944,161	546,118
-15,921	19,573	943,279	545,724
-14,906	19,489	942,535	545,006
-13,892	19,530	941,919	544,757
-12,877	19,521	941,412	544,414
-11,863	19,466	940,751	543,834
-10,848	19,533	940,128	543,665
-9,833	19,562	939,848	543,576
-8,819	19,617	939,147	543,322
-7,804	19,565	938,476	542,748
-6,790	19,513	937,960	542,262
-5,775	19,494	937,432	541,875
-4,760	19,521	936,732	541,536
-3,746	19,468	936,106	540,985
-2,731	19,412	935,362	540,357
-1,717	19,402	934,479	539,792
-0,702	19,368	934,123	539,459
0,313	19,123	933,627	539,216
1,327	21,661	931,292	545,787
2,342	29,118	806,339	492,670
3,356	23,938	507,285	301,126
4,371	0,755	374,554	192,844
5,386	-2,015	357,728	180,767
6,400	-3,267	351,708	176,198
7,415	-3,826	348,855	174,083
8,429	-4,093	347,209	172,928
9,444	-4,128	346,405	172,471
10,459	-4,147	345,580	172,023
11,473	-4,218	345,014	171,642
12,488	-4,075	344,566	171,573
13,502	-4,103	344,025	171,255
14,517	-4,255	343,345	170,721
15,531	-4,546	342,735	170,061
16,546	-4,676	342,293	169,674
17,561	-4,705	341,921	169,440
18,575	-4,598	341,562	169,372
19,590	-4,713	341,111	168,999
20,604	-4,605	340,875	168,993
21,619	-4,666	340,270	168,607
22,634	-4,609	339,920	168,485
23,648	-4,725	339,567	168,160
24,663	-4,764	339,350	167,992
25,677	-4,741	339,015	167,838
26,692	-4,576	338,586	167,802
27,707	-4,645	338,389	167,609
28,721	-4,743	338,008	167,293
29,736	-4,699	337,800	167,225
30,750	-4,746	337,386	166,951
31,765	-4,592	337,080	166,963
32,780	-4,792	336,846	166,601
33,794	-4,707	336,795	166,659
34,809	-4,672	336,275	166,428
35,823	-4,777	336,130	166,219
36,838	-4,785	335,713	165,989
37,853	-4,816	335,383	165,776
38,867	-4,793	335,019	165,607
39,882	-4,752	334,807	165,535
40,896	-4,892	334,673	165,294
41,911	-4,767	334,214	165,195
42,926	-4,797	334,026	165,054
43,940	-4,960	333,731	164,707
44,955	-4,880	333,457	164,648
45,969	-4,877	333,242	164,531
46,984	-5,079	332,940	164,137
47,999	-5,124	332,507	163,857
49,013	-5,236	332,347	163,636
50,028	-5,243	332,105	163,495
51,042	-5,140	331,721	163,407
52,057	-5,240	331,384	163,114
53,071	-5,306	331,249	162,959
54,086	-5,222	331,062	162,946
55,101	-5,306	330,832	162,725
56,115	-5,078	330,597	162,852
57,130	-4,860	330,503	163,037
58,144	-4,619	330,266	163,178
59,159	-4,656	330,055	163,017
60,174	-4,353	329,653	163,146
61,188	-4,568	329,525	162,825
62,203	-4,692	329,355	162,588
63,217	-4,665	328,879	162,368
64,232	-4,548	328,715	162,404
65,247	-4,241	328,336	162,547
66,261	-4,437	328,120	162,206
67,276	-4,689	327,744	161,724
68,290	-5,008	327,430	161,197
69,305	-5,018	327,467	161,190
70,320	-4,921	327,236	161,170
71,334	-4,831	326,767	161,025
72,349	-4,559	326,776	161,319
73,363	-4,465	326,485	161,266
74,378	-4,525	326,164	161,026
75,393	-4,501	325,734	160,826
76,407	-4,598	325,514	160,595
77,422	-4,567	325,358	160,539
78,436	-4,623	325,132	160,350
79,451	-4,545	324,778	160,248
80,466	-4,657	324,544	159,994
81,480	-4,830	324,122	159,581
82,495	-4,806	324,088	159,577
83,509	-4,705	323,726	159,495
84,524	-4,882	323,463	159,156
85,539	-4,866	323,163	159,012
86,553	-4,962	322,987	158,805
87,568	-4,972	322,869	158,722
88,582	-4,721	322,453	158,780
89,597	-4,814	322,222	158,550
90,611	-4,709	322,156	158,619
91,626	-4,673	321,929	158,532
92,641	-4,773	321,664	158,278
93,655	-4,781	321,501	158,174
94,670	-4,675	321,032	158,046
95,684	-4,660	320,919	157,993
96,699	-4,619	320,591	157,862
97,714	-4,799	320,384	157,550
98,728	-4,838	320,022	157,314
99,743	-4,974	320,034	157,158
100,757	-4,884	319,677	157,067
101,772	-4,856	319,462	156,978
102,787	-4,858	319,157	156,811
103,801	-4,784	318,877	156,740
104,816	-4,769	318,738	156,674
105,830	-4,630	318,645	156,765
106,845	-4,608	318,299	156,606
107,860	-4,760	318,248	156,401
108,874	-4,625	317,824	156,325
109,889	-4,640	317,498	156,134
110,903	-4,649	317,387	156,056
111,918	-4,680	317,225	155,930
112,933	-4,830	316,971	155,629
113,947	-4,661	316,729	155,679
114,962	-4,714	316,470	155,480
115,976	-4,678	316,205	155,375
116,991	-4,672	316,042	155,287
118,006	-4,618	315,856	155,241
119,020	-4,485	315,638	155,262
120,035	-4,446	315,534	155,238
121,049	-4,545	315,457	155,081
122,064	-4,706	315,200	154,768
123,079	-4,604	314,843	154,688
124,093	-4,725	314,405	154,330
125,108	-4,908	314,239	154,039
126,122	-5,028	313,982	153,770
127,137	-5,124	313,773	153,553
128,151	-5,073	313,561	153,490
129,166	-4,978	313,372	153,484
130,181	-4,918	313,139	153,421
131,195	-4,849	312,886	153,356
132,210	-4,734	312,727	153,387
133,224	-4,749	312,647	153,318
134,239	-4,663	312,315	153,232
135,254	-4,464	312,066	153,308
136,268	-4,679	311,766	152,920
137,283	-4,948	311,501	152,491
138,297	-4,928	311,142	152,323
139,312	-4,810	311,072	152,400
140,327	-4,720	310,947	152,420
141,341	-4,522	310,751	152,519
142,356	-4,299	310,474	152,605
143,370	-4,283	310,462	152,602
144,385	-4,267	310,209	152,481
145,400	-4,324	309,810	152,211
146,414	-4,533	309,715	151,931
147,429	-4,424	309,578	151,965
148,443	-4,552	309,354	151,707
149,458	-4,340	309,105	151,794
150,473	-4,318	308,950	151,727
151,487	-4,383	308,691	151,519
152,502	-4,344	308,501	151,453
153,516	-4,435	308,225	151,208
154,531	-4,354	308,000	151,170
155,546	-4,474	307,827	150,945
156,560	-4,553	307,465	150,673
157,575	-4,568	307,331	150,577
158,589	-4,414	307,019	150,571
159,604	-4,436	306,934	150,493
160,619	-4,246	306,640	150,533
161,633	-4,392	306,491	150,295
162,648	-4,355	306,332	150,242
163,662	-4,322	306,168	150,183
164,677	-4,451	305,917	149,912
165,692	-4,399	305,745	149,869
166,706	-4,364	305,673	149,856
167,721	-4,362	305,384	149,703
168,735	-4,301	305,250	149,687
169,750	-4,231	305,085	149,665
170,764	-4,224	304,853	149,545
171,779	-4,201	304,629	149,446
172,794	-4,342	304,471	149,210
173,808	-4,485	304,151	148,892
174,823	-4,782	303,612	148,310
175,837	-4,633	303,357	148,325
176,852	-4,351	303,464	148,653
177,867	-4,412	303,538	148,615
178,881	-4,417	303,258	148,459
179,896	-4,394	303,057	148,370
180,910	-4,301	302,798	148,326
181,925	-4,370	302,601	148,146
182,940	-4,310	302,336	148,064
183,954	-4,219	302,229	148,091
184,969	-4,348	302,060	147,864
185,983	-4,373	301,852	147,723
186,998	-4,253	301,546	147,682
188,013	-4,230	301,374	147,609
189,027	-4,088	301,192	147,650
190,042	-4,213	301,110	147,470
191,056	-4,025	300,789	147,490
192,071	-4,048	300,802	147,461
193,086	-4,120	300,352	147,154
194,100	-4,067	300,222	147,131
195,115	-4,024	299,890	146,999
196,129	-4,061	299,663	146,836
197,144	-4,235	299,488	146,562
198,159	-4,097	299,235	146,564
199,173	-4,143	299,161	146,468
200,188	-3,915	298,823	146,520
201,202	-4,213	298,608	146,101
202,217	-4,609	298,173	145,476
203,232	-4,578	297,891	145,357
204,246	-4,418	297,927	145,523
205,261	-4,238	297,822	145,640
206,275	-4,329	297,662	145,457
207,290	-4,260	297,464	145,417
208,304	-4,128	297,256	145,435
209,319	-4,321	297,025	145,115
210,334	-4,258	296,887	145,097
211,348	-4,153	296,728	145,112
212,363	-4,226	296,482	144,906
213,377	-4,115	296,287	144,908
214,392	-4,260	296,115	144,667
215,407	-4,410	295,852	144,375
216,421	-4,524	295,392	144,024
217,436	-4,329	295,205	144,115
218,450	-4,321	295,132	144,074
219,465	-4,277	295,053	144,067
220,480	-4,311	294,737	143,865
221,494	-4,239	294,719	143,915
222,509	-4,218	294,485	143,810
223,523	-4,158	294,310	143,771
224,538	-4,139	294,135	143,691
225,553	-4,137	293,976	143,603
226,567	-4,092	293,802	143,549
227,582	-3,898	293,650	143,654
228,596	-4,196	293,696	143,369
229,611	-4,059	293,311	143,304
230,626	-4,154	293,015	143,053
231,640	-4,536	292,657	142,488
232,655	-4,796	292,451	142,119
233,669	-4,846	292,239	141,955
234,684	-4,561	291,928	142,070
235,699	-4,703	291,935	141,921
236,713	-4,670	291,836	141,893
237,728	-4,509	291,602	141,925
238,742	-4,355	291,506	142,017
239,757	-4,232	291,256	142,003
240,772	-4,426	291,181	141,764
241,786	-4,422	290,971	141,653
242,801	-4,198	290,511	141,636
243,815	-4,286	290,507	141,535
244,830	-4,162	290,342	141,563
245,844	-4,472	290,253	141,204
246,859	-4,499	289,914	141,000
247,874	-4,342	289,679	141,026
248,888	-4,273	289,544	141,015
249,903	-4,296	289,537	140,977
250,917	-4,095	289,365	141,076
251,932	-4,100	289,340	141,047
252,947	-3,175	289,454	141,989
253,961	-3,255	289,006	141,679
254,976	-2,488	289,561	142,684
255,990	-0,182	290,078	145,171
257,005	-0,071	290,117	145,285
258,020	1,679	290,650	147,243
259,034	2,476	290,584	147,971
260,049	2,306	290,434	147,716
261,063	1,950	290,208	147,243
262,078	2,453	290,023	147,625
263,093	2,983	290,186	148,208
264,107	3,025	289,959	148,119
265,122	3,152	289,803	148,150
266,136	3,268	289,786	148,240
267,151	3,071	289,402	147,840
268,166	2,912	289,284	147,613
269,180	2,848	288,871	147,327
270,195	3,008	288,726	147,394
271,209	3,104	288,577	147,397
272,224	2,935	288,370	147,116
273,239	2,882	288,022	146,875
274,253	3,002	287,859	146,893
275,268	2,866	287,813	146,727
276,282	3,033	287,640	146,785
277,297	2,805	287,414	146,438
278,312	3,048	287,152	146,525
279,326	2,981	287,231	146,488
280,341	3,088	286,941	146,429
281,355	3,003	286,588	146,155
282,370	3,264	286,510	146,352
283,384	3,191	286,331	146,177
284,399	3,012	286,161	145,906
285,414	3,057	285,996	145,853
286,428	2,963	285,800	145,649
287,443	2,751	285,469	145,266
288,457	2,638	285,304	145,062
289,472	2,674	285,135	144,997
290,487	2,734	284,951	144,948
291,501	2,522	284,730	144,621
292,516	2,354	284,508	144,336
293,530	2,349	284,408	144,267
294,545	2,679	284,314	144,520
295,560	2,828	284,048	144,513
296,574	2,632	283,917	144,248
297,589	2,825	283,734	144,324
298,603	3,051	283,650	144,482
299,618	2,990	283,466	144,318
300,633	2,907	283,190	144,086
301,647	2,923	283,074	144,030
302,662	2,873	282,868	143,865
303,676	2,657	282,511	143,467
304,691	2,293	282,218	142,963
305,706	2,115	281,999	142,673
306,720	2,024	281,909	142,528
307,735	2,132	281,601	142,462
308,749	2,441	281,624	142,750
309,764	2,256	281,420	142,460
310,779	2,447	281,114	142,472
311,793	1,921	281,019	141,919
312,808	2,135	280,700	141,945
313,822	2,375	280,547	142,079
314,837	2,095	280,304	141,683
315,852	1,916	280,264	141,482
316,866	2,216	280,014	141,623
317,881	2,133	279,906	141,479
318,895	2,376	279,544	141,509
319,910	2,010	279,347	141,056
320,925	2,050	279,200	141,007
321,939	2,298	279,183	141,216
322,954	2,339	279,125	141,212
323,968	2,450	278,844	141,160
324,983	2,462	278,643	141,057
325,997	2,541	278,529	141,060
327,012	2,351	278,402	140,807
328,027	2,471	277,986	140,695
329,041	2,315	277,958	140,524
330,056	2,492	277,964	140,678
331,070	2,440	277,685	140,477
332,085	2,257	277,412	140,157
333,100	2,380	277,257	140,179
334,114	2,467	276,987	140,111
335,129	2,228	276,790	139,779
336,143	2,423	276,765	139,933
337,158	2,576	276,712	140,035
338,173	2,462	276,391	139,755
339,187	2,326	276,294	139,568
340,202	2,374	276,168	139,537
341,216	2,460	275,933	139,484
342,231	2,341	275,769	139,280
343,246	2,402	275,544	139,210
344,260	2,599	275,322	139,265
345,275	2,742	275,230	139,336
346,289	2,914	275,186	139,459
347,304	2,784	275,069	139,268
348,319	2,711	274,652	138,978
349,333	2,327	274,587	138,583
350,348	2,877	274,476	139,016
351,362	2,858	274,334	138,914
352,377	2,686	274,178	138,667
353,392	2,934	273,997	138,788
354,406	2,944	273,872	138,721
355,421	191,594	1328,053	1401,246
356,435	154,852	1456,536	1401,313
