DTS Sentinel unit serial number:	SN410029Multiplexer serial number:	ORYXHardware model number:	OX2-SRSoftware version number:	ORYX F/W v4,00 Oryx Data Collector v3.7.2.0data status	okinstallation	B4 Nyhavnadifferential loss correction	single-endedforward channel	channel 2reverse channel	N/Adate	2023/12/15time	20:25:13forward acquisition time	300,00reverse acquisition time	0,00gamma	499,1914k internal	0,3135k external	0,3135temperature offset calibration	1,0000default loss term (dB/km)	0,3820temperature slope calibration	1,0000multiplexer offset coefficient	1,0000multiplexer slope coefficient	1,0000fibre end	0,00T internal ref (°C)	20,52T ext. ref 1 (°C)	5,72T ext. ref 2 (°C)	5,88length (m)	temperature (°C)	Stokes	anti-Stokes-744,400	744,331	-0,054	-0,108
-743,385	-63,711	-0,228	0,069
-742,371	-200,000	0,004	0,042
-741,356	153,569	-0,147	0,150
-740,342	-116,131	0,066	-0,009
-739,327	-28,026	-0,283	0,121
-738,312	800,000	0,017	-0,041
-737,298	-25,957	-0,190	0,082
-736,283	800,000	0,041	0,135
-735,269	592,966	-0,147	0,270
-734,254	31,934	-0,042	0,027
-733,239	-136,479	-0,517	-0,044
-732,225	-118,497	0,221	0,029
-731,210	-21,353	-0,059	0,027
-730,196	45,764	0,017	-0,012
-729,181	-87,152	-0,112	-0,025
-728,167	191,198	-0,026	-0,029
-727,152	800,000	0,019	0,039
-726,137	-200,000	0,035	0,119
-725,123	232,975	-0,011	-0,013
-724,108	800,000	0,020	-0,059
-723,094	449,340	-0,080	-0,131
-722,079	0,221	0,105	-0,055
-721,064	153,263	-0,082	0,083
-720,050	-34,483	-0,081	-0,033
-719,035	527,994	-0,033	-0,059
-718,021	-5,364	-0,030	0,015
-717,006	-96,019	-0,119	0,023
-715,991	627,779	-0,052	-0,099
-714,977	586,766	0,045	-0,083
-713,962	228,445	0,046	-0,056
-712,948	800,000	-0,011	0,026
-711,933	800,000	0,018	0,041
-710,918	-200,000	-0,029	0,101
-709,904	800,000	0,008	0,023
-708,889	215,605	-0,030	0,036
-707,875	-96,733	-0,045	0,009
-706,860	74,900	-0,093	0,073
-705,845	66,931	-0,029	0,022
-704,831	173,555	0,039	0,042
-703,816	-131,636	-0,088	0,008
-702,802	19,133	-0,122	0,072
-701,787	731,954	-0,004	-0,009
-700,772	51,442	0,065	0,046
-699,758	800,000	0,003	0,009
-698,743	800,000	0,072	0,150
-697,729	121,791	0,044	0,041
-696,714	48,743	-0,085	-0,059
-695,699	134,507	-0,067	0,065
-694,685	-92,538	-0,143	-0,030
-693,670	-112,408	-0,162	0,024
-692,656	-66,653	0,076	-0,022
-691,641	-200,000	-0,009	0,038
-690,627	83,705	-0,024	-0,019
-689,612	-200,000	0,022	-0,137
-688,597	-28,538	0,029	0,012
-687,583	64,579	-0,055	-0,041
-686,568	-200,000	-0,017	0,083
-685,554	706,873	0,022	-0,043
-684,539	-122,763	0,114	0,013
-683,524	-200,000	-0,013	-0,091
-682,510	-72,657	0,066	0,018
-681,495	582,721	-0,030	0,055
-680,481	642,305	0,082	-0,156
-679,466	61,367	0,045	-0,033
-678,451	351,327	0,022	0,032
-677,437	-176,217	0,086	0,002
-676,422	-200,000	0,022	-0,115
-675,408	-200,000	0,016	-0,082
-674,393	323,855	0,076	-0,108
-673,378	25,049	-0,053	0,032
-672,364	23,351	-0,057	0,035
-671,349	-150,377	-0,054	-0,003
-670,335	467,996	0,059	0,098
-669,320	-200,000	-0,003	-0,020
-668,305	-20,807	0,031	0,014
-667,291	625,103	0,048	0,090
-666,276	-32,621	0,060	-0,024
-665,262	1,227	-0,132	0,070
-664,247	-200,000	-0,009	0,124
-663,232	-164,224	-0,090	-0,003
-662,218	800,000	0,033	0,096
-661,203	-165,446	0,156	-0,005
-660,189	-200,000	0,020	0,160
-659,174	-167,616	0,108	-0,003
-658,159	-31,138	0,053	0,022
-657,145	234,282	0,110	0,134
-656,130	126,314	-0,112	-0,104
-655,116	507,266	-0,084	-0,146
-654,101	21,591	0,089	0,054
-653,086	97,345	0,130	0,110
-652,072	82,354	-0,083	-0,066
-651,057	-200,000	-0,019	-0,063
-650,043	-144,004	-0,078	-0,005
-649,028	-28,416	-0,139	-0,059
-648,014	-46,824	0,101	-0,036
-646,999	-22,026	-0,118	0,053
-645,984	-124,532	0,042	0,005
-644,970	291,201	0,023	0,031
-643,955	43,618	0,008	-0,005
-642,941	-86,883	-0,179	-0,040
-641,926	800,000	-0,034	-0,102
-640,911	31,878	0,009	-0,005
-639,897	395,904	0,045	-0,070
-638,882	-200,000	0,002	0,101
-637,868	86,381	-0,031	-0,025
-636,853	40,921	-0,052	-0,035
-635,838	59,971	-0,092	-0,067
-634,824	183,551	-0,079	0,087
-633,809	-72,263	0,087	0,024
-632,795	-164,806	0,034	0,001
-631,780	-200,000	0,012	0,111
-630,765	800,000	0,019	-0,047
-629,751	328,841	0,085	-0,121
-628,736	-68,709	-0,150	0,043
-627,722	14,760	-0,040	-0,023
-626,707	415,085	-0,035	-0,056
-625,692	-37,493	0,051	0,020
-624,678	-89,714	-0,060	-0,013
-623,663	800,000	0,030	0,073
-622,649	-200,000	0,013	-0,131
-621,634	28,823	-0,084	-0,053
-620,619	-200,000	0,005	0,060
-619,605	28,231	0,109	-0,068
-618,590	368,585	-0,035	0,053
-617,576	800,000	-0,031	0,069
-616,561	43,951	-0,040	-0,027
-615,546	-200,000	0,037	-0,130
-614,532	712,894	0,045	-0,088
-613,517	-200,000	-0,017	-0,091
-612,503	-200,000	-0,001	0,023
-611,488	511,201	0,074	0,128
-610,474	472,020	0,072	0,120
-609,459	-112,780	0,181	0,026
-608,444	8,632	-0,092	-0,051
-607,430	-200,000	-0,016	-0,098
-606,415	32,318	-0,054	-0,034
-605,401	-200,000	-0,014	-0,168
-604,386	-45,339	-0,124	-0,045
-603,371	-96,149	0,097	-0,019
-602,357	-200,000	0,006	0,044
-601,342	-200,000	0,005	-0,186
-600,328	181,800	0,181	-0,197
-599,313	289,468	-0,104	-0,139
-598,298	-69,501	-0,057	-0,016
-597,284	-200,000	0,024	-0,144
-596,269	72,591	0,072	-0,055
-595,255	113,689	0,060	0,054
-594,240	261,395	0,004	0,005
-593,225	-200,000	0,002	0,076
-592,211	-200,000	-0,024	-0,143
-591,196	0,551	-0,043	-0,022
-590,182	286,860	0,010	0,013
-589,167	87,254	-0,088	0,072
-588,152	-200,000	-0,003	0,099
-587,138	800,000	-0,028	0,062
-586,123	800,000	-0,007	-0,023
-585,109	110,558	-0,034	-0,030
-584,094	800,000	-0,013	-0,043
-583,079	-200,000	-0,009	0,064
-582,065	-200,000	-0,022	0,094
-581,050	225,148	0,047	0,056
-580,036	-185,431	-0,139	0,002
-579,021	199,717	0,008	0,009
-578,006	326,733	-0,129	-0,183
-576,992	-200,000	-0,004	0,045
-575,977	-80,702	-0,081	-0,020
-574,963	800,000	-0,031	0,072
-573,948	202,873	-0,030	0,034
-572,934	261,236	-0,102	0,130
-571,919	-59,793	-0,139	0,044
-570,904	25,068	-0,064	-0,039
-569,890	-23,313	0,131	-0,058
-568,875	-105,468	0,079	-0,013
-567,861	-74,143	0,221	0,058
-566,846	12,936	0,011	-0,006
-565,831	-192,263	0,130	0,001
-564,817	134,425	0,072	-0,069
-563,802	409,488	0,058	0,091
-562,788	171,428	-0,043	-0,045
-561,773	800,000	-0,028	-0,060
-560,758	46,509	-0,055	0,038
-559,744	116,038	0,048	-0,043
-558,729	-17,901	-0,072	0,033
-557,715	-59,024	0,033	-0,010
-556,700	-200,000	0,002	-0,064
-555,685	17,927	-0,088	-0,051
-554,671	-20,349	0,121	0,055
-553,656	-23,186	0,090	-0,040
-552,642	-200,000	0,002	0,066
-551,627	61,576	-0,105	0,077
-550,612	321,566	-0,065	0,091
-549,598	-108,571	-0,062	-0,010
-548,583	191,573	0,043	-0,047
-547,569	267,419	-0,026	0,033
-546,554	84,812	0,025	-0,020
-545,539	18,315	0,101	-0,059
-544,525	787,128	-0,053	-0,108
-543,510	800,000	-0,015	-0,032
-542,496	800,000	0,021	0,045
-541,481	-200,000	0,037	0,000
-540,466	139,940	-0,089	-0,087
-539,452	-200,000	-0,000	-0,002
-538,437	-161,465	0,176	0,007
-537,423	279,758	0,042	-0,055
-536,408	800,000	-0,008	-0,027
-535,393	69,276	0,088	-0,067
-534,379	185,911	-0,053	0,058
-533,364	114,336	0,094	-0,084
-532,350	9,832	0,065	0,036
-531,335	-200,000	0,020	0,092
-530,321	-200,000	-0,003	-0,062
-529,306	65,407	0,075	0,056
-528,291	-200,000	0,010	-0,078
-527,277	800,000	-0,017	0,038
-526,262	-43,239	0,037	0,014
-525,248	-128,906	-0,139	-0,014
-524,233	-200,000	0,001	0,137
-523,218	-67,171	-0,155	0,045
-522,204	21,498	-0,067	-0,040
-521,189	162,717	-0,079	-0,081
-520,175	-2,968	-0,112	-0,058
-519,160	-103,751	0,068	-0,012
-518,145	-200,000	-0,001	0,010
-517,131	128,920	-0,062	0,058
-516,116	800,000	-0,016	0,051
-515,102	-47,775	0,111	0,039
-514,087	124,247	-0,021	-0,020
-513,072	783,568	-0,032	-0,065
-512,058	800,000	0,015	0,041
-511,043	744,896	0,059	0,118
-510,029	678,930	0,027	-0,052
-509,014	-37,605	0,132	-0,051
-507,999	245,452	-0,039	0,048
-506,985	-82,722	0,118	-0,028
-505,970	38,491	-0,078	0,051
-504,956	36,650	-0,084	0,054
-503,941	-200,000	0,061	0,222
-502,926	11,863	-0,015	-0,008
-501,912	529,435	-0,072	0,125
-500,897	-200,000	0,012	0,057
-499,883	-29,028	-0,039	0,017
-498,868	68,374	-0,122	-0,092
-497,853	-200,000	-0,003	-0,084
-496,839	713,424	-0,038	0,075
-495,824	-122,254	0,072	-0,009
-494,810	375,539	0,048	0,073
-493,795	-200,000	0,012	-0,059
-492,781	800,000	0,025	-0,080
-491,766	-100,510	-0,077	0,014
-490,751	-200,000	0,009	0,058
-489,737	72,210	0,128	0,098
-488,722	44,433	0,061	-0,041
-487,708	-131,768	0,034	0,003
-486,693	800,000	0,019	-0,048
-485,678	800,000	-0,014	-0,038
-484,664	-101,559	-0,054	0,010
-483,649	126,365	-0,035	-0,033
-482,635	4,473	-0,049	0,027
-481,620	245,359	0,036	0,045
-480,605	243,339	0,065	-0,080
-479,591	134,567	0,066	-0,063
-478,576	800,000	0,015	-0,033
-477,562	800,000	0,021	-0,056
-476,547	252,236	0,039	-0,048
-475,532	425,175	0,057	-0,090
-474,518	-200,000	-0,010	-0,111
-473,503	385,600	0,034	0,052
-472,489	662,536	0,044	0,084
-471,474	30,162	-0,095	-0,059
-470,459	-47,725	0,121	-0,043
-469,445	800,000	0,022	-0,069
-468,430	-200,000	0,010	-0,126
-467,416	104,410	0,074	0,064
-466,401	800,000	-0,031	0,071
-465,386	800,000	0,039	0,107
-464,372	-200,000	0,035	-0,118
-463,357	29,615	-0,148	0,092
-462,343	800,000	-0,020	-0,056
-461,328	34,135	-0,057	0,036
-460,313	246,061	0,056	-0,070
-459,299	-32,241	0,024	-0,010
-458,284	-200,000	0,005	0,057
-457,270	-200,000	-0,019	-0,113
-456,255	800,000	-0,032	-0,100
-455,241	118,283	0,103	-0,093
-454,226	260,831	-0,106	-0,135
-453,211	-200,000	0,003	0,199
-452,197	-77,964	0,041	0,010
-451,182	-200,000	0,005	0,020
-450,168	800,000	-0,020	0,049
-449,153	108,324	-0,087	-0,076
-448,138	217,779	-0,109	-0,128
-447,124	-200,000	0,007	0,048
-446,109	-200,000	-0,001	0,103
-445,095	-200,000	0,030	0,189
-444,080	-200,000	0,016	0,063
-443,065	463,275	0,066	0,108
-442,051	-25,468	0,080	0,034
-441,036	800,000	-0,049	-0,106
-440,022	-107,226	0,091	-0,015
-439,007	-74,819	-0,105	0,028
-437,992	459,914	0,031	0,050
-436,978	14,332	-0,078	0,044
-435,963	177,275	0,039	0,042
-434,949	800,000	0,015	-0,039
-433,934	-200,000	0,025	0,119
-432,919	800,000	0,046	0,141
-431,905	-200,000	-0,012	-0,057
-430,890	129,201	0,077	0,072
-429,876	400,734	0,013	-0,020
-428,861	-200,000	-0,002	-0,067
-427,846	-200,000	0,046	-0,148
-426,832	-29,622	0,009	0,004
-425,817	-200,000	0,005	0,097
-424,803	800,000	-0,016	0,039
-423,788	800,000	-0,005	-0,015
-422,773	7,792	0,109	0,060
-421,759	129,452	0,089	0,083
-420,744	-104,934	-0,061	0,010
-419,730	-200,000	-0,002	-0,032
-418,715	-200,000	0,004	-0,103
-417,701	140,615	-0,051	0,050
-416,686	-200,000	-0,004	0,071
-415,671	545,560	-0,042	0,074
-414,657	207,905	0,009	-0,010
-413,642	-130,391	0,082	-0,008
-412,628	800,000	-0,039	-0,104
-411,613	-37,896	-0,070	-0,027
-410,598	-200,000	0,019	-0,091
-409,584	-30,108	-0,108	-0,045
-408,569	8,732	-0,071	0,039
-407,555	-70,623	0,095	-0,026
-406,540	-200,000	0,009	0,050
-405,525	14,913	0,143	0,082
-404,511	-25,358	-0,066	-0,028
-403,496	133,489	-0,023	-0,022
-402,482	129,903	0,083	-0,078
-401,467	130,436	0,026	0,025
-400,452	7,093	0,105	0,057
-399,438	406,465	-0,024	-0,038
-398,423	-77,766	-0,179	-0,045
-397,409	-137,304	-0,180	-0,015
-396,394	103,419	0,075	0,064
-395,379	791,337	-0,037	0,075
-394,365	-95,105	-0,112	-0,022
-393,350	-63,649	0,042	0,012
-392,336	379,038	0,091	0,137
-391,321	-200,000	-0,074	0,000
-390,306	-22,966	0,055	-0,024
-389,292	98,262	-0,066	-0,056
-388,277	449,469	-0,065	-0,105
-387,263	-155,143	0,106	0,005
-386,248	-70,779	-0,025	0,007
-385,233	44,041	0,082	0,055
-384,219	10,850	-0,101	0,056
-383,204	-23,342	0,060	0,026
-382,190	253,448	0,083	0,104
-381,175	-110,633	-0,038	0,006
-380,160	-68,217	-0,118	-0,033
-379,146	318,932	-0,059	0,082
-378,131	-52,629	0,032	0,011
-377,117	-71,851	0,115	-0,031
-376,102	108,508	0,095	0,083
-375,088	1,241	-0,181	0,095
-374,073	800,000	0,052	-0,119
-373,058	-105,271	0,172	-0,028
-372,044	-178,940	0,119	0,002
-371,029	-147,250	0,088	0,005
-370,015	7,905	-0,109	-0,059
-369,000	-52,605	-0,086	-0,029
-367,985	150,005	-0,014	0,014
-366,971	24,457	0,107	-0,064
-365,956	4,692	0,027	-0,015
-364,942	29,729	-0,046	0,029
-363,927	41,519	0,148	0,098
-362,912	420,635	-0,009	-0,014
-361,898	306,929	-0,061	-0,083
-360,883	633,751	-0,027	0,050
-359,869	-55,899	-0,108	-0,035
-358,854	-200,000	0,010	-0,047
-357,839	-16,464	0,022	0,010
-356,825	-37,322	0,052	0,020
-355,810	-5,979	-0,072	0,036
-354,796	800,000	0,053	0,110
-353,781	377,903	-0,034	-0,051
-352,766	-200,000	0,005	-0,102
-351,752	106,416	0,074	0,064
-350,737	800,000	-0,033	-0,073
-349,723	-131,423	-0,059	-0,006
-348,708	557,003	0,058	-0,103
-347,693	344,715	-0,089	-0,128
-346,679	-36,344	0,085	0,033
-345,664	-57,425	0,055	0,017
-344,650	800,000	-0,049	-0,099
-343,635	800,000	0,048	0,139
-342,620	800,000	-0,014	0,046
-341,606	800,000	0,053	0,113
-340,591	297,425	-0,105	0,141
-339,577	225,829	-0,071	-0,085
-338,562	-38,815	-0,060	0,023
-337,548	-35,473	0,005	0,002
-336,533	-100,648	0,049	-0,009
-335,518	-149,796	0,180	-0,010
-334,504	-125,071	-0,102	0,011
-333,489	62,324	-0,010	0,007
-332,475	65,878	-0,084	-0,062
-331,460	502,932	-0,034	-0,058
-330,445	512,989	0,084	-0,143
-329,431	18,734	0,063	0,036
-328,416	800,000	0,032	0,078
-327,402	800,000	-0,040	0,103
-326,387	800,000	0,049	0,131
-325,372	-9,471	0,064	-0,031
-324,358	-173,393	-0,119	-0,003
-323,343	356,537	0,090	-0,132
-322,329	-200,000	-0,012	0,094
-321,314	-99,614	0,111	-0,020
-320,299	-200,000	-0,010	0,033
-319,285	800,000	-0,051	0,114
-318,270	-146,594	-0,014	-0,001
-317,256	800,000	0,019	-0,044
-316,241	-116,057	0,144	-0,019
-315,226	450,072	-0,074	0,119
-314,212	-32,129	0,133	-0,054
-313,197	-93,083	-0,077	0,016
-312,183	800,000	-0,033	0,106
-311,168	137,821	-0,092	-0,088
-310,153	76,595	-0,086	0,066
-309,139	50,044	-0,024	0,016
-308,124	286,424	-0,060	0,079
-307,110	800,000	-0,026	-0,083
-306,095	-123,345	0,097	-0,011
-305,080	680,979	-0,063	-0,120
-304,066	-139,516	0,128	-0,010
-303,051	-11,536	0,070	0,034
-302,037	81,013	-0,049	0,039
-301,022	645,152	0,011	-0,021
-300,008	800,000	0,066	0,173
-298,993	800,000	0,010	0,032
-297,978	16,501	-0,175	0,101
-296,964	-200,000	-0,019	-0,079
-295,949	-82,060	-0,151	0,036
-294,935	125,367	-0,076	0,070
-293,920	113,638	-0,064	-0,057
-292,905	447,914	-0,076	0,122
-291,891	-75,194	0,146	-0,038
-290,876	305,526	-0,135	0,183
-289,862	-200,000	0,014	0,136
-288,847	362,268	0,035	-0,051
-287,832	-127,100	0,121	-0,013
-286,818	-200,000	-0,047	-0,174
-285,803	800,000	0,057	0,126
-284,789	-34,567	0,080	-0,032
-283,774	248,937	0,044	0,054
-282,759	387,192	0,039	-0,059
-281,745	800,000	-0,024	0,063
-280,730	140,129	-0,076	-0,073
-279,716	-170,159	-0,204	-0,005
-278,701	303,341	0,028	-0,038
-277,686	-35,129	0,073	-0,029
-276,672	-10,370	0,062	-0,030
-275,657	208,206	-0,035	-0,040
-274,643	556,444	-0,016	-0,029
-273,628	800,000	-0,061	-0,168
-272,613	-54,221	0,109	0,036
-271,599	-137,448	-0,050	-0,004
-270,584	211,292	0,055	-0,063
-269,570	82,491	-0,120	0,095
-268,555	800,000	0,054	0,164
-267,540	-200,000	0,000	0,099
-266,526	-139,225	-0,128	0,010
-265,511	421,003	0,052	0,082
-264,497	-200,000	-0,014	-0,113
-263,482	777,397	0,059	0,118
-262,467	556,619	0,050	0,088
-261,453	-15,535	0,049	-0,023
-260,438	-200,000	-0,011	0,112
-259,424	-114,949	0,164	-0,023
-258,409	-14,073	-0,126	-0,059
-257,395	132,066	-0,116	0,108
-256,380	-140,684	0,103	0,008
-255,365	123,820	0,070	-0,064
-254,351	-67,013	0,034	0,010
-253,336	93,150	0,079	-0,065
-252,322	148,116	-0,088	-0,087
-251,307	742,542	-0,054	-0,106
-250,292	-9,812	-0,090	0,043
-249,278	-62,752	0,055	0,017
-248,263	56,199	0,043	0,030
-247,249	531,343	-0,018	0,030
-246,234	755,969	-0,039	-0,078
-245,219	-200,000	-0,007	-0,033
-244,205	156,159	-0,092	-0,093
-243,190	14,737	0,142	0,081
-242,176	800,000	0,031	0,073
-241,161	709,180	-0,046	0,088
-240,146	754,128	0,041	0,081
-239,132	800,000	0,029	-0,094
-238,117	-79,425	-0,035	-0,008
-237,103	218,768	0,133	-0,155
-236,088	71,062	-0,102	-0,077
-235,073	706,405	-0,038	-0,073
-234,059	19,435	0,040	0,023
-233,044	800,000	0,046	0,112
-232,030	-33,143	-0,087	-0,035
-231,015	800,000	0,034	-0,102
-230,000	-200,000	0,014	-0,063
-228,986	99,410	0,109	-0,092
-227,971	-200,000	0,008	0,123
-226,957	-200,000	0,032	0,107
-225,942	-3,390	-0,076	0,039
-224,927	-107,865	-0,064	-0,010
-223,913	-200,000	-0,001	0,026
-222,898	208,811	-0,113	-0,129
-221,884	15,757	-0,046	-0,026
-220,869	-84,741	0,155	-0,035
-219,855	-98,327	0,046	-0,009
-218,840	125,049	-0,061	0,056
-217,825	800,000	0,057	0,136
-216,811	169,231	-0,046	-0,048
-215,796	59,129	-0,050	-0,036
-214,782	-200,000	0,032	-0,107
-213,767	-200,000	-0,014	0,049
-212,752	800,000	-0,055	0,175
-211,738	140,451	-0,007	-0,007
-210,723	185,623	0,104	0,112
-209,709	-149,020	-0,050	0,003
-208,694	71,291	-0,015	-0,011
-207,679	-200,000	0,005	-0,035
-206,665	122,911	0,087	-0,079
-205,650	297,578	0,030	-0,041
-204,636	305,014	-0,111	0,151
-203,621	-109,911	0,054	-0,008
-202,606	-48,796	-0,123	-0,043
-201,592	318,406	0,011	0,016
-200,577	-69,063	0,054	0,015
-199,563	-74,267	0,195	0,051
-198,548	-132,175	-0,112	0,010
-197,533	-108,867	-0,162	0,025
-196,519	-79,459	-0,100	-0,024
-195,504	800,000	-0,027	-0,070
-194,490	-200,000	-0,017	-0,180
-193,475	-69,808	0,122	-0,034
-192,460	-93,665	-0,145	-0,029
-191,446	3,952	-0,142	0,075
-190,431	290,886	-0,147	0,194
-189,417	158,660	-0,026	-0,026
-188,402	-129,794	0,063	0,006
-187,387	16,360	0,083	-0,048
-186,373	800,000	0,012	-0,037
-185,358	-200,000	0,014	-0,097
-184,344	800,000	-0,043	0,102
-183,329	-32,046	-0,098	0,040
-182,315	-14,909	0,090	0,042
-181,300	-200,000	-0,017	-0,063
-180,285	800,000	-0,043	0,135
-179,271	310,805	-0,043	0,058
-178,256	-2,290	0,031	0,016
-177,242	800,000	0,052	0,119
-176,227	-10,688	-0,055	0,026
-175,212	-72,943	0,020	-0,005
-174,198	80,031	-0,068	0,053
-173,183	637,613	-0,065	-0,121
-172,169	-200,000	-0,001	-0,059
-171,154	45,396	0,066	0,044
-170,139	109,968	0,052	-0,045
-169,125	-200,000	0,023	-0,084
-168,110	-34,153	-0,051	-0,020
-167,096	97,134	-0,046	-0,038
-166,081	-114,134	0,147	-0,020
-165,066	800,000	-0,058	-0,132
-164,052	30,969	0,046	-0,028
-163,037	-16,040	0,054	0,025
-162,023	453,139	-0,043	-0,070
-161,008	800,000	0,080	0,204
-159,993	8,685	0,059	-0,032
-158,979	-195,366	0,065	-0,000
-157,964	563,679	-0,029	-0,051
-156,950	475,424	0,019	-0,032
-155,935	395,039	0,042	-0,063
-154,920	800,000	0,023	0,071
-153,906	111,266	0,045	-0,039
-152,891	800,000	-0,022	-0,046
-151,877	19,892	-0,113	-0,066
-150,862	92,089	-0,112	0,091
-149,847	-200,000	0,016	-0,075
-148,833	59,358	-0,092	-0,065
-147,818	87,176	0,032	0,026
-146,804	164,114	-0,086	0,088
-145,789	57,101	0,130	0,092
-144,775	-137,161	0,068	-0,006
-143,760	473,378	-0,036	-0,059
-142,745	-90,262	-0,046	-0,010
-141,731	800,000	0,047	-0,125
-140,716	186,813	-0,091	0,099
-139,702	178,672	0,093	0,099
-138,687	83,885	0,066	0,052
-137,672	800,000	-0,057	0,154
-136,658	185,561	-0,071	-0,076
-135,643	-93,385	0,055	0,011
-134,629	-93,740	0,099	-0,020
-133,614	40,878	-0,099	0,065
-132,599	800,000	0,010	0,027
-131,585	-200,000	-0,007	-0,033
-130,570	104,969	0,098	0,084
-129,556	-200,000	-0,018	0,123
-128,541	-74,029	-0,086	-0,022
-127,526	-200,000	0,006	-0,099
-126,512	800,000	-0,053	-0,128
-125,497	800,000	0,012	0,031
-124,483	394,125	0,071	0,108
-123,468	722,344	0,013	0,026
-122,453	580,085	-0,045	-0,080
-121,439	152,985	-0,094	-0,093
-120,424	180,875	-0,030	0,032
-119,410	-200,000	0,022	-0,084
-118,395	91,912	-0,036	0,029
-117,380	-101,354	-0,132	0,023
-116,366	800,000	0,072	0,230
-115,351	-125,169	-0,178	-0,020
-114,337	-200,000	-0,007	-0,087
-113,322	-98,998	0,113	0,021
-112,307	-200,000	-0,014	0,044
-111,293	-134,667	-0,085	-0,007
-110,278	-82,083	-0,195	0,046
-109,264	112,491	0,028	0,024
-108,249	-58,338	-0,105	0,033
-107,234	-183,876	0,062	-0,001
-106,220	-200,000	0,013	-0,125
-105,205	800,000	0,050	-0,141
-104,191	-14,827	0,054	-0,025
-103,176	-143,006	-0,089	-0,006
-102,162	69,061	-0,053	-0,039
-101,147	800,000	-0,030	0,095
-100,132	-78,435	0,163	0,040
-99,118	-34,764	0,094	-0,037
-98,103	-60,364	-0,130	0,040
-97,089	369,389	0,047	0,070
-96,074	618,239	-0,073	0,133
-95,059	434,562	0,015	0,023
-94,045	85,237	-0,090	0,071
-93,030	-99,978	-0,096	-0,017
-92,016	122,588	-0,101	-0,091
-91,001	403,028	0,062	0,095
-89,986	29,658	-0,083	-0,051
-88,972	800,000	0,035	0,070
-87,957	-200,000	-0,006	0,042
-86,943	241,229	0,031	0,037
-85,928	-92,304	-0,079	-0,016
-84,913	-47,165	-0,145	0,051
-83,899	800,000	-0,005	-0,012
-82,884	-27,170	-0,099	0,041
-81,870	-200,000	-0,008	0,039
-80,855	587,005	-0,039	-0,070
-79,840	263,698	-0,058	0,073
-78,826	-75,132	-0,044	-0,011
-77,811	787,271	-0,009	-0,018
-76,797	-42,497	-0,126	-0,046
-75,782	-7,743	0,031	0,015
-74,767	-158,551	0,010	-0,000
-73,753	-200,000	0,042	-0,139
-72,738	-81,519	-0,212	-0,050
-71,724	206,056	-0,060	-0,068
-70,709	800,000	0,060	-0,165
-69,694	-192,673	0,131	0,001
-68,680	-108,251	0,064	0,010
-67,665	800,000	0,046	-0,094
-66,651	-82,181	-0,068	-0,016
-65,636	203,441	0,003	-0,003
-64,622	350,335	-0,034	-0,048
-63,607	800,000	0,008	0,023
-62,592	42,492	0,048	-0,031
-61,578	515,116	-0,019	0,032
-60,563	48,509	-0,096	0,065
-59,549	66,384	-0,061	-0,045
-58,534	-97,253	-1,526	-0,285
-57,519	617,162	-0,632	-1,151
-56,505	-200,000	-0,921	-4,530
-55,490	-177,124	0,648	0,011
-54,476	800,000	4,939	11,579
-53,461	-200,000	14,772	262,609
-52,446	-200,000	697,660	2247,505
-51,432	578,704	1619,814	2876,631
-50,417	120,165	1625,665	1457,905
-49,403	78,386	1279,747	986,955
-48,388	37,743	1019,055	652,726
-47,373	22,923	979,018	578,629
-46,359	22,093	968,128	569,465
-45,344	20,793	963,624	562,573
-44,330	20,784	962,571	561,904
-43,315	20,558	961,181	560,338
-42,300	20,604	959,922	559,731
-41,286	20,670	958,810	559,276
-40,271	20,607	957,922	558,530
-39,257	20,554	956,979	557,786
-38,242	20,579	956,139	557,357
-37,227	20,569	955,394	556,867
-36,213	20,569	954,420	556,278
-35,198	20,559	953,428	555,644
-34,184	20,508	952,937	555,175
-33,169	20,561	951,744	554,628
-32,154	20,566	951,024	554,200
-31,140	20,568	949,927	553,546
-30,125	20,624	949,267	553,319
-29,111	20,529	948,556	552,579
-28,096	20,588	947,775	552,289
-27,082	20,612	947,070	551,934
-26,067	20,519	946,288	551,158
-25,052	20,614	945,394	550,918
-24,038	20,526	945,053	550,419
-23,023	20,566	944,294	550,083
-22,009	20,547	943,794	549,707
-20,994	20,624	943,139	549,552
-19,979	20,593	942,589	549,111
-18,965	20,569	941,708	548,497
-17,950	20,519	941,226	548,039
-16,936	20,504	940,783	547,709
-15,921	20,488	939,899	547,123
-14,906	20,398	939,193	546,405
-13,892	20,437	938,561	546,140
-12,877	20,433	937,971	545,762
-11,863	20,403	937,321	545,266
-10,848	20,469	936,792	545,146
-9,833	20,567	936,279	545,134
-8,819	20,452	935,844	544,497
-7,804	20,464	935,051	544,053
-6,790	20,473	934,611	543,804
-5,775	20,458	934,047	543,405
-4,760	20,450	933,350	542,953
-3,746	20,400	932,842	542,480
-2,731	20,353	931,941	541,787
-1,717	20,277	931,490	541,265
-0,702	20,317	930,707	540,913
0,313	20,072	930,041	540,576
1,327	22,657	927,819	547,316
2,342	30,245	804,390	494,919
3,356	25,001	505,880	302,349
4,371	1,439	372,916	193,036
5,386	-1,439	355,925	180,711
6,400	-2,723	349,850	176,068
7,415	-3,463	347,116	173,794
8,429	-3,515	345,515	172,916
9,444	-3,747	344,684	172,208
10,459	-3,728	344,018	171,883
11,473	-3,786	343,392	171,487
12,488	-3,459	342,801	171,562
13,502	-3,631	342,311	171,099
14,517	-3,662	341,659	170,721
15,531	-3,988	341,095	170,043
16,546	-4,038	340,555	169,699
17,561	-4,130	340,295	169,447
18,575	-3,808	339,679	169,502
19,590	-3,975	339,319	169,111
20,604	-4,086	339,126	168,872
21,619	-4,134	338,608	168,542
22,634	-3,908	338,085	168,530
23,648	-4,149	338,135	168,259
24,663	-4,020	337,606	168,131
25,677	-4,037	337,329	167,958
26,692	-4,050	336,974	167,751
27,707	-4,138	336,842	167,569
28,721	-4,040	336,382	167,439
29,736	-4,074	335,889	167,139
30,750	-4,159	335,787	166,975
31,765	-4,046	335,431	166,913
32,780	-4,043	335,118	166,746
33,794	-3,980	334,774	166,632
34,809	-4,066	334,592	166,429
35,823	-4,192	334,483	166,214
36,838	-4,085	334,046	166,106
37,853	-4,133	333,677	165,853
38,867	-3,998	333,326	165,818
39,882	-4,176	333,236	165,555
40,896	-4,073	333,039	165,560
41,911	-4,158	332,635	165,247
42,926	-4,196	332,485	165,114
43,940	-4,152	332,148	164,982
44,955	-4,222	331,701	164,667
45,969	-4,161	331,500	164,620
46,984	-4,336	331,319	164,317
47,999	-4,405	330,839	163,987
49,013	-4,599	330,661	163,664
50,028	-4,783	330,481	163,353
51,042	-4,617	330,117	163,345
52,057	-4,605	329,757	163,166
53,071	-4,604	329,515	163,033
54,086	-4,622	329,417	162,950
55,101	-4,618	329,092	162,780
56,115	-4,336	328,847	162,961
57,130	-4,041	328,971	163,340
58,144	-4,006	328,579	163,170
59,159	-3,984	328,344	163,063
60,174	-3,869	328,015	163,014
61,188	-3,817	327,808	162,956
62,203	-3,933	327,347	162,582
63,217	-4,069	327,392	162,437
64,232	-3,981	326,980	162,317
65,247	-3,823	326,784	162,382
66,261	-3,805	326,452	162,222
67,276	-4,056	326,025	161,715
68,290	-4,168	325,726	161,429
69,305	-4,251	325,563	161,241
70,320	-4,202	325,270	161,136
71,334	-3,926	324,994	161,291
72,349	-3,832	325,007	161,388
73,363	-3,897	324,726	161,162
74,378	-4,031	324,443	160,858
75,393	-3,988	324,140	160,741
76,407	-4,005	323,910	160,594
77,422	-4,082	323,596	160,339
78,436	-3,922	323,455	160,432
79,451	-3,884	323,179	160,322
80,466	-4,087	322,869	159,931
81,480	-4,220	322,493	159,584
82,495	-4,224	322,232	159,436
83,509	-4,153	322,003	159,386
84,524	-4,368	321,852	159,062
85,539	-4,211	321,446	159,019
86,553	-4,279	321,360	158,887
87,568	-4,308	321,131	158,728
88,582	-4,079	320,712	158,757
89,597	-4,233	320,591	158,515
90,611	-4,173	320,522	158,532
91,626	-4,157	320,326	158,439
92,641	-4,042	319,883	158,331
93,655	-4,011	319,660	158,241
94,670	-4,107	319,349	157,968
95,684	-3,994	319,211	158,009
96,699	-4,081	318,949	157,770
97,714	-4,194	318,736	157,528
98,728	-4,258	318,336	157,246
99,743	-4,321	318,116	157,055
100,757	-4,239	317,847	156,997
101,772	-4,195	317,722	156,970
102,787	-4,231	317,541	156,827
103,801	-4,310	317,440	156,677
104,816	-4,177	317,096	156,638
105,830	-4,165	317,028	156,602
106,845	-4,056	316,743	156,566
107,860	-4,032	316,550	156,483
108,874	-3,907	316,018	156,340
109,889	-4,093	316,024	156,129
110,903	-4,071	315,762	156,010
111,918	-4,065	315,512	155,879
112,933	-3,994	315,319	155,845
113,947	-4,091	315,044	155,591
114,962	-4,161	314,923	155,443
115,976	-3,991	314,681	155,492
116,991	-4,036	314,320	155,251
118,006	-4,092	314,208	155,123
119,020	-4,019	314,086	155,125
120,035	-3,948	313,949	155,121
121,049	-4,060	313,744	154,886
122,064	-3,914	313,396	154,856
123,079	-4,066	313,157	154,561
124,093	-4,177	313,058	154,381
125,108	-4,182	312,659	154,166
126,122	-4,325	312,367	153,856
127,137	-4,434	312,088	153,589
128,151	-4,418	312,080	153,588
129,166	-4,328	311,882	153,572
130,181	-4,262	311,564	153,472
131,195	-4,309	311,318	153,288
132,210	-4,279	311,009	153,153
133,224	-4,100	310,772	153,212
134,239	-4,013	310,657	153,233
135,254	-4,048	310,516	153,114
136,268	-4,075	310,150	152,890
137,283	-4,204	309,718	152,528
138,297	-4,261	309,668	152,430
139,312	-4,089	309,295	152,414
140,327	-4,115	309,217	152,335
141,341	-3,843	309,189	152,593
142,356	-3,871	309,119	152,515
143,370	-3,767	308,867	152,486
144,385	-3,755	308,557	152,332
145,400	-3,793	308,417	152,210
146,414	-3,640	308,136	152,217
147,429	-3,625	307,827	152,066
148,443	-3,761	307,686	151,842
149,458	-3,844	307,542	151,671
150,473	-3,706	307,360	151,711
151,487	-3,738	306,973	151,473
152,502	-3,779	306,939	151,400
153,516	-3,714	306,560	151,267
154,531	-3,640	306,390	151,247
155,546	-3,791	306,192	150,979
156,560	-3,857	305,870	150,738
157,575	-3,770	305,562	150,663
158,589	-3,918	305,409	150,421
159,604	-3,782	305,253	150,472
160,619	-3,686	305,161	150,513
161,633	-3,723	304,872	150,318
162,648	-3,762	304,695	150,177
163,662	-3,947	304,550	149,901
164,677	-3,796	304,298	149,919
165,692	-3,901	304,133	149,716
166,706	-3,765	304,093	149,824
167,721	-3,696	303,838	149,756
168,735	-3,684	303,583	149,629
169,750	-3,553	303,493	149,706
170,764	-3,673	303,261	149,455
171,779	-3,869	303,077	149,149
172,794	-3,533	302,739	149,314
173,808	-3,750	302,535	148,979
174,823	-4,001	302,055	148,472
175,837	-4,186	302,048	148,266
176,852	-3,883	301,983	148,530
177,867	-3,801	301,778	148,501
178,881	-3,680	301,654	148,550
179,896	-3,713	301,367	148,361
180,910	-3,636	301,230	148,359
181,925	-3,602	300,909	148,223
182,940	-3,589	300,872	148,205
183,954	-3,797	300,683	147,886
184,969	-3,662	300,377	147,860
185,983	-3,707	300,248	147,737
186,998	-3,458	300,011	147,861
188,013	-3,660	299,799	147,538
189,027	-3,769	299,598	147,315
190,042	-3,527	299,406	147,453
191,056	-3,449	299,303	147,468
192,071	-3,361	298,993	147,391
193,086	-3,480	298,751	147,138
194,100	-3,532	298,576	146,987
195,115	-3,452	298,301	146,919
196,129	-3,493	298,086	146,759
197,144	-3,549	297,844	146,570
198,159	-3,650	297,836	146,452
199,173	-3,645	297,578	146,317
200,188	-3,456	297,260	146,337
201,202	-3,525	297,026	146,140
202,217	-3,979	296,672	145,497
203,232	-4,092	296,430	145,252
204,246	-3,874	296,316	145,402
205,261	-3,519	296,247	145,710
206,275	-3,680	296,006	145,417
207,290	-3,666	296,045	145,438
208,304	-3,602	295,656	145,298
209,319	-3,632	295,535	145,195
210,334	-3,576	295,213	145,080
211,348	-3,704	295,149	144,908
212,363	-3,637	295,005	144,891
213,377	-3,608	294,696	144,755
214,392	-3,705	294,554	144,577
215,407	-3,746	294,230	144,364
216,421	-3,783	293,971	144,187
217,436	-3,989	293,911	143,940
218,450	-3,845	293,619	143,927
219,465	-3,882	293,558	143,848
220,480	-3,703	293,308	143,889
221,494	-3,593	292,975	143,822
222,509	-3,851	292,990	143,561
223,523	-3,579	292,789	143,719
224,538	-3,708	292,586	143,479
225,553	-3,656	292,467	143,459
226,567	-3,676	292,231	143,311
227,582	-3,735	292,054	143,153
228,596	-3,675	291,910	143,129
229,611	-3,497	291,590	143,134
230,626	-3,554	291,463	143,003
231,640	-3,874	291,105	142,501
232,655	-4,037	290,717	142,139
233,669	-4,056	290,557	142,029
234,684	-3,927	290,472	142,101
235,699	-4,024	290,274	141,896
236,713	-3,905	290,189	141,959
237,728	-3,915	290,121	141,903
238,742	-3,910	289,927	141,800
239,757	-3,695	289,722	141,897
240,772	-3,634	289,543	141,856
241,786	-3,824	289,437	141,606
242,801	-3,800	289,172	141,488
243,815	-3,847	288,918	141,305
244,830	-3,979	288,808	141,110
245,844	-3,906	288,483	141,011
246,859	-3,903	288,146	140,836
247,874	-3,736	288,104	140,965
248,888	-3,696	287,915	140,898
249,903	-3,650	287,771	140,859
250,917	-3,345	287,523	141,020
251,932	-3,321	287,578	141,058
252,947	-2,875	287,726	141,550
253,961	-3,098	287,108	141,017
254,976	-2,418	287,632	141,920
255,990	0,054	288,352	144,656
257,005	0,855	288,373	145,428
258,020	1,984	288,799	146,723
259,034	2,830	288,890	147,575
260,049	2,750	288,726	147,401
261,063	2,623	288,393	147,094
262,078	2,935	288,387	147,379
263,093	3,810	288,284	148,157
264,107	3,414	288,290	147,766
265,122	3,594	288,120	147,839
266,136	3,510	288,137	147,753
267,151	3,571	287,734	147,592
268,166	3,433	287,606	147,381
269,180	3,592	287,270	147,348
270,195	3,437	287,088	147,093
271,209	3,452	286,855	146,974
272,224	3,315	286,897	146,851
273,239	3,245	286,490	146,563
274,253	3,245	286,240	146,422
275,268	3,512	286,225	146,657
276,282	3,440	285,991	146,456
277,297	3,327	285,833	146,253
278,312	3,400	285,820	146,303
279,326	3,613	285,645	146,404
280,341	3,513	285,388	146,164
281,355	3,431	285,163	145,957
282,370	3,369	284,918	145,759
283,384	3,420	284,693	145,681
284,399	3,441	284,653	145,667
285,414	3,400	284,425	145,498
286,428	3,348	284,230	145,336
287,443	3,375	283,831	145,145
288,457	3,082	283,717	144,795
289,472	3,184	283,434	144,735
290,487	3,195	283,279	144,653
291,501	3,009	283,071	144,359
292,516	2,698	282,889	143,959
293,530	2,698	282,671	143,836
294,545	2,979	282,634	144,069
295,560	3,325	282,398	144,262
296,574	2,928	282,320	143,835
297,589	3,001	282,151	143,805
298,603	3,345	282,112	144,096
299,618	3,437	281,886	144,054
300,633	3,337	281,626	143,815
301,647	3,348	281,594	143,796
302,662	3,301	281,356	143,617
303,676	3,288	280,803	143,310
304,691	2,865	280,636	142,816
305,706	2,554	280,449	142,417
306,720	2,476	280,265	142,238
307,735	2,622	280,129	142,293
308,749	2,705	280,054	142,320
309,764	2,878	279,833	142,356
310,779	2,682	279,522	142,003
311,793	2,491	279,413	141,757
312,808	2,723	279,153	141,828
313,822	2,855	279,041	141,882
314,837	2,537	278,922	141,513
315,852	2,407	278,697	141,265
316,866	2,735	278,422	141,417
317,881	2,743	278,277	141,338
318,895	2,656	277,940	141,074
319,910	2,344	277,842	140,723
320,925	2,507	277,670	140,774
321,939	2,632	277,488	140,785
322,954	2,835	277,649	141,042
323,968	2,773	277,405	140,848
324,983	2,860	277,191	140,807
325,997	3,035	277,001	140,859
327,012	3,030	276,875	140,778
328,027	3,078	276,566	140,652
329,041	2,838	276,602	140,437
330,056	2,901	276,430	140,395
331,070	2,903	276,213	140,275
332,085	2,647	275,824	139,830
333,100	2,914	275,780	140,040
334,114	2,883	275,621	139,918
335,129	2,672	275,298	139,549
336,143	3,035	275,239	139,839
337,158	3,270	275,110	139,976
338,173	3,104	274,805	139,656
339,187	2,814	274,658	139,304
340,202	2,918	274,506	139,309
341,216	3,080	274,325	139,353
342,231	2,849	274,170	139,051
343,246	2,937	273,935	138,999
344,260	2,907	273,838	138,911
345,275	2,995	273,851	138,985
346,289	3,408	273,606	139,224
347,304	3,318	273,467	139,059
348,319	2,963	273,181	138,579
349,333	3,035	273,067	138,574
350,348	3,103	272,959	138,569
351,362	3,393	272,753	138,714
352,377	3,158	272,627	138,425
353,392	3,257	272,443	138,409
354,406	3,380	272,215	138,391
355,421	191,275	1329,140	1402,529
356,435	154,527	1457,965	1402,620
