DTS Sentinel unit serial number:	SN410029Multiplexer serial number:	ORYXHardware model number:	OX2-SRSoftware version number:	ORYX F/W v4,00 Oryx Data Collector v3.7.2.0data status	okinstallation	B4 Nyhavnadifferential loss correction	single-endedforward channel	channel 2reverse channel	N/Adate	2023/12/16time	07:20:13forward acquisition time	300,00reverse acquisition time	0,00gamma	499,1914k internal	0,3127k external	0,3127temperature offset calibration	1,0000default loss term (dB/km)	0,3820temperature slope calibration	1,0000multiplexer offset coefficient	1,0000multiplexer slope coefficient	1,0000fibre end	0,00T internal ref (°C)	22,35T ext. ref 1 (°C)	7,53T ext. ref 2 (°C)	7,70length (m)	temperature (°C)	Stokes	anti-Stokes-744,400	-157,662	-0,139	-0,006
-743,385	55,839	-0,160	0,115
-742,371	120,761	0,135	0,125
-741,356	424,000	-0,150	0,240
-740,342	-200,000	-0,030	0,120
-739,327	218,240	-0,139	0,165
-738,312	62,268	0,045	0,033
-737,298	-54,060	-0,198	0,067
-736,283	155,332	0,121	-0,124
-735,269	-120,151	-0,108	0,014
-734,254	560,099	0,062	-0,113
-733,239	-37,899	-0,425	-0,167
-732,225	43,814	0,091	0,062
-731,210	332,185	0,042	0,061
-730,196	493,119	0,077	-0,131
-729,181	-200,000	-0,004	0,117
-728,167	5,746	-0,095	-0,052
-727,152	117,500	-0,058	-0,054
-726,137	-200,000	-0,002	-0,036
-725,123	234,362	-0,052	-0,063
-724,108	-131,244	-0,028	-0,003
-723,094	-9,850	-0,086	0,043
-722,079	-200,000	0,023	-0,125
-721,064	80,006	-0,056	-0,045
-720,050	-154,987	0,070	0,003
-719,035	92,402	-0,041	0,035
-718,021	800,000	0,063	0,142
-717,006	13,266	-0,072	-0,042
-715,991	293,187	-0,043	-0,059
-714,977	-200,000	-0,002	-0,052
-713,962	800,000	-0,014	0,035
-712,948	303,091	0,034	0,047
-711,933	193,311	-0,059	0,066
-710,918	-23,945	0,122	0,054
-709,904	195,057	0,042	-0,047
-708,889	-132,021	-0,095	0,009
-707,875	-200,000	-0,006	-0,055
-706,860	-141,624	0,073	-0,005
-705,845	-94,831	0,151	-0,030
-704,831	61,900	-0,096	0,071
-703,816	-200,000	-0,019	0,091
-702,802	178,164	-0,071	-0,077
-701,787	13,380	-0,071	0,041
-700,772	800,000	0,033	0,102
-699,758	382,591	0,049	-0,075
-698,743	208,837	0,102	0,119
-697,729	800,000	-0,066	0,150
-696,714	76,947	0,076	0,060
-695,699	47,633	-0,166	-0,115
-694,685	-101,251	-0,143	0,026
-693,670	17,281	0,096	-0,057
-692,656	623,377	-0,030	0,057
-691,641	43,285	-0,059	-0,040
-690,627	-200,000	0,008	-0,099
-689,612	74,333	-0,047	-0,037
-688,597	343,445	-0,083	-0,121
-687,583	-200,000	0,013	-0,095
-686,568	800,000	0,044	-0,137
-685,554	-200,000	-0,030	-0,173
-684,539	565,963	-0,026	0,047
-683,524	277,465	0,058	0,077
-682,510	800,000	-0,019	0,043
-681,495	-200,000	-0,023	0,096
-680,481	-200,000	0,001	0,008
-679,466	-62,856	-0,102	0,031
-678,451	-190,747	-0,042	-0,000
-677,437	800,000	-0,034	0,074
-676,422	800,000	0,059	0,178
-675,408	-33,378	-0,094	-0,039
-674,393	-29,215	-0,087	0,037
-673,378	-44,304	-0,130	0,048
-672,364	170,321	-0,106	0,112
-671,349	800,000	0,030	-0,075
-670,335	102,121	-0,099	0,086
-669,320	119,528	0,053	-0,049
-668,305	370,975	-0,024	-0,036
-667,291	-200,000	-0,003	-0,163
-666,276	378,199	-0,131	-0,199
-665,262	800,000	-0,055	-0,129
-664,247	127,637	0,048	0,045
-663,232	80,028	-0,054	0,043
-662,218	255,490	-0,028	0,035
-661,203	800,000	0,012	-0,036
-660,189	800,000	0,037	0,121
-659,174	-34,088	-0,041	-0,017
-658,159	61,852	-0,137	0,101
-657,145	-159,237	-0,140	0,006
-656,130	-200,000	-0,019	-0,062
-655,116	-200,000	0,004	0,092
-654,101	539,949	0,034	0,060
-653,086	141,040	-0,036	-0,036
-652,072	800,000	-0,026	0,076
-651,057	-9,858	-0,101	0,050
-650,043	-200,000	-0,006	-0,084
-649,028	87,361	0,077	0,063
-648,014	354,097	-0,013	0,019
-646,999	-45,441	-0,083	0,030
-645,984	-200,000	0,015	0,052
-644,970	179,396	-0,091	-0,098
-643,955	270,630	-0,019	-0,024
-642,941	146,882	0,085	-0,084
-641,926	-200,000	-0,001	0,116
-640,911	74,540	-0,059	-0,046
-639,897	-200,000	-0,003	-0,039
-638,882	201,881	0,042	0,048
-637,868	-200,000	0,008	0,104
-636,853	-17,959	0,073	-0,034
-635,838	-127,467	-0,130	-0,014
-634,824	234,674	-0,055	0,067
-633,809	-188,359	0,071	-0,001
-632,795	82,449	-0,037	-0,030
-631,780	-27,367	0,141	0,060
-630,765	-200,000	0,031	0,121
-629,751	800,000	0,023	-0,060
-628,736	-200,000	0,019	-0,069
-627,722	35,479	-0,062	-0,040
-626,707	93,330	-0,037	-0,031
-625,692	-16,108	0,162	0,076
-624,678	-21,768	-0,047	0,021
-623,663	223,262	-0,064	-0,077
-622,649	37,651	-0,119	-0,078
-621,634	453,540	-0,049	0,080
-620,619	-200,000	-0,039	0,145
-619,605	-119,263	0,083	0,011
-618,590	800,000	0,027	0,061
-617,576	435,288	0,047	0,076
-616,561	45,986	-0,013	-0,009
-615,546	259,500	0,052	-0,067
-614,532	459,277	-0,068	0,112
-613,517	-34,577	0,045	-0,018
-612,503	374,607	-0,030	-0,045
-611,488	84,043	-0,060	-0,049
-610,474	-145,027	0,042	-0,003
-609,459	131,614	0,051	0,048
-608,444	214,226	-0,010	-0,012
-607,430	-200,000	-0,012	0,068
-606,415	-89,578	-0,110	0,024
-605,401	17,734	0,047	-0,028
-604,386	5,175	0,175	-0,095
-603,371	61,387	0,052	0,038
-602,357	-87,283	0,088	0,020
-601,342	-200,000	-0,004	0,024
-600,328	330,823	0,100	-0,144
-599,313	787,919	-0,060	-0,122
-598,298	-200,000	0,023	0,102
-597,284	340,154	0,080	0,116
-596,269	12,715	0,051	-0,029
-595,255	365,305	0,055	-0,082
-594,240	74,500	-0,034	-0,026
-593,225	53,083	-0,099	-0,070
-592,211	-134,917	-0,191	0,017
-591,196	315,843	0,068	-0,095
-590,182	151,769	0,060	-0,061
-589,167	-79,073	-0,058	-0,014
-588,152	800,000	0,037	0,101
-587,138	-16,931	0,082	0,038
-586,123	-200,000	-0,017	-0,082
-585,109	-51,713	-0,126	0,043
-584,094	407,636	-0,067	-0,104
-583,079	-200,000	-0,041	-0,232
-582,065	55,073	0,103	-0,073
-581,050	-200,000	-0,015	0,062
-580,036	-106,110	-0,092	0,015
-579,021	-9,071	-0,078	0,039
-578,006	-200,000	-0,006	-0,079
-576,992	129,450	0,152	-0,144
-575,977	-200,000	-0,000	-0,038
-574,963	-17,265	-0,048	-0,022
-573,948	-200,000	-0,008	-0,040
-572,934	92,537	-0,075	0,062
-571,919	-68,171	-0,160	-0,046
-570,904	127,190	0,027	-0,025
-569,890	800,000	-0,016	-0,047
-568,875	-200,000	0,023	0,143
-567,861	568,417	-0,076	0,138
-566,846	272,358	0,025	-0,032
-565,831	65,647	0,020	-0,015
-564,817	800,000	-0,032	0,080
-563,802	-6,877	-0,054	-0,027
-562,788	-19,270	-0,089	0,040
-561,773	17,620	0,042	-0,025
-560,758	-18,841	-0,006	0,003
-559,744	91,886	-0,064	0,053
-558,729	-106,072	0,127	-0,021
-557,715	-136,727	0,058	0,005
-556,700	-200,000	0,003	-0,154
-555,685	800,000	0,052	-0,159
-554,671	451,119	-0,061	0,100
-553,656	18,339	0,054	-0,032
-552,642	231,701	0,034	-0,041
-551,627	180,157	0,092	-0,100
-550,612	343,386	-0,060	-0,087
-549,598	-89,353	-0,093	-0,020
-548,583	14,194	-0,023	0,013
-547,569	-142,945	0,107	-0,008
-546,554	-76,908	-0,117	0,030
-545,539	800,000	0,051	-0,110
-544,525	-200,000	0,027	-0,123
-543,510	-172,913	-0,053	-0,001
-542,496	-200,000	0,010	0,052
-541,481	800,000	0,064	-0,156
-540,466	12,971	-0,128	0,073
-539,452	252,669	0,058	-0,073
-538,437	353,100	0,021	-0,030
-537,423	-200,000	0,018	0,063
-536,408	-50,761	-0,093	0,032
-535,393	3,064	0,096	-0,051
-534,379	689,437	0,032	-0,062
-533,364	-34,175	-0,066	-0,027
-532,350	159,580	0,041	-0,042
-531,335	173,100	0,140	0,149
-530,321	-40,094	0,172	0,066
-529,306	-200,000	-0,000	-0,109
-528,291	-200,000	0,015	-0,092
-527,277	544,667	0,045	-0,080
-526,262	-54,855	0,149	0,049
-525,248	800,000	-0,006	0,015
-524,233	-200,000	0,043	-0,168
-523,218	-53,642	-0,180	0,060
-522,204	4,091	0,111	-0,060
-521,189	365,696	-0,030	0,045
-520,175	-121,001	-0,046	0,006
-519,160	91,351	-0,089	-0,074
-518,145	328,688	0,069	-0,099
-517,131	-46,343	0,095	-0,034
-516,116	-19,107	0,100	0,046
-515,102	-200,000	-0,008	-0,123
-514,087	800,000	-0,037	-0,119
-513,072	76,521	0,046	-0,036
-512,058	800,000	0,045	-0,111
-511,043	15,799	0,136	-0,078
-510,029	23,971	0,042	0,025
-509,014	205,984	0,041	0,048
-507,999	175,982	0,084	0,090
-506,985	-200,000	0,007	-0,027
-505,970	-68,824	0,077	-0,022
-504,956	-47,753	-0,171	0,061
-503,941	52,753	0,098	0,069
-502,926	-200,000	0,012	0,096
-501,912	228,124	0,049	-0,059
-500,897	-63,681	-0,077	-0,023
-499,883	-200,000	-0,015	0,111
-498,868	-200,000	-0,003	-0,057
-497,853	-200,000	0,001	0,117
-496,839	800,000	0,059	0,159
-495,824	-25,174	-0,041	0,018
-494,810	-91,653	-0,042	-0,009
-493,795	141,369	-0,054	0,052
-492,781	-92,817	-0,044	0,009
-491,766	800,000	0,010	-0,028
-490,751	338,693	0,062	-0,089
-489,737	63,349	0,091	0,067
-488,722	82,124	-0,044	-0,035
-487,708	169,037	0,146	0,153
-486,693	-95,344	-0,133	0,026
-485,678	160,976	0,091	-0,094
-484,664	-200,000	-0,009	-0,119
-483,649	213,781	-0,057	-0,066
-482,635	188,952	0,023	-0,025
-481,620	-200,000	0,016	0,111
-480,605	-200,000	0,008	0,153
-479,591	706,278	-0,044	-0,086
-478,576	67,303	-0,111	0,084
-477,562	-200,000	-0,029	0,117
-476,547	-200,000	0,029	-0,104
-475,532	800,000	0,031	-0,081
-474,518	218,063	-0,029	-0,034
-473,503	800,000	0,013	-0,032
-472,489	-51,752	-0,085	-0,029
-471,474	-200,000	-0,001	0,040
-470,459	78,714	-0,076	-0,060
-469,445	-200,000	-0,016	0,054
-468,430	-146,890	-0,042	0,003
-467,416	-200,000	0,025	0,095
-466,401	-200,000	0,008	0,104
-465,386	206,912	0,047	-0,054
-464,372	-200,000	-0,006	0,116
-463,357	-105,478	-0,104	-0,017
-462,343	-200,000	0,016	-0,142
-461,328	-44,696	-0,065	-0,024
-460,313	-200,000	-0,007	-0,128
-459,299	800,000	-0,016	-0,045
-458,284	-200,000	-0,030	0,120
-457,270	-64,561	0,088	0,026
-456,255	-67,881	-0,035	0,010
-455,241	-16,975	-0,181	0,084
-454,226	-117,448	-0,070	-0,009
-453,211	-200,000	0,009	0,131
-452,197	-32,624	0,133	0,054
-451,182	-94,484	-0,029	0,006
-450,168	28,211	0,148	0,092
-449,153	800,000	-0,049	0,126
-448,138	110,982	-0,139	0,124
-447,124	800,000	0,048	0,102
-446,109	361,100	-0,079	0,116
-445,095	-200,000	-0,046	0,173
-444,080	343,969	-0,038	-0,055
-443,065	800,000	-0,037	0,083
-442,051	-200,000	0,026	-0,090
-441,036	1,304	-0,106	-0,056
-440,022	146,773	0,018	0,018
-439,007	-2,375	0,122	-0,063
-437,992	800,000	0,002	0,004
-436,978	-200,000	-0,033	0,185
-435,963	485,243	-0,050	0,085
-434,949	159,435	0,013	0,013
-433,934	-58,408	-0,079	0,025
-432,919	-114,820	-0,140	-0,019
-431,905	251,680	-0,047	-0,059
-430,890	10,213	0,019	0,010
-429,876	-132,942	0,144	0,013
-428,861	-59,116	0,062	0,019
-427,846	-200,000	0,021	-0,146
-426,832	163,140	-0,055	0,056
-425,817	773,774	-0,032	0,065
-424,803	-29,820	0,077	-0,032
-423,788	338,516	0,040	-0,058
-422,773	50,711	0,114	0,079
-421,759	-200,000	0,005	-0,025
-420,744	233,710	0,051	0,062
-419,730	-32,167	-0,119	-0,049
-418,715	11,379	-0,027	-0,015
-417,701	-106,705	0,112	0,018
-416,686	-200,000	-0,014	-0,172
-415,671	-200,000	-0,001	0,138
-414,657	-31,235	0,169	-0,070
-413,642	800,000	0,048	0,122
-412,628	94,601	-0,093	-0,078
-411,613	-200,000	0,003	0,076
-410,598	67,779	-0,029	-0,022
-409,584	-200,000	0,003	0,018
-408,569	-200,000	-0,001	-0,080
-407,555	124,387	-0,022	-0,020
-406,540	800,000	0,009	-0,021
-405,525	17,920	-0,093	0,054
-404,511	762,356	0,057	0,113
-403,496	-155,606	-0,161	0,007
-402,482	688,470	0,045	0,088
-401,467	17,149	-0,051	-0,030
-400,452	394,987	-0,007	0,011
-399,438	-28,615	-0,108	-0,045
-398,423	0,493	-0,075	0,039
-397,409	-11,266	0,171	-0,083
-396,394	-79,823	0,096	0,024
-395,379	-91,768	0,080	0,017
-394,365	-200,000	-0,013	-0,083
-393,350	-40,074	0,113	0,043
-392,336	-101,499	-0,077	-0,014
-391,321	103,088	0,022	0,019
-390,306	47,957	-0,038	0,026
-389,292	369,015	0,029	0,043
-388,277	800,000	0,038	-0,086
-387,263	33,425	0,077	-0,049
-386,248	16,898	-0,169	0,098
-385,233	-138,489	0,080	0,006
-384,219	235,617	-0,044	-0,054
-383,204	329,023	-0,072	-0,102
-382,190	169,021	0,053	-0,056
-381,175	-140,002	-0,139	-0,011
-380,160	800,000	-0,048	-0,121
-379,146	33,760	0,037	-0,024
-378,131	800,000	0,054	0,116
-377,117	-20,655	-0,113	0,051
-376,102	-10,466	-0,139	-0,067
-375,088	-88,128	0,046	0,010
-374,073	-62,621	0,009	-0,003
-373,058	-38,781	0,084	0,033
-372,044	-200,000	0,006	-0,095
-371,029	-134,486	-0,159	-0,014
-370,015	-193,522	0,140	-0,001
-369,000	12,254	0,080	-0,045
-367,985	-106,521	-0,033	0,005
-366,971	164,947	-0,103	0,107
-365,956	-200,000	-0,013	0,051
-364,942	-13,995	0,078	0,037
-363,927	-200,000	-0,000	0,086
-362,912	-57,000	0,014	0,005
-361,898	-200,000	-0,007	0,115
-360,883	134,892	-0,037	0,035
-359,869	-200,000	-0,015	-0,063
-358,854	737,441	-0,011	-0,022
-357,839	-57,624	-0,228	-0,073
-356,825	-200,000	0,032	0,174
-355,810	-200,000	0,023	0,086
-354,796	800,000	0,050	0,117
-353,781	132,321	0,042	0,039
-352,766	300,276	-0,047	-0,064
-351,752	-200,000	0,016	-0,085
-350,737	344,416	-0,052	0,075
-349,723	-109,389	0,143	0,022
-348,708	28,020	-0,163	0,101
-347,693	30,542	0,035	0,022
-346,679	23,399	0,044	-0,026
-345,664	-200,000	0,016	-0,060
-344,650	500,403	0,073	0,123
-343,635	131,820	-0,038	-0,036
-342,620	800,000	-0,046	0,133
-341,606	719,347	0,074	0,144
-340,591	-6,331	0,054	0,027
-339,577	-12,125	-0,100	-0,048
-338,562	244,077	0,116	-0,143
-337,548	-107,347	-0,056	0,009
-336,533	319,988	0,041	0,057
-335,518	32,641	0,053	-0,033
-334,504	-54,598	0,007	0,002
-333,489	164,155	0,038	-0,040
-332,475	25,846	0,105	0,064
-331,460	-126,690	-0,096	0,010
-330,445	800,000	0,059	-0,179
-329,431	151,174	-0,078	-0,077
-328,416	-200,000	0,032	0,120
-327,402	88,455	0,034	-0,028
-326,387	-200,000	-0,009	-0,113
-325,372	63,943	-0,087	-0,064
-324,358	-2,931	0,139	0,071
-323,343	-200,000	-0,019	-0,089
-322,329	-200,000	0,020	0,111
-321,314	171,137	-0,091	0,096
-320,299	-189,830	0,054	0,000
-319,285	-55,173	0,044	-0,014
-318,270	-160,576	-0,155	-0,006
-317,256	59,328	-0,083	-0,060
-316,241	243,846	0,085	0,104
-315,226	-41,875	0,108	-0,040
-314,212	363,555	-0,093	0,137
-313,197	124,223	0,094	0,086
-312,183	-200,000	0,009	0,096
-311,168	10,100	-0,051	-0,028
-310,153	251,025	0,074	-0,092
-309,139	-200,000	0,022	-0,116
-308,124	-68,556	0,072	-0,020
-307,110	-139,351	0,096	-0,007
-306,095	-63,922	-0,044	-0,013
-305,080	664,138	-0,033	0,063
-304,066	222,022	0,021	0,025
-303,051	-200,000	0,009	-0,114
-302,037	-80,789	-0,095	0,023
-301,022	-51,451	-0,159	0,054
-300,008	-30,096	-0,095	0,039
-298,993	78,571	-0,147	-0,115
-297,978	141,404	-0,056	0,055
-296,964	-141,677	-0,049	0,004
-295,949	800,000	-0,021	0,051
-294,935	11,266	-0,056	0,031
-293,920	-200,000	-0,008	0,095
-292,905	-110,833	0,095	-0,014
-291,891	170,653	-0,051	0,053
-290,876	-67,004	0,059	0,017
-289,862	-15,899	0,121	0,056
-288,847	73,171	-0,065	0,050
-287,832	-137,393	-0,063	-0,005
-286,818	0,141	0,062	-0,032
-285,803	-85,490	0,152	0,034
-284,789	-200,000	0,012	0,078
-283,774	-68,852	-0,113	-0,032
-282,759	379,345	0,032	-0,048
-281,745	-200,000	-0,018	-0,140
-280,730	-200,000	-0,022	-0,137
-279,716	-145,940	0,098	-0,006
-278,701	69,792	-0,043	0,033
-277,686	-1,219	0,048	-0,025
-276,672	-17,507	0,055	0,025
-275,657	-200,000	0,021	0,086
-274,643	77,424	0,120	0,093
-273,628	64,893	-0,075	-0,055
-272,613	172,504	-0,102	-0,108
-271,599	-77,571	0,099	-0,025
-270,584	-200,000	-0,002	-0,027
-269,570	105,921	-0,049	0,042
-268,555	-200,000	0,000	0,055
-267,540	800,000	-0,052	-0,136
-266,526	-200,000	0,030	0,137
-265,511	226,233	-0,030	-0,035
-264,497	-157,452	0,057	-0,002
-263,482	-200,000	0,016	-0,076
-262,467	435,358	0,040	-0,063
-261,453	38,656	-0,073	0,047
-260,438	162,959	-0,041	-0,042
-259,424	255,419	-0,019	0,023
-258,409	416,583	0,052	-0,081
-257,395	158,623	0,080	-0,082
-256,380	280,596	-0,135	0,177
-255,365	-200,000	-0,025	0,108
-254,351	-135,876	0,046	0,004
-253,336	212,176	-0,044	0,050
-252,322	114,226	-0,059	0,052
-251,307	-47,312	0,095	0,033
-250,292	-85,572	-0,105	0,024
-249,278	-41,875	0,111	0,041
-248,263	68,024	0,073	-0,055
-247,249	-142,306	-0,191	-0,014
-246,234	-22,973	0,026	0,012
-245,219	-135,497	-0,137	-0,012
-244,205	685,781	-0,075	-0,143
-243,190	150,299	0,101	-0,100
-242,176	-200,000	-0,008	-0,079
-241,161	731,112	-0,059	0,115
-240,146	-200,000	-0,020	0,075
-239,132	-33,620	-0,057	0,023
-238,117	96,582	-0,120	-0,100
-237,103	11,823	-0,076	0,042
-236,088	5,819	-0,012	0,006
-235,073	-53,900	0,077	0,025
-234,059	-34,533	0,147	0,058
-233,044	-163,730	0,026	0,001
-232,030	-100,474	-0,092	0,016
-231,015	48,377	0,048	0,033
-230,000	-200,000	0,018	-0,189
-228,986	332,743	0,036	-0,051
-227,971	-32,146	-0,056	0,023
-226,957	-200,000	-0,036	-0,154
-225,942	317,692	-0,025	-0,035
-224,927	-8,070	-0,006	0,003
-223,913	-75,446	0,036	-0,009
-222,898	234,726	0,153	-0,185
-221,884	-200,000	0,008	-0,040
-220,869	800,000	0,034	-0,099
-219,855	11,770	-0,091	-0,051
-218,840	-146,593	-0,033	0,002
-217,825	800,000	-0,062	-0,145
-216,811	80,070	0,082	-0,064
-215,796	-200,000	-0,006	-0,107
-214,782	171,767	-0,040	0,042
-213,767	150,183	-0,097	0,096
-212,752	800,000	-0,033	0,076
-211,738	319,130	-0,072	0,099
-210,723	800,000	0,018	-0,040
-209,709	441,790	-0,048	-0,076
-208,694	103,371	0,014	-0,012
-207,679	193,591	0,063	0,069
-206,665	800,000	0,056	0,145
-205,650	-72,985	0,131	0,035
-204,636	50,394	0,110	-0,076
-203,621	164,925	0,133	-0,137
-202,606	800,000	0,027	-0,083
-201,592	-74,425	-0,089	0,023
-200,577	-200,000	0,004	-0,130
-199,563	182,537	-0,037	-0,040
-198,548	496,002	-0,041	0,069
-197,533	-21,281	0,133	0,059
-196,519	33,328	0,045	-0,029
-195,504	12,228	-0,091	0,051
-194,490	800,000	-0,046	-0,113
-193,475	118,124	-0,105	-0,094
-192,460	211,030	0,039	-0,045
-191,446	497,891	-0,053	0,089
-190,431	128,610	0,096	0,090
-189,417	788,589	-0,036	0,073
-188,402	142,151	0,048	-0,047
-187,387	593,361	-0,059	0,107
-186,373	-125,326	-0,085	0,009
-185,358	800,000	-0,008	-0,024
-184,344	-200,000	-0,014	-0,104
-183,329	-200,000	0,029	0,105
-182,315	464,687	0,063	0,103
-181,300	-185,804	0,173	-0,002
-180,285	-54,434	0,131	-0,043
-179,271	800,000	0,028	-0,084
-178,256	31,393	-0,050	0,031
-177,242	-78,994	-0,094	0,023
-176,227	-117,302	0,051	0,007
-175,212	489,994	0,029	-0,049
-174,198	49,667	-0,098	0,067
-173,183	189,620	-0,114	0,124
-172,169	-56,717	-0,041	0,013
-171,154	800,000	-0,014	0,036
-170,139	800,000	0,044	0,090
-169,125	-200,000	-0,016	0,111
-168,110	-200,000	0,021	0,136
-167,096	-25,665	-0,107	-0,046
-166,081	-55,222	0,026	-0,009
-165,066	354,794	0,050	0,073
-164,052	217,740	-0,014	0,016
-163,037	110,147	0,069	-0,061
-162,023	592,142	-0,050	-0,090
-161,008	-45,479	-0,092	-0,033
-159,993	665,938	0,052	-0,098
-158,979	471,286	0,053	0,088
-157,964	214,575	-0,083	0,096
-156,950	228,800	0,103	-0,122
-155,935	800,000	0,017	-0,043
-154,920	-47,783	0,083	-0,029
-153,906	466,766	0,022	-0,037
-152,891	-77,014	0,013	0,003
-151,877	452,267	0,025	-0,041
-150,862	136,664	0,013	0,013
-149,847	-200,000	0,005	-0,099
-148,833	-200,000	-0,003	-0,022
-147,818	-43,283	-0,075	-0,028
-146,804	-32,289	-0,075	0,030
-145,789	-200,000	0,020	0,127
-144,775	-78,029	0,047	-0,012
-143,760	67,498	0,115	-0,086
-142,745	91,176	0,062	0,051
-141,731	-200,000	0,037	0,136
-140,716	-73,302	-0,025	-0,007
-139,702	800,000	-0,017	0,042
-138,687	-200,000	-0,018	0,112
-137,672	-200,000	0,010	-0,034
-136,658	800,000	-0,046	-0,111
-135,643	-72,433	-0,045	0,012
-134,629	-200,000	0,001	0,154
-133,614	-93,300	0,166	-0,033
-132,599	-97,784	0,112	0,021
-131,585	279,806	0,004	-0,005
-130,570	-105,942	0,055	0,009
-129,556	-85,767	0,125	-0,028
-128,541	304,135	0,087	0,118
-127,526	-200,000	-0,003	-0,069
-126,512	99,213	-0,077	0,064
-125,497	166,444	0,085	-0,087
-124,483	554,310	0,060	-0,106
-123,468	-200,000	-0,033	-0,120
-122,453	-95,450	-0,160	0,031
-121,439	-200,000	-0,020	-0,107
-120,424	-131,277	0,125	0,012
-119,410	-132,731	0,061	-0,006
-118,395	54,201	0,098	0,068
-117,380	-155,856	-0,166	-0,008
-116,366	32,085	0,083	0,052
-115,351	-200,000	-0,003	0,138
-114,337	-200,000	-0,018	0,167
-113,322	800,000	0,022	0,056
-112,307	-1,197	-0,126	-0,065
-111,293	661,515	0,126	-0,236
-110,278	389,873	-0,055	0,083
-109,264	-15,358	-0,117	0,054
-108,249	-49,271	0,078	0,027
-107,234	-200,000	0,001	0,094
-106,220	662,849	0,035	0,065
-105,205	-185,611	0,152	0,002
-104,191	-122,568	0,085	0,010
-103,176	-100,069	0,102	-0,018
-102,162	160,837	0,159	0,161
-101,147	-200,000	-0,022	0,095
-100,132	-200,000	-0,003	0,166
-99,118	800,000	-0,046	0,135
-98,103	90,903	0,101	0,082
-97,089	415,779	-0,132	-0,205
-96,074	324,670	0,039	0,055
-95,059	-200,000	0,004	0,054
-94,045	-200,000	0,009	0,083
-93,030	-200,000	0,031	-0,121
-92,016	-74,404	-0,078	-0,020
-91,001	19,657	0,150	-0,088
-89,986	800,000	0,043	0,100
-88,972	800,000	0,035	0,073
-87,957	-138,809	0,050	-0,004
-86,943	-200,000	-0,006	0,109
-85,928	-15,301	-0,066	-0,030
-84,913	310,531	0,066	-0,090
-83,899	377,907	-0,034	-0,051
-82,884	-81,678	0,023	0,005
-81,870	461,200	0,046	0,075
-80,855	218,261	0,125	0,145
-79,840	311,009	-0,078	-0,106
-78,826	-67,379	-0,120	0,034
-77,811	204,585	0,018	-0,020
-76,797	124,161	0,112	-0,102
-75,782	11,813	-0,152	-0,084
-74,767	-37,401	0,061	0,024
-73,753	23,076	0,105	0,062
-72,738	-200,000	-0,014	-0,064
-71,724	123,039	0,029	-0,026
-70,709	275,754	0,053	0,068
-69,694	61,367	-0,127	-0,092
-68,680	-52,685	0,048	-0,016
-67,665	-45,756	0,059	-0,021
-66,651	66,468	-0,114	0,084
-65,636	800,000	-0,044	0,133
-64,622	-174,016	-0,083	0,002
-63,607	-200,000	0,011	0,078
-62,592	-118,242	-0,124	-0,016
-61,578	68,672	0,075	0,056
-60,563	474,421	-0,074	0,122
-59,549	-200,000	-0,038	0,142
-58,534	-112,126	-1,239	-0,179
-57,519	540,985	-0,822	-1,425
-56,505	-200,000	-0,960	-4,352
-55,490	-23,521	0,566	-0,245
-54,476	800,000	4,822	11,464
-53,461	-200,000	13,739	251,423
-52,446	-200,000	689,332	2250,032
-51,432	591,790	1619,999	2910,328
-50,417	119,348	1631,823	1463,464
-49,403	74,348	1286,504	978,532
-48,388	38,250	1022,445	658,365
-47,373	24,394	980,331	585,815
-46,359	23,585	970,218	577,104
-45,344	22,634	965,786	571,347
-44,330	22,540	964,341	570,163
-43,315	22,473	962,902	569,071
-42,300	22,433	961,939	568,350
-41,286	22,411	960,928	567,658
-40,271	22,360	960,115	566,989
-39,257	22,383	959,176	566,490
-38,242	22,328	958,170	565,694
-37,227	22,388	957,250	565,323
-36,213	22,388	956,188	564,674
-35,198	22,350	955,464	564,101
-34,184	22,377	954,973	563,874
-33,169	22,288	954,184	563,098
-32,154	22,381	953,056	562,710
-31,140	22,381	952,250	562,212
-30,125	22,369	951,397	561,647
-29,111	22,392	950,594	561,227
-28,096	22,398	949,962	560,850
-27,082	22,414	949,173	560,411
-26,067	22,375	948,595	559,925
-25,052	22,430	947,752	559,581
-24,038	22,365	947,095	558,961
-23,023	22,422	946,458	558,745
-22,009	22,375	945,778	558,172
-20,994	22,459	945,164	558,057
-19,979	22,381	944,511	557,401
-18,965	22,380	943,905	557,016
-17,950	22,432	943,322	556,817
-16,936	22,362	942,555	556,120
-15,921	22,299	941,832	555,471
-14,906	22,268	941,163	554,956
-13,892	22,357	940,410	554,770
-12,877	22,354	939,875	554,423
-11,863	22,222	939,461	553,739
-10,848	22,244	938,707	553,344
-9,833	22,386	938,405	553,592
-8,819	22,339	937,805	553,066
-7,804	22,309	937,011	552,484
-6,790	22,234	936,607	551,985
-5,775	22,339	935,772	551,805
-4,760	22,286	935,291	551,331
-3,746	22,261	934,777	550,926
-2,731	22,140	934,181	550,172
-1,717	22,079	933,327	549,456
-0,702	22,181	932,406	549,213
0,313	21,897	931,789	548,785
1,327	24,365	929,446	555,092
2,342	31,912	807,524	502,673
3,356	27,104	507,636	307,797
4,371	3,274	372,159	195,504
5,386	0,283	355,221	182,939
6,400	-1,340	348,969	177,755
7,415	-2,089	345,932	175,300
8,429	-2,300	344,594	174,357
9,444	-2,196	343,713	174,019
10,459	-2,311	343,133	173,574
11,473	-2,191	342,452	173,355
12,488	-1,917	341,979	173,422
13,502	-1,778	341,404	173,279
14,517	-1,880	340,917	172,897
15,531	-2,201	340,366	172,226
16,546	-2,121	339,833	172,035
17,561	-2,081	339,408	171,850
18,575	-2,055	339,117	171,719
19,590	-2,052	338,640	171,465
20,604	-2,079	338,373	171,283
21,619	-2,132	338,024	171,030
22,634	-1,990	337,723	171,027
23,648	-2,099	337,248	170,645
24,663	-2,094	336,932	170,476
25,677	-1,999	336,677	170,441
26,692	-2,121	336,528	170,209
27,707	-2,133	336,056	169,941
28,721	-2,039	335,719	169,864
29,736	-2,093	335,491	169,671
30,750	-2,087	335,126	169,479
31,765	-2,094	334,904	169,343
32,780	-2,161	334,501	169,048
33,794	-2,054	334,197	169,002
34,809	-2,196	333,981	168,715
35,823	-2,060	333,641	168,684
36,838	-2,140	333,395	168,453
37,853	-2,045	332,986	168,340
38,867	-2,163	332,892	168,142
39,882	-2,246	332,632	167,901
40,896	-2,170	332,353	167,832
41,911	-2,157	331,992	167,650
42,926	-2,213	331,738	167,442
43,940	-2,233	331,450	167,260
44,955	-2,285	331,268	167,094
45,969	-2,400	331,020	166,822
46,984	-2,413	330,642	166,603
47,999	-2,620	330,441	166,252
49,013	-2,680	330,088	165,991
50,028	-2,878	329,752	165,584
51,042	-2,839	329,491	165,482
52,057	-2,777	329,243	165,413
53,071	-2,851	329,018	165,202
54,086	-2,649	328,689	165,249
55,101	-2,621	328,673	165,258
56,115	-2,608	328,296	165,069
57,130	-2,044	328,253	165,667
58,144	-1,999	327,927	165,538
59,159	-2,061	327,709	165,344
60,174	-1,996	327,606	165,350
61,188	-2,074	327,262	165,074
62,203	-2,084	326,934	164,882
63,217	-1,885	326,601	164,922
64,232	-1,924	326,381	164,753
65,247	-1,932	326,183	164,629
66,261	-1,976	326,027	164,487
67,276	-2,111	325,597	164,105
68,290	-2,130	325,212	163,874
69,305	-2,439	325,038	163,429
70,320	-2,256	324,828	163,512
71,334	-2,292	324,718	163,402
72,349	-2,081	324,570	163,548
73,363	-2,019	324,110	163,370
74,378	-2,034	323,874	163,220
75,393	-2,097	323,762	163,079
76,407	-2,017	323,411	162,976
77,422	-2,006	323,174	162,854
78,436	-1,924	322,874	162,779
79,451	-1,951	322,590	162,592
80,466	-2,117	322,334	162,265
81,480	-2,210	321,997	161,978
82,495	-2,375	321,797	161,682
83,509	-2,330	321,627	161,632
84,524	-2,395	321,252	161,358
85,539	-2,410	320,931	161,165
86,553	-2,356	320,730	161,109
87,568	-2,413	320,667	161,001
88,582	-2,243	320,321	160,999
89,597	-2,358	320,195	160,796
90,611	-2,211	319,973	160,831
91,626	-2,113	319,844	160,858
92,641	-2,162	319,591	160,663
93,655	-2,251	319,374	160,443
94,670	-2,349	318,933	160,100
95,684	-2,391	318,806	159,976
96,699	-2,255	318,583	159,998
97,714	-2,332	318,237	159,727
98,728	-2,326	318,196	159,698
99,743	-2,578	317,762	159,193
100,757	-2,392	317,537	159,268
101,772	-2,457	317,467	159,148
102,787	-2,328	317,118	159,098
103,801	-2,358	317,020	159,002
104,816	-2,127	316,858	159,156
105,830	-2,205	316,607	158,932
106,845	-2,089	316,380	158,929
107,860	-1,903	316,000	158,925
108,874	-2,012	315,699	158,641
109,889	-2,204	315,604	158,372
110,903	-2,310	315,406	158,145
111,918	-2,163	314,962	158,067
112,933	-2,226	314,966	157,987
113,947	-2,102	314,742	157,994
114,962	-2,107	314,525	157,865
115,976	-2,003	314,337	157,868
116,991	-2,129	314,128	157,615
118,006	-2,166	313,830	157,411
119,020	-1,987	313,707	157,527
120,035	-1,999	313,610	157,451
121,049	-2,054	313,276	157,211
122,064	-1,928	313,082	157,234
123,079	-2,192	312,905	156,849
124,093	-2,308	312,564	156,540
125,108	-2,385	312,148	156,237
126,122	-2,538	312,025	155,999
127,137	-2,672	311,682	155,671
128,151	-2,455	311,424	155,758
129,166	-2,228	311,447	155,997
130,181	-2,350	311,162	155,711
131,195	-2,508	310,889	155,393
132,210	-2,301	310,699	155,503
133,224	-2,167	310,488	155,525
134,239	-2,036	310,289	155,550
135,254	-2,189	310,246	155,353
136,268	-2,382	309,862	154,943
137,283	-2,450	309,456	154,655
138,297	-2,627	309,355	154,404
139,312	-2,572	309,090	154,316
140,327	-2,222	309,153	154,702
141,341	-1,894	308,886	154,899
142,356	-1,973	308,739	154,729
143,370	-1,813	308,483	154,755
144,385	-1,831	308,331	154,646
145,400	-1,827	308,064	154,502
146,414	-1,922	308,016	154,365
147,429	-1,822	307,568	154,232
148,443	-1,939	307,420	154,021
149,458	-1,747	307,230	154,113
150,473	-1,662	306,963	154,053
151,487	-1,819	306,745	153,767
152,502	-2,047	306,712	153,500
153,516	-1,744	306,330	153,610
154,531	-1,828	306,228	153,457
155,546	-1,921	305,969	153,217
156,560	-1,969	305,652	152,995
157,575	-2,000	305,425	152,835
158,589	-1,960	305,115	152,709
159,604	-1,991	305,102	152,657
160,619	-1,800	304,703	152,640
161,633	-2,024	304,587	152,337
162,648	-1,770	304,408	152,496
163,662	-1,834	304,277	152,351
164,677	-1,951	304,020	152,088
165,692	-2,022	303,977	151,979
166,706	-1,949	303,706	151,905
167,721	-2,002	303,375	151,672
168,735	-1,926	303,188	151,644
169,750	-1,701	303,125	151,829
170,764	-1,716	302,947	151,711
171,779	-1,881	302,929	151,520
172,794	-1,773	302,751	151,527
173,808	-1,802	302,443	151,330
174,823	-2,356	302,013	150,535
175,837	-2,532	301,763	150,216
176,852	-2,009	301,752	150,733
177,867	-1,751	301,531	150,873
178,881	-1,828	301,381	150,705
179,896	-1,719	301,047	150,637
180,910	-1,720	300,963	150,579
181,925	-1,798	300,783	150,397
182,940	-1,690	300,508	150,356
183,954	-1,698	300,333	150,246
184,969	-1,960	300,027	149,813
185,983	-1,837	299,961	149,893
186,998	-1,808	299,649	149,752
188,013	-1,827	299,540	149,666
189,027	-1,765	299,246	149,568
190,042	-1,913	299,120	149,342
191,056	-1,768	299,009	149,420
192,071	-1,731	298,792	149,335
193,086	-1,623	298,580	149,325
194,100	-1,679	298,402	149,167
195,115	-1,690	298,100	148,991
196,129	-1,914	297,930	148,666
197,144	-1,657	297,670	148,783
198,159	-1,616	297,481	148,716
199,173	-1,787	297,341	148,461
200,188	-1,705	297,177	148,449
201,202	-1,893	296,829	148,072
202,217	-2,118	296,326	147,583
203,232	-2,430	296,266	147,227
204,246	-2,199	296,189	147,407
205,261	-1,923	296,101	147,626
206,275	-1,818	295,918	147,627
207,290	-1,783	295,637	147,508
208,304	-1,791	295,411	147,375
209,319	-1,683	295,209	147,369
210,334	-1,638	295,095	147,344
211,348	-1,751	294,872	147,107
212,363	-1,733	294,742	147,046
213,377	-1,621	294,509	147,029
214,392	-1,596	294,248	146,911
215,407	-2,062	294,071	146,346
216,421	-2,102	293,596	146,056
217,436	-2,197	293,606	145,954
218,450	-2,127	293,457	145,937
219,465	-2,068	293,385	145,946
220,480	-1,914	293,023	145,905
221,494	-1,963	293,088	145,877
222,509	-1,977	292,824	145,718
223,523	-1,768	292,446	145,724
224,538	-1,597	292,383	145,848
225,553	-1,698	292,238	145,663
226,567	-1,686	292,180	145,633
227,582	-1,635	291,839	145,500
228,596	-1,519	291,675	145,519
229,611	-1,445	291,493	145,489
230,626	-1,649	291,262	145,160
231,640	-2,166	290,907	144,462
232,655	-2,386	290,721	144,141
233,669	-2,408	290,445	143,970
234,684	-2,342	290,160	143,880
235,699	-2,219	290,159	143,988
236,713	-2,168	289,897	143,895
237,728	-2,216	289,899	143,836
238,742	-1,939	289,687	143,988
239,757	-1,920	289,452	143,877
240,772	-1,915	289,267	143,778
241,786	-1,903	289,135	143,711
242,801	-2,055	288,873	143,420
243,815	-2,201	288,810	143,233
244,830	-1,888	288,598	143,419
245,844	-2,101	288,414	143,109
246,859	-2,095	288,053	142,923
247,874	-2,218	287,932	142,731
248,888	-2,144	287,924	142,786
249,903	-1,938	287,649	142,836
250,917	-1,829	287,455	142,832
251,932	-1,686	287,498	142,980
252,947	-1,327	287,385	143,258
253,961	-1,678	286,998	142,713
254,976	-0,508	287,454	144,060
255,990	2,110	288,122	146,918
257,005	2,838	288,268	147,684
258,020	3,946	288,668	148,950
259,034	4,382	288,537	149,290
260,049	4,177	288,292	148,952
261,063	3,986	288,118	148,664
262,078	4,200	287,977	148,784
263,093	4,612	288,141	149,254
264,107	4,626	287,916	149,138
265,122	4,685	287,637	149,037
266,136	4,929	287,652	149,266
267,151	4,666	287,487	148,914
268,166	4,542	287,085	148,573
269,180	4,679	286,865	148,578
270,195	4,746	286,654	148,520
271,209	4,558	286,486	148,239
272,224	4,587	286,546	148,285
273,239	4,436	286,184	147,940
274,253	4,284	286,023	147,698
275,268	4,952	285,891	148,256
276,282	4,796	285,746	148,018
277,297	4,585	285,531	147,692
278,312	5,013	285,304	147,970
279,326	4,953	285,059	147,772
280,341	4,786	284,963	147,550
281,355	4,718	284,635	147,303
282,370	4,571	284,496	147,077
283,384	4,520	284,180	146,853
284,399	4,432	284,163	146,747
285,414	4,419	283,941	146,607
286,428	4,442	283,715	146,499
287,443	4,279	283,429	146,183
288,457	4,255	283,167	146,013
289,472	4,129	283,231	145,913
290,487	4,134	282,873	145,721
291,501	3,980	282,626	145,434
292,516	4,053	282,370	145,360
293,530	4,121	282,290	145,369
294,545	4,299	282,210	145,483
295,560	4,394	282,095	145,500
296,574	4,253	281,835	145,220
297,589	4,282	281,695	145,163
298,603	4,593	281,604	145,396
299,618	4,623	281,478	145,345
300,633	4,515	281,247	145,111
301,647	4,362	281,081	144,869
302,662	4,388	280,937	144,806
303,676	4,395	280,512	144,581
304,691	4,173	280,296	144,249
305,706	4,008	280,162	144,013
306,720	3,973	279,931	143,849
307,735	3,838	279,765	143,625
308,749	4,183	279,725	143,913
309,764	4,232	279,530	143,846
310,779	4,210	279,139	143,612
311,793	3,861	279,136	143,272
312,808	3,948	278,952	143,246
313,822	3,985	278,765	143,171
314,837	3,735	278,476	142,778
315,852	3,826	278,364	142,792
316,866	3,895	278,209	142,763
317,881	4,096	277,854	142,755
318,895	4,158	277,758	142,750
319,910	3,856	277,640	142,397
320,925	3,664	277,355	142,061
321,939	3,857	277,273	142,185
322,954	4,137	277,096	142,340
323,968	4,148	277,009	142,293
324,983	4,210	276,941	142,302
325,997	4,234	276,655	142,166
327,012	4,465	276,453	142,262
328,027	4,361	276,331	142,090
329,041	4,257	276,119	141,873
330,056	4,220	275,944	141,737
331,070	4,130	275,867	141,602
332,085	4,030	275,599	141,359
333,100	4,139	275,448	141,369
334,114	4,297	275,094	141,319
335,129	3,913	274,971	140,892
336,143	4,212	274,879	141,107
337,158	4,267	274,925	141,168
338,173	4,318	274,643	141,057
339,187	4,200	274,352	140,787
340,202	4,201	274,194	140,695
341,216	4,276	274,031	140,667
342,231	4,171	273,788	140,434
343,246	4,165	273,645	140,342
344,260	4,220	273,510	140,311
345,275	4,291	273,335	140,273
346,289	4,550	273,478	140,569
347,304	4,719	273,070	140,501
348,319	4,430	272,749	140,061
349,333	4,180	272,596	139,743
350,348	4,459	272,680	140,028
351,362	4,682	272,443	140,095
352,377	4,545	272,182	139,824
353,392	4,446	272,176	139,719
354,406	4,287	272,089	139,518
355,421	191,148	1332,022	1408,908
356,435	154,400	1461,251	1409,042
