DTS Sentinel unit serial number:	SN410029Multiplexer serial number:	ORYXHardware model number:	OX2-SRSoftware version number:	ORYX F/W v4,00 Oryx Data Collector v3.7.2.0data status	okinstallation	B4 Nyhavnadifferential loss correction	single-endedforward channel	channel 2reverse channel	N/Adate	2023/12/18time	23:15:13forward acquisition time	300,00reverse acquisition time	0,00gamma	499,1914k internal	0,3124k external	0,3124temperature offset calibration	1,0000default loss term (dB/km)	0,3820temperature slope calibration	1,0000multiplexer offset coefficient	1,0000multiplexer slope coefficient	1,0000fibre end	0,00T internal ref (°C)	22,13T ext. ref 1 (°C)	7,97T ext. ref 2 (°C)	7,94length (m)	temperature (°C)	Stokes	anti-Stokes-744,400	369,937	0,042	-0,063
-743,385	-124,226	-0,189	0,022
-742,371	111,896	-0,074	-0,067
-741,356	172,255	-0,185	0,198
-740,342	103,012	-0,044	-0,039
-739,327	-39,250	-0,177	0,069
-738,312	233,774	0,072	-0,088
-737,298	-111,016	-0,279	-0,042
-736,283	-126,840	-0,098	-0,011
-735,269	455,226	-0,084	0,140
-734,254	-97,615	0,050	0,010
-733,239	-156,149	-0,311	-0,014
-732,225	671,989	0,073	-0,142
-731,210	7,011	-0,104	-0,058
-730,196	-60,629	0,059	0,019
-729,181	380,241	-0,053	-0,081
-728,167	800,000	0,049	0,110
-727,152	214,621	0,035	0,041
-726,137	-200,000	0,010	-0,076
-725,123	-155,812	0,066	-0,003
-724,108	-200,000	-0,011	-0,080
-723,094	277,068	-0,075	-0,099
-722,079	-0,492	0,098	-0,052
-721,064	113,371	0,076	-0,069
-720,050	-200,000	-0,011	0,065
-719,035	-119,730	-0,086	-0,011
-718,021	9,004	-0,079	-0,044
-717,006	-72,576	-0,144	-0,039
-715,991	-29,040	0,007	-0,003
-714,977	47,747	-0,065	-0,045
-713,962	-200,000	0,013	-0,076
-712,948	137,624	0,044	-0,043
-711,933	321,022	-0,053	-0,075
-710,918	-72,677	-0,112	-0,030
-709,904	-200,000	0,028	-0,188
-708,889	395,437	0,032	-0,051
-707,875	800,000	-0,015	-0,033
-706,860	58,595	-0,027	-0,020
-705,845	-200,000	0,021	0,125
-704,831	800,000	0,037	0,086
-703,816	40,492	-0,051	0,034
-702,802	-128,024	-0,068	0,007
-701,787	800,000	-0,049	-0,125
-700,772	-200,000	0,023	-0,098
-699,758	800,000	0,037	-0,114
-698,743	-200,000	-0,013	0,124
-697,729	51,613	0,085	0,060
-696,714	-106,740	-0,074	-0,012
-695,699	-200,000	-0,000	-0,014
-694,685	-200,000	0,008	0,063
-693,670	-200,000	0,011	-0,060
-692,656	375,716	0,042	0,064
-691,641	442,376	0,069	0,113
-690,627	214,644	0,093	0,109
-689,612	490,796	-0,045	-0,077
-688,597	11,565	-0,007	0,004
-687,583	-37,739	-0,006	0,002
-686,568	158,490	-0,075	-0,077
-685,554	-200,000	0,032	-0,177
-684,539	-200,000	0,011	-0,058
-683,524	-158,616	0,136	0,006
-682,510	-136,333	0,097	-0,008
-681,495	763,689	-0,042	0,086
-680,481	800,000	-0,036	0,087
-679,466	-200,000	0,018	0,060
-678,451	55,554	-0,102	-0,073
-677,437	10,391	0,023	-0,013
-676,422	239,566	0,028	0,034
-675,408	-143,530	0,087	-0,006
-674,393	443,568	0,040	-0,065
-673,378	800,000	-0,085	-0,176
-672,364	-51,670	0,123	-0,042
-671,349	800,000	-0,034	-0,087
-670,335	-200,000	0,055	-0,251
-669,320	-200,000	-0,005	-0,049
-668,305	-19,242	-0,053	-0,024
-667,291	38,301	-0,124	-0,082
-666,276	103,194	0,110	-0,096
-665,262	96,578	-0,093	-0,079
-664,247	-141,848	0,093	0,007
-663,232	133,263	-0,090	-0,087
-662,218	-200,000	0,001	0,031
-661,203	170,325	0,062	0,066
-660,189	-200,000	-0,003	-0,121
-659,174	-200,000	0,012	-0,114
-658,159	-28,209	-0,096	-0,041
-657,145	84,843	-0,076	-0,062
-656,130	800,000	0,020	0,061
-655,116	800,000	0,017	-0,046
-654,101	-196,280	-0,124	-0,001
-653,086	755,242	-0,042	0,086
-652,072	-18,433	-0,087	-0,040
-651,057	800,000	0,029	-0,080
-650,043	29,150	0,028	-0,018
-649,028	372,721	-0,040	0,061
-648,014	-200,000	0,005	-0,025
-646,999	692,364	-0,081	0,158
-645,984	80,211	0,062	0,050
-644,970	-44,130	-0,063	-0,024
-643,955	-8,551	-0,128	0,064
-642,941	-39,211	0,113	0,044
-641,926	-200,000	0,003	-0,066
-640,911	-42,192	0,092	-0,035
-639,897	-200,000	-0,019	0,093
-638,882	8,387	0,048	0,027
-637,868	-200,000	0,007	0,047
-636,853	-48,028	-0,110	-0,039
-635,838	772,496	0,032	-0,066
-634,824	800,000	0,031	0,101
-633,809	-200,000	-0,002	0,042
-632,795	800,000	0,018	-0,049
-631,780	184,180	0,018	-0,020
-630,765	-200,000	0,007	0,061
-629,751	244,759	-0,053	0,067
-628,736	-142,620	-0,074	0,005
-627,722	313,969	-0,048	-0,067
-626,707	800,000	-0,042	0,095
-625,692	170,318	-0,089	-0,095
-624,678	202,447	-0,102	-0,117
-623,663	-179,649	-0,119	0,002
-622,649	-200,000	0,002	-0,028
-621,634	-58,543	-0,083	-0,026
-620,619	-200,000	0,009	-0,040
-619,605	-200,000	0,001	-0,039
-618,590	-46,244	0,159	0,058
-617,576	-99,115	0,076	-0,014
-616,561	8,891	-0,096	0,054
-615,546	188,010	-0,041	0,045
-614,532	-139,003	-0,128	0,010
-613,517	-113,057	-0,109	-0,016
-612,503	600,429	0,010	0,018
-611,488	-12,426	0,122	-0,059
-610,474	-61,856	-0,086	-0,027
-609,459	385,373	-0,021	0,033
-608,444	65,319	-0,057	-0,043
-607,430	-200,000	-0,025	-0,201
-606,415	-177,119	0,054	0,001
-605,401	-200,000	0,021	-0,072
-604,386	-99,877	-0,153	0,028
-603,371	-200,000	0,047	0,154
-602,357	-200,000	0,017	-0,079
-601,342	-141,041	-0,172	0,013
-600,328	800,000	-0,020	-0,044
-599,313	-25,114	0,124	-0,054
-598,298	-188,042	-0,082	0,001
-597,284	125,338	0,077	0,072
-596,269	255,660	0,108	-0,138
-595,255	-13,145	-0,102	0,049
-594,240	413,425	0,070	-0,110
-593,225	-200,000	-0,005	0,043
-592,211	-113,256	-0,208	0,030
-591,196	468,097	-0,054	-0,090
-590,182	-200,000	-0,003	0,167
-589,167	-111,686	0,092	0,014
-588,152	133,069	0,045	-0,043
-587,138	27,227	-0,088	-0,055
-586,123	236,849	-0,099	0,122
-585,109	800,000	0,052	-0,115
-584,094	32,320	-0,051	0,033
-583,079	-200,000	0,008	0,055
-582,065	-200,000	-0,016	0,070
-581,050	800,000	-0,014	0,029
-580,036	126,879	0,120	-0,112
-579,021	168,902	0,121	-0,128
-578,006	-200,000	-0,025	-0,116
-576,992	-16,164	-0,063	0,029
-575,977	-48,460	0,111	-0,039
-574,963	-200,000	0,025	0,126
-573,948	-7,231	-0,041	0,021
-572,934	-200,000	0,017	-0,072
-571,919	-79,183	-0,064	0,016
-570,904	-200,000	-0,024	-0,098
-569,890	-69,597	-0,069	-0,019
-568,875	-154,083	0,100	-0,005
-567,861	-81,446	0,166	0,040
-566,846	-200,000	0,027	0,100
-565,831	9,823	-0,021	0,012
-564,817	-61,644	0,149	0,046
-563,802	800,000	0,027	0,072
-562,788	-1,087	-0,059	-0,031
-561,773	151,468	-0,079	0,079
-560,758	451,824	0,034	0,055
-559,744	-200,000	0,004	0,100
-558,729	-200,000	-0,006	0,036
-557,715	-200,000	0,024	-0,129
-556,700	-74,694	-0,061	-0,016
-555,685	155,157	-0,089	0,090
-554,671	176,694	-0,082	0,088
-553,656	258,760	-0,017	0,021
-552,642	-150,504	0,061	0,003
-551,627	-200,000	0,016	0,180
-550,612	-150,216	0,131	0,007
-549,598	800,000	-0,031	-0,073
-548,583	-30,804	-0,063	0,026
-547,569	-200,000	-0,011	0,085
-546,554	-14,694	0,043	0,020
-545,539	389,095	0,021	0,032
-544,525	-200,000	-0,004	0,142
-543,510	-74,452	0,100	0,026
-542,496	2,045	-0,182	-0,097
-541,481	55,561	0,059	-0,043
-540,466	102,035	0,067	0,058
-539,452	653,264	-0,042	-0,080
-538,437	-36,693	-0,076	-0,030
-537,423	-0,511	0,040	0,021
-536,408	800,000	0,020	0,053
-535,393	-39,191	-0,127	0,049
-534,379	73,599	-0,118	-0,091
-533,364	361,379	-0,016	-0,024
-532,350	-95,920	-0,060	-0,012
-531,335	50,181	0,155	0,108
-530,321	-39,263	0,027	0,011
-529,306	15,193	0,099	0,057
-528,291	252,986	-0,032	0,041
-527,277	-200,000	0,004	0,044
-526,262	-200,000	-0,015	-0,052
-525,248	-200,000	-0,011	0,068
-524,233	-200,000	0,041	0,143
-523,218	521,157	-0,059	0,103
-522,204	-200,000	-0,003	-0,040
-521,189	-84,654	-0,076	0,017
-520,175	315,093	-0,054	0,076
-519,160	310,172	-0,058	-0,080
-518,145	-78,597	0,159	-0,040
-517,131	-200,000	-0,056	0,196
-516,116	-200,000	0,033	0,158
-515,102	259,627	-0,083	0,106
-514,087	80,283	-0,089	0,071
-513,072	-200,000	-0,002	0,090
-512,058	348,300	-0,065	0,095
-511,043	-10,207	0,024	-0,012
-510,029	-35,642	0,065	-0,026
-509,014	-200,000	0,006	0,045
-507,999	-18,626	-0,026	-0,012
-506,985	800,000	0,026	-0,059
-505,970	-131,496	0,108	-0,010
-504,956	-8,005	-0,126	-0,062
-503,941	-45,334	-0,079	0,029
-502,926	-95,833	0,238	0,046
-501,912	-161,365	-0,033	0,001
-500,897	706,832	-0,062	0,122
-499,883	196,938	0,091	0,103
-498,868	800,000	-0,093	-0,197
-497,853	523,734	0,046	-0,080
-496,839	-103,386	-0,105	0,018
-495,824	-200,000	0,007	-0,081
-494,810	-200,000	0,008	0,117
-493,795	131,455	-0,037	0,036
-492,781	-112,363	-0,017	-0,002
-491,766	109,596	-0,143	-0,126
-490,751	-129,591	-0,093	0,009
-489,737	-200,000	0,022	-0,137
-488,722	-200,000	-0,035	0,129
-487,708	377,267	0,101	0,153
-486,693	596,140	0,042	0,076
-485,678	96,975	-0,038	0,032
-484,664	383,788	0,050	-0,077
-483,649	-200,000	-0,021	-0,111
-482,635	-200,000	0,017	-0,160
-481,620	279,379	-0,043	0,056
-480,605	158,084	0,148	0,151
-479,591	800,000	-0,033	0,094
-478,576	-200,000	0,018	-0,156
-477,562	167,943	0,024	0,026
-476,547	-74,390	-0,185	-0,049
-475,532	-50,659	0,146	0,050
-474,518	800,000	0,008	0,023
-473,503	-86,089	-0,106	0,024
-472,489	800,000	0,036	-0,100
-471,474	121,819	0,042	-0,039
-470,459	69,569	0,090	-0,068
-469,445	-200,000	-0,014	-0,062
-468,430	800,000	0,036	-0,095
-467,416	-50,613	-0,096	-0,033
-466,401	457,469	0,013	-0,021
-465,386	126,931	0,120	0,112
-464,372	-40,860	-0,082	-0,031
-463,357	168,672	-0,126	0,133
-462,343	-200,000	0,001	-0,181
-461,328	77,649	-0,086	-0,067
-460,313	121,104	0,086	0,079
-459,299	35,563	0,130	0,084
-458,284	800,000	0,031	-0,088
-457,270	76,388	0,117	-0,092
-456,255	-200,000	-0,020	-0,136
-455,241	-200,000	0,011	-0,052
-454,226	-200,000	-0,038	-0,176
-453,211	390,006	-0,067	0,103
-452,197	800,000	0,057	-0,164
-451,182	-100,003	-0,043	0,008
-450,168	596,460	0,066	-0,120
-449,153	-200,000	-0,018	-0,127
-448,138	-15,619	-0,071	0,033
-447,124	-200,000	-0,022	-0,082
-446,109	-72,664	0,127	0,034
-445,095	94,215	0,042	-0,035
-444,080	394,181	0,102	0,157
-443,065	76,284	0,122	0,095
-442,051	-200,000	-0,008	-0,072
-441,036	147,522	0,032	-0,032
-440,022	35,170	-0,043	0,028
-439,007	-105,512	-0,037	0,006
-437,992	800,000	0,013	-0,028
-436,978	-96,556	-0,059	-0,011
-435,963	-27,462	-0,075	-0,032
-434,949	800,000	-0,037	0,104
-433,934	4,499	-0,147	-0,079
-432,919	265,824	0,083	-0,107
-431,905	-200,000	0,023	0,123
-430,890	-151,906	-0,060	0,003
-429,876	-57,307	0,128	-0,041
-428,861	-86,279	-0,077	0,017
-427,846	105,971	-0,101	0,088
-426,832	465,771	0,047	0,078
-425,817	-52,125	-0,085	-0,029
-424,803	492,701	0,035	0,059
-423,788	800,000	0,018	0,049
-422,773	637,856	0,090	0,170
-421,759	-178,315	0,116	0,002
-420,744	51,076	-0,089	0,062
-419,730	-20,495	0,110	-0,050
-418,715	6,353	-0,025	0,014
-417,701	268,619	-0,046	0,060
-416,686	180,090	0,098	-0,106
-415,671	130,039	-0,056	-0,053
-414,657	-81,813	0,072	-0,017
-413,642	800,000	-0,050	0,128
-412,628	-200,000	-0,010	-0,034
-411,613	37,207	0,088	-0,057
-410,598	-157,930	0,072	0,003
-409,584	-200,000	-0,013	0,069
-408,569	-200,000	0,001	-0,088
-407,555	-139,771	0,153	-0,012
-406,540	18,686	-0,029	0,017
-405,525	10,485	-0,132	-0,074
-404,511	-157,044	0,090	-0,004
-403,496	408,950	-0,012	-0,019
-402,482	-70,698	-0,076	0,021
-401,467	-170,215	0,072	0,002
-400,452	-2,530	0,121	0,062
-399,438	-2,159	-0,052	-0,027
-398,423	-200,000	-0,005	-0,039
-397,409	29,728	-0,080	-0,050
-396,394	10,866	0,050	0,028
-395,379	-200,000	0,011	-0,036
-394,365	361,314	-0,009	-0,013
-393,350	519,008	-0,052	0,090
-392,336	-200,000	-0,013	0,077
-391,321	64,685	-0,035	-0,026
-390,306	-200,000	-0,010	-0,103
-389,292	800,000	-0,055	-0,134
-388,277	-200,000	0,006	0,109
-387,263	-44,765	-0,070	0,026
-386,248	-178,926	-0,042	0,001
-385,233	-115,491	0,110	-0,015
-384,219	-200,000	0,011	-0,090
-383,204	49,959	-0,069	-0,048
-382,190	-28,514	-0,014	-0,006
-381,175	36,970	0,076	0,049
-380,160	1,721	0,028	0,015
-379,146	-107,941	-0,101	-0,016
-378,131	196,290	0,058	0,065
-377,117	5,729	-0,100	-0,054
-376,102	-200,000	0,026	0,102
-375,088	-15,115	-0,100	0,047
-374,073	-200,000	0,014	-0,080
-373,058	136,770	-0,048	0,046
-372,044	21,801	0,086	-0,051
-371,029	800,000	0,050	0,135
-370,015	90,553	0,017	-0,014
-369,000	-200,000	0,005	-0,050
-367,985	-17,812	-0,039	-0,018
-366,971	51,476	0,092	-0,064
-365,956	153,269	0,053	-0,054
-364,942	-9,196	0,075	-0,037
-363,927	507,386	-0,017	0,029
-362,912	-200,000	0,016	-0,068
-361,898	-47,322	-0,060	0,021
-360,883	118,660	-0,079	-0,071
-359,869	259,907	-0,051	-0,064
-358,854	-200,000	0,005	0,052
-357,839	328,270	-0,025	0,035
-356,825	567,794	0,130	0,233
-355,810	42,508	-0,104	0,069
-354,796	-188,655	0,160	0,001
-353,781	123,439	0,032	-0,029
-352,766	234,120	-0,076	-0,092
-351,752	-36,178	0,109	-0,043
-350,737	-200,000	0,008	-0,056
-349,723	549,945	-0,090	0,159
-348,708	528,411	0,041	-0,072
-347,693	-35,556	-0,098	0,039
-346,679	335,032	0,018	-0,026
-345,664	800,000	-0,044	-0,125
-344,650	800,000	-0,007	-0,022
-343,635	-35,217	-0,123	-0,049
-342,620	-200,000	0,006	0,104
-341,606	131,432	0,060	0,057
-340,591	-45,738	0,024	0,009
-339,577	-200,000	0,008	-0,119
-338,562	301,283	-0,066	-0,090
-337,548	-172,352	-0,055	-0,001
-336,533	157,827	0,064	0,065
-335,518	286,695	0,025	0,033
-334,504	186,568	-0,035	-0,038
-333,489	206,435	-0,064	0,073
-332,475	180,570	-0,060	0,065
-331,460	725,456	-0,079	-0,155
-330,445	-176,216	0,087	0,002
-329,431	-200,000	0,006	0,071
-328,416	326,902	0,136	0,191
-327,402	800,000	-0,044	0,116
-326,387	-80,833	0,048	-0,012
-325,372	582,081	-0,076	-0,138
-324,358	-200,000	0,004	-0,135
-323,343	320,210	-0,009	0,013
-322,329	-23,102	0,083	0,036
-321,314	46,085	0,076	0,051
-320,299	214,495	0,044	0,051
-319,285	86,460	0,059	0,047
-318,270	800,000	0,037	-0,113
-317,256	-200,000	0,025	-0,114
-316,241	-36,995	-0,118	-0,046
-315,226	634,519	-0,032	0,060
-314,212	504,828	0,039	0,066
-313,197	-200,000	-0,013	0,099
-312,183	-20,500	0,118	-0,053
-311,168	132,315	-0,025	0,023
-310,153	-44,827	-0,054	0,020
-309,139	201,219	0,020	0,023
-308,124	-65,868	-0,068	-0,020
-307,110	-200,000	-0,006	-0,065
-306,095	-200,000	0,019	0,072
-305,080	222,325	0,064	0,076
-304,066	-200,000	0,074	-0,242
-303,051	-57,729	-0,147	-0,047
-302,037	-200,000	-0,023	-0,086
-301,022	-72,555	0,083	0,022
-300,008	800,000	-0,045	0,103
-298,993	17,608	0,080	-0,047
-297,978	156,562	-0,026	-0,027
-296,964	-77,544	0,223	0,056
-295,949	-63,707	-0,125	-0,037
-294,935	-152,402	0,111	0,006
-293,920	-92,495	-0,094	0,019
-292,905	-200,000	0,043	-0,160
-291,891	-63,895	-0,076	0,023
-290,876	187,922	0,056	0,061
-289,862	-200,000	-0,022	-0,114
-288,847	-95,619	-0,077	0,015
-287,832	-200,000	0,030	0,159
-286,818	800,000	0,022	0,049
-285,803	42,048	0,044	-0,029
-284,789	299,167	0,019	-0,026
-283,774	301,688	-0,114	0,155
-282,759	-107,197	0,075	0,012
-281,745	266,172	-0,056	-0,072
-280,730	13,335	-0,085	-0,048
-279,716	32,913	-0,070	-0,044
-278,701	-200,000	-0,010	0,034
-277,686	84,592	0,169	0,136
-276,672	517,293	0,034	0,059
-275,657	537,622	-0,058	0,101
-274,643	-200,000	-0,030	-0,128
-273,628	-200,000	0,011	-0,065
-272,613	-200,000	-0,038	-0,134
-271,599	317,654	0,009	-0,013
-270,584	130,667	-0,024	0,023
-269,570	208,447	0,054	-0,062
-268,555	-92,565	-0,046	-0,009
-267,540	418,271	-0,029	0,046
-266,526	-200,000	-0,021	-0,070
-265,511	-11,057	0,042	0,020
-264,497	800,000	0,019	0,051
-263,482	-36,242	-0,048	-0,019
-262,467	110,056	-0,091	0,080
-261,453	327,333	-0,034	-0,048
-260,438	81,266	-0,034	-0,027
-259,424	-47,313	-0,040	0,014
-258,409	11,470	0,108	-0,060
-257,395	-89,538	0,052	0,011
-256,380	-81,295	-0,059	-0,014
-255,365	558,134	0,038	0,067
-254,351	-106,687	-0,099	-0,016
-253,336	-200,000	-0,009	-0,085
-252,322	121,015	0,058	0,053
-251,307	-200,000	0,012	-0,075
-250,292	20,166	0,063	-0,037
-249,278	-200,000	-0,003	0,014
-248,263	800,000	0,018	0,052
-247,249	152,974	0,060	0,060
-246,234	-137,105	-0,158	0,013
-245,219	800,000	0,025	0,057
-244,205	-200,000	-0,006	-0,190
-243,190	96,247	0,096	-0,081
-242,176	-200,000	-0,144	0,000
-241,161	45,712	0,148	0,100
-240,146	726,174	0,032	0,063
-239,132	-200,000	0,002	-0,065
-238,117	-104,257	0,035	-0,006
-237,103	458,875	0,023	-0,038
-236,088	2,397	0,179	0,094
-235,073	25,349	0,046	0,028
-234,059	800,000	-0,053	-0,127
-233,044	-121,879	0,106	-0,013
-232,030	-132,516	-0,155	0,014
-231,015	149,073	-0,039	-0,039
-230,000	-30,275	-0,096	-0,040
-228,986	-167,664	0,069	0,002
-227,971	-200,000	0,006	0,038
-226,957	312,579	0,064	0,088
-225,942	557,217	0,081	0,143
-224,927	-200,000	0,023	0,118
-223,913	30,152	-0,107	-0,066
-222,898	436,080	-0,056	-0,090
-221,884	800,000	0,051	-0,156
-220,869	130,911	0,040	-0,037
-219,855	-90,341	0,110	-0,023
-218,840	-200,000	0,021	0,098
-217,825	800,000	-0,016	0,034
-216,811	-49,290	0,075	-0,026
-215,796	-200,000	-0,028	-0,118
-214,782	-200,000	-0,027	-0,112
-213,767	-200,000	0,030	-0,168
-212,752	145,590	0,030	0,029
-211,738	169,906	0,074	0,077
-210,723	662,216	-0,031	0,059
-209,709	-172,036	0,059	-0,001
-208,694	-200,000	0,013	-0,049
-207,679	-94,139	-0,043	0,009
-206,665	800,000	0,068	0,151
-205,650	800,000	-0,050	0,121
-204,636	-200,000	0,008	0,156
-203,621	-34,543	-0,096	-0,038
-202,606	-88,501	0,068	0,015
-201,592	-200,000	-0,007	0,024
-200,577	-200,000	0,051	-0,202
-199,563	407,852	-0,051	-0,080
-198,548	-200,000	0,009	0,073
-197,533	-171,005	-0,017	-0,000
-196,519	-200,000	-0,002	-0,027
-195,504	0,999	-0,163	0,085
-194,490	-200,000	0,002	-0,027
-193,475	-24,735	-0,088	-0,038
-192,460	-27,571	-0,076	-0,032
-191,446	185,375	-0,035	0,038
-190,431	64,049	0,032	-0,023
-189,417	107,164	0,071	0,061
-188,402	-105,025	0,169	0,028
-187,387	424,025	-0,036	0,056
-186,373	115,615	-0,039	0,035
-185,358	-200,000	0,030	0,155
-184,344	-200,000	-0,005	0,141
-183,329	-114,009	0,115	-0,016
-182,315	-200,000	0,011	-0,051
-181,300	140,750	0,045	-0,044
-180,285	189,071	-0,056	-0,061
-179,271	-39,345	0,035	0,013
-178,256	-200,000	0,051	-0,169
-177,242	407,769	0,024	-0,037
-176,227	800,000	0,023	-0,060
-175,212	130,242	-0,045	0,042
-174,198	382,712	-0,081	-0,122
-173,183	-130,685	0,140	-0,014
-172,169	-200,000	-0,013	-0,074
-171,154	146,552	0,012	-0,012
-170,139	-67,173	0,112	0,032
-169,125	-30,787	0,052	0,021
-168,110	-19,243	-0,151	0,068
-167,096	800,000	0,022	0,046
-166,081	305,618	-0,040	0,054
-165,066	800,000	-0,029	-0,080
-164,052	-200,000	0,001	-0,053
-163,037	-200,000	0,010	-0,128
-162,023	800,000	0,040	-0,083
-161,008	-83,489	0,162	-0,038
-159,993	-169,562	-0,088	0,002
-158,979	-35,665	-0,057	-0,023
-157,964	435,651	0,071	-0,112
-156,950	-200,000	-0,024	-0,157
-155,935	89,776	-0,123	0,100
-154,920	108,603	0,159	-0,138
-153,906	262,448	-0,063	0,079
-152,891	341,779	0,050	0,072
-151,877	-200,000	0,010	-0,093
-150,862	692,139	0,029	-0,055
-149,847	-27,559	-0,148	-0,062
-148,833	800,000	-0,011	-0,026
-147,818	-62,261	0,097	-0,029
-146,804	104,796	-0,103	-0,088
-145,789	-200,000	0,027	0,181
-144,775	-200,000	-0,015	-0,077
-143,760	-56,543	-0,025	0,008
-142,745	193,489	0,090	0,099
-141,731	-200,000	-0,012	-0,096
-140,716	800,000	-0,025	0,071
-139,702	-200,000	-0,002	-0,040
-138,687	114,486	0,062	-0,055
-137,672	-200,000	-0,011	0,067
-136,658	-90,944	-0,085	-0,018
-135,643	293,351	-0,036	-0,049
-134,629	-176,738	0,117	-0,002
-133,614	800,000	0,031	-0,095
-132,599	-200,000	-0,006	0,153
-131,585	90,609	-0,027	0,022
-130,570	-11,030	-0,056	-0,027
-129,556	-36,207	-0,043	-0,017
-128,541	-90,636	-0,091	-0,019
-127,526	-25,561	-0,044	-0,019
-126,512	-13,966	0,111	0,052
-125,497	-125,706	0,124	-0,013
-124,483	800,000	-0,048	0,136
-123,468	313,437	0,074	-0,101
-122,453	-142,259	0,081	0,006
-121,439	-159,562	-0,006	0,000
-120,424	-112,203	-0,069	-0,010
-119,410	70,376	0,120	-0,090
-118,395	-200,000	-0,009	0,030
-117,380	-200,000	-0,013	0,051
-116,366	157,325	0,052	0,053
-115,351	800,000	0,026	-0,053
-114,337	-200,000	0,004	0,084
-113,322	44,242	0,120	-0,080
-112,307	-16,472	0,031	0,014
-111,293	-2,755	0,137	-0,069
-110,278	-200,000	0,008	0,084
-109,264	47,434	-0,018	-0,012
-108,249	-3,708	0,075	0,038
-107,234	42,398	0,100	-0,066
-106,220	659,597	-0,048	-0,090
-105,205	-114,847	0,073	0,010
-104,191	246,424	0,049	0,061
-103,176	140,892	0,047	0,045
-102,162	83,716	-0,060	-0,047
-101,147	472,702	0,033	0,055
-100,132	-120,000	0,143	0,018
-99,118	-200,000	-0,004	0,070
-98,103	-200,000	0,002	0,030
-97,089	-200,000	-0,009	0,082
-96,074	45,652	-0,092	-0,062
-95,059	-7,161	-0,072	0,035
-94,045	677,074	-0,053	0,101
-93,030	-76,924	-0,078	-0,020
-92,016	-200,000	0,028	-0,114
-91,001	800,000	-0,020	-0,062
-89,986	-144,835	0,079	-0,005
-88,972	800,000	0,033	0,101
-87,957	-200,000	-0,042	0,139
-86,943	-200,000	0,011	0,041
-85,928	-200,000	-0,001	0,006
-84,913	-149,194	0,030	0,002
-83,899	-200,000	-0,001	0,079
-82,884	-160,634	0,102	-0,004
-81,870	-200,000	-0,032	0,107
-80,855	-26,478	0,078	-0,033
-79,840	-99,273	0,047	-0,009
-78,826	-200,000	-0,002	-0,171
-77,811	-200,000	-0,029	-0,151
-76,797	89,673	0,058	0,047
-75,782	-142,758	0,156	-0,011
-74,767	-80,428	0,057	-0,014
-73,753	-35,822	-0,072	-0,028
-72,738	-58,528	-0,075	-0,024
-71,724	33,654	-0,108	-0,068
-70,709	-200,000	0,010	-0,104
-69,694	-200,000	-0,009	0,041
-68,680	-200,000	-0,011	0,045
-67,665	-129,417	0,088	-0,009
-66,651	712,215	0,039	0,075
-65,636	-55,584	0,158	0,051
-64,622	-106,592	-0,182	0,029
-63,607	-60,341	-0,015	0,005
-62,592	-175,884	0,034	-0,001
-61,578	54,855	0,009	-0,006
-60,563	-14,308	0,080	0,037
-59,549	800,000	-0,075	0,199
-58,534	-169,537	-1,296	-0,034
-57,519	800,000	-0,794	-1,703
-56,505	-200,000	-0,819	-4,419
-55,490	40,624	0,551	-0,359
-54,476	800,000	4,917	11,682
-53,461	-200,000	13,676	251,509
-52,446	-200,000	690,235	2262,320
-51,432	605,967	1621,228	2942,559
-50,417	118,922	1632,951	1463,840
-49,403	74,154	1287,236	979,232
-48,388	37,845	1023,119	658,049
-47,373	24,127	981,356	586,102
-46,359	23,435	970,774	577,490
-45,344	22,397	966,428	571,495
-44,330	22,298	965,106	570,368
-43,315	22,175	963,731	569,131
-42,300	22,205	962,523	568,493
-41,286	22,126	961,781	567,776
-40,271	22,095	960,806	567,077
-39,257	22,146	959,835	566,646
-38,242	22,121	958,856	565,966
-37,227	22,155	957,910	565,493
-36,213	22,094	957,068	564,776
-35,198	22,038	956,252	564,093
-34,184	22,177	955,558	564,109
-33,169	22,130	954,742	563,453
-32,154	22,147	953,794	562,926
-31,140	22,168	952,907	562,449
-30,125	22,201	952,066	562,036
-29,111	22,238	951,174	561,604
-28,096	22,137	950,440	560,827
-27,082	22,173	949,986	560,650
-26,067	22,183	949,114	560,146
-25,052	22,125	948,429	559,534
-24,038	22,121	947,739	559,092
-23,023	22,190	946,981	558,842
-22,009	22,260	946,380	558,689
-20,994	22,198	945,722	558,081
-19,979	22,199	945,024	557,651
-18,965	22,215	944,546	557,397
-17,950	22,176	943,975	556,913
-16,936	22,143	943,225	556,345
-15,921	22,116	942,563	555,846
-14,906	22,028	941,889	555,147
-13,892	22,044	941,242	554,795
-12,877	22,049	940,711	554,476
-11,863	22,054	939,941	554,014
-10,848	22,025	939,546	553,668
-9,833	22,169	939,021	553,794
-8,819	22,165	938,365	553,372
-7,804	22,082	937,609	552,642
-6,790	22,067	937,083	552,261
-5,775	22,099	936,465	551,978
-4,760	22,138	935,965	551,785
-3,746	22,152	935,076	551,283
-2,731	21,928	934,733	550,352
-1,717	21,888	933,845	549,679
-0,702	21,884	933,084	549,199
0,313	21,708	932,395	549,068
1,327	24,269	930,222	555,783
2,342	32,118	808,453	504,285
3,356	27,045	508,613	308,580
4,371	2,312	373,107	194,954
5,386	-0,682	356,082	182,374
6,400	-1,917	349,968	177,738
7,415	-2,566	347,146	175,512
8,429	-2,880	345,927	174,506
9,444	-2,851	344,872	173,993
10,459	-2,848	344,062	173,571
11,473	-2,879	343,422	173,197
12,488	-2,728	342,899	173,096
13,502	-2,693	342,404	172,872
14,517	-2,867	341,863	172,378
15,531	-2,763	341,245	172,173
16,546	-2,792	340,923	171,962
17,561	-2,763	340,427	171,731
18,575	-2,766	340,165	171,579
19,590	-2,747	339,485	171,244
20,604	-2,775	339,381	171,143
21,619	-2,796	338,947	170,884
22,634	-2,912	338,743	170,630
23,648	-2,810	338,146	170,433
24,663	-2,879	337,945	170,238
25,677	-2,800	337,640	170,160
26,692	-2,777	337,417	170,059
27,707	-2,788	337,240	169,942
28,721	-2,893	336,853	169,610
29,736	-2,839	336,628	169,545
30,750	-2,807	336,148	169,325
31,765	-2,847	335,919	169,148
32,780	-2,887	335,731	168,992
33,794	-3,001	335,443	168,700
34,809	-2,688	335,084	168,866
35,823	-2,800	334,735	168,545
36,838	-2,841	334,465	168,347
37,853	-2,760	334,136	168,260
38,867	-2,941	333,899	167,917
39,882	-2,751	333,819	168,081
40,896	-2,737	333,337	167,838
41,911	-2,871	333,077	167,540
42,926	-2,755	332,804	167,521
43,940	-2,848	332,588	167,289
44,955	-2,741	332,222	167,214
45,969	-2,868	332,113	166,998
46,984	-2,936	331,952	166,825
47,999	-2,910	331,546	166,635
49,013	-2,902	331,234	166,473
50,028	-2,974	331,107	166,313
51,042	-2,971	330,793	166,144
52,057	-2,900	330,418	166,021
53,071	-2,975	330,122	165,772
54,086	-2,874	330,064	165,843
55,101	-2,977	329,698	165,528
56,115	-2,847	329,473	165,547
57,130	-2,715	329,217	165,553
58,144	-2,836	328,954	165,269
59,159	-2,855	328,742	165,126
60,174	-2,730	328,364	165,063
61,188	-2,735	328,207	164,963
62,203	-2,819	327,910	164,705
63,217	-2,612	327,656	164,795
64,232	-2,935	327,462	164,320
65,247	-2,731	327,119	164,362
66,261	-2,770	326,895	164,192
67,276	-2,826	326,429	163,881
68,290	-2,904	326,456	163,792
69,305	-2,817	325,934	163,612
70,320	-2,788	325,965	163,646
71,334	-2,796	325,513	163,395
72,349	-2,861	325,431	163,267
73,363	-2,645	325,086	163,320
74,378	-2,613	324,788	163,191
75,393	-2,730	324,553	162,928
76,407	-2,822	324,404	162,737
77,422	-2,729	324,102	162,674
78,436	-2,823	323,888	162,448
79,451	-2,760	323,522	162,321
80,466	-2,695	323,299	162,266
81,480	-2,841	323,075	161,978
82,495	-2,888	322,728	161,737
83,509	-2,765	322,705	161,847
84,524	-2,701	322,250	161,675
85,539	-2,876	322,169	161,427
86,553	-2,690	321,877	161,471
87,568	-2,747	321,644	161,277
88,582	-2,870	321,414	161,011
89,597	-2,826	321,198	160,937
90,611	-2,744	321,086	160,957
91,626	-2,863	320,903	160,720
92,641	-2,740	320,482	160,630
93,655	-2,743	320,256	160,499
94,670	-2,704	320,109	160,455
95,684	-2,786	319,864	160,227
96,699	-2,722	319,437	160,069
97,714	-2,849	319,490	159,943
98,728	-2,814	319,112	159,777
99,743	-2,790	318,913	159,689
100,757	-2,815	318,618	159,500
101,772	-3,030	318,507	159,196
102,787	-2,791	318,204	159,291
103,801	-2,725	317,925	159,209
104,816	-2,740	317,752	159,092
105,830	-2,755	317,480	158,925
106,845	-2,740	317,244	158,809
107,860	-2,623	317,022	158,811
108,874	-2,829	316,959	158,541
109,889	-2,867	316,692	158,353
110,903	-2,718	316,216	158,261
111,918	-2,829	316,206	158,122
112,933	-2,888	315,941	157,912
113,947	-2,857	315,790	157,856
114,962	-2,616	315,434	157,923
115,976	-2,825	315,178	157,557
116,991	-2,653	315,181	157,729
118,006	-2,750	314,617	157,329
119,020	-2,667	314,438	157,313
120,035	-2,676	314,478	157,310
121,049	-2,713	314,189	157,112
122,064	-2,796	314,074	156,951
123,079	-2,605	313,786	156,998
124,093	-2,553	313,529	156,910
125,108	-2,870	313,373	156,480
126,122	-2,767	313,010	156,395
127,137	-2,808	312,690	156,178
128,151	-2,777	312,542	156,123
129,166	-2,814	312,438	156,018
130,181	-2,734	312,209	155,974
131,195	-2,846	311,850	155,662
132,210	-2,765	311,721	155,670
133,224	-2,811	311,390	155,442
134,239	-2,904	311,454	155,361
135,254	-2,735	310,968	155,283
136,268	-2,549	310,634	155,300
137,283	-2,743	310,416	154,972
138,297	-2,767	310,269	154,860
139,312	-2,854	310,121	154,680
140,327	-2,817	309,939	154,614
141,341	-2,661	309,820	154,706
142,356	-2,651	309,500	154,542
143,370	-2,616	309,349	154,490
144,385	-2,740	309,151	154,247
145,400	-2,758	308,898	154,088
146,414	-2,733	308,642	153,973
147,429	-2,633	308,440	153,963
148,443	-2,819	308,146	153,608
149,458	-2,836	308,125	153,566
150,473	-2,708	307,649	153,449
151,487	-2,758	307,527	153,322
152,502	-2,602	307,245	153,331
153,516	-2,774	307,088	153,059
154,531	-2,612	306,904	153,124
155,546	-2,626	306,619	152,953
156,560	-2,697	306,399	152,756
157,575	-2,528	306,151	152,794
158,589	-2,733	306,095	152,539
159,604	-2,741	305,767	152,354
160,619	-2,676	305,605	152,326
161,633	-2,527	305,337	152,335
162,648	-2,688	305,167	152,069
163,662	-2,718	305,091	151,987
164,677	-2,734	304,926	151,874
165,692	-2,619	304,709	151,871
166,706	-2,579	304,382	151,736
167,721	-2,654	304,213	151,561
168,735	-2,576	304,156	151,600
169,750	-2,603	303,921	151,442
170,764	-2,663	303,803	151,307
171,779	-2,586	303,529	151,237
172,794	-2,621	303,263	151,055
173,808	-2,672	303,054	150,884
174,823	-2,666	302,919	150,810
175,837	-2,780	302,508	150,475
176,852	-2,636	302,425	150,568
177,867	-2,644	302,350	150,508
178,881	-2,739	302,134	150,290
179,896	-2,689	301,843	150,184
180,910	-2,609	301,619	150,141
181,925	-2,685	301,462	149,971
182,940	-2,599	301,378	150,005
183,954	-2,559	301,106	149,896
184,969	-2,749	300,880	149,576
185,983	-2,635	300,582	149,531
186,998	-2,620	300,389	149,438
188,013	-2,500	300,054	149,380
189,027	-2,604	300,050	149,258
190,042	-2,666	299,811	149,062
191,056	-2,656	299,547	148,929
192,071	-2,451	299,487	149,093
193,086	-2,606	299,279	148,820
194,100	-2,611	299,007	148,667
195,115	-2,597	298,711	148,520
196,129	-2,597	298,436	148,370
197,144	-2,728	298,363	148,187
198,159	-2,616	298,041	148,128
199,173	-2,590	297,946	148,094
200,188	-2,512	297,712	148,043
201,202	-2,530	297,588	147,950
202,217	-2,618	297,424	147,766
203,232	-2,618	296,933	147,509
204,246	-2,691	296,952	147,432
205,261	-2,467	296,588	147,463
206,275	-2,344	296,470	147,515
207,290	-2,557	296,385	147,246
208,304	-2,381	296,034	147,235
209,319	-2,581	295,989	146,998
210,334	-2,468	295,700	146,955
211,348	-2,595	295,516	146,723
212,363	-2,582	295,334	146,633
213,377	-2,468	294,967	146,552
214,392	-2,480	294,968	146,527
215,407	-2,606	294,672	146,242
216,421	-2,556	294,478	146,181
217,436	-2,662	294,399	146,023
218,450	-2,570	294,088	145,948
219,465	-2,509	293,934	145,920
220,480	-2,527	293,776	145,810
221,494	-2,525	293,582	145,703
222,509	-2,749	293,536	145,445
223,523	-2,575	293,300	145,487
224,538	-2,358	292,986	145,533
225,553	-2,601	292,861	145,217
226,567	-2,461	292,563	145,195
227,582	-2,533	292,437	145,049
228,596	-2,512	292,304	144,990
229,611	-2,603	292,206	144,840
230,626	-2,400	291,842	144,846
231,640	-2,516	291,815	144,705
232,655	-2,733	291,573	144,359
233,669	-2,650	291,205	144,245
234,684	-2,589	290,977	144,180
235,699	-2,475	290,824	144,203
236,713	-2,723	290,722	143,896
237,728	-2,605	290,534	143,906
238,742	-2,638	290,344	143,767
239,757	-2,507	290,127	143,775
240,772	-2,556	289,902	143,603
241,786	-2,509	289,568	143,470
242,801	-2,658	289,581	143,318
243,815	-2,593	289,340	143,249
244,830	-2,414	289,112	143,298
245,844	-2,393	288,928	143,214
246,859	-2,496	288,815	143,045
247,874	-2,632	288,506	142,747
248,888	-2,495	288,400	142,815
249,903	-2,610	288,181	142,583
250,917	-2,348	288,024	142,747
251,932	-2,551	287,829	142,440
252,947	-2,346	287,638	142,532
253,961	-2,369	287,579	142,468
254,976	-2,005	287,392	142,716
255,990	-2,594	287,178	142,026
257,005	-2,671	287,185	141,942
258,020	-0,657	287,555	144,064
259,034	0,767	287,936	145,622
260,049	1,282	288,080	146,181
261,063	1,833	287,986	146,654
262,078	1,916	287,892	146,674
263,093	2,283	287,875	147,006
264,107	2,344	287,875	147,052
265,122	2,701	287,696	147,293
266,136	2,934	287,439	147,373
267,151	2,811	287,390	147,217
268,166	2,548	287,115	146,808
269,180	2,930	286,798	147,001
270,195	2,716	286,735	146,750
271,209	2,851	286,500	146,746
272,224	2,723	286,430	146,574
273,239	2,691	286,230	146,429
274,253	2,723	285,703	146,176
275,268	2,436	285,670	145,871
276,282	2,543	285,518	145,883
277,297	2,627	285,232	145,804
278,312	2,697	285,128	145,805
279,326	2,676	284,941	145,677
280,341	2,618	284,870	145,572
281,355	2,582	284,658	145,416
282,370	2,620	284,409	145,312
283,384	2,379	284,272	144,999
284,399	2,543	284,120	145,065
285,414	2,518	283,882	144,907
286,428	2,415	283,573	144,639
287,443	2,475	283,417	144,603
288,457	2,461	283,211	144,471
289,472	2,388	283,081	144,323
290,487	2,380	282,995	144,258
291,501	2,487	282,665	144,179
292,516	2,354	282,423	143,917
293,530	2,224	282,377	143,758
294,545	2,275	282,160	143,683
295,560	2,404	282,029	143,725
296,574	2,256	281,824	143,468
297,589	2,405	281,582	143,473
298,603	2,119	281,345	143,069
299,618	2,495	281,240	143,357
300,633	2,428	281,114	143,218
301,647	2,437	280,912	143,110
302,662	2,524	280,738	143,091
303,676	2,577	280,567	143,040
304,691	2,521	280,413	142,896
305,706	2,699	280,296	142,992
306,720	2,821	280,036	142,960
307,735	2,621	279,870	142,675
308,749	2,728	279,767	142,711
309,764	2,589	279,479	142,421
310,779	2,565	279,453	142,373
311,793	2,619	279,102	142,231
312,808	2,710	278,824	142,162
313,822	2,470	278,986	142,007
314,837	2,502	278,603	141,830
315,852	2,520	278,368	141,715
316,866	2,578	278,216	141,678
317,881	2,826	277,926	141,748
318,895	2,628	277,753	141,464
319,910	2,636	277,666	141,414
320,925	2,497	277,562	141,219
321,939	2,564	277,341	141,156
322,954	2,541	277,358	141,131
323,968	2,678	277,071	141,100
324,983	2,672	276,854	140,971
325,997	2,762	276,641	140,933
327,012	2,662	276,437	140,724
328,027	2,484	276,417	140,538
329,041	2,622	276,153	140,518
330,056	2,671	276,020	140,483
331,070	2,767	275,844	140,469
332,085	2,872	275,586	140,422
333,100	2,695	275,446	140,176
334,114	2,800	275,220	140,144
335,129	2,680	275,008	139,913
336,143	2,910	274,809	140,011
337,158	2,719	274,668	139,751
338,173	2,716	274,537	139,670
339,187	2,666	274,380	139,531
340,202	2,838	274,150	139,559
341,216	2,826	273,926	139,422
342,231	2,729	273,927	139,322
343,246	2,841	273,510	139,199
344,260	2,735	273,428	139,048
345,275	2,633	273,462	138,960
346,289	2,657	273,223	138,848
347,304	2,609	273,043	138,700
348,319	2,754	272,713	138,652
349,333	2,765	272,532	138,558
350,348	2,727	272,501	138,496
351,362	2,665	272,273	138,310
352,377	2,775	272,078	138,299
353,392	2,631	271,982	138,108
354,406	2,825	271,775	138,165
355,421	192,836	1350,081	1434,943
356,435	155,710	1481,566	1435,098
