DTS Sentinel unit serial number:	SN410029Multiplexer serial number:	ORYXHardware model number:	OX2-SRSoftware version number:	ORYX F/W v4,00 Oryx Data Collector v3.7.2.0data status	okinstallation	B4 Nyhavnadifferential loss correction	single-endedforward channel	channel 2reverse channel	N/Adate	2023/12/16time	06:00:13forward acquisition time	300,00reverse acquisition time	0,00gamma	499,1914k internal	0,3128k external	0,3128temperature offset calibration	1,0000default loss term (dB/km)	0,3820temperature slope calibration	1,0000multiplexer offset coefficient	1,0000multiplexer slope coefficient	1,0000fibre end	0,00T internal ref (°C)	22,24T ext. ref 1 (°C)	7,55T ext. ref 2 (°C)	7,72length (m)	temperature (°C)	Stokes	anti-Stokes-744,400	-92,098	0,072	-0,015
-743,385	-146,305	-0,178	-0,011
-742,371	-76,820	0,159	0,041
-741,356	-108,704	-0,257	0,041
-740,342	-200,000	0,037	0,237
-739,327	49,944	-0,247	0,173
-738,312	800,000	0,024	-0,054
-737,298	-178,572	-0,247	0,004
-736,283	111,805	0,087	-0,078
-735,269	31,125	-0,226	0,144
-734,254	800,000	0,056	-0,153
-733,239	-92,181	-0,467	-0,097
-732,225	800,000	0,069	-0,152
-731,210	-103,085	0,053	0,009
-730,196	-82,712	-0,145	-0,035
-729,181	-80,390	0,081	0,020
-728,167	800,000	-0,036	0,087
-727,152	449,310	-0,104	0,171
-726,137	467,713	-0,065	-0,109
-725,123	-90,854	-0,175	-0,037
-724,108	-200,000	-0,013	-0,064
-723,094	26,259	-0,063	-0,039
-722,079	220,432	-0,074	0,089
-721,064	800,000	0,048	0,132
-720,050	-200,000	-0,012	0,084
-719,035	800,000	0,043	0,091
-718,021	16,398	0,107	-0,063
-717,006	-117,519	-0,118	-0,016
-715,991	-200,000	0,018	-0,085
-714,977	800,000	-0,040	-0,092
-713,962	86,980	-0,129	-0,106
-712,948	66,268	0,039	0,029
-711,933	-22,116	0,071	0,032
-710,918	10,654	-0,075	-0,042
-709,904	800,000	-0,031	-0,070
-708,889	800,000	-0,033	0,085
-707,875	800,000	0,036	-0,110
-706,860	-1,741	-0,086	-0,045
-705,845	-200,000	0,001	-0,014
-704,831	482,702	-0,029	0,050
-703,816	-33,977	0,082	-0,033
-702,802	-145,812	-0,172	-0,011
-701,787	-200,000	0,017	-0,074
-700,772	-147,913	-0,130	-0,008
-699,758	-16,962	0,106	-0,049
-698,743	-200,000	-0,001	-0,086
-697,729	-129,015	0,084	-0,009
-696,714	11,368	0,065	-0,037
-695,699	45,496	-0,093	-0,064
-694,685	800,000	-0,024	-0,066
-693,670	364,389	0,066	-0,098
-692,656	14,125	-0,119	-0,069
-691,641	7,439	0,063	0,035
-690,627	83,155	-0,055	-0,044
-689,612	169,847	-0,071	-0,076
-688,597	90,883	-0,052	-0,043
-687,583	406,846	-0,048	-0,076
-686,568	136,458	-0,120	-0,116
-685,554	120,470	0,118	-0,109
-684,539	64,334	0,047	-0,035
-683,524	77,923	-0,048	0,038
-682,510	-28,332	-0,103	0,044
-681,495	-21,423	0,026	0,012
-680,481	170,014	-0,013	-0,014
-679,466	-200,000	0,001	-0,076
-678,451	-137,700	0,069	0,006
-677,437	21,582	0,098	0,059
-676,422	414,500	-0,056	0,088
-675,408	-31,758	0,120	0,050
-674,393	63,165	-0,056	-0,042
-673,378	207,675	-0,112	-0,130
-672,364	-44,286	-0,107	-0,040
-671,349	-200,000	-0,041	-0,136
-670,335	-51,770	-0,177	-0,061
-669,320	24,932	0,089	-0,054
-668,305	800,000	0,080	0,187
-667,291	703,392	0,036	0,070
-666,276	-58,202	0,033	0,011
-665,262	-70,142	0,090	-0,025
-664,247	800,000	-0,042	-0,137
-663,232	-200,000	0,012	0,046
-662,218	-40,277	0,083	0,032
-661,203	756,607	0,028	0,056
-660,189	-117,756	-0,091	0,012
-659,174	-39,967	0,041	-0,016
-658,159	-71,926	-0,147	0,040
-657,145	36,037	-0,094	-0,061
-656,130	414,618	-0,059	0,093
-655,116	30,389	0,076	0,048
-654,101	6,188	0,061	-0,034
-653,086	-96,202	-0,093	0,018
-652,072	800,000	-0,069	-0,207
-651,057	98,961	-0,089	0,076
-650,043	37,438	-0,096	-0,063
-649,028	-166,474	0,152	0,005
-648,014	-106,266	-0,084	0,014
-646,999	175,509	-0,103	-0,110
-645,984	-145,851	-0,071	-0,005
-644,970	90,012	0,102	0,084
-643,955	800,000	-0,047	-0,109
-642,941	-113,311	-0,112	0,016
-641,926	800,000	-0,049	-0,111
-640,911	-200,000	-0,014	0,096
-639,897	-172,918	0,060	-0,001
-638,882	-8,681	-0,039	0,019
-637,868	287,944	0,013	-0,017
-636,853	56,404	-0,061	0,044
-635,838	-72,628	0,071	-0,019
-634,824	154,503	-0,041	0,042
-633,809	-64,280	0,046	0,014
-632,795	-200,000	0,037	0,142
-631,780	31,339	0,187	0,119
-630,765	-51,237	0,026	0,009
-629,751	-15,432	-0,090	-0,043
-628,736	141,428	0,104	-0,102
-627,722	-122,825	-0,079	-0,009
-626,707	84,982	-0,031	-0,025
-625,692	119,336	0,061	-0,056
-624,678	-200,000	-0,017	0,100
-623,663	203,995	-0,086	-0,099
-622,649	79,344	-0,068	0,054
-621,634	46,936	-0,095	-0,065
-620,619	247,690	-0,081	-0,101
-619,605	424,168	-0,030	0,048
-618,590	-53,208	-0,091	0,031
-617,576	13,931	0,074	-0,042
-616,561	-200,000	-0,020	-0,099
-615,546	800,000	-0,032	0,085
-614,532	-200,000	-0,001	-0,105
-613,517	-173,516	0,076	0,002
-612,503	-200,000	-0,008	0,042
-611,488	-45,014	0,059	-0,022
-610,474	323,516	0,049	-0,069
-609,459	-200,000	-0,001	-0,060
-608,444	800,000	-0,046	-0,109
-607,430	-140,478	0,066	0,005
-606,415	73,769	0,128	0,099
-605,401	-16,088	0,089	0,042
-604,386	-146,727	0,136	-0,009
-603,371	-200,000	0,012	0,178
-602,357	267,660	0,117	-0,152
-601,342	-118,413	-0,080	0,010
-600,328	214,982	-0,074	0,087
-599,313	-68,196	0,059	0,017
-598,298	212,401	0,082	0,096
-597,284	-71,772	0,095	0,026
-596,269	703,660	0,080	0,156
-595,255	-200,000	0,021	-0,102
-594,240	35,118	-0,090	-0,058
-593,225	113,758	-0,024	-0,021
-592,211	-100,025	-0,128	-0,023
-591,196	375,008	-0,026	-0,039
-590,182	-99,442	-0,082	0,015
-589,167	-179,809	0,115	-0,002
-588,152	273,165	0,037	0,049
-587,138	800,000	-0,009	0,028
-586,123	64,700	-0,047	0,035
-585,109	24,955	-0,082	-0,050
-584,094	800,000	-0,011	-0,031
-583,079	510,696	0,082	0,142
-582,065	-200,000	-0,011	-0,041
-581,050	523,926	-0,036	0,062
-580,036	-200,000	-0,035	0,115
-579,021	-15,701	-0,078	-0,036
-578,006	-200,000	0,005	-0,056
-576,992	800,000	0,028	-0,080
-575,977	-200,000	-0,020	-0,091
-574,963	306,912	0,072	-0,100
-573,948	-200,000	-0,036	0,119
-572,934	-10,850	0,126	-0,061
-571,919	619,879	-0,115	-0,215
-570,904	-63,501	-0,108	0,033
-569,890	96,578	-0,179	-0,151
-568,875	-19,347	0,073	0,033
-567,861	353,968	0,030	-0,044
-566,846	800,000	0,038	-0,101
-565,831	-156,884	-0,056	-0,003
-564,817	-54,674	0,013	-0,004
-563,802	67,609	-0,170	0,128
-562,788	56,576	-0,097	-0,070
-561,773	37,702	0,165	0,108
-560,758	800,000	-0,042	0,106
-559,744	345,929	0,072	0,105
-558,729	800,000	-0,028	0,085
-557,715	-155,073	-0,048	-0,002
-556,700	216,794	-0,082	-0,096
-555,685	19,135	-0,038	0,022
-554,671	-200,000	-0,044	-0,172
-553,656	-200,000	-0,006	-0,127
-552,642	45,228	0,040	0,027
-551,627	216,148	-0,077	0,090
-550,612	388,765	-0,082	-0,126
-549,598	-200,000	-0,019	-0,194
-548,583	91,324	0,077	-0,064
-547,569	-9,689	0,061	-0,030
-546,554	-58,441	-0,055	-0,017
-545,539	28,483	0,055	-0,034
-544,525	35,859	0,061	0,040
-543,510	207,332	-0,025	0,028
-542,496	93,565	-0,057	-0,047
-541,481	-140,433	-0,087	-0,007
-540,466	800,000	-0,031	-0,090
-539,452	61,496	0,068	-0,050
-538,437	-135,012	0,102	0,009
-537,423	-165,711	0,044	0,001
-536,408	-200,000	0,001	-0,072
-535,393	-148,215	-0,169	0,010
-534,379	-66,301	0,071	-0,021
-533,364	-200,000	0,007	-0,099
-532,350	296,203	-0,053	-0,072
-531,335	171,840	-0,023	0,024
-530,321	472,449	-0,027	0,046
-529,306	-52,435	-0,209	0,071
-528,291	-31,837	-0,122	-0,050
-527,277	72,799	0,068	-0,053
-526,262	370,260	-0,054	-0,080
-525,248	800,000	0,033	-0,070
-524,233	69,700	-0,051	0,039
-523,218	679,704	-0,076	0,147
-522,204	-200,000	0,001	0,131
-521,189	-129,562	-0,053	0,005
-520,175	153,557	-0,054	0,055
-519,160	-200,000	0,004	-0,043
-518,145	800,000	-0,025	0,076
-517,131	18,263	0,048	0,028
-516,116	-200,000	0,012	0,083
-515,102	-200,000	-0,028	-0,103
-514,087	-200,000	0,018	-0,066
-513,072	-124,329	0,101	-0,011
-512,058	198,868	0,059	0,066
-511,043	33,419	-0,016	0,010
-510,029	133,882	-0,116	-0,111
-509,014	800,000	0,016	0,046
-507,999	-19,284	0,101	0,046
-506,985	117,662	-0,066	-0,060
-505,970	800,000	-0,048	-0,099
-504,956	800,000	-0,028	-0,089
-503,941	-7,211	0,104	0,052
-502,926	-200,000	-0,028	0,139
-501,912	-200,000	-0,007	0,039
-500,897	-200,000	0,003	0,094
-499,883	-93,738	0,159	0,032
-498,868	800,000	0,023	-0,056
-497,853	294,507	0,043	-0,058
-496,839	-50,963	-0,261	-0,090
-495,824	191,438	-0,099	0,110
-494,810	-33,612	-0,079	-0,032
-493,795	-62,631	0,113	0,034
-492,781	-200,000	-0,021	-0,069
-491,766	-200,000	-0,021	-0,089
-490,751	-194,027	-0,076	-0,000
-489,737	512,970	0,055	-0,094
-488,722	-132,228	0,048	0,005
-487,708	-200,000	-0,002	0,053
-486,693	-200,000	-0,019	-0,118
-485,678	754,094	0,092	0,184
-484,664	67,822	-0,068	-0,051
-483,649	-200,000	0,015	-0,092
-482,635	-200,000	-0,014	0,082
-481,620	-200,000	-0,014	-0,102
-480,605	-168,968	0,035	0,001
-479,591	-28,228	0,115	-0,049
-478,576	456,425	-0,027	-0,045
-477,562	-200,000	0,011	-0,086
-476,547	-200,000	0,004	-0,170
-475,532	800,000	0,021	-0,060
-474,518	34,361	0,037	0,024
-473,503	229,953	0,061	-0,073
-472,489	42,068	0,119	-0,080
-471,474	-178,558	-0,134	-0,002
-470,459	-11,161	0,071	0,034
-469,445	70,311	-0,052	0,039
-468,430	800,000	0,047	-0,111
-467,416	800,000	0,058	0,146
-466,401	-200,000	-0,003	-0,051
-465,386	800,000	-0,029	-0,081
-464,372	-3,386	0,151	0,077
-463,357	-123,730	0,074	0,008
-462,343	-200,000	0,001	-0,120
-461,328	217,930	0,086	-0,101
-460,313	800,000	0,037	0,077
-459,299	-86,836	0,031	-0,007
-458,284	46,925	0,079	0,054
-457,270	-65,040	0,060	-0,018
-456,255	36,523	0,054	0,035
-455,241	240,555	0,035	-0,044
-454,226	240,201	-0,084	0,103
-453,211	137,678	-0,043	0,041
-452,197	-19,035	0,118	-0,054
-451,182	-127,873	0,075	-0,008
-450,168	-200,000	-0,013	-0,075
-449,153	-200,000	-0,004	-0,108
-448,138	-80,520	-0,180	0,044
-447,124	169,062	-0,008	-0,009
-446,109	89,084	0,079	0,065
-445,095	800,000	0,034	-0,097
-444,080	144,089	-0,059	0,058
-443,065	-200,000	-0,001	0,058
-442,051	-18,259	-0,056	-0,026
-441,036	309,499	0,046	0,064
-440,022	-58,123	-0,069	0,022
-439,007	551,420	-0,028	-0,049
-437,992	-52,944	-0,030	0,010
-436,978	0,622	0,128	0,067
-435,963	40,684	0,064	-0,043
-434,949	11,193	-0,091	-0,051
-433,934	3,692	-0,083	0,044
-432,919	199,113	0,068	-0,076
-431,905	1,980	-0,059	0,031
-430,890	-200,000	-0,003	-0,138
-429,876	800,000	0,019	0,061
-428,861	-62,510	-0,055	0,017
-427,846	342,347	-0,055	0,080
-426,832	800,000	-0,057	0,162
-425,817	-139,507	-0,098	-0,008
-424,803	18,666	-0,101	-0,059
-423,788	-200,000	0,020	-0,089
-422,773	206,615	0,068	0,078
-421,759	-200,000	0,009	0,098
-420,744	800,000	-0,027	0,067
-419,730	-98,168	0,106	0,020
-418,715	46,007	-0,082	-0,056
-417,701	229,437	-0,062	-0,075
-416,686	235,309	-0,070	-0,085
-415,671	-200,000	0,032	0,106
-414,657	-48,650	0,100	-0,035
-413,642	275,753	-0,020	-0,026
-412,628	235,905	-0,099	-0,120
-411,613	-200,000	0,006	-0,038
-410,598	0,329	-0,055	0,029
-409,584	145,787	-0,049	-0,048
-408,569	25,315	0,094	-0,057
-407,555	-200,000	-0,016	0,076
-406,540	234,705	-0,053	0,064
-405,525	37,343	0,076	-0,049
-404,511	46,481	-0,120	-0,082
-403,496	200,055	-0,090	-0,101
-402,482	-40,742	0,066	-0,025
-401,467	-200,000	-0,015	-0,090
-400,452	-43,071	-0,116	0,043
-399,438	-125,030	0,042	0,005
-398,423	800,000	-0,031	0,071
-397,409	-200,000	-0,008	-0,115
-396,394	63,117	0,052	-0,038
-395,379	-109,364	-0,115	0,018
-394,365	179,399	-0,047	0,050
-393,350	183,469	-0,004	-0,005
-392,336	33,251	0,091	0,058
-391,321	63,371	0,056	0,041
-390,306	-200,000	-0,016	0,110
-389,292	800,000	-0,029	-0,077
-388,277	207,091	-0,066	-0,076
-387,263	38,957	0,114	0,074
-386,248	40,324	-0,094	0,062
-385,233	13,680	-0,067	0,038
-384,219	542,977	0,063	0,110
-383,204	-155,278	-0,156	0,007
-382,190	138,731	-0,013	-0,012
-381,175	140,031	0,071	-0,068
-380,160	-28,953	0,159	-0,067
-379,146	-86,847	0,064	0,014
-378,131	-200,000	-0,013	-0,059
-377,117	-200,000	-0,015	0,084
-376,102	-60,192	-0,172	-0,054
-375,088	-55,842	0,093	-0,030
-374,073	-200,000	-0,025	0,136
-373,058	-200,000	-0,004	0,034
-372,044	800,000	0,078	0,170
-371,029	185,795	-0,085	0,093
-370,015	-200,000	-0,005	-0,100
-369,000	-41,746	-0,030	-0,011
-367,985	-109,585	0,113	-0,017
-366,971	207,518	-0,076	-0,087
-365,956	-162,607	0,151	0,005
-364,942	380,272	0,046	0,070
-363,927	-135,626	-0,115	-0,010
-362,912	800,000	-0,035	0,075
-361,898	800,000	0,035	0,114
-360,883	-200,000	0,021	-0,131
-359,869	-200,000	0,018	-0,081
-358,854	143,722	0,021	0,020
-357,839	-200,000	-0,016	0,082
-356,825	-156,374	0,117	0,005
-355,810	739,772	0,023	-0,046
-354,796	-200,000	-0,001	-0,256
-353,781	18,501	-0,039	-0,023
-352,766	243,609	0,077	-0,095
-351,752	135,141	0,144	-0,137
-350,737	800,000	0,010	-0,031
-349,723	-200,000	0,003	-0,055
-348,708	560,495	0,031	0,055
-347,693	512,610	-0,012	-0,021
-346,679	-200,000	-0,036	-0,118
-345,664	636,903	0,025	0,046
-344,650	130,738	-0,052	-0,048
-343,635	-200,000	0,019	0,107
-342,620	-36,177	0,125	0,049
-341,606	-95,439	-0,059	0,011
-340,591	-200,000	0,001	-0,181
-339,577	417,367	-0,043	-0,068
-338,562	428,226	0,027	-0,043
-337,548	-200,000	0,003	-0,035
-336,533	87,162	0,112	-0,091
-335,518	481,904	-0,028	0,046
-334,504	800,000	0,029	0,082
-333,489	52,089	0,016	-0,011
-332,475	-84,502	-0,183	-0,042
-331,460	-86,907	-0,044	-0,010
-330,445	800,000	0,051	0,114
-329,431	-200,000	-0,020	-0,127
-328,416	7,018	0,025	0,014
-327,402	147,163	-0,041	0,041
-326,387	-200,000	-0,025	0,080
-325,372	-200,000	0,002	-0,125
-324,358	7,079	-0,153	-0,083
-323,343	-200,000	0,017	-0,079
-322,329	-72,148	0,051	0,014
-321,314	-200,000	-0,029	0,097
-320,299	704,099	0,053	0,102
-319,285	-200,000	-0,012	0,125
-318,270	27,887	-0,060	-0,037
-317,256	-200,000	0,006	-0,063
-316,241	-200,000	0,001	0,039
-315,226	33,840	0,017	0,011
-314,212	791,197	0,072	0,146
-313,197	-142,519	-0,085	-0,006
-312,183	250,791	0,082	0,103
-311,168	-70,044	-0,113	-0,031
-310,153	767,128	0,047	-0,095
-309,139	62,306	-0,088	0,064
-308,124	-1,624	-0,042	0,022
-307,110	-152,100	0,203	0,011
-306,095	39,785	-0,007	-0,004
-305,080	-5,638	0,143	0,071
-304,066	316,581	-0,088	-0,122
-303,051	71,721	-0,082	-0,062
-302,037	-103,104	0,170	0,029
-301,022	629,209	-0,054	-0,101
-300,008	-42,575	-0,056	-0,021
-298,993	597,513	0,023	-0,042
-297,978	-200,000	-0,003	0,035
-296,964	-90,884	-0,060	0,012
-295,949	-40,696	0,037	-0,014
-294,935	136,585	-0,049	0,047
-293,920	92,770	0,013	0,011
-292,905	-200,000	0,005	0,062
-291,891	726,025	0,015	0,029
-290,876	744,898	-0,020	0,039
-289,862	-200,000	0,007	-0,080
-288,847	-33,918	-0,151	-0,060
-287,832	-200,000	0,012	0,152
-286,818	-200,000	0,019	0,139
-285,803	800,000	-0,036	0,086
-284,789	-200,000	-0,026	0,132
-283,774	800,000	-0,044	-0,095
-282,759	72,971	0,129	0,098
-281,745	-200,000	0,001	-0,090
-280,730	209,793	-0,079	-0,090
-279,716	-66,849	0,063	0,018
-278,701	352,978	-0,081	0,118
-277,686	-200,000	0,006	-0,030
-276,672	-200,000	0,035	0,116
-275,657	62,510	0,122	-0,089
-274,643	-200,000	-0,019	-0,094
-273,628	-155,457	-0,117	-0,005
-272,613	-135,072	-0,145	0,013
-271,599	76,434	0,123	0,095
-270,584	-200,000	-0,009	0,163
-269,570	23,606	-0,071	0,043
-268,555	-48,496	-0,179	-0,063
-267,540	453,981	0,043	0,070
-266,526	800,000	0,046	-0,119
-265,511	624,930	-0,064	-0,118
-264,497	-1,802	0,064	0,033
-263,482	152,054	0,083	0,083
-262,467	-200,000	0,000	-0,108
-261,453	104,473	0,082	-0,070
-260,438	10,625	-0,065	-0,036
-259,424	-24,418	0,049	0,021
-258,409	9,575	-0,028	0,016
-257,395	-91,252	-0,078	0,016
-256,380	62,096	-0,031	0,022
-255,365	-53,576	-0,085	0,028
-254,351	800,000	0,030	0,069
-253,336	-200,000	-0,006	0,037
-252,322	11,411	-0,152	-0,085
-251,307	-26,240	0,103	-0,044
-250,292	393,874	-0,059	0,090
-249,278	276,511	0,060	0,078
-248,263	-82,949	-0,064	0,015
-247,249	63,240	0,083	0,061
-246,234	472,229	0,024	-0,040
-245,219	-200,000	-0,044	-0,151
-244,205	800,000	0,015	0,037
-243,190	-200,000	-0,000	-0,015
-242,176	46,214	0,087	-0,059
-241,161	404,064	0,038	0,058
-240,146	81,294	0,125	0,099
-239,132	88,837	-0,163	0,132
-238,117	-200,000	0,008	0,185
-237,103	-7,630	0,093	0,046
-236,088	-200,000	0,026	0,154
-235,073	800,000	-0,070	0,208
-234,059	-200,000	0,011	-0,071
-233,044	-102,292	0,146	0,025
-232,030	-103,572	-0,053	-0,009
-231,015	800,000	0,023	-0,053
-230,000	-200,000	-0,012	-0,048
-228,986	66,083	-0,017	-0,013
-227,971	-74,413	0,058	0,015
-226,957	800,000	0,034	0,070
-225,942	18,618	0,138	0,080
-224,927	-124,373	0,126	0,014
-223,913	232,076	0,063	0,075
-222,898	-52,657	0,089	0,030
-221,884	149,536	-0,041	0,040
-220,869	-4,927	0,175	-0,088
-219,855	-52,509	0,111	-0,037
-218,840	87,964	-0,019	0,015
-217,825	314,605	-0,030	-0,042
-216,811	800,000	-0,059	0,156
-215,796	-200,000	0,003	0,117
-214,782	731,971	0,025	0,049
-213,767	11,297	0,038	-0,021
-212,752	11,085	0,070	-0,039
-211,738	800,000	-0,058	0,172
-210,723	-200,000	-0,004	-0,036
-209,709	-200,000	-0,025	0,178
-208,694	-200,000	0,011	-0,074
-207,679	-200,000	0,001	-0,039
-206,665	176,548	0,054	-0,057
-205,650	-200,000	-0,018	0,091
-204,636	-200,000	0,009	0,038
-203,621	684,112	-0,012	0,023
-202,606	-119,744	0,099	0,012
-201,592	800,000	-0,049	-0,132
-200,577	800,000	-0,035	0,078
-199,563	-200,000	-0,001	0,091
-198,548	-43,347	0,092	0,034
-197,533	800,000	-0,024	0,061
-196,519	-171,334	0,064	-0,002
-195,504	91,962	-0,101	-0,083
-194,490	-200,000	-0,019	-0,081
-193,475	-200,000	-0,006	0,038
-192,460	-200,000	0,007	0,045
-191,446	800,000	0,043	0,097
-190,431	338,880	0,026	0,037
-189,417	-18,563	0,124	-0,056
-188,402	279,071	-0,064	-0,084
-187,387	56,623	-0,051	0,036
-186,373	-200,000	-0,016	0,094
-185,358	-200,000	0,004	0,083
-184,344	123,813	-0,118	0,108
-183,329	240,865	-0,029	0,035
-182,315	-200,000	-0,008	0,049
-181,300	126,315	-0,077	0,071
-180,285	446,369	-0,035	-0,057
-179,271	-15,290	-0,075	0,035
-178,256	-87,557	-0,118	-0,026
-177,242	-200,000	-0,004	-0,026
-176,227	105,951	0,099	-0,085
-175,212	-200,000	0,021	-0,115
-174,198	122,374	0,065	-0,059
-173,183	-73,526	-0,095	0,025
-172,169	-147,012	-0,032	-0,002
-171,154	-200,000	-0,009	0,043
-170,139	800,000	0,111	0,246
-169,125	-66,854	0,077	0,022
-168,110	61,779	0,078	0,056
-167,096	19,363	0,072	0,042
-166,081	94,711	0,040	-0,033
-165,066	-200,000	0,034	-0,201
-164,052	-103,852	-0,086	-0,014
-163,037	54,483	0,091	-0,064
-162,023	215,088	0,005	0,006
-161,008	247,566	-0,072	0,089
-159,993	177,133	-0,040	0,042
-158,979	145,950	-0,064	-0,062
-157,964	-116,371	-0,026	-0,003
-156,950	800,000	0,039	0,114
-155,935	-200,000	0,034	0,109
-154,920	64,396	0,105	-0,076
-153,906	-200,000	0,005	-0,088
-152,891	125,215	0,086	-0,078
-151,877	800,000	-0,061	-0,172
-150,862	-200,000	-0,013	-0,097
-149,847	-63,238	0,115	0,034
-148,833	175,304	0,032	0,034
-147,818	-200,000	0,024	0,096
-146,804	-200,000	-0,004	0,082
-145,789	-128,676	-0,051	0,005
-144,775	19,049	-0,081	-0,047
-143,760	-200,000	0,012	0,039
-142,745	-88,830	-0,087	-0,019
-141,731	109,971	-0,035	-0,031
-140,716	13,608	0,040	0,022
-139,702	-200,000	0,006	0,050
-138,687	-200,000	0,019	0,080
-137,672	-200,000	-0,025	-0,104
-136,658	91,288	-0,044	-0,036
-135,643	-200,000	0,003	-0,059
-134,629	800,000	-0,044	-0,094
-133,614	425,086	-0,095	0,150
-132,599	-40,449	0,087	0,033
-131,585	-117,022	0,036	-0,005
-130,570	169,584	0,059	0,061
-129,556	115,875	0,088	0,078
-128,541	-200,000	-0,008	-0,069
-127,526	-200,000	-0,014	0,063
-126,512	-200,000	-0,021	-0,070
-125,497	800,000	0,030	0,062
-124,483	-200,000	0,026	0,155
-123,468	17,671	0,092	-0,053
-122,453	196,980	-0,044	0,049
-121,439	-92,005	-0,013	0,003
-120,424	-200,000	-0,005	0,044
-119,410	800,000	-0,018	0,039
-118,395	-145,342	0,190	-0,012
-117,380	-200,000	0,113	-0,000
-116,366	223,878	0,053	-0,062
-115,351	-200,000	0,005	0,097
-114,337	-200,000	0,010	-0,143
-113,322	-72,310	0,098	-0,026
-112,307	360,260	0,057	-0,083
-111,293	336,929	0,074	0,105
-110,278	46,255	0,141	0,095
-109,264	31,712	-0,073	0,045
-108,249	545,352	-0,057	-0,099
-107,234	-200,000	0,014	-0,125
-106,220	544,925	0,044	-0,076
-105,205	9,765	0,030	-0,016
-104,191	385,718	0,025	0,038
-103,176	24,365	0,143	0,086
-102,162	221,778	0,033	-0,038
-101,147	-200,000	-0,018	0,119
-100,132	305,518	0,031	0,041
-99,118	-200,000	-0,014	0,058
-98,103	163,369	0,043	-0,044
-97,089	-200,000	0,030	0,100
-96,074	-200,000	-0,036	0,147
-95,059	-63,638	0,201	0,059
-94,045	800,000	0,042	0,088
-93,030	-200,000	-0,015	-0,113
-92,016	-96,448	-0,058	-0,011
-91,001	153,045	0,113	0,112
-89,986	800,000	0,029	0,058
-88,972	8,777	0,045	0,024
-87,957	800,000	-0,044	0,090
-86,943	-166,317	-0,057	0,002
-85,928	-83,169	-0,032	-0,008
-84,913	800,000	0,072	-0,183
-83,899	800,000	0,037	-0,082
-82,884	-10,309	0,122	0,058
-81,870	-200,000	-0,011	-0,140
-80,855	146,660	0,088	0,086
-79,840	-200,000	-0,017	0,081
-78,826	96,091	-0,089	-0,073
-77,811	-125,651	-0,062	-0,007
-76,797	-151,259	0,059	-0,003
-75,782	47,168	-0,072	-0,048
-74,767	-200,000	-0,018	0,116
-73,753	800,000	-0,005	0,010
-72,738	204,597	0,083	-0,094
-71,724	384,016	0,077	-0,115
-70,709	-200,000	0,010	-0,108
-69,694	-200,000	-0,009	-0,038
-68,680	-200,000	0,007	-0,086
-67,665	-200,000	0,002	0,058
-66,651	171,234	-0,083	-0,086
-65,636	800,000	0,065	-0,143
-64,622	-63,477	-0,076	-0,023
-63,607	-177,545	-0,197	-0,003
-62,592	55,553	0,071	0,050
-61,578	800,000	-0,047	-0,115
-60,563	800,000	0,007	-0,019
-59,549	-200,000	-0,003	0,015
-58,534	-146,127	-1,246	-0,078
-57,519	755,813	-0,791	-1,558
-56,505	-200,000	-0,900	-4,396
-55,490	0,859	0,634	-0,328
-54,476	800,000	4,717	11,430
-53,461	-200,000	13,905	251,716
-52,446	-200,000	690,738	2245,731
-51,432	588,671	1620,448	2904,114
-50,417	118,841	1631,520	1460,315
-49,403	74,099	1286,174	976,958
-48,388	38,053	1022,419	657,466
-47,373	24,214	980,467	585,111
-46,359	23,471	970,051	576,443
-45,344	22,558	965,551	570,772
-44,330	22,469	964,045	569,571
-43,315	22,346	962,724	568,369
-42,300	22,240	961,789	567,449
-41,286	22,219	961,073	566,935
-40,271	22,241	959,955	566,326
-39,257	22,227	958,965	565,674
-38,242	22,224	958,017	565,082
-37,227	22,251	957,347	564,752
-36,213	22,249	956,325	564,121
-35,198	22,244	955,436	563,559
-34,184	22,246	954,896	563,225
-33,169	22,174	953,969	562,422
-32,154	22,310	952,951	562,237
-31,140	22,277	952,264	561,703
-30,125	22,343	951,274	561,309
-29,111	22,277	950,525	560,632
-28,096	22,269	949,923	560,230
-27,082	22,270	949,217	559,793
-26,067	22,318	948,250	559,356
-25,052	22,259	947,585	558,752
-24,038	22,241	947,120	558,400
-23,023	22,267	946,481	558,084
-22,009	22,319	945,760	557,802
-20,994	22,347	945,000	557,422
-19,979	22,332	944,327	556,953
-18,965	22,262	943,839	556,420
-17,950	22,351	943,146	556,273
-16,936	22,250	942,415	555,498
-15,921	22,191	941,831	554,944
-14,906	22,127	941,248	554,376
-13,892	22,209	940,415	554,126
-12,877	22,148	939,911	553,611
-11,863	22,149	939,247	553,201
-10,848	22,103	938,732	552,732
-9,833	22,219	938,250	552,792
-8,819	22,204	937,736	552,420
-7,804	22,203	937,020	551,973
-6,790	22,199	936,420	551,586
-5,775	22,185	935,674	551,080
-4,760	22,171	935,299	550,792
-3,746	22,152	934,563	550,278
-2,731	21,993	933,978	549,411
-1,717	21,947	933,455	548,937
-0,702	22,017	932,577	548,619
0,313	21,829	931,894	548,454
1,327	24,346	929,472	554,869
2,342	32,297	807,757	503,691
3,356	27,527	508,465	308,920
4,371	3,281	373,121	195,955
5,386	0,137	355,978	183,091
6,400	-1,448	350,079	178,132
7,415	-2,200	347,081	175,693
8,429	-2,362	345,658	174,764
9,444	-2,371	344,654	174,231
10,459	-2,476	343,981	173,751
11,473	-2,371	343,316	173,523
12,488	-2,040	342,936	173,706
13,502	-1,951	342,413	173,531
14,517	-2,068	341,875	173,105
15,531	-2,309	341,288	172,509
16,546	-2,299	340,773	172,246
17,561	-2,338	340,219	171,904
18,575	-2,346	339,949	171,744
19,590	-2,386	339,497	171,453
20,604	-2,208	339,210	171,500
21,619	-2,403	338,781	171,041
22,634	-2,362	338,571	170,967
23,648	-2,417	338,146	170,674
24,663	-2,387	337,851	170,544
25,677	-2,513	337,593	170,252
26,692	-2,367	337,308	170,263
27,707	-2,331	336,842	170,054
28,721	-2,381	336,713	169,916
29,736	-2,427	336,423	169,702
30,750	-2,363	335,948	169,521
31,765	-2,523	335,861	169,277
32,780	-2,494	335,535	169,131
33,794	-2,380	335,175	169,066
34,809	-2,352	334,793	168,890
35,823	-2,421	334,542	168,670
36,838	-2,368	334,284	168,585
37,853	-2,388	333,870	168,338
38,867	-2,491	333,682	168,110
39,882	-2,421	333,389	168,028
40,896	-2,620	333,251	167,716
41,911	-2,491	332,826	167,635
42,926	-2,488	332,510	167,464
43,940	-2,707	332,332	167,109
44,955	-2,671	331,946	166,941
45,969	-2,572	331,798	166,964
46,984	-2,734	331,450	166,590
47,999	-2,904	331,153	166,234
49,013	-2,953	330,803	165,987
50,028	-2,908	330,642	165,942
51,042	-3,097	330,257	165,520
52,057	-3,166	329,899	165,248
53,071	-3,085	329,777	165,264
54,086	-2,973	329,472	165,223
55,101	-2,865	329,191	165,189
56,115	-2,756	329,254	165,328
57,130	-2,553	328,953	165,393
58,144	-2,218	328,702	165,629
59,159	-2,277	328,481	165,436
60,174	-2,227	328,188	165,330
61,188	-2,192	327,882	165,200
62,203	-2,281	327,720	165,004
63,217	-2,436	327,665	164,788
64,232	-2,305	327,253	164,713
65,247	-2,149	327,048	164,769
66,261	-2,140	326,811	164,646
67,276	-2,450	326,308	164,031
68,290	-2,695	326,033	163,605
69,305	-2,701	325,745	163,438
70,320	-2,683	325,567	163,355
71,334	-2,403	325,296	163,516
72,349	-2,268	325,196	163,602
73,363	-2,229	324,939	163,501
74,378	-2,249	324,651	163,319
75,393	-2,291	324,511	163,187
76,407	-2,372	324,153	162,903
77,422	-2,479	323,955	162,670
78,436	-2,189	323,678	162,838
79,451	-2,235	323,351	162,608
80,466	-2,264	322,977	162,374
81,480	-2,371	322,778	162,141
82,495	-2,589	322,661	161,828
83,509	-2,416	322,422	161,884
84,524	-2,621	322,080	161,472
85,539	-2,752	321,772	161,159
86,553	-2,820	321,570	160,969
87,568	-2,671	321,314	160,990
88,582	-2,586	320,926	160,874
89,597	-2,631	320,894	160,794
90,611	-2,631	320,899	160,783
91,626	-2,302	320,440	160,899
92,641	-2,223	320,275	160,888
93,655	-2,513	320,056	160,446
94,670	-2,371	319,722	160,419
95,684	-2,520	319,476	160,119
96,699	-2,482	319,299	160,057
97,714	-2,562	318,940	159,776
98,728	-2,640	318,700	159,557
99,743	-2,605	318,366	159,414
100,757	-2,696	318,251	159,243
101,772	-2,602	317,868	159,139
102,787	-2,629	317,727	159,026
103,801	-2,500	317,570	159,072
104,816	-2,567	317,491	158,946
105,830	-2,257	317,290	159,167
106,845	-2,252	317,119	159,072
107,860	-2,476	317,001	158,757
108,874	-2,442	316,440	158,498
109,889	-2,412	316,235	158,414
110,903	-2,453	316,163	158,319
111,918	-2,516	315,829	158,070
112,933	-2,642	315,674	157,843
113,947	-2,499	315,452	157,872
114,962	-2,461	315,282	157,813
115,976	-2,392	314,928	157,696
116,991	-2,562	314,825	157,448
118,006	-2,377	314,445	157,442
119,020	-2,428	314,325	157,314
120,035	-2,445	314,306	157,272
121,049	-2,388	313,934	157,132
122,064	-2,367	313,815	157,081
123,079	-2,522	313,439	156,713
124,093	-2,616	313,170	156,465
125,108	-2,740	312,957	156,212
126,122	-2,642	312,614	156,132
127,137	-2,935	312,357	155,677
128,151	-2,820	312,297	155,756
129,166	-2,685	312,136	155,805
130,181	-2,744	311,893	155,608
131,195	-2,723	311,598	155,468
132,210	-2,615	311,421	155,481
133,224	-2,388	311,129	155,562
134,239	-2,362	311,000	155,511
135,254	-2,357	310,781	155,393
136,268	-2,477	310,446	155,085
137,283	-2,681	310,189	154,727
138,297	-2,730	310,000	154,567
139,312	-2,662	309,683	154,467
140,327	-2,431	309,622	154,666
141,341	-2,224	309,485	154,802
142,356	-2,041	309,200	154,838
143,370	-2,121	309,163	154,722
144,385	-1,957	308,847	154,722
145,400	-2,046	308,727	154,555
146,414	-2,277	308,597	154,233
147,429	-2,171	308,367	154,216
148,443	-2,079	308,109	154,169
149,458	-2,147	307,964	154,012
150,473	-1,986	307,686	154,028
151,487	-2,284	307,345	153,532
152,502	-2,081	307,248	153,682
153,516	-2,098	307,058	153,555
154,531	-2,102	306,844	153,430
155,546	-2,079	306,544	153,291
156,560	-2,281	306,418	153,003
157,575	-2,414	306,147	152,716
158,589	-2,265	305,872	152,721
159,604	-2,130	305,689	152,755
160,619	-2,118	305,645	152,732
161,633	-2,193	305,241	152,440
162,648	-2,189	305,290	152,454
163,662	-1,976	304,995	152,514
164,677	-2,111	304,755	152,240
165,692	-2,171	304,556	152,066
166,706	-2,116	304,453	152,057
167,721	-2,160	303,963	151,753
168,735	-2,183	303,990	151,730
169,750	-2,050	303,942	151,830
170,764	-1,925	303,575	151,762
171,779	-2,168	303,489	151,455
172,794	-2,043	303,430	151,540
173,808	-2,145	302,979	151,197
174,823	-2,472	302,623	150,670
175,837	-2,829	302,456	150,207
176,852	-2,238	302,253	150,699
177,867	-2,082	302,308	150,872
178,881	-1,935	301,988	150,850
179,896	-1,957	301,825	150,732
180,910	-1,881	301,590	150,679
181,925	-1,993	301,409	150,461
182,940	-1,804	301,318	150,596
183,954	-1,980	301,029	150,258
184,969	-1,854	300,761	150,239
185,983	-2,037	300,613	149,966
186,998	-2,087	300,357	149,773
188,013	-2,120	300,230	149,663
189,027	-1,993	300,020	149,675
190,042	-2,100	299,916	149,500
191,056	-1,911	299,676	149,560
192,071	-1,957	299,479	149,401
193,086	-1,703	299,248	149,529
194,100	-1,851	299,046	149,266
195,115	-1,940	298,773	149,026
196,129	-1,988	298,493	148,824
197,144	-1,873	298,388	148,875
198,159	-1,883	298,077	148,696
199,173	-2,089	298,099	148,486
200,188	-1,808	297,752	148,584
201,202	-2,012	297,509	148,244
202,217	-2,402	297,064	147,617
203,232	-2,649	296,864	147,256
204,246	-2,463	296,873	147,434
205,261	-2,029	296,672	147,757
206,275	-2,075	296,565	147,644
207,290	-1,968	296,402	147,657
208,304	-1,917	296,187	147,588
209,319	-1,946	295,962	147,434
210,334	-1,942	295,759	147,323
211,348	-2,089	295,553	147,060
212,363	-1,866	295,292	147,141
213,377	-1,919	295,211	147,035
214,392	-2,130	295,056	146,733
215,407	-2,227	294,624	146,408
216,421	-2,448	294,445	146,087
217,436	-2,398	294,392	146,097
218,450	-2,343	293,983	145,936
219,465	-2,192	293,914	146,038
220,480	-2,082	293,793	146,074
221,494	-2,205	293,615	145,851
222,509	-2,239	293,381	145,688
223,523	-2,200	293,270	145,659
224,538	-1,990	292,968	145,703
225,553	-1,946	292,826	145,663
226,567	-1,951	292,626	145,546
227,582	-1,822	292,612	145,653
228,596	-1,949	292,493	145,456
229,611	-1,801	292,240	145,463
230,626	-1,876	291,919	145,217
231,640	-2,396	291,665	144,565
232,655	-2,457	291,205	144,264
233,669	-2,696	291,194	144,011
234,684	-2,724	290,913	143,832
235,699	-2,441	290,853	144,067
236,713	-2,487	290,654	143,911
237,728	-2,370	290,435	143,904
238,742	-2,177	290,315	144,021
239,757	-2,022	290,073	144,040
240,772	-2,077	289,990	143,931
241,786	-2,078	289,823	143,835
242,801	-2,299	289,549	143,470
243,815	-2,384	289,388	143,295
244,830	-2,180	289,129	143,352
245,844	-2,434	289,116	143,085
246,859	-2,181	288,710	143,118
247,874	-2,259	288,618	142,984
248,888	-2,289	288,348	142,809
249,903	-2,136	288,385	142,963
250,917	-1,929	288,186	143,053
251,932	-1,940	288,132	143,002
252,947	-1,299	288,010	143,550
253,961	-1,685	287,664	142,992
254,976	-0,711	288,306	144,243
255,990	2,003	288,854	147,140
257,005	2,648	289,166	147,912
258,020	4,000	289,486	149,375
259,034	4,009	289,349	149,300
260,049	4,276	288,886	149,306
261,063	3,988	288,631	148,882
262,078	4,067	288,700	148,981
263,093	4,628	288,889	149,609
264,107	4,585	288,568	149,387
265,122	4,479	288,522	149,247
266,136	4,824	288,362	149,484
267,151	4,773	288,060	149,266
268,166	4,505	287,861	148,890
269,180	4,488	287,601	148,727
270,195	4,577	287,370	148,680
271,209	4,443	287,378	148,542
272,224	4,531	286,889	148,360
273,239	4,362	286,738	148,107
274,253	4,260	286,682	147,967
275,268	4,733	286,549	148,339
276,282	4,728	286,459	148,274
277,297	4,460	286,254	147,897
278,312	5,014	286,062	148,316
279,326	4,662	285,852	147,857
280,341	4,585	285,553	147,616
281,355	4,459	285,407	147,407
282,370	4,485	285,131	147,276
283,384	4,329	285,071	147,083
284,399	4,313	284,747	146,887
285,414	4,320	284,657	146,835
286,428	4,418	284,420	146,793
287,443	4,121	284,220	146,393
288,457	4,123	283,912	146,224
289,472	4,072	283,745	146,076
290,487	4,136	283,604	146,052
291,501	4,028	283,358	145,810
292,516	3,828	283,001	145,423
293,530	3,793	283,087	145,422
294,545	4,062	282,934	145,585
295,560	4,321	282,699	145,695
296,574	4,005	282,487	145,275
297,589	4,067	282,290	145,219
298,603	4,467	282,354	145,616
299,618	4,605	282,164	145,635
300,633	4,263	281,881	145,154
301,647	4,457	281,669	145,215
302,662	4,357	281,646	145,096
303,676	4,085	281,349	144,674
304,691	3,930	281,026	144,350
305,706	3,821	280,789	144,113
306,720	3,788	280,591	143,968
307,735	3,821	280,455	143,915
308,749	4,193	280,253	144,147
309,764	4,202	280,189	144,110
310,779	3,825	279,931	143,612
311,793	3,801	279,639	143,427
312,808	3,794	279,505	143,339
313,822	3,877	279,322	143,310
314,837	3,827	279,146	143,160
315,852	3,665	279,050	142,948
316,866	3,799	278,813	142,938
317,881	3,993	278,584	142,988
318,895	3,937	278,480	142,870
319,910	3,593	278,235	142,412
320,925	3,576	277,873	142,198
321,939	3,614	277,939	142,255
322,954	3,967	277,901	142,550
323,968	3,740	277,738	142,243
324,983	4,039	277,619	142,447
325,997	4,186	277,451	142,484
327,012	4,077	277,278	142,281
328,027	4,237	277,025	142,286
329,041	4,294	276,715	142,167
330,056	4,115	276,685	141,974
331,070	4,050	276,365	141,738
332,085	3,921	276,284	141,564
333,100	4,069	276,123	141,605
334,114	3,856	275,838	141,250
335,129	3,839	275,673	141,138
336,143	3,934	275,600	141,175
337,158	4,382	275,470	141,507
338,173	4,287	275,204	141,271
339,187	3,905	275,008	140,807
340,202	4,031	274,854	140,832
341,216	4,163	274,786	140,905
342,231	3,946	274,531	140,563
343,246	4,016	274,401	140,548
344,260	3,951	274,072	140,308
345,275	4,116	274,010	140,414
346,289	4,476	274,045	140,748
347,304	4,375	273,852	140,544
348,319	4,212	273,449	140,176
349,333	4,078	273,301	139,966
350,348	4,437	273,246	140,252
351,362	4,535	273,207	140,309
352,377	4,272	272,931	139,915
353,392	4,347	272,680	139,842
354,406	4,472	272,642	139,924
355,421	192,301	1331,635	1411,796
356,435	155,393	1460,740	1411,908
