DTS Sentinel unit serial number:	SN410029Multiplexer serial number:	ORYXHardware model number:	OX2-SRSoftware version number:	ORYX F/W v4,00 Oryx Data Collector v3.7.2.0data status	okinstallation	B4 Nyhavnadifferential loss correction	single-endedforward channel	channel 2reverse channel	N/Adate	2023/12/16time	01:15:13forward acquisition time	300,00reverse acquisition time	0,00gamma	499,1914k internal	0,3129k external	0,3129temperature offset calibration	1,0000default loss term (dB/km)	0,3820temperature slope calibration	1,0000multiplexer offset coefficient	1,0000multiplexer slope coefficient	1,0000fibre end	0,00T internal ref (°C)	21,91T ext. ref 1 (°C)	6,99T ext. ref 2 (°C)	7,19length (m)	temperature (°C)	Stokes	anti-Stokes-744,400	-200,000	-0,014	-0,060
-743,385	111,750	-0,166	0,149
-742,371	-84,800	0,151	-0,035
-741,356	-98,452	-0,232	0,044
-740,342	-107,997	0,149	-0,024
-739,327	26,137	-0,200	0,124
-738,312	-94,256	0,037	0,007
-737,298	48,788	-0,090	0,063
-736,283	317,394	0,051	-0,072
-735,269	-54,483	-0,231	0,077
-734,254	20,874	0,017	-0,010
-733,239	-71,772	-0,354	-0,098
-732,225	110,634	-0,030	-0,026
-731,210	-18,390	0,049	0,023
-730,196	610,372	-0,111	-0,207
-729,181	-200,000	0,010	-0,127
-728,167	198,639	0,097	0,111
-727,152	10,112	0,015	0,009
-726,137	384,078	0,037	0,058
-725,123	-94,904	0,053	0,011
-724,108	507,666	-0,028	-0,049
-723,094	30,428	-0,052	0,033
-722,079	490,760	-0,038	-0,065
-721,064	-180,836	0,128	-0,002
-720,050	191,850	-0,118	0,133
-719,035	202,738	-0,043	0,049
-718,021	-139,615	0,103	0,008
-717,006	130,903	-0,145	-0,138
-715,991	243,387	0,019	0,024
-714,977	96,250	0,020	-0,017
-713,962	-145,234	0,088	0,006
-712,948	476,464	0,007	-0,011
-711,933	60,591	0,155	0,114
-710,918	506,634	0,052	0,089
-709,904	-133,446	-0,089	-0,008
-708,889	-101,930	-0,153	-0,027
-707,875	8,388	-0,055	-0,031
-706,860	800,000	-0,013	0,038
-705,845	-200,000	0,011	-0,091
-704,831	-20,318	-0,019	0,009
-703,816	800,000	-0,063	-0,145
-702,802	-96,273	-0,052	-0,010
-701,787	635,620	-0,013	-0,025
-700,772	200,583	-0,056	-0,064
-699,758	800,000	-0,030	0,090
-698,743	-24,854	0,143	-0,063
-697,729	14,078	-0,126	0,073
-696,714	246,561	-0,074	0,093
-695,699	111,044	-0,096	0,085
-694,685	400,635	-0,075	-0,117
-693,670	645,148	0,020	0,038
-692,656	131,632	0,088	0,084
-691,641	700,918	-0,056	0,111
-690,627	685,926	-0,047	0,092
-689,612	-200,000	0,003	0,045
-688,597	-84,985	-0,067	-0,015
-687,583	134,401	-0,088	-0,085
-686,568	379,691	0,034	0,052
-685,554	-90,383	-0,059	-0,013
-684,539	-77,902	0,027	0,007
-683,524	-12,419	-0,060	-0,029
-682,510	-169,466	0,100	0,003
-681,495	800,000	0,068	-0,190
-680,481	111,226	-0,127	-0,114
-679,466	-200,000	0,004	-0,032
-678,451	-200,000	0,002	-0,023
-677,437	425,930	0,021	0,033
-676,422	800,000	-0,044	0,115
-675,408	56,042	0,087	0,063
-674,393	-114,488	-0,130	0,018
-673,378	-200,000	-0,006	-0,064
-672,364	-200,000	0,028	-0,110
-671,349	605,406	-0,015	0,028
-670,335	48,398	-0,139	0,097
-669,320	-200,000	0,004	0,027
-668,305	-200,000	0,014	-0,089
-667,291	315,717	0,040	0,056
-666,276	-32,496	-0,160	0,066
-665,262	-200,000	-0,007	0,092
-664,247	800,000	0,023	-0,056
-663,232	658,007	0,036	0,069
-662,218	800,000	0,035	0,102
-661,203	800,000	-0,030	0,091
-660,189	252,327	-0,053	-0,067
-659,174	5,827	-0,039	0,021
-658,159	200,207	0,033	0,037
-657,145	-200,000	-0,014	-0,053
-656,130	800,000	-0,023	-0,065
-655,116	800,000	0,020	0,052
-654,101	800,000	0,027	-0,061
-653,086	800,000	0,011	-0,027
-652,072	-156,800	0,076	-0,003
-651,057	171,663	-0,044	-0,047
-650,043	-89,598	0,064	0,014
-649,028	-200,000	-0,037	-0,204
-648,014	-98,489	0,127	-0,024
-646,999	800,000	0,031	0,086
-645,984	-200,000	0,001	0,043
-644,970	43,666	-0,163	-0,111
-643,955	-200,000	-0,005	0,049
-642,941	412,335	-0,064	-0,101
-641,926	421,990	-0,055	-0,088
-640,911	47,154	-0,057	0,039
-639,897	195,764	0,069	0,077
-638,882	-77,623	0,048	-0,012
-637,868	-109,949	0,078	-0,012
-636,853	153,311	-0,044	-0,044
-635,838	235,382	-0,078	-0,096
-634,824	800,000	0,028	-0,075
-633,809	-117,848	0,097	-0,013
-632,795	544,153	-0,023	0,041
-631,780	784,110	-0,050	0,101
-630,765	-131,527	-0,171	-0,016
-629,751	800,000	0,029	-0,066
-628,736	-68,404	-0,073	0,021
-627,722	-200,000	-0,007	-0,097
-626,707	-126,124	0,052	0,006
-625,692	347,475	-0,043	-0,063
-624,678	-130,373	0,006	0,001
-623,663	27,252	-0,066	-0,041
-622,649	124,084	-0,098	-0,091
-621,634	219,782	0,074	0,088
-620,619	-200,000	0,011	-0,070
-619,605	-200,000	-0,000	-0,056
-618,590	245,699	0,065	-0,081
-617,576	-84,355	0,091	0,021
-616,561	150,769	-0,062	-0,062
-615,546	-200,000	0,008	-0,068
-614,532	478,583	-0,033	-0,055
-613,517	-150,148	0,112	0,006
-612,503	-25,190	-0,083	-0,036
-611,488	38,617	0,060	-0,040
-610,474	-85,041	-0,049	-0,011
-609,459	29,459	0,031	-0,020
-608,444	17,443	-0,014	0,009
-607,430	36,572	-0,117	0,077
-606,415	681,078	0,026	-0,051
-605,401	246,722	0,042	0,053
-604,386	419,459	0,066	0,106
-603,371	-200,000	-0,025	0,163
-602,357	108,311	0,153	-0,135
-601,342	1,050	-0,130	0,069
-600,328	-200,000	0,017	-0,086
-599,313	30,739	0,070	-0,044
-598,298	-160,040	0,020	-0,001
-597,284	800,000	-0,019	0,049
-596,269	133,920	0,060	0,057
-595,255	-96,727	0,057	-0,011
-594,240	321,364	0,091	-0,129
-593,225	800,000	0,022	-0,062
-592,211	800,000	0,032	-0,069
-591,196	-200,000	-0,002	0,039
-590,182	800,000	-0,031	-0,071
-589,167	-200,000	0,011	0,045
-588,152	800,000	0,036	0,095
-587,138	-200,000	-0,001	-0,069
-586,123	800,000	-0,038	-0,091
-585,109	9,604	0,031	-0,017
-584,094	295,128	0,021	-0,029
-583,079	305,667	0,038	0,052
-582,065	800,000	-0,024	0,055
-581,050	-200,000	0,014	0,077
-580,036	-19,390	-0,130	0,059
-579,021	-200,000	-0,016	-0,098
-578,006	17,319	-0,040	0,023
-576,992	-200,000	0,023	0,097
-575,977	-118,121	-0,142	-0,018
-574,963	-162,559	0,150	0,005
-573,948	686,330	0,016	0,031
-572,934	111,703	-0,014	0,012
-571,919	67,678	0,058	0,044
-570,904	578,181	0,023	-0,042
-569,890	-56,135	0,055	0,018
-568,875	179,796	0,029	-0,031
-567,861	-200,000	0,003	-0,063
-566,846	800,000	-0,038	-0,090
-565,831	-169,357	0,086	-0,002
-564,817	-200,000	-0,034	-0,151
-563,802	391,058	0,029	0,045
-562,788	-200,000	0,011	0,059
-561,773	30,605	0,066	0,042
-560,758	-47,681	-0,046	-0,016
-559,744	170,197	0,100	0,106
-558,729	-200,000	-0,016	-0,081
-557,715	-79,753	0,109	-0,027
-556,700	-107,955	-0,043	0,007
-555,685	10,008	-0,105	-0,059
-554,671	-48,074	0,081	0,029
-553,656	-38,922	-0,169	0,065
-552,642	130,101	0,096	0,091
-551,627	532,058	0,090	0,158
-550,612	-200,000	-0,018	-0,109
-549,598	-130,868	-0,132	0,013
-548,583	746,262	-0,041	-0,082
-547,569	-200,000	0,001	-0,040
-546,554	330,622	-0,091	-0,130
-545,539	32,496	0,098	0,062
-544,525	-200,000	0,001	0,087
-543,510	-125,744	0,062	-0,007
-542,496	511,670	-0,077	-0,134
-541,481	-13,887	-0,065	0,031
-540,466	659,384	0,015	-0,028
-539,452	-89,817	0,135	0,029
-538,437	-11,121	-0,066	-0,032
-537,423	800,000	0,042	0,120
-536,408	-28,461	-0,112	-0,047
-535,393	-200,000	0,006	-0,090
-534,379	-117,717	-0,123	0,016
-533,364	-19,735	-0,048	-0,022
-532,350	318,095	0,048	-0,067
-531,335	-58,402	-0,154	-0,049
-530,321	-3,407	-0,035	-0,018
-529,306	111,310	0,034	0,030
-528,291	129,425	0,048	0,045
-527,277	-200,000	0,004	-0,091
-526,262	588,713	-0,037	0,068
-525,248	325,981	0,024	-0,034
-524,233	-2,098	0,043	0,022
-523,218	310,430	-0,065	0,090
-522,204	-200,000	-0,001	0,026
-521,189	-98,346	0,038	-0,007
-520,175	800,000	-0,071	0,159
-519,160	-126,463	-0,047	0,005
-518,145	27,828	0,095	-0,059
-517,131	85,115	-0,086	-0,069
-516,116	513,767	0,084	0,146
-515,102	83,143	0,066	0,053
-514,087	-200,000	-0,001	-0,081
-513,072	387,603	0,039	-0,059
-512,058	-121,961	-0,075	0,009
-511,043	-80,298	0,236	0,058
-510,029	800,000	0,013	0,038
-509,014	608,157	0,053	-0,097
-507,999	20,676	-0,102	-0,061
-506,985	-17,932	0,082	0,038
-505,970	192,215	-0,113	-0,126
-504,956	180,859	0,103	-0,112
-503,941	-126,096	-0,120	0,013
-502,926	-200,000	-0,007	-0,077
-501,912	309,207	-0,037	-0,051
-500,897	-200,000	-0,006	0,028
-499,883	800,000	0,038	-0,084
-498,868	67,022	-0,040	0,030
-497,853	46,315	0,067	0,046
-496,839	-200,000	-0,001	0,071
-495,824	181,106	0,097	0,105
-494,810	-106,514	0,111	0,018
-493,795	76,690	-0,024	0,019
-492,781	-128,247	-0,087	-0,009
-491,766	-200,000	-0,027	-0,148
-490,751	800,000	0,011	-0,030
-489,737	800,000	0,024	0,061
-488,722	-200,000	0,055	0,196
-487,708	-200,000	0,007	0,044
-486,693	91,699	0,096	-0,079
-485,678	528,928	0,039	0,068
-484,664	800,000	0,016	-0,036
-483,649	-200,000	0,009	-0,093
-482,635	-39,262	0,067	-0,026
-481,620	60,479	0,131	0,095
-480,605	50,962	0,055	0,039
-479,591	72,564	-0,041	-0,032
-478,576	-82,721	-0,048	0,011
-477,562	101,367	-0,025	0,022
-476,547	-200,000	-0,005	-0,203
-475,532	9,011	0,026	-0,014
-474,518	-200,000	0,025	-0,128
-473,503	-17,165	0,026	-0,012
-472,489	-200,000	0,004	0,111
-471,474	-200,000	0,016	-0,060
-470,459	397,837	-0,076	-0,117
-469,445	-200,000	0,005	0,023
-468,430	524,994	-0,075	-0,131
-467,416	-123,927	0,059	-0,007
-466,401	7,951	-0,041	-0,023
-465,386	800,000	0,043	-0,137
-464,372	-200,000	-0,003	0,017
-463,357	-200,000	-0,016	-0,141
-462,343	-200,000	0,016	-0,078
-461,328	-200,000	-0,001	-0,082
-460,313	-200,000	0,033	0,109
-459,299	167,784	-0,028	-0,030
-458,284	29,274	-0,129	0,080
-457,270	-87,810	-0,140	-0,031
-456,255	-142,109	0,114	0,008
-455,241	-43,822	-0,084	0,031
-454,226	-47,106	0,028	0,010
-453,211	160,912	0,085	-0,088
-452,197	769,708	0,044	0,089
-451,182	-200,000	-0,010	0,053
-450,168	-109,165	-0,048	-0,007
-449,153	27,263	-0,100	0,062
-448,138	800,000	-0,016	0,033
-447,124	23,608	-0,130	-0,078
-446,109	-200,000	0,001	0,003
-445,095	613,820	0,080	-0,148
-444,080	33,196	0,124	0,079
-443,065	800,000	-0,034	0,070
-442,051	800,000	0,027	-0,070
-441,036	-200,000	-0,007	-0,070
-440,022	91,449	0,060	-0,049
-439,007	-200,000	0,012	0,085
-437,992	-35,856	-0,121	0,048
-436,978	-142,174	0,125	-0,009
-435,963	-65,577	0,087	0,026
-434,949	-173,771	-0,129	0,003
-433,934	-200,000	0,008	0,057
-432,919	267,569	0,106	-0,137
-431,905	800,000	-0,035	-0,082
-430,890	-200,000	0,009	-0,071
-429,876	-200,000	-0,018	0,070
-428,861	122,424	-0,051	0,047
-427,846	541,819	-0,034	0,060
-426,832	-200,000	0,014	-0,070
-425,817	336,312	-0,053	0,076
-424,803	206,420	0,064	-0,073
-423,788	-56,375	-0,077	0,025
-422,773	-101,419	0,111	0,020
-421,759	110,410	0,161	0,142
-420,744	170,716	-0,109	-0,115
-419,730	650,978	-0,014	0,027
-418,715	78,835	-0,084	0,066
-417,701	-75,912	0,100	-0,026
-416,686	-147,083	-0,022	-0,001
-415,671	-86,578	0,082	-0,018
-414,657	-138,462	-0,059	-0,005
-413,642	-49,750	0,056	0,019
-412,628	244,990	-0,036	-0,045
-411,613	-200,000	-0,002	0,073
-410,598	800,000	-0,032	0,097
-409,584	-200,000	-0,034	0,117
-408,569	800,000	0,070	0,146
-407,555	123,212	0,096	0,089
-406,540	48,794	0,070	-0,048
-405,525	-200,000	-0,005	0,080
-404,511	-200,000	0,020	0,071
-403,496	204,221	0,001	-0,001
-402,482	-159,991	0,106	0,004
-401,467	-182,089	0,034	-0,000
-400,452	-101,342	0,026	0,005
-399,438	-34,409	-0,118	0,047
-398,423	800,000	-0,035	0,104
-397,409	-200,000	-0,009	-0,041
-396,394	800,000	0,017	0,036
-395,379	-193,625	-0,111	-0,001
-394,365	-200,000	0,002	-0,156
-393,350	-64,195	-0,057	0,017
-392,336	-21,628	0,043	0,019
-391,321	98,420	-0,077	-0,065
-390,306	-200,000	-0,004	-0,061
-389,292	340,780	-0,058	-0,083
-388,277	-200,000	-0,012	0,078
-387,263	-58,985	-0,053	0,017
-386,248	20,089	0,148	0,087
-385,233	52,877	0,076	-0,053
-384,219	-48,149	-0,041	0,014
-383,204	-200,000	-0,022	0,088
-382,190	225,274	-0,061	0,073
-381,175	-126,440	0,107	0,012
-380,160	186,713	0,093	0,101
-379,146	-137,074	0,092	0,008
-378,131	-175,880	0,110	0,002
-377,117	800,000	0,037	-0,078
-376,102	52,327	0,074	0,052
-375,088	5,495	0,012	0,006
-374,073	-3,644	0,060	-0,030
-373,058	0,020	0,056	-0,029
-372,044	-122,916	-0,117	0,014
-371,029	780,900	0,027	0,055
-370,015	126,169	-0,110	0,102
-369,000	-103,847	-0,125	0,021
-367,985	-46,442	-0,106	0,038
-366,971	800,000	-0,023	-0,067
-365,956	-200,000	-0,022	0,142
-364,942	-18,374	0,084	0,039
-363,927	-97,819	-0,042	-0,008
-362,912	-200,000	-0,007	-0,044
-361,898	-200,000	0,015	-0,164
-360,883	55,196	-0,066	-0,047
-359,869	-200,000	0,003	0,070
-358,854	9,591	0,082	0,045
-357,839	-41,994	0,139	-0,052
-356,825	-200,000	-0,014	-0,050
-355,810	60,840	0,103	-0,075
-354,796	-118,508	-0,060	0,008
-353,781	49,766	0,040	-0,027
-352,766	215,380	-0,038	0,045
-351,752	800,000	-0,047	0,111
-350,737	1,476	0,142	0,074
-349,723	-200,000	0,015	0,185
-348,708	-169,232	-0,247	0,007
-347,693	140,969	0,008	0,008
-346,679	177,465	-0,062	-0,066
-345,664	-83,500	0,046	0,011
-344,650	-200,000	-0,032	-0,134
-343,635	484,629	0,055	0,092
-342,620	-200,000	0,016	0,076
-341,606	240,439	0,054	-0,066
-340,591	-26,510	-0,033	0,014
-339,577	-157,170	0,107	-0,005
-338,562	-113,414	0,073	0,010
-337,548	800,000	0,055	-0,123
-336,533	800,000	-0,028	-0,083
-335,518	26,286	0,068	0,042
-334,504	225,367	0,109	-0,130
-333,489	-73,089	-0,111	-0,030
-332,475	148,720	-0,121	-0,120
-331,460	800,000	-0,048	-0,138
-330,445	85,947	0,047	-0,038
-329,431	210,402	-0,075	0,086
-328,416	-55,627	0,219	-0,071
-327,402	-200,000	0,005	0,092
-326,387	-161,574	-0,062	-0,002
-325,372	87,681	-0,079	-0,064
-324,358	-200,000	0,009	-0,089
-323,343	-200,000	0,143	0,000
-322,329	137,651	-0,073	-0,070
-321,314	94,887	0,050	0,042
-320,299	-200,000	0,062	0,219
-319,285	-200,000	0,000	-0,003
-318,270	-200,000	-0,009	-0,052
-317,256	800,000	-0,016	-0,034
-316,241	-200,000	-0,013	0,090
-315,226	16,072	-0,120	0,069
-314,212	-103,957	0,014	-0,002
-313,197	-116,929	-0,025	-0,003
-312,183	-136,602	-0,090	0,008
-311,168	163,513	-0,106	-0,109
-310,153	-120,016	0,120	-0,015
-309,139	-34,620	0,111	0,044
-308,124	-130,224	0,087	-0,009
-307,110	-200,000	0,011	-0,082
-306,095	18,063	0,066	0,038
-305,080	678,668	-0,022	-0,041
-304,066	-86,349	-0,105	-0,023
-303,051	85,980	0,091	-0,073
-302,037	-60,984	-0,033	-0,010
-301,022	-132,269	0,071	-0,007
-300,008	-200,000	-0,006	-0,109
-298,993	-116,021	0,089	-0,012
-297,978	-26,800	0,079	0,034
-296,964	-82,082	-0,132	0,031
-295,949	-113,588	-0,063	0,009
-294,935	125,390	-0,079	0,073
-293,920	800,000	-0,034	-0,102
-292,905	-200,000	0,035	0,158
-291,891	115,794	0,061	0,055
-290,876	-101,033	-0,154	0,027
-289,862	800,000	-0,014	0,038
-288,847	51,677	-0,032	-0,022
-287,832	-200,000	-0,034	-0,131
-286,818	-96,102	0,097	-0,019
-285,803	242,095	0,124	0,152
-284,789	800,000	0,068	0,199
-283,774	-200,000	0,022	0,134
-282,759	157,782	0,038	0,038
-281,745	262,011	-0,095	0,120
-280,730	129,919	-0,081	0,076
-279,716	134,970	-0,075	-0,071
-278,701	-157,431	0,109	0,005
-277,686	408,778	-0,048	-0,074
-276,672	559,165	-0,014	0,025
-275,657	105,220	-0,017	0,015
-274,643	800,000	0,034	0,103
-273,628	800,000	0,021	-0,043
-272,613	-83,445	-0,119	0,028
-271,599	-200,000	-0,007	0,074
-270,584	800,000	0,043	0,122
-269,570	-200,000	0,000	0,127
-268,555	426,230	-0,055	0,087
-267,540	110,031	-0,038	0,033
-266,526	196,417	0,016	-0,017
-265,511	358,914	-0,051	-0,075
-264,497	800,000	-0,080	-0,198
-263,482	-0,577	-0,184	-0,095
-262,467	-27,925	-0,036	0,015
-261,453	800,000	-0,000	0,001
-260,438	-88,333	-0,127	-0,028
-259,424	-200,000	-0,019	-0,097
-258,409	243,342	-0,056	-0,068
-257,395	-200,000	0,006	-0,060
-256,380	-200,000	0,014	0,091
-255,365	55,318	-0,046	-0,033
-254,351	411,357	-0,055	-0,086
-253,336	-200,000	-0,008	0,068
-252,322	423,245	-0,022	-0,034
-251,307	359,876	0,038	-0,056
-250,292	601,894	0,044	-0,081
-249,278	20,636	0,128	-0,076
-248,263	-200,000	0,015	-0,062
-247,249	800,000	-0,006	0,012
-246,234	48,897	-0,080	-0,055
-245,219	-200,000	-0,018	0,168
-244,205	-85,595	-0,124	0,028
-243,190	800,000	-0,043	0,133
-242,176	98,647	0,145	0,122
-241,161	191,236	0,088	0,096
-240,146	32,221	-0,051	0,032
-239,132	-74,221	0,050	-0,013
-238,117	76,730	0,056	-0,044
-237,103	145,262	-0,112	-0,110
-236,088	95,745	-0,035	0,029
-235,073	211,316	0,021	0,024
-234,059	-132,176	0,016	-0,001
-233,044	192,874	0,069	0,076
-232,030	-97,447	-0,162	0,030
-231,015	-200,000	-0,008	-0,033
-230,000	-200,000	0,002	-0,087
-228,986	92,373	0,074	-0,060
-227,971	-46,544	0,020	-0,007
-226,957	15,733	0,057	0,032
-225,942	800,000	-0,035	-0,071
-224,927	81,971	-0,042	-0,033
-223,913	542,839	-0,066	0,115
-222,898	739,351	-0,033	-0,064
-221,884	154,508	0,029	-0,029
-220,869	800,000	0,026	0,082
-219,855	364,965	-0,043	0,063
-218,840	23,040	0,142	0,085
-217,825	-108,535	0,096	-0,015
-216,811	-200,000	0,013	-0,166
-215,796	2,403	-0,050	0,026
-214,782	89,307	0,019	-0,015
-213,767	25,099	0,049	0,029
-212,752	800,000	0,042	0,096
-211,738	-200,000	0,020	0,101
-210,723	455,835	0,059	0,096
-209,709	106,201	-0,087	0,075
-208,694	356,737	-0,006	-0,009
-207,679	408,044	-0,044	0,069
-206,665	-68,932	0,051	-0,014
-205,650	-200,000	-0,012	-0,069
-204,636	800,000	0,013	-0,034
-203,621	-200,000	0,017	-0,111
-202,606	-200,000	0,023	-0,090
-201,592	15,102	-0,107	-0,061
-200,577	800,000	-0,011	0,024
-199,563	12,131	0,108	-0,060
-198,548	-21,182	-0,113	0,050
-197,533	-200,000	0,000	0,061
-196,519	296,702	0,091	0,122
-195,504	800,000	0,030	-0,073
-194,490	800,000	-0,021	-0,053
-193,475	13,547	-0,127	0,072
-192,460	660,397	-0,055	0,103
-191,446	161,796	-0,029	0,030
-190,431	-200,000	-0,003	0,097
-189,417	-200,000	-0,002	0,044
-188,402	-200,000	-0,004	-0,024
-187,387	-138,995	-0,094	0,007
-186,373	125,877	-0,065	-0,060
-185,358	391,926	0,041	0,062
-184,344	-200,000	-0,016	0,124
-183,329	284,840	0,021	0,027
-182,315	288,762	0,022	0,029
-181,300	-200,000	0,010	0,071
-180,285	21,063	-0,143	0,084
-179,271	-200,000	-0,032	-0,105
-178,256	93,849	0,038	-0,031
-177,242	111,873	0,098	-0,086
-176,227	-169,460	0,165	0,004
-175,212	-146,338	0,034	0,002
-174,198	27,203	0,050	0,030
-173,183	-200,000	0,015	-0,057
-172,169	162,927	-0,081	-0,083
-171,154	-200,000	-0,008	-0,049
-170,139	800,000	-0,029	-0,072
-169,125	-114,046	0,098	0,014
-168,110	161,105	-0,168	0,171
-167,096	7,298	-0,046	-0,025
-166,081	222,159	-0,065	-0,076
-165,066	-55,050	-0,044	0,014
-164,052	-63,599	-0,032	-0,009
-163,037	40,550	-0,024	0,016
-162,023	-148,726	-0,189	0,011
-161,008	681,439	0,054	0,103
-159,993	-200,000	0,037	0,134
-158,979	200,099	-0,047	-0,052
-157,964	800,000	-0,043	-0,118
-156,950	-2,706	-0,062	0,031
-155,935	132,375	-0,068	0,064
-154,920	128,548	0,082	0,076
-153,906	-200,000	-0,002	0,105
-152,891	-30,024	0,083	-0,034
-151,877	-39,563	-0,051	-0,019
-150,862	-200,000	0,160	-0,000
-149,847	-155,909	-0,051	-0,002
-148,833	800,000	-0,072	-0,165
-147,818	242,528	0,104	-0,127
-146,804	13,079	0,046	0,026
-145,789	-154,160	-0,042	0,002
-144,775	-103,586	-0,089	-0,015
-143,760	-57,681	-0,043	-0,014
-142,745	-10,243	-0,017	0,008
-141,731	-200,000	-0,032	0,135
-140,716	800,000	-0,070	0,177
-139,702	260,628	0,054	0,068
-138,687	339,262	-0,021	-0,030
-137,672	800,000	-0,023	0,057
-136,658	121,288	-0,030	0,027
-135,643	243,093	0,047	-0,058
-134,629	19,577	-0,044	0,025
-133,614	8,085	0,145	-0,079
-132,599	59,361	-0,093	0,066
-131,585	680,291	-0,058	0,111
-130,570	534,531	0,020	0,034
-129,556	-47,861	0,070	-0,024
-128,541	-200,000	0,020	-0,115
-127,526	53,179	0,033	0,023
-126,512	-134,892	-0,059	-0,005
-125,497	267,679	-0,057	-0,072
-124,483	173,879	-0,055	-0,058
-123,468	-66,856	0,143	-0,041
-122,453	17,991	-0,038	0,022
-121,439	99,887	-0,053	0,045
-120,424	800,000	-0,050	-0,113
-119,410	-200,000	0,026	0,000
-118,395	160,041	0,090	0,091
-117,380	76,751	-0,075	-0,058
-116,366	670,438	-0,068	-0,128
-115,351	129,958	0,021	-0,019
-114,337	-200,000	-0,011	-0,045
-113,322	-139,615	-0,034	-0,003
-112,307	103,907	-0,049	-0,042
-111,293	66,063	-0,054	-0,040
-110,278	-17,968	-0,105	-0,048
-109,264	800,000	0,020	-0,047
-108,249	800,000	-0,006	-0,020
-107,234	800,000	0,007	0,019
-106,220	-0,148	0,098	-0,050
-105,205	-200,000	0,009	0,076
-104,191	-200,000	-0,027	-0,103
-103,176	-200,000	-0,003	0,050
-102,162	-18,400	0,090	0,041
-101,147	-26,189	0,047	-0,020
-100,132	-200,000	0,001	-0,097
-99,118	590,227	-0,020	-0,036
-98,103	-23,042	-0,061	0,027
-97,089	42,801	0,071	0,047
-96,074	-200,000	-0,008	0,069
-95,059	-51,027	-0,069	0,023
-94,045	800,000	-0,011	-0,024
-93,030	278,863	0,074	0,095
-92,016	39,343	-0,152	0,098
-91,001	800,000	0,026	-0,081
-89,986	-200,000	-0,016	-0,104
-88,972	47,958	0,042	0,028
-87,957	-118,678	0,051	0,006
-86,943	69,835	-0,054	0,040
-85,928	-96,965	-0,063	-0,012
-84,913	-200,000	0,003	-0,071
-83,899	112,984	0,055	0,048
-82,884	271,501	-0,020	0,026
-81,870	-6,517	0,112	0,055
-80,855	-200,000	0,005	-0,038
-79,840	800,000	0,028	-0,081
-78,826	344,289	-0,096	-0,137
-77,811	800,000	0,019	-0,047
-76,797	292,249	0,115	-0,152
-75,782	-200,000	0,007	0,070
-74,767	-110,357	0,176	0,026
-73,753	-200,000	0,039	-0,134
-72,738	-110,829	0,094	-0,014
-71,724	173,299	-0,043	-0,045
-70,709	-59,658	-0,093	-0,029
-69,694	-200,000	-0,010	-0,090
-68,680	81,199	0,138	0,108
-67,665	-162,617	0,063	0,002
-66,651	622,695	0,061	-0,112
-65,636	-200,000	-0,002	-0,017
-64,622	299,356	0,022	-0,029
-63,607	144,688	0,102	-0,099
-62,592	339,861	0,037	0,052
-61,578	-200,000	-0,024	0,110
-60,563	613,185	-0,010	-0,019
-59,549	-200,000	0,018	0,126
-58,534	-98,771	-1,382	-0,253
-57,519	800,000	-0,757	-1,601
-56,505	-200,000	-0,837	-4,315
-55,490	-63,955	0,778	-0,229
-54,476	800,000	4,917	11,466
-53,461	-200,000	14,119	252,432
-52,446	-200,000	693,964	2239,330
-51,432	580,541	1622,269	2890,856
-50,417	117,639	1630,442	1453,378
-49,403	74,012	1284,954	975,499
-48,388	37,767	1021,942	656,070
-47,373	24,025	980,182	584,212
-46,359	23,201	969,837	575,327
-45,344	22,143	965,509	569,291
-44,330	22,103	963,999	568,250
-43,315	22,020	962,649	567,161
-42,300	21,977	961,616	566,392
-41,286	21,942	960,644	565,684
-40,271	21,967	959,480	565,056
-39,257	21,934	958,676	564,454
-38,242	21,936	957,713	563,871
-37,227	21,933	956,854	563,330
-36,213	21,864	956,030	562,601
-35,198	21,809	955,190	561,908
-34,184	21,983	954,484	562,030
-33,169	21,909	953,564	561,230
-32,154	21,912	952,854	560,798
-31,140	21,984	951,831	560,406
-30,125	21,937	951,192	559,856
-29,111	21,934	950,241	559,263
-28,096	21,992	949,547	559,018
-27,082	21,942	948,992	558,511
-26,067	21,946	948,078	557,963
-25,052	21,917	947,335	557,410
-24,038	21,949	946,656	557,093
-23,023	21,951	946,012	556,697
-22,009	21,942	945,332	556,246
-20,994	21,983	944,762	556,017
-19,979	21,981	944,103	555,603
-18,965	21,984	943,409	555,180
-17,950	21,905	942,962	554,645
-16,936	21,932	942,256	554,292
-15,921	21,910	941,485	553,749
-14,906	21,827	940,894	553,116
-13,892	21,820	940,231	552,681
-12,877	21,849	939,605	552,383
-11,863	21,817	938,892	551,842
-10,848	21,825	938,615	551,681
-9,833	21,928	937,951	551,594
-8,819	21,883	937,389	551,102
-7,804	21,853	936,823	550,652
-6,790	21,792	936,181	550,061
-5,775	21,908	935,384	549,935
-4,760	21,820	934,965	549,390
-3,746	21,816	934,379	549,012
-2,731	21,759	933,366	548,214
-1,717	21,658	933,004	547,663
-0,702	21,646	932,229	547,148
0,313	21,491	931,493	547,056
1,327	23,936	929,159	553,296
2,342	31,661	807,082	501,466
3,356	26,806	507,805	307,234
4,371	2,829	372,792	195,167
5,386	-0,257	355,761	182,464
6,400	-1,742	349,429	177,415
7,415	-2,726	346,466	174,723
8,429	-2,977	345,051	173,695
9,444	-3,011	344,077	173,149
10,459	-2,751	343,380	173,090
11,473	-2,925	342,895	172,625
12,488	-2,664	342,502	172,719
13,502	-2,609	341,719	172,374
14,517	-2,660	341,209	172,041
15,531	-2,978	340,772	171,433
16,546	-2,986	340,207	171,124
17,561	-2,973	339,993	171,017
18,575	-2,903	339,434	170,802
19,590	-2,970	339,014	170,497
20,604	-2,862	338,784	170,492
21,619	-2,927	338,239	170,127
22,634	-2,849	337,989	170,077
23,648	-2,921	337,534	169,748
24,663	-2,891	337,297	169,650
25,677	-2,821	336,930	169,531
26,692	-2,795	336,698	169,429
27,707	-2,915	336,369	169,109
28,721	-2,848	335,950	168,962
29,736	-3,028	335,778	168,652
30,750	-2,916	335,411	168,581
31,765	-2,976	335,131	168,357
32,780	-2,944	334,836	168,231
33,794	-2,818	334,437	168,159
34,809	-2,988	334,432	167,947
35,823	-3,123	334,073	167,597
36,838	-3,053	333,611	167,431
37,853	-3,182	333,520	167,222
38,867	-3,135	333,260	167,130
39,882	-3,018	332,819	167,028
40,896	-3,020	332,711	166,956
41,911	-3,030	332,308	166,728
42,926	-3,019	332,036	166,589
43,940	-3,114	331,771	166,333
44,955	-3,187	331,516	166,108
45,969	-3,231	331,159	165,863
46,984	-3,310	331,084	165,723
47,999	-3,340	330,869	165,565
49,013	-3,364	330,455	165,316
50,028	-3,449	330,184	165,070
51,042	-3,466	329,794	164,841
52,057	-3,561	329,650	164,646
53,071	-3,658	329,279	164,338
54,086	-3,404	329,076	164,508
55,101	-3,440	328,860	164,345
56,115	-3,378	328,755	164,347
57,130	-3,061	328,581	164,603
58,144	-2,905	328,229	164,588
59,159	-2,731	328,005	164,656
60,174	-2,924	327,798	164,320
61,188	-2,764	327,508	164,340
62,203	-2,855	327,264	164,101
63,217	-2,882	326,895	163,871
64,232	-2,912	326,860	163,805
65,247	-2,724	326,562	163,852
66,261	-2,786	326,316	163,645
67,276	-3,126	326,067	163,125
68,290	-3,128	325,549	162,849
69,305	-3,053	325,360	162,824
70,320	-3,247	325,273	162,549
71,334	-3,094	324,958	162,548
72,349	-2,879	324,804	162,695
73,363	-2,853	324,548	162,581
74,378	-2,867	324,159	162,356
75,393	-2,939	324,054	162,210
76,407	-2,849	323,720	162,128
77,422	-2,824	323,561	162,061
78,436	-3,018	323,441	161,773
79,451	-2,815	322,984	161,753
80,466	-2,950	322,737	161,466
81,480	-3,012	322,352	161,191
82,495	-3,215	322,129	160,842
83,509	-3,056	321,942	160,909
84,524	-3,172	321,732	160,661
85,539	-3,154	321,355	160,479
86,553	-3,245	321,195	160,284
87,568	-3,116	320,881	160,256
88,582	-3,168	320,750	160,119
89,597	-3,217	320,487	159,919
90,611	-2,946	320,156	160,036
91,626	-3,023	320,107	159,914
92,641	-3,023	319,942	159,817
93,655	-2,994	319,631	159,679
94,670	-3,138	319,333	159,359
95,684	-3,056	319,199	159,368
96,699	-3,091	318,806	159,118
97,714	-3,103	318,649	159,013
98,728	-3,068	318,222	158,824
99,743	-3,122	318,113	158,696
100,757	-3,265	317,787	158,364
101,772	-3,050	317,560	158,470
102,787	-3,314	317,414	158,097
103,801	-3,168	317,199	158,134
104,816	-3,058	317,069	158,175
105,830	-2,887	316,733	158,178
106,845	-2,853	316,668	158,168
107,860	-3,018	316,469	157,876
108,874	-2,993	316,049	157,679
109,889	-3,113	315,884	157,454
110,903	-3,151	315,677	157,295
111,918	-3,073	315,473	157,263
112,933	-3,057	315,297	157,179
113,947	-3,051	314,970	157,008
114,962	-3,077	314,881	156,922
115,976	-3,056	314,772	156,876
116,991	-3,137	314,423	156,602
118,006	-3,064	314,119	156,514
119,020	-2,974	313,927	156,502
120,035	-2,953	313,869	156,480
121,049	-3,005	313,707	156,330
122,064	-2,919	313,401	156,256
123,079	-2,967	313,090	156,036
124,093	-3,019	312,874	155,859
125,108	-3,004	312,498	155,673
126,122	-3,100	312,207	155,413
127,137	-3,330	312,162	155,132
128,151	-3,297	311,826	154,985
129,166	-3,110	311,693	155,105
130,181	-3,316	311,371	154,711
131,195	-3,270	311,004	154,564
132,210	-3,151	310,986	154,669
133,224	-3,000	310,710	154,677
134,239	-3,094	310,628	154,522
135,254	-3,042	310,367	154,434
136,268	-3,029	310,066	154,284
137,283	-3,254	309,829	153,915
138,297	-3,328	309,583	153,701
139,312	-3,212	309,482	153,759
140,327	-3,065	309,288	153,803
141,341	-2,909	309,072	153,847
142,356	-2,685	308,863	153,965
143,370	-2,779	308,747	153,794
144,385	-2,782	308,643	153,726
145,400	-2,534	308,219	153,761
146,414	-2,851	308,065	153,338
147,429	-2,666	307,804	153,387
148,443	-2,706	307,694	153,278
149,458	-2,712	307,395	153,109
150,473	-2,647	307,224	153,078
151,487	-2,757	306,982	152,829
152,502	-2,707	306,786	152,770
153,516	-2,702	306,564	152,651
154,531	-2,588	306,274	152,612
155,546	-2,809	306,199	152,331
156,560	-2,912	306,018	152,120
157,575	-2,922	305,645	151,910
158,589	-2,751	305,398	151,952
159,604	-2,789	305,242	151,821
160,619	-2,764	305,139	151,782
161,633	-2,736	304,744	151,600
162,648	-2,865	304,712	151,439
163,662	-2,785	304,487	151,396
164,677	-2,814	304,297	151,257
165,692	-2,779	304,183	151,224
166,706	-2,745	304,048	151,179
167,721	-2,858	303,669	150,860
168,735	-2,784	303,508	150,843
169,750	-2,739	303,431	150,838
170,764	-2,646	303,326	150,868
171,779	-2,589	303,068	150,785
172,794	-2,487	302,832	150,758
173,808	-2,841	302,633	150,281
174,823	-2,993	302,144	149,870
175,837	-3,155	301,996	149,618
176,852	-2,907	301,988	149,854
177,867	-2,722	301,818	149,946
178,881	-2,602	301,444	149,870
179,896	-2,546	301,348	149,866
180,910	-2,727	301,352	149,668
181,925	-2,593	301,008	149,621
182,940	-2,765	300,844	149,352
183,954	-2,650	300,672	149,370
184,969	-2,653	300,439	149,237
185,983	-2,661	300,322	149,158
186,998	-2,559	300,041	149,108
188,013	-2,735	299,766	148,780
189,027	-2,560	299,550	148,837
190,042	-2,610	299,458	148,727
191,056	-2,415	299,250	148,808
192,071	-2,574	299,041	148,531
193,086	-2,361	298,874	148,650
194,100	-2,446	298,585	148,407
195,115	-2,595	298,333	148,117
196,129	-2,435	298,146	148,173
197,144	-2,576	297,743	147,817
198,159	-2,518	297,785	147,884
199,173	-2,505	297,445	147,715
200,188	-2,482	297,420	147,712
201,202	-2,627	297,061	147,376
202,217	-2,882	296,535	146,845
203,232	-3,130	296,498	146,565
204,246	-2,792	296,321	146,804
205,261	-2,626	296,274	146,933
206,275	-2,648	296,020	146,773
207,290	-2,573	295,940	146,795
208,304	-2,711	295,665	146,507
209,319	-2,724	295,552	146,425
210,334	-2,617	295,096	146,293
211,348	-2,635	295,047	146,237
212,363	-2,575	294,842	146,183
213,377	-2,613	294,707	146,065
214,392	-2,751	294,501	145,812
215,407	-2,719	294,253	145,709
216,421	-2,890	293,967	145,384
217,436	-2,871	293,744	145,279
218,450	-2,832	293,485	145,177
219,465	-2,630	293,570	145,407
220,480	-2,793	293,279	145,088
221,494	-2,819	293,128	144,975
222,509	-2,799	292,932	144,884
223,523	-2,744	292,823	144,872
224,538	-2,560	292,656	144,958
225,553	-2,440	292,483	144,978
226,567	-2,638	292,314	144,686
227,582	-2,527	292,161	144,707
228,596	-2,571	291,976	144,560
229,611	-2,501	291,641	144,449
230,626	-2,403	291,441	144,434
231,640	-2,765	291,036	143,865
232,655	-3,134	290,965	143,454
233,669	-3,271	290,713	143,183
234,684	-3,154	290,467	143,163
235,699	-2,906	290,341	143,332
236,713	-2,949	290,301	143,257
237,728	-3,137	290,093	142,957
238,742	-2,793	289,941	143,206
239,757	-2,870	289,821	143,059
240,772	-2,766	289,502	142,991
241,786	-2,780	289,367	142,898
242,801	-2,865	289,163	142,701
243,815	-2,876	288,950	142,572
244,830	-2,900	288,894	142,509
245,844	-2,867	288,744	142,454
246,859	-2,779	288,500	142,406
247,874	-2,775	288,265	142,281
248,888	-2,901	288,091	142,060
249,903	-2,662	287,931	142,202
250,917	-2,748	287,733	142,007
251,932	-2,430	287,544	142,210
252,947	-1,869	287,772	142,854
253,961	-2,339	287,185	142,095
254,976	-1,242	287,807	143,453
255,990	1,492	288,647	146,511
257,005	2,478	288,824	147,545
258,020	3,651	289,183	148,853
259,034	3,699	288,956	148,769
260,049	3,510	288,644	148,412
261,063	3,081	288,513	147,917
262,078	3,610	288,455	148,386
263,093	4,223	288,542	149,010
264,107	4,236	288,231	148,848
265,122	4,380	288,049	148,880
266,136	4,497	287,977	148,942
267,151	4,264	287,571	148,495
268,166	4,240	287,521	148,433
269,180	4,106	287,253	148,152
270,195	4,257	287,185	148,250
271,209	4,382	286,932	148,225
272,224	4,171	286,842	147,963
273,239	3,973	286,400	147,532
274,253	3,932	286,295	147,426
275,268	4,484	286,340	147,965
276,282	4,331	286,156	147,710
277,297	4,401	286,016	147,692
278,312	4,796	285,834	147,962
279,326	4,549	285,598	147,590
280,341	4,324	285,298	147,208
281,355	4,004	285,027	146,750
282,370	4,029	284,813	146,650
283,384	4,138	284,606	146,634
284,399	4,107	284,477	146,525
285,414	4,096	284,314	146,418
286,428	4,120	284,066	146,300
287,443	3,631	283,855	145,714
288,457	3,697	283,634	145,650
289,472	3,805	283,334	145,585
290,487	3,698	283,374	145,491
291,501	3,635	283,067	145,261
292,516	3,710	282,814	145,189
293,530	3,403	282,698	144,826
294,545	3,707	282,535	145,017
295,560	3,932	282,424	145,160
296,574	3,807	282,146	144,886
297,589	3,853	282,075	144,880
298,603	4,179	282,040	145,156
299,618	4,166	281,825	145,021
300,633	3,965	281,779	144,795
301,647	3,899	281,410	144,531
302,662	3,949	281,262	144,488
303,676	3,803	281,047	144,228
304,691	3,564	280,636	143,780
305,706	3,458	280,412	143,553
306,720	3,299	280,202	143,284
307,735	3,194	280,201	143,173
308,749	3,410	280,123	143,322
309,764	3,736	279,727	143,411
310,779	3,463	279,568	143,062
311,793	3,434	279,417	142,945
312,808	3,578	279,152	142,931
313,822	3,609	278,895	142,815
314,837	3,617	278,729	142,725
315,852	3,327	278,562	142,357
316,866	3,352	278,511	142,342
317,881	3,437	278,420	142,361
318,895	3,472	278,136	142,236
319,910	3,254	277,959	141,931
320,925	3,276	277,608	141,759
321,939	3,495	277,617	141,953
322,954	3,500	277,520	141,896
323,968	3,517	277,360	141,817
324,983	3,791	277,173	141,962
325,997	3,696	277,028	141,788
327,012	3,820	276,772	141,759
328,027	3,768	276,659	141,640
329,041	3,542	276,566	141,372
330,056	3,651	276,375	141,361
331,070	3,520	276,160	141,119
332,085	3,512	275,912	140,972
333,100	3,726	275,646	141,020
334,114	3,564	275,453	140,760
335,129	3,553	275,233	140,625
336,143	3,520	275,265	140,598
337,158	3,938	275,179	140,925
338,173	3,668	274,982	140,564
339,187	3,666	274,580	140,344
340,202	3,848	274,450	140,432
341,216	3,878	274,319	140,380
342,231	3,682	274,137	140,095
343,246	3,711	274,080	140,080
344,260	3,601	273,785	139,817
345,275	3,917	273,696	140,047
346,289	4,141	273,646	140,212
347,304	4,135	273,508	140,123
348,319	3,738	273,152	139,568
349,333	3,871	272,962	139,579
350,348	3,984	272,994	139,685
351,362	4,172	272,838	139,764
352,377	4,122	272,700	139,635
353,392	4,024	272,557	139,461
354,406	4,262	272,319	139,542
355,421	191,774	1330,883	1409,025
356,435	154,941	1459,928	1409,129
