DTS Sentinel unit serial number:	SN410029Multiplexer serial number:	ORYXHardware model number:	OX2-SRSoftware version number:	ORYX F/W v4,00 Oryx Data Collector v3.7.2.0data status	okinstallation	B4 Nyhavnadifferential loss correction	single-endedforward channel	channel 2reverse channel	N/Adate	2023/12/16time	03:20:13forward acquisition time	300,00reverse acquisition time	0,00gamma	499,1914k internal	0,3128k external	0,3128temperature offset calibration	1,0000default loss term (dB/km)	0,3820temperature slope calibration	1,0000multiplexer offset coefficient	1,0000multiplexer slope coefficient	1,0000fibre end	0,00T internal ref (°C)	21,99T ext. ref 1 (°C)	7,04T ext. ref 2 (°C)	7,21length (m)	temperature (°C)	Stokes	anti-Stokes-744,400	293,384	0,086	-0,117
-743,385	132,479	-0,222	0,213
-742,371	-113,211	0,160	0,023
-741,356	156,986	-0,229	0,236
-740,342	-200,000	-0,007	0,114
-739,327	-72,437	-0,279	0,076
-738,312	-72,835	0,155	0,042
-737,298	-23,689	-0,238	0,106
-736,283	-200,000	-0,016	0,115
-735,269	35,487	-0,184	0,120
-734,254	51,276	-0,180	0,127
-733,239	5,220	-0,318	-0,174
-732,225	-79,358	0,283	-0,071
-731,210	406,675	-0,049	-0,077
-730,196	372,904	0,053	-0,080
-729,181	800,000	-0,062	-0,152
-728,167	784,987	0,038	-0,079
-727,152	46,770	-0,086	-0,060
-726,137	-81,265	-0,035	-0,009
-725,123	174,026	0,061	-0,066
-724,108	-164,911	-0,228	0,007
-723,094	-9,001	-0,202	-0,100
-722,079	17,905	-0,236	-0,139
-721,064	-200,000	0,013	-0,060
-720,050	132,244	0,143	-0,137
-719,035	345,649	-0,092	0,135
-718,021	177,304	0,051	0,055
-717,006	-104,204	-0,103	-0,018
-715,991	2,854	-0,149	-0,080
-714,977	-200,000	-0,020	-0,183
-713,962	-115,436	-0,090	-0,013
-712,948	800,000	-0,025	-0,069
-711,933	28,691	0,019	0,012
-710,918	126,382	-0,079	0,075
-709,904	-200,000	0,008	-0,124
-708,889	12,138	-0,112	-0,064
-707,875	800,000	-0,049	0,124
-706,860	-93,344	0,029	-0,006
-705,845	-32,163	-0,108	-0,044
-704,831	438,124	-0,076	0,123
-703,816	-113,711	-0,091	-0,013
-702,802	241,247	-0,049	0,061
-701,787	-160,768	0,042	-0,002
-700,772	-10,886	-0,096	-0,047
-699,758	319,127	-0,049	-0,069
-698,743	-200,000	0,011	-0,086
-697,729	-200,000	-0,025	-0,096
-696,714	135,127	0,033	-0,032
-695,699	-66,406	-0,113	-0,033
-694,685	-74,269	0,060	-0,016
-693,670	-200,000	0,006	-0,081
-692,656	-200,000	0,029	-0,098
-691,641	-10,301	-0,010	0,005
-690,627	-44,593	0,124	-0,046
-689,612	58,463	-0,088	-0,064
-688,597	-200,000	0,008	-0,032
-687,583	440,852	0,045	-0,073
-686,568	-200,000	0,012	-0,122
-685,554	343,297	-0,145	-0,212
-684,539	195,151	0,050	0,057
-683,524	-38,871	-0,073	0,029
-682,510	600,052	-0,027	-0,050
-681,495	-95,650	0,015	-0,003
-680,481	-200,000	0,017	-0,066
-679,466	-200,000	-0,003	-0,255
-678,451	-156,395	-0,069	-0,003
-677,437	-200,000	0,041	-0,191
-676,422	-122,951	0,034	0,004
-675,408	-171,675	0,045	-0,001
-674,393	-200,000	0,010	0,055
-673,378	12,139	-0,024	0,014
-672,364	-200,000	-0,028	-0,121
-671,349	-200,000	-0,016	0,141
-670,335	18,416	0,097	0,057
-669,320	98,697	-0,054	-0,046
-668,305	186,330	-0,108	-0,119
-667,291	-173,445	-0,138	-0,003
-666,276	221,213	-0,099	0,118
-665,262	274,740	-0,103	-0,136
-664,247	126,821	-0,026	0,025
-663,232	-200,000	-0,002	-0,041
-662,218	-187,959	0,027	-0,000
-661,203	775,132	-0,024	-0,049
-660,189	800,000	0,041	-0,109
-659,174	-73,843	-0,085	-0,023
-658,159	-200,000	0,019	-0,077
-657,145	800,000	0,087	-0,183
-656,130	800,000	-0,018	-0,046
-655,116	-1,885	-0,036	0,019
-654,101	20,511	0,046	0,028
-653,086	-200,000	-0,016	-0,054
-652,072	113,748	-0,070	-0,063
-651,057	-200,000	-0,026	-0,149
-650,043	800,000	-0,035	-0,074
-649,028	123,795	-0,040	-0,037
-648,014	-200,000	0,013	0,068
-646,999	-200,000	0,016	-0,132
-645,984	119,667	-0,070	0,064
-644,970	-200,000	-0,031	-0,130
-643,955	-47,275	0,044	-0,016
-642,941	-200,000	-0,011	-0,098
-641,926	18,002	-0,017	-0,010
-640,911	113,291	-0,084	-0,076
-639,897	82,029	-0,021	-0,017
-638,882	11,955	0,033	-0,019
-637,868	158,994	0,045	0,047
-636,853	-106,385	-0,077	-0,013
-635,838	22,157	-0,073	-0,044
-634,824	-200,000	0,006	0,044
-633,809	-200,000	-0,000	0,137
-632,795	-59,993	0,079	-0,025
-631,780	209,798	0,141	-0,164
-630,765	800,000	-0,046	-0,124
-629,751	-54,120	0,100	0,033
-628,736	421,434	0,064	0,101
-627,722	-200,000	0,004	-0,012
-626,707	-85,379	-0,160	-0,037
-625,692	-132,604	0,081	0,008
-624,678	800,000	0,034	0,086
-623,663	34,368	-0,053	0,034
-622,649	-200,000	0,003	0,068
-621,634	-104,983	0,110	0,019
-620,619	800,000	0,023	-0,068
-619,605	-30,467	-0,102	-0,043
-618,590	-138,516	0,069	0,006
-617,576	134,118	-0,074	0,071
-616,561	800,000	-0,032	0,081
-615,546	800,000	-0,069	-0,169
-614,532	536,875	-0,094	0,166
-613,517	800,000	0,042	0,100
-612,503	57,489	-0,121	-0,087
-611,488	3,726	0,028	-0,015
-610,474	700,369	0,057	-0,112
-609,459	-15,099	-0,097	0,046
-608,444	-25,034	0,078	-0,034
-607,430	72,149	-0,015	-0,012
-606,415	-82,599	-0,063	0,015
-605,401	-85,903	0,085	0,019
-604,386	800,000	0,035	0,091
-603,371	99,488	-0,065	0,056
-602,357	-200,000	0,006	0,154
-601,342	669,528	0,029	-0,055
-600,328	-47,550	-0,099	-0,035
-599,313	800,000	0,015	-0,044
-598,298	-200,000	0,021	-0,127
-597,284	-134,074	-0,068	0,006
-596,269	13,211	-0,005	0,003
-595,255	-200,000	-0,031	0,116
-594,240	147,357	-0,085	-0,085
-593,225	188,669	-0,080	-0,088
-592,211	635,180	-0,028	-0,052
-591,196	78,467	0,129	0,102
-590,182	-200,000	-0,011	0,063
-589,167	89,933	0,062	-0,051
-588,152	800,000	0,019	-0,051
-587,138	-200,000	-0,002	-0,120
-586,123	-62,449	0,106	-0,033
-585,109	-200,000	0,001	-0,023
-584,094	800,000	-0,043	-0,107
-583,079	98,110	0,110	-0,093
-582,065	-106,391	0,119	-0,019
-581,050	800,000	-0,053	0,126
-580,036	-63,360	-0,099	-0,030
-579,021	-126,169	-0,096	0,011
-578,006	280,237	-0,084	-0,112
-576,992	-101,453	-0,106	-0,019
-575,977	-97,341	0,106	-0,020
-574,963	-200,000	0,000	-0,018
-573,948	245,289	0,032	-0,040
-572,934	-84,990	0,003	0,001
-571,919	522,577	-0,071	-0,123
-570,904	800,000	-0,045	0,099
-569,890	774,418	0,063	-0,127
-568,875	-105,803	0,062	-0,010
-567,861	-171,619	-0,022	0,001
-566,846	-200,000	0,041	-0,144
-565,831	43,912	-0,077	0,052
-564,817	22,913	0,060	-0,037
-563,802	-50,552	-0,026	-0,009
-562,788	-200,000	-0,011	0,074
-561,773	461,041	-0,072	-0,118
-560,758	282,161	0,071	-0,095
-559,744	-22,209	-0,033	0,015
-558,729	-88,714	-0,045	-0,010
-557,715	-63,301	-0,045	-0,014
-556,700	-107,747	-0,068	0,011
-555,685	-200,000	-0,010	-0,127
-554,671	800,000	-0,033	0,099
-553,656	103,637	-0,096	-0,083
-552,642	-82,506	0,072	-0,017
-551,627	-161,121	0,037	-0,001
-550,612	601,595	-0,048	-0,089
-549,598	-3,427	-0,137	0,070
-548,583	-169,771	-0,051	-0,001
-547,569	-200,000	0,010	-0,141
-546,554	-200,000	-0,029	0,150
-545,539	-200,000	-0,125	-0,000
-544,525	-200,000	-0,004	-0,034
-543,510	-53,227	0,169	0,057
-542,496	640,781	-0,053	-0,101
-541,481	251,971	-0,035	-0,044
-540,466	-200,000	0,020	-0,114
-539,452	-47,471	0,096	0,034
-538,437	-200,000	-0,030	-0,159
-537,423	-200,000	-0,007	0,094
-536,408	800,000	-0,020	-0,063
-535,393	-17,237	-0,055	-0,026
-534,379	632,383	0,044	-0,083
-533,364	-200,000	0,018	0,071
-532,350	149,489	-0,022	-0,022
-531,335	94,788	0,067	-0,056
-530,321	800,000	-0,043	0,089
-529,306	-200,000	-0,036	0,121
-528,291	-117,542	-0,058	-0,008
-527,277	183,069	-0,109	-0,118
-526,262	-200,000	0,009	-0,048
-525,248	-145,713	-0,040	0,003
-524,233	551,934	0,033	-0,058
-523,218	291,737	0,052	0,070
-522,204	-200,000	0,000	0,026
-521,189	168,766	0,088	-0,092
-520,175	50,906	-0,080	0,056
-519,160	-200,000	0,006	-0,060
-518,145	-97,644	-0,079	-0,015
-517,131	39,982	0,114	0,075
-516,116	800,000	-0,018	-0,042
-515,102	238,245	0,056	0,069
-514,087	581,381	-0,070	-0,128
-513,072	-200,000	-0,009	-0,115
-512,058	-14,352	-0,058	0,028
-511,043	-102,055	0,037	0,007
-510,029	146,551	0,037	0,037
-509,014	800,000	-0,072	0,217
-507,999	96,170	0,037	-0,031
-506,985	223,962	0,023	-0,027
-505,970	800,000	-0,029	0,093
-504,956	215,013	-0,050	-0,059
-503,941	800,000	-0,053	0,124
-502,926	-200,000	0,030	0,211
-501,912	-99,287	-0,144	-0,027
-500,897	319,044	-0,077	-0,108
-499,883	22,206	0,105	0,063
-498,868	60,312	-0,063	-0,046
-497,853	-200,000	-0,005	-0,094
-496,839	800,000	-0,004	-0,012
-495,824	127,700	-0,083	0,078
-494,810	11,214	0,072	-0,040
-493,795	105,174	-0,039	-0,034
-492,781	-72,039	0,075	0,020
-491,766	-200,000	-0,021	-0,107
-490,751	-65,540	-0,155	0,045
-489,737	-53,271	0,164	-0,055
-488,722	800,000	0,038	-0,115
-487,708	119,927	-0,030	-0,027
-486,693	800,000	0,039	-0,092
-485,678	113,769	0,095	0,085
-484,664	-198,525	-0,134	-0,001
-483,649	-29,972	0,097	0,041
-482,635	-64,778	0,045	0,013
-481,620	218,926	0,077	0,091
-480,605	214,682	-0,045	-0,053
-479,591	-200,000	0,012	0,225
-478,576	-149,270	0,082	0,005
-477,562	-131,262	0,183	-0,018
-476,547	315,507	-0,042	-0,059
-475,532	-200,000	-0,021	0,110
-474,518	-200,000	-0,009	0,071
-473,503	79,527	-0,071	0,056
-472,489	322,549	0,032	0,045
-471,474	-80,463	0,047	0,012
-470,459	-56,016	-0,135	-0,044
-469,445	39,692	0,055	-0,036
-468,430	202,597	0,020	0,023
-467,416	610,723	0,031	0,057
-466,401	539,768	-0,073	0,129
-465,386	279,525	0,015	0,020
-464,372	47,511	0,044	-0,030
-463,357	500,851	-0,053	-0,090
-462,343	463,425	-0,044	-0,073
-461,328	-129,287	0,078	0,008
-460,313	349,012	-0,071	-0,103
-459,299	128,194	0,037	-0,034
-458,284	800,000	0,050	-0,118
-457,270	-86,058	0,013	-0,003
-456,255	-76,047	-0,088	-0,023
-455,241	-200,000	-0,001	0,012
-454,226	-200,000	0,010	-0,082
-453,211	-26,574	0,034	-0,015
-452,197	-71,171	0,158	-0,043
-451,182	-200,000	0,011	0,136
-450,168	200,627	0,047	-0,053
-449,153	800,000	0,035	-0,078
-448,138	-5,614	-0,066	0,033
-447,124	-73,331	-0,056	0,015
-446,109	26,875	0,118	0,073
-445,095	-200,000	-0,009	0,177
-444,080	800,000	-0,087	0,221
-443,065	-200,000	0,028	0,106
-442,051	392,407	-0,070	0,107
-441,036	-130,640	-0,035	-0,003
-440,022	800,000	-0,028	-0,067
-439,007	34,017	0,045	-0,029
-437,992	50,227	-0,060	0,041
-436,978	374,148	-0,021	0,032
-435,963	-200,000	0,000	-0,014
-434,949	196,066	-0,064	-0,071
-433,934	40,596	-0,082	-0,054
-432,919	480,003	-0,110	-0,185
-431,905	-6,743	0,109	-0,054
-430,890	-120,980	0,047	-0,006
-429,876	116,900	0,090	0,081
-428,861	800,000	0,081	0,170
-427,846	-200,000	-0,004	0,093
-426,832	11,588	-0,050	-0,028
-425,817	207,154	-0,057	0,066
-424,803	311,502	-0,082	-0,113
-423,788	-97,317	0,085	-0,016
-422,773	-200,000	0,009	0,074
-421,759	-200,000	0,005	0,174
-420,744	800,000	-0,054	0,113
-419,730	-200,000	0,026	-0,088
-418,715	-51,048	0,104	0,036
-417,701	259,004	0,027	-0,034
-416,686	-200,000	0,022	-0,175
-415,671	97,302	0,070	-0,059
-414,657	353,728	0,061	0,089
-413,642	23,126	-0,029	-0,018
-412,628	2,458	-0,002	0,001
-411,613	-64,712	0,054	0,016
-410,598	-200,000	-0,001	-0,014
-409,584	-70,316	-0,076	-0,021
-408,569	-82,587	-0,095	0,022
-407,555	-200,000	0,010	0,073
-406,540	800,000	-0,049	0,106
-405,525	-40,632	-0,110	0,042
-404,511	119,223	-0,095	0,086
-403,496	37,320	-0,011	-0,007
-402,482	159,076	-0,055	-0,057
-401,467	348,385	-0,059	0,085
-400,452	13,905	0,161	0,092
-399,438	768,137	0,051	-0,102
-398,423	-20,129	0,037	0,016
-397,409	110,804	0,062	0,055
-396,394	167,897	-0,020	0,021
-395,379	-200,000	0,008	0,117
-394,365	-200,000	0,003	-0,094
-393,350	-200,000	0,024	0,081
-392,336	-20,564	0,051	-0,023
-391,321	-34,037	0,067	-0,027
-390,306	-165,696	-0,113	0,004
-389,292	-200,000	0,006	-0,075
-388,277	-90,838	0,038	-0,008
-387,263	-200,000	0,025	-0,106
-386,248	-92,871	0,112	-0,023
-385,233	-108,613	0,318	0,050
-384,219	-56,577	-0,076	-0,025
-383,204	-200,000	0,008	0,026
-382,190	800,000	0,040	-0,085
-381,175	800,000	-0,075	0,154
-380,160	-200,000	0,002	-0,144
-379,146	-200,000	0,003	0,046
-378,131	-200,000	0,005	0,112
-377,117	-200,000	-0,035	-0,153
-376,102	-200,000	-0,008	-0,064
-375,088	282,663	-0,058	0,077
-374,073	69,674	0,075	-0,057
-373,058	-9,859	0,120	0,058
-372,044	-76,231	-0,063	0,016
-371,029	220,677	0,117	0,138
-370,015	-200,000	-0,010	0,081
-369,000	-31,289	-0,058	0,024
-367,985	-56,317	-0,139	-0,045
-366,971	76,241	0,066	-0,051
-365,956	770,316	-0,045	-0,091
-364,942	191,587	0,103	0,113
-363,927	433,544	0,078	0,125
-362,912	800,000	0,008	0,024
-361,898	-200,000	-0,012	0,051
-360,883	116,460	0,072	-0,065
-359,869	-200,000	0,014	-0,130
-358,854	-200,000	0,000	0,011
-357,839	70,636	-0,026	-0,020
-356,825	152,542	0,042	-0,042
-355,810	-200,000	0,013	0,043
-354,796	800,000	0,048	0,100
-353,781	-4,763	0,009	0,005
-352,766	18,282	-0,067	0,039
-351,752	88,224	0,038	0,031
-350,737	-200,000	0,002	0,048
-349,723	130,938	0,077	0,072
-348,708	800,000	-0,041	0,120
-347,693	19,998	0,115	-0,068
-346,679	-12,364	-0,089	-0,042
-345,664	800,000	-0,047	-0,113
-344,650	103,825	0,122	0,105
-343,635	58,014	0,068	-0,048
-342,620	199,328	-0,160	0,180
-341,606	-40,610	0,153	0,058
-340,591	800,000	0,026	-0,067
-339,577	-198,619	-0,117	-0,000
-338,562	263,597	0,053	-0,068
-337,548	-200,000	-0,031	0,136
-336,533	800,000	0,037	-0,088
-335,518	-200,000	-0,014	-0,053
-334,504	-78,536	0,172	-0,043
-333,489	156,848	-0,026	-0,026
-332,475	-158,085	-0,067	-0,003
-331,460	-200,000	0,020	-0,138
-330,445	637,574	-0,072	-0,134
-329,431	-200,000	-0,025	0,086
-328,416	-121,187	0,140	-0,017
-327,402	-57,740	0,026	-0,008
-326,387	-62,645	-0,126	0,038
-325,372	-200,000	0,015	-0,058
-324,358	-144,570	0,087	0,006
-323,343	360,854	-0,029	0,042
-322,329	-200,000	-0,017	-0,101
-321,314	800,000	-0,021	0,052
-320,299	-91,377	0,130	0,027
-319,285	347,665	-0,033	0,047
-318,270	243,369	-0,104	-0,128
-317,256	-78,349	0,129	0,032
-316,241	-109,608	-0,098	0,015
-315,226	-13,283	0,021	0,010
-314,212	556,613	0,036	-0,063
-313,197	-200,000	0,003	0,110
-312,183	268,361	-0,050	-0,064
-311,168	89,688	-0,019	0,016
-310,153	800,000	-0,034	0,093
-309,139	800,000	-0,031	0,063
-308,124	800,000	0,024	0,067
-307,110	-200,000	0,001	0,175
-306,095	471,651	0,065	0,108
-305,080	-13,969	0,058	0,027
-304,066	-135,403	0,058	-0,005
-303,051	-200,000	-0,012	0,042
-302,037	-200,000	-0,013	-0,044
-301,022	800,000	0,017	-0,042
-300,008	156,630	0,086	0,087
-298,993	-200,000	0,001	-0,012
-297,978	800,000	0,048	0,140
-296,964	174,793	0,005	0,006
-295,949	-138,359	-0,100	-0,008
-294,935	132,334	-0,030	-0,028
-293,920	312,487	-0,058	-0,079
-292,905	681,377	-0,019	-0,036
-291,891	-130,512	0,207	0,020
-290,876	384,988	0,046	0,070
-289,862	-68,749	-0,073	0,021
-288,847	-200,000	0,001	-0,009
-287,832	-126,989	-0,076	0,008
-286,818	-51,648	0,091	-0,031
-285,803	541,509	-0,020	0,034
-284,789	33,547	0,056	0,036
-283,774	102,687	-0,013	-0,011
-282,759	800,000	-0,033	0,089
-281,745	-62,375	-0,147	-0,044
-280,730	-200,000	0,013	-0,091
-279,716	-3,437	-0,056	0,029
-278,701	-100,604	0,023	-0,004
-277,686	-158,230	0,049	-0,002
-276,672	-17,107	-0,087	0,040
-275,657	800,000	0,029	-0,075
-274,643	-66,972	-0,050	-0,014
-273,628	75,618	-0,126	-0,097
-272,613	55,729	0,038	0,027
-271,599	-200,000	-0,027	0,123
-270,584	116,633	-0,076	0,068
-269,570	-134,698	0,119	0,010
-268,555	500,286	0,051	0,087
-267,540	90,228	-0,117	0,095
-266,526	-100,243	0,182	-0,033
-265,511	131,451	-0,058	0,054
-264,497	-200,000	-0,010	-0,055
-263,482	173,862	0,030	0,032
-262,467	374,814	-0,044	-0,065
-261,453	-200,000	-0,006	-0,072
-260,438	800,000	-0,053	0,144
-259,424	228,280	0,051	0,060
-258,409	82,177	-0,024	0,019
-257,395	81,171	0,010	0,008
-256,380	252,893	0,040	0,051
-255,365	-5,102	0,049	0,024
-254,351	-14,694	0,029	0,013
-253,336	800,000	0,015	0,040
-252,322	-112,971	-0,045	-0,006
-251,307	142,318	-0,108	0,105
-250,292	635,216	-0,021	0,039
-249,278	-74,095	0,136	-0,036
-248,263	-200,000	0,010	0,174
-247,249	800,000	-0,054	-0,135
-246,234	800,000	-0,046	-0,136
-245,219	-200,000	-0,004	-0,037
-244,205	384,403	-0,058	-0,088
-243,190	800,000	-0,040	0,103
-242,176	134,915	0,112	0,107
-241,161	-42,455	0,087	0,032
-240,146	-124,755	-0,131	0,015
-239,132	557,129	0,076	-0,135
-238,117	327,938	0,067	-0,094
-237,103	-200,000	0,013	-0,088
-236,088	-131,302	-0,085	-0,008
-235,073	420,311	-0,047	-0,073
-234,059	343,658	0,064	-0,092
-233,044	134,496	0,045	0,043
-232,030	-136,893	0,018	0,001
-231,015	-9,674	-0,119	-0,058
-230,000	-110,902	-0,097	0,014
-228,986	99,168	0,042	-0,035
-227,971	189,174	0,059	-0,065
-226,957	257,375	-0,027	-0,035
-225,942	-200,000	0,003	-0,089
-224,927	169,490	-0,013	0,014
-223,913	-94,653	0,038	0,008
-222,898	113,068	0,017	0,015
-221,884	268,425	-0,041	-0,053
-220,869	98,137	0,057	-0,048
-219,855	71,972	-0,052	0,039
-218,840	-43,867	-0,038	0,014
-217,825	-200,000	0,008	-0,072
-216,811	23,032	0,033	0,020
-215,796	144,715	-0,102	-0,099
-214,782	-200,000	-0,020	-0,089
-213,767	206,751	0,049	-0,056
-212,752	-20,206	0,118	0,053
-211,738	251,926	0,068	0,085
-210,723	-73,124	0,121	0,032
-209,709	-124,782	0,111	0,012
-208,694	247,013	-0,108	-0,133
-207,679	292,224	-0,070	-0,093
-206,665	202,646	0,076	-0,085
-205,650	-49,112	0,090	-0,031
-204,636	-200,000	0,022	0,099
-203,621	245,663	-0,047	0,058
-202,606	-200,000	-0,008	0,051
-201,592	97,302	0,177	-0,148
-200,577	-23,735	-0,035	0,015
-199,563	63,047	-0,065	0,047
-198,548	-121,269	0,140	0,017
-197,533	800,000	0,057	0,128
-196,519	-138,840	-0,162	-0,013
-195,504	53,345	0,071	-0,050
-194,490	-198,861	0,084	-0,000
-193,475	432,027	0,060	-0,095
-192,460	-200,000	-0,010	-0,070
-191,446	800,000	0,044	0,097
-190,431	13,166	0,037	0,021
-189,417	-200,000	0,009	-0,058
-188,402	415,396	0,023	0,035
-187,387	451,586	-0,027	0,044
-186,373	-144,654	-0,206	-0,014
-185,358	-18,103	-0,040	-0,018
-184,344	-200,000	0,032	0,195
-183,329	800,000	-0,067	-0,200
-182,315	-200,000	-0,005	0,167
-181,300	-101,556	-0,018	-0,003
-180,285	-200,000	-0,022	-0,140
-179,271	800,000	-0,069	-0,152
-178,256	145,603	-0,047	-0,046
-177,242	-109,307	0,047	0,007
-176,227	-122,572	0,080	0,009
-175,212	77,769	-0,103	0,080
-174,198	690,404	0,028	-0,054
-173,183	730,739	-0,053	-0,103
-172,169	-200,000	-0,006	0,030
-171,154	-126,405	-0,136	0,015
-170,139	800,000	0,042	0,087
-169,125	-200,000	-0,041	0,138
-168,110	264,568	-0,057	-0,073
-167,096	-200,000	-0,049	-0,214
-166,081	-73,696	-0,169	0,044
-165,066	-54,580	-0,079	-0,026
-164,052	-97,835	-0,042	0,008
-163,037	525,506	0,045	-0,078
-162,023	-200,000	-0,026	0,099
-161,008	-200,000	-0,001	-0,025
-159,993	58,864	0,068	0,049
-158,979	800,000	0,022	-0,061
-157,964	711,946	-0,042	0,081
-156,950	65,505	-0,072	0,053
-155,935	74,197	0,145	0,111
-154,920	800,000	0,043	0,132
-153,906	192,906	0,082	0,090
-152,891	-200,000	0,003	0,104
-151,877	-200,000	0,007	0,060
-150,862	-200,000	-0,034	-0,126
-149,847	-25,094	-0,106	0,046
-148,833	-33,246	-0,085	0,034
-147,818	162,198	0,074	0,076
-146,804	24,327	0,063	0,038
-145,789	800,000	0,025	-0,071
-144,775	428,157	-0,067	-0,105
-143,760	800,000	-0,059	-0,138
-142,745	-117,528	0,041	0,005
-141,731	418,792	-0,058	-0,090
-140,716	90,238	0,065	-0,053
-139,702	800,000	-0,069	0,147
-138,687	-200,000	-0,037	0,173
-137,672	318,558	0,012	-0,017
-136,658	-200,000	-0,008	-0,117
-135,643	800,000	-0,044	-0,116
-134,629	169,217	-0,145	-0,150
-133,614	-14,605	0,111	0,052
-132,599	65,341	-0,128	0,094
-131,585	800,000	0,046	0,119
-130,570	8,308	0,068	-0,037
-129,556	-37,292	-0,094	0,036
-128,541	-200,000	0,020	0,109
-127,526	25,985	0,044	-0,026
-126,512	224,111	-0,029	-0,034
-125,497	-200,000	0,009	0,111
-124,483	262,097	0,085	0,108
-123,468	-200,000	-0,006	0,077
-122,453	-200,000	-0,040	-0,211
-121,439	51,479	-0,080	-0,055
-120,424	7,498	-0,130	0,071
-119,410	800,000	0,038	-0,085
-118,395	467,192	0,059	-0,096
-117,380	28,944	-0,095	0,058
-116,366	289,298	-0,024	0,032
-115,351	800,000	-0,011	0,034
-114,337	-200,000	0,001	-0,028
-113,322	800,000	-0,036	0,077
-112,307	69,035	-0,090	-0,067
-111,293	-200,000	-0,027	0,143
-110,278	393,525	-0,070	0,105
-109,264	-182,493	0,041	0,001
-108,249	800,000	-0,030	0,089
-107,234	-200,000	0,015	0,102
-106,220	-107,797	-0,093	-0,015
-105,205	-200,000	0,008	-0,083
-104,191	152,770	-0,052	0,052
-103,176	-29,994	-0,073	0,030
-102,162	774,843	0,041	0,082
-101,147	800,000	0,068	0,140
-100,132	-153,218	-0,181	0,009
-99,118	543,533	-0,035	-0,061
-98,103	-0,150	-0,093	-0,048
-97,089	-134,269	-0,143	0,013
-96,074	145,586	0,049	-0,047
-95,059	-91,210	0,087	0,018
-94,045	-200,000	-0,034	-0,129
-93,030	405,546	-0,083	-0,127
-92,016	-137,692	-0,100	0,008
-91,001	-200,000	-0,013	-0,166
-89,986	194,799	-0,036	-0,040
-88,972	-133,823	0,092	0,008
-87,957	152,932	-0,022	0,022
-86,943	729,703	-0,031	0,061
-85,928	-200,000	0,000	-0,064
-84,913	-200,000	-0,035	0,130
-83,899	-117,416	0,030	-0,004
-82,884	-4,201	0,099	-0,049
-81,870	62,932	-0,157	-0,114
-80,855	322,899	0,029	-0,040
-79,840	-200,000	-0,005	0,114
-78,826	252,519	-0,024	-0,030
-77,811	-177,526	-0,058	-0,001
-76,797	-200,000	0,014	-0,148
-75,782	800,000	0,039	0,116
-74,767	-200,000	-0,034	0,172
-73,753	-200,000	-0,002	-0,034
-72,738	153,867	0,045	0,045
-71,724	-200,000	0,009	-0,099
-70,709	62,727	-0,087	-0,063
-69,694	109,513	-0,111	-0,096
-68,680	-200,000	0,012	0,148
-67,665	96,229	0,053	0,044
-66,651	-200,000	0,014	0,121
-65,636	800,000	0,025	0,066
-64,622	-53,166	-0,054	0,018
-63,607	22,074	0,053	0,031
-62,592	361,638	-0,045	-0,066
-61,578	168,263	-0,081	0,084
-60,563	624,380	0,056	0,102
-59,549	377,360	-0,038	0,056
-58,534	-100,014	-1,280	-0,229
-57,519	442,104	-0,929	-1,479
-56,505	-200,000	-0,862	-4,478
-55,490	-45,098	0,563	-0,202
-54,476	800,000	4,820	11,478
-53,461	-200,000	14,093	251,079
-52,446	-200,000	692,776	2239,859
-51,432	583,106	1621,671	2895,001
-50,417	117,896	1630,797	1454,985
-49,403	73,919	1285,185	975,348
-48,388	37,790	1021,913	656,163
-47,373	24,020	980,046	584,141
-46,359	23,234	969,709	575,388
-45,344	22,246	965,369	569,573
-44,330	22,177	963,934	568,481
-43,315	22,074	962,469	567,258
-42,300	22,066	961,437	566,603
-41,286	22,011	960,485	565,841
-40,271	22,021	959,481	565,260
-39,257	21,942	958,545	564,430
-38,242	21,941	957,555	563,822
-37,227	22,040	956,756	563,648
-36,213	21,991	955,838	562,926
-35,198	21,913	955,161	562,254
-34,184	22,008	954,393	562,084
-33,169	21,963	953,471	561,374
-32,154	22,048	952,467	561,036
-31,140	22,068	951,697	560,625
-30,125	22,132	950,806	560,283
-29,111	22,083	950,152	559,717
-28,096	21,989	949,419	558,962
-27,082	22,035	948,672	558,647
-26,067	22,024	948,029	558,213
-25,052	22,009	947,144	557,622
-24,038	21,995	946,618	557,243
-23,023	22,037	945,960	556,969
-22,009	22,044	945,352	556,609
-20,994	22,038	944,627	556,143
-19,979	22,106	943,943	555,933
-18,965	22,012	943,452	555,323
-17,950	22,026	942,907	555,026
-16,936	21,994	942,054	554,399
-15,921	21,983	941,504	554,018
-14,906	21,943	940,643	553,362
-13,892	21,946	940,013	552,980
-12,877	21,867	939,573	552,450
-11,863	21,927	938,709	552,108
-10,848	21,908	938,350	551,815
-9,833	21,966	937,915	551,720
-8,819	21,969	937,341	551,373
-7,804	21,929	936,589	550,779
-6,790	21,877	935,997	550,248
-5,775	21,987	935,381	550,211
-4,760	21,928	934,858	549,694
-3,746	21,946	934,021	549,236
-2,731	21,810	933,444	548,449
-1,717	21,733	932,603	547,690
-0,702	21,767	932,116	547,490
0,313	21,561	931,351	547,220
1,327	24,102	929,091	553,802
2,342	31,949	807,086	502,269
3,356	27,143	507,627	307,716
4,371	2,965	372,456	195,175
5,386	-0,106	355,255	182,398
6,400	-1,600	348,995	177,375
7,415	-2,700	346,169	174,612
8,429	-2,832	344,669	173,683
9,444	-2,705	343,643	173,301
10,459	-2,589	342,929	173,063
11,473	-2,771	342,549	172,641
12,488	-2,463	341,827	172,623
13,502	-2,424	341,559	172,520
14,517	-2,472	340,927	172,129
15,531	-2,697	340,309	171,538
16,546	-2,672	339,911	171,351
17,561	-2,722	339,576	171,108
18,575	-2,754	339,290	170,911
19,590	-2,735	338,715	170,629
20,604	-2,716	338,351	170,452
21,619	-2,700	337,959	170,258
22,634	-2,584	337,634	170,214
23,648	-2,633	337,365	170,007
24,663	-2,759	336,992	169,657
25,677	-2,808	336,769	169,473
26,692	-2,617	336,370	169,477
27,707	-2,758	336,079	169,154
28,721	-2,744	335,693	168,960
29,736	-2,763	335,409	168,781
30,750	-2,682	335,122	168,714
31,765	-2,767	334,860	168,470
32,780	-2,642	334,485	168,409
33,794	-2,781	334,242	168,113
34,809	-2,642	333,872	168,071
35,823	-2,740	333,654	167,834
36,838	-2,808	333,400	167,613
37,853	-2,855	333,148	167,418
38,867	-2,857	332,904	167,278
39,882	-2,827	332,673	167,181
40,896	-2,768	332,266	167,028
41,911	-2,729	331,889	166,869
42,926	-2,833	331,760	166,670
43,940	-2,946	331,648	166,471
44,955	-2,900	331,171	166,270
45,969	-2,973	330,819	165,994
46,984	-2,928	330,520	165,881
47,999	-2,924	330,207	165,713
49,013	-3,165	330,028	165,336
50,028	-3,224	329,766	165,123
51,042	-3,420	329,492	164,750
52,057	-3,407	329,090	164,549
53,071	-3,204	328,903	164,669
54,086	-3,241	328,675	164,499
55,101	-3,141	328,401	164,460
56,115	-3,025	328,488	164,619
57,130	-2,752	328,114	164,725
58,144	-2,811	327,945	164,559
59,159	-2,547	327,579	164,656
60,174	-2,589	327,467	164,539
61,188	-2,535	327,084	164,392
62,203	-2,561	326,991	164,301
63,217	-2,691	326,748	164,019
64,232	-2,672	326,371	163,836
65,247	-2,517	326,141	163,880
66,261	-2,708	325,809	163,485
67,276	-2,615	325,409	163,374
68,290	-2,949	325,220	162,892
69,305	-2,985	324,855	162,654
70,320	-3,073	324,759	162,494
71,334	-2,876	324,567	162,603
72,349	-2,599	324,359	162,791
73,363	-2,649	324,142	162,613
74,378	-2,560	323,785	162,518
75,393	-2,408	323,504	162,530
76,407	-2,392	323,209	162,385
77,422	-2,612	323,072	162,059
78,436	-2,639	322,820	161,888
79,451	-2,425	322,471	161,935
80,466	-2,881	322,264	161,314
81,480	-2,777	321,688	161,126
82,495	-2,956	321,716	160,928
83,509	-2,767	321,483	161,005
84,524	-2,917	321,210	160,689
85,539	-2,917	320,959	160,549
86,553	-3,026	320,732	160,302
87,568	-2,863	320,457	160,329
88,582	-3,061	320,358	160,048
89,597	-2,962	320,064	159,996
90,611	-2,815	319,852	160,035
91,626	-2,680	319,712	160,099
92,641	-2,897	319,415	159,699
93,655	-2,819	319,080	159,602
94,670	-2,809	318,844	159,480
95,684	-2,720	318,661	159,472
96,699	-2,847	318,416	159,197
97,714	-2,899	318,347	159,092
98,728	-2,967	318,067	158,864
99,743	-3,006	317,660	158,604
100,757	-2,975	317,349	158,469
101,772	-2,958	317,287	158,441
102,787	-2,977	317,201	158,363
103,801	-2,757	316,803	158,389
104,816	-2,771	316,627	158,272
105,830	-2,900	316,521	158,065
106,845	-2,772	316,360	158,108
107,860	-2,799	315,899	157,835
108,874	-2,868	315,819	157,707
109,889	-2,791	315,499	157,616
110,903	-2,917	315,281	157,357
111,918	-2,841	314,854	157,212
112,933	-2,891	314,891	157,163
113,947	-2,736	314,684	157,212
114,962	-2,723	314,366	157,053
115,976	-2,642	314,007	156,946
116,991	-2,827	313,931	156,696
118,006	-2,824	313,696	156,568
119,020	-2,630	313,416	156,622
120,035	-2,654	313,432	156,590
121,049	-2,750	313,260	156,387
122,064	-2,840	313,008	156,152
123,079	-2,756	312,725	156,086
124,093	-2,890	312,461	155,798
125,108	-2,922	312,241	155,641
126,122	-3,195	311,971	155,202
127,137	-3,119	311,620	155,094
128,151	-3,055	311,489	155,083
129,166	-2,863	311,206	155,131
130,181	-3,025	311,044	154,865
131,195	-3,033	310,748	154,696
132,210	-2,861	310,541	154,761
133,224	-2,664	310,327	154,848
134,239	-2,785	310,225	154,656
135,254	-2,715	310,076	154,642
136,268	-2,760	309,776	154,430
137,283	-3,002	309,365	153,957
138,297	-3,157	309,280	153,739
139,312	-3,060	308,984	153,680
140,327	-2,793	308,921	153,915
141,341	-2,619	308,779	154,013
142,356	-2,417	308,600	154,123
143,370	-2,388	308,354	154,016
144,385	-2,293	308,030	153,940
145,400	-2,633	307,884	153,498
146,414	-2,457	307,639	153,546
147,429	-2,322	307,444	153,575
148,443	-2,519	307,405	153,336
149,458	-2,389	307,020	153,267
150,473	-2,546	306,927	153,043
151,487	-2,536	306,559	152,856
152,502	-2,439	306,338	152,833
153,516	-2,432	306,135	152,726
154,531	-2,552	306,021	152,531
155,546	-2,366	305,697	152,548
156,560	-2,644	305,492	152,144
157,575	-2,676	305,233	151,968
158,589	-2,423	305,070	152,135
159,604	-2,545	304,971	151,947
160,619	-2,572	304,676	151,758
161,633	-2,537	304,441	151,664
162,648	-2,536	304,391	151,626
163,662	-2,458	304,044	151,521
164,677	-2,628	304,030	151,324
165,692	-2,569	303,695	151,206
166,706	-2,524	303,535	151,158
167,721	-2,512	303,298	151,039
168,735	-2,555	303,303	150,984
169,750	-2,427	302,911	150,907
170,764	-2,252	302,986	151,111
171,779	-2,322	302,659	150,863
172,794	-2,278	302,353	150,742
173,808	-2,468	302,155	150,434
174,823	-2,802	301,869	149,936
175,837	-3,077	301,518	149,468
176,852	-2,697	301,591	149,879
177,867	-2,549	301,436	149,940
178,881	-2,423	301,225	149,951
179,896	-2,309	301,059	149,970
180,910	-2,383	300,741	149,723
181,925	-2,434	300,757	149,666
182,940	-2,311	300,404	149,603
183,954	-2,618	300,213	149,181
184,969	-2,519	299,962	149,144
185,983	-2,410	299,770	149,146
186,998	-2,432	299,559	149,006
188,013	-2,435	299,359	148,890
189,027	-2,372	299,135	148,829
190,042	-2,433	298,986	148,680
191,056	-2,409	298,867	148,632
192,071	-2,183	298,623	148,726
193,086	-2,372	298,473	148,446
194,100	-2,401	298,216	148,277
195,115	-2,237	297,831	148,238
196,129	-2,429	297,736	147,983
197,144	-2,267	297,485	148,008
198,159	-2,413	297,369	147,790
199,173	-2,222	297,147	147,859
200,188	-2,120	296,921	147,836
201,202	-2,305	296,691	147,522
202,217	-2,752	296,307	146,870
203,232	-2,921	296,237	146,652
204,246	-2,679	295,960	146,745
205,261	-2,466	295,835	146,883
206,275	-2,349	295,736	146,938
207,290	-2,354	295,611	146,857
208,304	-2,437	295,329	146,622
209,319	-2,381	295,108	146,554
210,334	-2,446	294,880	146,363
211,348	-2,479	294,734	146,245
212,363	-2,473	294,525	146,135
213,377	-2,453	294,466	146,112
214,392	-2,398	294,140	145,992
215,407	-2,484	293,795	145,722
216,421	-2,712	293,649	145,411
217,436	-2,772	293,468	145,249
218,450	-2,705	293,328	145,233
219,465	-2,575	293,122	145,247
220,480	-2,500	292,845	145,170
221,494	-2,488	292,672	145,083
222,509	-2,594	292,610	144,936
223,523	-2,340	292,417	145,077
224,538	-2,391	292,266	144,939
225,553	-2,344	292,148	144,914
226,567	-2,382	291,914	144,747
227,582	-2,388	291,828	144,686
228,596	-2,368	291,546	144,553
229,611	-2,241	291,375	144,581
230,626	-2,431	291,221	144,304
231,640	-2,595	290,924	143,984
232,655	-3,028	290,533	143,352
233,669	-3,094	290,417	143,218
234,684	-3,089	290,260	143,133
235,699	-2,893	290,023	143,195
236,713	-2,767	289,886	143,237
237,728	-2,655	289,690	143,237
238,742	-2,641	289,416	143,102
239,757	-2,592	289,327	143,094
240,772	-2,630	289,250	143,005
241,786	-2,489	289,054	143,033
242,801	-2,546	288,660	142,770
243,815	-2,708	288,740	142,640
244,830	-2,624	288,613	142,645
245,844	-2,681	288,256	142,401
246,859	-2,679	288,127	142,326
247,874	-2,584	287,771	142,230
248,888	-2,668	287,657	142,080
249,903	-2,418	287,489	142,227
250,917	-2,305	287,549	142,352
251,932	-2,348	287,368	142,209
252,947	-1,714	287,215	142,734
253,961	-2,526	286,852	141,756
254,976	-1,112	287,267	143,316
255,990	1,581	288,180	146,368
257,005	2,696	288,524	147,610
258,020	3,893	288,923	148,960
259,034	3,803	288,517	148,652
260,049	3,775	288,339	148,519
261,063	3,574	288,043	148,159
262,078	3,680	288,089	148,272
263,093	4,429	288,088	148,982
264,107	4,583	287,793	148,964
265,122	4,447	287,904	148,878
266,136	4,691	287,487	148,883
267,151	4,692	287,470	148,863
268,166	4,383	287,112	148,367
269,180	4,442	286,809	148,253
270,195	4,496	286,761	148,267
271,209	4,614	286,592	148,279
272,224	4,399	286,190	147,853
273,239	4,040	286,023	147,409
274,253	4,168	285,965	147,489
275,268	4,772	285,876	148,008
276,282	4,375	285,664	147,505
277,297	4,552	285,509	147,581
278,312	4,889	285,571	147,922
279,326	4,502	285,252	147,375
280,341	4,438	284,974	147,156
281,355	4,281	284,704	146,855
282,370	4,294	284,494	146,745
283,384	4,102	284,234	146,416
284,399	4,347	284,114	146,573
285,414	4,114	284,032	146,297
286,428	4,096	283,831	146,163
287,443	3,887	283,518	145,791
288,457	4,030	283,254	145,777
289,472	3,952	283,110	145,617
290,487	3,769	282,951	145,349
291,501	3,857	282,692	145,285
292,516	3,800	282,540	145,141
293,530	3,593	282,311	144,815
294,545	4,025	282,289	145,198
295,560	3,983	282,151	145,075
296,574	3,818	281,882	144,768
297,589	3,979	281,682	144,804
298,603	4,330	281,734	145,148
299,618	4,547	281,358	145,146
300,633	4,344	281,237	144,879
301,647	4,121	281,194	144,635
302,662	4,116	280,945	144,489
303,676	3,839	280,587	144,032
304,691	3,479	280,388	143,580
305,706	3,580	280,116	143,523
306,720	3,607	279,957	143,454
307,735	3,656	279,742	143,376
308,749	3,714	279,693	143,393
309,764	3,820	279,501	143,381
310,779	3,697	279,358	143,180
311,793	3,557	279,125	142,917
312,808	3,543	278,937	142,795
313,822	3,809	278,695	142,906
314,837	3,540	278,525	142,556
315,852	3,627	278,193	142,454
316,866	3,482	278,133	142,276
317,881	3,750	277,974	142,431
318,895	3,824	277,710	142,351
319,910	3,551	277,520	141,989
320,925	3,326	277,415	141,714
321,939	3,416	277,396	141,775
322,954	3,942	277,231	142,164
323,968	3,827	277,015	141,934
324,983	3,987	276,999	142,061
325,997	3,995	276,783	141,945
327,012	4,094	276,482	141,869
328,027	4,002	276,330	141,694
329,041	3,928	276,120	141,506
330,056	3,805	275,974	141,305
331,070	3,666	275,884	141,119
332,085	3,742	275,608	141,035
333,100	3,768	275,359	140,919
334,114	3,750	275,240	140,829
335,129	3,711	274,962	140,638
336,143	3,833	274,996	140,754
337,158	4,117	274,733	140,868
338,173	3,964	274,615	140,655
339,187	3,680	274,423	140,284
340,202	4,072	274,344	140,589
341,216	3,811	274,117	140,222
342,231	4,056	273,831	140,287
343,246	3,677	273,699	139,861
344,260	3,593	273,517	139,679
345,275	4,083	273,406	140,055
346,289	4,375	273,346	140,278
347,304	4,292	273,098	140,062
348,319	4,095	272,844	139,741
349,333	3,911	272,654	139,465
350,348	4,322	272,528	139,760
351,362	4,227	272,486	139,640
352,377	4,099	272,371	139,453
353,392	4,307	272,019	139,448
354,406	4,068	272,021	139,221
355,421	192,107	1329,163	1408,357
356,435	155,223	1458,043	1408,463
