DTS Sentinel unit serial number:	SN410029Multiplexer serial number:	ORYXHardware model number:	OX2-SRSoftware version number:	ORYX F/W v4,00 Oryx Data Collector v3.7.2.0data status	okinstallation	B4 Nyhavnadifferential loss correction	single-endedforward channel	channel 2reverse channel	N/Adate	2023/12/16time	08:40:13forward acquisition time	300,00reverse acquisition time	0,00gamma	499,1914k internal	0,3127k external	0,3127temperature offset calibration	1,0000default loss term (dB/km)	0,3820temperature slope calibration	1,0000multiplexer offset coefficient	1,0000multiplexer slope coefficient	1,0000fibre end	0,00T internal ref (°C)	22,65T ext. ref 1 (°C)	8,64T ext. ref 2 (°C)	8,78length (m)	temperature (°C)	Stokes	anti-Stokes-744,400	800,000	-0,032	-0,068
-743,385	56,221	-0,170	0,123
-742,371	106,109	0,116	-0,102
-741,356	-120,030	-0,081	0,010
-740,342	20,531	-0,069	-0,041
-739,327	-135,583	-0,290	0,025
-738,312	108,176	-0,081	0,072
-737,298	-156,921	-0,247	-0,011
-736,283	170,782	0,087	-0,092
-735,269	-72,402	-0,270	0,074
-734,254	47,691	0,070	-0,048
-733,239	-46,668	-0,286	-0,104
-732,225	208,414	0,067	-0,078
-731,210	127,926	0,004	-0,003
-730,196	-128,821	-0,029	0,003
-729,181	-104,671	-0,021	-0,004
-728,167	-18,889	-0,013	-0,006
-727,152	-108,298	-0,059	0,009
-726,137	-200,000	-0,014	-0,046
-725,123	-200,000	0,008	0,054
-724,108	222,973	-0,070	-0,084
-723,094	430,925	-0,055	-0,089
-722,079	403,248	-0,127	-0,199
-721,064	800,000	-0,025	-0,072
-720,050	-200,000	0,010	-0,113
-719,035	-145,158	-0,058	-0,004
-718,021	-25,126	0,012	0,005
-717,006	800,000	-0,051	-0,123
-715,991	423,835	-0,024	-0,039
-714,977	-41,298	-0,039	-0,015
-713,962	-75,255	0,085	0,022
-712,948	79,584	-0,132	0,105
-711,933	800,000	-0,027	-0,079
-710,918	-200,000	0,007	0,152
-709,904	-162,234	-0,286	-0,010
-708,889	53,467	-0,008	0,006
-707,875	-26,385	0,015	-0,007
-706,860	-119,357	0,103	0,013
-705,845	221,253	0,023	0,027
-704,831	437,088	-0,032	0,052
-703,816	-67,447	0,151	-0,044
-702,802	86,222	-0,106	0,087
-701,787	7,441	-0,059	0,033
-700,772	-200,000	-0,004	-0,084
-699,758	-75,388	-0,097	-0,026
-698,743	-29,510	0,103	0,044
-697,729	-200,000	0,009	-0,104
-696,714	-172,011	0,030	-0,001
-695,699	800,000	0,027	-0,084
-694,685	110,520	0,061	-0,055
-693,670	120,291	-0,120	-0,111
-692,656	190,099	-0,170	0,190
-691,641	210,761	-0,080	-0,094
-690,627	-13,594	-0,083	0,040
-689,612	-38,141	0,095	0,037
-688,597	-142,617	-0,070	0,005
-687,583	-200,000	-0,002	-0,156
-686,568	307,464	0,047	-0,066
-685,554	-125,538	-0,141	-0,016
-684,539	800,000	0,037	0,105
-683,524	-200,000	0,021	0,098
-682,510	-145,021	0,103	-0,007
-681,495	-200,000	0,015	-0,101
-680,481	800,000	-0,014	-0,030
-679,466	800,000	-0,019	-0,049
-678,451	518,780	-0,031	0,055
-677,437	-64,769	-0,116	0,035
-676,422	800,000	0,046	0,113
-675,408	175,648	0,060	-0,064
-674,393	-30,852	-0,075	-0,031
-673,378	800,000	0,025	-0,065
-672,364	-106,959	-0,026	0,004
-671,349	800,000	-0,024	-0,070
-670,335	319,947	0,044	0,062
-669,320	34,086	0,115	-0,074
-668,305	-200,000	-0,018	-0,122
-667,291	616,242	-0,052	0,097
-666,276	48,095	-0,095	-0,066
-665,262	-31,290	0,128	-0,053
-664,247	-200,000	0,053	-0,217
-663,232	-200,000	0,039	-0,150
-662,218	-104,064	0,038	0,007
-661,203	-200,000	0,022	0,135
-660,189	41,167	-0,183	0,123
-659,174	213,132	-0,051	-0,060
-658,159	-148,838	-0,136	-0,008
-657,145	470,785	-0,030	-0,050
-656,130	351,265	0,052	0,076
-655,116	-88,570	-0,099	0,022
-654,101	-200,000	-0,040	-0,161
-653,086	-200,000	0,033	0,114
-652,072	-72,768	-0,048	-0,013
-651,057	-200,000	0,050	-0,174
-650,043	800,000	0,032	-0,100
-649,028	67,782	-0,016	-0,012
-648,014	269,969	0,028	0,036
-646,999	-112,964	0,032	0,005
-645,984	35,916	-0,028	0,018
-644,970	110,206	-0,096	-0,085
-643,955	503,073	-0,056	-0,097
-642,941	800,000	-0,041	-0,108
-641,926	800,000	-0,024	-0,073
-640,911	-200,000	-0,002	0,115
-639,897	194,706	0,073	0,082
-638,882	546,079	-0,046	0,083
-637,868	228,135	0,044	0,054
-636,853	-31,939	0,063	-0,026
-635,838	-79,672	0,075	0,019
-634,824	-200,000	-0,006	0,064
-633,809	-200,000	-0,009	-0,051
-632,795	800,000	0,021	-0,067
-631,780	800,000	0,014	-0,029
-630,765	-35,078	-0,033	0,013
-629,751	-73,896	-0,105	0,028
-628,736	299,779	0,084	-0,115
-627,722	-90,468	0,041	-0,009
-626,707	384,443	-0,038	0,058
-625,692	298,730	-0,029	-0,039
-624,678	-91,544	0,170	-0,036
-623,663	191,706	-0,023	-0,025
-622,649	-125,205	0,056	-0,006
-621,634	-200,000	-0,026	-0,145
-620,619	250,278	-0,077	-0,097
-619,605	-200,000	0,019	-0,118
-618,590	111,952	-0,035	0,031
-617,576	-137,534	0,108	0,009
-616,561	41,678	-0,091	-0,061
-615,546	800,000	-0,040	0,111
-614,532	-153,322	-0,203	-0,010
-613,517	-0,166	-0,158	0,083
-612,503	-200,000	0,032	0,140
-611,488	407,228	-0,042	0,066
-610,474	-19,702	-0,064	-0,029
-609,459	22,426	0,070	0,042
-608,444	-134,078	0,070	0,006
-607,430	140,552	0,074	-0,072
-606,415	373,940	0,035	0,053
-605,401	800,000	-0,008	-0,017
-604,386	-85,449	0,022	0,005
-603,371	-200,000	0,018	-0,085
-602,357	-140,273	-0,023	-0,002
-601,342	-42,059	-0,153	-0,058
-600,328	-200,000	0,018	0,072
-599,313	-30,919	-0,096	-0,040
-598,298	568,768	0,029	-0,052
-597,284	169,520	0,099	-0,104
-596,269	-200,000	0,001	0,041
-595,255	-200,000	-0,023	0,117
-594,240	-111,320	-0,071	0,011
-593,225	-42,153	0,060	0,023
-592,211	-30,513	-0,035	0,014
-591,196	125,506	0,044	0,041
-590,182	30,219	-0,112	0,071
-589,167	35,086	0,052	0,033
-588,152	195,894	0,030	0,034
-587,138	-200,000	-0,008	-0,081
-586,123	-200,000	0,057	0,000
-585,109	256,784	-0,058	0,073
-584,094	800,000	0,028	-0,086
-583,079	25,931	-0,087	-0,054
-582,065	45,388	0,050	-0,034
-581,050	-200,000	0,043	0,143
-580,036	373,882	-0,081	0,122
-579,021	59,721	0,112	0,082
-578,006	-137,133	0,063	0,005
-576,992	259,680	-0,049	0,063
-575,977	518,055	-0,097	-0,169
-574,963	-78,947	0,078	0,019
-573,948	-47,722	-0,022	-0,008
-572,934	-31,013	0,145	-0,060
-571,919	66,694	-0,073	-0,055
-570,904	-33,021	-0,165	-0,068
-569,890	800,000	0,019	0,050
-568,875	-37,351	0,148	0,058
-567,861	-94,410	-0,165	0,033
-566,846	800,000	-0,005	0,013
-565,831	81,000	-0,088	-0,070
-564,817	27,368	0,103	0,064
-563,802	480,115	-0,089	0,150
-562,788	-82,781	-0,077	0,018
-561,773	82,405	-0,093	-0,074
-560,758	800,000	0,039	0,099
-559,744	-93,216	0,049	-0,010
-558,729	-131,240	0,109	-0,011
-557,715	-200,000	0,006	-0,077
-556,700	19,434	-0,083	0,049
-555,685	113,752	-0,037	0,033
-554,671	-200,000	0,001	-0,024
-553,656	800,000	0,029	-0,081
-552,642	-200,000	-0,000	-0,082
-551,627	-200,000	0,010	0,037
-550,612	259,412	-0,060	-0,076
-549,598	-47,245	-0,051	-0,018
-548,583	-108,413	-0,117	0,018
-547,569	-54,593	0,110	0,037
-546,554	145,209	-0,042	0,042
-545,539	379,462	0,053	0,080
-544,525	731,567	-0,035	0,069
-543,510	10,000	-0,013	0,007
-542,496	-26,230	-0,200	-0,086
-541,481	-200,000	-0,004	-0,019
-540,466	132,918	0,161	0,154
-539,452	374,415	0,091	0,137
-538,437	-200,000	0,007	0,061
-537,423	104,874	0,149	-0,129
-536,408	-49,053	-0,109	-0,038
-535,393	-200,000	-0,007	-0,081
-534,379	800,000	-0,050	0,150
-533,364	800,000	0,042	-0,105
-532,350	152,068	0,071	-0,072
-531,335	515,331	-0,080	0,138
-530,321	-200,000	0,012	0,053
-529,306	249,860	-0,022	-0,028
-528,291	-56,882	-0,106	-0,034
-527,277	383,651	0,105	0,161
-526,262	175,035	-0,034	-0,036
-525,248	-107,993	0,055	0,009
-524,233	26,465	0,036	0,022
-523,218	51,620	-0,022	0,016
-522,204	-200,000	0,038	-0,197
-521,189	311,679	-0,081	-0,113
-520,175	384,396	-0,010	0,016
-519,160	389,589	0,073	0,113
-518,145	43,886	0,070	-0,047
-517,131	-123,616	0,085	-0,010
-516,116	-21,466	-0,050	-0,022
-515,102	23,734	-0,068	-0,041
-514,087	-200,000	0,003	-0,069
-513,072	21,611	-0,132	-0,079
-512,058	800,000	-0,058	-0,127
-511,043	-105,811	-0,087	-0,014
-510,029	-200,000	-0,013	0,073
-509,014	-60,383	0,059	0,018
-507,999	800,000	-0,023	0,063
-506,985	325,889	-0,059	-0,084
-505,970	-89,954	0,114	0,024
-504,956	-53,838	-0,061	0,020
-503,941	340,006	0,066	0,095
-502,926	510,409	-0,033	-0,057
-501,912	800,000	0,018	-0,059
-500,897	225,120	0,045	-0,054
-499,883	-200,000	0,005	0,075
-498,868	14,057	0,067	-0,038
-497,853	44,323	-0,067	0,046
-496,839	800,000	-0,008	-0,026
-495,824	-113,417	0,084	0,012
-494,810	-200,000	-0,005	0,117
-493,795	-200,000	0,006	0,033
-492,781	-101,247	-0,194	-0,035
-491,766	185,950	0,062	-0,068
-490,751	-200,000	-0,002	-0,051
-489,737	35,626	0,055	0,036
-488,722	31,896	-0,089	0,056
-487,708	2,428	-0,036	-0,019
-486,693	-166,621	-0,131	0,004
-485,678	-142,877	0,074	-0,005
-484,664	-102,536	0,103	-0,018
-483,649	81,270	-0,027	0,022
-482,635	-200,000	0,006	-0,040
-481,620	-200,000	0,042	0,141
-480,605	-148,309	0,102	-0,006
-479,591	-200,000	0,013	-0,069
-478,576	-200,000	-0,026	0,098
-477,562	282,225	0,038	-0,051
-476,547	81,828	-0,067	-0,054
-475,532	65,575	-0,044	-0,033
-474,518	-200,000	0,011	0,151
-473,503	800,000	0,050	0,114
-472,489	-54,266	0,088	0,029
-471,474	-200,000	-0,026	-0,088
-470,459	-111,819	-0,180	0,027
-469,445	-200,000	-0,013	-0,146
-468,430	-200,000	0,005	-0,088
-467,416	-46,132	-0,050	0,018
-466,401	-116,857	0,060	-0,008
-465,386	-32,799	0,170	-0,069
-464,372	-90,808	0,036	-0,008
-463,357	684,766	-0,014	-0,027
-462,343	11,415	-0,061	0,035
-461,328	-200,000	0,003	-0,023
-460,313	800,000	-0,011	0,023
-459,299	800,000	0,059	0,146
-458,284	-62,336	0,088	-0,027
-457,270	374,541	-0,040	-0,061
-456,255	333,325	-0,058	-0,083
-455,241	-3,359	0,033	-0,017
-454,226	-200,000	-0,007	-0,056
-453,211	317,062	0,061	0,085
-452,197	211,012	0,077	0,089
-451,182	-200,000	0,033	-0,139
-450,168	791,111	-0,037	0,075
-449,153	590,760	-0,023	0,042
-448,138	165,205	-0,144	-0,149
-447,124	-76,567	-0,101	0,026
-446,109	-200,000	-0,021	0,179
-445,095	-101,416	0,177	0,031
-444,080	-200,000	0,004	0,127
-443,065	-200,000	0,004	0,159
-442,051	-28,917	0,036	0,015
-441,036	-38,512	-0,160	0,062
-440,022	800,000	0,040	0,111
-439,007	800,000	0,029	0,067
-437,992	54,335	0,100	0,071
-436,978	-200,000	0,015	-0,078
-435,963	29,505	0,129	-0,080
-434,949	595,688	-0,032	0,059
-433,934	172,467	-0,058	-0,061
-432,919	800,000	0,005	-0,016
-431,905	-168,946	0,086	0,002
-430,890	-28,119	-0,153	-0,065
-429,876	800,000	-0,045	0,132
-428,861	-200,000	0,009	0,098
-427,846	238,236	0,048	0,059
-426,832	-10,896	0,139	0,067
-425,817	249,796	-0,013	0,016
-424,803	-200,000	0,001	-0,058
-423,788	38,470	0,032	-0,021
-422,773	70,638	0,071	-0,054
-421,759	-114,802	-0,060	-0,008
-420,744	41,992	-0,037	-0,024
-419,730	284,847	-0,054	-0,071
-418,715	60,085	-0,047	-0,034
-417,701	65,527	0,160	0,119
-416,686	-200,000	-0,007	0,083
-415,671	-200,000	0,017	-0,064
-414,657	128,040	0,021	0,020
-413,642	-117,393	0,130	-0,017
-412,628	176,486	-0,037	-0,040
-411,613	20,091	-0,061	-0,036
-410,598	235,531	0,069	-0,084
-409,584	-21,583	-0,101	-0,045
-408,569	80,243	0,035	0,028
-407,555	-99,311	0,076	0,014
-406,540	-200,000	-0,015	-0,078
-405,525	274,578	-0,064	-0,083
-404,511	280,877	-0,062	0,082
-403,496	-148,758	0,056	0,003
-402,482	800,000	-0,036	0,113
-401,467	-72,506	0,098	0,026
-400,452	72,109	0,067	0,051
-399,438	-200,000	-0,005	0,044
-398,423	-200,000	-0,011	-0,192
-397,409	800,000	0,039	-0,108
-396,394	-149,255	-0,048	-0,003
-395,379	98,790	-0,152	-0,129
-394,365	-54,206	0,086	0,029
-393,350	383,317	0,057	0,086
-392,336	-34,935	0,099	0,040
-391,321	68,715	-0,096	0,072
-390,306	-200,000	-0,005	-0,027
-389,292	800,000	0,069	-0,144
-388,277	-200,000	0,035	-0,136
-387,263	252,530	0,074	0,093
-386,248	83,814	-0,065	-0,052
-385,233	163,497	0,120	0,124
-384,219	-65,512	-0,158	0,046
-383,204	177,731	0,041	-0,044
-382,190	-94,305	-0,093	-0,019
-381,175	37,731	0,066	0,043
-380,160	-186,392	0,152	0,002
-379,146	800,000	0,059	-0,157
-378,131	800,000	-0,059	0,138
-377,117	800,000	0,044	0,125
-376,102	-200,000	-0,015	-0,078
-375,088	800,000	0,043	-0,119
-374,073	-72,129	0,060	0,016
-373,058	-130,970	-0,084	-0,008
-372,044	-2,678	0,095	0,049
-371,029	-77,184	-0,108	-0,027
-370,015	800,000	0,055	0,132
-369,000	580,051	-0,016	-0,030
-367,985	-7,226	-0,008	-0,004
-366,971	321,722	-0,041	0,058
-365,956	167,363	-0,047	0,049
-364,942	-56,211	-0,121	-0,039
-363,927	-87,587	-0,083	-0,018
-362,912	85,240	0,113	-0,091
-361,898	320,588	-0,045	-0,063
-360,883	251,894	-0,094	-0,117
-359,869	713,496	-0,047	-0,092
-358,854	-200,000	-0,006	-0,136
-357,839	285,711	0,013	0,018
-356,825	285,260	0,005	0,007
-355,810	-160,057	0,161	-0,006
-354,796	800,000	-0,040	-0,107
-353,781	176,322	0,088	-0,094
-352,766	-107,479	-0,089	-0,014
-351,752	800,000	0,076	-0,191
-350,737	-200,000	0,109	-0,000
-349,723	-42,490	0,136	-0,051
-348,708	-200,000	0,063	0,000
-347,693	33,239	-0,126	-0,080
-346,679	145,569	0,037	0,036
-345,664	97,587	0,057	-0,048
-344,650	-60,708	0,090	-0,028
-343,635	464,255	0,098	0,161
-342,620	-200,000	-0,001	0,050
-341,606	-154,251	-0,108	-0,005
-340,591	420,978	0,071	-0,112
-339,577	-91,760	0,054	0,011
-338,562	-200,000	-0,022	0,081
-337,548	417,854	-0,063	0,099
-336,533	-113,244	0,076	0,011
-335,518	88,559	-0,082	0,067
-334,504	286,257	-0,063	0,084
-333,489	-48,852	-0,096	0,033
-332,475	257,855	0,074	-0,093
-331,460	103,965	-0,123	0,106
-330,445	800,000	-0,011	0,027
-329,431	800,000	0,059	0,143
-328,416	285,081	0,082	0,108
-327,402	-71,933	-0,010	-0,003
-326,387	-122,760	-0,072	0,008
-325,372	-200,000	-0,011	-0,052
-324,358	23,720	-0,131	-0,079
-323,343	800,000	0,086	-0,218
-322,329	800,000	0,062	0,138
-321,314	-160,518	-0,184	-0,007
-320,299	-200,000	-0,010	0,217
-319,285	208,651	0,128	0,146
-318,270	800,000	-0,055	0,128
-317,256	436,039	-0,116	0,185
-316,241	800,000	0,032	-0,091
-315,226	80,715	0,031	0,024
-314,212	179,108	-0,052	0,056
-313,197	800,000	0,037	0,096
-312,183	-9,444	-0,043	-0,021
-311,168	-200,000	-0,007	-0,086
-310,153	-44,495	0,041	0,015
-309,139	-33,247	0,098	0,040
-308,124	305,099	-0,068	0,092
-307,110	-200,000	-0,010	0,111
-306,095	-74,752	-0,123	0,032
-305,080	306,894	-0,036	-0,049
-304,066	167,000	0,077	0,080
-303,051	-77,929	0,197	-0,049
-302,037	800,000	-0,019	-0,047
-301,022	800,000	0,032	-0,083
-300,008	24,158	0,080	0,048
-298,993	227,783	0,049	0,058
-297,978	84,494	-0,004	0,004
-296,964	-29,028	0,013	0,005
-295,949	413,293	0,028	-0,044
-294,935	-107,452	-0,127	-0,020
-293,920	159,388	-0,046	0,047
-292,905	-186,540	0,037	0,000
-291,891	-188,645	-0,079	0,001
-290,876	800,000	0,049	0,099
-289,862	-200,000	-0,004	0,103
-288,847	392,530	-0,065	0,099
-287,832	-23,908	0,116	-0,051
-286,818	-200,000	0,001	-0,018
-285,803	634,143	0,032	-0,059
-284,789	-161,278	0,060	-0,002
-283,774	-136,640	0,021	-0,002
-282,759	237,564	-0,068	-0,082
-281,745	-200,000	0,012	-0,198
-280,730	-200,000	-0,004	0,032
-279,716	-39,337	-0,051	-0,020
-278,701	-200,000	0,021	0,113
-277,686	-200,000	-0,024	0,085
-276,672	351,705	-0,011	-0,016
-275,657	800,000	0,032	0,076
-274,643	194,944	0,083	-0,092
-273,628	-70,639	0,107	0,029
-272,613	-200,000	-0,003	-0,089
-271,599	65,894	-0,044	0,033
-270,584	491,630	0,072	-0,121
-269,570	800,000	0,031	-0,086
-268,555	296,575	-0,055	0,074
-267,540	245,313	-0,053	0,065
-266,526	-149,857	0,028	-0,002
-265,511	800,000	-0,046	-0,110
-264,497	165,847	-0,055	0,057
-263,482	-155,523	-0,048	-0,002
-262,467	800,000	0,008	-0,023
-261,453	-28,981	0,042	0,018
-260,438	-200,000	-0,015	-0,050
-259,424	-200,000	-0,043	-0,186
-258,409	800,000	0,053	-0,117
-257,395	5,009	0,079	0,042
-256,380	800,000	0,043	-0,095
-255,365	-200,000	0,011	-0,068
-254,351	20,162	0,035	-0,020
-253,336	298,669	0,083	0,112
-252,322	-105,717	-0,089	-0,015
-251,307	-200,000	-0,027	0,125
-250,292	-200,000	0,002	0,058
-249,278	220,737	-0,087	-0,102
-248,263	-91,027	0,182	-0,038
-247,249	742,982	0,021	0,042
-246,234	-133,900	-0,044	0,004
-245,219	-33,651	-0,087	0,035
-244,205	143,164	-0,116	0,113
-243,190	-200,000	-0,017	-0,056
-242,176	93,019	-0,128	0,105
-241,161	71,555	0,079	-0,060
-240,146	800,000	-0,016	-0,039
-239,132	-200,000	-0,005	0,039
-238,117	800,000	-0,081	-0,177
-237,103	-200,000	-0,028	-0,113
-236,088	-200,000	-0,002	-0,032
-235,073	-37,415	0,145	0,056
-234,059	-200,000	0,008	0,080
-233,044	294,215	-0,032	0,043
-232,030	151,756	-0,028	0,028
-231,015	209,651	0,010	0,011
-230,000	554,085	-0,078	-0,138
-228,986	-200,000	0,022	-0,091
-227,971	-200,000	0,006	-0,021
-226,957	-200,000	-0,019	0,211
-225,942	800,000	-0,021	-0,046
-224,927	113,673	0,057	0,050
-223,913	-64,874	-0,124	0,036
-222,898	129,103	-0,064	-0,060
-221,884	-200,000	-0,007	-0,044
-220,869	-182,471	-0,012	0,000
-219,855	-200,000	-0,006	-0,042
-218,840	-200,000	-0,023	-0,105
-217,825	800,000	-0,007	-0,018
-216,811	-50,448	0,069	-0,024
-215,796	185,472	-0,024	0,026
-214,782	800,000	0,043	-0,134
-213,767	-200,000	0,010	0,044
-212,752	-200,000	0,002	-0,029
-211,738	-48,399	0,102	0,035
-210,723	-166,549	-0,194	0,006
-209,709	-200,000	0,021	-0,192
-208,694	-147,093	-0,041	-0,003
-207,679	800,000	-0,039	-0,091
-206,665	166,395	0,086	0,089
-205,650	285,872	-0,031	0,041
-204,636	-60,997	-0,078	-0,024
-203,621	102,523	0,091	0,078
-202,606	64,894	-0,040	0,029
-201,592	-200,000	-0,015	-0,138
-200,577	108,570	-0,044	0,038
-199,563	145,347	0,036	0,035
-198,548	-14,344	-0,036	0,017
-197,533	163,828	0,057	-0,059
-196,519	-200,000	-0,001	0,020
-195,504	522,981	-0,064	-0,109
-194,490	-200,000	-0,023	-0,091
-193,475	-200,000	-0,018	-0,074
-192,460	69,956	0,052	-0,039
-191,446	443,845	0,052	0,084
-190,431	83,864	0,099	0,079
-189,417	195,751	-0,039	0,044
-188,402	216,228	-0,045	-0,052
-187,387	-50,838	-0,179	-0,061
-186,373	-7,725	-0,110	-0,054
-185,358	800,000	0,032	-0,092
-184,344	73,019	0,118	0,089
-183,329	-200,000	0,027	0,093
-182,315	-107,022	0,092	0,015
-181,300	536,952	-0,082	0,142
-180,285	800,000	0,018	0,046
-179,271	800,000	-0,016	0,034
-178,256	198,657	-0,047	-0,053
-177,242	-5,214	0,067	-0,033
-176,227	-1,168	0,039	0,020
-175,212	800,000	-0,055	0,160
-174,198	30,062	-0,097	0,060
-173,183	-0,311	0,067	-0,035
-172,169	-200,000	-0,008	0,056
-171,154	-59,397	-0,028	-0,009
-170,139	-200,000	0,098	0,000
-169,125	-76,119	-0,169	0,043
-168,110	-137,013	0,060	0,005
-167,096	312,430	0,062	-0,084
-166,081	48,487	0,024	0,017
-165,066	162,418	0,076	0,077
-164,052	513,040	0,070	-0,119
-163,037	-135,671	-0,084	-0,007
-162,023	195,727	-0,028	-0,031
-161,008	-200,000	0,004	0,051
-159,993	305,279	0,043	0,058
-158,979	354,403	0,016	0,024
-157,964	-164,475	0,032	-0,001
-156,950	130,779	-0,095	-0,088
-155,935	-200,000	0,040	-0,153
-154,920	136,654	0,052	0,049
-153,906	16,571	0,078	0,045
-152,891	372,810	-0,048	-0,071
-151,877	-2,704	0,056	0,029
-150,862	-135,636	0,099	0,008
-149,847	-39,902	-0,070	-0,026
-148,833	-102,344	0,041	-0,007
-147,818	800,000	-0,037	-0,105
-146,804	475,644	-0,067	0,110
-145,789	800,000	0,018	-0,038
-144,775	-77,005	-0,088	-0,022
-143,760	122,291	0,033	-0,030
-142,745	-200,000	0,016	0,083
-141,731	800,000	0,003	-0,007
-140,716	800,000	0,060	-0,145
-139,702	-124,825	0,193	0,021
-138,687	800,000	0,070	0,171
-137,672	-91,345	0,038	0,008
-136,658	134,348	-0,035	0,033
-135,643	128,538	-0,082	-0,076
-134,629	-200,000	0,018	0,085
-133,614	4,455	-0,110	-0,059
-132,599	461,392	0,050	0,081
-131,585	-143,473	0,202	-0,014
-130,570	800,000	0,034	-0,093
-129,556	-200,000	-0,016	-0,058
-128,541	183,797	-0,095	-0,102
-127,526	-151,753	-0,054	0,003
-126,512	247,352	-0,080	0,098
-125,497	-74,706	-0,119	0,031
-124,483	-98,062	0,072	-0,013
-123,468	800,000	-0,041	-0,094
-122,453	616,441	0,061	-0,112
-121,439	257,976	-0,121	-0,151
-120,424	-200,000	0,010	0,177
-119,410	-193,223	0,060	0,000
-118,395	67,874	0,042	0,031
-117,380	362,145	-0,018	-0,026
-116,366	147,302	-0,031	-0,030
-115,351	-200,000	-0,013	-0,067
-114,337	-200,000	0,012	-0,098
-113,322	237,363	-0,047	0,057
-112,307	-200,000	0,024	0,106
-111,293	-200,000	0,017	-0,098
-110,278	-200,000	0,019	0,132
-109,264	-106,284	-0,138	-0,022
-108,249	-52,356	-0,180	-0,060
-107,234	37,224	-0,123	-0,079
-106,220	462,521	0,001	-0,001
-105,205	123,717	0,066	0,060
-104,191	800,000	0,054	-0,119
-103,176	-133,566	0,069	-0,006
-102,162	-200,000	-0,022	0,142
-101,147	296,295	-0,055	-0,073
-100,132	-200,000	0,028	-0,137
-99,118	782,342	0,014	-0,027
-98,103	-200,000	0,016	-0,093
-97,089	-125,576	-0,046	-0,005
-96,074	-183,359	-0,013	-0,000
-95,059	-200,000	0,011	0,176
-94,045	800,000	-0,045	-0,135
-93,030	-200,000	-0,004	-0,018
-92,016	-200,000	-0,002	0,006
-91,001	800,000	0,024	-0,061
-89,986	35,263	-0,027	0,017
-88,972	-111,365	0,152	-0,022
-87,957	800,000	0,005	-0,014
-86,943	-200,000	-0,023	-0,130
-85,928	-200,000	-0,036	0,132
-84,913	-200,000	-0,001	0,008
-83,899	-63,603	0,105	0,031
-82,884	-52,152	0,111	-0,037
-81,870	233,545	0,052	0,063
-80,855	252,102	-0,077	0,095
-79,840	49,026	-0,072	-0,049
-78,826	-185,781	-0,056	0,001
-77,811	-51,309	0,052	0,018
-76,797	304,827	-0,032	0,043
-75,782	-200,000	-0,002	0,116
-74,767	-200,000	0,038	0,216
-73,753	800,000	0,047	0,098
-72,738	-200,000	-0,009	-0,094
-71,724	294,384	-0,055	-0,074
-70,709	800,000	-0,008	-0,022
-69,694	210,321	0,069	-0,078
-68,680	205,558	-0,052	0,059
-67,665	223,431	0,031	0,036
-66,651	-200,000	-0,010	0,056
-65,636	-43,823	0,155	0,056
-64,622	-59,148	-0,129	0,040
-63,607	506,669	-0,003	0,006
-62,592	-42,506	0,054	0,020
-61,578	315,871	0,100	0,137
-60,563	103,067	0,103	0,088
-59,549	-200,000	-0,013	0,116
-58,534	-160,616	-1,283	0,049
-57,519	425,049	-0,959	-1,502
-56,505	-200,000	-0,773	-4,418
-55,490	25,194	0,537	-0,323
-54,476	800,000	4,827	11,648
-53,461	-200,000	13,474	251,588
-52,446	-200,000	686,021	2261,271
-51,432	602,263	1617,954	2926,878
-50,417	121,003	1632,770	1472,199
-49,403	74,771	1287,671	981,162
-48,388	38,616	1023,286	660,165
-47,373	24,681	980,802	587,062
-46,359	23,772	970,613	577,967
-45,344	22,848	966,325	572,379
-44,330	22,792	965,020	571,402
-43,315	22,728	963,465	570,249
-42,300	22,687	962,330	569,422
-41,286	22,674	961,584	568,916
-40,271	22,655	960,605	568,253
-39,257	22,613	959,666	567,539
-38,242	22,661	958,687	567,094
-37,227	22,706	957,920	566,761
-36,213	22,626	956,892	565,872
-35,198	22,590	956,155	565,299
-34,184	22,710	955,323	565,170
-33,169	22,607	954,484	564,320
-32,154	22,661	953,613	563,957
-31,140	22,744	952,713	563,667
-30,125	22,639	952,040	562,911
-29,111	22,692	951,099	562,503
-28,096	22,700	950,559	562,186
-27,082	22,698	949,810	561,715
-26,067	22,661	949,083	561,144
-25,052	22,660	948,496	560,771
-24,038	22,646	947,712	560,240
-23,023	22,658	947,086	559,886
-22,009	22,744	946,444	559,759
-20,994	22,765	945,776	559,410
-19,979	22,737	945,159	558,933
-18,965	22,686	944,506	558,362
-17,950	22,737	943,886	558,135
-16,936	22,668	943,061	557,407
-15,921	22,629	942,457	556,904
-14,906	22,626	941,697	556,424
-13,892	22,554	940,965	555,739
-12,877	22,538	940,527	555,408
-11,863	22,585	939,878	555,152
-10,848	22,625	939,249	554,884
-9,833	22,643	939,107	554,837
-8,819	22,619	938,422	554,332
-7,804	22,575	937,536	553,650
-6,790	22,590	936,967	553,337
-5,775	22,568	936,531	552,988
-4,760	22,558	935,745	552,470
-3,746	22,556	935,113	552,072
-2,731	22,463	934,524	551,410
-1,717	22,394	933,805	550,744
-0,702	22,368	933,189	550,279
0,313	22,201	932,475	550,161
1,327	24,835	930,024	556,926
2,342	32,969	808,541	506,173
3,356	28,539	508,257	310,630
4,371	4,299	372,216	196,848
5,386	1,257	355,006	184,022
6,400	-0,268	348,882	179,003
7,415	-1,212	345,862	176,314
8,429	-1,297	344,415	175,460
9,444	-1,364	343,414	174,856
10,459	-1,437	342,690	174,385
11,473	-1,427	342,080	174,071
12,488	-1,158	341,697	174,177
13,502	-1,069	341,156	173,990
14,517	-1,218	340,701	173,568
15,531	-1,497	339,890	172,813
16,546	-1,631	339,552	172,470
17,561	-1,682	339,092	172,161
18,575	-1,534	338,745	172,141
19,590	-1,728	338,384	171,717
20,604	-1,517	338,087	171,796
21,619	-1,791	337,728	171,281
22,634	-1,571	337,230	171,268
23,648	-1,657	336,920	170,996
24,663	-1,637	336,515	170,797
25,677	-1,655	336,448	170,728
26,692	-1,659	336,019	170,490
27,707	-1,618	335,773	170,398
28,721	-1,652	335,337	170,122
29,736	-1,723	335,038	169,873
30,750	-1,481	334,735	169,983
31,765	-1,738	334,532	169,569
32,780	-1,773	334,407	169,450
33,794	-1,685	333,979	169,320
34,809	-1,564	333,629	169,265
35,823	-1,665	333,421	169,029
36,838	-1,631	333,052	168,866
37,853	-1,611	332,807	168,750
38,867	-1,721	332,610	168,510
39,882	-1,574	332,308	168,509
40,896	-1,660	331,879	168,178
41,911	-1,762	331,811	168,013
42,926	-1,642	331,266	167,859
43,940	-1,832	331,161	167,574
44,955	-1,868	330,828	167,349
45,969	-1,764	330,647	167,361
46,984	-2,097	330,460	166,874
47,999	-2,338	330,087	166,398
49,013	-2,188	329,575	166,295
50,028	-2,307	329,346	166,029
51,042	-2,231	328,974	165,914
52,057	-2,385	328,884	165,679
53,071	-2,353	328,634	165,575
54,086	-2,273	328,487	165,576
55,101	-2,261	328,146	165,403
56,115	-2,062	328,030	165,553
57,130	-1,628	327,873	165,947
58,144	-1,530	327,695	165,952
59,159	-1,441	327,382	165,879
60,174	-1,451	327,186	165,753
61,188	-1,407	326,967	165,677
62,203	-1,456	326,531	165,387
63,217	-1,464	326,436	165,315
64,232	-1,300	326,181	165,354
65,247	-1,457	326,020	165,083
66,261	-1,486	325,666	164,856
67,276	-1,642	325,270	164,467
68,290	-1,836	324,960	164,080
69,305	-2,038	324,805	163,762
70,320	-1,893	324,457	163,733
71,334	-1,732	324,327	163,833
72,349	-1,444	324,081	164,013
73,363	-1,299	324,029	164,132
74,378	-1,380	323,653	163,838
75,393	-1,391	323,349	163,657
76,407	-1,477	323,134	163,438
77,422	-1,525	322,900	163,253
78,436	-1,297	322,566	163,320
79,451	-1,506	322,485	163,035
80,466	-1,520	321,973	162,746
81,480	-1,620	321,586	162,425
82,495	-1,808	321,287	162,053
83,509	-1,763	321,194	162,042
84,524	-1,811	320,905	161,829
85,539	-1,990	320,661	161,495
86,553	-1,978	320,467	161,396
87,568	-1,850	320,253	161,414
88,582	-1,896	319,990	161,217
89,597	-1,846	319,793	161,158
90,611	-1,779	319,714	161,177
91,626	-1,661	319,489	161,178
92,641	-1,592	319,293	161,140
93,655	-1,837	318,896	160,658
94,670	-1,855	318,862	160,607
95,684	-1,683	318,360	160,527
96,699	-1,786	318,397	160,419
97,714	-1,895	318,024	160,099
98,728	-2,041	317,925	159,876
99,743	-2,021	317,372	159,606
100,757	-1,937	317,125	159,557
101,772	-1,897	316,924	159,485
102,787	-1,946	316,958	159,436
103,801	-1,944	316,831	159,360
104,816	-1,558	316,439	159,565
105,830	-1,761	316,379	159,302
106,845	-1,682	316,181	159,273
107,860	-1,565	315,751	159,169
108,874	-1,589	315,569	159,037
109,889	-1,625	315,467	158,932
110,903	-1,534	314,991	158,776
111,918	-1,705	314,685	158,423
112,933	-1,609	314,477	158,408
113,947	-1,695	314,461	158,294
114,962	-1,551	314,241	158,323
115,976	-1,435	313,937	158,280
116,991	-1,653	313,661	157,893
118,006	-1,738	313,527	157,721
119,020	-1,654	313,354	157,710
120,035	-1,603	313,342	157,744
121,049	-1,436	313,054	157,763
122,064	-1,596	312,943	157,522
123,079	-1,719	312,452	157,130
124,093	-1,856	312,322	156,905
125,108	-1,832	312,071	156,791
126,122	-2,073	311,707	156,338
127,137	-2,253	311,468	156,013
128,151	-2,081	311,251	156,072
129,166	-1,924	311,107	156,153
130,181	-1,936	310,855	156,000
131,195	-1,858	310,501	155,891
132,210	-1,724	310,417	155,976
133,224	-1,518	310,237	156,090
134,239	-1,460	310,010	156,023
135,254	-1,683	309,905	155,721
136,268	-1,729	309,648	155,529
137,283	-1,917	309,250	155,118
138,297	-2,158	308,951	154,700
139,312	-2,001	308,763	154,757
140,327	-1,760	308,649	154,940
141,341	-1,480	308,705	155,248
142,356	-1,379	308,543	155,259
143,370	-1,192	308,226	155,281
144,385	-1,178	307,875	155,105
145,400	-1,289	307,743	154,908
146,414	-1,362	307,532	154,713
147,429	-1,316	307,322	154,641
148,443	-1,329	307,133	154,518
149,458	-1,251	307,068	154,553
150,473	-1,175	306,663	154,414
151,487	-1,337	306,616	154,209
152,502	-1,444	306,403	153,976
153,516	-1,367	306,091	153,886
154,531	-1,349	305,973	153,832
155,546	-1,354	305,690	153,671
156,560	-1,554	305,596	153,402
157,575	-1,461	305,090	153,231
158,589	-1,368	304,983	153,260
159,604	-1,297	304,764	153,210
160,619	-1,347	304,510	153,016
161,633	-1,375	304,357	152,897
162,648	-1,409	304,259	152,799
163,662	-1,348	304,170	152,804
164,677	-1,287	303,820	152,677
165,692	-1,426	303,797	152,508
166,706	-1,265	303,384	152,453
167,721	-1,383	303,215	152,234
168,735	-1,377	302,935	152,085
169,750	-1,194	302,885	152,235
170,764	-1,141	302,818	152,242
171,779	-1,113	302,445	152,070
172,794	-1,051	302,410	152,102
173,808	-1,231	302,093	151,745
174,823	-1,759	301,765	151,026
175,837	-1,850	301,327	150,700
176,852	-1,364	301,438	151,240
177,867	-1,180	301,293	151,341
178,881	-1,120	301,280	151,382
179,896	-1,228	300,965	151,100
180,910	-1,126	300,749	151,082
181,925	-1,280	300,551	150,813
182,940	-1,125	300,461	150,911
183,954	-1,045	300,163	150,830
184,969	-1,224	299,976	150,541
185,983	-1,227	299,702	150,386
186,998	-1,147	299,550	150,378
188,013	-1,035	299,294	150,350
189,027	-1,265	299,222	150,067
190,042	-1,086	298,923	150,085
191,056	-0,960	298,683	150,078
192,071	-1,160	298,606	149,824
193,086	-0,932	298,482	149,979
194,100	-1,023	298,297	149,781
195,115	-0,954	297,900	149,637
196,129	-1,260	297,758	149,245
197,144	-1,139	297,538	149,243
198,159	-0,931	297,404	149,372
199,173	-0,891	297,106	149,249
200,188	-0,931	297,084	149,184
201,202	-1,135	296,535	148,690
202,217	-1,634	296,214	148,016
203,232	-1,754	296,057	147,804
204,246	-1,362	295,978	148,144
205,261	-1,105	295,850	148,325
206,275	-1,054	295,811	148,342
207,290	-0,936	295,420	148,251
208,304	-1,186	295,347	147,951
209,319	-1,102	295,224	147,961
210,334	-1,106	294,955	147,809
211,348	-1,189	294,736	147,603
212,363	-1,164	294,483	147,488
213,377	-1,110	294,440	147,507
214,392	-1,020	294,121	147,424
215,407	-1,134	293,702	147,087
216,421	-1,574	293,626	146,599
217,436	-1,458	293,495	146,636
218,450	-1,328	293,205	146,607
219,465	-1,300	293,188	146,613
220,480	-1,299	292,917	146,465
221,494	-1,142	292,774	146,536
222,509	-1,153	292,597	146,423
223,523	-1,226	292,502	146,291
224,538	-0,940	292,240	146,429
225,553	-0,860	292,140	146,444
226,567	-0,997	291,872	146,162
227,582	-0,965	291,766	146,127
228,596	-1,002	291,566	145,978
229,611	-0,954	291,579	146,019
230,626	-1,054	291,130	145,683
231,640	-1,429	290,780	145,127
232,655	-1,795	290,337	144,534
233,669	-1,760	290,230	144,502
234,684	-1,760	290,135	144,442
235,699	-1,667	289,992	144,449
236,713	-1,781	289,964	144,310
237,728	-1,553	289,840	144,459
238,742	-1,454	289,565	144,405
239,757	-1,200	289,330	144,523
240,772	-0,985	289,200	144,655
241,786	-1,210	288,952	144,299
242,801	-1,289	288,728	144,098
243,815	-1,556	288,508	143,715
244,830	-1,491	288,484	143,753
245,844	-1,340	288,041	143,667
246,859	-1,448	287,981	143,519
247,874	-1,476	287,915	143,446
248,888	-1,347	287,666	143,435
249,903	-1,010	287,610	143,720
250,917	-0,937	287,320	143,633
251,932	-0,777	287,251	143,741
252,947	-0,077	287,459	144,509
253,961	-0,116	287,218	144,337
254,976	0,699	287,597	145,303
255,990	2,409	288,040	147,170
257,005	2,854	288,153	147,645
258,020	4,084	288,312	148,903
259,034	4,191	288,222	148,947
260,049	4,036	288,139	148,740
261,063	3,981	287,716	148,456
262,078	4,191	287,610	148,591
263,093	4,775	287,686	149,180
264,107	4,779	287,626	149,139
265,122	4,734	287,427	148,980
266,136	4,948	287,159	149,033
267,151	4,946	286,861	148,863
268,166	4,887	286,635	148,676
269,180	4,700	286,461	148,393
270,195	4,751	286,411	148,403
271,209	4,793	286,139	148,289
272,224	4,644	286,055	148,089
273,239	4,408	285,878	147,759
274,253	4,480	285,595	147,668
275,268	4,895	285,498	148,001
276,282	5,099	285,246	148,052
277,297	4,567	285,191	147,503
278,312	4,876	285,070	147,722
279,326	4,912	284,721	147,562
280,341	4,852	284,587	147,423
281,355	4,685	284,301	147,102
282,370	4,461	284,058	146,750
283,384	4,545	283,883	146,727
284,399	4,653	283,597	146,668
285,414	4,638	283,501	146,592
286,428	4,478	283,392	146,370
287,443	4,312	283,211	146,106
288,457	4,271	282,860	145,874
289,472	4,242	282,660	145,730
290,487	4,118	282,594	145,566
291,501	4,274	282,316	145,557
292,516	3,939	282,060	145,096
293,530	4,012	281,967	145,104
294,545	4,400	281,844	145,394
295,560	4,480	281,716	145,390
296,574	4,178	281,413	144,936
297,589	4,448	281,282	145,110
298,603	4,862	281,243	145,466
299,618	4,793	280,981	145,253
300,633	4,453	280,938	144,898
301,647	4,407	280,705	144,723
302,662	4,434	280,585	144,672
303,676	4,458	280,179	144,473
304,691	4,150	279,946	144,052
305,706	4,081	279,671	143,833
306,720	3,996	279,589	143,698
307,735	4,125	279,365	143,691
308,749	4,122	279,260	143,621
309,764	4,294	279,198	143,737
310,779	3,994	278,910	143,297
311,793	4,101	278,578	143,213
312,808	4,102	278,424	143,122
313,822	3,934	278,397	142,939
314,837	3,856	278,252	142,779
315,852	3,936	277,938	142,680
316,866	4,025	277,755	142,655
317,881	4,017	277,658	142,585
318,895	4,099	277,365	142,498
319,910	4,133	277,066	142,363
320,925	3,759	277,015	141,979
321,939	4,009	276,880	142,128
322,954	4,130	276,919	142,247
323,968	4,065	276,671	142,047
324,983	4,262	276,511	142,134
325,997	4,478	276,219	142,170
327,012	4,414	276,052	142,012
328,027	4,542	275,915	142,047
329,041	4,290	275,670	141,676
330,056	4,304	275,595	141,638
331,070	4,176	275,362	141,389
332,085	4,042	275,243	141,192
333,100	4,199	275,032	141,214
334,114	4,178	274,797	141,062
335,129	4,103	274,670	140,917
336,143	4,312	274,447	140,979
337,158	4,467	274,480	141,127
338,173	4,563	274,310	141,114
339,187	4,160	274,070	140,610
340,202	4,224	273,953	140,595
341,216	4,171	273,775	140,444
342,231	4,141	273,550	140,288
343,246	4,137	273,473	140,232
344,260	4,204	273,213	140,148
345,275	4,336	273,062	140,177
346,289	4,678	273,073	140,481
347,304	4,615	272,711	140,226
348,319	4,273	272,506	139,798
349,333	4,126	272,444	139,620
350,348	4,486	272,321	139,871
351,362	4,486	272,146	139,769
352,377	4,319	271,845	139,450
353,392	4,459	271,795	139,539
354,406	4,374	271,728	139,416
355,421	191,181	1331,769	1408,790
356,435	154,416	1461,020	1408,923
