DTS Sentinel unit serial number:	SN410029Multiplexer serial number:	ORYXHardware model number:	OX2-SRSoftware version number:	ORYX F/W v4,00 Oryx Data Collector v3.7.2.0data status	okinstallation	B4 Nyhavnadifferential loss correction	single-endedforward channel	channel 2reverse channel	N/Adate	2023/12/19time	05:40:13forward acquisition time	300,00reverse acquisition time	0,00gamma	499,1914k internal	0,3127k external	0,3127temperature offset calibration	1,0000default loss term (dB/km)	0,3820temperature slope calibration	1,0000multiplexer offset coefficient	1,0000multiplexer slope coefficient	1,0000fibre end	0,00T internal ref (°C)	21,02T ext. ref 1 (°C)	6,24T ext. ref 2 (°C)	6,36length (m)	temperature (°C)	Stokes	anti-Stokes-744,400	292,118	0,098	-0,133
-743,385	121,184	-0,114	0,105
-742,371	289,890	0,039	0,052
-741,356	5,005	-0,123	0,067
-740,342	-117,467	0,120	0,016
-739,327	-93,992	-0,186	0,038
-738,312	130,223	0,170	-0,162
-737,298	44,249	-0,107	0,073
-736,283	68,074	-0,093	-0,070
-735,269	-61,631	-0,155	0,048
-734,254	223,458	0,142	0,171
-733,239	4,198	-0,469	-0,255
-732,225	-44,463	0,072	-0,027
-731,210	-112,685	-0,139	-0,020
-730,196	60,061	0,087	-0,064
-729,181	800,000	-0,090	-0,217
-728,167	-200,000	0,010	-0,150
-727,152	-200,000	-0,005	0,092
-726,137	-200,000	0,006	-0,043
-725,123	800,000	-0,042	-0,119
-724,108	348,473	-0,065	-0,096
-723,094	800,000	-0,048	-0,135
-722,079	800,000	-0,047	-0,127
-721,064	-120,566	0,010	0,001
-720,050	-200,000	-0,015	0,184
-719,035	153,871	0,062	-0,063
-718,021	800,000	-0,049	0,103
-717,006	800,000	-0,004	-0,010
-715,991	-200,000	-0,043	-0,189
-714,977	231,838	-0,095	-0,116
-713,962	-200,000	-0,006	-0,085
-712,948	800,000	0,018	-0,056
-711,933	-200,000	0,005	0,078
-710,918	635,591	-0,004	0,007
-709,904	-103,251	-0,079	0,014
-708,889	-146,629	-0,037	0,002
-707,875	-200,000	0,009	-0,054
-706,860	-46,544	0,029	0,010
-705,845	265,630	0,037	0,048
-704,831	-200,000	0,007	0,049
-703,816	-46,840	-0,198	-0,071
-702,802	-59,420	-0,172	-0,055
-701,787	-27,813	-0,106	0,045
-700,772	-116,151	-0,119	0,016
-699,758	228,290	0,072	-0,087
-698,743	46,180	-0,084	0,058
-697,729	800,000	0,013	0,038
-696,714	600,152	0,039	-0,073
-695,699	61,660	-0,116	-0,086
-694,685	-200,000	0,000	0,034
-693,670	21,007	-0,078	0,047
-692,656	-200,000	-0,034	0,126
-691,641	-3,654	0,011	-0,005
-690,627	-200,000	0,005	0,034
-689,612	-200,000	0,004	0,080
-688,597	12,492	-0,108	-0,062
-687,583	-200,000	-0,007	0,053
-686,568	348,824	0,014	-0,021
-685,554	89,866	-0,086	-0,072
-684,539	800,000	0,032	0,087
-683,524	4,413	-0,037	0,020
-682,510	634,716	0,042	-0,079
-681,495	-133,904	0,052	-0,005
-680,481	800,000	-0,035	-0,110
-679,466	-200,000	-0,010	-0,116
-678,451	684,817	-0,036	0,070
-677,437	171,441	-0,018	-0,019
-676,422	-200,000	0,000	-0,016
-675,408	278,323	0,061	0,082
-674,393	107,425	0,042	0,037
-673,378	-200,000	-0,047	-0,221
-672,364	-200,000	0,002	0,009
-671,349	-200,000	0,007	-0,094
-670,335	70,007	-0,024	-0,018
-669,320	-36,080	-0,046	0,018
-668,305	243,852	0,019	0,023
-667,291	-200,000	0,009	-0,205
-666,276	-200,000	-0,015	0,054
-665,262	179,421	-0,095	-0,103
-664,247	749,348	-0,064	-0,129
-663,232	-72,615	0,148	-0,040
-662,218	-58,291	-0,103	-0,033
-661,203	-27,539	-0,047	0,020
-660,189	291,027	0,096	-0,130
-659,174	17,133	-0,022	0,013
-658,159	-200,000	-0,007	-0,064
-657,145	-165,370	-0,122	-0,004
-656,130	141,445	-0,029	-0,028
-655,116	800,000	0,026	-0,064
-654,101	-200,000	-0,020	-0,091
-653,086	-200,000	-0,002	-0,020
-652,072	361,674	0,089	-0,133
-651,057	124,469	-0,014	-0,013
-650,043	-125,604	-0,075	0,008
-649,028	-200,000	0,004	-0,020
-648,014	170,406	0,034	0,036
-646,999	-76,147	0,126	-0,033
-645,984	123,341	-0,040	0,037
-644,970	-200,000	-0,005	-0,022
-643,955	-46,383	-0,128	-0,047
-642,941	261,631	-0,053	-0,068
-641,926	-166,436	-0,035	0,001
-640,911	223,585	0,020	-0,024
-639,897	-33,603	-0,053	-0,022
-638,882	-200,000	-0,019	0,063
-637,868	-4,945	-0,075	-0,038
-636,853	-56,178	-0,085	-0,028
-635,838	800,000	0,017	-0,055
-634,824	299,714	0,036	0,049
-633,809	711,896	-0,039	-0,078
-632,795	-153,171	0,178	-0,009
-631,780	444,044	0,026	0,043
-630,765	800,000	-0,012	-0,029
-629,751	-121,701	-0,062	0,008
-628,736	-33,150	-0,054	0,022
-627,722	553,790	-0,034	0,061
-626,707	-105,637	-0,044	0,007
-625,692	-200,000	0,002	0,179
-624,678	-87,965	0,099	0,022
-623,663	800,000	-0,008	0,016
-622,649	-125,654	-0,076	0,008
-621,634	-36,875	-0,068	0,027
-620,619	49,452	-0,058	0,040
-619,605	147,523	0,039	0,039
-618,590	-1,686	-0,036	-0,019
-617,576	-200,000	0,005	-0,037
-616,561	-200,000	0,004	0,023
-615,546	231,210	-0,092	-0,112
-614,532	-200,000	-0,010	-0,063
-613,517	-200,000	0,003	0,036
-612,503	-113,907	-0,096	-0,014
-611,488	276,385	0,088	0,116
-610,474	-36,452	0,041	0,016
-609,459	398,304	0,069	-0,107
-608,444	127,640	0,072	0,068
-607,430	-200,000	0,006	0,074
-606,415	-200,000	-0,008	0,150
-605,401	-2,226	-0,048	0,025
-604,386	72,037	-0,020	0,015
-603,371	-200,000	-0,016	0,093
-602,357	-24,548	-0,021	-0,009
-601,342	132,297	-0,091	-0,087
-600,328	193,274	0,055	-0,062
-599,313	3,279	-0,082	-0,044
-598,298	-127,816	-0,130	0,014
-597,284	-200,000	0,001	0,026
-596,269	0,281	0,129	-0,068
-595,255	79,400	-0,084	-0,067
-594,240	-164,711	0,030	0,001
-593,225	-200,000	-0,018	0,080
-592,211	-118,514	-0,059	0,008
-591,196	90,704	0,053	-0,044
-590,182	-21,260	0,244	0,110
-589,167	116,902	-0,086	0,078
-588,152	-200,000	0,002	0,117
-587,138	-200,000	0,011	0,139
-586,123	-200,000	-0,013	-0,102
-585,109	-57,275	-0,004	0,001
-584,094	-200,000	0,009	0,064
-583,079	194,309	-0,068	-0,076
-582,065	-200,000	0,036	0,135
-581,050	84,305	-0,071	0,058
-580,036	-50,174	0,047	0,017
-579,021	11,665	-0,056	0,032
-578,006	-200,000	0,044	0,169
-576,992	12,226	0,051	0,029
-575,977	-84,045	0,095	-0,022
-574,963	-26,824	0,089	-0,038
-573,948	134,452	-0,091	0,087
-572,934	68,662	-0,022	-0,016
-571,919	-200,000	-0,010	-0,044
-570,904	800,000	-0,034	-0,095
-569,890	-34,918	-0,028	0,011
-568,875	-89,847	0,111	-0,024
-567,861	186,833	0,031	-0,034
-566,846	800,000	-0,024	0,049
-565,831	-200,000	-0,000	-0,061
-564,817	-105,871	-0,169	0,028
-563,802	-18,711	-0,077	-0,035
-562,788	193,750	-0,059	-0,067
-561,773	130,338	0,066	0,063
-560,758	-104,560	0,119	-0,020
-559,744	119,387	-0,081	0,074
-558,729	-170,569	0,060	0,001
-557,715	40,259	-0,107	0,071
-556,700	-84,030	0,090	-0,021
-555,685	-45,143	-0,109	-0,040
-554,671	-200,000	-0,000	-0,144
-553,656	800,000	0,042	-0,113
-552,642	-10,896	0,113	0,055
-551,627	-200,000	0,024	0,091
-550,612	-68,073	-0,153	-0,044
-549,598	387,673	-0,022	0,034
-548,583	-55,794	-0,112	0,037
-547,569	188,634	-0,025	0,028
-546,554	-200,000	-0,001	0,035
-545,539	-3,889	0,093	-0,048
-544,525	526,309	-0,028	0,050
-543,510	-200,000	0,039	-0,174
-542,496	11,970	-0,198	-0,112
-541,481	800,000	0,012	-0,037
-540,466	800,000	0,036	-0,103
-539,452	-200,000	0,009	-0,109
-538,437	397,720	-0,025	0,038
-537,423	-25,508	-0,063	-0,027
-536,408	230,204	0,081	-0,098
-535,393	384,164	-0,089	-0,136
-534,379	64,133	-0,047	-0,035
-533,364	84,201	0,014	-0,011
-532,350	-200,000	-0,009	-0,093
-531,335	146,025	0,040	0,039
-530,321	155,227	0,055	0,056
-529,306	-103,950	-0,039	-0,007
-528,291	-200,000	-0,041	-0,157
-527,277	-200,000	-0,019	-0,099
-526,262	800,000	0,020	0,045
-525,248	-46,333	0,069	-0,025
-524,233	-94,499	0,100	0,020
-523,218	391,413	0,048	-0,073
-522,204	137,884	0,121	-0,117
-521,189	414,995	-0,067	-0,106
-520,175	-141,767	-0,100	0,007
-519,160	264,391	0,028	0,037
-518,145	-200,000	-0,027	0,090
-517,131	542,672	0,100	0,177
-516,116	-122,536	-0,082	-0,010
-515,102	24,634	-0,076	0,046
-514,087	-200,000	0,016	0,121
-513,072	639,357	-0,042	0,079
-512,058	-175,029	0,075	0,001
-511,043	412,902	0,071	-0,111
-510,029	605,786	-0,033	0,060
-509,014	800,000	-0,089	0,253
-507,999	-92,811	0,015	-0,003
-506,985	60,549	-0,075	0,055
-505,970	67,958	0,080	-0,060
-504,956	47,959	-0,059	0,041
-503,941	175,057	-0,098	0,105
-502,926	288,208	0,050	-0,067
-501,912	-200,000	-0,009	-0,141
-500,897	224,343	0,092	0,110
-499,883	502,475	-0,009	-0,015
-498,868	144,487	-0,050	-0,049
-497,853	-160,311	-0,017	-0,001
-496,839	346,472	-0,048	-0,070
-495,824	-200,000	0,002	0,005
-494,810	471,039	-0,030	-0,051
-493,795	-88,972	0,101	-0,022
-492,781	-200,000	-0,017	-0,067
-491,766	-200,000	0,005	-0,130
-490,751	-85,519	-0,083	-0,019
-489,737	800,000	-0,006	0,019
-488,722	-200,000	-0,001	0,068
-487,708	-200,000	-0,005	-0,016
-486,693	-200,000	0,020	0,074
-485,678	41,536	-0,046	0,031
-484,664	-12,461	-0,092	-0,044
-483,649	-60,731	-0,093	-0,029
-482,635	127,987	0,040	0,038
-481,620	54,423	-0,056	-0,040
-480,605	-200,000	0,017	-0,118
-479,591	-200,000	0,011	-0,055
-478,576	-90,081	0,019	0,004
-477,562	800,000	-0,024	-0,055
-476,547	344,522	-0,045	0,065
-475,532	289,434	-0,086	0,116
-474,518	-200,000	-0,029	0,099
-473,503	-61,290	0,158	-0,049
-472,489	314,668	0,067	-0,093
-471,474	443,360	0,030	0,048
-470,459	-84,516	-0,041	-0,010
-469,445	229,345	-0,076	-0,091
-468,430	186,778	0,111	-0,122
-467,416	60,449	-0,065	-0,048
-466,401	800,000	-0,026	-0,056
-465,386	-99,220	-0,036	0,007
-464,372	-200,000	-0,005	-0,126
-463,357	213,120	0,012	0,014
-462,343	236,037	0,038	0,047
-461,328	18,306	0,035	0,020
-460,313	800,000	-0,025	-0,075
-459,299	235,274	0,108	-0,132
-458,284	-200,000	0,012	0,071
-457,270	92,675	-0,017	-0,014
-456,255	-200,000	-0,006	-0,073
-455,241	26,719	0,066	-0,041
-454,226	78,615	0,043	-0,033
-453,211	592,961	0,055	0,101
-452,197	-200,000	0,022	-0,106
-451,182	26,879	-0,100	0,062
-450,168	331,805	0,055	0,078
-449,153	154,426	-0,110	-0,111
-448,138	800,000	-0,032	-0,097
-447,124	304,151	-0,024	-0,033
-446,109	-200,000	0,014	-0,163
-445,095	-35,807	0,206	-0,082
-444,080	-200,000	0,005	0,098
-443,065	-200,000	0,041	0,233
-442,051	521,079	0,087	-0,150
-441,036	-36,834	-0,177	-0,070
-440,022	-9,537	-0,068	0,033
-439,007	174,163	-0,027	0,029
-437,992	-200,000	-0,001	0,104
-436,978	800,000	-0,016	0,052
-435,963	43,286	-0,100	0,067
-434,949	-79,404	0,071	-0,018
-433,934	145,156	-0,063	0,062
-432,919	165,726	-0,048	-0,050
-431,905	604,020	-0,078	-0,143
-430,890	-200,000	0,005	0,045
-429,876	528,162	0,075	-0,130
-428,861	-200,000	-0,035	-0,212
-427,846	40,507	-0,097	0,064
-426,832	800,000	-0,005	0,015
-425,817	287,512	0,079	-0,106
-424,803	-45,812	0,026	-0,009
-423,788	-200,000	0,127	0,000
-422,773	38,396	0,027	-0,017
-421,759	146,158	-0,066	0,065
-420,744	256,769	-0,047	0,060
-419,730	-54,447	-0,135	0,045
-418,715	-58,375	-0,085	0,027
-417,701	-62,694	0,105	-0,032
-416,686	-55,671	0,147	-0,048
-415,671	192,800	-0,032	0,036
-414,657	800,000	0,022	-0,065
-413,642	800,000	-0,052	0,106
-412,628	-37,124	0,049	0,019
-411,613	-200,000	-0,019	-0,066
-410,598	487,256	0,012	-0,020
-409,584	-200,000	-0,024	0,163
-408,569	-100,158	-0,022	0,004
-407,555	446,720	0,064	-0,104
-406,540	31,382	-0,104	0,066
-405,525	-200,000	-0,001	0,005
-404,511	-6,644	0,057	0,028
-403,496	-118,486	-0,051	0,007
-402,482	129,922	0,059	0,055
-401,467	51,591	-0,078	-0,054
-400,452	316,174	0,115	0,159
-399,438	-58,136	-0,043	0,014
-398,423	70,141	-0,061	-0,046
-397,409	-59,079	-0,025	-0,008
-396,394	-200,000	0,039	-0,128
-395,379	-137,558	0,085	-0,007
-394,365	-200,000	0,007	0,081
-393,350	194,737	0,082	0,091
-392,336	127,207	0,031	0,029
-391,321	173,866	0,021	0,022
-390,306	-200,000	0,049	-0,195
-389,292	-122,888	-0,079	0,009
-388,277	-200,000	-0,009	-0,092
-387,263	-200,000	0,005	-0,122
-386,248	-60,833	0,110	0,034
-385,233	-200,000	0,001	0,126
-384,219	-200,000	-0,009	0,047
-383,204	-12,347	0,080	0,038
-382,190	-36,724	0,124	0,049
-381,175	236,611	-0,102	-0,125
-380,160	449,669	0,039	-0,063
-379,146	170,021	-0,098	0,103
-378,131	616,511	-0,027	-0,049
-377,117	334,885	0,041	0,058
-376,102	800,000	-0,031	0,066
-375,088	215,158	-0,116	-0,135
-374,073	-23,941	0,052	0,023
-373,058	-200,000	0,014	-0,069
-372,044	-200,000	-0,004	-0,086
-371,029	346,652	-0,019	-0,027
-370,015	681,200	-0,072	-0,138
-369,000	-146,463	0,050	-0,003
-367,985	724,292	0,026	-0,051
-366,971	-3,855	-0,058	0,030
-365,956	-68,904	0,074	0,021
-364,942	597,057	0,012	-0,022
-363,927	-62,857	0,070	0,021
-362,912	800,000	0,031	-0,092
-361,898	-200,000	-0,003	0,182
-360,883	-200,000	-0,013	0,052
-359,869	-80,118	-0,023	-0,006
-358,854	-200,000	-0,032	0,173
-357,839	-55,639	0,021	-0,007
-356,825	800,000	-0,018	0,048
-355,810	89,254	0,075	-0,061
-354,796	19,223	0,028	-0,016
-353,781	-63,204	-0,118	0,035
-352,766	106,707	0,052	0,045
-351,752	-200,000	0,014	0,071
-350,737	498,272	0,030	0,051
-349,723	-80,677	-0,078	0,019
-348,708	452,964	0,039	-0,063
-347,693	20,629	-0,105	0,062
-346,679	-102,507	-0,059	0,010
-345,664	-46,101	0,083	0,030
-344,650	-177,976	0,101	0,002
-343,635	-46,224	0,087	0,031
-342,620	-143,042	0,059	-0,004
-341,606	330,979	0,030	-0,043
-340,591	-151,755	-0,179	-0,010
-339,577	-200,000	-0,010	0,033
-338,562	800,000	-0,025	-0,069
-337,548	-80,450	0,077	-0,019
-336,533	800,000	-0,006	0,014
-335,518	800,000	0,019	0,049
-334,504	93,459	0,007	0,005
-333,489	-200,000	-0,001	0,039
-332,475	800,000	0,036	-0,110
-331,460	800,000	0,030	-0,082
-330,445	-200,000	-0,029	-0,186
-329,431	54,127	0,067	0,047
-328,416	100,409	-0,009	-0,008
-327,402	800,000	-0,052	0,109
-326,387	-93,652	-0,094	0,019
-325,372	-200,000	-0,011	0,082
-324,358	-32,317	0,172	-0,070
-323,343	365,793	0,101	0,150
-322,329	800,000	0,047	0,120
-321,314	45,559	0,046	0,031
-320,299	474,497	0,019	0,032
-319,285	215,725	-0,045	-0,052
-318,270	-200,000	0,018	-0,142
-317,256	800,000	0,016	-0,037
-316,241	500,517	-0,028	-0,047
-315,226	73,770	0,097	0,074
-314,212	800,000	0,044	0,099
-313,197	-82,010	-0,051	0,012
-312,183	800,000	-0,052	0,107
-311,168	800,000	0,041	-0,112
-310,153	-200,000	0,009	-0,054
-309,139	800,000	0,028	-0,062
-308,124	-8,649	-0,102	-0,050
-307,110	-8,779	0,070	-0,034
-306,095	91,191	0,044	0,036
-305,080	-84,830	-0,046	0,010
-304,066	293,951	-0,086	-0,115
-303,051	160,671	-0,012	-0,012
-302,037	-49,221	-0,063	0,022
-301,022	-159,719	-0,090	0,004
-300,008	-83,049	0,096	0,022
-298,993	800,000	-0,043	-0,105
-297,978	800,000	-0,030	-0,086
-296,964	765,552	0,032	-0,063
-295,949	-200,000	-0,014	0,141
-294,935	385,991	-0,056	-0,084
-293,920	-110,295	0,219	-0,033
-292,905	-200,000	-0,007	0,061
-291,891	11,703	-0,062	0,035
-290,876	33,648	0,092	0,059
-289,862	-135,507	-0,111	-0,010
-288,847	-73,344	0,007	0,002
-287,832	800,000	0,058	-0,136
-286,818	40,232	0,052	-0,034
-285,803	-200,000	-0,011	0,061
-284,789	41,065	0,091	-0,060
-283,774	800,000	-0,040	0,094
-282,759	132,400	0,073	0,069
-281,745	-87,318	-0,140	0,031
-280,730	-88,565	-0,055	0,012
-279,716	-79,881	0,029	0,007
-278,701	-200,000	-0,012	0,093
-277,686	800,000	-0,009	-0,029
-276,672	185,105	0,052	0,057
-275,657	453,129	-0,030	-0,048
-274,643	258,889	-0,046	-0,058
-273,628	-183,248	-0,044	-0,001
-272,613	-200,000	0,002	-0,034
-271,599	800,000	0,025	-0,081
-270,584	16,917	0,024	-0,014
-269,570	465,516	-0,041	0,067
-268,555	499,264	-0,030	0,051
-267,540	-200,000	0,018	-0,084
-266,526	-200,000	-0,026	-0,107
-265,511	54,634	-0,103	0,073
-264,497	228,423	0,114	0,136
-263,482	725,209	0,029	0,057
-262,467	800,000	0,071	0,187
-261,453	343,034	-0,069	0,099
-260,438	-61,429	-0,135	-0,041
-259,424	-7,360	0,120	-0,059
-258,409	50,756	-0,142	-0,098
-257,395	-76,336	0,104	0,027
-256,380	-200,000	-0,003	0,034
-255,365	334,167	0,017	0,024
-254,351	-108,699	-0,082	0,013
-253,336	800,000	0,046	-0,095
-252,322	182,388	-0,056	0,060
-251,307	469,848	0,060	0,099
-250,292	-20,590	0,084	-0,038
-249,278	-200,000	0,026	0,118
-248,263	-142,302	0,120	-0,009
-247,249	134,064	-0,056	-0,053
-246,234	-200,000	-0,008	-0,058
-245,219	297,381	0,057	-0,077
-244,205	-85,245	0,036	0,008
-243,190	-200,000	0,009	0,051
-242,176	-48,570	-0,155	0,054
-241,161	74,630	0,080	0,061
-240,146	-91,282	0,164	-0,034
-239,132	195,760	-0,061	-0,068
-238,117	-200,000	-0,015	-0,136
-237,103	-100,614	-0,054	-0,010
-236,088	-200,000	0,002	-0,034
-235,073	-14,696	-0,077	0,036
-234,059	-200,000	-0,005	0,056
-233,044	10,962	-0,148	-0,082
-232,030	-87,058	0,051	0,011
-231,015	-96,761	-0,062	-0,012
-230,000	-16,156	-0,055	0,025
-228,986	-200,000	-0,002	0,009
-227,971	-200,000	0,015	-0,062
-226,957	-200,000	0,069	0,253
-225,942	-18,096	-0,082	0,037
-224,927	167,835	-0,054	0,056
-223,913	-60,688	-0,106	-0,033
-222,898	128,980	-0,126	-0,117
-221,884	800,000	-0,037	0,082
-220,869	-200,000	0,032	-0,140
-219,855	71,183	0,072	-0,055
-218,840	800,000	-0,010	-0,028
-217,825	-96,741	0,054	0,010
-216,811	252,918	0,065	0,081
-215,796	238,195	0,033	-0,040
-214,782	69,632	-0,061	0,046
-213,767	95,089	-0,067	0,056
-212,752	61,923	0,144	0,105
-211,738	541,970	-0,029	0,051
-210,723	401,706	-0,113	0,173
-209,709	-129,883	-0,129	0,013
-208,694	800,000	-0,077	-0,163
-207,679	800,000	0,060	-0,131
-206,665	295,640	-0,036	-0,048
-205,650	800,000	0,019	-0,059
-204,636	-200,000	0,014	0,124
-203,621	-177,787	-0,064	-0,001
-202,606	-200,000	0,014	-0,071
-201,592	113,036	0,088	-0,077
-200,577	270,277	-0,030	-0,039
-199,563	148,529	0,076	0,075
-198,548	57,498	0,047	0,034
-197,533	147,418	0,057	0,056
-196,519	-139,384	0,060	0,005
-195,504	800,000	-0,045	-0,112
-194,490	-53,777	-0,118	0,039
-193,475	311,789	0,015	-0,021
-192,460	18,346	0,068	0,039
-191,446	638,455	0,070	0,131
-190,431	800,000	-0,047	0,121
-189,417	800,000	-0,030	0,089
-188,402	800,000	0,044	-0,092
-187,387	-129,138	0,041	-0,004
-186,373	-42,569	0,118	0,044
-185,358	17,065	0,066	-0,038
-184,344	127,022	0,063	0,058
-183,329	-200,000	0,002	-0,173
-182,315	800,000	0,021	-0,057
-181,300	379,471	0,014	-0,021
-180,285	-200,000	0,003	0,102
-179,271	32,331	-0,021	0,013
-178,256	-73,040	0,103	-0,027
-177,242	-138,206	-0,031	0,002
-176,227	-200,000	-0,002	0,038
-175,212	800,000	0,031	-0,068
-174,198	64,146	-0,072	0,053
-173,183	48,212	-0,079	0,053
-172,169	800,000	0,048	-0,104
-171,154	400,052	-0,054	0,083
-170,139	-78,257	0,110	0,027
-169,125	-200,000	0,005	0,129
-168,110	267,547	-0,098	0,126
-167,096	193,334	-0,026	0,028
-166,081	-78,415	0,034	-0,009
-165,066	-200,000	0,010	0,037
-164,052	800,000	0,033	-0,075
-163,037	88,314	0,115	0,093
-162,023	-28,843	0,087	-0,036
-161,008	222,840	0,065	0,077
-159,993	388,716	0,146	0,220
-158,979	-135,217	-0,159	-0,014
-157,964	-200,000	-0,026	-0,217
-156,950	-200,000	0,001	0,094
-155,935	132,689	0,055	-0,052
-154,920	-7,829	0,109	-0,053
-153,906	39,490	0,137	-0,089
-152,891	-200,000	0,005	0,143
-151,877	800,000	-0,046	0,140
-150,862	-76,168	-0,167	-0,043
-149,847	800,000	0,041	-0,126
-148,833	-108,047	0,031	0,005
-147,818	3,503	0,143	0,075
-146,804	193,924	-0,027	0,030
-145,789	-110,781	0,092	0,014
-144,775	48,710	-0,121	-0,082
-143,760	-200,000	-0,001	0,090
-142,745	48,143	0,159	0,108
-141,731	317,501	0,093	-0,128
-140,716	800,000	0,028	0,084
-139,702	-157,427	-0,070	-0,003
-138,687	800,000	0,064	0,179
-137,672	-200,000	-0,004	-0,036
-136,658	243,323	-0,039	-0,048
-135,643	-200,000	-0,056	-0,195
-134,629	800,000	-0,055	0,138
-133,614	32,444	-0,129	0,081
-132,599	-148,584	0,115	-0,007
-131,585	-200,000	0,001	-0,017
-130,570	247,150	-0,014	-0,018
-129,556	800,000	0,034	-0,097
-128,541	-200,000	0,005	0,052
-127,526	69,544	-0,038	-0,028
-126,512	300,727	0,042	0,056
-125,497	18,608	0,058	0,034
-124,483	800,000	-0,033	0,088
-123,468	344,100	-0,022	0,032
-122,453	-200,000	-0,013	0,107
-121,439	380,775	0,070	0,105
-120,424	800,000	-0,039	0,080
-119,410	-93,937	0,196	0,039
-118,395	293,772	0,052	0,069
-117,380	-200,000	0,003	0,156
-116,366	59,717	-0,079	0,057
-115,351	70,928	-0,080	0,060
-114,337	50,681	-0,112	-0,077
-113,322	-67,847	-0,075	-0,021
-112,307	-200,000	-0,003	0,064
-111,293	98,892	0,047	-0,039
-110,278	121,575	0,060	0,054
-109,264	438,404	0,068	0,109
-108,249	39,285	-0,067	-0,043
-107,234	-4,842	-0,034	-0,017
-106,220	416,277	-0,048	0,075
-105,205	-62,575	0,083	0,025
-104,191	55,637	0,179	0,126
-103,176	395,818	0,085	0,130
-102,162	-58,056	-0,022	-0,007
-101,147	-200,000	-0,012	-0,098
-100,132	800,000	-0,015	-0,032
-99,118	14,070	-0,064	0,036
-98,103	-137,253	0,074	-0,006
-97,089	559,154	-0,046	0,081
-96,074	200,697	0,087	-0,097
-95,059	-200,000	0,004	-0,110
-94,045	-67,862	0,092	-0,026
-93,030	98,692	-0,087	-0,073
-92,016	800,000	0,009	-0,025
-91,001	-20,227	-0,078	-0,035
-89,986	-200,000	0,006	0,041
-88,972	-122,017	0,145	-0,017
-87,957	-107,315	-0,220	-0,035
-86,943	53,155	-0,068	0,047
-85,928	127,921	-0,075	0,070
-84,913	-151,043	-0,104	0,006
-83,899	152,849	-0,171	0,170
-82,884	800,000	0,007	0,019
-81,870	25,642	0,092	0,056
-80,855	45,254	-0,046	-0,031
-79,840	800,000	-0,030	-0,090
-78,826	-200,000	-0,005	-0,070
-77,811	-56,162	-0,106	-0,034
-76,797	-178,567	0,152	-0,002
-75,782	11,432	0,121	-0,067
-74,767	-200,000	0,003	0,121
-73,753	-53,659	0,130	-0,043
-72,738	73,586	0,088	-0,067
-71,724	800,000	-0,054	0,155
-70,709	727,762	0,030	0,059
-69,694	-200,000	-0,027	0,120
-68,680	-102,023	0,034	0,006
-67,665	508,913	0,048	-0,081
-66,651	-200,000	-0,004	0,021
-65,636	-117,831	-0,115	0,015
-64,622	137,394	0,077	-0,073
-63,607	-86,073	-0,171	-0,038
-62,592	481,901	0,062	-0,102
-61,578	800,000	-0,028	-0,068
-60,563	-79,661	-0,016	-0,004
-59,549	-30,454	0,072	-0,029
-58,534	-121,812	-1,326	-0,157
-57,519	472,944	-0,839	-1,376
-56,505	-200,000	-0,808	-4,333
-55,490	-57,571	0,646	-0,204
-54,476	800,000	4,944	11,728
-53,461	-200,000	14,531	261,853
-52,446	-200,000	695,946	2279,219
-51,432	603,237	1622,375	2937,026
-50,417	118,690	1630,985	1459,779
-49,403	76,465	1284,285	985,507
-48,388	37,417	1022,000	655,337
-47,373	23,282	981,173	582,716
-46,359	22,434	970,600	573,636
-45,344	21,298	965,943	567,152
-44,330	21,296	964,728	566,409
-43,315	21,110	963,150	564,855
-42,300	21,034	962,204	564,030
-41,286	21,072	961,122	563,499
-40,271	21,054	960,174	562,863
-39,257	21,051	959,237	562,279
-38,242	21,050	958,393	561,758
-37,227	21,004	957,639	561,146
-36,213	20,994	956,827	560,616
-35,198	21,018	955,629	559,969
-34,184	21,087	954,997	559,799
-33,169	20,982	954,219	558,982
-32,154	21,067	953,235	558,658
-31,140	21,117	952,331	558,266
-30,125	21,067	951,565	557,635
-29,111	21,089	950,698	557,174
-28,096	21,015	950,256	556,657
-27,082	21,060	949,460	556,313
-26,067	21,111	948,406	555,837
-25,052	21,019	947,884	555,213
-24,038	21,050	947,267	554,931
-23,023	21,043	946,736	554,575
-22,009	21,177	945,789	554,427
-20,994	21,109	945,254	553,873
-19,979	21,095	944,591	553,419
-18,965	21,087	944,098	553,083
-17,950	21,038	943,538	552,574
-16,936	21,031	942,793	552,094
-15,921	21,018	942,177	551,670
-14,906	20,936	941,470	550,973
-13,892	20,929	940,800	550,537
-12,877	20,876	940,308	550,059
-11,863	20,869	939,659	549,635
-10,848	20,830	939,096	549,161
-9,833	21,032	938,628	549,505
-8,819	21,007	937,940	549,000
-7,804	21,003	937,272	548,577
-6,790	20,882	936,853	547,928
-5,775	20,952	936,141	547,710
-4,760	21,037	935,416	547,532
-3,746	20,971	935,004	547,062
-2,731	20,770	934,205	545,937
-1,717	20,728	933,514	545,381
-0,702	20,726	933,020	545,064
0,313	20,599	932,308	545,069
1,327	23,103	929,728	551,376
2,342	30,731	806,882	499,151
3,356	25,404	507,790	305,028
4,371	1,281	373,744	193,804
5,386	-1,711	357,095	181,477
6,400	-3,011	351,108	176,848
7,415	-3,689	348,318	174,612
8,429	-3,775	346,894	173,780
9,444	-3,842	346,110	173,292
10,459	-3,830	345,241	172,856
11,473	-3,736	344,685	172,674
12,488	-3,719	344,012	172,341
13,502	-3,902	343,541	171,873
14,517	-3,802	343,009	171,710
15,531	-3,894	342,585	171,374
16,546	-3,779	342,150	171,277
17,561	-3,864	341,681	170,926
18,575	-3,728	341,237	170,849
19,590	-3,861	340,845	170,482
20,604	-3,823	340,642	170,410
21,619	-3,815	340,081	170,122
22,634	-3,946	339,814	169,821
23,648	-3,650	339,224	169,857
24,663	-3,775	339,002	169,584
25,677	-3,849	338,729	169,346
26,692	-3,720	338,574	169,404
27,707	-3,815	338,255	169,119
28,721	-3,734	337,741	168,941
29,736	-3,856	337,589	168,708
30,750	-3,835	337,217	168,531
31,765	-3,733	336,963	168,508
32,780	-3,745	336,655	168,324
33,794	-3,862	336,522	168,108
34,809	-3,752	336,150	168,034
35,823	-3,874	335,913	167,760
36,838	-3,976	335,590	167,466
37,853	-3,833	335,291	167,466
38,867	-3,765	334,978	167,373
39,882	-3,803	334,707	167,180
40,896	-3,852	334,445	166,977
41,911	-3,869	334,327	166,884
42,926	-3,870	333,998	166,704
43,940	-3,743	333,533	166,603
44,955	-3,732	333,310	166,489
45,969	-3,723	332,984	166,322
46,984	-3,789	332,888	166,183
47,999	-3,836	332,717	166,030
49,013	-3,793	332,449	165,930
50,028	-3,826	332,143	165,725
51,042	-3,613	331,764	165,763
52,057	-3,730	331,568	165,517
53,071	-3,891	331,277	165,174
54,086	-3,597	330,901	165,306
55,101	-3,695	330,883	165,172
56,115	-3,831	330,569	164,846
57,130	-3,704	330,274	164,827
58,144	-3,800	330,053	164,593
59,159	-3,904	329,761	164,316
60,174	-3,878	329,439	164,170
61,188	-3,767	329,156	164,140
62,203	-3,756	328,943	164,032
63,217	-3,718	328,700	163,939
64,232	-3,739	328,386	163,743
65,247	-3,601	328,180	163,781
66,261	-3,726	327,835	163,454
67,276	-3,845	327,582	163,180
68,290	-3,835	327,445	163,108
69,305	-3,847	327,321	163,019
70,320	-3,767	326,896	162,882
71,334	-3,619	326,925	163,048
72,349	-3,690	326,344	162,664
73,363	-3,724	326,087	162,484
74,378	-3,718	325,749	162,307
75,393	-3,742	325,621	162,202
76,407	-3,696	325,434	162,146
77,422	-3,761	325,025	161,856
78,436	-3,667	324,855	161,860
79,451	-3,691	324,642	161,713
80,466	-3,808	324,238	161,368
81,480	-3,900	324,040	161,153
82,495	-3,758	323,802	161,178
83,509	-3,701	323,554	161,103
84,524	-3,722	323,458	161,017
85,539	-3,721	323,119	160,835
86,553	-3,629	322,794	160,761
87,568	-3,696	322,634	160,593
88,582	-3,786	322,470	160,398
89,597	-3,902	322,213	160,128
90,611	-3,779	321,903	160,095
91,626	-3,793	321,837	160,032
92,641	-3,700	321,500	159,953
93,655	-3,604	321,130	159,860
94,670	-3,667	320,881	159,652
95,684	-3,986	320,900	159,297
96,699	-3,853	320,659	159,310
97,714	-3,658	320,302	159,331
98,728	-3,694	319,917	159,086
99,743	-3,715	319,762	158,972
100,757	-3,776	319,555	158,789
101,772	-3,743	319,314	158,690
102,787	-3,733	319,028	158,545
103,801	-3,609	318,846	158,576
104,816	-3,853	318,760	158,253
105,830	-3,694	318,407	158,237
106,845	-3,681	318,172	158,120
107,860	-3,666	317,761	157,918
108,874	-3,844	317,756	157,708
109,889	-3,673	317,294	157,650
110,903	-3,758	317,177	157,485
111,918	-3,767	316,970	157,359
112,933	-3,669	316,786	157,360
113,947	-3,664	316,591	157,254
114,962	-3,697	316,210	157,015
115,976	-3,591	315,952	156,988
116,991	-3,688	315,830	156,808
118,006	-3,787	315,684	156,616
119,020	-3,636	315,415	156,631
120,035	-3,720	315,286	156,462
121,049	-3,668	315,108	156,416
122,064	-3,750	314,863	156,192
123,079	-3,796	314,561	155,979
124,093	-3,516	314,275	156,124
125,108	-3,751	313,975	155,709
126,122	-3,611	313,793	155,755
127,137	-3,765	313,675	155,517
128,151	-3,716	313,440	155,440
129,166	-3,705	313,293	155,364
130,181	-3,694	312,968	155,201
131,195	-3,741	312,787	155,048
132,210	-3,905	312,453	154,693
133,224	-3,837	312,258	154,655
134,239	-3,772	312,073	154,619
135,254	-3,710	311,898	154,584
136,268	-3,612	311,540	154,497
137,283	-3,647	311,448	154,400
138,297	-3,674	311,126	154,199
139,312	-3,617	310,890	154,128
140,327	-3,487	310,508	154,062
141,341	-3,494	310,465	154,020
142,356	-3,492	310,177	153,866
143,370	-3,601	309,998	153,648
144,385	-3,463	309,709	153,636
145,400	-3,738	309,763	153,360
146,414	-3,773	309,350	153,104
147,429	-3,710	309,098	153,033
148,443	-3,674	308,961	152,989
149,458	-3,734	308,697	152,781
150,473	-3,700	308,520	152,716
151,487	-3,913	308,401	152,419
152,502	-3,620	308,130	152,580
153,516	-3,756	307,867	152,294
154,531	-3,663	307,633	152,261
155,546	-3,591	307,412	152,214
156,560	-3,772	307,248	151,930
157,575	-3,664	306,937	151,875
158,589	-3,708	306,750	151,723
159,604	-3,568	306,402	151,683
160,619	-3,673	306,363	151,542
161,633	-3,639	306,127	151,447
162,648	-3,573	305,993	151,435
163,662	-3,513	305,594	151,287
164,677	-3,591	305,603	151,197
165,692	-3,590	305,287	151,028
166,706	-3,587	305,081	150,915
167,721	-3,586	304,853	150,791
168,735	-3,622	304,680	150,654
169,750	-3,667	304,620	150,565
170,764	-3,613	304,350	150,474
171,779	-3,524	304,204	150,479
172,794	-3,766	303,932	150,081
173,808	-3,701	303,742	150,042
174,823	-3,499	303,465	150,100
175,837	-3,691	303,367	149,840
176,852	-3,611	303,108	149,781
177,867	-3,643	302,965	149,664
178,881	-3,636	302,795	149,574
179,896	-3,501	302,489	149,548
180,910	-3,742	302,356	149,222
181,925	-3,582	302,048	149,220
182,940	-3,639	301,985	149,117
183,954	-3,497	301,608	149,063
184,969	-3,559	301,509	148,938
185,983	-3,762	301,335	148,631
186,998	-3,502	301,155	148,795
188,013	-3,485	300,790	148,618
189,027	-3,374	300,651	148,650
190,042	-3,512	300,409	148,376
191,056	-3,506	300,152	148,242
192,071	-3,584	300,071	148,109
193,086	-3,658	299,819	147,897
194,100	-3,459	299,400	147,879
195,115	-3,525	299,409	147,803
196,129	-3,512	299,227	147,714
197,144	-3,462	298,898	147,588
198,159	-3,580	298,655	147,336
199,173	-3,575	298,532	147,267
200,188	-3,616	298,453	147,174
201,202	-3,658	298,196	146,991
202,217	-3,645	297,849	146,820
203,232	-3,563	297,768	146,850
204,246	-3,460	297,515	146,816
205,261	-3,630	297,235	146,493
206,275	-3,618	297,140	146,445
207,290	-3,545	296,824	146,351
208,304	-3,609	296,760	146,241
209,319	-3,464	296,475	146,233
210,334	-3,423	296,443	146,246
211,348	-3,433	296,098	146,052
212,363	-3,573	295,923	145,812
213,377	-3,525	295,772	145,774
214,392	-3,507	295,463	145,626
215,407	-3,572	295,248	145,442
216,421	-3,622	295,116	145,314
217,436	-3,544	294,904	145,274
218,450	-3,708	294,613	144,955
219,465	-3,664	294,518	144,939
220,480	-3,589	294,256	144,872
221,494	-3,511	294,210	144,914
222,509	-3,560	293,964	144,730
223,523	-3,666	293,758	144,511
224,538	-3,612	293,583	144,466
225,553	-3,533	293,277	144,381
226,567	-3,677	293,269	144,221
227,582	-3,509	292,978	144,232
228,596	-3,480	292,888	144,204
229,611	-3,582	292,679	143,987
230,626	-3,496	292,497	143,969
231,640	-3,526	292,230	143,796
232,655	-3,481	291,935	143,682
233,669	-3,523	291,825	143,574
234,684	-3,613	291,650	143,385
235,699	-3,359	291,426	143,513
236,713	-3,656	291,375	143,183
237,728	-3,317	291,002	143,320
238,742	-3,541	290,976	143,074
239,757	-3,674	290,712	142,802
240,772	-3,563	290,445	142,766
241,786	-3,526	290,237	142,687
242,801	-3,645	290,147	142,514
243,815	-3,534	290,001	142,539
244,830	-3,502	289,748	142,432
245,844	-3,643	289,580	142,200
246,859	-3,592	289,325	142,111
247,874	-3,370	289,135	142,222
248,888	-3,632	288,975	141,875
249,903	-3,579	288,792	141,824
250,917	-3,452	288,634	141,857
251,932	-3,465	288,445	141,739
252,947	-3,352	288,090	141,662
253,961	-3,636	287,942	141,301
254,976	-3,368	288,031	141,592
255,990	-3,225	287,695	141,554
257,005	-2,608	287,835	142,208
258,020	-0,742	288,444	144,308
259,034	0,154	288,782	145,335
260,049	0,845	288,705	145,954
261,063	1,350	288,590	146,373
262,078	1,468	288,732	146,546
263,093	1,790	288,651	146,804
264,107	2,211	288,454	147,099
265,122	2,393	288,349	147,208
266,136	2,344	288,167	147,055
267,151	2,287	287,917	146,859
268,166	2,431	287,836	146,943
269,180	2,418	287,726	146,862
270,195	2,463	287,491	146,772
271,209	2,332	287,418	146,596
272,224	2,184	287,186	146,321
273,239	2,302	286,952	146,303
274,253	2,177	286,775	146,079
275,268	2,276	286,477	146,009
276,282	2,140	286,373	145,813
277,297	2,252	286,151	145,794
278,312	2,271	285,834	145,638
279,326	2,344	285,832	145,694
280,341	2,112	285,639	145,360
281,355	2,310	285,334	145,382
282,370	2,191	285,104	145,137
283,384	2,164	285,033	145,063
284,399	2,194	284,756	144,938
285,414	2,091	284,607	144,751
286,428	2,155	284,348	144,667
287,443	2,293	284,126	144,673
288,457	2,142	283,964	144,433
289,472	2,099	283,798	144,296
290,487	2,034	283,545	144,092
291,501	2,109	283,359	144,056
292,516	2,015	283,155	143,850
293,530	1,980	283,159	143,806
294,545	2,010	283,067	143,775
295,560	1,928	282,709	143,503
296,574	2,150	282,491	143,589
297,589	1,930	282,372	143,308
298,603	1,988	282,167	143,246
299,618	2,021	281,994	143,177
300,633	1,895	281,946	143,021
301,647	2,107	281,677	143,071
302,662	2,236	281,509	143,095
303,676	2,186	281,161	142,858
304,691	2,119	281,110	142,756
305,706	2,183	281,088	142,793
306,720	2,236	280,834	142,700
307,735	2,244	280,626	142,590
308,749	2,186	280,422	142,419
309,764	2,252	280,215	142,363
310,779	2,203	280,018	142,204
311,793	2,279	279,766	142,135
312,808	2,332	279,442	142,007
313,822	2,209	279,406	141,861
314,837	2,140	279,336	141,748
315,852	2,143	279,162	141,650
316,866	2,299	278,976	141,689
317,881	2,075	278,833	141,395
318,895	2,140	278,515	141,282
319,910	2,197	278,276	141,200
320,925	2,232	278,136	141,150
321,939	2,238	278,102	141,125
322,954	2,115	277,943	140,918
323,968	2,329	277,636	140,948
324,983	2,291	277,541	140,852
325,997	2,307	277,354	140,759
327,012	2,200	277,181	140,559
328,027	2,280	276,988	140,523
329,041	2,357	276,817	140,495
330,056	2,322	276,758	140,421
331,070	2,279	276,511	140,243
332,085	2,472	276,247	140,274
333,100	2,385	276,006	140,060
334,114	2,129	275,810	139,712
335,129	2,344	275,635	139,808
336,143	2,317	275,529	139,717
337,158	2,282	275,466	139,641
338,173	2,429	275,090	139,573
339,187	2,451	274,950	139,510
340,202	2,295	274,779	139,267
341,216	2,302	274,686	139,214
342,231	2,358	274,577	139,198
343,246	2,270	274,315	138,972
344,260	2,318	274,164	138,927
345,275	2,337	273,978	138,837
346,289	2,516	273,780	138,888
347,304	2,507	273,640	138,796
348,319	2,372	273,494	138,587
349,333	2,296	273,386	138,451
350,348	2,398	273,181	138,428
351,362	2,227	273,060	138,198
352,377	2,413	272,747	138,197
353,392	2,384	272,630	138,098
354,406	2,241	272,447	137,864
355,421	189,312	1348,822	1420,785
356,435	152,747	1480,047	1420,899
