DTS Sentinel unit serial number:	SN410029Multiplexer serial number:	ORYXHardware model number:	OX2-SRSoftware version number:	ORYX F/W v4,00 Oryx Data Collector v3.7.2.0data status	okinstallation	B4 Nyhavnadifferential loss correction	single-endedforward channel	channel 2reverse channel	N/Adate	2023/12/16time	02:10:13forward acquisition time	300,00reverse acquisition time	0,00gamma	499,1914k internal	0,3128k external	0,3128temperature offset calibration	1,0000default loss term (dB/km)	0,3820temperature slope calibration	1,0000multiplexer offset coefficient	1,0000multiplexer slope coefficient	1,0000fibre end	0,00T internal ref (°C)	21,93T ext. ref 1 (°C)	7,21T ext. ref 2 (°C)	7,40length (m)	temperature (°C)	Stokes	anti-Stokes-744,400	487,310	0,076	-0,130
-743,385	-59,882	-0,341	0,108
-742,371	-39,007	-0,037	0,015
-741,356	-21,974	-0,250	0,113
-740,342	-69,468	-0,119	0,034
-739,327	277,349	-0,103	0,137
-738,312	219,836	-0,065	-0,077
-737,298	-53,792	-0,155	0,052
-736,283	-200,000	-0,008	-0,036
-735,269	198,002	-0,203	0,232
-734,254	-125,349	0,113	-0,013
-733,239	-123,846	-0,435	0,050
-732,225	-60,300	0,119	0,037
-731,210	409,826	0,062	0,098
-730,196	800,000	-0,010	-0,022
-729,181	800,000	-0,056	-0,134
-728,167	800,000	0,030	0,067
-727,152	42,629	-0,060	-0,040
-726,137	-200,000	-0,039	-0,156
-725,123	55,067	-0,114	-0,082
-724,108	7,328	-0,108	-0,060
-723,094	246,208	0,076	-0,095
-722,079	131,584	-0,076	-0,073
-721,064	-100,353	-0,165	-0,030
-720,050	123,102	0,016	-0,015
-719,035	161,780	-0,011	-0,012
-718,021	-200,000	-0,003	0,061
-717,006	-70,031	-0,071	-0,020
-715,991	-124,761	-0,104	-0,012
-714,977	-73,940	0,054	0,015
-713,962	-200,000	-0,041	0,140
-712,948	154,295	-0,028	-0,028
-711,933	-45,145	0,077	0,028
-710,918	-200,000	0,032	-0,164
-709,904	-200,000	-0,023	-0,147
-708,889	488,939	0,055	0,093
-707,875	67,856	-0,117	-0,089
-706,860	-200,000	-0,003	-0,117
-705,845	236,383	-0,023	0,029
-704,831	187,329	-0,071	-0,079
-703,816	33,662	-0,159	0,102
-702,802	-7,622	-0,082	-0,041
-701,787	800,000	0,011	0,023
-700,772	-200,000	-0,017	-0,059
-699,758	-90,713	-0,112	0,024
-698,743	107,656	0,079	0,070
-697,729	-200,000	-0,013	0,098
-696,714	-12,800	-0,160	-0,077
-695,699	-200,000	-0,013	0,165
-694,685	517,463	0,083	-0,144
-693,670	-26,329	0,117	-0,051
-692,656	800,000	-0,043	0,108
-691,641	228,356	-0,040	-0,049
-690,627	149,210	-0,096	0,097
-689,612	-144,366	0,107	-0,007
-688,597	126,883	-0,044	-0,041
-687,583	-98,869	-0,048	-0,009
-686,568	60,962	0,080	-0,059
-685,554	214,703	-0,089	-0,104
-684,539	-63,357	0,072	-0,022
-683,524	-200,000	-0,028	0,096
-682,510	229,390	0,075	0,091
-681,495	-103,286	-0,184	0,032
-680,481	-200,000	0,012	-0,056
-679,466	-44,643	0,055	0,020
-678,451	-66,504	0,027	0,008
-677,437	74,128	-0,068	-0,053
-676,422	-200,000	-0,007	-0,072
-675,408	193,240	-0,102	0,114
-674,393	-89,282	0,052	0,011
-673,378	800,000	-0,060	-0,173
-672,364	308,913	0,019	0,027
-671,349	-200,000	0,020	-0,099
-670,335	-155,361	0,045	-0,002
-669,320	-59,731	0,011	-0,004
-668,305	3,719	0,084	0,045
-667,291	-200,000	-0,019	-0,157
-666,276	-200,000	0,006	-0,053
-665,262	50,751	-0,093	-0,065
-664,247	0,534	0,108	-0,057
-663,232	-131,740	-0,100	0,010
-662,218	51,305	0,177	0,124
-661,203	-200,000	0,014	0,061
-660,189	-200,000	0,018	0,068
-659,174	-200,000	-0,038	-0,179
-658,159	41,033	-0,115	-0,077
-657,145	-19,273	-0,086	0,039
-656,130	-77,766	0,145	0,037
-655,116	24,090	0,044	-0,027
-654,101	-121,202	0,076	-0,009
-653,086	800,000	-0,013	-0,031
-652,072	-144,690	-0,131	-0,009
-651,057	-74,926	-0,134	0,035
-650,043	-37,413	-0,109	0,043
-649,028	492,304	-0,079	-0,136
-648,014	-200,000	0,017	-0,121
-646,999	473,440	-0,083	0,139
-645,984	122,485	0,068	0,063
-644,970	264,107	0,027	0,035
-643,955	-200,000	-0,021	0,083
-642,941	-200,000	-0,016	-0,156
-641,926	624,275	0,021	-0,039
-640,911	-19,873	-0,053	0,024
-639,897	94,750	0,046	0,039
-638,882	61,356	-0,108	-0,079
-637,868	216,608	-0,086	-0,101
-636,853	800,000	-0,059	-0,173
-635,838	-200,000	0,013	-0,099
-634,824	-200,000	0,003	0,039
-633,809	-65,077	0,075	0,022
-632,795	189,720	0,046	0,051
-631,780	-200,000	-0,008	0,058
-630,765	-200,000	0,028	-0,145
-629,751	24,696	-0,057	-0,035
-628,736	-40,015	-0,130	0,050
-627,722	25,808	-0,041	-0,025
-626,707	184,857	0,088	-0,097
-625,692	55,551	0,016	0,012
-624,678	188,161	-0,119	0,132
-623,663	-92,407	-0,061	0,013
-622,649	575,288	0,009	-0,017
-621,634	-150,330	0,113	-0,006
-620,619	139,050	-0,074	-0,072
-619,605	-154,492	0,083	0,004
-618,590	-7,284	0,068	0,034
-617,576	-31,054	-0,048	0,020
-616,561	-200,000	-0,017	0,092
-615,546	-119,469	-0,166	-0,021
-614,532	476,707	-0,023	-0,038
-613,517	39,560	-0,081	0,054
-612,503	-200,000	0,031	0,119
-611,488	-200,000	0,035	0,141
-610,474	-178,328	-0,022	-0,000
-609,459	404,793	0,028	0,044
-608,444	269,850	-0,067	-0,087
-607,430	800,000	0,058	-0,130
-606,415	-143,518	-0,097	-0,007
-605,401	800,000	0,012	0,030
-604,386	-22,187	0,081	0,036
-603,371	-200,000	0,010	0,079
-602,357	325,923	0,072	0,102
-601,342	-6,533	0,033	-0,017
-600,328	254,285	-0,033	-0,042
-599,313	-95,056	-0,096	0,019
-598,298	-70,800	0,114	0,032
-597,284	-166,489	-0,016	-0,000
-596,269	-200,000	0,012	-0,123
-595,255	19,476	0,107	0,064
-594,240	188,796	0,020	-0,022
-593,225	-96,155	-0,086	0,017
-592,211	800,000	0,044	-0,092
-591,196	120,919	0,091	-0,084
-590,182	-145,115	0,084	-0,006
-589,167	231,067	-0,039	-0,047
-588,152	800,000	-0,022	0,050
-587,138	63,789	-0,068	0,050
-586,123	-200,000	-0,010	0,098
-585,109	-9,530	-0,026	-0,013
-584,094	-137,440	0,137	0,011
-583,079	-65,518	-0,073	0,022
-582,065	-4,960	-0,098	0,050
-581,050	737,942	-0,060	-0,121
-580,036	-131,871	-0,080	-0,008
-579,021	432,165	0,077	-0,125
-578,006	343,910	-0,115	-0,168
-576,992	-167,548	0,035	0,001
-575,977	-125,786	0,139	0,015
-574,963	-200,000	0,024	-0,085
-573,948	-191,861	-0,162	0,001
-572,934	342,923	-0,036	0,052
-571,919	182,271	-0,140	-0,152
-570,904	231,619	-0,110	-0,133
-569,890	-200,000	0,042	-0,150
-568,875	215,471	0,051	0,060
-567,861	5,445	0,058	0,032
-566,846	629,092	-0,089	0,166
-565,831	-140,799	0,084	-0,006
-564,817	237,051	0,040	0,049
-563,802	-75,411	-0,161	0,042
-562,788	-128,264	-0,063	0,007
-561,773	-24,546	0,091	0,040
-560,758	-9,151	-0,165	-0,081
-559,744	-155,873	0,106	-0,005
-558,729	-174,207	-0,132	-0,003
-557,715	301,191	0,072	-0,099
-556,700	45,583	0,078	-0,053
-555,685	183,992	0,028	-0,031
-554,671	49,067	0,090	-0,062
-553,656	-41,936	-0,005	0,002
-552,642	-200,000	-0,007	0,034
-551,627	-150,032	-0,012	0,001
-550,612	319,107	0,034	-0,048
-549,598	261,895	0,043	-0,056
-548,583	-200,000	-0,037	-0,163
-547,569	70,994	0,016	-0,012
-546,554	32,130	-0,035	0,022
-545,539	469,635	0,036	0,060
-544,525	-135,057	-0,088	0,008
-543,510	-138,386	-0,157	-0,013
-542,496	-126,532	0,047	-0,005
-541,481	18,703	-0,047	-0,028
-540,466	289,833	-0,014	0,019
-539,452	-3,820	-0,159	0,081
-538,437	-27,848	0,082	-0,035
-537,423	-141,068	-0,130	-0,010
-536,408	95,155	-0,070	0,059
-535,393	231,961	0,034	0,041
-534,379	75,795	-0,072	0,056
-533,364	800,000	-0,026	-0,083
-532,350	800,000	0,029	-0,062
-531,335	-200,000	-0,003	-0,020
-530,321	-124,779	0,105	0,012
-529,306	35,761	0,135	0,088
-528,291	4,782	-0,095	-0,052
-527,277	800,000	0,034	-0,100
-526,262	-200,000	-0,023	0,076
-525,248	218,633	0,045	-0,053
-524,233	215,420	0,060	0,071
-523,218	-115,388	0,028	-0,004
-522,204	170,038	0,008	-0,008
-521,189	-17,959	-0,106	-0,049
-520,175	-200,000	-0,026	-0,161
-519,160	38,220	0,088	0,057
-518,145	-200,000	-0,037	0,141
-517,131	-68,663	0,180	-0,051
-516,116	57,922	-0,066	-0,047
-515,102	-200,000	0,026	-0,093
-514,087	800,000	-0,026	-0,064
-513,072	243,174	-0,072	0,089
-512,058	-106,926	-0,100	0,016
-511,043	-114,033	0,055	-0,008
-510,029	-68,437	0,084	-0,024
-509,014	-200,000	-0,010	-0,052
-507,999	-200,000	0,019	-0,119
-506,985	13,582	0,111	-0,064
-505,970	30,312	-0,154	-0,097
-504,956	-50,807	-0,080	0,027
-503,941	94,620	-0,028	0,023
-502,926	-181,226	-0,072	0,001
-501,912	186,786	0,063	0,069
-500,897	800,000	0,053	0,111
-499,883	-200,000	0,016	0,095
-498,868	531,101	0,052	0,091
-497,853	-108,870	-0,120	-0,019
-496,839	-92,151	0,073	-0,015
-495,824	27,567	0,146	-0,090
-494,810	51,124	-0,095	-0,067
-493,795	800,000	-0,013	-0,033
-492,781	-25,891	0,078	-0,034
-491,766	-117,925	-0,106	-0,014
-490,751	-200,000	0,008	-0,180
-489,737	-167,104	0,153	-0,004
-488,722	-20,082	-0,084	0,038
-487,708	-200,000	-0,011	-0,079
-486,693	800,000	0,061	0,128
-485,678	-106,282	-0,187	-0,031
-484,664	567,994	0,049	-0,088
-483,649	157,361	-0,081	0,082
-482,635	-200,000	0,013	-0,046
-481,620	543,930	0,048	-0,084
-480,605	47,801	0,137	0,094
-479,591	-75,728	-0,092	0,024
-478,576	-66,171	0,063	0,018
-477,562	-200,000	-0,006	0,020
-476,547	57,989	-0,083	-0,060
-475,532	629,268	-0,071	-0,132
-474,518	143,098	0,153	0,150
-473,503	-200,000	0,018	-0,113
-472,489	-200,000	0,010	0,053
-471,474	-200,000	0,019	-0,090
-470,459	380,541	0,027	-0,041
-469,445	-136,358	0,095	0,008
-468,430	800,000	0,019	0,040
-467,416	75,043	0,077	-0,060
-466,401	164,561	0,013	0,013
-465,386	-200,000	0,025	0,124
-464,372	-200,000	0,020	0,144
-463,357	-89,626	0,100	-0,021
-462,343	-67,562	-0,050	-0,014
-461,328	306,916	-0,032	-0,044
-460,313	-200,000	-0,027	-0,097
-459,299	-200,000	0,029	0,099
-458,284	-200,000	-0,005	0,116
-457,270	-200,000	-0,004	0,058
-456,255	650,929	-0,024	-0,046
-455,241	-200,000	-0,003	-0,088
-454,226	-102,142	-0,122	0,021
-453,211	800,000	-0,026	-0,072
-452,197	-12,226	-0,037	-0,018
-451,182	51,506	0,113	-0,079
-450,168	91,566	-0,032	-0,026
-449,153	-85,924	-0,077	0,017
-448,138	90,493	-0,049	-0,041
-447,124	744,677	-0,051	0,101
-446,109	737,049	-0,034	-0,068
-445,095	152,297	-0,072	0,072
-444,080	-44,590	0,030	-0,011
-443,065	-180,505	0,143	-0,002
-442,051	250,018	-0,047	0,059
-441,036	166,167	0,086	-0,090
-440,022	800,000	-0,035	-0,077
-439,007	68,183	-0,008	0,006
-437,992	25,461	0,140	0,086
-436,978	800,000	-0,027	-0,080
-435,963	208,723	0,044	0,051
-434,949	-22,060	0,112	-0,050
-433,934	125,333	-0,062	0,058
-432,919	-63,221	-0,023	-0,007
-431,905	67,513	-0,081	0,061
-430,890	401,635	0,058	0,090
-429,876	-136,327	0,062	-0,005
-428,861	359,019	0,055	-0,081
-427,846	194,588	-0,024	-0,027
-426,832	800,000	0,047	0,106
-425,817	124,844	0,044	0,041
-424,803	-45,416	-0,101	0,037
-423,788	433,428	-0,104	-0,167
-422,773	143,491	0,033	0,032
-421,759	-90,742	0,075	-0,016
-420,744	-74,463	0,165	0,043
-419,730	376,795	0,068	0,102
-418,715	-79,633	-0,112	-0,028
-417,701	-200,000	-0,004	0,062
-416,686	-90,970	0,035	0,007
-415,671	62,547	0,086	0,063
-414,657	50,137	0,050	0,034
-413,642	518,048	-0,028	0,049
-412,628	82,686	-0,055	-0,044
-411,613	430,138	-0,078	-0,124
-410,598	180,216	-0,084	-0,091
-409,584	436,171	0,028	-0,044
-408,569	8,404	0,251	0,138
-407,555	-200,000	0,013	0,138
-406,540	-131,551	-0,139	-0,013
-405,525	125,370	0,052	-0,048
-404,511	-200,000	0,004	-0,168
-403,496	136,886	0,071	0,068
-402,482	-85,581	0,062	-0,014
-401,467	-64,371	0,053	-0,016
-400,452	208,155	0,119	0,137
-399,438	800,000	0,047	0,096
-398,423	-44,730	0,115	-0,042
-397,409	-121,926	-0,081	-0,010
-396,394	-44,737	-0,056	-0,020
-395,379	182,831	-0,031	-0,034
-394,365	-93,974	0,141	0,028
-393,350	-200,000	-0,023	0,114
-392,336	-200,000	-0,016	0,053
-391,321	134,612	-0,034	-0,032
-390,306	-162,464	-0,086	0,003
-389,292	21,382	-0,074	0,044
-388,277	488,194	0,036	-0,060
-387,263	800,000	-0,029	0,081
-386,248	241,333	-0,036	0,044
-385,233	-166,450	-0,038	0,001
-384,219	-35,410	0,044	-0,017
-383,204	-120,627	-0,073	0,009
-382,190	-35,769	-0,091	-0,036
-381,175	-200,000	0,005	0,128
-380,160	-108,242	0,110	0,017
-379,146	79,029	0,033	0,026
-378,131	-127,845	0,053	-0,006
-377,117	-200,000	0,017	-0,068
-376,102	115,334	0,018	0,016
-375,088	181,216	0,038	0,041
-374,073	233,662	-0,032	0,039
-373,058	-200,000	-0,004	0,054
-372,044	12,587	0,085	-0,048
-371,029	-200,000	0,087	0,000
-370,015	160,725	-0,135	0,139
-369,000	110,341	-0,070	0,061
-367,985	-200,000	-0,011	-0,174
-366,971	800,000	0,016	-0,053
-365,956	156,204	-0,047	-0,047
-364,942	73,968	-0,012	0,010
-363,927	800,000	-0,034	0,101
-362,912	800,000	0,047	0,105
-361,898	383,577	-0,001	-0,002
-360,883	279,313	-0,037	-0,048
-359,869	-200,000	0,043	-0,163
-358,854	-5,051	0,134	0,067
-357,839	71,602	0,134	0,102
-356,825	73,660	-0,052	0,040
-355,810	-12,281	-0,060	-0,029
-354,796	800,000	0,005	0,013
-353,781	-23,453	-0,033	0,014
-352,766	-200,000	-0,032	-0,228
-351,752	345,483	0,092	-0,133
-350,737	-200,000	-0,050	0,209
-349,723	1,177	0,044	0,023
-348,708	286,247	0,041	-0,054
-347,693	-200,000	-0,001	0,008
-346,679	13,256	-0,086	-0,049
-345,664	-200,000	0,005	-0,044
-344,650	656,530	0,013	-0,025
-343,635	71,466	-0,075	-0,057
-342,620	31,025	-0,031	-0,019
-341,606	-200,000	0,009	0,128
-340,591	44,639	0,024	0,016
-339,577	224,555	-0,020	0,024
-338,562	59,958	0,109	0,079
-337,548	103,129	-0,149	-0,128
-336,533	-200,000	0,000	-0,007
-335,518	800,000	-0,027	-0,076
-334,504	-13,333	-0,021	0,010
-333,489	-106,926	0,024	0,004
-332,475	-127,400	-0,051	-0,005
-331,460	800,000	0,011	0,029
-330,445	-13,377	-0,081	-0,038
-329,431	-200,000	0,000	0,102
-328,416	-141,588	0,088	-0,006
-327,402	-76,249	0,135	0,034
-326,387	-42,240	0,040	-0,015
-325,372	223,462	-0,047	-0,055
-324,358	-157,546	0,046	0,002
-323,343	-169,573	0,026	0,001
-322,329	-43,786	0,074	-0,027
-321,314	201,190	0,064	0,072
-320,299	21,469	-0,038	0,023
-319,285	0,566	0,047	0,025
-318,270	-4,161	-0,081	-0,041
-317,256	274,201	-0,066	0,085
-316,241	537,558	-0,008	-0,014
-315,226	800,000	0,027	-0,075
-314,212	800,000	0,027	-0,076
-313,197	-47,490	-0,065	0,023
-312,183	-200,000	-0,027	0,096
-311,168	-200,000	-0,007	-0,041
-310,153	668,987	0,036	0,069
-309,139	-94,135	-0,090	0,018
-308,124	40,746	0,058	0,038
-307,110	-200,000	0,003	0,070
-306,095	202,897	-0,098	0,111
-305,080	-8,083	0,021	-0,011
-304,066	-200,000	0,010	-0,121
-303,051	419,997	0,023	-0,036
-302,037	28,698	0,036	0,022
-301,022	800,000	-0,012	-0,030
-300,008	-172,599	0,060	-0,001
-298,993	-200,000	0,031	0,136
-297,978	197,205	-0,046	0,052
-296,964	-98,134	-0,089	-0,017
-295,949	248,822	-0,035	-0,044
-294,935	273,186	0,061	-0,079
-293,920	51,919	-0,155	-0,108
-292,905	619,002	0,079	0,147
-291,891	-73,019	0,120	0,032
-290,876	-167,453	-0,055	-0,002
-289,862	-200,000	0,004	-0,042
-288,847	-200,000	-0,017	0,125
-287,832	-200,000	-0,015	-0,121
-286,818	-60,940	0,054	0,017
-285,803	-200,000	0,002	-0,036
-284,789	11,029	0,044	0,025
-283,774	-200,000	-0,000	0,085
-282,759	30,105	0,065	0,040
-281,745	-200,000	0,024	-0,234
-280,730	530,487	-0,080	-0,139
-279,716	-182,365	-0,086	0,001
-278,701	187,701	0,067	-0,073
-277,686	313,257	0,040	0,055
-276,672	-29,308	-0,058	0,024
-275,657	-81,602	-0,060	0,014
-274,643	-200,000	-0,023	-0,099
-273,628	3,484	-0,126	-0,067
-272,613	-76,806	0,098	-0,025
-271,599	47,305	0,107	0,073
-270,584	-200,000	0,010	0,052
-269,570	-200,000	-0,018	0,077
-268,555	800,000	-0,010	-0,028
-267,540	-200,000	0,012	-0,049
-266,526	800,000	0,043	-0,104
-265,511	176,940	0,037	0,039
-264,497	-200,000	0,000	-0,049
-263,482	62,838	0,123	-0,090
-262,467	-200,000	-0,006	-0,044
-261,453	205,357	0,114	-0,129
-260,438	-200,000	-0,011	0,120
-259,424	-101,113	0,042	0,007
-258,409	-134,175	0,016	0,001
-257,395	-65,589	-0,155	-0,045
-256,380	349,217	-0,038	0,055
-255,365	-131,588	0,085	0,008
-254,351	-85,517	0,141	0,032
-253,336	183,662	-0,103	0,112
-252,322	-65,121	-0,092	-0,027
-251,307	39,322	-0,141	-0,092
-250,292	800,000	-0,056	0,152
-249,278	121,620	0,071	0,065
-248,263	-200,000	-0,016	0,189
-247,249	800,000	0,027	0,072
-246,234	-5,418	0,086	0,043
-245,219	800,000	0,022	-0,053
-244,205	600,121	0,064	-0,117
-243,190	800,000	-0,038	-0,101
-242,176	-18,294	-0,123	0,056
-241,161	-37,481	-0,049	0,019
-240,146	-200,000	0,016	-0,066
-239,132	-44,069	-0,044	0,016
-238,117	-7,026	0,144	0,071
-237,103	36,046	0,125	0,080
-236,088	122,414	-0,049	0,045
-235,073	-2,815	-0,058	-0,029
-234,059	-26,795	-0,037	-0,016
-233,044	281,198	-0,065	-0,085
-232,030	-200,000	-0,007	0,032
-231,015	-200,000	0,009	-0,092
-230,000	-200,000	0,054	-0,181
-228,986	91,336	-0,099	0,081
-227,971	-200,000	0,008	0,064
-226,957	-200,000	-0,019	0,072
-225,942	547,443	-0,068	0,119
-224,927	-49,886	0,055	-0,019
-223,913	106,389	-0,015	0,013
-222,898	268,799	0,065	-0,084
-221,884	-105,535	-0,054	-0,009
-220,869	-45,727	-0,171	0,061
-219,855	2,253	0,016	-0,008
-218,840	-200,000	-0,015	-0,066
-217,825	-82,109	-0,092	-0,022
-216,811	202,563	-0,015	-0,017
-215,796	800,000	-0,019	0,049
-214,782	117,849	0,072	0,065
-213,767	-131,324	-0,141	0,013
-212,752	47,828	0,078	0,053
-211,738	51,716	0,111	0,077
-210,723	-200,000	0,009	-0,034
-209,709	-200,000	0,005	-0,042
-208,694	-102,874	0,138	0,024
-207,679	429,746	0,031	0,050
-206,665	45,003	0,115	0,077
-205,650	249,699	-0,107	0,133
-204,636	460,782	0,061	0,099
-203,621	-66,744	0,037	-0,011
-202,606	126,704	-0,023	-0,022
-201,592	-200,000	-0,003	-0,081
-200,577	171,272	-0,057	-0,059
-199,563	-87,522	0,071	0,016
-198,548	481,798	0,067	0,112
-197,533	800,000	-0,038	0,087
-196,519	729,148	0,036	0,070
-195,504	135,868	0,111	0,105
-194,490	-27,852	-0,156	0,065
-193,475	34,815	0,013	0,008
-192,460	800,000	-0,036	-0,082
-191,446	169,478	-0,098	-0,102
-190,431	-106,664	-0,018	-0,003
-189,417	-200,000	-0,003	0,038
-188,402	-200,000	0,005	0,090
-187,387	-198,873	0,206	0,001
-186,373	380,424	-0,066	-0,098
-185,358	-90,896	-0,121	0,025
-184,344	-200,000	-0,019	-0,071
-183,329	800,000	-0,027	-0,055
-182,315	-82,402	0,074	0,017
-181,300	207,172	-0,104	0,118
-180,285	629,250	-0,039	0,072
-179,271	-71,198	-0,106	0,029
-178,256	32,232	0,164	0,103
-177,242	-151,749	0,112	-0,006
-176,227	350,519	0,112	0,162
-175,212	-90,911	0,032	-0,007
-174,198	262,654	-0,046	0,059
-173,183	59,877	-0,081	0,058
-172,169	-16,218	-0,118	-0,054
-171,154	200,542	0,067	-0,075
-170,139	394,477	0,034	-0,052
-169,125	-56,406	0,050	-0,016
-168,110	-78,704	-0,159	-0,039
-167,096	-200,000	0,005	-0,019
-166,081	-200,000	-0,015	-0,097
-165,066	622,035	0,053	0,098
-164,052	-200,000	0,002	0,064
-163,037	-1,506	0,086	0,044
-162,023	-123,450	0,254	-0,029
-161,008	140,687	0,015	0,014
-159,993	-41,111	-0,014	0,005
-158,979	82,169	-0,140	-0,110
-157,964	324,181	0,032	-0,045
-156,950	-33,071	-0,034	0,014
-155,935	-94,959	-0,089	0,017
-154,920	-200,000	0,004	0,039
-153,906	27,512	-0,056	-0,034
-152,891	-200,000	-0,011	0,083
-151,877	519,673	0,040	-0,069
-150,862	-145,576	0,070	-0,004
-149,847	-116,195	-0,060	-0,008
-148,833	-180,705	-0,042	-0,001
-147,818	385,133	-0,063	-0,094
-146,804	63,514	0,098	0,072
-145,789	-200,000	0,018	0,142
-144,775	71,069	0,042	-0,032
-143,760	-200,000	-0,011	-0,098
-142,745	299,637	0,089	-0,120
-141,731	-108,141	-0,140	-0,022
-140,716	429,996	0,053	-0,084
-139,702	-0,652	-0,073	-0,038
-138,687	-200,000	-0,013	0,144
-137,672	-134,034	-0,160	-0,014
-136,658	211,600	-0,114	-0,131
-135,643	107,122	-0,082	-0,071
-134,629	-200,000	0,003	-0,048
-133,614	280,650	-0,012	0,015
-132,599	-200,000	0,002	0,038
-131,585	-18,206	-0,090	0,041
-130,570	-200,000	0,017	0,057
-129,556	800,000	-0,023	-0,058
-128,541	800,000	-0,029	-0,092
-127,526	-200,000	0,029	-0,130
-126,512	-200,000	-0,004	-0,079
-125,497	-200,000	-0,027	0,091
-124,483	-155,853	0,115	0,005
-123,468	602,719	-0,064	-0,116
-122,453	-168,090	0,037	0,001
-121,439	-27,978	-0,087	-0,036
-120,424	800,000	-0,070	-0,161
-119,410	-143,807	0,046	0,003
-118,395	-200,000	0,019	0,086
-117,380	533,704	0,029	-0,051
-116,366	168,801	0,080	-0,083
-115,351	800,000	0,015	-0,036
-114,337	-164,247	-0,061	0,002
-113,322	341,371	-0,057	0,081
-112,307	-67,570	0,143	0,041
-111,293	-141,935	-0,101	-0,007
-110,278	-200,000	-0,004	-0,053
-109,264	-49,332	-0,104	-0,036
-108,249	-200,000	0,003	-0,104
-107,234	376,500	0,054	-0,080
-106,220	-200,000	-0,041	-0,135
-105,205	147,870	0,054	-0,053
-104,191	-200,000	-0,042	0,157
-103,176	-23,554	0,085	0,037
-102,162	93,118	-0,016	-0,013
-101,147	800,000	0,038	-0,117
-100,132	235,970	-0,057	-0,069
-99,118	800,000	-0,018	-0,046
-98,103	797,486	-0,030	0,060
-97,089	-68,353	-0,005	-0,001
-96,074	-200,000	-0,006	0,063
-95,059	-142,966	-0,079	-0,005
-94,045	310,717	-0,051	0,069
-93,030	190,754	0,099	-0,108
-92,016	-81,804	-0,112	-0,026
-91,001	173,661	-0,106	0,112
-89,986	-23,906	-0,115	-0,050
-88,972	0,486	0,068	0,035
-87,957	-58,142	0,046	0,015
-86,943	2,393	0,072	-0,038
-85,928	726,309	0,015	-0,029
-84,913	119,783	-0,116	0,104
-83,899	-87,921	0,133	-0,029
-82,884	367,114	-0,081	0,119
-81,870	98,995	0,118	0,099
-80,855	-41,721	0,092	-0,034
-79,840	271,327	0,067	-0,086
-78,826	800,000	-0,012	0,036
-77,811	-104,874	-0,103	-0,017
-76,797	217,660	0,087	-0,100
-75,782	-155,250	0,020	-0,001
-74,767	800,000	0,048	0,116
-73,753	-178,863	-0,157	0,003
-72,738	-176,136	0,188	0,004
-71,724	-15,685	-0,201	-0,092
-70,709	-200,000	0,014	-0,076
-69,694	800,000	-0,067	0,136
-68,680	-200,000	0,019	0,113
-67,665	-200,000	-0,018	0,101
-66,651	-123,376	-0,025	0,003
-65,636	238,823	-0,050	0,061
-64,622	67,259	-0,075	-0,056
-63,607	-200,000	-0,020	-0,095
-62,592	267,815	-0,064	0,082
-61,578	-94,403	0,202	-0,040
-60,563	193,331	-0,074	0,081
-59,549	-25,936	-0,066	-0,028
-58,534	-82,262	-1,420	-0,332
-57,519	435,596	-0,926	-1,465
-56,505	-200,000	-1,030	-4,354
-55,490	-91,108	0,671	-0,138
-54,476	800,000	4,752	11,389
-53,461	-200,000	14,079	251,431
-52,446	-200,000	693,440	2238,077
-51,432	581,164	1621,542	2891,085
-50,417	117,619	1630,239	1453,245
-49,403	73,911	1284,623	974,941
-48,388	37,711	1021,516	655,673
-47,373	23,922	979,966	583,801
-46,359	23,188	969,291	575,021
-45,344	22,186	965,075	569,234
-44,330	22,193	963,576	568,351
-43,315	22,041	962,225	567,036
-42,300	21,999	961,309	566,339
-41,286	22,022	960,234	565,759
-40,271	21,966	959,304	565,004
-39,257	21,942	958,323	564,328
-38,242	21,937	957,290	563,682
-37,227	21,873	956,711	563,111
-36,213	21,993	955,644	562,846
-35,198	21,919	954,722	562,044
-34,184	21,952	954,225	561,836
-33,169	21,949	953,243	561,226
-32,154	22,037	952,153	560,842
-31,140	21,985	951,299	560,152
-30,125	21,970	950,768	559,770
-29,111	21,939	949,796	559,074
-28,096	22,001	949,221	558,911
-27,082	21,930	948,645	558,324
-26,067	22,001	947,749	558,002
-25,052	21,920	947,048	557,308
-24,038	21,959	946,330	556,988
-23,023	21,939	945,732	556,550
-22,009	22,015	945,058	556,374
-20,994	22,014	944,440	555,984
-19,979	22,024	943,782	555,606
-18,965	21,966	943,195	555,054
-17,950	21,988	942,544	554,721
-16,936	21,981	941,875	554,282
-15,921	21,923	941,191	553,672
-14,906	21,805	940,579	552,916
-13,892	21,899	939,680	552,665
-12,877	21,913	939,062	552,323
-11,863	21,789	938,684	551,686
-10,848	21,829	938,065	551,427
-9,833	21,903	937,731	551,442
-8,819	21,886	937,087	550,990
-7,804	21,870	936,380	550,501
-6,790	21,853	935,627	549,983
-5,775	21,909	935,092	549,822
-4,760	21,911	934,515	549,469
-3,746	21,862	933,869	548,911
-2,731	21,681	933,245	547,954
-1,717	21,631	932,620	547,408
-0,702	21,634	931,935	546,994
0,313	21,471	931,252	546,907
1,327	23,974	928,868	553,300
2,342	31,733	806,802	501,537
3,356	26,997	507,408	307,351
4,371	2,838	372,575	195,085
5,386	-0,082	355,516	182,571
6,400	-1,688	349,212	177,389
7,415	-2,480	346,306	174,953
8,429	-2,656	344,831	173,983
9,444	-2,809	343,931	173,332
10,459	-2,669	343,200	173,114
11,473	-2,608	342,592	172,864
12,488	-2,425	342,160	172,845
13,502	-2,458	341,683	172,551
14,517	-2,617	341,204	172,106
15,531	-2,739	340,444	171,565
16,546	-2,741	340,033	171,341
17,561	-2,803	339,568	171,018
18,575	-2,711	339,276	170,963
19,590	-2,635	338,750	170,772
20,604	-2,644	338,588	170,665
21,619	-2,880	338,195	170,177
22,634	-2,773	337,757	170,065
23,648	-2,738	337,248	169,835
24,663	-2,793	337,151	169,706
25,677	-2,680	336,811	169,652
26,692	-2,670	336,474	169,478
27,707	-2,942	336,107	168,964
28,721	-2,821	335,872	168,971
29,736	-2,800	335,653	168,869
30,750	-2,805	335,212	168,626
31,765	-2,858	335,113	168,501
32,780	-2,780	334,661	168,348
33,794	-2,831	334,562	168,225
34,809	-2,725	334,050	168,074
35,823	-2,805	333,713	167,797
36,838	-2,784	333,400	167,649
37,853	-2,813	333,180	167,490
38,867	-2,807	332,806	167,294
39,882	-2,727	332,631	167,283
40,896	-2,800	332,403	167,070
41,911	-2,828	332,032	166,837
42,926	-2,967	331,782	166,539
43,940	-2,841	331,485	166,518
44,955	-3,041	331,262	166,163
45,969	-2,884	330,907	166,149
46,984	-3,093	330,747	165,816
47,999	-3,278	330,536	165,485
49,013	-3,317	330,072	165,194
50,028	-3,337	329,951	165,097
51,042	-3,342	329,479	164,840
52,057	-3,574	329,198	164,424
53,071	-3,352	329,001	164,560
54,086	-3,322	328,865	164,512
55,101	-3,116	328,580	164,586
56,115	-2,984	328,332	164,596
57,130	-2,799	328,388	164,818
58,144	-2,804	327,999	164,603
59,159	-2,753	327,864	164,577
60,174	-2,769	327,605	164,415
61,188	-2,605	327,373	164,468
62,203	-2,838	327,192	164,100
63,217	-2,759	326,871	164,013
64,232	-2,802	326,513	163,771
65,247	-2,550	326,293	163,928
66,261	-2,792	326,124	163,558
67,276	-2,958	325,696	163,143
68,290	-2,917	325,441	163,046
69,305	-2,883	325,196	162,947
70,320	-3,015	324,962	162,669
71,334	-2,831	324,728	162,741
72,349	-2,605	324,428	162,828
73,363	-2,535	324,312	162,832
74,378	-2,683	324,072	162,534
75,393	-2,752	323,682	162,247
76,407	-2,650	323,487	162,247
77,422	-2,665	323,298	162,122
78,436	-2,694	323,025	161,938
79,451	-2,802	322,806	161,695
80,466	-2,939	322,346	161,299
81,480	-2,899	322,107	161,210
82,495	-3,029	321,914	160,955
83,509	-2,885	321,677	160,980
84,524	-3,002	321,368	160,683
85,539	-3,145	321,067	160,361
86,553	-3,033	320,869	160,371
87,568	-2,942	320,604	160,324
88,582	-3,022	320,443	160,142
89,597	-3,018	320,282	160,051
90,611	-2,892	320,081	160,074
91,626	-2,866	319,713	159,904
92,641	-2,899	319,589	159,792
93,655	-2,770	319,186	159,717
94,670	-2,872	319,121	159,559
95,684	-2,898	318,924	159,418
96,699	-2,960	318,762	159,256
97,714	-2,845	318,298	159,134
98,728	-2,911	318,149	158,974
99,743	-2,993	317,986	158,790
100,757	-3,005	317,579	158,559
101,772	-3,085	317,409	158,373
102,787	-2,937	317,225	158,428
103,801	-3,036	317,005	158,196
104,816	-2,964	316,742	158,129
105,830	-2,915	316,616	158,104
106,845	-2,896	316,608	158,107
107,860	-2,777	316,183	158,009
108,874	-2,891	315,915	157,739
109,889	-2,820	315,489	157,588
110,903	-2,825	315,278	157,463
111,918	-2,860	315,178	157,361
112,933	-2,877	315,057	157,269
113,947	-2,729	314,666	157,218
114,962	-2,787	314,397	157,008
115,976	-2,823	314,247	156,881
116,991	-2,822	313,956	156,722
118,006	-2,786	313,749	156,643
119,020	-2,776	313,716	156,623
120,035	-2,755	313,570	156,559
121,049	-2,751	313,345	156,437
122,064	-2,618	313,077	156,432
123,079	-2,817	312,845	156,089
124,093	-2,769	312,672	156,040
125,108	-2,910	312,200	155,641
126,122	-3,229	311,976	155,176
127,137	-3,173	311,859	155,164
128,151	-3,177	311,642	155,037
129,166	-3,170	311,432	154,927
130,181	-3,115	311,213	154,862
131,195	-3,093	310,943	154,737
132,210	-2,911	310,839	154,864
133,224	-2,745	310,545	154,880
134,239	-2,889	310,363	154,623
135,254	-2,850	310,279	154,609
136,268	-2,867	309,955	154,415
137,283	-3,097	309,718	154,042
138,297	-3,031	309,277	153,878
139,312	-3,017	309,159	153,819
140,327	-2,912	308,986	153,830
141,341	-2,768	308,927	153,939
142,356	-2,428	308,702	154,170
143,370	-2,489	308,681	154,082
144,385	-2,564	308,408	153,852
145,400	-2,482	308,066	153,755
146,414	-2,513	307,783	153,567
147,429	-2,569	307,593	153,400
148,443	-2,412	307,498	153,503
149,458	-2,532	307,270	153,250
150,473	-2,613	307,038	153,036
151,487	-2,612	306,851	152,930
152,502	-2,622	306,678	152,820
153,516	-2,559	306,448	152,757
154,531	-2,512	306,197	152,668
155,546	-2,404	305,862	152,599
156,560	-2,603	305,639	152,267
157,575	-2,727	305,476	152,044
158,589	-2,681	305,259	151,971
159,604	-2,681	305,165	151,910
160,619	-2,686	304,991	151,805
161,633	-2,569	304,825	151,829
162,648	-2,540	304,561	151,714
163,662	-2,494	304,477	151,707
164,677	-2,836	304,242	151,223
165,692	-2,686	304,093	151,290
166,706	-2,525	303,754	151,274
167,721	-2,535	303,574	151,161
168,735	-2,497	303,381	151,090
169,750	-2,468	303,295	151,064
170,764	-2,512	303,149	150,933
171,779	-2,404	302,915	150,914
172,794	-2,531	302,713	150,668
173,808	-2,537	302,315	150,451
174,823	-2,903	302,044	149,928
175,837	-3,025	301,777	149,657
176,852	-2,659	301,735	149,998
177,867	-2,498	301,614	150,088
178,881	-2,473	301,305	149,947
179,896	-2,399	301,343	150,028
180,910	-2,511	301,171	149,815
181,925	-2,405	300,816	149,733
182,940	-2,384	300,535	149,602
183,954	-2,460	300,586	149,535
184,969	-2,481	300,312	149,365
185,983	-2,606	299,956	149,047
186,998	-2,386	299,714	149,137
188,013	-2,442	299,520	148,971
189,027	-2,424	299,299	148,866
190,042	-2,440	299,222	148,797
191,056	-2,367	299,131	148,813
192,071	-2,442	298,908	148,613
193,086	-2,405	298,616	148,492
194,100	-2,491	298,359	148,264
195,115	-2,410	298,167	148,237
196,129	-2,440	297,938	148,080
197,144	-2,457	297,761	147,961
198,159	-2,365	297,467	147,895
199,173	-2,296	297,370	147,903
200,188	-2,366	297,228	147,749
201,202	-2,444	296,944	147,516
202,217	-2,870	296,492	146,851
203,232	-3,004	296,318	146,617
204,246	-2,605	296,179	146,936
205,261	-2,424	296,126	147,077
206,275	-2,505	296,037	146,939
207,290	-2,356	295,594	146,855
208,304	-2,470	295,620	146,740
209,319	-2,597	295,458	146,520
210,334	-2,578	295,044	146,320
211,348	-2,518	294,898	146,295
212,363	-2,662	294,766	146,073
213,377	-2,369	294,595	146,267
214,392	-2,496	294,362	146,012
215,407	-2,872	294,134	145,512
216,421	-2,732	293,724	145,435
217,436	-2,810	293,581	145,274
218,450	-2,851	293,437	145,149
219,465	-2,726	293,346	145,215
220,480	-2,726	293,206	145,133
221,494	-2,663	293,031	145,096
222,509	-2,648	292,786	144,976
223,523	-2,473	292,557	145,023
224,538	-2,560	292,398	144,845
225,553	-2,532	292,407	144,865
226,567	-2,454	292,155	144,804
227,582	-2,398	291,917	144,728
228,596	-2,291	291,721	144,723
229,611	-2,314	291,555	144,606
230,626	-2,455	291,372	144,363
231,640	-2,750	291,029	143,890
232,655	-3,054	290,610	143,372
233,669	-3,047	290,455	143,290
234,684	-2,975	290,276	143,260
235,699	-2,906	290,268	143,310
236,713	-2,853	289,993	143,214
237,728	-2,760	289,921	143,256
238,742	-2,649	289,561	143,174
239,757	-2,666	289,517	143,123
240,772	-2,515	289,449	143,224
241,786	-2,700	289,271	142,942
242,801	-2,936	289,127	142,628
243,815	-2,625	288,788	142,751
244,830	-2,634	288,740	142,706
245,844	-2,710	288,379	142,441
246,859	-2,781	288,304	142,323
247,874	-2,745	288,078	142,233
248,888	-2,864	287,815	141,975
249,903	-2,542	287,636	142,186
250,917	-2,291	287,566	142,382
251,932	-2,245	287,522	142,393
252,947	-1,636	287,567	142,991
253,961	-2,239	287,145	142,186
254,976	-1,747	287,436	142,793
255,990	1,204	288,267	146,054
257,005	2,328	288,819	147,412
258,020	3,846	289,082	149,005
259,034	3,753	288,822	148,767
260,049	3,537	288,523	148,391
261,063	3,459	288,182	148,127
262,078	3,632	288,275	148,330
263,093	4,258	288,239	148,902
264,107	4,341	288,132	148,913
265,122	4,427	287,889	148,858
266,136	4,647	287,647	148,932
267,151	4,332	287,631	148,606
268,166	4,242	287,204	148,286
269,180	4,358	286,939	148,247
270,195	4,321	286,927	148,192
271,209	4,205	286,708	147,955
272,224	4,319	286,400	147,892
273,239	4,192	286,192	147,649
274,253	4,090	286,200	147,543
275,268	4,412	286,070	147,772
276,282	4,360	285,723	147,529
277,297	4,435	285,741	147,597
278,312	4,897	285,646	147,976
279,326	4,536	285,461	147,522
280,341	4,339	285,095	147,132
281,355	4,139	284,898	146,827
282,370	3,998	284,766	146,611
283,384	4,046	284,619	146,567
284,399	4,199	284,375	146,575
285,414	4,250	284,229	146,535
286,428	4,156	284,012	146,321
287,443	3,799	283,766	145,842
288,457	3,771	283,434	145,632
289,472	3,804	283,331	145,598
290,487	3,645	283,066	145,297
291,501	3,654	282,936	145,226
292,516	3,336	282,857	144,872
293,530	3,388	282,424	144,686
294,545	3,794	282,428	145,059
295,560	3,988	282,282	145,154
296,574	3,860	281,949	144,849
297,589	3,987	281,857	144,909
298,603	4,151	281,948	145,097
299,618	4,224	281,722	145,036
300,633	4,100	281,409	144,747
301,647	4,043	281,202	144,573
302,662	4,168	280,943	144,545
303,676	3,879	280,810	144,192
304,691	3,641	280,574	143,835
305,706	3,458	280,311	143,516
306,720	3,470	280,150	143,432
307,735	3,499	279,880	143,308
308,749	3,754	279,844	143,515
309,764	3,812	279,821	143,544
310,779	3,610	279,509	143,183
311,793	3,301	279,298	142,774
312,808	3,496	279,099	142,841
313,822	3,647	278,820	142,826
314,837	3,240	278,823	142,437
315,852	3,328	278,514	142,348
316,866	3,526	278,297	142,408
317,881	3,678	278,118	142,445
318,895	3,534	278,036	142,257
319,910	3,363	277,708	141,918
320,925	3,293	277,572	141,771
321,939	3,508	277,453	141,897
322,954	3,798	277,371	142,110
323,968	3,824	277,336	142,103
324,983	3,762	277,109	141,917
325,997	3,822	277,027	141,918
327,012	3,866	276,749	141,804
328,027	3,539	276,589	141,407
329,041	3,817	276,334	141,520
330,056	3,681	276,202	141,315
331,070	3,596	276,154	141,200
332,085	3,536	275,878	140,991
333,100	3,725	275,642	141,031
334,114	3,688	275,389	140,855
335,129	3,686	275,078	140,682
336,143	3,912	275,045	140,859
337,158	4,058	275,065	140,990
338,173	3,873	274,762	140,653
339,187	3,640	274,649	140,370
340,202	3,721	274,486	140,349
341,216	3,768	274,258	140,262
342,231	3,831	274,030	140,190
343,246	3,698	273,841	139,960
344,260	3,564	273,775	139,792
345,275	3,916	273,692	140,058
346,289	4,325	273,477	140,308
347,304	4,250	273,328	140,150
348,319	4,019	273,174	139,849
349,333	3,908	272,779	139,534
350,348	4,166	272,677	139,703
351,362	4,106	272,702	139,649
352,377	4,223	272,383	139,578
353,392	4,233	272,335	139,551
354,406	4,067	272,291	139,365
355,421	191,562	1332,101	1409,770
356,435	154,750	1461,313	1409,877
