DTS Sentinel unit serial number:	SN410029Multiplexer serial number:	ORYXHardware model number:	OX2-SRSoftware version number:	ORYX F/W v4,00 Oryx Data Collector v3.7.2.0data status	okinstallation	B4 Nyhavnadifferential loss correction	single-endedforward channel	channel 2reverse channel	N/Adate	2023/12/16time	13:45:13forward acquisition time	300,00reverse acquisition time	0,00gamma	499,1914k internal	0,3125k external	0,3125temperature offset calibration	1,0000default loss term (dB/km)	0,3820temperature slope calibration	1,0000multiplexer offset coefficient	1,0000multiplexer slope coefficient	1,0000fibre end	0,00T internal ref (°C)	25,01T ext. ref 1 (°C)	11,27T ext. ref 2 (°C)	11,47length (m)	temperature (°C)	Stokes	anti-Stokes-744,400	-84,110	0,068	0,016
-743,385	-45,034	-0,158	0,058
-742,371	-87,863	0,115	-0,026
-741,356	13,062	-0,250	0,144
-740,342	-86,981	-0,230	0,052
-739,327	628,013	-0,081	0,152
-738,312	-200,000	0,073	-0,264
-737,298	-29,497	-0,134	0,057
-736,283	-200,000	0,034	-0,205
-735,269	202,785	-0,094	0,109
-734,254	75,834	0,081	-0,064
-733,239	-200,000	-0,382	-0,001
-732,225	-131,133	0,150	-0,015
-731,210	540,802	-0,027	0,048
-730,196	800,000	-0,006	-0,018
-729,181	446,542	0,056	-0,091
-728,167	-148,506	-0,104	-0,006
-727,152	-9,801	-0,083	0,041
-726,137	85,284	-0,160	-0,130
-725,123	360,023	0,071	-0,106
-724,108	800,000	0,033	-0,107
-723,094	-62,704	-0,156	-0,048
-722,079	800,000	0,028	-0,090
-721,064	-200,000	-0,036	0,150
-720,050	18,666	0,055	0,032
-719,035	-200,000	-0,022	-0,080
-718,021	236,052	-0,062	-0,076
-717,006	-200,000	0,003	-0,024
-715,991	341,790	-0,077	-0,112
-714,977	336,516	0,047	-0,068
-713,962	800,000	-0,035	0,086
-712,948	-121,637	-0,103	0,013
-711,933	-59,227	0,150	-0,048
-710,918	259,214	0,034	-0,044
-709,904	-88,275	-0,185	-0,041
-708,889	95,434	-0,021	0,018
-707,875	187,714	-0,070	-0,078
-706,860	26,729	-0,072	0,045
-705,845	615,331	-0,056	-0,104
-704,831	-200,000	0,020	0,131
-703,816	800,000	-0,037	-0,109
-702,802	106,365	-0,077	-0,068
-701,787	390,551	-0,094	-0,146
-700,772	269,655	0,094	-0,124
-699,758	492,647	0,064	-0,109
-698,743	-3,470	0,107	0,055
-697,729	-72,811	0,059	-0,016
-696,714	151,509	0,021	0,021
-695,699	438,515	-0,036	0,058
-694,685	-200,000	0,024	0,095
-693,670	515,116	-0,035	-0,060
-692,656	800,000	0,033	0,091
-691,641	542,954	-0,065	0,116
-690,627	-200,000	-0,008	0,044
-689,612	-200,000	-0,005	0,066
-688,597	12,908	0,064	0,037
-687,583	514,523	-0,112	-0,195
-686,568	-39,321	-0,146	-0,057
-685,554	-200,000	-0,001	-0,024
-684,539	125,404	-0,033	0,031
-683,524	51,477	0,120	-0,085
-682,510	153,662	0,030	-0,030
-681,495	395,043	0,052	-0,080
-680,481	-53,650	-0,060	-0,020
-679,466	-15,628	-0,015	0,007
-678,451	94,652	-0,103	-0,087
-677,437	265,750	0,072	0,094
-676,422	-200,000	-0,009	0,151
-675,408	-101,908	0,097	0,017
-674,393	-200,000	-0,040	-0,207
-673,378	-171,204	0,095	0,002
-672,364	-200,000	0,019	-0,067
-671,349	-200,000	-0,037	-0,124
-670,335	-200,000	0,004	-0,033
-669,320	101,523	0,055	-0,048
-668,305	-101,078	-0,040	-0,007
-667,291	-200,000	0,002	0,112
-666,276	-200,000	0,044	0,149
-665,262	-200,000	-0,000	0,005
-664,247	356,577	0,102	0,152
-663,232	776,677	-0,052	0,107
-662,218	134,383	-0,036	0,035
-661,203	248,808	0,069	0,087
-660,189	-101,980	0,040	0,007
-659,174	800,000	-0,056	-0,129
-658,159	-135,668	-0,167	0,015
-657,145	-200,000	-0,006	-0,105
-656,130	-168,724	0,213	-0,006
-655,116	-38,031	-0,073	0,029
-654,101	800,000	0,033	-0,087
-653,086	321,704	-0,035	-0,049
-652,072	501,601	0,022	0,038
-651,057	-46,114	-0,047	0,017
-650,043	800,000	0,046	-0,140
-649,028	-41,085	0,068	-0,026
-648,014	689,261	-0,051	0,099
-646,999	-65,072	0,072	-0,021
-645,984	-200,000	0,010	0,130
-644,970	-200,000	-0,015	0,062
-643,955	389,731	0,069	-0,107
-642,941	110,093	0,049	0,043
-641,926	386,434	-0,038	-0,058
-640,911	-200,000	-0,001	0,007
-639,897	160,779	-0,026	0,027
-638,882	303,238	-0,038	0,053
-637,868	-41,260	0,056	0,021
-636,853	-6,882	-0,108	-0,054
-635,838	-73,357	0,053	-0,014
-634,824	122,871	-0,143	-0,133
-633,809	-31,524	0,033	0,014
-632,795	62,251	0,070	0,052
-631,780	577,793	0,054	0,098
-630,765	-47,708	-0,115	0,041
-629,751	-200,000	-0,030	-0,185
-628,736	-178,566	-0,132	-0,002
-627,722	-200,000	-0,005	-0,117
-626,707	-49,301	-0,036	0,013
-625,692	24,950	-0,089	-0,055
-624,678	-200,000	0,007	0,084
-623,663	-200,000	0,039	0,144
-622,649	27,448	-0,076	-0,047
-621,634	36,799	-0,113	0,074
-620,619	-200,000	-0,007	-0,069
-619,605	43,382	0,112	-0,076
-618,590	-200,000	-0,009	-0,115
-617,576	800,000	0,075	0,173
-616,561	713,779	0,039	0,076
-615,546	-200,000	0,002	0,029
-614,532	-108,400	-0,089	-0,014
-613,517	-65,052	0,084	0,025
-612,503	-0,454	-0,070	-0,037
-611,488	49,722	0,043	0,030
-610,474	42,429	-0,051	0,034
-609,459	800,000	-0,013	0,027
-608,444	406,748	-0,025	-0,040
-607,430	181,525	-0,084	-0,092
-606,415	132,696	0,056	-0,053
-605,401	800,000	-0,040	-0,090
-604,386	110,122	-0,119	-0,106
-603,371	-69,624	-0,062	0,018
-602,357	74,220	0,049	0,038
-601,342	-157,693	-0,095	-0,004
-600,328	180,250	-0,068	-0,074
-599,313	-200,000	0,020	0,081
-598,298	-200,000	-0,014	-0,207
-597,284	561,712	-0,038	0,069
-596,269	-153,064	-0,062	0,003
-595,255	96,122	0,080	-0,068
-594,240	746,180	0,070	-0,139
-593,225	-90,506	0,067	0,014
-592,211	800,000	0,041	-0,120
-591,196	13,474	-0,093	0,053
-590,182	539,385	0,082	0,146
-589,167	800,000	-0,042	0,123
-588,152	-101,290	-0,093	-0,017
-587,138	46,396	0,038	0,026
-586,123	-69,994	-0,020	0,006
-585,109	-200,000	0,008	0,081
-584,094	99,517	-0,038	-0,033
-583,079	800,000	0,032	-0,084
-582,065	-200,000	-0,002	0,107
-581,050	244,653	-0,132	0,164
-580,036	-200,000	-0,009	0,032
-579,021	800,000	-0,059	-0,149
-578,006	-128,075	-0,093	-0,010
-576,992	-19,210	-0,114	-0,052
-575,977	-25,456	-0,073	0,032
-574,963	-20,759	-0,097	-0,044
-573,948	-200,000	-0,028	0,140
-572,934	11,238	0,089	-0,050
-571,919	-200,000	0,011	-0,052
-570,904	-200,000	0,025	-0,093
-569,890	189,143	-0,084	-0,093
-568,875	800,000	-0,032	-0,076
-567,861	220,916	0,054	-0,064
-566,846	125,067	0,150	-0,140
-565,831	208,691	-0,085	-0,099
-564,817	800,000	0,021	-0,064
-563,802	87,381	-0,129	-0,106
-562,788	800,000	-0,016	-0,047
-561,773	-143,364	0,067	-0,005
-560,758	36,792	-0,032	0,021
-559,744	-200,000	0,002	-0,169
-558,729	800,000	-0,047	0,112
-557,715	77,751	0,069	-0,054
-556,700	-23,520	0,031	0,014
-555,685	169,206	0,102	-0,108
-554,671	74,743	-0,065	-0,051
-553,656	-85,869	-0,041	0,009
-552,642	800,000	0,006	0,021
-551,627	291,794	0,031	0,042
-550,612	-148,117	0,150	0,009
-549,598	-77,441	-0,113	-0,029
-548,583	-200,000	0,024	-0,122
-547,569	101,488	0,023	0,020
-546,554	702,187	0,066	0,129
-545,539	-151,810	0,171	0,009
-544,525	-200,000	-0,020	0,074
-543,510	-200,000	-0,005	0,040
-542,496	-127,175	0,115	-0,012
-541,481	800,000	-0,037	-0,085
-540,466	-141,633	0,083	0,006
-539,452	132,778	0,069	0,066
-538,437	-56,200	0,040	-0,013
-537,423	800,000	-0,017	0,042
-536,408	-55,245	-0,043	0,014
-535,393	-148,946	0,006	-0,000
-534,379	800,000	-0,027	-0,084
-533,364	51,025	-0,073	-0,051
-532,350	-200,000	-0,007	0,063
-531,335	5,656	-0,066	-0,036
-530,321	-119,274	0,087	0,011
-529,306	23,380	-0,049	-0,030
-528,291	-98,198	-0,066	0,012
-527,277	-69,402	-0,025	-0,007
-526,262	800,000	0,036	-0,098
-525,248	-94,961	0,068	0,014
-524,233	-89,234	0,126	-0,027
-523,218	-51,060	0,108	-0,037
-522,204	800,000	0,055	0,122
-521,189	470,285	0,015	0,025
-520,175	-144,186	0,068	0,005
-519,160	-200,000	-0,031	-0,109
-518,145	387,253	-0,033	-0,051
-517,131	-18,472	-0,124	0,057
-516,116	-56,719	0,022	-0,007
-515,102	-200,000	0,034	0,124
-514,087	-50,051	-0,117	0,041
-513,072	2,754	0,019	0,010
-512,058	800,000	0,009	-0,027
-511,043	-153,843	0,034	0,002
-510,029	6,898	0,052	0,028
-509,014	154,746	0,047	-0,047
-507,999	139,940	0,087	0,085
-506,985	239,542	0,035	0,043
-505,970	34,207	0,044	0,029
-504,956	173,754	0,022	-0,023
-503,941	109,639	0,094	0,083
-502,926	-200,000	0,006	0,087
-501,912	-74,684	0,030	-0,008
-500,897	157,732	-0,068	0,070
-499,883	800,000	0,013	0,038
-498,868	-91,698	-0,065	-0,014
-497,853	246,487	0,023	0,028
-496,839	37,949	0,121	0,079
-495,824	800,000	0,017	0,036
-494,810	800,000	-0,052	0,146
-493,795	212,301	0,089	-0,103
-492,781	800,000	0,028	-0,084
-491,766	106,935	-0,085	-0,074
-490,751	-178,297	0,023	0,000
-489,737	-145,438	-0,069	0,005
-488,722	667,890	0,024	0,045
-487,708	800,000	-0,024	0,069
-486,693	-137,360	0,005	0,000
-485,678	800,000	0,006	0,014
-484,664	-200,000	-0,018	-0,072
-483,649	800,000	-0,092	-0,203
-482,635	284,158	-0,032	0,042
-481,620	-67,599	0,058	-0,017
-480,605	68,431	0,072	0,054
-479,591	12,891	-0,017	-0,010
-478,576	-200,000	-0,014	-0,058
-477,562	800,000	0,033	-0,080
-476,547	21,059	-0,037	-0,022
-475,532	-27,376	-0,108	0,046
-474,518	-120,576	0,014	0,002
-473,503	-200,000	0,001	-0,092
-472,489	136,419	-0,058	-0,056
-471,474	204,829	-0,052	-0,060
-470,459	-61,801	-0,182	-0,056
-469,445	-200,000	-0,003	0,018
-468,430	-105,607	-0,094	0,015
-467,416	28,983	0,074	0,046
-466,401	-200,000	0,001	-0,080
-465,386	752,473	-0,042	0,084
-464,372	127,436	-0,085	-0,080
-463,357	41,200	0,006	-0,004
-462,343	318,195	-0,014	-0,020
-461,328	-200,000	-0,006	-0,075
-460,313	47,547	0,119	0,082
-459,299	72,566	-0,116	0,089
-458,284	800,000	0,020	0,056
-457,270	-51,110	-0,008	0,003
-456,255	203,151	-0,075	-0,085
-455,241	-18,363	0,075	-0,034
-454,226	800,000	-0,032	-0,079
-453,211	540,647	0,040	-0,071
-452,197	-200,000	-0,040	0,155
-451,182	548,802	0,084	-0,149
-450,168	602,227	0,071	-0,130
-449,153	166,939	-0,105	0,110
-448,138	-198,045	-0,116	0,000
-447,124	-44,466	-0,117	-0,043
-446,109	800,000	0,077	0,161
-445,095	-106,838	0,029	0,005
-444,080	303,631	0,064	0,087
-443,065	-72,641	-0,102	0,027
-442,051	123,666	0,053	0,049
-441,036	68,440	0,087	0,065
-440,022	800,000	0,039	-0,118
-439,007	-77,995	0,032	-0,008
-437,992	-200,000	-0,004	0,079
-436,978	211,215	0,048	-0,056
-435,963	-93,413	0,103	-0,021
-434,949	522,055	-0,002	0,004
-433,934	-29,260	-0,061	-0,025
-432,919	161,239	0,064	0,066
-431,905	56,304	-0,075	-0,054
-430,890	-20,708	0,066	-0,030
-429,876	-59,575	-0,049	0,015
-428,861	-200,000	-0,022	-0,143
-427,846	-21,245	-0,013	0,006
-426,832	-200,000	-0,025	0,119
-425,817	-92,474	-0,010	-0,002
-424,803	-80,251	-0,129	-0,032
-423,788	-200,000	-0,012	0,177
-422,773	-200,000	0,009	-0,132
-421,759	313,951	0,031	-0,043
-420,744	-24,528	0,158	0,069
-419,730	-6,123	-0,056	-0,028
-418,715	-0,350	0,085	0,044
-417,701	-127,882	-0,154	-0,016
-416,686	133,187	0,061	-0,058
-415,671	800,000	0,029	0,089
-414,657	-95,595	0,035	0,007
-413,642	232,521	-0,071	0,086
-412,628	-66,550	-0,087	0,025
-411,613	497,613	0,072	-0,122
-410,598	-120,845	-0,050	0,006
-409,584	30,248	-0,081	-0,051
-408,569	270,702	0,042	0,055
-407,555	-200,000	-0,005	0,266
-406,540	113,522	0,020	0,017
-405,525	12,684	0,139	0,079
-404,511	692,741	0,003	-0,006
-403,496	-200,000	-0,007	-0,150
-402,482	59,721	-0,079	-0,057
-401,467	-83,332	0,133	0,031
-400,452	800,000	-0,005	-0,013
-399,438	-91,761	0,090	-0,019
-398,423	-130,925	0,073	-0,007
-397,409	478,116	-0,026	-0,044
-396,394	184,791	-0,059	-0,064
-395,379	-30,602	0,141	-0,058
-394,365	376,456	-0,067	0,101
-393,350	-200,000	0,004	0,085
-392,336	-200,000	0,001	0,108
-391,321	81,056	0,158	0,125
-390,306	-40,410	-0,094	-0,036
-389,292	-191,003	0,036	-0,000
-388,277	486,303	-0,017	0,028
-387,263	-200,000	-0,012	-0,047
-386,248	800,000	0,022	-0,052
-385,233	800,000	0,026	0,075
-384,219	-63,953	-0,005	0,001
-383,204	-200,000	-0,026	-0,116
-382,190	171,732	-0,040	0,042
-381,175	800,000	-0,029	0,091
-380,160	55,092	0,005	0,004
-379,146	-140,683	-0,017	-0,001
-378,131	-200,000	0,001	0,021
-377,117	-141,195	0,156	-0,011
-376,102	72,665	-0,137	-0,105
-375,088	800,000	0,040	-0,103
-374,073	792,487	0,026	-0,053
-373,058	800,000	-0,020	0,057
-372,044	-196,479	0,164	-0,001
-371,029	47,207	0,047	-0,032
-370,015	-158,645	-0,127	0,005
-369,000	-200,000	-0,014	0,109
-367,985	225,461	-0,043	0,051
-366,971	-200,000	-0,017	0,082
-365,956	-200,000	0,036	-0,204
-364,942	-131,970	-0,103	-0,010
-363,927	69,556	0,065	0,049
-362,912	745,790	-0,019	0,037
-361,898	173,739	0,014	0,014
-360,883	-200,000	0,016	-0,143
-359,869	-200,000	-0,004	0,020
-358,854	27,932	-0,076	-0,047
-357,839	272,805	0,049	0,064
-356,825	800,000	0,047	0,107
-355,810	268,745	0,039	0,050
-354,796	227,455	-0,073	0,088
-353,781	129,647	-0,032	0,030
-352,766	366,573	-0,077	-0,114
-351,752	586,413	0,046	0,084
-350,737	-3,461	0,050	0,025
-349,723	-200,000	-0,018	0,077
-348,708	143,273	0,062	0,061
-347,693	-17,469	0,048	-0,022
-346,679	321,009	-0,046	0,064
-345,664	800,000	0,042	-0,104
-344,650	205,221	-0,088	-0,100
-343,635	434,479	0,048	0,077
-342,620	34,153	0,105	0,067
-341,606	-200,000	-0,028	0,158
-340,591	-8,824	-0,074	0,036
-339,577	800,000	0,067	-0,164
-338,562	-93,499	-0,071	0,014
-337,548	-200,000	0,018	-0,130
-336,533	-200,000	0,016	0,134
-335,518	34,110	-0,079	0,050
-334,504	392,806	0,044	0,067
-333,489	223,365	0,057	0,068
-332,475	387,086	0,044	0,067
-331,460	-62,478	-0,073	0,022
-330,445	125,739	0,065	-0,060
-329,431	255,751	0,100	-0,125
-328,416	-162,323	-0,053	0,002
-327,402	800,000	0,057	-0,124
-326,387	-200,000	0,009	-0,046
-325,372	157,973	-0,055	-0,056
-324,358	729,943	-0,041	-0,082
-323,343	337,571	-0,028	-0,040
-322,329	-129,663	0,068	-0,007
-321,314	58,505	-0,081	0,058
-320,299	-113,202	-0,140	0,020
-319,285	131,061	0,076	0,071
-318,270	73,229	0,009	-0,007
-317,256	191,163	-0,048	-0,053
-316,241	455,192	0,035	0,056
-315,226	-75,420	-0,071	0,018
-314,212	275,926	-0,085	0,111
-313,197	238,535	-0,059	0,071
-312,183	-200,000	0,043	0,149
-311,168	-127,941	-0,101	0,011
-310,153	800,000	0,013	-0,036
-309,139	800,000	-0,033	-0,070
-308,124	273,926	-0,074	-0,096
-307,110	-200,000	0,039	0,143
-306,095	-200,000	-0,002	0,055
-305,080	440,536	0,078	0,125
-304,066	15,547	0,050	-0,029
-303,051	211,812	-0,131	-0,152
-302,037	-148,272	0,026	0,002
-301,022	213,046	0,101	-0,117
-300,008	-200,000	0,008	0,027
-298,993	177,056	0,058	0,062
-297,978	123,142	-0,037	0,034
-296,964	800,000	-0,038	0,101
-295,949	-123,037	0,050	-0,006
-294,935	497,764	-0,078	-0,132
-293,920	67,268	0,071	-0,053
-292,905	-200,000	0,017	-0,065
-291,891	46,731	0,067	-0,046
-290,876	31,778	0,095	0,060
-289,862	-36,588	0,094	0,037
-288,847	396,504	0,022	-0,033
-287,832	-200,000	0,010	-0,090
-286,818	133,422	-0,087	0,082
-285,803	-7,175	0,078	0,039
-284,789	-118,198	0,040	-0,005
-283,774	-171,781	-0,099	-0,002
-282,759	-200,000	0,032	0,125
-281,745	204,454	0,082	0,093
-280,730	506,866	0,032	0,054
-279,716	227,400	0,010	0,012
-278,701	572,297	0,058	0,103
-277,686	22,795	-0,008	-0,005
-276,672	193,042	-0,080	0,088
-275,657	746,013	0,063	0,126
-274,643	-150,444	-0,167	0,009
-273,628	800,000	-0,022	0,065
-272,613	122,820	0,018	-0,016
-271,599	-200,000	0,039	-0,158
-270,584	-59,751	0,097	-0,030
-269,570	-200,000	-0,007	0,070
-268,555	-200,000	0,010	0,091
-267,540	243,137	0,078	-0,095
-266,526	-71,198	-0,077	-0,021
-265,511	-200,000	0,053	-0,171
-264,497	13,947	0,057	-0,033
-263,482	120,974	-0,084	0,077
-262,467	390,527	0,018	-0,028
-261,453	-154,549	-0,082	-0,004
-260,438	615,311	-0,063	-0,116
-259,424	23,570	-0,127	0,076
-258,409	16,316	0,094	-0,054
-257,395	734,403	0,043	-0,085
-256,380	-200,000	0,004	-0,079
-255,365	-200,000	0,006	0,157
-254,351	16,377	0,086	0,050
-253,336	-200,000	0,020	0,072
-252,322	-123,507	-0,079	0,009
-251,307	-20,575	-0,041	-0,018
-250,292	-78,616	0,095	0,024
-249,278	-87,337	0,142	0,031
-248,263	-47,050	0,088	0,031
-247,249	-200,000	-0,001	0,057
-246,234	22,326	0,053	0,032
-245,219	-78,471	0,035	-0,009
-244,205	-85,729	-0,092	-0,021
-243,190	21,460	-0,146	0,086
-242,176	333,214	-0,063	-0,089
-241,161	-72,794	0,065	-0,017
-240,146	344,291	0,064	0,092
-239,132	99,633	0,024	-0,020
-238,117	39,087	-0,099	-0,065
-237,103	-51,622	-0,097	0,033
-236,088	-86,003	-0,101	-0,023
-235,073	800,000	0,009	0,020
-234,059	-200,000	-0,009	0,047
-233,044	800,000	0,067	0,138
-232,030	-72,716	0,026	0,007
-231,015	-200,000	0,033	-0,157
-230,000	-64,022	-0,126	-0,037
-228,986	800,000	0,036	-0,079
-227,971	-200,000	0,007	-0,038
-226,957	587,679	0,113	0,203
-225,942	-87,488	-0,111	-0,024
-224,927	67,461	0,034	-0,025
-223,913	-200,000	0,000	-0,091
-222,898	-82,868	-0,087	0,020
-221,884	-200,000	0,020	-0,104
-220,869	-62,248	0,092	0,028
-219,855	-125,535	-0,107	-0,012
-218,840	-200,000	0,000	-0,108
-217,825	383,430	-0,072	0,109
-216,811	1,679	0,023	0,012
-215,796	163,740	-0,073	0,075
-214,782	-200,000	-0,023	-0,086
-213,767	56,618	0,110	-0,078
-212,752	-200,000	-0,005	0,122
-211,738	65,924	-0,050	-0,037
-210,723	-23,833	0,084	0,036
-209,709	-122,134	0,005	0,001
-208,694	-73,180	0,150	0,040
-207,679	69,732	0,117	-0,088
-206,665	138,015	0,051	-0,049
-205,650	-93,734	-0,110	-0,022
-204,636	-200,000	0,019	-0,074
-203,621	127,949	0,099	0,092
-202,606	102,979	0,039	-0,033
-201,592	-200,000	0,022	0,129
-200,577	-147,799	-0,080	0,005
-199,563	74,640	0,064	-0,049
-198,548	800,000	0,056	0,132
-197,533	390,750	-0,041	0,063
-196,519	211,450	0,131	-0,150
-195,504	-3,363	-0,040	0,020
-194,490	800,000	-0,069	-0,160
-193,475	218,611	-0,031	-0,037
-192,460	-200,000	-0,003	-0,040
-191,446	5,116	0,095	0,051
-190,431	768,789	-0,010	-0,020
-189,417	0,152	-0,059	-0,030
-188,402	-200,000	0,032	-0,127
-187,387	777,336	-0,055	-0,110
-186,373	-45,175	0,082	-0,030
-185,358	-3,800	-0,121	-0,061
-184,344	-27,554	-0,061	-0,026
-183,329	-49,138	-0,093	-0,032
-182,315	39,078	0,092	-0,060
-181,300	-41,310	-0,040	-0,015
-180,285	1,949	0,074	-0,039
-179,271	-134,808	-0,064	0,006
-178,256	387,127	0,087	-0,131
-177,242	142,362	0,069	-0,067
-176,227	800,000	-0,020	-0,059
-175,212	-200,000	0,002	0,029
-174,198	-51,850	-0,130	0,044
-173,183	-200,000	-0,028	0,119
-172,169	-161,588	-0,066	0,002
-171,154	800,000	0,014	-0,032
-170,139	158,290	0,024	-0,024
-169,125	386,475	0,067	0,100
-168,110	-200,000	0,002	-0,022
-167,096	433,446	0,019	0,030
-166,081	-22,453	0,155	-0,068
-165,066	-49,896	-0,049	-0,017
-164,052	800,000	0,025	0,071
-163,037	-200,000	0,012	-0,039
-162,023	-51,915	-0,091	0,031
-161,008	-13,110	0,126	-0,059
-159,993	75,559	0,061	0,047
-158,979	32,771	-0,086	0,054
-157,964	800,000	-0,055	0,148
-156,950	-200,000	-0,011	0,162
-155,935	-13,406	-0,128	0,060
-154,920	200,684	-0,037	0,042
-153,906	123,918	-0,079	0,072
-152,891	-108,135	0,112	0,017
-151,877	-90,402	-0,070	-0,015
-150,862	-84,043	-0,174	-0,040
-149,847	-5,911	-0,060	-0,030
-148,833	720,677	0,010	-0,019
-147,818	-200,000	0,000	0,043
-146,804	789,086	0,044	0,088
-145,789	248,502	-0,117	0,144
-144,775	240,405	-0,022	0,027
-143,760	19,558	-0,147	-0,086
-142,745	-200,000	0,017	-0,122
-141,731	415,081	-0,046	-0,071
-140,716	84,519	0,025	0,020
-139,702	-200,000	0,006	0,122
-138,687	-20,456	0,070	-0,031
-137,672	-200,000	0,032	-0,130
-136,658	22,183	0,092	-0,054
-135,643	495,833	-0,052	0,086
-134,629	140,702	-0,077	-0,074
-133,614	-31,667	0,173	-0,070
-132,599	-150,883	-0,113	0,006
-131,585	721,753	0,055	0,107
-130,570	-6,713	-0,044	0,021
-129,556	-4,411	-0,091	-0,045
-128,541	357,609	0,035	-0,050
-127,526	-200,000	0,018	-0,083
-126,512	239,074	-0,010	0,012
-125,497	14,028	0,174	0,098
-124,483	631,276	-0,058	0,107
-123,468	-89,607	-0,069	0,015
-122,453	-94,848	0,067	-0,013
-121,439	2,681	-0,159	-0,083
-120,424	800,000	-0,046	-0,124
-119,410	800,000	-0,044	-0,090
-118,395	542,309	-0,115	0,200
-117,380	99,357	0,097	-0,082
-116,366	-169,267	0,079	-0,002
-115,351	105,591	0,057	0,049
-114,337	-200,000	-0,026	-0,104
-113,322	-85,649	-0,028	-0,006
-112,307	-200,000	-0,012	0,159
-111,293	-200,000	-0,005	0,018
-110,278	-69,327	0,121	-0,033
-109,264	69,537	0,088	0,066
-108,249	-22,503	0,127	-0,056
-107,234	-3,518	-0,041	-0,021
-106,220	23,927	-0,039	-0,023
-105,205	128,137	0,090	0,083
-104,191	-200,000	-0,009	0,041
-103,176	800,000	0,010	0,022
-102,162	-122,922	0,074	0,009
-101,147	653,162	-0,017	-0,032
-100,132	110,428	-0,101	-0,088
-99,118	101,970	-0,037	-0,032
-98,103	-200,000	0,140	-0,000
-97,089	-17,974	0,052	0,024
-96,074	19,266	-0,055	0,032
-95,059	-200,000	0,012	-0,149
-94,045	73,345	-0,084	-0,064
-93,030	-143,253	-0,101	-0,007
-92,016	-26,217	-0,037	-0,016
-91,001	-65,413	-0,109	-0,031
-89,986	-89,652	0,072	0,015
-88,972	-118,084	0,011	-0,001
-87,957	55,831	-0,053	0,037
-86,943	10,658	-0,082	0,045
-85,928	-81,408	-0,118	-0,028
-84,913	173,526	-0,092	-0,097
-83,899	800,000	-0,039	-0,101
-82,884	533,366	0,054	0,093
-81,870	-95,934	0,144	0,028
-80,855	-200,000	-0,024	0,084
-79,840	800,000	0,056	0,141
-78,826	-30,465	-0,054	-0,022
-77,811	-200,000	0,014	-0,111
-76,797	54,412	0,025	0,017
-75,782	115,606	0,037	0,033
-74,767	800,000	0,021	0,058
-73,753	219,519	-0,037	0,043
-72,738	22,547	0,062	0,037
-71,724	221,655	0,003	0,003
-70,709	-200,000	-0,005	0,033
-69,694	800,000	0,064	0,175
-68,680	-200,000	0,031	-0,104
-67,665	86,202	0,076	0,061
-66,651	-62,096	0,142	0,043
-65,636	-8,415	-0,041	0,020
-64,622	157,765	0,106	0,107
-63,607	-200,000	-0,001	0,011
-62,592	-200,000	-0,007	0,037
-61,578	59,757	0,072	0,052
-60,563	-130,791	0,158	-0,015
-59,549	63,894	0,037	-0,027
-58,534	-73,502	-0,950	0,250
-57,519	529,142	-0,987	-1,696
-56,505	-200,000	-0,793	-4,192
-55,490	209,210	0,518	-0,590
-54,476	800,000	4,799	11,424
-53,461	-200,000	11,880	224,801
-52,446	-200,000	673,216	2196,805
-51,432	592,813	1621,839	2917,355
-50,417	124,380	1652,995	1507,406
-49,403	77,167	1308,261	1007,250
-48,388	41,551	1039,436	681,060
-47,373	26,765	995,002	602,879
-46,359	25,972	985,188	594,281
-45,344	25,194	981,173	589,265
-44,330	25,118	979,395	587,924
-43,315	25,041	978,171	586,911
-42,300	25,087	976,971	586,320
-41,286	25,098	976,013	585,760
-40,271	25,139	974,926	585,219
-39,257	25,043	974,193	584,438
-38,242	25,057	973,300	583,925
-37,227	25,079	972,390	583,430
-36,213	25,001	971,522	582,632
-35,198	24,993	970,521	581,979
-34,184	25,075	969,825	581,809
-33,169	25,076	968,618	581,063
-32,154	25,078	967,794	580,553
-31,140	25,051	966,941	579,932
-30,125	25,088	966,140	579,548
-29,111	25,060	965,337	578,951
-28,096	25,067	964,640	578,534
-27,082	25,099	963,854	578,143
-26,067	25,082	963,204	577,676
-25,052	25,015	962,455	576,986
-24,038	25,037	961,724	576,597
-23,023	24,987	961,270	576,140
-22,009	25,005	960,573	575,757
-20,994	25,066	959,732	575,427
-19,979	25,063	959,017	574,965
-18,965	25,025	958,521	574,524
-17,950	25,078	957,731	574,198
-16,936	24,992	957,150	573,550
-15,921	25,036	956,329	573,175
-14,906	24,939	955,590	572,399
-13,892	24,933	954,955	571,976
-12,877	24,878	954,630	571,583
-11,863	24,877	953,696	570,996
-10,848	24,934	953,093	570,795
-9,833	24,994	952,974	570,895
-8,819	24,973	952,313	570,409
-7,804	24,938	951,397	569,725
-6,790	24,896	951,093	569,386
-5,775	24,968	950,332	569,140
-4,760	24,881	949,922	568,592
-3,746	24,912	949,166	568,214
-2,731	24,782	948,552	567,410
-1,717	24,772	947,870	566,948
-0,702	24,749	947,126	566,409
0,313	24,580	946,318	566,243
1,327	26,948	944,272	572,492
2,342	35,033	823,928	521,763
3,356	31,038	518,747	321,561
4,371	6,826	377,985	203,287
5,386	3,617	360,347	189,818
6,400	2,152	354,195	184,779
7,415	1,305	351,047	182,099
8,429	1,177	349,670	181,215
9,444	1,041	348,607	180,484
10,459	1,023	347,858	180,059
11,473	1,114	347,311	179,868
12,488	1,365	346,909	179,944
13,502	1,284	346,337	179,535
14,517	1,178	345,792	179,110
15,531	0,860	345,097	178,357
16,546	0,602	344,662	177,811
17,561	0,638	344,176	177,587
18,575	0,752	343,946	177,587
19,590	0,799	343,535	177,414
20,604	0,749	343,159	177,145
21,619	0,673	342,801	176,855
22,634	0,828	342,398	176,814
23,648	0,822	341,862	176,514
24,663	0,721	341,723	176,309
25,677	0,756	341,368	176,150
26,692	0,725	341,164	175,993
27,707	0,747	340,824	175,827
28,721	0,749	340,433	175,612
29,736	0,821	340,147	175,534
30,750	0,684	339,936	175,249
31,765	0,649	339,547	174,992
32,780	0,624	339,174	174,755
33,794	0,717	339,063	174,791
34,809	0,656	338,849	174,594
35,823	0,772	338,400	174,482
36,838	0,847	338,070	174,383
37,853	0,614	337,929	174,024
38,867	0,677	337,638	173,933
39,882	0,673	337,367	173,772
40,896	0,540	337,082	173,457
41,911	0,637	336,796	173,406
42,926	0,612	336,519	173,219
43,940	0,528	336,271	172,979
44,955	0,675	335,907	172,946
45,969	0,560	335,732	172,707
46,984	0,324	335,479	172,291
47,999	0,336	334,907	171,996
49,013	0,155	334,649	171,641
50,028	0,173	334,326	171,480
51,042	-0,036	334,098	171,108
52,057	-0,174	334,050	170,910
53,071	0,024	333,555	170,868
54,086	-0,018	333,406	170,728
55,101	0,102	333,314	170,803
56,115	0,358	333,003	170,920
57,130	0,693	332,988	171,279
58,144	0,945	332,732	171,419
59,159	0,998	332,333	171,259
60,174	0,875	332,264	171,068
61,188	0,876	331,923	170,879
62,203	0,825	331,629	170,655
63,217	0,697	331,489	170,422
64,232	0,841	331,155	170,398
65,247	0,944	330,809	170,322
66,261	1,002	330,692	170,312
67,276	0,677	330,213	169,682
68,290	0,287	330,060	169,149
69,305	0,478	329,766	169,198
70,320	0,349	329,546	168,925
71,334	0,662	329,275	169,123
72,349	1,100	329,040	169,480
73,363	1,082	328,811	169,327
74,378	0,896	328,505	168,946
75,393	0,770	328,468	168,770
76,407	0,818	328,107	168,623
77,422	0,800	327,923	168,494
78,436	0,936	327,533	168,430
79,451	0,839	327,394	168,235
80,466	0,906	327,046	168,116
81,480	0,600	326,689	167,576
82,495	0,393	326,518	167,243
83,509	0,495	326,328	167,245
84,524	0,577	325,924	167,113
85,539	0,381	325,499	166,663
86,553	0,357	325,370	166,555
87,568	0,357	325,290	166,499
88,582	0,443	324,959	166,410
89,597	0,411	324,875	166,317
90,611	0,730	324,616	166,524
91,626	0,664	324,479	166,365
92,641	0,798	324,282	166,398
93,655	0,640	324,013	166,069
94,670	0,577	323,704	165,827
95,684	0,618	323,449	165,727
96,699	0,594	323,271	165,595
97,714	0,612	322,940	165,430
98,728	0,452	322,886	165,212
99,743	0,411	322,430	164,918
100,757	0,433	322,177	164,798
101,772	0,371	321,982	164,616
102,787	0,491	321,799	164,639
103,801	0,670	321,587	164,713
104,816	0,654	321,456	164,613
105,830	0,827	321,135	164,624
106,845	0,907	320,939	164,595
107,860	0,760	320,784	164,341
108,874	0,697	320,452	164,088
109,889	0,812	320,322	164,132
110,903	0,592	319,963	163,693
111,918	0,546	319,754	163,521
112,933	0,747	319,610	163,652
113,947	0,686	319,415	163,472
114,962	0,723	319,168	163,371
115,976	0,642	319,024	163,194
116,991	0,806	318,631	163,157
118,006	0,711	318,435	162,939
119,020	0,833	318,365	163,021
120,035	0,819	318,191	162,902
121,049	0,875	318,045	162,873
122,064	0,874	317,760	162,712
123,079	0,727	317,332	162,319
124,093	0,704	317,030	162,125
125,108	0,444	316,897	161,763
126,122	0,481	316,385	161,527
127,137	0,205	316,308	161,176
128,151	0,303	316,150	161,187
129,166	0,457	315,861	161,190
130,181	0,357	315,571	160,921
131,195	0,226	315,476	160,717
132,210	0,624	315,316	161,048
133,224	0,750	315,105	161,061
134,239	0,720	314,943	160,932
135,254	0,665	314,811	160,791
136,268	0,691	314,529	160,660
137,283	0,327	314,214	160,096
138,297	0,283	313,747	159,797
139,312	0,288	313,694	159,762
140,327	0,656	313,562	160,072
141,341	0,865	313,416	160,206
142,356	1,035	313,407	160,367
143,370	1,115	313,161	160,313
144,385	1,140	312,831	160,156
145,400	1,031	312,566	159,890
146,414	1,038	312,428	159,813
147,429	0,928	312,286	159,610
148,443	1,101	312,107	159,687
149,458	1,130	311,867	159,580
150,473	1,073	311,662	159,402
151,487	1,025	311,430	159,218
152,502	1,028	311,141	159,059
153,516	1,037	310,984	158,974
154,531	1,167	310,591	158,896
155,546	1,248	310,467	158,904
156,560	1,015	310,309	158,563
157,575	0,885	310,047	158,278
158,589	1,131	309,821	158,407
159,604	1,076	309,674	158,261
160,619	1,135	309,426	158,182
161,633	0,933	309,187	157,834
162,648	1,053	308,951	157,825
163,662	1,094	308,778	157,765
164,677	0,864	308,846	157,545
165,692	1,086	308,415	157,543
166,706	1,098	308,181	157,422
167,721	1,221	307,963	157,425
168,735	1,111	307,857	157,242
169,750	1,172	307,814	157,270
170,764	1,214	307,538	157,159
171,779	1,179	307,416	157,046
172,794	1,130	307,151	156,846
173,808	1,083	306,835	156,621
174,823	0,649	306,356	155,912
175,837	0,617	306,164	155,768
176,852	0,918	306,189	156,079
177,867	0,960	306,279	156,154
178,881	1,251	305,877	156,237
179,896	1,320	305,643	156,174
180,910	1,215	305,474	155,966
181,925	1,320	305,157	155,898
182,940	1,351	305,165	155,920
183,954	1,374	304,885	155,787
184,969	1,165	304,648	155,437
185,983	1,247	304,304	155,332
186,998	1,178	304,120	155,153
188,013	1,136	303,950	155,009
189,027	1,320	303,773	155,094
190,042	1,280	303,633	154,968
191,056	1,293	303,503	154,902
192,071	1,387	303,356	154,908
193,086	1,376	302,982	154,693
194,100	1,337	303,005	154,651
195,115	1,392	302,688	154,531
196,129	1,313	302,264	154,221
197,144	1,218	302,195	154,074
198,159	1,410	301,914	154,114
199,173	1,266	301,916	153,954
200,188	1,465	301,605	153,984
201,202	1,058	301,254	153,377
202,217	0,599	300,793	152,662
203,232	0,602	300,560	152,532
204,246	0,911	300,648	152,878
205,261	1,309	300,534	153,210
206,275	1,337	300,256	153,084
207,290	1,271	300,212	152,980
208,304	1,338	300,057	152,956
209,319	1,318	299,689	152,735
210,334	1,300	299,562	152,638
211,348	1,264	299,412	152,512
212,363	1,148	299,226	152,286
213,377	1,479	298,884	152,432
214,392	1,314	298,755	152,187
215,407	1,041	298,534	151,785
216,421	0,778	298,207	151,341
217,436	0,874	298,005	151,322
218,450	1,029	297,854	151,387
219,465	0,998	297,877	151,354
220,480	1,294	297,477	151,434
221,494	1,222	297,335	151,276
222,509	1,228	297,256	151,228
223,523	1,260	297,101	151,168
224,538	1,467	297,007	151,315
225,553	1,369	296,790	151,092
226,567	1,496	296,578	151,098
227,582	1,337	296,367	150,818
228,596	1,412	296,208	150,798
229,611	1,556	296,057	150,852
230,626	1,371	295,551	150,396
231,640	0,833	295,406	149,773
232,655	0,567	294,953	149,267
233,669	0,449	294,778	149,047
234,684	0,322	294,709	148,872
235,699	0,543	294,507	148,976
236,713	0,711	294,487	149,120
237,728	0,933	294,302	149,233
238,742	0,974	294,104	149,160
239,757	1,163	294,023	149,293
240,772	1,226	293,890	149,275
241,786	1,367	293,493	149,199
242,801	1,145	293,163	148,798
243,815	0,843	293,179	148,496
244,830	1,095	293,013	148,647
245,844	0,852	292,713	148,242
246,859	0,864	292,618	148,192
247,874	1,028	292,366	148,212
248,888	0,971	292,268	148,093
249,903	1,105	292,038	148,095
250,917	1,044	292,098	148,053
251,932	1,551	291,875	148,425
252,947	2,085	291,860	148,928
253,961	1,924	291,725	148,688
254,976	1,839	291,517	148,485
255,990	3,048	291,762	149,782
257,005	3,876	291,936	150,669
258,020	4,485	292,010	151,291
259,034	4,336	291,634	150,937
260,049	4,284	291,528	150,818
261,063	4,100	291,290	150,501
262,078	4,294	291,266	150,665
263,093	4,902	291,346	151,288
264,107	4,824	291,116	151,079
265,122	4,878	290,938	151,025
266,136	5,336	290,829	151,402
267,151	5,068	290,619	151,018
268,166	4,916	290,373	150,729
269,180	4,899	290,029	150,520
270,195	4,823	289,883	150,357
271,209	4,930	289,765	150,386
272,224	4,783	289,590	150,139
273,239	4,644	289,101	149,738
274,253	4,816	289,116	149,899
275,268	5,170	289,148	150,245
276,282	4,958	288,864	149,879
277,297	5,095	288,804	149,966
278,312	5,283	288,673	150,067
279,326	5,143	288,307	149,728
280,341	4,945	288,007	149,368
281,355	4,822	287,747	149,102
282,370	4,569	287,705	148,823
283,384	4,624	287,342	148,675
284,399	4,723	287,337	148,754
285,414	4,694	287,206	148,646
286,428	4,774	286,929	148,565
287,443	4,541	286,555	148,135
288,457	4,273	286,364	147,766
289,472	4,354	286,226	147,760
290,487	4,385	286,065	147,693
291,501	4,540	285,765	147,673
292,516	4,013	285,657	147,101
293,530	4,126	285,537	147,133
294,545	4,558	285,309	147,415
295,560	4,721	285,139	147,469
296,574	4,384	284,853	146,987
297,589	4,467	284,832	147,042
298,603	4,849	284,749	147,350
299,618	4,809	284,576	147,209
300,633	4,675	284,350	146,952
301,647	4,565	284,286	146,801
302,662	4,751	283,942	146,787
303,676	4,535	283,709	146,449
304,691	4,225	283,396	145,980
305,706	4,290	283,251	145,955
306,720	4,315	283,030	145,851
307,735	4,038	282,960	145,541
308,749	4,322	282,886	145,757
309,764	4,605	282,594	145,862
310,779	4,417	282,183	145,459
311,793	4,245	282,112	145,248
312,808	4,058	282,096	145,049
313,822	4,190	281,848	145,034
314,837	4,199	281,654	144,930
315,852	4,066	281,447	144,685
316,866	4,210	281,102	144,630
317,881	4,386	281,125	144,794
318,895	4,289	280,952	144,601
319,910	4,226	280,609	144,353
320,925	4,000	280,379	144,010
321,939	4,286	280,298	144,223
322,954	4,363	280,274	144,269
323,968	4,420	280,042	144,191
324,983	4,513	279,951	144,218
325,997	4,576	279,735	144,152
327,012	4,397	279,616	143,911
328,027	4,512	279,380	143,884
329,041	4,508	279,110	143,729
330,056	4,669	279,093	143,857
331,070	4,359	278,909	143,461
332,085	4,389	278,710	143,373
333,100	4,426	278,483	143,278
334,114	4,495	278,263	143,216
335,129	4,373	277,908	142,908
336,143	4,554	277,862	143,040
337,158	4,617	277,920	143,115
338,173	4,631	277,620	142,960
339,187	4,333	277,378	142,547
340,202	4,488	277,253	142,614
341,216	4,402	277,162	142,475
342,231	4,415	276,904	142,341
343,246	4,254	276,776	142,115
344,260	4,380	276,549	142,101
345,275	4,505	276,492	142,174
346,289	4,964	276,353	142,513
347,304	4,726	276,223	142,214
348,319	4,642	275,841	141,928
349,333	4,712	275,609	141,860
350,348	4,636	275,643	141,794
351,362	4,910	275,422	141,920
352,377	4,662	275,252	141,592
353,392	4,880	275,075	141,688
354,406	4,753	275,021	141,532
355,421	191,962	1334,181	1414,692
356,435	155,167	1463,369	1414,880
