DTS Sentinel unit serial number:	SN410029Multiplexer serial number:	ORYXHardware model number:	OX2-SRSoftware version number:	ORYX F/W v4,00 Oryx Data Collector v3.7.2.0data status	okinstallation	B4 Nyhavnadifferential loss correction	single-endedforward channel	channel 2reverse channel	N/Adate	2023/12/18time	21:50:13forward acquisition time	300,00reverse acquisition time	0,00gamma	499,1914k internal	0,3124k external	0,3124temperature offset calibration	1,0000default loss term (dB/km)	0,3820temperature slope calibration	1,0000multiplexer offset coefficient	1,0000multiplexer slope coefficient	1,0000fibre end	0,00T internal ref (°C)	21,83T ext. ref 1 (°C)	7,24T ext. ref 2 (°C)	7,17length (m)	temperature (°C)	Stokes	anti-Stokes-744,400	-103,044	0,093	-0,016
-743,385	-4,334	-0,204	0,105
-742,371	291,702	0,035	0,048
-741,356	-27,657	-0,211	0,091
-740,342	511,171	0,094	0,163
-739,327	-47,081	-0,238	0,086
-738,312	800,000	-0,011	-0,033
-737,298	-38,160	-0,297	0,117
-736,283	-200,000	0,002	-0,025
-735,269	800,000	-0,081	0,175
-734,254	-200,000	0,008	-0,113
-733,239	-54,261	-0,478	-0,161
-732,225	-156,899	0,149	0,007
-731,210	120,301	0,034	0,032
-730,196	-109,439	0,111	-0,017
-729,181	12,916	-0,149	0,086
-728,167	-139,219	0,076	0,006
-727,152	161,410	-0,042	-0,044
-726,137	-200,000	-0,004	-0,067
-725,123	-200,000	-0,001	0,032
-724,108	-200,000	0,014	0,049
-723,094	310,473	0,031	-0,043
-722,079	35,042	-0,093	-0,060
-721,064	-200,000	0,010	-0,104
-720,050	-56,169	-0,088	-0,029
-719,035	800,000	0,054	0,121
-718,021	-159,003	-0,036	0,001
-717,006	-111,650	-0,062	-0,009
-715,991	-50,452	0,020	-0,007
-714,977	-65,691	0,016	0,005
-713,962	-200,000	-0,009	-0,034
-712,948	598,330	-0,081	0,150
-711,933	800,000	-0,044	0,096
-710,918	-200,000	-0,023	0,083
-709,904	401,144	-0,050	0,079
-708,889	-1,594	-0,046	0,024
-707,875	-145,722	-0,137	0,009
-706,860	-200,000	-0,042	-0,000
-705,845	-46,505	-0,114	0,041
-704,831	-80,868	0,039	0,009
-703,816	800,000	-0,035	-0,086
-702,802	61,238	-0,113	-0,083
-701,787	38,821	-0,049	-0,033
-700,772	-13,915	-0,103	-0,049
-699,758	-200,000	-0,015	-0,057
-698,743	77,681	0,031	-0,025
-697,729	-20,303	-0,022	0,010
-696,714	-98,338	-0,093	-0,018
-695,699	430,576	0,027	-0,043
-694,685	-88,312	0,067	-0,015
-693,670	-55,455	-0,093	-0,031
-692,656	170,935	0,045	0,048
-691,641	283,055	0,010	-0,013
-690,627	256,991	0,047	-0,060
-689,612	177,722	-0,047	-0,051
-688,597	96,573	-0,093	-0,079
-687,583	-49,016	-0,078	0,028
-686,568	-164,807	0,079	0,003
-685,554	-200,000	-0,006	0,050
-684,539	-96,233	0,123	0,024
-683,524	800,000	0,051	0,125
-682,510	548,979	-0,048	0,086
-681,495	-200,000	-0,022	0,185
-680,481	-10,268	-0,093	0,046
-679,466	-200,000	-0,017	-0,065
-678,451	-200,000	0,004	-0,144
-677,437	-99,165	-0,067	0,012
-676,422	-200,000	0,027	-0,136
-675,408	-31,165	0,095	-0,040
-674,393	177,101	0,030	0,033
-673,378	126,622	-0,137	-0,129
-672,364	781,127	0,034	-0,069
-671,349	-200,000	-0,004	-0,060
-670,335	-49,060	0,130	-0,046
-669,320	-200,000	0,034	0,121
-668,305	44,996	-0,128	0,087
-667,291	203,720	-0,115	0,132
-666,276	-200,000	0,014	-0,087
-665,262	-141,787	-0,050	0,004
-664,247	415,488	-0,048	0,077
-663,232	554,356	0,056	-0,101
-662,218	800,000	0,056	0,117
-661,203	81,700	-0,051	0,041
-660,189	759,783	-0,035	-0,070
-659,174	298,186	0,084	0,115
-658,159	272,547	0,086	-0,113
-657,145	-200,000	-0,008	-0,129
-656,130	-177,308	0,047	0,001
-655,116	371,245	-0,081	0,122
-654,101	513,850	-0,084	0,146
-653,086	103,593	-0,096	0,084
-652,072	341,852	0,046	0,067
-651,057	800,000	-0,008	-0,020
-650,043	-98,014	0,138	0,026
-649,028	84,742	-0,087	0,070
-648,014	-200,000	0,004	-0,101
-646,999	410,978	-0,085	0,134
-645,984	442,427	0,024	0,040
-644,970	84,858	-0,057	0,046
-643,955	-73,483	-0,138	-0,037
-642,941	798,063	-0,045	-0,093
-641,926	-9,461	0,071	-0,035
-640,911	393,763	0,059	-0,091
-639,897	-21,831	-0,102	0,046
-638,882	269,724	-0,079	-0,103
-637,868	-9,987	-0,027	-0,013
-636,853	-200,000	0,002	-0,059
-635,838	538,802	0,010	0,017
-634,824	-200,000	0,042	-0,141
-633,809	491,696	-0,040	-0,068
-632,795	800,000	-0,047	0,115
-631,780	-0,021	-0,114	0,060
-630,765	-200,000	0,000	0,179
-629,751	193,264	-0,063	0,071
-628,736	661,862	-0,070	-0,134
-627,722	-200,000	-0,029	0,137
-626,707	-200,000	-0,006	-0,118
-625,692	737,535	0,045	0,091
-624,678	491,750	0,084	0,143
-623,663	-200,000	0,030	-0,104
-622,649	256,817	-0,062	0,079
-621,634	-66,750	0,178	-0,052
-620,619	605,344	-0,052	-0,096
-619,605	-200,000	-0,005	0,132
-618,590	22,890	0,081	-0,049
-617,576	249,894	0,008	0,010
-616,561	-30,679	0,102	-0,043
-615,546	800,000	0,040	-0,090
-614,532	-138,161	-0,093	0,008
-613,517	800,000	-0,009	-0,027
-612,503	123,949	0,137	0,128
-611,488	800,000	0,011	0,034
-610,474	94,281	0,023	-0,019
-609,459	492,364	0,029	0,050
-608,444	21,464	-0,134	-0,081
-607,430	800,000	-0,071	-0,196
-606,415	265,466	0,008	-0,011
-605,401	-62,318	-0,050	0,015
-604,386	14,744	0,031	0,018
-603,371	-200,000	-0,017	0,112
-602,357	800,000	0,022	0,058
-601,342	-86,517	-0,138	-0,031
-600,328	800,000	-0,048	-0,111
-599,313	-200,000	-0,146	0,000
-598,298	-200,000	-0,010	-0,045
-597,284	31,541	0,082	0,052
-596,269	97,462	0,057	-0,048
-595,255	800,000	-0,029	0,093
-594,240	-108,164	0,117	-0,019
-593,225	-200,000	-0,002	0,008
-592,211	-43,649	-0,155	-0,057
-591,196	800,000	0,050	-0,127
-590,182	-200,000	0,025	0,131
-589,167	-124,439	0,144	-0,016
-588,152	-32,598	-0,079	-0,032
-587,138	452,822	0,066	-0,109
-586,123	-200,000	-0,006	-0,132
-585,109	200,160	-0,066	-0,075
-584,094	800,000	0,036	-0,117
-583,079	-44,299	0,109	-0,040
-582,065	-112,873	0,030	0,004
-581,050	358,182	-0,030	0,044
-580,036	-11,000	0,026	-0,013
-579,021	800,000	0,015	-0,044
-578,006	-200,000	-0,000	-0,117
-576,992	-200,000	0,008	-0,047
-575,977	169,753	0,042	0,044
-574,963	252,620	-0,025	0,031
-573,948	-109,805	-0,132	0,020
-572,934	90,131	-0,158	0,131
-571,919	50,287	0,061	0,043
-570,904	-13,306	-0,080	0,038
-569,890	36,927	0,087	-0,057
-568,875	80,859	0,112	-0,089
-567,861	800,000	-0,049	0,117
-566,846	-200,000	0,014	0,112
-565,831	371,447	-0,083	0,125
-564,817	-46,080	-0,173	-0,063
-563,802	177,996	-0,062	0,067
-562,788	-151,369	-0,022	-0,001
-561,773	800,000	-0,010	-0,030
-560,758	99,313	0,059	0,050
-559,744	-200,000	0,012	-0,059
-558,729	-99,561	0,071	0,013
-557,715	-12,235	0,028	0,014
-556,700	-32,421	-0,050	-0,021
-555,685	-87,150	-0,101	0,022
-554,671	-161,993	0,118	0,004
-553,656	123,688	-0,052	0,048
-552,642	-49,741	0,154	0,054
-551,627	112,551	-0,066	0,059
-550,612	-200,000	-0,007	-0,079
-549,598	575,381	-0,076	-0,138
-548,583	-200,000	-0,006	-0,139
-547,569	-61,208	0,066	-0,020
-546,554	47,248	0,088	-0,060
-545,539	24,332	-0,076	-0,047
-544,525	-200,000	0,003	0,020
-543,510	-200,000	-0,008	-0,032
-542,496	-93,691	-0,100	-0,020
-541,481	693,762	0,036	-0,071
-540,466	509,207	0,073	-0,126
-539,452	280,870	0,022	-0,030
-538,437	-120,215	0,050	0,006
-537,423	-199,512	-0,065	-0,000
-536,408	215,377	0,066	-0,077
-535,393	120,731	-0,053	0,048
-534,379	105,956	-0,087	0,077
-533,364	-200,000	-0,008	0,085
-532,350	46,261	-0,018	-0,012
-531,335	-200,000	0,009	0,063
-530,321	558,158	0,058	0,105
-529,306	-96,022	0,218	0,043
-528,291	800,000	-0,041	-0,104
-527,277	17,490	-0,076	-0,045
-526,262	800,000	-0,053	-0,134
-525,248	800,000	-0,036	-0,075
-524,233	-88,699	-0,088	0,019
-523,218	262,798	0,056	0,072
-522,204	12,791	-0,077	-0,044
-521,189	50,849	0,024	-0,016
-520,175	-121,048	0,052	-0,006
-519,160	-200,000	-0,003	0,051
-518,145	-200,000	0,020	0,074
-517,131	37,876	0,038	-0,025
-516,116	800,000	0,033	0,075
-515,102	-51,484	-0,052	0,018
-514,087	-141,156	-0,034	-0,002
-513,072	-200,000	-0,015	0,156
-512,058	337,402	-0,053	0,077
-511,043	89,522	-0,060	-0,050
-510,029	800,000	-0,061	-0,178
-509,014	800,000	-0,018	0,046
-507,999	39,426	0,062	-0,041
-506,985	-200,000	-0,016	-0,064
-505,970	-200,000	0,002	0,034
-504,956	366,463	-0,071	-0,106
-503,941	80,818	-0,046	0,036
-502,926	1,671	0,060	-0,032
-501,912	-125,660	0,067	-0,007
-500,897	-44,303	-0,062	0,023
-499,883	-200,000	0,001	0,222
-498,868	-200,000	0,000	-0,030
-497,853	-200,000	0,004	-0,021
-496,839	-85,473	0,053	-0,012
-495,824	-156,989	0,166	-0,007
-494,810	218,358	-0,045	0,053
-493,795	-53,933	-0,124	0,041
-492,781	664,523	0,075	-0,144
-491,766	393,658	-0,075	0,116
-490,751	500,317	0,016	0,027
-489,737	68,852	0,083	0,063
-488,722	367,188	0,009	-0,014
-487,708	-91,794	0,117	-0,024
-486,693	800,000	0,070	0,174
-485,678	593,942	-0,033	0,060
-484,664	-50,660	0,131	0,045
-483,649	-133,256	-0,154	-0,014
-482,635	-115,515	0,150	-0,021
-481,620	-121,417	0,140	0,017
-480,605	-115,604	0,148	-0,020
-479,591	49,727	-0,117	0,081
-478,576	-39,102	0,068	-0,026
-477,562	800,000	0,029	0,059
-476,547	-22,010	0,088	-0,039
-475,532	248,831	-0,051	-0,064
-474,518	-42,406	0,160	-0,060
-473,503	156,323	-0,040	-0,041
-472,489	-135,102	-0,224	0,020
-471,474	800,000	-0,034	-0,083
-470,459	-10,836	0,102	0,049
-469,445	-44,586	0,067	0,025
-468,430	0,852	0,089	-0,047
-467,416	-200,000	0,001	-0,069
-466,401	456,033	-0,048	0,079
-465,386	-4,561	-0,046	0,023
-464,372	-125,537	-0,056	0,006
-463,357	-200,000	-0,013	-0,100
-462,343	-200,000	0,024	-0,099
-461,328	22,907	-0,062	0,037
-460,313	-121,021	0,088	0,011
-459,299	-155,564	0,139	0,006
-458,284	800,000	-0,035	-0,114
-457,270	398,384	-0,053	-0,081
-456,255	-177,462	-0,084	0,001
-455,241	-109,312	-0,056	-0,009
-454,226	-200,000	-0,007	-0,075
-453,211	171,001	-0,047	-0,049
-452,197	-200,000	0,010	0,034
-451,182	800,000	0,070	0,176
-450,168	-126,814	-0,106	-0,011
-449,153	-161,266	-0,064	-0,002
-448,138	77,409	-0,057	-0,045
-447,124	-24,902	-0,138	-0,060
-446,109	338,394	0,051	0,074
-445,095	-58,870	-0,010	0,003
-444,080	800,000	0,054	0,122
-443,065	-137,946	-0,070	0,006
-442,051	-200,000	-0,010	-0,052
-441,036	-200,000	-0,010	-0,124
-440,022	-118,072	0,144	-0,019
-439,007	800,000	0,070	-0,167
-437,992	295,775	0,045	-0,060
-436,978	13,747	0,079	0,045
-435,963	366,254	0,061	0,091
-434,949	-200,000	0,008	0,038
-433,934	-200,000	0,019	-0,160
-432,919	215,042	-0,049	-0,057
-431,905	-97,011	-0,131	-0,025
-430,890	32,163	0,049	0,031
-429,876	-97,337	-0,048	-0,009
-428,861	2,368	-0,123	0,065
-427,846	16,253	0,060	0,035
-426,832	150,655	-0,064	0,064
-425,817	241,174	-0,001	0,001
-424,803	-200,000	0,000	-0,055
-423,788	-200,000	0,002	0,010
-422,773	-200,000	-0,003	-0,012
-421,759	800,000	-0,052	0,164
-420,744	-200,000	-0,036	0,140
-419,730	800,000	0,007	-0,020
-418,715	545,439	-0,084	-0,148
-417,701	800,000	0,028	0,067
-416,686	-200,000	0,005	0,020
-415,671	374,989	-0,026	-0,039
-414,657	-200,000	0,003	0,184
-413,642	391,384	-0,020	0,030
-412,628	-200,000	-0,012	-0,052
-411,613	82,961	-0,033	-0,027
-410,598	800,000	-0,014	0,033
-409,584	191,482	0,073	0,081
-408,569	659,104	0,018	0,034
-407,555	740,585	-0,047	0,094
-406,540	-65,019	0,065	-0,019
-405,525	397,466	0,091	-0,140
-404,511	-78,447	-0,061	-0,015
-403,496	-39,874	0,073	-0,028
-402,482	416,339	-0,023	0,036
-401,467	-8,055	0,038	0,019
-400,452	104,985	0,055	0,048
-399,438	-200,000	0,005	-0,061
-398,423	-81,523	-0,128	-0,031
-397,409	-34,614	0,057	0,023
-396,394	-200,000	0,003	-0,039
-395,379	-71,773	-0,174	0,047
-394,365	83,589	0,036	0,029
-393,350	-26,012	0,060	-0,026
-392,336	187,419	-0,073	0,080
-391,321	18,843	-0,032	0,019
-390,306	342,383	-0,034	0,049
-389,292	-64,943	-0,075	0,022
-388,277	190,877	-0,005	0,005
-387,263	-76,800	-0,101	0,026
-386,248	207,870	-0,055	-0,064
-385,233	59,672	0,091	-0,066
-384,219	55,863	0,043	-0,031
-383,204	426,365	-0,064	-0,102
-382,190	71,848	-0,061	-0,047
-381,175	760,947	0,029	-0,059
-380,160	-200,000	-0,001	-0,067
-379,146	13,743	-0,024	-0,014
-378,131	-9,812	0,008	0,004
-377,117	-49,678	0,076	-0,026
-376,102	222,521	0,035	-0,041
-375,088	437,482	-0,049	-0,079
-374,073	154,103	-0,058	0,059
-373,058	334,763	0,016	0,023
-372,044	-200,000	0,016	0,125
-371,029	-127,207	-0,022	-0,002
-370,015	-3,194	-0,012	0,006
-369,000	-71,090	-0,136	-0,037
-367,985	-108,340	0,139	-0,022
-366,971	469,758	-0,074	0,122
-365,956	64,776	-0,120	0,089
-364,942	55,123	0,143	0,101
-363,927	570,849	0,075	0,135
-362,912	-122,559	-0,095	-0,011
-361,898	150,465	0,026	-0,026
-360,883	-200,000	0,010	-0,060
-359,869	-97,021	0,027	-0,005
-358,854	90,622	-0,090	0,074
-357,839	69,404	0,036	-0,027
-356,825	246,762	0,006	-0,008
-355,810	-0,766	-0,061	-0,032
-354,796	800,000	-0,033	0,074
-353,781	136,737	-0,082	-0,079
-352,766	58,898	-0,057	-0,041
-351,752	55,840	0,169	-0,120
-350,737	14,592	0,057	0,033
-349,723	56,443	0,121	0,086
-348,708	413,162	0,031	0,049
-347,693	70,168	0,075	0,057
-346,679	472,790	0,067	0,112
-345,664	-74,501	-0,205	0,054
-344,650	38,333	-0,061	0,040
-343,635	-63,675	0,168	-0,050
-342,620	-13,809	0,192	0,091
-341,606	-200,000	0,004	-0,142
-340,591	481,075	-0,038	-0,064
-339,577	43,936	0,077	0,052
-338,562	17,444	0,096	-0,056
-337,548	-200,000	0,013	-0,057
-336,533	-154,933	-0,014	-0,001
-335,518	-191,117	0,046	-0,000
-334,504	185,118	0,072	-0,078
-333,489	249,481	0,066	-0,082
-332,475	800,000	-0,036	-0,109
-331,460	269,753	0,054	-0,070
-330,445	800,000	-0,041	-0,106
-329,431	102,790	0,072	-0,062
-328,416	-23,141	0,093	0,041
-327,402	-200,000	0,011	0,070
-326,387	-200,000	0,001	0,072
-325,372	-67,617	0,010	0,003
-324,358	-200,000	-0,016	0,062
-323,343	-4,823	-0,049	0,025
-322,329	-137,045	-0,146	0,012
-321,314	-53,761	0,053	0,018
-320,299	122,148	0,078	0,071
-319,285	301,105	-0,037	-0,050
-318,270	800,000	0,025	-0,062
-317,256	800,000	-0,037	-0,109
-316,241	249,263	-0,085	0,106
-315,226	27,166	-0,014	0,009
-314,212	56,180	-0,071	-0,051
-313,197	179,196	0,092	0,098
-312,183	598,955	0,072	0,132
-311,168	-200,000	-0,010	-0,099
-310,153	800,000	0,041	-0,088
-309,139	-200,000	0,012	-0,076
-308,124	-200,000	0,003	0,025
-307,110	800,000	0,017	-0,052
-306,095	-85,482	0,060	-0,014
-305,080	52,554	-0,086	-0,060
-304,066	-200,000	-0,014	0,154
-303,051	332,719	-0,037	-0,052
-302,037	5,615	-0,104	0,056
-301,022	369,111	-0,079	0,117
-300,008	214,866	-0,060	0,070
-298,993	-200,000	-0,007	0,082
-297,978	-34,196	0,128	0,051
-296,964	-200,000	0,007	0,033
-295,949	496,921	-0,078	-0,131
-294,935	39,164	0,130	-0,085
-293,920	77,179	-0,068	-0,053
-292,905	-127,588	-0,026	0,003
-291,891	-107,262	0,128	0,020
-290,876	-38,185	-0,032	0,012
-289,862	-119,876	-0,135	0,017
-288,847	-33,241	0,099	-0,040
-287,832	398,471	-0,049	0,076
-286,818	-200,000	0,010	-0,072
-285,803	800,000	-0,015	0,034
-284,789	-149,840	0,084	0,005
-283,774	160,746	-0,069	0,070
-282,759	-77,367	0,065	-0,016
-281,745	460,096	0,098	-0,160
-280,730	800,000	-0,038	-0,094
-279,716	-200,000	0,000	-0,002
-278,701	800,000	0,089	-0,184
-277,686	538,178	-0,064	0,112
-276,672	18,594	0,170	-0,099
-275,657	-117,133	-0,100	0,013
-274,643	4,845	-0,069	0,037
-273,628	245,276	-0,028	0,034
-272,613	-200,000	-0,023	0,078
-271,599	-100,702	0,070	-0,012
-270,584	-35,371	0,119	0,047
-269,570	-200,000	-0,013	0,052
-268,555	-54,961	0,093	-0,030
-267,540	-200,000	-0,003	-0,012
-266,526	-200,000	0,002	0,016
-265,511	-70,289	-0,114	-0,031
-264,497	491,007	0,024	0,041
-263,482	112,581	0,036	0,032
-262,467	800,000	-0,024	0,063
-261,453	654,457	-0,049	0,092
-260,438	103,057	-0,035	0,030
-259,424	-119,677	-0,150	-0,019
-258,409	-200,000	0,001	-0,086
-257,395	-200,000	-0,010	-0,065
-256,380	12,512	-0,009	-0,005
-255,365	52,568	-0,042	0,029
-254,351	308,399	0,061	-0,084
-253,336	465,303	0,080	0,132
-252,322	492,119	-0,068	-0,114
-251,307	-41,160	-0,011	-0,004
-250,292	149,928	-0,087	0,086
-249,278	800,000	0,015	-0,044
-248,263	91,882	-0,140	0,115
-247,249	1,110	0,169	0,089
-246,234	642,768	-0,008	-0,015
-245,219	-88,350	-0,044	0,009
-244,205	470,610	-0,030	0,049
-243,190	-68,535	0,125	0,035
-242,176	-200,000	0,019	0,079
-241,161	133,197	0,039	0,037
-240,146	285,013	-0,035	0,047
-239,132	26,296	0,037	-0,022
-238,117	-200,000	0,008	-0,041
-237,103	-200,000	0,027	-0,106
-236,088	90,382	0,083	0,067
-235,073	418,200	0,051	-0,079
-234,059	800,000	-0,054	0,123
-233,044	-103,686	-0,070	-0,012
-232,030	-159,358	-0,170	-0,007
-231,015	615,768	0,118	0,216
-230,000	-200,000	-0,011	0,082
-228,986	-200,000	0,003	-0,112
-227,971	41,590	0,117	0,077
-226,957	800,000	-0,053	0,150
-225,942	800,000	-0,011	0,025
-224,927	247,584	-0,068	-0,084
-223,913	619,033	-0,026	-0,049
-222,898	-200,000	0,018	-0,070
-221,884	-24,018	-0,067	-0,029
-220,869	422,768	-0,081	-0,128
-219,855	-200,000	0,001	0,093
-218,840	5,054	0,105	0,056
-217,825	-200,000	-0,046	-0,185
-216,811	-189,922	-0,044	-0,000
-215,796	19,207	-0,061	0,036
-214,782	-173,081	0,078	0,002
-213,767	-200,000	0,038	0,139
-212,752	306,800	0,093	0,126
-211,738	-200,000	-0,002	-0,168
-210,723	800,000	-0,049	-0,115
-209,709	-181,758	-0,064	-0,001
-208,694	-92,908	-0,117	-0,024
-207,679	800,000	0,038	-0,091
-206,665	-12,509	0,080	-0,038
-205,650	800,000	0,015	-0,034
-204,636	100,044	-0,097	0,082
-203,621	-200,000	0,005	-0,072
-202,606	-136,691	-0,162	0,013
-201,592	800,000	0,053	0,111
-200,577	655,783	0,009	0,017
-199,563	-200,000	0,016	-0,070
-198,548	-200,000	-0,005	0,182
-197,533	150,404	0,084	0,083
-196,519	-33,778	0,108	0,043
-195,504	208,147	-0,090	0,102
-194,490	-200,000	0,005	-0,170
-193,475	51,323	0,077	-0,053
-192,460	-26,790	-0,039	0,017
-191,446	-114,349	0,077	-0,011
-190,431	-157,719	0,003	-0,000
-189,417	-200,000	-0,023	0,142
-188,402	-200,000	-0,013	-0,061
-187,387	-200,000	0,030	-0,112
-186,373	99,723	0,087	-0,073
-185,358	-200,000	-0,007	0,082
-184,344	800,000	0,009	-0,020
-183,329	-200,000	0,046	0,221
-182,315	483,831	0,047	-0,079
-181,300	-72,300	0,065	-0,018
-180,285	800,000	0,011	0,026
-179,271	8,148	-0,044	0,024
-178,256	-200,000	0,021	-0,090
-177,242	41,583	-0,043	-0,029
-176,227	-93,832	0,099	0,020
-175,212	-171,323	0,099	0,002
-174,198	-8,765	-0,061	0,030
-173,183	89,464	-0,020	-0,016
-172,169	165,091	0,028	0,029
-171,154	168,954	-0,028	0,029
-170,139	784,247	0,033	0,067
-169,125	800,000	-0,032	-0,075
-168,110	-90,487	0,120	-0,025
-167,096	-200,000	-0,002	0,089
-166,081	772,669	0,052	0,105
-165,066	800,000	0,031	-0,091
-164,052	-200,000	-0,018	-0,081
-163,037	272,393	0,029	-0,037
-162,023	275,555	0,036	-0,047
-161,008	-21,437	0,138	0,061
-159,993	201,939	-0,107	-0,121
-158,979	-200,000	0,017	0,101
-157,964	64,596	-0,139	-0,102
-156,950	-34,825	-0,102	-0,041
-155,935	800,000	0,040	-0,083
-154,920	-200,000	-0,018	0,075
-153,906	-200,000	0,013	0,122
-152,891	320,016	-0,023	0,032
-151,877	800,000	-0,044	-0,106
-150,862	608,053	-0,027	-0,050
-149,847	297,214	-0,014	0,019
-148,833	-200,000	-0,008	-0,101
-147,818	-155,790	0,105	-0,005
-146,804	468,966	0,036	0,058
-145,789	112,135	-0,031	-0,028
-144,775	-200,000	0,011	-0,098
-143,760	-200,000	0,008	0,039
-142,745	-28,840	-0,022	-0,009
-141,731	743,651	-0,047	-0,092
-140,716	-200,000	0,015	0,210
-139,702	157,466	0,064	0,065
-138,687	-31,963	0,059	-0,024
-137,672	-125,707	0,097	-0,011
-136,658	121,772	-0,082	-0,075
-135,643	-200,000	-0,017	-0,136
-134,629	-153,786	-0,114	0,006
-133,614	800,000	-0,015	0,038
-132,599	736,058	0,073	0,143
-131,585	-200,000	-0,011	-0,037
-130,570	7,998	0,068	-0,037
-129,556	7,251	0,017	0,009
-128,541	749,911	-0,076	-0,150
-127,526	-36,989	-0,076	-0,030
-126,512	37,077	-0,012	-0,008
-125,497	12,635	0,048	-0,027
-124,483	246,147	-0,041	0,051
-123,468	736,752	-0,069	-0,136
-122,453	236,872	-0,077	-0,092
-121,439	-200,000	0,004	-0,022
-120,424	155,053	0,052	-0,052
-119,410	-42,751	0,115	-0,042
-118,395	-198,232	-0,082	-0,000
-117,380	251,519	-0,038	-0,047
-116,366	-200,000	-0,017	0,067
-115,351	447,795	0,095	0,153
-114,337	-200,000	-0,002	-0,062
-113,322	528,791	0,070	-0,120
-112,307	-72,273	0,063	-0,017
-111,293	262,638	0,095	0,120
-110,278	-200,000	-0,009	0,032
-109,264	93,856	-0,082	-0,068
-108,249	800,000	-0,046	-0,135
-107,234	-90,625	-0,157	0,033
-106,220	-153,947	0,047	-0,002
-105,205	50,991	-0,068	-0,047
-104,191	-200,000	0,011	-0,046
-103,176	-15,483	0,075	-0,035
-102,162	171,994	-0,108	0,113
-101,147	-91,005	0,190	-0,039
-100,132	10,056	-0,022	0,012
-99,118	-60,636	-0,085	-0,026
-98,103	217,848	-0,068	-0,079
-97,089	629,376	0,057	0,106
-96,074	-200,000	-0,009	0,032
-95,059	86,121	-0,093	0,075
-94,045	24,318	-0,100	-0,060
-93,030	-7,957	-0,106	-0,052
-92,016	526,706	-0,053	0,090
-91,001	-200,000	-0,002	-0,052
-89,986	66,963	0,141	-0,105
-88,972	800,000	0,033	0,093
-87,957	-200,000	-0,015	0,059
-86,943	13,344	-0,077	0,043
-85,928	56,636	-0,014	-0,010
-84,913	36,889	0,067	-0,043
-83,899	-47,468	-0,005	0,002
-82,884	-22,118	0,102	0,045
-81,870	38,104	0,074	0,048
-80,855	134,053	-0,089	0,084
-79,840	132,996	-0,112	0,105
-78,826	518,211	0,062	-0,106
-77,811	-200,000	0,003	-0,080
-76,797	-182,011	0,103	0,001
-75,782	800,000	-0,041	0,085
-74,767	-200,000	-0,003	-0,104
-73,753	800,000	-0,010	0,031
-72,738	203,321	-0,115	0,129
-71,724	175,022	-0,067	0,071
-70,709	-153,099	0,073	0,004
-69,694	206,434	0,035	0,040
-68,680	-113,487	0,092	0,013
-67,665	269,734	0,051	0,065
-66,651	90,760	0,026	0,021
-65,636	-125,104	-0,067	-0,007
-64,622	-200,000	0,028	-0,124
-63,607	654,283	0,043	-0,080
-62,592	-200,000	0,019	-0,129
-61,578	-200,000	0,023	-0,092
-60,563	-10,203	0,012	-0,006
-59,549	-133,201	-0,064	0,006
-58,534	-161,389	-1,298	-0,048
-57,519	554,480	-0,808	-1,416
-56,505	-200,000	-0,741	-4,357
-55,490	5,120	0,517	-0,275
-54,476	800,000	4,913	11,721
-53,461	-200,000	14,033	254,723
-52,446	-200,000	694,775	2263,577
-51,432	598,393	1624,787	2934,896
-50,417	117,562	1633,484	1458,040
-49,403	73,565	1287,519	977,192
-48,388	37,344	1023,667	656,787
-47,373	23,886	982,151	585,858
-46,359	23,077	971,581	576,873
-45,344	22,081	967,226	571,009
-44,330	22,049	965,719	569,992
-43,315	21,834	964,349	568,460
-42,300	21,914	963,207	568,025
-41,286	21,894	962,205	567,348
-40,271	21,858	961,332	566,693
-39,257	21,842	960,388	566,064
-38,242	21,811	959,472	565,399
-37,227	21,837	958,655	564,979
-36,213	21,780	957,635	564,172
-35,198	21,812	956,644	563,667
-34,184	21,851	956,368	563,610
-33,169	21,853	955,358	563,000
-32,154	21,926	954,321	562,602
-31,140	21,855	953,569	561,906
-30,125	21,896	952,702	561,506
-29,111	21,900	951,834	560,985
-28,096	21,889	951,119	560,504
-27,082	21,924	950,399	560,171
-26,067	21,904	949,606	559,617
-25,052	21,868	949,088	559,174
-24,038	21,894	948,255	558,745
-23,023	21,873	947,753	558,358
-22,009	21,847	947,050	557,840
-20,994	21,918	946,367	557,642
-19,979	21,869	945,778	557,116
-18,965	21,902	945,214	556,869
-17,950	21,843	944,735	556,373
-16,936	21,818	943,884	555,772
-15,921	21,799	943,090	555,221
-14,906	21,751	942,416	554,651
-13,892	21,787	941,677	554,308
-12,877	21,755	941,129	553,860
-11,863	21,696	940,674	553,385
-10,848	21,744	940,141	553,201
-9,833	21,798	939,687	553,083
-8,819	21,854	939,016	552,845
-7,804	21,764	938,407	552,177
-6,790	21,736	937,651	551,624
-5,775	21,823	936,984	551,485
-4,760	21,758	936,591	551,026
-3,746	21,733	935,841	550,484
-2,731	21,607	935,153	549,658
-1,717	21,559	934,548	549,130
-0,702	21,559	933,826	548,683
0,313	21,363	933,120	548,479
1,327	23,886	930,759	554,975
2,342	31,500	809,049	503,054
3,356	26,227	509,604	307,821
4,371	1,624	374,501	194,823
5,386	-1,319	357,697	182,440
6,400	-2,382	351,597	178,026
7,415	-2,926	348,921	176,000
8,429	-2,915	347,547	175,305
9,444	-2,924	346,617	174,810
10,459	-2,888	345,850	174,450
11,473	-2,955	345,365	174,110
12,488	-2,844	344,856	173,969
13,502	-2,975	344,046	173,390
14,517	-2,899	343,624	173,252
15,531	-2,849	343,162	173,063
16,546	-2,734	342,760	172,981
17,561	-2,795	342,295	172,658
18,575	-2,719	341,956	172,561
19,590	-2,899	341,548	172,128
20,604	-2,678	341,063	172,128
21,619	-2,875	340,824	171,761
22,634	-2,907	340,455	171,522
23,648	-2,667	340,010	171,564
24,663	-2,852	339,736	171,194
25,677	-2,683	339,463	171,239
26,692	-2,880	339,287	170,904
27,707	-2,820	338,950	170,790
28,721	-2,912	338,751	170,567
29,736	-2,848	338,371	170,434
30,750	-2,730	338,047	170,393
31,765	-2,707	337,795	170,278
32,780	-2,640	337,375	170,128
33,794	-2,891	337,296	169,782
34,809	-2,587	336,854	169,897
35,823	-2,808	336,530	169,463
36,838	-2,792	336,307	169,355
37,853	-2,804	335,945	169,143
38,867	-2,703	335,699	169,120
39,882	-2,819	335,463	168,852
40,896	-2,908	335,267	168,636
41,911	-2,850	335,029	168,568
42,926	-2,764	334,697	168,485
43,940	-2,729	334,389	168,355
44,955	-2,790	333,998	168,074
45,969	-2,861	333,908	167,931
46,984	-2,871	333,687	167,794
47,999	-2,917	333,390	167,577
49,013	-2,718	333,114	167,651
50,028	-2,949	332,977	167,303
51,042	-2,938	332,558	167,090
52,057	-2,878	332,321	167,025
53,071	-2,836	331,958	166,876
54,086	-2,826	331,765	166,775
55,101	-2,850	331,580	166,640
56,115	-2,771	331,262	166,555
57,130	-2,875	331,011	166,296
58,144	-2,767	330,849	166,322
59,159	-2,795	330,506	166,103
60,174	-2,656	330,185	166,085
61,188	-2,743	329,985	165,870
62,203	-2,795	329,709	165,658
63,217	-2,780	329,502	165,556
64,232	-2,655	329,200	165,531
65,247	-2,750	328,850	165,233
66,261	-2,838	328,603	164,996
67,276	-2,688	328,397	165,045
68,290	-2,765	328,043	164,766
69,305	-2,760	327,955	164,713
70,320	-2,733	327,646	164,574
71,334	-2,798	327,343	164,333
72,349	-2,826	327,236	164,234
73,363	-2,811	326,923	164,079
74,378	-2,720	326,634	164,021
75,393	-2,744	326,411	163,868
76,407	-2,785	326,198	163,701
77,422	-2,614	325,833	163,694
78,436	-2,765	325,694	163,441
79,451	-2,658	325,334	163,365
80,466	-2,821	325,102	163,052
81,480	-2,689	324,808	163,037
82,495	-2,652	324,589	162,953
83,509	-2,729	324,381	162,749
84,524	-2,718	324,174	162,643
85,539	-2,751	323,993	162,500
86,553	-2,710	323,655	162,362
87,568	-2,761	323,572	162,250
88,582	-2,749	323,233	162,079
89,597	-2,722	322,850	161,902
90,611	-2,831	322,714	161,699
91,626	-2,823	322,487	161,580
92,641	-2,852	322,383	161,481
93,655	-2,759	322,013	161,383
94,670	-2,931	321,834	161,090
95,684	-2,818	321,494	161,030
96,699	-2,882	321,327	160,861
97,714	-2,649	321,176	161,028
98,728	-2,665	320,908	160,862
99,743	-2,734	320,694	160,665
100,757	-2,753	320,328	160,446
101,772	-2,776	320,078	160,281
102,787	-2,823	319,938	160,146
103,801	-2,708	319,647	160,110
104,816	-2,746	319,431	159,947
105,830	-2,768	319,225	159,806
106,845	-2,758	319,085	159,733
107,860	-2,780	318,854	159,579
108,874	-2,661	318,528	159,531
109,889	-2,786	318,261	159,247
110,903	-2,917	318,041	158,980
111,918	-2,646	317,837	159,158
112,933	-2,870	317,709	158,836
113,947	-2,804	317,347	158,713
114,962	-2,665	317,166	158,759
115,976	-2,840	316,941	158,443
116,991	-2,764	316,829	158,455
118,006	-2,620	316,396	158,380
119,020	-2,676	316,231	158,223
120,035	-2,827	316,268	158,064
121,049	-2,716	315,949	158,010
122,064	-2,715	315,646	157,845
123,079	-2,673	315,540	157,824
124,093	-2,760	315,138	157,515
125,108	-2,764	314,934	157,395
126,122	-2,824	314,763	157,231
127,137	-2,727	314,559	157,219
128,151	-2,798	314,337	157,017
129,166	-2,787	314,100	156,897
130,181	-2,578	313,755	156,934
131,195	-2,657	313,464	156,690
132,210	-2,641	313,357	156,641
133,224	-2,798	313,163	156,361
134,239	-2,685	312,835	156,305
135,254	-2,713	312,797	156,241
136,268	-2,804	312,617	156,041
137,283	-2,886	312,274	155,769
138,297	-2,800	311,900	155,660
139,312	-2,902	311,910	155,542
140,327	-2,821	311,452	155,385
141,341	-2,754	311,308	155,371
142,356	-2,870	311,124	155,142
143,370	-2,675	310,951	155,249
144,385	-2,712	310,713	155,077
145,400	-2,616	310,386	155,001
146,414	-2,764	310,147	154,713
147,429	-2,756	310,081	154,674
148,443	-2,728	309,906	154,603
149,458	-2,790	309,640	154,390
150,473	-2,675	309,521	154,439
151,487	-2,711	309,219	154,236
152,502	-2,787	308,842	153,954
153,516	-2,666	308,659	153,976
154,531	-2,718	308,617	153,887
155,546	-2,541	308,375	153,938
156,560	-2,539	308,056	153,767
157,575	-2,700	307,919	153,517
158,589	-2,735	307,615	153,315
159,604	-2,464	307,273	153,414
160,619	-2,699	307,297	153,167
161,633	-2,558	306,940	153,123
162,648	-2,593	306,963	153,083
163,662	-2,588	306,673	152,931
164,677	-2,783	306,469	152,612
165,692	-2,601	306,277	152,692
166,706	-2,623	305,933	152,485
167,721	-2,655	306,024	152,483
168,735	-2,421	305,545	152,473
169,750	-2,781	305,538	152,083
170,764	-2,643	305,355	152,121
171,779	-2,798	305,169	151,855
172,794	-2,661	304,889	151,843
173,808	-2,629	304,602	151,720
174,823	-2,747	304,474	151,521
175,837	-2,629	304,193	151,489
176,852	-2,612	303,996	151,395
177,867	-2,555	303,780	151,333
178,881	-2,677	303,721	151,164
179,896	-2,846	303,435	150,834
180,910	-2,510	303,263	151,081
181,925	-2,783	303,035	150,674
182,940	-2,718	302,745	150,583
183,954	-2,526	302,549	150,669
184,969	-2,533	302,509	150,628
185,983	-2,483	302,143	150,484
186,998	-2,661	302,074	150,254
188,013	-2,516	301,773	150,239
189,027	-2,490	301,693	150,213
190,042	-2,601	301,493	149,986
191,056	-2,574	301,154	149,831
192,071	-2,759	301,058	149,582
193,086	-2,635	300,774	149,553
194,100	-2,494	300,492	149,544
195,115	-2,702	300,319	149,232
196,129	-2,490	299,967	149,259
197,144	-2,637	299,920	149,074
198,159	-2,594	299,723	149,007
199,173	-2,581	299,561	148,925
200,188	-2,733	299,427	148,691
201,202	-2,640	298,988	148,554
202,217	-2,704	298,993	148,478
203,232	-2,587	298,550	148,364
204,246	-2,509	298,368	148,338
205,261	-2,513	298,267	148,271
206,275	-2,672	297,993	147,961
207,290	-2,525	297,832	148,017
208,304	-2,534	297,733	147,946
209,319	-2,548	297,540	147,822
210,334	-2,616	297,181	147,563
211,348	-2,734	297,114	147,397
212,363	-2,653	296,955	147,387
213,377	-2,668	296,709	147,236
214,392	-2,583	296,427	147,169
215,407	-2,684	296,343	147,012
216,421	-2,601	296,082	146,952
217,436	-2,638	296,039	146,881
218,450	-2,674	295,625	146,627
219,465	-2,662	295,557	146,592
220,480	-2,629	295,241	146,454
221,494	-2,697	295,230	146,369
222,509	-2,718	295,015	146,228
223,523	-2,624	294,737	146,171
224,538	-2,620	294,585	146,086
225,553	-2,552	294,297	145,998
226,567	-2,800	294,209	145,695
227,582	-2,449	293,926	145,891
228,596	-2,568	293,808	145,701
229,611	-2,546	293,628	145,620
230,626	-2,545	293,436	145,513
231,640	-2,582	293,152	145,323
232,655	-2,502	292,785	145,207
233,669	-2,552	292,769	145,137
234,684	-2,614	292,589	144,973
235,699	-2,725	292,396	144,755
236,713	-2,634	292,272	144,770
237,728	-2,610	291,946	144,620
238,742	-2,681	291,851	144,490
239,757	-2,820	291,536	144,185
240,772	-2,555	291,364	144,347
241,786	-2,611	291,182	144,189
242,801	-2,597	291,090	144,144
243,815	-2,699	290,876	143,925
244,830	-2,687	290,636	143,805
245,844	-2,628	290,384	143,726
246,859	-2,677	290,204	143,576
247,874	-2,606	289,987	143,525
248,888	-2,651	289,856	143,404
249,903	-2,689	289,754	143,303
250,917	-2,590	289,556	143,289
251,932	-2,753	289,402	143,040
252,947	-2,554	289,087	143,067
253,961	-2,725	288,693	142,692
254,976	-2,857	288,517	142,464
255,990	-3,029	288,401	142,227
257,005	-2,880	288,493	142,404
258,020	-0,707	289,053	144,785
259,034	0,919	289,375	146,518
260,049	1,361	289,541	147,019
261,063	1,673	289,646	147,363
262,078	2,224	289,358	147,740
263,093	2,295	289,422	147,828
264,107	2,536	289,243	147,958
265,122	2,767	289,079	148,085
266,136	2,678	289,022	147,956
267,151	2,927	288,747	148,044
268,166	2,882	288,590	147,907
269,180	2,793	288,440	147,730
270,195	3,041	288,192	147,830
271,209	2,802	288,072	147,525
272,224	2,874	287,750	147,416
273,239	2,676	287,648	147,159
274,253	2,569	287,460	146,946
275,268	2,574	287,234	146,823
276,282	2,709	286,890	146,764
277,297	2,696	286,672	146,627
278,312	2,860	286,617	146,743
279,326	2,822	286,427	146,596
280,341	2,710	286,286	146,404
281,355	2,611	286,183	146,243
282,370	2,668	285,831	146,104
283,384	2,628	285,657	145,964
284,399	2,802	285,367	145,970
285,414	2,602	285,307	145,734
286,428	2,793	285,129	145,813
287,443	2,600	285,026	145,563
288,457	2,480	284,689	145,263
289,472	2,444	284,586	145,164
290,487	2,490	284,362	145,080
291,501	2,555	284,148	145,020
292,516	2,303	284,103	144,744
293,530	2,302	283,839	144,596
294,545	2,506	283,637	144,674
295,560	2,356	283,536	144,467
296,574	2,409	283,165	144,315
297,589	2,349	283,003	144,162
298,603	2,382	282,804	144,080
299,618	2,563	282,592	144,131
300,633	2,573	282,507	144,084
301,647	2,465	282,303	143,865
302,662	2,456	282,306	143,845
303,676	2,517	282,137	143,803
304,691	2,659	281,933	143,820
305,706	2,689	281,793	143,765
306,720	2,656	281,478	143,560
307,735	2,821	281,327	143,626
308,749	2,730	281,222	143,474
309,764	2,609	281,001	143,234
310,779	2,593	280,748	143,077
311,793	2,572	280,628	142,984
312,808	2,642	280,291	142,865
313,822	2,718	280,150	142,851
314,837	2,640	280,009	142,694
315,852	2,659	279,859	142,623
316,866	2,875	279,606	142,683
317,881	2,667	279,624	142,485
318,895	2,730	279,234	142,333
319,910	2,649	279,095	142,173
320,925	2,559	278,874	141,964
321,939	2,445	278,969	141,893
322,954	2,793	278,707	142,072
323,968	2,639	278,689	141,907
324,983	2,779	278,294	141,823
325,997	2,810	278,162	141,772
327,012	2,658	277,944	141,507
328,027	2,765	277,754	141,497
329,041	3,011	277,605	141,637
330,056	2,860	277,323	141,340
331,070	2,881	277,200	141,283
332,085	2,870	277,052	141,186
333,100	2,939	276,816	141,117
334,114	2,805	276,656	140,899
335,129	2,765	276,570	140,806
336,143	2,547	276,303	140,456
337,158	2,885	276,066	140,634
338,173	2,686	276,093	140,453
339,187	2,777	275,791	140,370
340,202	2,780	275,741	140,335
341,216	2,756	275,441	140,147
342,231	2,596	275,317	139,925
343,246	2,959	274,999	140,084
344,260	2,875	274,986	139,988
345,275	2,764	274,846	139,802
346,289	2,812	274,560	139,688
347,304	2,710	274,564	139,584
348,319	2,887	274,298	139,599
349,333	2,799	274,046	139,377
350,348	2,844	273,789	139,275
351,362	2,873	273,633	139,210
352,377	2,648	273,566	138,958
353,392	2,759	273,359	138,942
354,406	2,666	273,293	138,811
355,421	191,382	1348,194	1428,333
356,435	154,531	1479,260	1428,467
