DTS Sentinel unit serial number:	SN410029Multiplexer serial number:	ORYXHardware model number:	OX2-SRSoftware version number:	ORYX F/W v4,00 Oryx Data Collector v3.7.2.0data status	okinstallation	B4 Nyhavnadifferential loss correction	single-endedforward channel	channel 2reverse channel	N/Adate	2023/12/16time	03:25:13forward acquisition time	300,00reverse acquisition time	0,00gamma	499,1914k internal	0,3128k external	0,3128temperature offset calibration	1,0000default loss term (dB/km)	0,3820temperature slope calibration	1,0000multiplexer offset coefficient	1,0000multiplexer slope coefficient	1,0000fibre end	0,00T internal ref (°C)	22,00T ext. ref 1 (°C)	7,12T ext. ref 2 (°C)	7,29length (m)	temperature (°C)	Stokes	anti-Stokes-744,400	-200,000	-0,008	0,039
-743,385	-137,289	-0,202	0,017
-742,371	307,290	0,048	0,066
-741,356	213,545	-0,159	0,187
-740,342	800,000	0,014	-0,041
-739,327	682,839	-0,123	0,239
-738,312	347,699	-0,049	-0,072
-737,298	-160,352	-0,249	-0,010
-736,283	-11,336	0,082	-0,040
-735,269	-138,369	-0,106	-0,009
-734,254	-12,181	0,075	0,037
-733,239	-49,426	-0,386	-0,136
-732,225	-55,860	0,156	-0,051
-731,210	208,112	0,101	0,118
-730,196	-165,848	-0,105	0,003
-729,181	-45,688	-0,138	0,050
-728,167	302,644	0,063	-0,088
-727,152	76,272	-0,091	-0,072
-726,137	800,000	0,048	-0,120
-725,123	544,537	-0,034	0,060
-724,108	800,000	-0,066	-0,142
-723,094	-14,270	-0,226	-0,108
-722,079	151,425	-0,135	-0,136
-721,064	-200,000	0,013	-0,083
-720,050	325,320	0,110	-0,157
-719,035	243,224	-0,094	-0,117
-718,021	536,049	-0,029	-0,051
-717,006	-200,000	-0,024	-0,152
-715,991	46,987	-0,062	-0,042
-714,977	113,499	-0,122	0,110
-713,962	-75,522	-0,032	-0,008
-712,948	-200,000	0,024	-0,081
-711,933	437,757	-0,072	-0,117
-710,918	800,000	-0,030	0,096
-709,904	-200,000	-0,001	-0,089
-708,889	800,000	-0,035	-0,075
-707,875	-140,295	-0,177	0,014
-706,860	13,511	-0,085	0,049
-705,845	-117,529	-0,067	0,009
-704,831	-145,387	-0,107	0,007
-703,816	280,694	0,049	-0,066
-702,802	-115,782	-0,048	-0,007
-701,787	-146,539	-0,114	-0,007
-700,772	-33,427	-0,065	-0,027
-699,758	800,000	0,023	-0,072
-698,743	-11,692	-0,057	0,028
-697,729	-21,137	-0,088	-0,040
-696,714	800,000	0,028	0,084
-695,699	800,000	-0,015	-0,042
-694,685	246,773	0,019	0,024
-693,670	105,699	-0,071	-0,062
-692,656	81,908	0,050	-0,040
-691,641	-200,000	0,002	-0,042
-690,627	-200,000	0,000	-0,006
-689,612	-144,918	0,186	-0,012
-688,597	345,670	-0,035	0,051
-687,583	-137,493	-0,170	-0,014
-686,568	307,693	-0,112	-0,156
-685,554	10,875	-0,046	-0,026
-684,539	-73,022	0,082	0,022
-683,524	-78,235	0,036	0,009
-682,510	-200,000	0,010	-0,057
-681,495	75,411	-0,084	-0,066
-680,481	-200,000	-0,002	0,029
-679,466	-103,780	0,083	-0,014
-678,451	-121,384	0,129	-0,016
-677,437	-137,915	-0,100	-0,008
-676,422	46,373	-0,030	-0,021
-675,408	243,245	-0,014	0,018
-674,393	26,502	-0,080	-0,049
-673,378	800,000	-0,082	-0,223
-672,364	-143,153	-0,109	-0,008
-671,349	800,000	-0,040	-0,121
-670,335	-101,514	0,153	-0,027
-669,320	249,033	0,026	0,033
-668,305	154,516	-0,021	-0,021
-667,291	197,697	0,031	0,035
-666,276	-74,056	0,033	0,009
-665,262	545,494	-0,100	-0,178
-664,247	-200,000	0,003	-0,044
-663,232	212,555	-0,122	-0,143
-662,218	42,650	0,104	0,070
-661,203	800,000	0,012	0,039
-660,189	108,728	0,080	-0,071
-659,174	422,135	0,031	-0,050
-658,159	-200,000	0,003	0,068
-657,145	-200,000	-0,016	-0,156
-656,130	-200,000	0,007	-0,100
-655,116	-88,437	-0,134	0,029
-654,101	119,724	0,102	0,094
-653,086	-107,637	0,073	-0,012
-652,072	800,000	-0,053	-0,109
-651,057	-93,604	-0,065	-0,013
-650,043	-25,104	-0,184	-0,080
-649,028	363,301	0,027	0,040
-648,014	-81,906	0,075	-0,018
-646,999	81,808	-0,072	-0,058
-645,984	-200,000	0,001	-0,007
-644,970	360,999	0,074	-0,111
-643,955	179,848	-0,024	-0,027
-642,941	-200,000	0,013	-0,122
-641,926	65,250	0,144	0,108
-640,911	-147,079	0,065	-0,004
-639,897	3,287	-0,081	-0,043
-638,882	800,000	-0,045	0,126
-637,868	-94,685	0,103	-0,020
-636,853	-44,595	-0,099	-0,036
-635,838	6,379	0,198	-0,109
-634,824	-200,000	-0,028	-0,124
-633,809	-91,017	0,131	0,028
-632,795	-200,000	-0,005	0,053
-631,780	4,483	0,154	-0,084
-630,765	-150,052	-0,100	-0,006
-629,751	62,114	-0,055	0,040
-628,736	-200,000	-0,003	-0,077
-627,722	292,261	-0,061	-0,083
-626,707	-200,000	0,022	-0,082
-625,692	260,821	0,024	0,031
-624,678	-200,000	-0,010	0,122
-623,663	800,000	-0,029	0,068
-622,649	800,000	0,029	-0,090
-621,634	86,826	-0,120	-0,098
-620,619	-200,000	0,013	0,056
-619,605	-200,000	-0,040	0,187
-618,590	-200,000	-0,012	-0,138
-617,576	-108,248	-0,136	-0,022
-616,561	800,000	0,055	0,126
-615,546	-200,000	0,025	-0,092
-614,532	8,869	0,083	-0,046
-613,517	-29,448	-0,074	-0,031
-612,503	411,337	-0,038	0,060
-611,488	-134,233	-0,056	0,005
-610,474	-63,793	-0,058	0,017
-609,459	257,628	-0,081	-0,104
-608,444	288,015	-0,095	-0,128
-607,430	-127,198	-0,032	0,003
-606,415	123,752	0,053	-0,049
-605,401	800,000	-0,025	0,083
-604,386	800,000	-0,006	-0,019
-603,371	800,000	0,073	0,158
-602,357	-200,000	-0,025	-0,093
-601,342	-63,167	0,089	-0,027
-600,328	426,985	-0,090	-0,144
-599,313	179,744	0,050	-0,055
-598,298	-200,000	-0,001	0,049
-597,284	17,721	0,076	-0,045
-596,269	-15,312	0,064	-0,030
-595,255	800,000	-0,045	-0,097
-594,240	368,217	-0,052	0,078
-593,225	232,200	-0,131	-0,159
-592,211	208,423	0,102	-0,119
-591,196	221,109	0,090	-0,108
-590,182	36,776	0,057	-0,037
-589,167	-200,000	-0,006	-0,047
-588,152	-116,531	0,032	-0,004
-587,138	219,089	0,080	-0,095
-586,123	-96,043	-0,153	-0,030
-585,109	53,210	0,012	0,009
-584,094	114,489	-0,028	-0,025
-583,079	136,689	0,082	0,079
-582,065	-56,301	0,014	-0,005
-581,050	-71,662	0,111	-0,030
-580,036	122,292	-0,066	0,061
-579,021	-200,000	-0,019	-0,069
-578,006	-23,335	0,033	0,015
-576,992	-200,000	0,013	-0,047
-575,977	-103,368	0,029	0,005
-574,963	211,882	0,090	0,105
-573,948	-200,000	0,026	0,086
-572,934	-73,543	0,044	0,012
-571,919	800,000	-0,072	-0,162
-570,904	-120,187	-0,126	0,016
-569,890	-139,898	-0,123	-0,009
-568,875	-65,113	-0,062	0,018
-567,861	738,362	0,034	0,068
-566,846	-18,627	-0,120	0,055
-565,831	-70,393	-0,093	-0,026
-564,817	800,000	-0,024	-0,069
-563,802	-35,167	-0,110	0,044
-562,788	180,319	0,009	0,010
-561,773	-200,000	0,011	-0,074
-560,758	270,457	-0,124	0,161
-559,744	100,610	0,090	-0,077
-558,729	179,276	0,027	0,029
-557,715	-99,374	0,148	0,027
-556,700	601,372	-0,039	-0,071
-555,685	-136,574	-0,049	0,004
-554,671	-71,057	-0,032	0,009
-553,656	-78,033	0,115	-0,029
-552,642	-200,000	-0,015	0,065
-551,627	-200,000	0,003	0,030
-550,612	800,000	0,069	0,164
-549,598	-9,527	-0,083	0,041
-548,583	185,370	-0,047	-0,052
-547,569	-176,269	0,060	-0,001
-546,554	-200,000	-0,014	-0,073
-545,539	800,000	-0,012	-0,039
-544,525	6,095	-0,106	0,058
-543,510	628,313	-0,064	-0,120
-542,496	39,054	-0,120	-0,079
-541,481	275,644	-0,045	-0,059
-540,466	390,339	0,119	-0,182
-539,452	-78,498	-0,118	-0,030
-538,437	378,488	0,065	0,099
-537,423	-200,000	-0,008	0,135
-536,408	-200,000	0,001	0,076
-535,393	-200,000	0,008	0,098
-534,379	263,060	-0,057	0,073
-533,364	-133,272	-0,080	-0,007
-532,350	-200,000	0,023	-0,106
-531,335	-200,000	0,017	0,103
-530,321	-35,679	-0,062	-0,025
-529,306	800,000	0,024	0,061
-528,291	-36,689	-0,085	-0,033
-527,277	-55,241	0,016	-0,005
-526,262	-200,000	-0,007	-0,062
-525,248	-111,540	-0,031	-0,005
-524,233	800,000	-0,004	0,012
-523,218	-24,306	0,075	-0,033
-522,204	800,000	-0,039	0,096
-521,189	-14,158	-0,119	-0,056
-520,175	-8,625	-0,072	0,035
-519,160	95,102	0,072	-0,061
-518,145	64,804	0,046	-0,034
-517,131	-200,000	-0,019	0,083
-516,116	-25,798	-0,088	-0,038
-515,102	326,949	-0,035	-0,049
-514,087	-200,000	-0,014	0,076
-513,072	800,000	-0,033	-0,082
-512,058	45,461	0,079	0,054
-511,043	-9,652	0,089	0,043
-510,029	5,092	0,091	-0,049
-509,014	724,154	-0,027	0,053
-507,999	-200,000	0,002	0,054
-506,985	-35,297	0,046	-0,018
-505,970	-104,010	-0,104	0,018
-504,956	-2,986	-0,078	-0,040
-503,941	-83,764	0,080	-0,019
-502,926	5,398	0,063	0,034
-501,912	-200,000	-0,014	0,082
-500,897	21,124	0,018	-0,011
-499,883	-200,000	0,001	-0,074
-498,868	233,443	-0,052	0,063
-497,853	87,077	-0,147	-0,120
-496,839	260,719	0,053	-0,067
-495,824	37,449	0,071	0,046
-494,810	109,134	-0,039	0,034
-493,795	25,470	0,084	0,052
-492,781	-200,000	-0,004	-0,014
-491,766	800,000	0,052	0,119
-490,751	-87,428	-0,109	-0,024
-489,737	-140,087	-0,124	-0,009
-488,722	383,192	0,031	-0,047
-487,708	20,172	-0,188	0,111
-486,693	82,533	0,084	0,067
-485,678	32,837	-0,044	-0,028
-484,664	800,000	-0,035	-0,081
-483,649	-200,000	0,006	-0,062
-482,635	-187,236	0,161	0,002
-481,620	-179,619	0,084	0,001
-480,605	800,000	-0,027	-0,059
-479,591	-52,434	0,097	0,033
-478,576	-137,145	-0,095	0,008
-477,562	-200,000	-0,044	-0,169
-476,547	19,574	-0,024	0,014
-475,532	800,000	-0,020	0,048
-474,518	-200,000	0,008	0,119
-473,503	800,000	-0,027	-0,078
-472,489	81,953	0,043	-0,035
-471,474	-4,501	-0,041	0,021
-470,459	-200,000	0,026	-0,120
-469,445	48,483	-0,069	-0,048
-468,430	-200,000	-0,019	-0,081
-467,416	-200,000	0,004	-0,041
-466,401	-58,961	-0,028	0,009
-465,386	-18,938	-0,070	-0,032
-464,372	-200,000	0,026	0,151
-463,357	59,839	-0,013	0,009
-462,343	19,762	0,063	-0,037
-461,328	-31,395	-0,060	-0,025
-460,313	-85,910	-0,071	-0,016
-459,299	450,817	-0,025	0,040
-458,284	32,601	0,148	0,094
-457,270	61,629	-0,050	-0,036
-456,255	-76,299	-0,075	0,019
-455,241	-103,168	-0,083	0,014
-454,226	284,869	0,057	0,076
-453,211	-200,000	-0,008	0,060
-452,197	169,892	-0,093	0,098
-451,182	-200,000	0,008	0,053
-450,168	-153,599	-0,066	0,003
-449,153	-98,819	-0,101	-0,019
-448,138	90,171	0,142	-0,117
-447,124	-60,254	-0,096	0,030
-446,109	-102,590	0,083	-0,014
-445,095	800,000	0,039	0,102
-444,080	26,340	0,068	0,042
-443,065	-200,000	0,000	-0,001
-442,051	6,436	0,023	0,013
-441,036	530,814	-0,040	-0,070
-440,022	29,705	-0,155	-0,097
-439,007	58,877	0,075	-0,054
-437,992	108,126	0,058	0,051
-436,978	-200,000	-0,016	0,116
-435,963	-200,000	0,065	0,233
-434,949	213,386	-0,059	0,069
-433,934	-106,426	-0,107	-0,017
-432,919	14,186	0,060	0,034
-431,905	232,782	0,041	-0,049
-430,890	800,000	0,035	0,108
-429,876	634,007	0,049	-0,093
-428,861	-132,314	0,026	0,002
-427,846	479,785	0,060	0,100
-426,832	314,383	-0,078	-0,108
-425,817	128,023	0,072	-0,068
-424,803	447,495	-0,083	-0,135
-423,788	739,791	0,064	0,127
-422,773	-200,000	-0,000	0,135
-421,759	-145,578	-0,078	0,005
-420,744	-133,700	0,076	-0,007
-419,730	17,521	-0,064	-0,037
-418,715	-200,000	0,010	-0,076
-417,701	-93,741	-0,294	0,059
-416,686	119,219	0,073	0,067
-415,671	-101,512	-0,051	0,009
-414,657	294,819	-0,045	-0,061
-413,642	-132,226	-0,013	0,001
-412,628	800,000	-0,024	0,054
-411,613	-8,414	-0,159	-0,078
-410,598	800,000	-0,031	-0,066
-409,584	800,000	0,051	-0,129
-408,569	-195,558	0,108	0,001
-407,555	144,607	0,056	-0,055
-406,540	105,744	0,050	0,043
-405,525	800,000	-0,040	0,083
-404,511	-200,000	-0,015	0,064
-403,496	729,816	0,013	0,025
-402,482	192,282	0,095	-0,105
-401,467	228,370	0,112	-0,135
-400,452	-56,295	0,131	0,042
-399,438	258,909	0,114	-0,145
-398,423	-75,168	0,142	-0,037
-397,409	-58,145	-0,128	-0,041
-396,394	800,000	0,076	0,156
-395,379	-90,548	0,037	-0,008
-394,365	-17,570	-0,065	0,030
-393,350	800,000	-0,064	0,201
-392,336	244,898	0,036	0,045
-391,321	800,000	0,023	-0,058
-390,306	154,342	-0,116	-0,117
-389,292	10,827	-0,022	0,012
-388,277	800,000	-0,095	-0,219
-387,263	-71,246	0,071	0,019
-386,248	800,000	0,033	0,089
-385,233	800,000	-0,066	-0,147
-384,219	-2,720	0,059	-0,030
-383,204	158,799	-0,083	-0,085
-382,190	655,898	-0,058	0,111
-381,175	253,274	0,059	0,075
-380,160	-104,631	-0,092	0,015
-379,146	-200,000	0,001	-0,039
-378,131	-159,380	-0,142	-0,006
-377,117	800,000	0,011	0,024
-376,102	-200,000	0,039	-0,159
-375,088	-200,000	-0,009	-0,117
-374,073	-85,037	0,092	-0,021
-373,058	87,443	0,086	0,070
-372,044	-158,946	-0,123	-0,005
-371,029	-200,000	0,002	0,062
-370,015	800,000	-0,052	0,126
-369,000	-38,701	0,048	-0,018
-367,985	-200,000	0,013	0,104
-366,971	284,106	-0,055	0,073
-365,956	-200,000	0,001	0,076
-364,942	154,385	0,038	0,038
-363,927	800,000	0,042	-0,134
-362,912	800,000	-0,024	0,051
-361,898	-163,133	0,007	0,000
-360,883	192,571	0,046	-0,051
-359,869	77,003	0,056	-0,044
-358,854	-200,000	0,005	0,092
-357,839	700,660	-0,048	-0,093
-356,825	-77,734	0,082	-0,021
-355,810	800,000	0,081	0,208
-354,796	171,102	0,067	-0,071
-353,781	-200,000	0,002	-0,155
-352,766	-8,262	0,038	0,019
-351,752	237,222	0,020	0,024
-350,737	104,568	-0,026	0,022
-349,723	383,486	0,056	0,085
-348,708	-200,000	-0,002	0,080
-347,693	101,650	-0,013	-0,012
-346,679	800,000	0,039	-0,118
-345,664	161,579	-0,067	0,069
-344,650	-200,000	-0,017	0,094
-343,635	193,747	-0,092	0,102
-342,620	17,798	0,126	-0,073
-341,606	-71,079	0,119	0,033
-340,591	-177,005	-0,087	0,002
-339,577	480,666	0,039	-0,065
-338,562	124,651	0,090	-0,083
-337,548	191,126	-0,012	0,013
-336,533	392,172	0,044	-0,066
-335,518	-13,035	0,128	0,061
-334,504	-200,000	-0,009	0,107
-333,489	-33,411	0,050	0,020
-332,475	49,193	-0,193	-0,133
-331,460	-73,783	-0,096	-0,025
-330,445	101,089	-0,023	-0,020
-329,431	-130,628	0,090	0,009
-328,416	800,000	-0,010	-0,028
-327,402	-200,000	0,020	0,066
-326,387	153,915	0,014	0,014
-325,372	472,650	-0,018	-0,030
-324,358	25,399	-0,042	-0,026
-323,343	109,398	0,058	0,050
-322,329	34,009	-0,025	0,016
-321,314	-200,000	-0,003	-0,083
-320,299	-170,059	0,146	-0,004
-319,285	693,206	0,048	-0,093
-318,270	-124,396	-0,082	-0,009
-317,256	800,000	0,032	-0,102
-316,241	234,574	-0,090	-0,108
-315,226	327,620	0,079	0,111
-314,212	209,634	0,100	0,115
-313,197	-74,007	0,138	0,036
-312,183	-82,109	-0,075	-0,018
-311,168	-152,659	-0,101	0,005
-310,153	-29,113	-0,036	-0,015
-309,139	-29,034	-0,055	-0,023
-308,124	488,728	0,084	0,141
-307,110	66,196	-0,070	-0,052
-306,095	249,495	0,048	0,060
-305,080	354,439	0,080	0,117
-304,066	-200,000	-0,008	0,079
-303,051	-129,764	-0,138	-0,014
-302,037	-40,736	-0,117	-0,044
-301,022	-109,106	0,138	0,021
-300,008	-148,828	0,129	0,008
-298,993	287,219	0,105	0,140
-297,978	-200,000	-0,015	0,208
-296,964	273,406	0,057	-0,073
-295,949	610,016	0,047	-0,087
-294,935	-200,000	-0,001	0,108
-293,920	800,000	0,013	-0,026
-292,905	-15,731	0,135	-0,063
-291,891	147,112	0,106	0,105
-290,876	-4,074	0,135	0,068
-289,862	385,070	-0,062	-0,093
-288,847	-105,981	-0,047	0,008
-287,832	190,527	0,059	-0,065
-286,818	-200,000	-0,025	0,103
-285,803	172,892	-0,125	-0,132
-284,789	-200,000	-0,041	0,144
-283,774	-134,320	-0,147	-0,013
-282,759	-200,000	-0,021	-0,069
-281,745	259,236	0,050	0,063
-280,730	-200,000	-0,014	-0,047
-279,716	12,644	0,017	-0,010
-278,701	-200,000	-0,019	0,091
-277,686	316,356	-0,078	0,108
-276,672	-200,000	-0,041	0,207
-275,657	-100,757	0,106	0,019
-274,643	-111,404	-0,046	0,007
-273,628	800,000	-0,030	-0,062
-272,613	-200,000	-0,003	-0,065
-271,599	350,685	0,071	0,103
-270,584	-72,814	-0,086	-0,023
-269,570	8,140	0,069	-0,038
-268,555	800,000	0,017	0,053
-267,540	5,041	0,024	0,013
-266,526	731,637	0,022	0,044
-265,511	132,158	0,069	0,065
-264,497	151,716	0,128	0,128
-263,482	-68,307	0,110	-0,031
-262,467	-32,268	0,044	0,018
-261,453	-21,644	0,062	0,027
-260,438	-86,525	-0,108	-0,024
-259,424	728,958	-0,073	0,143
-258,409	-43,799	-0,138	-0,051
-257,395	-126,732	0,045	-0,005
-256,380	499,424	-0,137	-0,232
-255,365	-200,000	-0,036	-0,154
-254,351	8,317	-0,072	-0,039
-253,336	581,227	-0,033	0,060
-252,322	-131,119	0,109	-0,010
-251,307	-66,194	0,049	-0,014
-250,292	-134,996	0,090	0,008
-249,278	234,378	0,068	0,082
-248,263	-32,031	0,069	-0,028
-247,249	68,869	-0,072	-0,054
-246,234	-200,000	0,005	0,036
-245,219	-200,000	-0,022	-0,075
-244,205	-200,000	0,023	-0,129
-243,190	-10,323	0,156	-0,075
-242,176	236,796	0,025	-0,030
-241,161	134,420	0,078	0,074
-240,146	-200,000	0,037	0,156
-239,132	287,396	0,035	-0,046
-238,117	-76,091	0,066	-0,017
-237,103	656,888	-0,051	0,097
-236,088	494,785	0,052	-0,087
-235,073	-200,000	0,141	0,000
-234,059	800,000	-0,059	0,121
-233,044	457,996	0,056	-0,092
-232,030	-200,000	-0,045	0,168
-231,015	599,527	-0,048	0,088
-230,000	22,845	0,166	-0,099
-228,986	-32,173	-0,093	0,038
-227,971	-100,285	0,058	-0,010
-226,957	-48,653	-0,018	0,006
-225,942	230,424	0,051	0,060
-224,927	8,849	-0,020	0,011
-223,913	46,427	-0,090	-0,060
-222,898	800,000	-0,029	0,070
-221,884	-98,887	-0,093	0,017
-220,869	-200,000	0,009	-0,125
-219,855	20,881	0,092	-0,054
-218,840	800,000	0,078	0,160
-217,825	594,354	0,049	0,090
-216,811	167,242	-0,076	-0,079
-215,796	495,803	0,066	-0,110
-214,782	-22,315	-0,085	0,038
-213,767	132,022	0,024	0,023
-212,752	103,675	-0,045	0,039
-211,738	-200,000	-0,002	-0,029
-210,723	-66,472	-0,061	-0,018
-209,709	471,981	-0,088	-0,146
-208,694	37,666	0,100	0,065
-207,679	140,136	0,068	-0,065
-206,665	486,062	-0,019	-0,032
-205,650	-47,494	-0,064	0,023
-204,636	276,956	-0,032	-0,041
-203,621	346,757	0,026	0,037
-202,606	287,106	-0,089	0,117
-201,592	-12,683	-0,062	-0,029
-200,577	800,000	-0,005	-0,017
-199,563	-20,351	-0,092	-0,041
-198,548	217,993	-0,048	0,056
-197,533	39,877	0,171	-0,112
-196,519	-57,104	0,160	0,051
-195,504	-28,076	0,069	0,029
-194,490	-200,000	0,006	-0,068
-193,475	-200,000	0,022	0,073
-192,460	-116,198	0,017	-0,002
-191,446	800,000	-0,046	0,118
-190,431	-200,000	0,029	0,196
-189,417	-200,000	-0,001	0,129
-188,402	274,781	-0,088	-0,114
-187,387	-200,000	0,007	-0,052
-186,373	7,229	0,140	0,076
-185,358	45,247	0,033	-0,022
-184,344	-56,477	-0,039	0,013
-183,329	408,761	0,046	0,072
-182,315	177,713	-0,023	0,025
-181,300	242,965	-0,057	-0,069
-180,285	57,391	-0,040	0,028
-179,271	79,788	-0,170	-0,133
-178,256	383,589	-0,034	-0,051
-177,242	-166,663	0,083	-0,002
-176,227	768,537	0,060	0,119
-175,212	-200,000	-0,005	-0,032
-174,198	-51,648	-0,064	-0,022
-173,183	120,112	-0,024	-0,021
-172,169	-15,417	-0,188	0,087
-171,154	-200,000	0,024	-0,148
-170,139	570,559	0,005	0,009
-169,125	-27,502	0,089	0,038
-168,110	800,000	-0,022	0,048
-167,096	800,000	-0,034	0,093
-166,081	800,000	0,069	-0,160
-165,066	-174,510	-0,094	-0,002
-164,052	210,704	0,061	0,070
-163,037	-92,154	-0,029	-0,006
-162,023	80,593	0,131	0,102
-161,008	-4,401	0,025	-0,013
-159,993	-200,000	-0,007	-0,058
-158,979	-200,000	-0,034	-0,126
-157,964	-138,162	-0,158	0,013
-156,950	-200,000	0,004	-0,068
-155,935	38,512	0,017	0,011
-154,920	60,674	-0,073	-0,053
-153,906	134,993	0,048	0,045
-152,891	-167,500	-0,122	0,003
-151,877	800,000	0,035	0,071
-150,862	-200,000	-0,012	-0,072
-149,847	-4,901	-0,090	-0,045
-148,833	361,371	0,129	0,189
-147,818	379,292	0,084	0,126
-146,804	-183,897	-0,124	-0,001
-145,789	-200,000	0,025	0,163
-144,775	-43,263	-0,157	0,058
-143,760	162,820	-0,088	0,090
-142,745	14,728	-0,186	-0,105
-141,731	-200,000	0,020	-0,155
-140,716	-200,000	0,018	-0,095
-139,702	800,000	0,016	0,037
-138,687	88,542	0,141	0,114
-137,672	-200,000	-0,004	-0,049
-136,658	132,613	0,064	0,060
-135,643	-40,806	0,132	0,050
-134,629	186,234	0,042	-0,045
-133,614	-200,000	0,008	0,047
-132,599	-200,000	-0,009	0,048
-131,585	468,432	-0,107	0,175
-130,570	800,000	0,022	0,056
-129,556	800,000	-0,019	0,059
-128,541	31,269	-0,048	0,030
-127,526	229,280	0,037	0,044
-126,512	227,433	0,064	0,076
-125,497	125,741	0,082	0,075
-124,483	800,000	-0,021	-0,062
-123,468	-74,440	-0,062	0,016
-122,453	800,000	0,011	0,030
-121,439	279,347	0,080	0,103
-120,424	-200,000	-0,001	-0,182
-119,410	395,856	-0,052	-0,079
-118,395	473,488	-0,010	-0,017
-117,380	-200,000	0,002	-0,117
-116,366	721,663	0,040	0,078
-115,351	-200,000	0,015	-0,053
-114,337	-200,000	0,021	0,187
-113,322	800,000	-0,054	-0,148
-112,307	333,053	0,055	-0,078
-111,293	800,000	0,034	0,088
-110,278	62,532	0,029	-0,021
-109,264	-110,460	0,147	0,022
-108,249	-200,000	0,000	-0,050
-107,234	-40,292	-0,125	0,047
-106,220	272,967	-0,049	0,063
-105,205	268,954	0,006	-0,008
-104,191	269,299	-0,114	0,146
-103,176	7,303	0,116	-0,063
-102,162	-69,295	0,053	0,015
-101,147	141,728	0,090	-0,086
-100,132	-200,000	-0,024	0,083
-99,118	-64,070	-0,075	0,022
-98,103	227,222	0,031	-0,037
-97,089	-57,126	-0,085	-0,027
-96,074	-93,568	-0,053	0,011
-95,059	-200,000	-0,009	0,049
-94,045	-53,578	-0,160	-0,053
-93,030	-200,000	0,008	0,075
-92,016	-200,000	-0,024	0,084
-91,001	77,530	0,054	-0,041
-89,986	270,366	-0,067	-0,086
-88,972	206,577	0,046	-0,052
-87,957	-200,000	0,002	-0,033
-86,943	768,244	-0,092	0,183
-85,928	634,270	-0,020	0,038
-84,913	314,759	0,108	-0,149
-83,899	152,403	0,068	0,067
-82,884	-200,000	0,023	0,094
-81,870	-200,000	-0,013	-0,055
-80,855	152,985	0,048	0,048
-79,840	-200,000	-0,045	0,165
-78,826	716,147	0,081	-0,157
-77,811	-200,000	0,039	0,154
-76,797	44,153	0,086	-0,057
-75,782	-112,473	0,062	-0,009
-74,767	-21,361	-0,163	0,072
-73,753	-200,000	0,002	-0,142
-72,738	-152,508	-0,130	0,007
-71,724	-159,551	-0,042	0,002
-70,709	21,573	0,078	0,046
-69,694	-12,098	-0,114	-0,054
-68,680	-200,000	0,023	0,097
-67,665	72,474	0,175	-0,132
-66,651	-117,686	-0,032	-0,004
-65,636	270,031	-0,008	0,010
-64,622	67,628	-0,013	-0,010
-63,607	800,000	-0,046	0,103
-62,592	217,113	-0,032	-0,037
-61,578	-200,000	0,043	-0,142
-60,563	-200,000	0,003	-0,031
-59,549	494,866	-0,046	0,078
-58,534	-102,689	-1,417	-0,242
-57,519	581,159	-0,817	-1,457
-56,505	-200,000	-0,837	-4,278
-55,490	-133,983	0,653	-0,058
-54,476	800,000	4,932	11,354
-53,461	-200,000	14,021	251,552
-52,446	-200,000	693,078	2240,131
-51,432	582,902	1621,753	2894,932
-50,417	117,943	1630,393	1454,941
-49,403	73,947	1285,096	975,456
-48,388	37,753	1021,960	656,109
-47,373	24,038	980,057	584,246
-46,359	23,213	969,811	575,418
-45,344	22,255	965,439	569,682
-44,330	22,172	963,964	568,518
-43,315	22,040	962,569	567,243
-42,300	22,061	961,301	566,542
-41,286	22,058	960,383	565,968
-40,271	22,015	959,598	565,345
-39,257	22,031	958,595	564,782
-38,242	22,025	957,578	564,142
-37,227	21,969	956,860	563,516
-36,213	21,989	955,870	562,976
-35,198	21,985	955,075	562,471
-34,184	22,009	954,390	562,123
-33,169	22,002	953,359	561,471
-32,154	22,018	952,594	561,051
-31,140	21,994	951,788	560,476
-30,125	22,074	951,034	560,266
-29,111	22,122	950,017	559,799
-28,096	22,053	949,470	559,232
-27,082	22,072	948,763	558,855
-26,067	22,103	947,679	558,294
-25,052	21,991	947,315	557,700
-24,038	22,042	946,516	557,368
-23,023	22,054	945,970	557,065
-22,009	22,083	945,234	556,701
-20,994	22,074	944,621	556,288
-19,979	22,058	944,176	555,955
-18,965	22,067	943,304	555,447
-17,950	22,055	942,874	555,135
-16,936	21,999	942,073	554,461
-15,921	21,940	941,352	553,830
-14,906	21,928	940,673	553,368
-13,892	21,976	940,158	553,198
-12,877	21,872	939,412	552,406
-11,863	21,849	938,864	551,990
-10,848	21,914	938,380	551,888
-9,833	22,054	937,701	551,910
-8,819	21,989	937,269	551,427
-7,804	21,925	936,667	550,850
-6,790	21,933	935,977	550,448
-5,775	21,920	935,404	550,047
-4,760	21,945	934,821	549,762
-3,746	21,906	934,162	549,231
-2,731	21,796	933,510	548,478
-1,717	21,701	932,969	547,840
-0,702	21,756	932,000	547,423
0,313	21,577	931,392	547,330
1,327	24,125	928,943	553,822
2,342	32,047	806,830	502,406
3,356	27,225	507,452	307,770
4,371	2,929	372,559	195,196
5,386	-0,050	355,319	182,511
6,400	-1,690	348,960	177,260
7,415	-2,559	346,242	174,828
8,429	-2,838	344,867	173,788
9,444	-2,750	343,698	173,287
10,459	-2,796	343,211	172,972
11,473	-2,577	342,430	172,821
12,488	-2,469	342,112	172,772
13,502	-2,433	341,581	172,531
14,517	-2,479	340,956	172,147
15,531	-2,743	340,401	171,542
16,546	-2,562	340,010	171,540
17,561	-2,804	339,575	171,023
18,575	-2,717	339,205	170,923
19,590	-2,790	338,796	170,616
20,604	-2,605	338,465	170,650
21,619	-2,702	337,945	170,260
22,634	-2,632	337,633	170,169
23,648	-2,704	337,223	169,863
24,663	-2,697	336,890	169,689
25,677	-2,714	336,771	169,594
26,692	-2,658	336,515	169,514
27,707	-2,726	336,069	169,197
28,721	-2,647	335,699	169,086
29,736	-2,655	335,567	168,996
30,750	-2,686	335,119	168,719
31,765	-2,793	334,736	168,388
32,780	-2,710	334,593	168,396
33,794	-2,795	334,299	168,136
34,809	-2,636	333,980	168,142
35,823	-2,677	333,624	167,902
36,838	-2,907	333,449	167,536
37,853	-2,765	333,081	167,497
38,867	-2,797	332,990	167,401
39,882	-2,692	332,533	167,276
40,896	-2,780	332,342	167,064
41,911	-2,804	332,088	166,895
42,926	-2,792	331,652	166,675
43,940	-2,889	331,535	166,491
44,955	-2,720	331,197	166,497
45,969	-2,772	330,813	166,231
46,984	-3,029	330,548	165,792
47,999	-3,153	330,315	165,519
49,013	-3,255	330,029	165,245
50,028	-3,344	329,789	165,010
51,042	-3,310	329,525	164,901
52,057	-3,283	329,040	164,674
53,071	-3,532	329,141	164,429
54,086	-3,299	328,762	164,488
55,101	-3,193	328,454	164,438
56,115	-3,016	328,267	164,530
57,130	-2,725	328,277	164,848
58,144	-2,743	328,003	164,675
59,159	-2,557	327,676	164,705
60,174	-2,619	327,488	164,526
61,188	-2,557	327,129	164,401
62,203	-2,554	326,898	164,274
63,217	-2,588	326,693	164,117
64,232	-2,566	326,291	163,925
65,247	-2,591	326,196	163,835
66,261	-2,622	325,990	163,683
67,276	-2,771	325,665	163,339
68,290	-2,889	325,213	162,966
69,305	-2,922	324,931	162,773
70,320	-2,985	324,763	162,605
71,334	-2,816	324,583	162,688
72,349	-2,638	324,496	162,827
73,363	-2,633	324,185	162,663
74,378	-2,682	323,941	162,471
75,393	-2,663	323,686	162,350
76,407	-2,758	323,413	162,093
77,422	-2,744	323,172	161,973
78,436	-2,680	322,833	161,860
79,451	-2,568	322,551	161,827
80,466	-2,718	322,196	161,469
81,480	-2,757	321,974	161,301
82,495	-2,855	321,705	161,044
83,509	-2,902	321,642	160,947
84,524	-2,994	321,265	160,642
85,539	-2,991	321,111	160,555
86,553	-3,048	320,577	160,210
87,568	-3,073	320,638	160,199
88,582	-2,965	320,329	160,149
89,597	-2,905	320,028	160,050
90,611	-2,821	319,760	159,993
91,626	-2,812	319,727	159,973
92,641	-2,738	319,396	159,873
93,655	-2,742	319,196	159,755
94,670	-2,672	318,889	159,662
95,684	-2,706	318,652	159,493
96,699	-2,740	318,391	159,312
97,714	-2,921	318,270	159,040
98,728	-2,869	317,978	158,936
99,743	-3,039	317,831	158,663
100,757	-3,004	317,549	158,546
101,772	-2,959	317,294	158,455
102,787	-2,776	316,991	158,486
103,801	-2,723	316,807	158,439
104,816	-2,872	316,572	158,146
105,830	-2,777	316,575	158,235
106,845	-2,668	316,288	158,196
107,860	-2,725	315,973	157,962
108,874	-2,809	315,873	157,808
109,889	-2,772	315,437	157,615
110,903	-2,795	315,348	157,533
111,918	-2,896	315,119	157,295
112,933	-2,734	314,797	157,295
113,947	-2,951	314,668	156,983
114,962	-2,825	314,401	156,971
115,976	-2,652	314,067	156,975
116,991	-2,807	314,004	156,765
118,006	-2,831	313,737	156,591
119,020	-2,613	313,518	156,701
120,035	-2,631	313,425	156,621
121,049	-2,500	313,215	156,642
122,064	-2,646	312,888	156,310
123,079	-2,847	312,736	156,005
124,093	-2,846	312,475	155,862
125,108	-2,966	312,221	155,593
126,122	-3,005	311,908	155,383
127,137	-3,145	311,678	155,105
128,151	-3,021	311,495	155,133
129,166	-2,964	311,332	155,097
130,181	-3,095	311,038	154,798
131,195	-2,966	310,580	154,694
132,210	-2,823	310,496	154,788
133,224	-2,927	310,426	154,630
134,239	-2,724	310,227	154,732
135,254	-2,773	310,093	154,599
136,268	-2,758	309,794	154,453
137,283	-2,984	309,433	154,020
138,297	-3,065	309,243	153,827
139,312	-2,915	308,883	153,792
140,327	-2,738	308,797	153,921
141,341	-2,499	308,707	154,114
142,356	-2,515	308,561	154,010
143,370	-2,565	308,479	153,903
144,385	-2,341	308,195	153,982
145,400	-2,456	307,796	153,649
146,414	-2,510	307,758	153,559
147,429	-2,530	307,534	153,413
148,443	-2,550	307,396	153,310
149,458	-2,590	307,150	153,131
150,473	-2,313	306,922	153,294
151,487	-2,311	306,673	153,158
152,502	-2,470	306,562	152,923
153,516	-2,465	306,363	152,815
154,531	-2,517	306,087	152,610
155,546	-2,447	305,871	152,562
156,560	-2,510	305,516	152,305
157,575	-2,642	305,284	152,039
158,589	-2,602	305,112	151,982
159,604	-2,577	305,073	151,974
160,619	-2,510	304,617	151,802
161,633	-2,492	304,521	151,760
162,648	-2,522	304,456	151,683
163,662	-2,481	304,208	151,588
164,677	-2,610	303,884	151,280
165,692	-2,444	303,688	151,341
166,706	-2,472	303,540	151,224
167,721	-2,552	303,284	151,001
168,735	-2,349	303,226	151,167
169,750	-2,316	302,962	151,056
170,764	-2,321	302,870	150,992
171,779	-2,423	302,733	150,806
172,794	-2,216	302,322	150,800
173,808	-2,338	302,070	150,536
174,823	-3,023	301,831	149,701
175,837	-3,033	301,595	149,561
176,852	-2,758	301,563	149,812
177,867	-2,408	301,272	150,012
178,881	-2,354	301,207	150,022
179,896	-2,344	301,081	149,955
180,910	-2,396	300,845	149,772
181,925	-2,355	300,624	149,690
182,940	-2,389	300,457	149,559
183,954	-2,395	300,222	149,422
184,969	-2,360	300,104	149,387
185,983	-2,557	299,950	149,095
186,998	-2,337	299,608	149,136
188,013	-2,490	299,410	148,869
189,027	-2,397	299,328	148,909
190,042	-2,412	299,034	148,735
191,056	-2,407	298,816	148,619
192,071	-2,222	298,579	148,674
193,086	-2,391	298,515	148,458
194,100	-2,300	298,271	148,415
195,115	-2,291	298,099	148,325
196,129	-2,473	297,777	147,968
197,144	-2,510	297,618	147,839
198,159	-2,507	297,392	147,717
199,173	-2,434	297,231	147,696
200,188	-2,300	297,002	147,704
201,202	-2,406	296,687	147,429
202,217	-2,772	296,328	146,870
203,232	-2,845	296,047	146,644
204,246	-2,637	296,046	146,840
205,261	-2,412	295,892	146,975
206,275	-2,226	295,753	147,078
207,290	-2,299	295,601	146,917
208,304	-2,455	295,336	146,617
209,319	-2,486	295,179	146,495
210,334	-2,390	294,856	146,417
211,348	-2,484	294,693	146,229
212,363	-2,397	294,607	146,260
213,377	-2,340	294,408	146,205
214,392	-2,364	294,052	145,992
215,407	-2,571	293,901	145,698
216,421	-2,714	293,792	145,489
217,436	-2,725	293,457	145,299
218,450	-2,703	293,265	145,213
219,465	-2,681	293,141	145,160
220,480	-2,579	293,008	145,182
221,494	-2,411	292,675	145,170
222,509	-2,609	292,662	144,956
223,523	-2,539	292,479	144,921
224,538	-2,361	292,410	145,050
225,553	-2,400	292,129	144,858
226,567	-2,295	292,008	144,889
227,582	-2,378	291,731	144,657
228,596	-2,220	291,570	144,720
229,611	-2,190	291,323	144,614
230,626	-2,423	291,198	144,310
231,640	-2,654	290,870	143,908
232,655	-2,956	290,554	143,443
233,669	-2,926	290,418	143,392
234,684	-2,831	290,151	143,341
235,699	-2,826	290,015	143,266
236,713	-2,865	289,709	143,063
237,728	-2,742	289,655	143,144
238,742	-2,632	289,467	143,146
239,757	-2,405	289,376	143,310
240,772	-2,450	289,210	143,171
241,786	-2,549	289,163	143,038
242,801	-2,600	288,799	142,796
243,815	-2,650	288,672	142,672
244,830	-2,520	288,543	142,722
245,844	-2,779	288,228	142,301
246,859	-2,745	288,028	142,223
247,874	-2,595	287,895	142,290
248,888	-2,729	287,641	142,022
249,903	-2,559	287,552	142,130
250,917	-2,360	287,419	142,244
251,932	-2,182	287,363	142,377
252,947	-1,726	287,349	142,798
253,961	-2,497	287,001	141,867
254,976	-1,294	287,522	143,277
255,990	1,393	288,252	146,232
257,005	2,510	288,592	147,474
258,020	3,930	288,929	149,009
259,034	4,065	288,578	148,946
260,049	3,624	288,466	148,448
261,063	3,560	288,129	148,199
262,078	3,772	288,212	148,434
263,093	4,456	288,216	149,083
264,107	4,568	287,873	149,001
265,122	4,591	287,845	148,995
266,136	4,804	287,602	149,061
267,151	4,584	287,512	148,789
268,166	4,355	287,158	148,373
269,180	4,331	286,992	148,251
270,195	4,355	286,851	148,188
271,209	4,411	286,531	148,063
272,224	4,175	286,354	147,732
273,239	3,952	286,238	147,446
274,253	4,173	286,062	147,554
275,268	4,624	285,977	147,928
276,282	4,285	285,849	147,525
277,297	4,520	285,623	147,620
278,312	4,801	285,520	147,821
279,326	4,689	285,072	147,470
280,341	4,398	284,878	147,078
281,355	4,261	284,862	146,926
282,370	4,075	284,637	146,620
283,384	4,237	284,279	146,576
284,399	4,320	284,216	146,610
285,414	4,304	283,922	146,430
286,428	4,086	283,809	146,152
287,443	3,771	283,612	145,739
288,457	3,897	283,388	145,729
289,472	3,837	283,132	145,528
290,487	3,924	283,027	145,544
291,501	3,926	282,748	145,389
292,516	3,733	282,529	145,082
293,530	3,771	282,297	144,985
294,545	3,962	282,363	145,187
295,560	3,992	282,121	145,078
296,574	3,865	281,978	144,871
297,589	3,930	281,780	144,817
298,603	4,419	281,589	145,167
299,618	4,412	281,551	145,127
300,633	4,450	281,179	144,959
301,647	4,282	281,051	144,722
302,662	4,175	280,825	144,492
303,676	3,846	280,620	144,066
304,691	3,669	280,364	143,756
305,706	3,509	280,084	143,449
306,720	3,699	279,915	143,528
307,735	3,660	279,826	143,433
308,749	3,869	279,613	143,506
309,764	4,124	279,574	143,712
310,779	3,874	279,236	143,291
311,793	3,745	278,970	143,023
312,808	3,614	278,871	142,837
313,822	3,710	278,741	142,847
314,837	3,543	278,572	142,592
315,852	3,497	278,389	142,443
316,866	3,696	278,082	142,458
317,881	3,809	277,984	142,500
318,895	3,745	277,812	142,340
319,910	3,628	277,624	142,122
320,925	3,213	277,410	141,616
321,939	3,715	277,281	142,002
322,954	3,842	277,183	142,056
323,968	3,760	277,016	141,882
324,983	3,767	277,024	141,880
325,997	3,898	276,683	141,813
327,012	3,879	276,718	141,802
328,027	4,011	276,359	141,727
329,041	3,881	275,992	141,406
330,056	3,963	275,935	141,440
331,070	3,817	275,745	141,195
332,085	3,778	275,543	141,043
333,100	3,799	275,344	140,948
334,114	3,663	275,326	140,802
335,129	3,710	275,036	140,684
336,143	3,927	274,952	140,827
337,158	4,221	274,772	140,991
338,173	4,209	274,584	140,872
339,187	3,764	274,488	140,403
340,202	3,852	274,235	140,342
341,216	3,918	274,020	140,279
342,231	3,827	273,862	140,103
343,246	3,803	273,832	140,053
344,260	3,792	273,537	139,880
345,275	3,836	273,445	139,860
346,289	4,256	273,497	140,256
347,304	4,363	273,175	140,177
348,319	4,142	272,936	139,840
349,333	3,937	272,600	139,470
350,348	4,392	272,602	139,871
351,362	4,198	272,540	139,650
352,377	4,154	272,336	139,494
353,392	4,081	272,241	139,367
354,406	4,258	272,069	139,426
355,421	192,763	1329,212	1410,631
356,435	155,784	1458,091	1410,749
