DTS Sentinel unit serial number:	SN410029Multiplexer serial number:	ORYXHardware model number:	OX2-SRSoftware version number:	ORYX F/W v4,00 Oryx Data Collector v3.7.2.0data status	okinstallation	B4 Nyhavnadifferential loss correction	single-endedforward channel	channel 2reverse channel	N/Adate	2023/12/16time	12:50:13forward acquisition time	300,00reverse acquisition time	0,00gamma	499,1914k internal	0,3126k external	0,3126temperature offset calibration	1,0000default loss term (dB/km)	0,3820temperature slope calibration	1,0000multiplexer offset coefficient	1,0000multiplexer slope coefficient	1,0000fibre end	0,00T internal ref (°C)	24,30T ext. ref 1 (°C)	10,66T ext. ref 2 (°C)	10,79length (m)	temperature (°C)	Stokes	anti-Stokes-744,400	-200,000	-0,030	-0,131
-743,385	0,905	-0,258	0,137
-742,371	-81,544	-0,030	-0,007
-741,356	453,008	-0,098	0,162
-740,342	423,176	-0,014	0,023
-739,327	350,579	-0,065	0,096
-738,312	-59,285	-0,121	-0,038
-737,298	82,348	-0,143	0,115
-736,283	274,277	-0,045	-0,060
-735,269	770,922	-0,105	0,213
-734,254	800,000	-0,011	-0,034
-733,239	-79,196	-0,253	-0,063
-732,225	-200,000	0,006	-0,023
-731,210	-72,870	-0,053	-0,014
-730,196	153,535	0,011	-0,011
-729,181	78,991	-0,048	0,038
-728,167	17,002	-0,059	0,035
-727,152	-16,092	-0,104	-0,049
-726,137	35,984	-0,130	-0,085
-725,123	214,101	-0,023	0,027
-724,108	-10,467	0,070	-0,034
-723,094	-200,000	-0,005	-0,151
-722,079	11,552	0,012	-0,007
-721,064	0,927	-0,004	0,002
-720,050	-15,687	-0,044	-0,021
-719,035	800,000	0,028	-0,076
-718,021	-200,000	0,021	0,071
-717,006	-61,920	-0,040	-0,013
-715,991	-42,794	-0,151	-0,057
-714,977	-200,000	0,026	-0,114
-713,962	33,626	-0,140	-0,090
-712,948	460,369	-0,033	0,055
-711,933	-113,795	0,077	-0,011
-710,918	-200,000	0,005	0,065
-709,904	233,070	-0,048	0,059
-708,889	11,372	-0,019	0,011
-707,875	-30,281	-0,115	-0,049
-706,860	249,719	0,103	0,130
-705,845	800,000	0,042	-0,093
-704,831	-200,000	-0,023	0,175
-703,816	356,043	-0,013	0,019
-702,802	-200,000	-0,005	-0,118
-701,787	800,000	-0,116	-0,257
-700,772	-200,000	-0,039	-0,138
-699,758	119,751	-0,071	0,066
-698,743	646,660	0,045	-0,086
-697,729	48,596	0,051	-0,035
-696,714	-102,699	0,052	0,009
-695,699	800,000	0,019	-0,046
-694,685	30,998	-0,101	-0,064
-693,670	116,712	-0,051	-0,047
-692,656	800,000	-0,014	-0,042
-691,641	-200,000	-0,027	0,103
-690,627	88,526	0,034	0,028
-689,612	800,000	-0,028	-0,059
-688,597	-91,133	-0,030	-0,006
-687,583	121,759	-0,041	-0,038
-686,568	-7,583	-0,068	-0,034
-685,554	597,892	0,004	-0,007
-684,539	170,353	0,046	-0,049
-683,524	-15,255	-0,182	0,086
-682,510	-106,332	0,037	0,006
-681,495	-200,000	-0,012	-0,057
-680,481	-95,821	-0,101	-0,020
-679,466	121,259	-0,091	-0,084
-678,451	782,230	0,036	0,074
-677,437	308,069	-0,027	0,037
-676,422	75,503	0,064	-0,051
-675,408	-123,753	0,114	-0,013
-674,393	-200,000	0,004	-0,126
-673,378	233,269	-0,109	-0,134
-672,364	385,048	-0,112	-0,172
-671,349	37,938	-0,054	0,036
-670,335	-99,562	0,046	0,009
-669,320	-200,000	0,019	-0,136
-668,305	491,221	0,070	0,119
-667,291	-157,106	0,043	-0,002
-666,276	-127,996	0,023	-0,002
-665,262	-200,000	-0,001	0,043
-664,247	-200,000	0,015	-0,056
-663,232	-200,000	-0,033	-0,202
-662,218	-200,000	-0,002	-0,015
-661,203	-174,342	-0,101	-0,002
-660,189	144,473	-0,047	0,047
-659,174	-100,224	0,082	-0,015
-658,159	32,670	-0,065	-0,042
-657,145	800,000	0,080	-0,166
-656,130	-200,000	-0,004	-0,040
-655,116	216,584	0,113	0,134
-654,101	-53,890	-0,132	0,044
-653,086	327,100	0,033	0,047
-652,072	-200,000	-0,018	-0,080
-651,057	54,468	-0,112	-0,080
-650,043	-111,202	-0,129	-0,019
-649,028	541,130	0,071	0,126
-648,014	-200,000	-0,005	0,194
-646,999	-163,234	0,165	0,006
-645,984	-9,741	0,119	0,058
-644,970	-200,000	0,030	-0,122
-643,955	214,059	-0,104	-0,122
-642,941	-51,547	-0,074	-0,025
-641,926	77,154	-0,082	-0,064
-640,911	-22,277	0,074	0,033
-639,897	-200,000	-0,012	0,182
-638,882	-200,000	0,010	0,042
-637,868	-23,806	-0,024	-0,011
-636,853	-200,000	-0,017	-0,071
-635,838	-4,965	0,087	-0,044
-634,824	233,297	0,049	-0,060
-633,809	254,282	0,073	0,092
-632,795	130,919	-0,045	0,043
-631,780	800,000	-0,026	-0,056
-630,765	800,000	0,010	-0,027
-629,751	-108,973	-0,136	0,021
-628,736	22,631	0,094	-0,057
-627,722	-110,125	-0,116	0,018
-626,707	434,552	0,076	-0,123
-625,692	800,000	0,028	-0,092
-624,678	274,899	-0,031	-0,041
-623,663	20,036	-0,128	-0,076
-622,649	-83,333	-0,109	-0,026
-621,634	-83,115	-0,093	-0,022
-620,619	-29,528	-0,075	0,032
-619,605	-200,000	0,017	0,080
-618,590	5,260	-0,036	-0,020
-617,576	448,084	-0,045	0,074
-616,561	-200,000	0,015	0,192
-615,546	-200,000	-0,000	-0,011
-614,532	448,278	-0,050	-0,082
-613,517	800,000	0,041	0,121
-612,503	-200,000	0,008	0,050
-611,488	749,072	0,070	0,141
-610,474	-70,211	-0,055	0,015
-609,459	-200,000	-0,001	-0,040
-608,444	56,559	0,085	-0,062
-607,430	46,919	-0,116	-0,080
-606,415	61,162	0,041	0,030
-605,401	10,173	0,059	-0,033
-604,386	-72,165	-0,033	-0,009
-603,371	288,720	0,067	0,090
-602,357	-42,448	-0,117	0,044
-601,342	184,890	-0,092	0,101
-600,328	296,035	-0,063	-0,086
-599,313	-16,545	0,030	0,014
-598,298	800,000	-0,044	0,095
-597,284	117,202	0,067	0,061
-596,269	146,772	0,055	0,055
-595,255	283,989	-0,082	-0,109
-594,240	-66,358	0,099	-0,029
-593,225	-104,053	-0,152	-0,026
-592,211	399,294	-0,014	0,022
-591,196	800,000	0,041	0,098
-590,182	36,514	-0,059	-0,038
-589,167	-200,000	0,009	0,068
-588,152	-200,000	0,019	0,067
-587,138	800,000	0,014	0,034
-586,123	-93,576	-0,090	0,018
-585,109	95,729	-0,058	-0,049
-584,094	581,824	-0,083	-0,151
-583,079	-75,204	-0,137	0,036
-582,065	76,455	0,020	0,016
-581,050	-85,798	-0,027	0,006
-580,036	-14,890	-0,096	-0,045
-579,021	355,910	0,048	-0,070
-578,006	800,000	0,056	-0,150
-576,992	-200,000	-0,009	0,043
-575,977	-1,003	0,097	0,051
-574,963	-200,000	0,000	0,045
-573,948	190,373	-0,098	-0,109
-572,934	83,662	-0,040	0,033
-571,919	318,351	0,089	-0,125
-570,904	398,359	-0,074	-0,115
-569,890	-200,000	0,004	-0,068
-568,875	-200,000	0,053	-0,237
-567,861	-200,000	0,018	-0,060
-566,846	50,173	-0,162	0,113
-565,831	-200,000	0,030	0,144
-564,817	312,178	0,025	0,035
-563,802	-102,126	-0,071	-0,013
-562,788	64,150	-0,075	0,056
-561,773	-200,000	-0,003	0,024
-560,758	99,044	0,033	-0,029
-559,744	800,000	-0,073	0,192
-558,729	16,590	0,157	0,092
-557,715	39,398	0,081	0,053
-556,700	-200,000	-0,019	-0,083
-555,685	-100,828	0,144	-0,026
-554,671	-1,513	-0,151	0,078
-553,656	-69,822	0,095	-0,027
-552,642	-100,760	0,087	-0,016
-551,627	-200,000	-0,033	-0,150
-550,612	-169,086	-0,039	-0,001
-549,598	249,466	-0,085	-0,107
-548,583	800,000	0,051	-0,123
-547,569	-77,891	0,026	0,007
-546,554	17,696	0,064	-0,038
-545,539	234,572	-0,046	0,057
-544,525	-144,146	0,074	-0,005
-543,510	-200,000	-0,036	0,139
-542,496	800,000	-0,062	-0,162
-541,481	-200,000	0,009	-0,154
-540,466	-2,033	-0,087	-0,045
-539,452	-68,103	0,117	-0,033
-538,437	-200,000	-0,005	-0,026
-537,423	132,455	0,055	-0,052
-536,408	-3,246	-0,068	0,035
-535,393	-200,000	0,010	-0,117
-534,379	60,847	-0,066	-0,048
-533,364	-200,000	-0,018	0,098
-532,350	700,051	0,028	0,054
-531,335	94,333	-0,033	0,028
-530,321	587,079	0,064	0,118
-529,306	-52,164	0,072	0,025
-528,291	-200,000	-0,001	-0,063
-527,277	448,243	-0,060	-0,097
-526,262	-137,963	-0,104	-0,008
-525,248	-200,000	-0,007	-0,068
-524,233	-9,592	0,162	-0,079
-523,218	31,676	0,053	0,033
-522,204	107,963	0,066	0,058
-521,189	105,091	-0,069	0,061
-520,175	-133,526	-0,093	-0,009
-519,160	176,633	0,030	0,033
-518,145	800,000	-0,025	-0,056
-517,131	-200,000	-0,017	-0,061
-516,116	-52,498	-0,011	-0,004
-515,102	442,645	0,053	0,087
-514,087	72,157	0,044	-0,034
-513,072	249,722	-0,090	-0,113
-512,058	119,733	0,084	-0,077
-511,043	-200,000	-0,016	0,078
-510,029	-200,000	-0,037	-0,128
-509,014	17,203	-0,103	0,060
-507,999	31,492	-0,045	-0,028
-506,985	88,209	-0,061	0,050
-505,970	-200,000	-0,010	0,092
-504,956	800,000	-0,065	-0,137
-503,941	448,127	0,063	-0,103
-502,926	-17,775	-0,093	0,043
-501,912	-122,023	0,088	0,010
-500,897	-79,536	-0,057	0,014
-499,883	-40,370	0,014	0,005
-498,868	501,741	-0,036	-0,062
-497,853	230,456	0,086	-0,104
-496,839	-61,042	-0,020	0,006
-495,824	540,220	-0,111	0,195
-494,810	-28,616	0,088	0,037
-493,795	173,552	-0,067	0,071
-492,781	-200,000	0,000	-0,021
-491,766	30,253	0,075	-0,047
-490,751	800,000	-0,014	0,043
-489,737	-141,285	-0,054	0,004
-488,722	-22,094	0,059	0,026
-487,708	-28,360	0,085	0,036
-486,693	-106,386	-0,131	-0,021
-485,678	18,145	-0,140	-0,082
-484,664	337,884	0,060	0,086
-483,649	-139,800	-0,145	0,011
-482,635	117,516	0,044	-0,040
-481,620	-200,000	0,003	0,122
-480,605	-200,000	0,023	0,076
-479,591	50,659	0,034	-0,024
-478,576	44,656	0,096	0,065
-477,562	-133,153	0,055	-0,005
-476,547	389,234	0,085	-0,130
-475,532	-200,000	0,001	-0,184
-474,518	-116,935	-0,106	-0,014
-473,503	800,000	0,006	0,017
-472,489	182,704	0,061	0,066
-471,474	800,000	0,042	-0,097
-470,459	-200,000	0,011	-0,117
-469,445	-83,103	-0,083	0,019
-468,430	-200,000	-0,021	-0,123
-467,416	-83,060	0,055	0,013
-466,401	160,972	-0,032	0,033
-465,386	121,879	0,039	-0,036
-464,372	-58,478	0,057	0,018
-463,357	142,520	0,017	-0,017
-462,343	800,000	-0,030	0,092
-461,328	-200,000	0,007	0,052
-460,313	-200,000	-0,010	0,078
-459,299	-200,000	-0,004	-0,023
-458,284	129,683	0,124	0,117
-457,270	-39,673	0,094	0,036
-456,255	800,000	0,031	-0,076
-455,241	634,304	0,050	0,093
-454,226	-195,058	-0,032	-0,000
-453,211	800,000	0,028	-0,090
-452,197	-13,259	-0,105	-0,050
-451,182	365,870	0,055	-0,082
-450,168	218,495	0,073	0,087
-449,153	146,125	-0,082	-0,081
-448,138	800,000	-0,050	-0,140
-447,124	-123,760	-0,070	0,008
-446,109	-200,000	-0,014	-0,063
-445,095	14,110	0,133	0,076
-444,080	-200,000	-0,006	0,147
-443,065	-200,000	0,015	-0,069
-442,051	455,375	0,040	0,066
-441,036	-10,021	-0,086	-0,042
-440,022	-200,000	0,014	-0,061
-439,007	132,233	-0,048	-0,045
-437,992	800,000	-0,012	0,026
-436,978	-20,170	-0,112	-0,050
-435,963	174,680	0,053	-0,056
-434,949	193,245	-0,036	0,041
-433,934	-200,000	0,002	-0,043
-432,919	495,226	0,067	-0,114
-431,905	-80,113	0,187	-0,046
-430,890	26,831	0,117	-0,072
-429,876	419,182	-0,038	-0,060
-428,861	-200,000	0,019	0,130
-427,846	-200,000	0,023	-0,122
-426,832	800,000	-0,030	-0,066
-425,817	-46,428	-0,157	-0,056
-424,803	-71,374	-0,085	0,023
-423,788	87,414	-0,013	0,011
-422,773	167,472	-0,072	0,075
-421,759	43,581	-0,068	-0,046
-420,744	42,426	0,134	-0,089
-419,730	-153,196	-0,131	0,007
-418,715	-118,534	-0,110	0,014
-417,701	-18,255	0,099	-0,046
-416,686	-200,000	0,010	0,046
-415,671	677,925	-0,026	-0,050
-414,657	-134,506	0,142	-0,013
-413,642	41,955	-0,120	-0,080
-412,628	213,615	0,043	0,051
-411,613	191,251	0,094	-0,104
-410,598	-61,632	0,116	-0,036
-409,584	-186,332	0,077	0,001
-408,569	-62,359	-0,031	-0,009
-407,555	-200,000	0,035	-0,148
-406,540	638,298	0,051	-0,096
-405,525	-200,000	-0,004	0,014
-404,511	800,000	0,032	-0,091
-403,496	-76,799	-0,062	0,016
-402,482	159,067	-0,089	0,091
-401,467	-100,265	0,120	0,022
-400,452	78,477	-0,045	0,035
-399,438	800,000	0,014	0,029
-398,423	-109,025	0,034	0,005
-397,409	480,182	0,042	0,071
-396,394	-200,000	0,016	0,060
-395,379	-97,681	-0,084	-0,016
-394,365	69,138	-0,037	-0,028
-393,350	475,359	-0,075	0,124
-392,336	35,441	0,035	0,023
-391,321	-105,426	-0,051	-0,008
-390,306	134,647	0,075	-0,072
-389,292	-200,000	-0,017	-0,061
-388,277	-200,000	0,007	0,043
-387,263	116,631	0,120	0,108
-386,248	-135,631	0,109	-0,009
-385,233	-57,077	0,179	-0,058
-384,219	-73,814	-0,055	0,015
-383,204	-200,000	-0,020	0,093
-382,190	33,717	0,080	0,051
-381,175	239,781	-0,038	0,047
-380,160	-123,697	0,114	-0,013
-379,146	-117,940	0,115	0,015
-378,131	-63,729	0,059	-0,018
-377,117	349,588	0,010	0,015
-376,102	18,173	0,020	-0,011
-375,088	154,870	-0,056	0,056
-374,073	208,904	0,038	-0,044
-373,058	-35,067	0,071	-0,028
-372,044	40,854	0,146	0,096
-371,029	-55,671	0,128	-0,042
-370,015	33,529	0,143	0,091
-369,000	-116,610	0,092	0,012
-367,985	-32,782	0,140	0,057
-366,971	-59,126	-0,031	0,010
-365,956	64,110	0,071	0,052
-364,942	-29,712	0,123	0,051
-363,927	122,947	0,081	-0,075
-362,912	800,000	-0,056	-0,168
-361,898	316,856	0,046	-0,063
-360,883	124,612	-0,073	0,068
-359,869	12,012	0,073	0,041
-358,854	-22,412	0,101	0,045
-357,839	800,000	-0,022	-0,052
-356,825	763,232	-0,084	0,168
-355,810	625,010	0,038	0,071
-354,796	-18,980	0,091	-0,042
-353,781	-200,000	-0,001	-0,051
-352,766	-32,780	-0,052	0,021
-351,752	-200,000	0,035	-0,181
-350,737	428,289	-0,035	-0,056
-349,723	-200,000	-0,004	0,161
-348,708	-89,112	0,112	0,024
-347,693	-102,418	-0,090	-0,016
-346,679	152,330	-0,084	-0,084
-345,664	-200,000	-0,002	0,120
-344,650	-200,000	0,005	0,074
-343,635	-200,000	-0,026	0,104
-342,620	-50,572	0,044	0,015
-341,606	-87,049	0,045	0,010
-340,591	85,031	-0,049	0,039
-339,577	-137,793	0,067	0,005
-338,562	-200,000	0,004	-0,092
-337,548	168,448	0,045	0,048
-336,533	96,004	-0,079	0,066
-335,518	-155,508	0,121	0,006
-334,504	-35,160	-0,116	0,046
-333,489	41,000	-0,070	0,047
-332,475	135,762	0,072	0,068
-331,460	-18,825	0,150	0,068
-330,445	119,898	-0,138	0,126
-329,431	207,811	-0,060	-0,069
-328,416	-66,619	0,050	-0,015
-327,402	-200,000	0,004	0,108
-326,387	136,555	0,054	-0,052
-325,372	-89,916	-0,063	-0,013
-324,358	-104,806	-0,070	-0,012
-323,343	-200,000	0,007	0,060
-322,329	457,154	-0,053	0,087
-321,314	23,257	0,091	0,055
-320,299	800,000	0,035	0,083
-319,285	800,000	0,032	0,097
-318,270	274,443	-0,113	-0,147
-317,256	-43,749	-0,130	-0,048
-316,241	-200,000	0,026	0,130
-315,226	-39,672	0,108	-0,041
-314,212	576,684	0,049	-0,087
-313,197	-101,369	0,103	-0,018
-312,183	284,158	-0,094	0,124
-311,168	-200,000	0,018	-0,085
-310,153	64,285	0,038	0,028
-309,139	82,387	-0,065	0,052
-308,124	-200,000	0,015	0,104
-307,110	-200,000	0,036	0,142
-306,095	455,381	-0,018	0,030
-305,080	219,093	0,004	0,005
-304,066	-87,720	-0,082	-0,018
-303,051	43,982	-0,049	-0,033
-302,037	-87,817	-0,084	-0,018
-301,022	135,290	-0,105	-0,100
-300,008	236,878	0,084	0,102
-298,993	69,785	0,043	0,033
-297,978	-144,239	0,083	-0,006
-296,964	339,056	-0,062	-0,088
-295,949	420,893	-0,015	-0,024
-294,935	-200,000	-0,016	-0,055
-293,920	41,867	-0,050	-0,033
-292,905	230,703	0,084	-0,101
-291,891	-200,000	0,000	0,086
-290,876	-200,000	0,001	0,041
-289,862	-200,000	-0,006	-0,038
-288,847	-175,111	-0,032	-0,001
-287,832	-200,000	0,002	-0,060
-286,818	-85,049	-0,044	0,010
-285,803	-78,383	-0,096	0,024
-284,789	54,694	0,032	-0,022
-283,774	-151,543	0,137	-0,007
-282,759	193,197	-0,083	-0,092
-281,745	426,477	-0,041	-0,066
-280,730	-179,218	-0,055	0,001
-279,716	240,171	-0,032	0,039
-278,701	-44,714	0,090	0,033
-277,686	314,496	-0,002	-0,003
-276,672	189,728	0,117	0,128
-275,657	-33,186	0,087	-0,035
-274,643	29,233	-0,077	0,048
-273,628	-200,000	0,031	-0,109
-272,613	-47,894	-0,065	-0,023
-271,599	-72,926	0,045	0,012
-270,584	116,143	-0,027	-0,024
-269,570	-200,000	0,032	0,170
-268,555	-109,182	0,030	0,005
-267,540	7,221	-0,023	0,012
-266,526	-40,007	0,045	-0,017
-265,511	403,173	-0,044	-0,068
-264,497	-47,887	-0,031	-0,011
-263,482	-200,000	-0,021	0,073
-262,467	441,336	0,054	0,086
-261,453	194,500	-0,100	0,110
-260,438	-52,775	-0,040	-0,013
-259,424	122,127	-0,124	-0,114
-258,409	218,089	-0,059	-0,069
-257,395	800,000	0,021	-0,043
-256,380	-84,688	0,105	-0,024
-255,365	273,390	-0,074	-0,096
-254,351	744,603	-0,037	0,072
-253,336	152,053	0,035	-0,035
-252,322	-200,000	0,013	-0,050
-251,307	-165,891	0,019	0,001
-250,292	478,979	-0,069	-0,115
-249,278	48,347	0,079	0,054
-248,263	-200,000	-0,005	0,028
-247,249	133,688	0,073	0,069
-246,234	-200,000	-0,003	0,065
-245,219	800,000	-0,043	-0,135
-244,205	-104,266	-0,086	-0,014
-243,190	-200,000	0,015	0,077
-242,176	800,000	0,024	-0,060
-241,161	652,966	-0,042	0,079
-240,146	56,110	-0,081	-0,058
-239,132	-56,709	-0,057	0,018
-238,117	-15,086	-0,118	0,055
-237,103	800,000	-0,020	-0,056
-236,088	-91,140	-0,074	0,015
-235,073	485,804	-0,067	-0,112
-234,059	158,953	0,056	0,057
-233,044	11,766	0,081	-0,045
-232,030	-57,670	-0,174	0,055
-231,015	454,857	0,045	-0,073
-230,000	683,001	0,052	-0,100
-228,986	-48,457	0,100	0,035
-227,971	163,005	-0,075	-0,077
-226,957	149,279	-0,075	0,074
-225,942	-30,978	-0,132	-0,054
-224,927	-140,285	0,046	0,003
-223,913	447,660	-0,053	-0,085
-222,898	10,004	-0,110	-0,061
-221,884	134,895	-0,143	-0,135
-220,869	433,483	0,060	-0,096
-219,855	800,000	0,009	0,022
-218,840	-200,000	-0,026	0,098
-217,825	44,977	-0,106	0,071
-216,811	-70,236	-0,156	-0,043
-215,796	202,082	0,036	0,040
-214,782	800,000	-0,025	-0,072
-213,767	-21,804	-0,046	-0,020
-212,752	-89,263	0,108	-0,023
-211,738	800,000	0,030	-0,089
-210,723	95,285	-0,068	0,056
-209,709	168,642	0,012	-0,013
-208,694	-181,542	0,059	-0,001
-207,679	-19,869	0,183	0,082
-206,665	34,828	-0,049	0,031
-205,650	563,812	0,008	0,015
-204,636	-42,504	0,080	0,030
-203,621	-148,151	0,126	0,007
-202,606	800,000	0,026	0,075
-201,592	-200,000	-0,005	0,119
-200,577	-177,454	0,047	-0,001
-199,563	-72,601	0,106	0,028
-198,548	-51,747	0,127	-0,043
-197,533	800,000	-0,022	0,053
-196,519	-131,680	0,058	0,005
-195,504	672,270	-0,067	-0,128
-194,490	33,658	-0,093	0,059
-193,475	-98,788	0,122	-0,022
-192,460	-2,507	-0,134	-0,068
-191,446	-200,000	-0,047	0,193
-190,431	444,704	-0,069	0,110
-189,417	-132,533	-0,057	0,005
-188,402	63,859	-0,049	-0,036
-187,387	-200,000	0,012	0,096
-186,373	115,142	-0,061	-0,055
-185,358	301,470	-0,012	0,016
-184,344	136,976	0,068	0,065
-183,329	-60,247	-0,021	0,006
-182,315	-200,000	-0,013	0,138
-181,300	-125,928	-0,054	0,006
-180,285	-48,055	0,099	-0,035
-179,271	25,595	-0,142	-0,086
-178,256	-200,000	-0,003	0,035
-177,242	775,087	0,025	-0,050
-176,227	220,400	-0,032	0,038
-175,212	135,612	-0,122	0,116
-174,198	800,000	0,057	0,121
-173,183	146,555	-0,071	-0,069
-172,169	-200,000	-0,013	-0,080
-171,154	-132,833	0,160	-0,015
-170,139	724,166	-0,029	0,056
-169,125	115,084	0,083	0,074
-168,110	-200,000	-0,013	0,053
-167,096	800,000	0,023	-0,051
-166,081	-48,266	-0,063	0,022
-165,066	158,559	-0,096	-0,097
-164,052	99,383	0,041	-0,034
-163,037	-200,000	0,006	0,026
-162,023	305,390	0,096	-0,130
-161,008	-11,716	0,036	0,017
-159,993	457,463	0,015	-0,024
-158,979	364,882	-0,066	0,097
-157,964	-200,000	-0,001	-0,132
-156,950	-200,000	-0,005	-0,067
-155,935	800,000	0,034	0,073
-154,920	516,290	0,010	-0,017
-153,906	-200,000	-0,043	0,227
-152,891	-81,172	0,011	0,003
-151,877	646,527	-0,055	0,102
-150,862	-200,000	0,019	-0,148
-149,847	746,131	0,084	-0,165
-148,833	132,446	0,075	0,071
-147,818	800,000	0,014	-0,036
-146,804	-26,436	-0,053	0,022
-145,789	309,525	0,061	0,083
-144,775	-200,000	0,003	0,037
-143,760	309,873	0,050	0,068
-142,745	-200,000	0,010	-0,144
-141,731	31,800	-0,032	-0,020
-140,716	-135,293	-0,105	0,009
-139,702	-82,599	0,055	0,013
-138,687	115,723	-0,079	0,070
-137,672	118,834	0,092	0,082
-136,658	-200,000	0,005	0,016
-135,643	789,146	0,036	0,072
-134,629	32,055	0,079	0,049
-133,614	-200,000	-0,053	0,244
-132,599	800,000	-0,042	-0,113
-131,585	-200,000	-0,004	0,054
-130,570	-62,749	-0,106	-0,032
-129,556	395,715	-0,071	-0,109
-128,541	800,000	0,025	0,067
-127,526	26,300	-0,175	0,106
-126,512	395,954	-0,062	-0,094
-125,497	-151,962	-0,049	-0,003
-124,483	475,827	-0,032	0,052
-123,468	-200,000	-0,000	0,029
-122,453	-14,053	0,110	-0,051
-121,439	307,715	-0,060	-0,081
-120,424	-200,000	0,017	-0,060
-119,410	325,656	-0,058	-0,081
-118,395	-100,222	-0,034	-0,006
-117,380	-119,711	0,062	-0,008
-116,366	-200,000	0,019	0,120
-115,351	188,586	0,051	-0,056
-114,337	-1,996	-0,090	-0,046
-113,322	800,000	0,038	-0,117
-112,307	800,000	0,044	0,103
-111,293	154,197	-0,035	-0,035
-110,278	6,416	0,122	-0,066
-109,264	-200,000	-0,002	-0,118
-108,249	-129,121	-0,036	0,004
-107,234	-67,740	-0,041	0,012
-106,220	-26,089	0,113	-0,048
-105,205	-7,988	-0,062	0,030
-104,191	-171,521	0,077	-0,002
-103,176	-121,825	-0,031	0,004
-102,162	274,172	0,061	0,078
-101,147	119,065	0,079	-0,071
-100,132	84,892	-0,103	-0,082
-99,118	-200,000	-0,041	-0,152
-98,103	-9,980	0,192	-0,092
-97,089	-70,180	0,072	0,020
-96,074	-133,704	0,121	-0,011
-95,059	800,000	0,018	0,054
-94,045	-200,000	-0,009	0,166
-93,030	-72,498	-0,182	-0,048
-92,016	-200,000	-0,009	-0,070
-91,001	-200,000	-0,020	0,070
-89,986	315,326	0,046	-0,063
-88,972	59,826	0,155	0,111
-87,957	474,542	0,053	-0,086
-86,943	140,444	-0,065	-0,062
-85,928	800,000	-0,011	0,035
-84,913	-113,184	-0,140	-0,020
-83,899	-200,000	0,005	-0,018
-82,884	800,000	-0,018	0,052
-81,870	-91,326	0,060	-0,012
-80,855	-9,237	0,019	0,009
-79,840	254,863	-0,129	0,160
-78,826	322,020	-0,068	0,094
-77,811	-88,364	-0,107	-0,023
-76,797	-14,458	0,169	-0,079
-75,782	-200,000	-0,008	-0,035
-74,767	-20,595	0,048	-0,021
-73,753	-200,000	0,019	0,067
-72,738	-165,637	-0,113	0,003
-71,724	34,688	-0,211	-0,134
-70,709	199,209	0,049	0,054
-69,694	-15,132	0,058	0,027
-68,680	-200,000	-0,028	0,133
-67,665	-200,000	0,007	-0,109
-66,651	-200,000	0,003	0,017
-65,636	29,481	-0,176	0,109
-64,622	22,852	0,047	-0,028
-63,607	-108,666	0,062	-0,010
-62,592	-200,000	0,037	-0,130
-61,578	142,640	0,036	0,035
-60,563	-200,000	-0,023	0,144
-59,549	-33,104	-0,040	0,016
-58,534	-148,294	-1,163	0,068
-57,519	544,158	-0,920	-1,598
-56,505	-200,000	-0,616	-4,130
-55,490	30,683	0,631	-0,391
-54,476	800,000	4,858	11,377
-53,461	-200,000	12,168	231,672
-52,446	-200,000	679,473	2209,896
-51,432	590,874	1623,530	2915,479
-50,417	126,627	1646,251	1511,299
-49,403	80,578	1302,978	1016,665
-48,388	41,981	1036,109	680,082
-47,373	26,176	992,526	599,178
-46,359	25,296	982,466	590,172
-45,344	24,527	978,381	585,160
-44,330	24,420	976,623	583,734
-43,315	24,325	975,178	582,536
-42,300	24,355	974,227	582,044
-41,286	24,300	973,449	581,375
-40,271	24,291	972,438	580,718
-39,257	24,332	971,472	580,252
-38,242	24,325	970,631	579,703
-37,227	24,389	969,495	579,211
-36,213	24,236	968,781	578,264
-35,198	24,316	967,675	577,838
-34,184	24,336	967,176	577,583
-33,169	24,287	966,099	576,758
-32,154	24,338	965,126	576,322
-31,140	24,333	964,315	575,796
-30,125	24,351	963,654	575,438
-29,111	24,380	962,731	574,958
-28,096	24,368	961,854	574,372
-27,082	24,248	961,349	573,660
-26,067	24,356	960,582	573,528
-25,052	24,323	959,796	572,931
-24,038	24,285	959,225	572,444
-23,023	24,292	958,525	572,027
-22,009	24,328	957,785	571,677
-20,994	24,409	957,165	571,548
-19,979	24,378	956,500	571,026
-18,965	24,320	955,899	570,457
-17,950	24,359	955,119	570,095
-16,936	24,333	954,305	569,502
-15,921	24,278	953,662	568,919
-14,906	24,231	953,089	568,405
-13,892	24,246	952,389	568,013
-12,877	24,258	951,824	567,693
-11,863	24,169	951,206	567,015
-10,848	24,166	950,705	566,686
-9,833	24,285	950,174	566,728
-8,819	24,310	949,722	566,516
-7,804	24,218	949,013	565,775
-6,790	24,235	948,430	565,461
-5,775	24,238	947,776	565,058
-4,760	24,265	947,136	564,741
-3,746	24,208	946,606	564,220
-2,731	24,082	945,622	563,211
-1,717	24,018	945,114	562,682
-0,702	24,040	944,370	562,286
0,313	23,851	943,655	562,109
1,327	26,230	941,560	568,350
2,342	34,297	821,787	518,191
3,356	30,358	518,880	320,337
4,371	6,433	379,565	203,546
5,386	3,439	362,038	190,414
6,400	1,766	355,939	185,144
7,415	0,804	352,833	182,346
8,429	0,496	351,227	181,128
9,444	0,614	350,442	180,849
10,459	0,472	349,661	180,259
11,473	0,461	349,008	179,893
12,488	0,758	348,498	179,970
13,502	0,727	348,030	179,675
14,517	0,400	347,612	179,052
15,531	0,137	346,612	178,209
16,546	0,204	346,279	178,102
17,561	0,036	345,883	177,682
18,575	0,282	345,456	177,739
19,590	0,119	345,128	177,361
20,604	0,158	344,881	177,265
21,619	0,114	344,323	176,909
22,634	0,242	343,990	176,874
23,648	0,229	343,642	176,665
24,663	0,101	343,380	176,362
25,677	0,141	343,163	176,283
26,692	0,213	342,649	176,088
27,707	0,249	342,340	175,955
28,721	0,265	342,066	175,818
29,736	0,216	341,650	175,531
30,750	0,010	341,601	175,248
31,765	0,081	341,094	175,057
32,780	0,018	340,989	174,912
33,794	0,187	340,751	174,973
34,809	0,146	340,296	174,675
35,823	0,148	340,150	174,588
36,838	0,192	339,715	174,400
37,853	0,175	339,430	174,219
38,867	0,024	339,214	173,916
39,882	-0,004	338,951	173,733
40,896	0,205	338,545	173,752
41,911	-0,005	338,348	173,392
42,926	0,012	338,035	173,236
43,940	-0,004	337,881	173,123
44,955	-0,124	337,539	172,793
45,969	-0,148	337,277	172,616
46,984	-0,274	336,911	172,268
47,999	-0,502	336,824	171,944
49,013	-0,576	336,404	171,630
50,028	-0,652	335,941	171,290
51,042	-0,534	335,682	171,279
52,057	-0,722	335,312	170,858
53,071	-0,644	335,120	170,835
54,086	-0,549	334,922	170,828
55,101	-0,527	334,812	170,782
56,115	-0,113	334,634	171,151
57,130	0,102	334,550	171,340
58,144	0,242	334,405	171,410
59,159	0,334	334,132	171,359
60,174	0,243	333,714	171,026
61,188	0,185	333,663	170,919
62,203	0,277	333,286	170,814
63,217	0,258	332,973	170,617
64,232	0,270	332,758	170,506
65,247	0,426	332,702	170,640
66,261	0,371	332,326	170,369
67,276	-0,064	331,782	169,581
68,290	-0,189	331,630	169,346
69,305	-0,130	331,259	169,208
70,320	-0,106	331,107	169,143
71,334	-0,065	330,964	169,102
72,349	0,336	330,676	169,393
73,363	0,437	330,487	169,396
74,378	0,222	330,390	169,088
75,393	0,420	329,826	169,007
76,407	0,208	329,818	168,749
77,422	0,352	329,374	168,669
78,436	0,187	329,239	168,399
79,451	0,360	329,060	168,487
80,466	0,029	328,762	167,948
81,480	-0,028	328,136	167,549
82,495	-0,083	328,016	167,411
83,509	-0,161	327,907	167,253
84,524	-0,039	327,569	167,202
85,539	-0,257	327,193	166,752
86,553	-0,210	327,048	166,716
87,568	-0,267	327,000	166,612
88,582	-0,240	326,684	166,467
89,597	-0,046	326,335	166,490
90,611	-0,048	326,309	166,460
91,626	0,262	326,087	166,677
92,641	0,141	325,783	166,371
93,655	0,222	325,398	166,251
94,670	-0,045	325,288	165,883
95,684	0,081	324,956	165,839
96,699	0,013	324,771	165,653
97,714	-0,002	324,472	165,470
98,728	-0,280	324,391	165,106
99,743	-0,326	324,004	164,844
100,757	-0,316	323,628	164,648
101,772	-0,162	323,656	164,818
102,787	0,061	323,141	164,787
103,801	-0,046	323,281	164,726
104,816	-0,058	322,978	164,544
105,830	0,253	322,842	164,803
106,845	0,199	322,670	164,640
107,860	0,110	322,367	164,373
108,874	0,148	322,103	164,265
109,889	0,179	321,750	164,105
110,903	0,114	321,519	163,901
111,918	-0,106	321,471	163,621
112,933	0,079	321,189	163,666
113,947	0,108	321,016	163,594
114,962	0,221	320,721	163,553
115,976	0,181	320,489	163,376
116,991	0,101	320,208	163,131
118,006	0,256	320,048	163,205
119,020	0,195	319,922	163,059
120,035	0,403	319,709	163,162
121,049	0,304	319,515	162,941
122,064	0,211	319,372	162,752
123,079	0,070	319,031	162,412
124,093	0,084	318,703	162,244
125,108	-0,111	318,389	161,859
126,122	-0,246	318,044	161,523
127,137	-0,421	317,824	161,208
128,151	-0,288	317,718	161,283
129,166	-0,241	317,570	161,244
130,181	-0,141	317,244	161,173
131,195	-0,167	316,908	160,960
132,210	0,125	316,844	161,228
133,224	0,130	316,729	161,160
134,239	0,183	316,538	161,106
135,254	0,325	316,169	161,056
136,268	0,123	315,940	160,708
137,283	-0,117	315,583	160,254
138,297	-0,178	315,297	160,029
139,312	-0,200	315,123	159,904
140,327	0,018	315,175	160,149
141,341	0,356	315,064	160,440
142,356	0,564	314,651	160,437
143,370	0,617	314,642	160,476
144,385	0,428	314,459	160,166
145,400	0,495	314,094	160,038
146,414	0,421	313,990	159,892
147,429	0,321	313,727	159,637
148,443	0,508	313,492	159,701
149,458	0,517	313,473	159,687
150,473	0,742	313,080	159,712
151,487	0,447	312,813	159,248
152,502	0,487	312,610	159,173
153,516	0,448	312,413	159,018
154,531	0,534	312,221	158,996
155,546	0,442	312,104	158,825
156,560	0,479	311,582	158,586
157,575	0,329	311,481	158,361
158,589	0,466	311,312	158,405
159,604	0,491	311,037	158,278
160,619	0,199	311,026	157,950
161,633	0,328	310,732	157,922
162,648	0,466	310,471	157,921
163,662	0,411	310,371	157,798
164,677	0,444	310,191	157,728
165,692	0,590	309,870	157,703
166,706	0,544	309,732	157,571
167,721	0,335	309,609	157,274
168,735	0,420	309,295	157,191
169,750	0,509	309,170	157,206
170,764	0,621	309,055	157,251
171,779	0,712	308,843	157,225
172,794	0,561	308,573	156,915
173,808	0,558	308,338	156,779
174,823	0,083	307,892	156,042
175,837	-0,296	307,789	155,580
176,852	0,127	307,904	156,067
177,867	0,621	307,569	156,397
178,881	0,688	307,466	156,401
179,896	0,687	307,209	156,255
180,910	0,690	307,049	156,163
181,925	0,713	306,802	156,047
182,940	0,762	306,645	156,004
183,954	0,672	306,321	155,732
184,969	0,554	306,150	155,509
185,983	0,626	305,955	155,471
186,998	0,609	305,746	155,333
188,013	0,647	305,468	155,217
189,027	0,538	305,450	155,082
190,042	0,613	305,235	155,037
191,056	0,695	304,912	154,943
192,071	0,717	304,743	154,865
193,086	0,856	304,645	154,945
194,100	0,894	304,330	154,811
195,115	0,832	303,920	154,525
196,129	0,645	303,874	154,295
197,144	0,787	303,696	154,337
198,159	0,793	303,522	154,241
199,173	0,616	303,315	153,940
200,188	0,732	303,146	153,959
201,202	0,750	302,680	153,728
202,217	0,156	302,147	152,836
203,232	-0,059	302,105	152,582
204,246	0,416	302,040	153,021
205,261	0,719	301,905	153,248
206,275	0,668	301,818	153,137
207,290	0,812	301,671	153,196
208,304	0,739	301,342	152,941
209,319	0,751	301,187	152,861
210,334	0,741	301,135	152,811
211,348	0,718	300,831	152,620
212,363	0,864	300,410	152,540
213,377	0,657	300,505	152,365
214,392	0,649	300,292	152,235
215,407	0,476	300,095	151,947
216,421	0,264	299,714	151,526
217,436	0,187	299,483	151,318
218,450	0,442	299,285	151,461
219,465	0,744	299,114	151,667
220,480	0,829	299,054	151,709
221,494	0,613	298,913	151,406
222,509	0,570	298,685	151,233
223,523	0,734	298,589	151,337
224,538	0,752	298,278	151,183
225,553	0,975	298,001	151,253
226,567	0,805	297,846	150,991
227,582	0,815	297,828	150,978
228,596	0,781	297,737	150,884
229,611	0,778	297,566	150,781
230,626	0,634	297,190	150,434
231,640	0,459	296,674	149,984
232,655	0,023	296,358	149,375
233,669	-0,148	296,221	149,122
234,684	-0,245	296,035	148,918
235,699	-0,029	295,979	149,091
236,713	0,151	295,765	149,151
237,728	0,321	295,628	149,238
238,742	0,476	295,475	149,301
239,757	0,703	295,385	149,468
240,772	0,718	295,328	149,440
241,786	0,772	295,052	149,342
242,801	0,552	294,632	148,897
243,815	0,286	294,611	148,609
244,830	0,518	294,532	148,787
245,844	0,461	294,046	148,471
246,859	0,414	294,019	148,398
247,874	0,305	293,707	148,119
248,888	0,439	293,640	148,205
249,903	0,613	293,499	148,293
250,917	0,676	293,389	148,285
251,932	0,861	293,435	148,478
252,947	1,497	293,544	149,148
253,961	1,817	293,287	149,319
254,976	2,297	293,323	149,798
255,990	3,323	293,566	150,920
257,005	3,969	293,525	151,522
258,020	4,596	293,714	152,224
259,034	4,197	293,625	151,771
260,049	4,176	293,249	151,543
261,063	4,067	292,924	151,254
262,078	4,374	293,033	151,598
263,093	4,869	293,063	152,087
264,107	4,997	292,725	152,023
265,122	4,971	292,493	151,863
266,136	5,330	292,440	152,174
267,151	5,029	292,382	151,836
268,166	4,960	292,010	151,561
269,180	4,856	291,788	151,331
270,195	4,805	291,564	151,152
271,209	4,728	291,593	151,078
272,224	4,869	291,179	150,987
273,239	4,730	290,875	150,681
274,253	4,509	290,875	150,452
275,268	5,298	290,739	151,137
276,282	5,113	290,417	150,776
277,297	5,061	290,373	150,690
278,312	5,217	290,275	150,776
279,326	4,941	290,020	150,363
280,341	4,983	289,748	150,249
281,355	4,774	289,526	149,918
282,370	4,582	289,290	149,596
283,384	4,622	289,127	149,538
284,399	4,665	288,952	149,475
285,414	4,880	288,840	149,613
286,428	4,535	288,664	149,174
287,443	4,504	288,277	148,931
288,457	4,491	288,118	148,823
289,472	4,448	287,897	148,654
290,487	4,431	287,655	148,500
291,501	4,417	287,385	148,333
292,516	4,140	287,195	147,956
293,530	4,186	287,109	147,942
294,545	4,646	287,038	148,334
295,560	4,655	286,774	148,194
296,574	4,317	286,618	147,776
297,589	4,455	286,575	147,873
298,603	4,745	286,383	148,038
299,618	4,955	286,313	148,189
300,633	4,661	286,060	147,765
301,647	4,662	285,893	147,666
302,662	4,698	285,617	147,544
303,676	4,551	285,418	147,288
304,691	4,274	285,085	146,840
305,706	4,142	284,820	146,565
306,720	4,447	284,597	146,727
307,735	4,316	284,555	146,568
308,749	4,320	284,538	146,549
309,764	4,572	284,357	146,682
310,779	4,406	283,842	146,247
311,793	4,098	283,839	145,940
312,808	4,149	283,723	145,915
313,822	4,125	283,476	145,753
314,837	4,285	283,195	145,746
315,852	4,194	283,052	145,574
316,866	4,263	282,898	145,547
317,881	4,235	282,784	145,448
318,895	4,311	282,452	145,337
319,910	4,067	282,216	144,973
320,925	3,779	282,127	144,643
321,939	4,086	282,096	144,903
322,954	4,469	281,918	145,159
323,968	4,409	281,808	145,032
324,983	4,362	281,498	144,816
325,997	4,579	281,324	144,917
327,012	4,700	281,283	144,997
328,027	4,520	281,025	144,682
329,041	4,454	280,801	144,492
330,056	4,492	280,620	144,422
331,070	4,495	280,468	144,333
332,085	4,108	280,458	143,953
333,100	4,464	280,121	144,100
334,114	4,161	280,003	143,744
335,129	4,184	279,627	143,560
336,143	4,635	279,520	143,912
337,158	4,590	279,462	143,827
338,173	4,513	279,231	143,623
339,187	4,428	279,008	143,417
340,202	4,359	278,819	143,243
341,216	4,571	278,635	143,333
342,231	4,579	278,463	143,239
343,246	4,644	278,269	143,186
344,260	4,457	278,120	142,924
345,275	4,741	278,082	143,154
346,289	4,930	278,050	143,300
347,304	4,793	277,793	143,029
348,319	4,704	277,558	142,813
349,333	4,261	277,349	142,284
350,348	4,820	277,315	142,769
351,362	4,928	276,965	142,675
352,377	4,725	276,920	142,452
353,392	4,801	276,663	142,378
354,406	4,705	276,593	142,240
355,421	192,384	1335,742	1417,169
356,435	155,561	1464,912	1417,333
