DTS Sentinel unit serial number:	SN410029Multiplexer serial number:	ORYXHardware model number:	OX2-SRSoftware version number:	ORYX F/W v4,00 Oryx Data Collector v3.7.2.0data status	okinstallation	B4 Nyhavnadifferential loss correction	single-endedforward channel	channel 2reverse channel	N/Adate	2023/12/18time	17:30:13forward acquisition time	300,00reverse acquisition time	0,00gamma	499,1914k internal	0,3124k external	0,3124temperature offset calibration	1,0000default loss term (dB/km)	0,3820temperature slope calibration	1,0000multiplexer offset coefficient	1,0000multiplexer slope coefficient	1,0000fibre end	0,00T internal ref (°C)	21,69T ext. ref 1 (°C)	7,21T ext. ref 2 (°C)	7,27length (m)	temperature (°C)	Stokes	anti-Stokes-744,400	545,839	0,088	-0,158
-743,385	59,719	-0,158	0,116
-742,371	-200,000	0,021	-0,191
-741,356	-31,280	-0,215	0,090
-740,342	103,816	0,044	-0,039
-739,327	-5,306	-0,297	0,151
-738,312	49,720	-0,057	-0,040
-737,298	-65,734	-0,249	-0,074
-736,283	800,000	0,034	-0,071
-735,269	-107,936	-0,294	0,047
-734,254	220,334	-0,068	-0,082
-733,239	-16,540	-0,332	-0,156
-732,225	271,137	0,071	-0,094
-731,210	407,370	-0,064	0,101
-730,196	114,312	-0,037	0,034
-729,181	-8,695	-0,099	-0,049
-728,167	393,247	-0,009	-0,014
-727,152	83,021	-0,136	-0,110
-726,137	-132,395	-0,136	0,013
-725,123	268,273	-0,030	0,040
-724,108	-200,000	-0,008	-0,125
-723,094	82,105	-0,183	-0,147
-722,079	-200,000	-0,002	0,019
-721,064	-109,314	-0,030	-0,005
-720,050	-68,050	-0,025	-0,007
-719,035	21,911	-0,033	-0,020
-718,021	-9,735	-0,068	0,034
-717,006	-200,000	-0,002	0,081
-715,991	319,342	-0,091	-0,128
-714,977	246,365	-0,027	-0,034
-713,962	800,000	0,018	-0,059
-712,948	398,233	0,058	-0,091
-711,933	227,964	0,038	0,046
-710,918	-103,225	0,079	0,014
-709,904	131,319	-0,076	-0,073
-708,889	-200,000	-0,009	-0,096
-707,875	9,448	-0,030	-0,017
-706,860	-42,366	0,083	-0,031
-705,845	-200,000	0,008	-0,056
-704,831	-200,000	0,011	0,047
-703,816	-77,440	-0,049	0,012
-702,802	515,839	-0,037	0,065
-701,787	-67,201	0,031	-0,009
-700,772	-200,000	-0,002	0,104
-699,758	-200,000	0,018	-0,110
-698,743	485,924	0,024	-0,041
-697,729	46,345	-0,074	-0,051
-696,714	-116,192	-0,021	0,003
-695,699	21,946	-0,089	-0,054
-694,685	800,000	-0,049	-0,136
-693,670	388,404	0,048	-0,074
-692,656	-101,455	0,224	-0,040
-691,641	-200,000	-0,009	-0,037
-690,627	291,991	0,091	0,124
-689,612	365,506	-0,103	-0,155
-688,597	-200,000	-0,002	-0,050
-687,583	800,000	0,015	-0,044
-686,568	800,000	-0,063	-0,139
-685,554	-93,946	0,062	-0,012
-684,539	141,342	0,029	-0,029
-683,524	114,804	0,042	0,038
-682,510	-187,457	-0,086	0,001
-681,495	800,000	-0,049	0,105
-680,481	309,142	-0,089	0,124
-679,466	141,886	-0,105	-0,103
-678,451	362,737	0,035	-0,053
-677,437	-200,000	0,000	-0,050
-676,422	-63,876	-0,086	0,026
-675,408	-200,000	-0,007	0,096
-674,393	-111,149	0,089	-0,013
-673,378	256,515	-0,030	-0,038
-672,364	263,145	-0,093	-0,120
-671,349	-126,950	-0,145	-0,016
-670,335	-200,000	0,008	-0,080
-669,320	57,065	-0,091	-0,066
-668,305	214,369	0,061	0,071
-667,291	-200,000	0,020	0,083
-666,276	66,968	-0,080	0,060
-665,262	-53,210	-0,142	-0,048
-664,247	285,172	-0,082	-0,109
-663,232	-200,000	0,012	-0,094
-662,218	-200,000	-0,009	0,074
-661,203	-200,000	0,027	-0,126
-660,189	118,968	-0,057	-0,052
-659,174	-200,000	-0,039	-0,199
-658,159	513,811	-0,045	-0,079
-657,145	-17,435	0,087	-0,040
-656,130	144,593	0,071	0,070
-655,116	-200,000	-0,001	-0,005
-654,101	800,000	-0,038	-0,092
-653,086	101,916	-0,106	-0,092
-652,072	-200,000	-0,003	-0,019
-651,057	123,855	0,070	-0,066
-650,043	30,754	-0,232	-0,147
-649,028	-145,556	-0,062	0,004
-648,014	800,000	-0,047	-0,114
-646,999	800,000	-0,064	-0,165
-645,984	134,039	-0,057	-0,055
-644,970	391,896	-0,097	-0,150
-643,955	800,000	0,030	-0,092
-642,941	-104,879	0,045	0,008
-641,926	385,923	-0,028	0,043
-640,911	-98,877	-0,014	-0,003
-639,897	-91,517	-0,103	0,022
-638,882	47,498	0,059	-0,041
-637,868	217,031	-0,013	-0,015
-636,853	-76,974	-0,099	0,025
-635,838	-94,021	0,044	0,009
-634,824	800,000	0,037	-0,080
-633,809	-200,000	0,007	-0,053
-632,795	-200,000	0,012	0,063
-631,780	29,392	0,055	-0,034
-630,765	800,000	-0,043	-0,114
-629,751	517,199	0,045	-0,078
-628,736	44,150	-0,126	-0,085
-627,722	-85,705	0,085	-0,019
-626,707	800,000	0,020	-0,053
-625,692	-200,000	0,014	0,100
-624,678	-200,000	0,007	-0,027
-623,663	169,339	-0,065	-0,069
-622,649	119,939	0,032	0,030
-621,634	155,790	-0,081	-0,083
-620,619	507,713	-0,070	-0,121
-619,605	-27,651	-0,009	-0,004
-618,590	358,171	0,081	-0,120
-617,576	415,902	0,080	0,127
-616,561	-105,133	-0,135	0,023
-615,546	-184,500	0,095	-0,001
-614,532	-140,115	-0,040	0,003
-613,517	486,512	0,117	-0,199
-612,503	-200,000	0,016	-0,068
-611,488	-17,836	0,074	0,034
-610,474	66,782	0,069	-0,052
-609,459	134,056	0,076	0,073
-608,444	34,334	-0,077	0,050
-607,430	198,253	-0,013	0,015
-606,415	-200,000	-0,012	-0,140
-605,401	-200,000	-0,001	0,025
-604,386	800,000	0,073	0,215
-603,371	-145,163	-0,025	-0,002
-602,357	800,000	0,076	0,183
-601,342	-200,000	-0,010	0,079
-600,328	51,301	-0,066	-0,047
-599,313	540,714	0,034	-0,060
-598,298	-200,000	0,003	0,019
-597,284	-85,846	-0,076	0,017
-596,269	-200,000	0,013	0,075
-595,255	315,252	-0,089	0,124
-594,240	-62,339	0,091	-0,028
-593,225	800,000	0,047	-0,147
-592,211	-25,310	-0,074	-0,032
-591,196	269,655	0,052	0,067
-590,182	109,092	-0,113	0,100
-589,167	467,472	0,055	-0,092
-588,152	-200,000	-0,051	0,208
-587,138	800,000	0,013	0,031
-586,123	691,241	0,025	0,048
-585,109	420,380	-0,071	-0,114
-584,094	764,514	-0,055	0,111
-583,079	628,753	0,039	-0,074
-582,065	321,611	-0,020	0,028
-581,050	-200,000	-0,014	-0,054
-580,036	182,587	-0,046	0,051
-579,021	800,000	-0,021	-0,057
-578,006	800,000	-0,007	-0,018
-576,992	-91,317	-0,037	0,008
-575,977	14,565	-0,098	0,056
-574,963	800,000	-0,020	0,064
-573,948	-200,000	-0,001	0,159
-572,934	800,000	-0,044	-0,095
-571,919	38,716	-0,131	0,086
-570,904	-170,828	-0,103	0,003
-569,890	58,760	-0,049	-0,035
-568,875	-75,075	-0,019	-0,005
-567,861	-54,215	-0,011	-0,004
-566,846	321,463	-0,069	-0,097
-565,831	800,000	0,017	0,045
-564,817	486,523	-0,138	-0,234
-563,802	-13,709	-0,149	-0,071
-562,788	800,000	-0,043	-0,115
-561,773	-28,073	0,081	-0,034
-560,758	-200,000	0,020	0,076
-559,744	-4,744	0,091	-0,046
-558,729	-200,000	0,019	0,125
-557,715	69,450	-0,063	-0,048
-556,700	-75,209	-0,067	0,017
-555,685	424,048	0,042	0,066
-554,671	50,915	-0,012	0,008
-553,656	-62,175	0,160	0,049
-552,642	198,312	0,036	-0,040
-551,627	-200,000	-0,001	0,030
-550,612	-138,262	0,168	-0,014
-549,598	414,996	0,027	-0,043
-548,583	13,262	0,092	-0,052
-547,569	800,000	0,007	0,020
-546,554	337,049	-0,036	0,052
-545,539	-200,000	0,028	0,128
-544,525	399,499	0,055	0,086
-543,510	476,737	0,032	-0,053
-542,496	800,000	-0,039	-0,111
-541,481	206,261	-0,021	-0,024
-540,466	203,187	-0,092	-0,105
-539,452	308,603	-0,077	0,106
-538,437	355,510	0,042	0,062
-537,423	2,388	-0,053	-0,028
-536,408	197,462	-0,113	0,128
-535,393	26,651	-0,139	-0,086
-534,379	716,485	-0,072	-0,141
-533,364	-200,000	0,016	-0,068
-532,350	136,251	0,073	-0,070
-531,335	155,871	-0,084	0,086
-530,321	62,952	0,053	0,039
-529,306	-67,065	0,111	0,032
-528,291	-86,592	0,039	-0,009
-527,277	463,036	0,021	-0,035
-526,262	-96,099	-0,019	-0,004
-525,248	18,991	-0,064	-0,038
-524,233	800,000	0,005	-0,017
-523,218	800,000	0,067	0,169
-522,204	89,348	-0,106	0,087
-521,189	134,787	-0,101	-0,096
-520,175	16,253	-0,132	0,077
-519,160	-200,000	-0,013	0,050
-518,145	800,000	-0,041	0,089
-517,131	-200,000	-0,006	0,029
-516,116	-200,000	-0,008	-0,082
-515,102	510,708	-0,015	0,026
-514,087	19,670	0,091	-0,054
-513,072	423,865	-0,055	-0,088
-512,058	800,000	-0,047	-0,106
-511,043	193,982	0,154	-0,173
-510,029	-200,000	-0,003	0,117
-509,014	119,928	0,074	0,068
-507,999	41,438	-0,030	0,020
-506,985	54,115	-0,066	0,047
-505,970	-69,090	-0,089	-0,025
-504,956	217,918	0,044	-0,052
-503,941	457,948	0,041	0,068
-502,926	-200,000	0,008	-0,091
-501,912	-115,205	-0,098	0,014
-500,897	-200,000	0,029	0,129
-499,883	-29,565	-0,051	-0,021
-498,868	319,716	-0,123	-0,173
-497,853	-200,000	0,004	0,042
-496,839	107,829	0,114	0,100
-495,824	-71,839	0,082	-0,022
-494,810	130,996	-0,023	0,021
-493,795	800,000	-0,046	0,112
-492,781	-28,390	-0,115	-0,049
-491,766	258,009	-0,064	-0,082
-490,751	-132,228	0,085	-0,008
-489,737	311,547	0,059	-0,082
-488,722	800,000	0,051	-0,139
-487,708	27,664	0,019	-0,011
-486,693	355,037	-0,106	-0,156
-485,678	-200,000	0,003	0,104
-484,664	-29,987	-0,081	-0,034
-483,649	156,370	-0,057	-0,058
-482,635	576,637	-0,031	-0,056
-481,620	208,948	0,168	0,194
-480,605	369,705	-0,061	0,091
-479,591	-100,552	0,068	-0,012
-478,576	-200,000	0,004	0,081
-477,562	-200,000	-0,022	-0,239
-476,547	-200,000	-0,046	-0,160
-475,532	-94,903	0,050	-0,010
-474,518	-200,000	0,014	0,129
-473,503	800,000	-0,066	0,143
-472,489	65,112	0,070	0,052
-471,474	107,934	-0,081	0,072
-470,459	614,614	0,066	-0,123
-469,445	-200,000	0,031	0,148
-468,430	-200,000	0,012	-0,095
-467,416	87,432	0,095	0,078
-466,401	-87,696	-0,092	-0,020
-465,386	-200,000	0,034	-0,126
-464,372	224,230	0,030	-0,035
-463,357	-18,409	-0,111	0,051
-462,343	-200,000	0,010	0,147
-461,328	761,598	0,019	0,038
-460,313	252,264	-0,055	0,069
-459,299	-200,000	-0,009	0,139
-458,284	5,695	0,115	-0,062
-457,270	-42,870	0,047	0,017
-456,255	749,959	0,025	-0,050
-455,241	168,884	-0,086	0,091
-454,226	-200,000	0,028	-0,101
-453,211	-128,893	0,134	0,014
-452,197	631,589	0,062	0,116
-451,182	340,627	0,062	-0,089
-450,168	546,313	0,042	-0,074
-449,153	400,468	-0,020	-0,031
-448,138	-200,000	-0,003	-0,074
-447,124	25,333	0,024	-0,015
-446,109	-111,507	-0,150	-0,022
-445,095	800,000	0,043	0,133
-444,080	-83,555	-0,127	0,030
-443,065	202,910	-0,064	-0,073
-442,051	-70,297	0,055	-0,015
-441,036	114,594	-0,072	0,065
-440,022	94,652	-0,022	-0,019
-439,007	51,089	0,045	0,031
-437,992	-31,031	-0,061	0,025
-436,978	-63,272	0,041	0,012
-435,963	-71,792	0,175	-0,048
-434,949	280,735	0,012	0,015
-433,934	-147,911	0,078	0,005
-432,919	-49,466	-0,082	-0,029
-431,905	52,234	0,105	-0,073
-430,890	800,000	-0,076	-0,182
-429,876	16,282	-0,044	-0,026
-428,861	147,502	-0,090	0,089
-427,846	254,269	-0,036	0,045
-426,832	-200,000	0,014	-0,108
-425,817	-47,324	0,047	-0,017
-424,803	440,818	-0,065	0,106
-423,788	-34,574	-0,069	-0,028
-422,773	-200,000	0,006	-0,067
-421,759	690,986	0,047	0,090
-420,744	800,000	0,003	0,009
-419,730	26,537	-0,111	-0,068
-418,715	263,602	-0,042	0,054
-417,701	411,568	0,050	-0,079
-416,686	-115,188	0,066	0,009
-415,671	-200,000	-0,029	0,111
-414,657	194,191	-0,040	0,045
-413,642	96,958	0,113	0,095
-412,628	256,289	-0,100	0,126
-411,613	-200,000	0,022	-0,087
-410,598	-200,000	0,031	0,124
-409,584	19,166	0,110	0,065
-408,569	138,461	-0,062	0,060
-407,555	510,550	-0,027	0,046
-406,540	-7,985	-0,093	0,046
-405,525	146,361	-0,043	-0,043
-404,511	-88,252	-0,096	-0,021
-403,496	-151,335	-0,151	0,008
-402,482	800,000	-0,030	-0,092
-401,467	325,412	-0,056	-0,080
-400,452	250,059	0,123	-0,154
-399,438	327,335	0,098	-0,138
-398,423	506,796	0,043	-0,073
-397,409	403,001	0,032	0,049
-396,394	291,228	-0,038	0,052
-395,379	44,263	0,061	-0,041
-394,365	263,315	0,086	-0,111
-393,350	-85,831	0,084	-0,019
-392,336	-155,545	0,183	0,008
-391,321	800,000	-0,023	0,063
-390,306	626,074	-0,038	0,070
-389,292	113,655	-0,090	-0,081
-388,277	47,206	0,103	0,070
-387,263	11,521	0,102	-0,057
-386,248	800,000	-0,046	-0,123
-385,233	-200,000	0,008	0,048
-384,219	800,000	-0,026	0,081
-383,204	34,899	0,007	0,004
-382,190	-97,852	-0,065	0,012
-381,175	-200,000	-0,006	-0,040
-380,160	76,787	0,092	-0,072
-379,146	617,752	0,066	0,123
-378,131	10,956	0,073	-0,041
-377,117	-80,013	0,032	-0,008
-376,102	-200,000	-0,019	-0,075
-375,088	-176,433	0,043	0,001
-374,073	380,627	0,061	0,092
-373,058	-145,980	0,100	-0,006
-372,044	64,944	-0,051	0,038
-371,029	-177,467	0,095	0,002
-370,015	-200,000	0,022	0,210
-369,000	800,000	-0,044	-0,135
-367,985	800,000	0,059	0,152
-366,971	284,270	0,007	-0,009
-365,956	73,624	-0,073	-0,056
-364,942	-200,000	0,038	0,181
-363,927	800,000	0,017	0,037
-362,912	143,618	0,116	0,114
-361,898	-200,000	-0,005	0,084
-360,883	567,348	-0,098	-0,175
-359,869	81,678	-0,104	-0,083
-358,854	25,775	0,142	0,087
-357,839	246,710	-0,007	0,008
-356,825	-88,680	0,088	-0,019
-355,810	155,000	0,067	0,067
-354,796	353,015	0,079	-0,116
-353,781	-97,518	-0,095	0,018
-352,766	-132,760	-0,010	-0,001
-351,752	-116,934	-0,104	0,014
-350,737	114,809	0,043	-0,039
-349,723	-159,600	0,206	-0,008
-348,708	-87,928	0,120	-0,026
-347,693	-200,000	0,024	-0,145
-346,679	601,665	0,051	-0,094
-345,664	66,668	0,091	0,068
-344,650	630,800	0,032	0,059
-343,635	126,614	0,076	0,071
-342,620	-200,000	0,007	-0,024
-341,606	102,545	-0,065	0,056
-340,591	-200,000	-0,003	0,031
-339,577	-93,889	-0,020	0,004
-338,562	800,000	-0,039	-0,111
-337,548	-48,451	0,158	-0,056
-336,533	-127,759	0,134	-0,014
-335,518	74,275	0,069	0,053
-334,504	-89,871	-0,028	-0,006
-333,489	-200,000	-0,020	-0,145
-332,475	800,000	0,040	-0,084
-331,460	-82,029	-0,035	-0,008
-330,445	800,000	-0,019	0,052
-329,431	800,000	0,010	-0,022
-328,416	450,822	-0,038	0,062
-327,402	-200,000	0,024	0,087
-326,387	-200,000	-0,002	-0,068
-325,372	148,677	-0,083	0,082
-324,358	288,585	0,040	-0,053
-323,343	-191,876	-0,098	-0,001
-322,329	247,098	0,044	-0,055
-321,314	130,628	0,114	-0,107
-320,299	-200,000	-0,004	0,037
-319,285	780,468	0,048	0,096
-318,270	463,193	-0,026	-0,043
-317,256	800,000	-0,077	-0,173
-316,241	446,792	0,048	-0,078
-315,226	119,345	-0,012	0,011
-314,212	227,605	-0,031	-0,037
-313,197	-35,960	0,137	0,054
-312,183	-200,000	-0,008	-0,028
-311,168	325,023	0,039	-0,055
-310,153	800,000	-0,061	-0,139
-309,139	800,000	-0,026	0,059
-308,124	-188,707	0,056	-0,000
-307,110	304,492	-0,026	0,035
-306,095	595,067	-0,043	0,078
-305,080	-200,000	0,021	0,166
-304,066	188,539	0,049	0,054
-303,051	-186,640	-0,036	-0,000
-302,037	57,569	-0,120	-0,086
-301,022	2,110	0,130	0,069
-300,008	-200,000	0,003	0,018
-298,993	-172,467	-0,068	-0,002
-297,978	-200,000	-0,015	0,144
-296,964	-99,148	-0,056	-0,010
-295,949	46,416	0,023	0,015
-294,935	34,727	-0,065	0,041
-293,920	800,000	0,035	0,100
-292,905	-200,000	0,031	-0,103
-291,891	-200,000	-0,017	0,115
-290,876	-200,000	-0,026	0,089
-289,862	-130,934	-0,096	-0,009
-288,847	91,607	-0,038	0,031
-287,832	800,000	-0,052	0,118
-286,818	-72,311	-0,065	0,018
-285,803	-200,000	0,004	-0,023
-284,789	312,901	0,062	0,085
-283,774	800,000	0,064	0,184
-282,759	-200,000	0,030	0,123
-281,745	126,949	-0,057	0,053
-280,730	463,298	-0,048	-0,079
-279,716	168,143	0,043	-0,045
-278,701	-200,000	0,023	0,075
-277,686	45,397	0,041	-0,028
-276,672	-5,030	-0,080	0,040
-275,657	-200,000	0,016	0,172
-274,643	12,030	-0,100	0,056
-273,628	-24,883	0,040	-0,017
-272,613	-200,000	0,013	0,163
-271,599	-200,000	-0,016	0,100
-270,584	-141,116	-0,125	-0,009
-269,570	-126,189	0,123	-0,013
-268,555	800,000	0,067	-0,137
-267,540	566,321	0,022	-0,039
-266,526	491,820	-0,036	-0,061
-265,511	-25,194	-0,120	0,052
-264,497	-200,000	-0,013	-0,100
-263,482	-19,410	0,090	-0,040
-262,467	800,000	0,042	0,096
-261,453	145,430	0,070	0,068
-260,438	526,457	0,027	-0,047
-259,424	800,000	-0,015	0,047
-258,409	754,010	-0,016	0,032
-257,395	54,052	-0,093	0,065
-256,380	-158,354	0,054	0,002
-255,365	364,314	-0,070	0,103
-254,351	-96,564	-0,149	-0,029
-253,336	89,541	-0,059	-0,048
-252,322	800,000	0,060	-0,130
-251,307	343,665	-0,021	-0,030
-250,292	-90,327	0,093	0,020
-249,278	-103,464	-0,061	0,010
-248,263	-172,262	0,119	-0,003
-247,249	-33,051	0,081	0,033
-246,234	2,766	0,045	0,024
-245,219	-200,000	-0,020	-0,191
-244,205	-200,000	-0,002	-0,115
-243,190	-32,703	-0,021	0,008
-242,176	506,145	-0,044	0,075
-241,161	800,000	0,017	0,048
-240,146	800,000	-0,020	-0,041
-239,132	12,692	-0,046	0,026
-238,117	-162,253	-0,034	-0,001
-237,103	-183,863	-0,077	-0,001
-236,088	-200,000	0,006	-0,132
-235,073	134,792	-0,044	-0,042
-234,059	-115,136	0,078	0,011
-233,044	-60,568	0,096	-0,029
-232,030	-90,795	-0,166	-0,035
-231,015	-72,108	0,176	-0,047
-230,000	-100,468	-0,069	0,012
-228,986	-27,924	0,082	0,034
-227,971	516,154	0,034	-0,059
-226,957	170,909	0,097	0,102
-225,942	-200,000	0,013	-0,096
-224,927	800,000	-0,066	0,140
-223,913	57,923	0,062	0,044
-222,898	726,063	-0,006	-0,011
-221,884	800,000	0,025	-0,076
-220,869	504,557	-0,032	-0,054
-219,855	-86,232	0,181	0,040
-218,840	800,000	-0,054	0,120
-217,825	-200,000	0,000	0,031
-216,811	-139,750	-0,131	-0,010
-215,796	300,650	0,021	0,028
-214,782	-3,540	0,023	-0,012
-213,767	559,968	-0,075	0,133
-212,752	-57,420	0,058	-0,019
-211,738	67,953	-0,063	-0,047
-210,723	-122,970	-0,155	-0,018
-209,709	-200,000	0,008	-0,028
-208,694	-137,543	-0,103	-0,008
-207,679	685,630	-0,050	-0,095
-206,665	-77,419	0,030	-0,008
-205,650	319,148	0,046	0,063
-204,636	800,000	0,035	0,091
-203,621	800,000	0,001	-0,003
-202,606	-101,993	-0,088	0,015
-201,592	-200,000	0,001	-0,155
-200,577	588,708	-0,050	-0,090
-199,563	76,551	0,147	-0,114
-198,548	-102,658	0,171	-0,029
-197,533	174,678	-0,023	0,025
-196,519	275,351	-0,055	0,072
-195,504	-200,000	-0,011	-0,179
-194,490	76,461	0,064	-0,049
-193,475	185,225	0,045	0,049
-192,460	142,056	0,070	-0,068
-191,446	65,620	-0,022	-0,016
-190,431	-200,000	0,024	0,113
-189,417	-200,000	0,018	0,165
-188,402	-35,788	0,069	-0,027
-187,387	608,177	0,065	-0,119
-186,373	-174,022	-0,100	0,002
-185,358	24,845	0,090	-0,054
-184,344	800,000	0,068	0,173
-183,329	16,541	0,094	-0,054
-182,315	-81,421	-0,129	0,031
-181,300	700,089	-0,050	-0,096
-180,285	-111,471	-0,053	-0,008
-179,271	566,134	-0,065	0,115
-178,256	-67,501	-0,129	-0,037
-177,242	-57,958	0,090	0,028
-176,227	537,678	0,076	0,133
-175,212	-200,000	0,022	0,106
-174,198	33,225	-0,131	0,083
-173,183	154,660	-0,056	-0,056
-172,169	-7,411	0,094	-0,046
-171,154	64,856	0,032	0,023
-170,139	-200,000	-0,013	-0,103
-169,125	800,000	0,045	0,094
-168,110	-152,516	-0,121	-0,006
-167,096	-141,325	-0,021	-0,002
-166,081	317,924	0,103	-0,142
-165,066	68,456	-0,108	-0,080
-164,052	93,119	0,073	-0,060
-163,037	800,000	-0,026	0,053
-162,023	-83,100	0,105	0,024
-161,008	-200,000	-0,006	0,146
-159,993	740,983	0,024	-0,047
-158,979	-88,828	0,125	-0,027
-157,964	454,491	-0,076	0,124
-156,950	246,667	0,051	-0,063
-155,935	800,000	-0,041	0,103
-154,920	-136,438	-0,035	-0,003
-153,906	-200,000	-0,019	-0,081
-152,891	-141,148	-0,170	-0,012
-151,877	-51,520	-0,101	-0,034
-150,862	449,742	-0,062	0,100
-149,847	274,179	-0,003	-0,004
-148,833	113,715	0,120	-0,106
-147,818	-200,000	0,009	0,042
-146,804	-58,926	0,043	0,013
-145,789	654,572	-0,057	0,107
-144,775	144,285	-0,031	-0,030
-143,760	-97,075	0,074	-0,014
-142,745	-90,768	-0,141	0,029
-141,731	462,524	0,047	-0,077
-140,716	199,736	-0,068	-0,076
-139,702	-200,000	-0,019	0,089
-138,687	800,000	0,078	0,166
-137,672	-138,330	0,053	-0,004
-136,658	-18,041	0,062	-0,028
-135,643	144,320	-0,073	0,070
-134,629	100,449	0,102	-0,086
-133,614	37,877	0,086	0,055
-132,599	103,665	0,118	0,101
-131,585	-47,362	0,109	0,038
-130,570	-200,000	0,007	0,091
-129,556	-200,000	0,007	-0,065
-128,541	-200,000	0,027	-0,171
-127,526	-71,076	-0,019	0,005
-126,512	-200,000	-0,003	-0,038
-125,497	583,285	0,083	0,148
-124,483	156,317	-0,056	0,056
-123,468	-36,640	-0,038	-0,015
-122,453	-123,576	-0,092	0,010
-121,439	-68,471	-0,122	-0,034
-120,424	-59,310	-0,115	0,036
-119,410	-200,000	-0,004	-0,119
-118,395	-200,000	-0,002	0,006
-117,380	66,449	-0,058	0,043
-116,366	-200,000	-0,003	0,112
-115,351	-25,076	-0,105	0,045
-114,337	-43,677	-0,084	0,031
-113,322	-200,000	0,009	0,068
-112,307	-117,851	-0,201	0,026
-111,293	-35,695	0,033	0,013
-110,278	800,000	0,028	0,075
-109,264	-21,058	0,113	0,050
-108,249	-0,964	-0,080	0,041
-107,234	-200,000	-0,001	-0,129
-106,220	-200,000	-0,016	-0,064
-105,205	24,558	0,035	-0,021
-104,191	373,407	-0,045	-0,067
-103,176	800,000	-0,071	0,191
-102,162	800,000	-0,045	0,092
-101,147	-3,412	-0,061	-0,031
-100,132	95,424	-0,048	-0,040
-99,118	147,512	-0,099	0,096
-98,103	32,561	0,059	0,037
-97,089	92,615	-0,019	0,015
-96,074	-185,348	0,172	-0,002
-95,059	-25,463	0,079	0,034
-94,045	-102,410	-0,046	-0,008
-93,030	800,000	-0,054	0,131
-92,016	232,560	0,080	-0,096
-91,001	-200,000	0,007	-0,172
-89,986	-176,068	0,111	-0,002
-88,972	-200,000	0,017	0,135
-87,957	105,061	0,046	-0,040
-86,943	-200,000	0,003	0,011
-85,928	186,521	-0,055	-0,059
-84,913	-42,710	-0,050	0,018
-83,899	757,228	0,037	0,073
-82,884	800,000	0,053	0,113
-81,870	-200,000	0,002	0,022
-80,855	389,098	0,020	0,029
-79,840	-183,302	0,142	-0,002
-78,826	-19,891	-0,059	0,026
-77,811	185,246	0,093	-0,100
-76,797	-200,000	0,009	-0,034
-75,782	-106,990	0,099	-0,016
-74,767	-108,256	0,033	0,005
-73,753	-200,000	0,042	0,150
-72,738	800,000	-0,060	0,127
-71,724	-167,099	-0,057	-0,002
-70,709	175,264	-0,047	-0,050
-69,694	-16,073	0,176	0,081
-68,680	45,824	-0,114	0,077
-67,665	102,195	0,138	-0,117
-66,651	154,429	-0,030	-0,030
-65,636	-61,993	0,021	-0,006
-64,622	-53,053	-0,128	0,043
-63,607	800,000	0,050	-0,153
-62,592	-91,640	0,017	0,003
-61,578	-200,000	-0,013	-0,133
-60,563	216,481	0,064	0,074
-59,549	800,000	-0,064	0,154
-58,534	-155,494	-1,442	-0,066
-57,519	522,730	-0,834	-1,427
-56,505	-200,000	-0,893	-4,474
-55,490	13,308	0,636	-0,356
-54,476	800,000	5,117	11,708
-53,461	-200,000	13,872	253,697
-52,446	-200,000	694,368	2260,502
-51,432	598,542	1624,459	2933,880
-50,417	117,358	1632,526	1455,858
-49,403	73,123	1286,723	974,555
-48,388	37,196	1022,809	655,572
-47,373	23,782	981,215	584,810
-46,359	23,037	970,633	576,041
-45,344	21,910	966,375	569,810
-44,330	21,863	965,026	568,840
-43,315	21,753	963,389	567,492
-42,300	21,695	962,428	566,717
-41,286	21,745	961,569	566,350
-40,271	21,706	960,593	565,626
-39,257	21,691	959,663	565,008
-38,242	21,703	958,787	564,509
-37,227	21,684	957,696	563,781
-36,213	21,719	956,880	563,393
-35,198	21,628	956,140	562,640
-34,184	21,735	955,393	562,524
-33,169	21,692	954,387	561,769
-32,154	21,745	953,519	561,409
-31,140	21,770	952,754	561,016
-30,125	21,766	952,083	560,585
-29,111	21,713	951,219	559,883
-28,096	21,727	950,443	559,450
-27,082	21,753	949,854	559,164
-26,067	21,820	948,685	558,671
-25,052	21,726	948,268	558,100
-24,038	21,769	947,464	557,741
-23,023	21,693	947,011	557,210
-22,009	21,765	946,284	556,990
-20,994	21,736	945,513	556,422
-19,979	21,733	945,047	556,118
-18,965	21,757	944,233	555,691
-17,950	21,686	943,821	555,201
-16,936	21,651	943,172	554,687
-15,921	21,681	942,416	554,314
-14,906	21,629	941,651	553,679
-13,892	21,563	941,185	553,172
-12,877	21,586	940,493	552,816
-11,863	21,560	939,887	552,357
-10,848	21,659	939,085	552,175
-9,833	21,711	938,765	552,131
-8,819	21,676	938,226	551,681
-7,804	21,597	937,573	551,024
-6,790	21,636	936,986	550,781
-5,775	21,676	936,362	550,519
-4,760	21,614	935,740	549,936
-3,746	21,581	935,167	549,473
-2,731	21,431	934,620	548,657
-1,717	21,428	933,589	548,021
-0,702	21,468	932,993	547,774
0,313	21,157	932,528	547,347
1,327	23,799	930,040	554,139
2,342	31,546	808,799	502,901
3,356	26,418	510,592	308,672
4,371	2,129	375,885	196,148
5,386	-0,911	359,056	183,594
6,400	-1,755	353,188	179,551
7,415	-1,786	350,788	178,277
8,429	-1,466	349,444	177,964
9,444	-1,455	348,567	177,514
10,459	-1,387	347,871	177,225
11,473	-1,494	347,281	176,780
12,488	-1,581	346,620	176,325
13,502	-1,658	346,103	175,955
14,517	-1,579	345,656	175,806
15,531	-1,261	345,184	175,927
16,546	-1,211	344,768	175,758
17,561	-1,137	344,365	175,626
18,575	-1,123	344,029	175,456
19,590	-1,265	343,546	175,026
20,604	-1,145	343,402	175,078
21,619	-1,224	342,902	174,715
22,634	-1,226	342,604	174,546
23,648	-1,170	342,041	174,309
24,663	-1,168	341,858	174,202
25,677	-1,151	341,689	174,120
26,692	-1,211	341,417	173,895
27,707	-1,224	340,964	173,634
28,721	-1,239	340,730	173,481
29,736	-1,167	340,245	173,304
30,750	-1,182	339,979	173,135
31,765	-1,287	339,748	172,879
32,780	-1,139	339,527	172,924
33,794	-1,172	339,027	172,616
34,809	-1,095	338,928	172,640
35,823	-1,092	338,760	172,542
36,838	-1,179	338,413	172,250
37,853	-1,171	337,989	172,028
38,867	-1,186	337,777	171,887
39,882	-1,194	337,521	171,732
40,896	-1,141	337,189	171,609
41,911	-1,231	336,974	171,379
42,926	-1,069	336,665	171,395
43,940	-1,220	336,380	171,060
44,955	-1,375	336,167	170,757
45,969	-1,210	335,946	170,820
46,984	-1,207	335,676	170,671
47,999	-1,336	335,407	170,372
49,013	-1,164	335,184	170,440
50,028	-1,246	334,807	170,139
51,042	-1,150	334,550	170,104
52,057	-1,361	334,099	169,617
53,071	-1,430	333,994	169,470
54,086	-1,302	333,683	169,444
55,101	-1,376	333,687	169,345
56,115	-1,268	333,400	169,308
57,130	-1,286	333,166	169,154
58,144	-1,250	332,794	168,991
59,159	-1,163	332,460	168,905
60,174	-1,342	332,379	168,645
61,188	-1,241	331,980	168,543
62,203	-1,192	331,823	168,504
63,217	-1,129	331,503	168,397
64,232	-1,069	331,252	168,323
65,247	-1,379	330,988	167,822
66,261	-1,231	330,717	167,837
67,276	-1,377	330,456	167,525
68,290	-1,367	330,266	167,425
69,305	-1,408	330,016	167,237
70,320	-1,312	329,702	167,171
71,334	-1,229	329,497	167,147
72,349	-1,183	329,137	167,000
73,363	-1,339	328,894	166,687
74,378	-1,258	328,636	166,632
75,393	-1,183	328,359	166,561
76,407	-1,240	328,247	166,426
77,422	-1,200	327,904	166,281
78,436	-1,261	327,507	165,997
79,451	-1,217	327,342	165,948
80,466	-1,066	327,022	165,940
81,480	-1,240	326,925	165,682
82,495	-1,141	326,665	165,645
83,509	-1,254	326,525	165,433
84,524	-1,203	326,283	165,354
85,539	-1,247	326,077	165,185
86,553	-1,210	325,697	165,019
87,568	-1,264	325,546	164,868
88,582	-1,351	325,308	164,636
89,597	-1,249	324,985	164,571
90,611	-1,254	324,816	164,466
91,626	-1,267	324,625	164,339
92,641	-1,219	324,365	164,247
93,655	-1,204	323,940	164,033
94,670	-1,248	323,829	163,913
95,684	-1,297	323,523	163,690
96,699	-1,236	323,361	163,661
97,714	-1,188	323,078	163,556
98,728	-1,271	323,006	163,413
99,743	-1,273	322,780	163,281
100,757	-1,167	322,379	163,181
101,772	-1,364	322,247	162,883
102,787	-1,179	321,788	162,840
103,801	-1,195	321,695	162,761
104,816	-1,215	321,453	162,602
105,830	-1,280	321,240	162,408
106,845	-1,303	321,037	162,265
107,860	-1,350	320,770	162,065
108,874	-1,269	320,569	162,037
109,889	-1,292	320,179	161,800
110,903	-1,367	320,094	161,661
111,918	-1,295	319,809	161,581
112,933	-1,372	319,673	161,415
113,947	-1,222	319,518	161,486
114,962	-1,249	319,230	161,296
115,976	-1,329	318,851	161,004
116,991	-1,148	318,700	161,109
118,006	-1,214	318,371	160,857
119,020	-1,268	318,380	160,788
120,035	-1,263	318,127	160,652
121,049	-1,222	318,010	160,623
122,064	-1,367	317,775	160,333
123,079	-1,234	317,538	160,342
124,093	-1,077	317,204	160,330
125,108	-1,161	317,024	160,134
126,122	-1,027	316,709	160,105
127,137	-1,318	316,574	159,708
128,151	-1,209	316,365	159,706
129,166	-1,121	316,116	159,661
130,181	-1,273	315,887	159,368
131,195	-1,178	315,566	159,293
132,210	-1,389	315,387	158,962
133,224	-1,210	315,033	158,962
134,239	-1,139	314,873	158,943
135,254	-1,233	314,759	158,771
136,268	-1,168	314,382	158,635
137,283	-1,296	314,251	158,419
138,297	-1,417	314,126	158,213
139,312	-1,510	313,708	157,888
140,327	-1,144	313,422	158,121
141,341	-1,136	313,225	158,016
142,356	-1,143	313,118	157,940
143,370	-1,293	312,914	157,663
144,385	-1,248	312,797	157,638
145,400	-1,169	312,547	157,582
146,414	-1,123	312,231	157,458
147,429	-1,317	311,961	157,101
148,443	-1,177	311,636	157,073
149,458	-1,195	311,627	157,035
150,473	-1,284	311,472	156,849
151,487	-1,346	311,197	156,630
152,502	-1,264	311,090	156,649
153,516	-1,201	310,811	156,561
154,531	-1,266	310,529	156,337
155,546	-1,353	310,345	156,138
156,560	-1,180	310,191	156,229
157,575	-1,328	309,858	155,892
158,589	-1,344	309,664	155,763
159,604	-1,112	309,473	155,897
160,619	-1,090	309,451	155,895
161,633	-1,096	309,061	155,679
162,648	-1,044	308,699	155,538
163,662	-1,169	308,675	155,380
164,677	-1,108	308,360	155,271
165,692	-1,258	308,363	155,102
166,706	-1,226	308,065	154,972
167,721	-1,007	307,855	155,082
168,735	-1,065	307,763	154,960
169,750	-1,143	307,379	154,672
170,764	-1,224	307,158	154,463
171,779	-1,238	307,043	154,377
172,794	-1,145	306,868	154,372
173,808	-1,250	306,753	154,190
174,823	-1,234	306,461	154,047
175,837	-1,194	306,298	153,993
176,852	-1,268	306,026	153,766
177,867	-1,155	305,791	153,751
178,881	-1,202	305,517	153,551
179,896	-1,136	305,437	153,566
180,910	-1,304	305,312	153,315
181,925	-1,325	304,996	153,121
182,940	-1,185	304,796	153,151
183,954	-1,256	304,612	152,972
184,969	-1,051	304,453	153,090
185,983	-0,994	304,253	153,035
186,998	-1,166	304,118	152,776
188,013	-1,100	303,850	152,695
189,027	-1,171	303,591	152,478
190,042	-1,078	303,320	152,424
191,056	-1,150	303,074	152,213
192,071	-1,197	302,963	152,095
193,086	-1,399	302,592	151,689
194,100	-1,426	302,530	151,616
195,115	-1,170	302,307	151,754
196,129	-1,026	302,033	151,749
197,144	-1,042	301,884	151,645
198,159	-1,203	301,667	151,358
199,173	-1,095	301,305	151,273
200,188	-1,375	301,131	150,887
201,202	-1,177	300,794	150,905
202,217	-1,089	300,806	150,988
203,232	-1,331	300,429	150,539
204,246	-1,347	300,353	150,471
205,261	-1,504	300,357	150,301
206,275	-1,137	299,919	150,441
207,290	-1,147	299,956	150,436
208,304	-1,104	299,576	150,274
209,319	-1,200	299,446	150,100
210,334	-1,172	299,269	150,025
211,348	-1,057	299,021	150,004
212,363	-0,963	298,745	149,947
213,377	-1,027	298,418	149,705
214,392	-1,246	298,517	149,520
215,407	-1,124	298,130	149,436
216,421	-1,280	298,020	149,210
217,436	-1,204	297,783	149,155
218,450	-1,325	297,608	148,932
219,465	-1,495	297,525	148,706
220,480	-1,274	297,329	148,817
221,494	-1,304	297,163	148,691
222,509	-1,308	296,848	148,516
223,523	-1,227	296,596	148,458
224,538	-1,251	296,526	148,386
225,553	-1,196	296,162	148,245
226,567	-1,199	296,108	148,202
227,582	-1,116	295,901	148,167
228,596	-1,157	295,746	148,036
229,611	-1,244	295,572	147,849
230,626	-1,179	295,380	147,805
231,640	-1,119	295,136	147,729
232,655	-1,179	294,888	147,532
233,669	-1,121	294,654	147,460
234,684	-1,094	294,653	147,473
235,699	-1,065	294,211	147,268
236,713	-1,214	294,193	147,097
237,728	-1,302	294,090	146,946
238,742	-1,051	293,688	146,980
239,757	-1,198	293,437	146,695
240,772	-1,294	293,340	146,540
241,786	-1,408	293,126	146,307
242,801	-1,306	293,051	146,356
243,815	-1,060	292,773	146,448
244,830	-1,212	292,556	146,176
245,844	-1,287	292,516	146,069
246,859	-1,363	292,326	145,887
247,874	-1,336	291,915	145,695
248,888	-1,533	291,885	145,473
249,903	-1,485	291,723	145,427
250,917	-1,241	291,354	145,469
251,932	-1,509	291,230	145,131
252,947	-1,802	290,881	144,657
253,961	-2,500	290,330	143,687
254,976	-3,119	290,083	142,946
255,990	-3,064	289,732	142,814
257,005	-1,818	290,325	144,313
258,020	0,466	291,237	146,994
259,034	1,763	291,412	148,341
260,049	2,318	291,334	148,831
261,063	2,921	291,219	149,349
262,078	3,061	291,198	149,462
263,093	3,267	291,004	149,551
264,107	3,461	291,015	149,732
265,122	3,584	290,916	149,788
266,136	3,782	290,733	149,873
267,151	3,709	290,542	149,690
268,166	3,601	290,403	149,501
269,180	3,639	290,164	149,401
270,195	3,696	289,796	149,253
271,209	3,442	289,710	148,949
272,224	3,414	289,556	148,829
273,239	3,428	289,353	148,725
274,253	3,091	289,120	148,265
275,268	3,288	288,961	148,362
276,282	3,281	288,590	148,151
277,297	3,330	288,373	148,074
278,312	3,292	288,346	148,010
279,326	3,605	288,285	148,269
280,341	3,389	288,095	147,949
281,355	3,449	287,769	147,826
282,370	3,282	287,529	147,528
283,384	3,357	287,329	147,485
284,399	3,275	287,154	147,303
285,414	3,229	286,947	147,140
286,428	3,201	286,788	147,018
287,443	3,180	286,620	146,899
288,457	3,195	286,419	146,797
289,472	3,069	286,268	146,586
290,487	2,891	286,099	146,316
291,501	3,139	285,736	146,354
292,516	3,097	285,676	146,270
293,530	3,067	285,491	146,133
294,545	3,235	285,235	146,150
295,560	3,084	285,156	145,952
296,574	2,929	284,724	145,570
297,589	2,836	284,591	145,401
298,603	2,936	284,571	145,473
299,618	2,894	284,478	145,372
300,633	3,062	284,160	145,356
301,647	3,155	284,039	145,371
302,662	3,290	283,859	145,393
303,676	3,442	283,750	145,469
304,691	3,375	283,510	145,269
305,706	3,507	283,385	145,317
306,720	3,438	283,269	145,179
307,735	3,424	283,056	145,044
308,749	3,327	282,986	144,904
309,764	3,538	282,663	144,925
310,779	3,374	282,453	144,649
311,793	3,260	282,370	144,486
312,808	3,201	282,075	144,267
313,822	3,454	281,827	144,365
314,837	3,456	281,718	144,299
315,852	3,370	281,580	144,134
316,866	3,183	281,520	143,915
317,881	3,371	281,139	143,884
318,895	3,482	280,868	143,836
319,910	3,161	280,821	143,498
320,925	3,191	280,624	143,413
321,939	3,351	280,519	143,496
322,954	3,584	280,301	143,590
323,968	3,413	280,211	143,371
324,983	3,595	279,987	143,414
325,997	3,467	279,923	143,248
327,012	3,441	279,685	143,090
328,027	3,544	279,297	142,975
329,041	3,456	279,359	142,911
330,056	3,525	279,120	142,841
331,070	3,637	278,857	142,798
332,085	3,462	278,737	142,561
333,100	3,442	278,501	142,409
334,114	3,511	278,356	142,386
335,129	3,370	278,249	142,188
336,143	3,575	278,013	142,244
337,158	3,424	277,755	141,960
338,173	3,558	277,756	142,072
339,187	3,621	277,482	141,977
340,202	3,605	277,261	141,837
341,216	3,563	277,030	141,667
342,231	3,440	276,875	141,462
343,246	3,442	276,805	141,416
344,260	3,476	276,588	141,323
345,275	3,394	276,493	141,187
346,289	3,383	276,404	141,118
347,304	3,461	276,217	141,082
348,319	3,537	276,003	141,030
349,333	3,406	275,801	140,794
350,348	3,592	275,625	140,862
351,362	3,696	275,304	140,781
352,377	3,585	275,116	140,571
353,392	3,502	275,039	140,443
354,406	3,386	274,847	140,226
355,421	193,365	1348,990	1435,371
356,435	156,255	1479,963	1435,507
