DTS Sentinel unit serial number:	SN410029Multiplexer serial number:	ORYXHardware model number:	OX2-SRSoftware version number:	ORYX F/W v4,00 Oryx Data Collector v3.7.2.0data status	okinstallation	B4 Nyhavnadifferential loss correction	single-endedforward channel	channel 2reverse channel	N/Adate	2023/12/16time	14:55:13forward acquisition time	300,00reverse acquisition time	0,00gamma	499,1914k internal	0,3144k external	0,3144temperature offset calibration	1,0000default loss term (dB/km)	0,3820temperature slope calibration	1,0000multiplexer offset coefficient	1,0000multiplexer slope coefficient	1,0000fibre end	0,00T internal ref (°C)	19,72T ext. ref 1 (°C)	10,66T ext. ref 2 (°C)	10,89length (m)	temperature (°C)	Stokes	anti-Stokes-744,400	-179,950	0,111	-0,002
-743,385	-89,093	-0,406	-0,088
-742,371	-40,011	0,178	-0,069
-741,356	-200,000	-0,261	0,000
-740,342	414,174	0,031	0,049
-739,327	-95,856	-0,413	-0,081
-738,312	-12,610	0,068	-0,033
-737,298	-168,126	-0,414	-0,012
-736,283	-100,340	0,084	0,015
-735,269	-64,042	-0,289	-0,087
-734,254	138,568	0,039	0,038
-733,239	-9,382	-0,570	-0,281
-732,225	-72,263	0,188	0,051
-731,210	-138,454	0,118	0,009
-730,196	307,273	-0,069	-0,096
-729,181	-24,010	0,041	-0,018
-728,167	520,349	0,013	0,022
-727,152	28,720	-0,105	0,066
-726,137	-142,128	0,140	-0,010
-725,123	-41,867	-0,142	-0,054
-724,108	-68,545	-0,055	0,016
-723,094	292,887	-0,065	-0,087
-722,079	-122,707	-0,160	-0,019
-721,064	552,945	-0,025	-0,044
-720,050	-101,838	-0,191	-0,034
-719,035	-72,903	-0,052	-0,014
-718,021	-26,205	-0,031	-0,014
-717,006	60,438	-0,144	-0,105
-715,991	-200,000	0,013	0,047
-714,977	-200,000	0,012	0,069
-713,962	64,857	-0,058	-0,043
-712,948	144,618	-0,061	-0,060
-711,933	-56,772	0,109	-0,035
-710,918	-112,240	-0,086	0,013
-709,904	226,545	-0,083	0,100
-708,889	-101,640	-0,146	0,026
-707,875	-126,837	-0,030	-0,003
-706,860	-32,089	-0,064	0,026
-705,845	-60,248	-0,066	-0,021
-704,831	-200,000	0,002	0,075
-703,816	129,324	-0,091	-0,086
-702,802	253,253	-0,107	0,136
-701,787	304,401	-0,038	-0,052
-700,772	-200,000	-0,030	0,099
-699,758	68,780	0,032	-0,024
-698,743	126,817	0,093	0,088
-697,729	-200,000	-0,003	0,121
-696,714	-52,984	0,138	0,047
-695,699	-62,048	-0,104	0,032
-694,685	115,723	-0,034	-0,031
-693,670	-100,423	-0,050	0,009
-692,656	-200,000	0,000	-0,082
-691,641	105,829	0,091	-0,080
-690,627	-200,000	-0,013	-0,074
-689,612	-63,377	0,091	0,027
-688,597	141,648	-0,065	-0,063
-687,583	800,000	-0,024	0,049
-686,568	201,716	-0,100	-0,114
-685,554	304,906	0,001	0,002
-684,539	-200,000	-0,032	-0,116
-683,524	-85,421	-0,065	0,015
-682,510	-0,390	0,051	-0,026
-681,495	408,542	0,086	-0,135
-680,481	-135,931	-0,034	0,003
-679,466	800,000	-0,074	-0,152
-678,451	-119,575	-0,094	0,012
-677,437	42,602	-0,097	-0,065
-676,422	671,435	-0,053	0,102
-675,408	-49,930	0,091	0,032
-674,393	-157,954	-0,212	-0,009
-673,378	-141,492	0,083	-0,006
-672,364	-200,000	0,014	0,055
-671,349	-200,000	-0,047	-0,162
-670,335	-5,092	0,087	0,044
-669,320	335,685	-0,056	0,080
-668,305	186,524	0,032	-0,035
-667,291	800,000	0,052	-0,114
-666,276	-200,000	0,001	-0,025
-665,262	-200,000	-0,002	-0,041
-664,247	23,810	-0,113	0,069
-663,232	61,273	0,043	-0,031
-662,218	800,000	0,061	-0,144
-661,203	5,737	0,080	-0,043
-660,189	9,566	0,022	0,012
-659,174	800,000	0,014	0,034
-658,159	42,321	-0,187	-0,125
-657,145	800,000	-0,109	-0,227
-656,130	-200,000	-0,021	-0,120
-655,116	161,338	-0,034	0,035
-654,101	-200,000	0,008	-0,035
-653,086	800,000	-0,055	-0,145
-652,072	685,443	0,040	0,078
-651,057	-200,000	0,004	-0,091
-650,043	-22,854	-0,141	0,062
-649,028	800,000	-0,063	0,152
-648,014	800,000	0,046	-0,094
-646,999	152,612	0,076	0,077
-645,984	-200,000	-0,001	-0,005
-644,970	800,000	-0,023	-0,074
-643,955	179,848	0,032	0,035
-642,941	7,916	0,053	0,029
-641,926	-14,212	-0,114	-0,054
-640,911	38,316	-0,027	-0,017
-639,897	-200,000	0,007	0,044
-638,882	-135,853	0,079	0,007
-637,868	363,610	0,015	0,023
-636,853	-80,496	0,087	0,021
-635,838	800,000	-0,046	-0,149
-634,824	228,493	-0,008	0,010
-633,809	139,725	-0,120	-0,116
-632,795	-200,000	-0,001	0,024
-631,780	-16,008	0,054	0,025
-630,765	34,993	-0,059	-0,038
-629,751	-24,174	-0,139	-0,061
-628,736	-91,322	-0,099	-0,021
-627,722	150,362	-0,046	-0,046
-626,707	800,000	-0,038	-0,124
-625,692	-200,000	-0,002	-0,129
-624,678	331,363	-0,028	0,040
-623,663	-40,025	0,094	-0,036
-622,649	371,888	-0,082	-0,124
-621,634	676,940	-0,048	-0,093
-620,619	12,488	0,041	-0,023
-619,605	800,000	0,034	0,069
-618,590	-20,679	0,135	0,061
-617,576	-200,000	0,027	0,120
-616,561	61,081	-0,097	0,071
-615,546	800,000	-0,022	0,053
-614,532	-200,000	0,014	0,119
-613,517	299,878	0,061	0,084
-612,503	-200,000	0,025	-0,173
-611,488	167,527	0,017	0,017
-610,474	45,108	-0,062	0,042
-609,459	-77,729	-0,049	0,012
-608,444	-6,864	-0,172	0,086
-607,430	800,000	-0,044	-0,117
-606,415	199,217	0,019	-0,021
-605,401	231,142	-0,068	-0,082
-604,386	-200,000	-0,015	0,107
-603,371	127,785	-0,051	-0,048
-602,357	800,000	-0,030	0,070
-601,342	800,000	0,021	-0,052
-600,328	-67,872	-0,165	-0,047
-599,313	62,015	0,138	0,101
-598,298	-200,000	-0,051	0,182
-597,284	-28,025	0,043	0,018
-596,269	-200,000	0,018	0,100
-595,255	-169,925	0,142	0,004
-594,240	800,000	0,027	-0,073
-593,225	800,000	-0,035	-0,098
-592,211	800,000	0,026	-0,068
-591,196	-57,260	0,097	0,031
-590,182	-168,601	0,079	0,002
-589,167	210,664	-0,025	-0,029
-588,152	392,124	0,089	0,136
-587,138	46,878	-0,125	0,086
-586,123	118,334	-0,135	0,123
-585,109	387,577	0,052	-0,080
-584,094	14,346	0,059	-0,034
-583,079	25,481	0,036	-0,022
-582,065	29,433	0,100	0,062
-581,050	800,000	0,045	-0,107
-580,036	453,215	-0,069	0,112
-579,021	-61,055	-0,114	0,035
-578,006	-3,105	-0,102	-0,052
-576,992	-200,000	-0,017	-0,062
-575,977	-179,516	-0,091	0,001
-574,963	254,128	0,126	0,159
-573,948	266,179	-0,015	0,020
-572,934	-200,000	0,003	0,100
-571,919	-200,000	0,000	-0,158
-570,904	-200,000	0,012	0,061
-569,890	-118,952	-0,046	-0,006
-568,875	151,304	0,086	0,086
-567,861	-67,885	0,081	0,023
-566,846	-34,812	-0,060	0,024
-565,831	-129,878	0,117	0,012
-564,817	785,377	-0,025	0,050
-563,802	-200,000	0,012	-0,069
-562,788	379,722	0,061	-0,091
-561,773	800,000	-0,034	-0,084
-560,758	105,243	-0,025	0,022
-559,744	-35,656	-0,090	0,036
-558,729	-200,000	-0,011	0,068
-557,715	-200,000	0,004	0,122
-556,700	800,000	0,024	-0,059
-555,685	-24,859	-0,044	-0,019
-554,671	800,000	0,038	0,115
-553,656	326,855	0,043	0,060
-552,642	40,849	0,059	-0,039
-551,627	-200,000	0,011	0,093
-550,612	180,617	0,078	-0,084
-549,598	81,787	-0,092	0,073
-548,583	324,414	-0,039	0,055
-547,569	-161,048	0,105	-0,004
-546,554	-200,000	0,011	-0,112
-545,539	-50,006	-0,123	0,043
-544,525	-152,782	-0,036	0,002
-543,510	196,359	0,065	-0,073
-542,496	-83,905	0,039	-0,009
-541,481	-138,299	-0,029	0,002
-540,466	31,731	-0,090	-0,057
-539,452	687,772	0,066	0,128
-538,437	-200,000	-0,040	0,178
-537,423	-95,341	0,042	-0,008
-536,408	-107,415	-0,146	-0,023
-535,393	88,442	-0,133	-0,108
-534,379	-21,239	-0,075	0,034
-533,364	252,749	-0,050	-0,062
-532,350	800,000	0,045	0,103
-531,335	57,398	0,078	-0,056
-530,321	396,268	0,046	0,070
-529,306	800,000	0,028	-0,089
-528,291	573,943	-0,013	0,023
-527,277	800,000	-0,054	-0,134
-526,262	-91,630	0,099	-0,020
-525,248	-200,000	0,012	-0,077
-524,233	-200,000	0,017	-0,135
-523,218	-177,818	0,095	0,002
-522,204	-200,000	-0,002	0,123
-521,189	10,599	-0,103	-0,058
-520,175	800,000	-0,026	-0,062
-519,160	-162,794	-0,030	-0,001
-518,145	40,273	0,121	0,079
-517,131	-200,000	-0,019	0,158
-516,116	128,572	0,074	-0,069
-515,102	216,677	-0,017	0,020
-514,087	-16,122	0,057	-0,026
-513,072	47,237	-0,041	-0,028
-512,058	-200,000	0,007	0,044
-511,043	-37,855	0,041	-0,016
-510,029	312,692	-0,023	-0,031
-509,014	179,416	0,083	-0,089
-507,999	302,767	0,033	0,044
-506,985	14,759	0,086	-0,049
-505,970	-18,217	-0,169	-0,077
-504,956	155,738	-0,076	-0,077
-503,941	-200,000	0,027	-0,090
-502,926	-63,385	-0,088	0,026
-501,912	25,613	0,125	0,076
-500,897	-133,566	0,013	-0,001
-499,883	-41,304	0,059	0,022
-498,868	-200,000	-0,020	-0,098
-497,853	-72,132	0,126	-0,034
-496,839	71,526	0,057	0,044
-495,824	800,000	0,087	0,177
-494,810	-102,618	0,141	-0,024
-493,795	166,739	-0,067	0,070
-492,781	355,411	0,044	-0,065
-491,766	800,000	0,068	-0,201
-490,751	134,495	-0,055	0,052
-489,737	-105,126	0,148	0,025
-488,722	96,819	-0,044	-0,037
-487,708	11,831	0,108	-0,061
-486,693	115,156	-0,051	-0,046
-485,678	-100,150	-0,042	-0,008
-484,664	800,000	-0,051	-0,161
-483,649	100,109	0,045	0,038
-482,635	-73,098	-0,086	0,023
-481,620	-53,688	-0,080	-0,027
-480,605	800,000	0,028	0,061
-479,591	-42,099	0,130	0,048
-478,576	604,890	-0,043	-0,079
-477,562	648,393	-0,006	-0,012
-476,547	800,000	-0,046	-0,101
-475,532	-200,000	0,009	0,058
-474,518	-78,363	-0,072	-0,018
-473,503	312,537	0,081	0,112
-472,489	-16,956	0,170	0,078
-471,474	597,906	0,034	0,063
-470,459	282,184	0,066	-0,086
-469,445	-200,000	-0,000	-0,009
-468,430	-94,647	0,142	-0,028
-467,416	-85,091	0,036	-0,008
-466,401	-3,016	-0,155	0,079
-465,386	2,019	0,086	0,045
-464,372	-23,442	0,042	0,018
-463,357	89,805	-0,127	0,104
-462,343	150,839	0,030	0,030
-461,328	-200,000	-0,004	-0,036
-460,313	-200,000	0,008	-0,169
-459,299	521,504	0,023	0,039
-458,284	800,000	-0,033	-0,072
-457,270	-200,000	-0,014	0,125
-456,255	800,000	0,018	-0,054
-455,241	144,428	-0,061	-0,060
-454,226	97,978	0,036	-0,030
-453,211	-200,000	-0,012	0,158
-452,197	-200,000	0,018	0,068
-451,182	-200,000	-0,013	0,090
-450,168	-200,000	0,019	0,168
-449,153	-140,649	-0,156	0,012
-448,138	-124,647	0,092	0,010
-447,124	800,000	0,030	-0,083
-446,109	112,382	-0,030	-0,027
-445,095	800,000	-0,044	0,103
-444,080	-1,921	0,072	-0,037
-443,065	-91,131	0,042	0,009
-442,051	130,677	-0,038	0,036
-441,036	-200,000	-0,014	-0,047
-440,022	-22,416	-0,091	0,040
-439,007	155,689	-0,055	0,055
-437,992	-39,459	0,114	-0,044
-436,978	303,279	0,026	0,036
-435,963	-81,176	0,165	-0,040
-434,949	-63,594	0,049	-0,014
-433,934	-87,631	0,089	-0,020
-432,919	-138,403	-0,198	0,016
-431,905	-200,000	-0,005	-0,054
-430,890	409,820	0,076	-0,118
-429,876	-200,000	-0,039	0,140
-428,861	-200,000	-0,027	-0,133
-427,846	800,000	-0,013	0,027
-426,832	77,710	-0,066	-0,052
-425,817	-165,823	-0,017	-0,001
-424,803	-88,013	-0,033	-0,007
-423,788	-31,894	0,085	-0,035
-422,773	32,625	-0,038	0,024
-421,759	0,215	-0,083	0,043
-420,744	-61,427	0,112	0,034
-419,730	-18,226	0,113	-0,051
-418,715	-24,823	-0,162	0,070
-417,701	-38,686	0,060	0,023
-416,686	-149,930	-0,075	0,004
-415,671	405,649	0,065	0,100
-414,657	-114,073	0,065	0,009
-413,642	-200,000	-0,007	0,131
-412,628	-88,434	-0,160	0,035
-411,613	-94,094	0,052	0,010
-410,598	-66,350	-0,162	-0,047
-409,584	-200,000	-0,016	0,000
-408,569	-19,979	-0,088	0,040
-407,555	229,834	-0,075	0,090
-406,540	8,395	0,020	-0,011
-405,525	-152,646	-0,070	0,004
-404,511	800,000	-0,045	-0,134
-403,496	800,000	-0,017	-0,055
-402,482	800,000	0,026	-0,083
-401,467	800,000	-0,025	0,079
-400,452	-200,000	0,012	0,136
-399,438	66,274	-0,054	0,040
-398,423	104,420	0,035	0,030
-397,409	-6,842	-0,068	0,033
-396,394	73,925	-0,023	0,017
-395,379	-200,000	0,001	0,070
-394,365	75,012	-0,088	-0,068
-393,350	432,008	-0,057	-0,090
-392,336	-3,473	0,097	-0,049
-391,321	-200,000	0,010	-0,095
-390,306	-122,696	0,018	-0,002
-389,292	800,000	-0,080	-0,218
-388,277	-200,000	-0,004	0,031
-387,263	576,553	0,095	0,170
-386,248	-200,000	0,059	0,208
-385,233	-200,000	-0,019	0,066
-384,219	184,154	0,046	0,050
-383,204	141,843	0,129	0,125
-382,190	138,850	0,103	0,099
-381,175	-125,039	0,019	0,002
-380,160	45,816	-0,068	0,046
-379,146	-131,486	0,096	-0,009
-378,131	-135,975	-0,117	-0,010
-377,117	800,000	0,009	-0,018
-376,102	-51,915	-0,187	-0,063
-375,088	20,219	-0,061	-0,036
-374,073	493,173	-0,033	0,056
-373,058	-200,000	-0,099	-0,000
-372,044	-93,331	0,154	0,031
-371,029	800,000	0,059	0,157
-370,015	315,170	0,077	-0,106
-369,000	-200,000	-0,027	-0,154
-367,985	-200,000	0,012	-0,093
-366,971	253,143	-0,026	0,032
-365,956	168,731	0,096	-0,100
-364,942	190,129	-0,136	-0,149
-363,927	-200,000	0,000	-0,006
-362,912	94,788	-0,075	-0,062
-361,898	20,370	0,025	0,015
-360,883	71,797	-0,142	0,108
-359,869	800,000	-0,011	0,030
-358,854	190,284	0,060	0,066
-357,839	800,000	-0,047	0,115
-356,825	-200,000	-0,028	0,188
-355,810	-200,000	-0,021	0,110
-354,796	-200,000	-0,018	0,119
-353,781	391,181	-0,039	-0,060
-352,766	100,700	-0,104	0,088
-351,752	-200,000	-0,000	0,034
-350,737	-89,647	0,100	-0,021
-349,723	-9,431	0,030	-0,014
-348,708	17,780	0,077	0,045
-347,693	-45,528	0,011	0,004
-346,679	277,174	-0,127	-0,164
-345,664	-200,000	-0,014	-0,046
-344,650	88,316	-0,029	0,023
-343,635	215,888	0,005	-0,006
-342,620	-104,266	0,101	-0,017
-341,606	485,011	0,057	0,095
-340,591	26,869	-0,094	0,057
-339,577	-64,379	-0,061	-0,018
-338,562	202,946	-0,093	-0,105
-337,548	-200,000	-0,025	0,106
-336,533	-11,981	-0,043	-0,020
-335,518	728,393	0,055	-0,107
-334,504	107,405	-0,142	-0,123
-333,489	134,335	0,046	-0,044
-332,475	169,590	-0,090	-0,094
-331,460	-200,000	-0,011	-0,151
-330,445	9,838	0,078	-0,043
-329,431	800,000	-0,036	-0,077
-328,416	-37,523	-0,103	-0,040
-327,402	-200,000	0,004	0,023
-326,387	-151,554	0,123	0,006
-325,372	247,371	-0,008	0,009
-324,358	129,756	0,041	0,038
-323,343	-66,193	-0,167	-0,048
-322,329	411,928	0,041	0,064
-321,314	-118,279	0,117	0,015
-320,299	185,711	0,128	0,139
-319,285	-162,207	0,096	0,003
-318,270	-124,340	0,191	-0,021
-317,256	-200,000	-0,024	-0,136
-316,241	800,000	0,036	-0,090
-315,226	800,000	-0,058	0,139
-314,212	-48,068	0,055	-0,019
-313,197	251,976	-0,084	-0,104
-312,183	-200,000	-0,024	0,108
-311,168	-75,197	-0,033	-0,008
-310,153	146,804	-0,076	0,074
-309,139	-23,376	0,074	0,032
-308,124	-41,499	0,052	-0,019
-307,110	250,032	0,061	-0,075
-306,095	-137,657	0,110	0,009
-305,080	800,000	0,010	0,025
-304,066	299,044	-0,085	-0,115
-303,051	49,335	0,069	-0,047
-302,037	245,629	0,125	-0,153
-301,022	-141,307	0,107	0,008
-300,008	566,974	0,021	0,037
-298,993	-71,435	-0,024	-0,006
-297,978	57,461	0,037	-0,026
-296,964	314,855	-0,092	0,127
-295,949	76,497	0,032	0,024
-294,935	-17,806	-0,129	0,059
-293,920	-68,583	0,037	-0,010
-292,905	7,835	0,096	0,052
-291,891	-200,000	-0,005	0,159
-290,876	118,249	0,072	0,065
-289,862	25,628	-0,164	-0,099
-288,847	-14,307	-0,038	-0,018
-287,832	800,000	-0,020	0,061
-286,818	-11,218	-0,042	-0,020
-285,803	-200,000	-0,008	-0,055
-284,789	-200,000	0,015	0,090
-283,774	-200,000	0,000	-0,075
-282,759	-111,744	0,080	0,012
-281,745	335,115	-0,042	0,059
-280,730	278,208	-0,037	-0,048
-279,716	-200,000	0,004	0,016
-278,701	-146,162	0,132	0,008
-277,686	-200,000	-0,003	-0,056
-276,672	-8,493	-0,027	0,013
-275,657	-200,000	0,009	0,048
-274,643	-78,331	-0,088	0,022
-273,628	-37,612	-0,050	-0,019
-272,613	504,391	-0,063	0,106
-271,599	-36,989	-0,034	-0,013
-270,584	-149,244	-0,170	-0,010
-269,570	49,638	0,062	-0,042
-268,555	-156,255	-0,120	0,005
-267,540	-200,000	-0,015	-0,108
-266,526	800,000	-0,066	-0,173
-265,511	189,653	-0,076	-0,083
-264,497	-108,073	-0,111	-0,017
-263,482	-157,177	-0,045	0,002
-262,467	225,705	0,081	-0,095
-261,453	98,353	0,008	-0,007
-260,438	-200,000	-0,027	-0,087
-259,424	272,247	0,033	-0,042
-258,409	-200,000	0,008	0,094
-257,395	340,321	-0,030	0,043
-256,380	-200,000	0,016	0,173
-255,365	194,695	-0,083	-0,092
-254,351	447,316	-0,008	-0,013
-253,336	800,000	-0,060	-0,124
-252,322	800,000	0,026	-0,072
-251,307	319,197	0,079	0,110
-250,292	360,492	0,009	0,013
-249,278	-200,000	-0,012	-0,083
-248,263	5,799	0,091	0,049
-247,249	-200,000	0,010	0,136
-246,234	-200,000	0,016	0,106
-245,219	-200,000	-0,008	-0,073
-244,205	648,590	-0,045	-0,084
-243,190	-200,000	-0,018	0,116
-242,176	-200,000	0,001	0,007
-241,161	-165,445	0,013	-0,000
-240,146	165,938	-0,066	0,068
-239,132	-115,410	0,069	-0,009
-238,117	30,435	-0,116	-0,072
-237,103	185,773	0,029	-0,031
-236,088	-200,000	0,023	-0,093
-235,073	492,553	-0,019	0,031
-234,059	800,000	0,038	-0,099
-233,044	-200,000	0,013	-0,048
-232,030	-30,858	-0,188	0,077
-231,015	83,484	-0,136	-0,108
-230,000	103,093	-0,059	-0,050
-228,986	-5,990	0,116	-0,058
-227,971	104,046	-0,044	0,037
-226,957	-15,071	-0,096	0,044
-225,942	-200,000	0,001	-0,099
-224,927	-70,203	0,096	0,026
-223,913	-131,391	0,160	-0,015
-222,898	23,200	-0,144	-0,086
-221,884	48,840	0,031	-0,021
-220,869	-59,204	0,074	-0,023
-219,855	800,000	-0,037	0,116
-218,840	-200,000	0,025	0,167
-217,825	-200,000	-0,006	0,032
-216,811	419,303	0,045	0,070
-215,796	-89,222	0,079	-0,017
-214,782	380,628	0,065	-0,097
-213,767	-200,000	0,011	-0,126
-212,752	-200,000	0,015	0,128
-211,738	-200,000	0,077	0,000
-210,723	106,012	0,065	0,056
-209,709	-98,458	-0,083	0,015
-208,694	-200,000	0,001	-0,102
-207,679	2,994	-0,059	0,031
-206,665	25,908	0,043	0,026
-205,650	-52,610	0,102	-0,034
-204,636	-200,000	-0,011	-0,146
-203,621	195,852	-0,063	-0,069
-202,606	37,962	-0,051	-0,033
-201,592	-20,646	-0,032	-0,014
-200,577	-200,000	-0,018	-0,083
-199,563	44,512	0,097	-0,065
-198,548	800,000	0,047	0,099
-197,533	125,117	-0,226	0,207
-196,519	103,504	0,018	-0,015
-195,504	121,816	0,062	-0,056
-194,490	338,787	-0,112	0,158
-193,475	91,465	0,040	-0,032
-192,460	-183,382	0,165	-0,002
-191,446	-200,000	0,008	-0,068
-190,431	-200,000	0,005	0,092
-189,417	-58,316	0,102	0,032
-188,402	285,954	-0,064	0,084
-187,387	800,000	-0,021	-0,045
-186,373	-36,442	0,069	0,027
-185,358	800,000	-0,024	0,078
-184,344	358,901	0,078	-0,113
-183,329	-15,355	-0,048	0,022
-182,315	-75,972	0,102	0,026
-181,300	-56,100	0,126	-0,040
-180,285	27,192	0,045	-0,027
-179,271	-200,000	-0,019	-0,086
-178,256	800,000	-0,039	-0,094
-177,242	65,369	0,045	-0,033
-176,227	553,517	0,036	-0,063
-175,212	-53,813	0,064	0,021
-174,198	183,892	0,058	0,062
-173,183	625,194	-0,042	-0,078
-172,169	19,554	-0,066	-0,038
-171,154	-200,000	0,000	0,088
-170,139	-200,000	-0,003	0,109
-169,125	-200,000	0,035	0,127
-168,110	-200,000	0,103	0,000
-167,096	-23,152	0,071	-0,031
-166,081	-146,271	-0,154	0,010
-165,066	-200,000	0,011	-0,111
-164,052	206,689	0,076	-0,085
-163,037	800,000	-0,047	-0,134
-162,023	781,162	-0,027	0,053
-161,008	800,000	-0,005	-0,014
-159,993	-165,138	-0,045	0,001
-158,979	449,093	-0,013	-0,021
-157,964	-200,000	-0,019	-0,088
-156,950	173,959	0,071	-0,075
-155,935	800,000	0,014	-0,035
-154,920	-86,276	0,117	-0,026
-153,906	750,927	0,072	0,142
-152,891	5,488	-0,092	0,049
-151,877	596,153	-0,044	0,080
-150,862	800,000	-0,022	-0,054
-149,847	30,938	-0,097	-0,060
-148,833	800,000	-0,048	0,123
-147,818	201,040	0,048	0,053
-146,804	6,891	0,050	-0,027
-145,789	72,006	-0,039	-0,029
-144,775	-48,280	0,132	-0,046
-143,760	-69,033	0,041	-0,011
-142,745	-65,065	-0,092	-0,027
-141,731	138,493	0,107	0,102
-140,716	-200,000	0,022	-0,076
-139,702	-168,779	-0,060	-0,002
-138,687	-97,059	0,036	-0,007
-137,672	15,996	0,122	0,069
-136,658	314,146	0,040	0,054
-135,643	60,136	-0,058	-0,042
-134,629	117,759	0,057	-0,051
-133,614	-78,726	0,155	-0,038
-132,599	-200,000	0,018	0,126
-131,585	114,109	-0,030	0,026
-130,570	-200,000	-0,008	0,071
-129,556	-49,369	-0,073	-0,025
-128,541	800,000	0,025	-0,052
-127,526	-200,000	-0,022	0,203
-126,512	628,840	-0,052	0,096
-125,497	-36,382	-0,058	-0,023
-124,483	-5,865	0,010	-0,005
-123,468	172,233	0,026	-0,027
-122,453	-56,525	-0,098	-0,031
-121,439	330,932	-0,039	-0,054
-120,424	-153,940	-0,134	-0,006
-119,410	30,838	0,100	-0,062
-118,395	482,001	0,052	0,085
-117,380	-1,383	0,139	-0,071
-116,366	800,000	0,022	0,047
-115,351	-26,848	-0,112	-0,047
-114,337	2,806	0,046	0,024
-113,322	-200,000	-0,021	-0,154
-112,307	-200,000	-0,011	0,121
-111,293	-13,503	-0,010	-0,005
-110,278	-34,454	0,059	-0,023
-109,264	236,176	-0,018	-0,022
-108,249	-200,000	0,014	-0,131
-107,234	39,858	-0,087	-0,056
-106,220	800,000	0,046	-0,108
-105,205	111,094	0,037	-0,032
-104,191	-61,784	0,029	-0,009
-103,176	335,952	-0,024	-0,034
-102,162	648,707	0,053	0,098
-101,147	-31,459	-0,044	0,018
-100,132	491,812	0,073	-0,121
-99,118	800,000	-0,029	-0,066
-98,103	-200,000	-0,031	0,134
-97,089	-74,685	0,156	0,040
-96,074	-89,361	0,158	-0,033
-95,059	-200,000	0,013	-0,081
-94,045	800,000	-0,011	0,032
-93,030	-200,000	0,005	-0,122
-92,016	-200,000	-0,015	0,055
-91,001	114,249	0,109	0,096
-89,986	-131,702	-0,064	-0,006
-88,972	-150,179	0,084	-0,005
-87,957	-9,713	0,039	-0,019
-86,943	800,000	-0,032	-0,077
-85,928	392,785	-0,082	-0,123
-84,913	238,461	0,036	-0,043
-83,899	38,687	-0,071	0,046
-82,884	-130,629	0,102	-0,010
-81,870	389,269	0,040	-0,060
-80,855	666,612	0,013	-0,025
-79,840	-62,882	-0,065	-0,019
-78,826	800,000	-0,036	-0,084
-77,811	-12,781	0,074	0,035
-76,797	17,772	-0,113	-0,065
-75,782	800,000	-0,061	0,148
-74,767	-200,000	0,007	-0,039
-73,753	196,984	0,070	-0,077
-72,738	172,888	0,064	-0,066
-71,724	-73,096	-0,128	0,034
-70,709	30,248	-0,095	0,058
-69,694	320,903	0,016	-0,022
-68,680	-44,598	0,102	0,037
-67,665	-109,845	0,036	-0,005
-66,651	800,000	-0,040	0,092
-65,636	-50,305	-0,162	0,055
-64,622	569,962	-0,011	0,019
-63,607	481,631	0,034	-0,056
-62,592	-200,000	0,008	0,061
-61,578	103,191	-0,028	-0,024
-60,563	195,155	0,155	0,170
-59,549	-108,542	-0,068	-0,010
-58,534	59,554	-2,450	-1,740
-57,519	-200,000	0,186	-0,623
-56,505	-200,000	-1,323	-5,012
-55,490	194,807	0,776	0,850
-54,476	800,000	5,316	11,994
-53,461	-200,000	19,714	313,149
-52,446	800,000	741,819	2266,419
-51,432	531,319	1647,454	2818,695
-50,417	116,395	1625,650	1436,144
-49,403	81,646	1276,830	994,898
-48,388	36,381	1023,499	649,170
-47,373	22,828	986,621	581,210
-46,359	21,407	975,102	569,747
-45,344	20,050	971,093	562,947
-44,330	20,123	969,638	562,319
-43,315	19,892	967,966	560,575
-42,300	19,880	967,086	560,004
-41,286	19,900	965,896	559,359
-40,271	19,889	965,141	558,862
-39,257	19,790	964,425	558,105
-38,242	19,813	963,513	557,631
-37,227	19,814	962,611	557,089
-36,213	19,807	961,694	556,514
-35,198	19,798	960,943	556,027
-34,184	19,815	960,164	555,609
-33,169	19,824	959,074	554,985
-32,154	19,858	957,988	554,445
-31,140	19,780	957,417	553,841
-30,125	19,755	956,498	553,208
-29,111	19,823	955,623	552,898
-28,096	19,795	955,046	552,453
-27,082	19,750	954,363	551,889
-26,067	19,789	953,491	551,490
-25,052	19,734	952,839	550,914
-24,038	19,755	952,187	550,583
-23,023	19,715	951,668	550,133
-22,009	19,739	950,700	549,629
-20,994	19,630	950,254	548,999
-19,979	19,656	949,739	548,764
-18,965	19,664	949,071	548,382
-17,950	19,686	948,231	547,945
-16,936	19,683	947,881	547,711
-15,921	19,736	947,094	547,402
-14,906	19,714	946,300	546,853
-13,892	19,707	945,638	546,427
-12,877	19,618	945,382	545,974
-11,863	19,691	944,812	545,855
-10,848	19,658	943,969	545,241
-9,833	19,623	943,632	544,914
-8,819	19,656	942,725	544,472
-7,804	19,697	942,187	544,270
-6,790	19,589	941,582	543,556
-5,775	19,641	940,902	543,308
-4,760	19,596	940,292	542,792
-3,746	19,597	939,749	542,459
-2,731	19,572	939,417	542,169
-1,717	19,624	938,699	541,896
-0,702	19,615	937,918	541,395
0,313	19,331	937,065	540,826
1,327	21,892	934,370	547,269
2,342	29,535	802,288	490,374
3,356	25,528	504,091	301,341
4,371	5,056	377,224	199,387
5,386	2,739	360,964	187,923
6,400	1,689	354,991	183,524
7,415	1,230	352,475	181,653
8,429	1,056	351,208	180,776
9,444	1,273	349,994	180,395
10,459	1,254	349,544	180,124
11,473	1,298	348,750	179,751
12,488	1,440	348,488	179,769
13,502	1,521	347,901	179,546
14,517	1,599	347,328	179,327
15,531	1,313	346,780	178,690
16,546	1,335	346,522	178,567
17,561	1,511	345,876	178,425
18,575	1,409	345,588	178,140
19,590	1,279	345,225	177,784
20,604	1,422	344,916	177,778
21,619	1,287	344,399	177,338
22,634	1,235	344,213	177,164
23,648	1,301	343,839	177,034
24,663	1,370	343,473	176,910
25,677	1,457	343,224	176,868
26,692	1,335	342,804	176,493
27,707	1,215	342,684	176,276
28,721	1,266	342,287	176,115
29,736	1,300	342,007	175,995
30,750	1,414	341,638	175,922
31,765	1,186	341,410	175,523
32,780	1,340	341,005	175,479
33,794	1,360	340,698	175,329
34,809	1,271	340,501	175,108
35,823	1,321	340,123	174,957
36,838	1,198	339,874	174,670
37,853	1,134	339,674	174,477
38,867	1,273	339,263	174,411
39,882	1,338	339,028	174,350
40,896	1,370	338,795	174,251
41,911	1,293	338,421	173,955
42,926	1,232	338,253	173,783
43,940	1,154	338,019	173,557
44,955	1,308	337,692	173,551
45,969	1,091	337,535	173,206
46,984	1,099	337,055	172,953
47,999	0,800	336,869	172,499
49,013	0,804	336,415	172,255
50,028	0,722	336,169	172,020
51,042	0,621	335,874	171,739
52,057	0,669	335,540	171,607
53,071	0,642	335,440	171,510
54,086	0,661	335,276	171,433
55,101	0,678	335,002	171,296
56,115	1,050	334,861	171,633
57,130	1,364	334,625	171,855
58,144	1,244	334,545	171,661
59,159	1,434	334,232	171,702
60,174	1,389	333,941	171,486
61,188	1,398	333,674	171,343
62,203	1,474	333,322	171,234
63,217	1,340	333,176	170,992
64,232	1,331	333,051	170,902
65,247	1,421	332,693	170,805
66,261	1,445	332,326	170,628
67,276	1,239	332,043	170,236
68,290	0,969	331,790	169,786
69,305	1,034	331,436	169,663
70,320	1,084	331,216	169,591
71,334	1,139	331,136	169,597
72,349	1,498	330,842	169,835
73,363	1,413	330,537	169,568
74,378	1,374	330,251	169,363
75,393	1,521	330,057	169,412
76,407	1,480	329,832	169,236
77,422	1,432	329,581	169,038
78,436	1,447	329,321	168,907
79,451	1,430	329,139	168,780
80,466	1,342	328,861	168,524
81,480	1,262	328,528	168,249
82,495	1,135	328,326	167,989
83,509	1,193	327,904	167,823
84,524	1,179	327,688	167,681
85,539	0,901	327,576	167,299
86,553	0,907	327,281	167,141
87,568	1,033	327,056	167,151
88,582	1,222	326,997	167,316
89,597	1,162	326,518	166,989
90,611	1,235	326,353	166,970
91,626	1,337	326,230	167,006
92,641	1,334	325,957	166,848
93,655	1,250	325,712	166,615
94,670	1,445	325,433	166,672
95,684	1,250	325,237	166,342
96,699	1,152	325,089	166,144
97,714	1,195	324,807	166,031
98,728	1,108	324,615	165,823
99,743	1,026	324,148	165,479
100,757	1,016	324,011	165,385
101,772	1,076	323,678	165,264
102,787	1,035	323,459	165,093
103,801	1,187	323,263	165,145
104,816	1,290	323,015	165,117
105,830	1,304	322,877	165,046
106,845	1,267	322,702	164,902
107,860	1,304	322,509	164,829
108,874	1,305	322,175	164,645
109,889	1,173	321,980	164,386
110,903	1,266	321,591	164,274
111,918	1,136	321,496	164,070
112,933	1,226	321,275	164,040
113,947	1,469	320,931	164,114
114,962	1,430	320,867	164,024
115,976	1,382	320,444	163,742
116,991	1,137	320,488	163,484
118,006	1,298	320,166	163,479
119,020	1,326	320,044	163,432
120,035	1,382	319,917	163,414
121,049	1,371	319,655	163,254
122,064	1,394	319,365	163,116
123,079	1,351	319,149	162,945
124,093	1,226	318,894	162,666
125,108	1,275	318,480	162,492
126,122	0,938	318,267	162,006
127,137	0,890	318,095	161,853
128,151	1,064	317,902	161,927
129,166	1,143	317,700	161,894
130,181	1,052	317,287	161,572
131,195	0,880	317,265	161,361
132,210	1,028	317,121	161,432
133,224	1,260	316,733	161,469
134,239	1,233	316,607	161,362
135,254	1,358	316,364	161,357
136,268	1,274	315,979	161,057
137,283	1,062	315,655	160,651
138,297	0,866	315,396	160,297
139,312	0,728	315,418	160,147
140,327	1,171	315,281	160,534
141,341	1,470	315,089	160,740
142,356	1,521	314,956	160,712
143,370	1,498	314,765	160,576
144,385	1,622	314,473	160,544
145,400	1,546	314,364	160,394
146,414	1,626	313,951	160,253
147,429	1,377	313,860	159,929
148,443	1,581	313,511	159,953
149,458	1,621	313,349	159,898
150,473	1,478	313,389	159,752
151,487	1,365	313,014	159,428
152,502	1,644	312,694	159,545
153,516	1,414	312,594	159,238
154,531	1,525	312,311	159,196
155,546	1,502	312,188	159,095
156,560	1,311	312,012	158,790
157,575	1,534	311,593	158,797
158,589	1,509	311,416	158,667
159,604	1,472	311,196	158,501
160,619	1,529	311,069	158,483
161,633	1,591	310,921	158,457
162,648	1,604	310,589	158,288
163,662	1,538	310,507	158,163
164,677	1,490	310,458	158,073
165,692	1,491	310,088	157,872
166,706	1,565	309,917	157,848
167,721	1,437	309,745	157,613
168,735	1,400	309,600	157,487
169,750	1,428	309,331	157,365
170,764	1,489	309,232	157,364
171,779	1,556	309,004	157,303
172,794	1,583	308,732	157,179
173,808	1,548	308,465	156,993
174,823	1,102	308,094	156,328
175,837	1,086	307,945	156,221
176,852	1,479	307,816	156,550
177,867	1,528	307,751	156,553
178,881	1,597	307,743	156,607
179,896	1,728	307,414	156,561
180,910	1,826	307,067	156,471
181,925	1,618	306,952	156,184
182,940	1,646	306,711	156,076
183,954	1,654	306,451	155,938
184,969	1,602	306,254	155,771
185,983	1,638	306,100	155,716
186,998	1,589	305,791	155,493
188,013	1,616	305,799	155,512
189,027	1,680	305,398	155,359
190,042	1,540	305,151	155,077
191,056	1,771	304,899	155,172
192,071	1,652	304,925	155,049
193,086	1,681	304,658	154,928
194,100	1,619	304,448	154,745
195,115	1,621	304,111	154,562
196,129	1,538	303,985	154,399
197,144	1,684	303,659	154,369
198,159	1,700	303,426	154,253
199,173	1,719	303,298	154,193
200,188	1,633	303,289	154,087
201,202	1,446	302,851	153,661
202,217	1,167	302,405	153,137
203,232	1,117	302,203	152,971
204,246	1,412	302,116	153,213
205,261	1,641	302,010	153,378
206,275	1,823	301,915	153,500
207,290	1,596	301,824	153,210
208,304	1,631	301,426	153,029
209,319	1,669	301,355	153,019
210,334	1,739	301,043	152,917
211,348	1,783	300,912	152,881
212,363	1,619	300,609	152,548
213,377	1,707	300,624	152,632
214,392	1,736	300,460	152,564
215,407	1,448	300,113	152,084
216,421	1,487	299,887	151,995
217,436	1,347	299,665	151,728
218,450	1,420	299,508	151,708
219,465	1,477	299,371	151,682
220,480	1,551	299,219	151,666
221,494	1,555	298,984	151,538
222,509	1,634	298,817	151,519
223,523	1,663	298,502	151,375
224,538	1,516	298,407	151,166
225,553	1,574	298,292	151,153
226,567	1,654	298,073	151,108
227,582	1,694	297,904	151,048
228,596	1,810	297,756	151,076
229,611	1,679	297,536	150,820
230,626	1,706	297,203	150,664
231,640	1,267	296,908	150,065
232,655	1,064	296,711	149,750
233,669	0,951	296,468	149,502
234,684	0,976	296,128	149,342
235,699	1,174	296,071	149,496
236,713	1,289	295,986	149,554
237,728	1,328	295,648	149,409
238,742	1,495	295,766	149,620
239,757	1,612	295,530	149,604
240,772	1,652	295,258	149,492
241,786	1,612	295,104	149,360
242,801	1,367	294,897	149,001
243,815	1,404	294,584	148,866
244,830	1,235	294,706	148,748
245,844	1,240	294,327	148,548
246,859	1,264	294,081	148,434
247,874	1,305	293,899	148,370
248,888	1,350	293,661	148,280
249,903	1,478	293,656	148,390
250,917	1,621	293,503	148,440
251,932	1,718	293,249	148,393
252,947	2,019	293,396	148,750
253,961	1,447	292,719	147,834
254,976	1,236	292,742	147,626
255,990	2,520	293,036	149,018
257,005	3,878	293,487	150,565
258,020	4,799	293,499	151,459
259,034	4,646	293,294	151,190
260,049	4,533	293,054	150,942
261,063	4,290	292,817	150,570
262,078	4,757	292,798	151,002
263,093	5,060	292,732	151,250
264,107	5,257	292,579	151,350
265,122	5,302	292,506	151,343
266,136	5,550	292,345	151,487
267,151	5,263	292,082	151,058
268,166	5,048	291,791	150,685
269,180	5,113	291,615	150,644
270,195	5,117	291,432	150,541
271,209	5,291	291,255	150,604
272,224	5,169	291,010	150,346
273,239	4,869	290,701	149,882
274,253	5,018	290,694	150,009
275,268	5,613	290,601	150,524
276,282	5,051	290,418	149,872
277,297	5,322	290,266	150,042
278,312	5,533	290,107	150,150
279,326	5,496	289,732	149,907
280,341	5,158	289,459	149,427
281,355	5,003	289,266	149,165
282,370	4,989	288,960	148,981
283,384	4,860	288,971	148,849
284,399	5,086	288,814	148,972
285,414	5,203	288,644	148,983
286,428	4,749	288,403	148,410
287,443	4,877	288,069	148,348
288,457	4,510	287,812	147,850
289,472	4,668	287,728	147,946
290,487	4,892	287,640	148,102
291,501	4,518	287,293	147,552
292,516	4,328	287,216	147,318
293,530	4,416	286,976	147,266
294,545	4,875	286,775	147,587
295,560	4,876	286,776	147,575
296,574	4,676	286,237	147,094
297,589	4,806	286,278	147,226
298,603	5,231	286,305	147,631
299,618	5,258	286,142	147,560
300,633	4,858	285,842	147,012
301,647	4,752	285,673	146,811
302,662	4,835	285,433	146,753
303,676	4,659	285,034	146,369
304,691	4,609	284,880	146,229
305,706	4,320	284,681	145,841
306,720	4,600	284,407	145,952
307,735	4,580	284,360	145,896
308,749	4,589	284,310	145,866
309,764	4,626	284,097	145,778
310,779	4,566	283,770	145,541
311,793	4,306	283,621	145,206
312,808	4,491	283,499	145,305
313,822	4,629	283,130	145,233
314,837	4,501	283,009	145,037
315,852	4,289	282,971	144,806
316,866	4,396	282,627	144,718
317,881	4,477	282,507	144,719
318,895	4,536	282,294	144,653
319,910	4,331	282,041	144,318
320,925	4,215	281,845	144,096
321,939	4,523	281,790	144,343
322,954	4,810	281,728	144,567
323,968	4,707	281,609	144,397
324,983	4,702	281,413	144,279
325,997	4,617	281,367	144,163
327,012	5,013	281,039	144,351
328,027	4,766	280,773	143,972
329,041	4,719	280,633	143,843
330,056	4,721	280,694	143,864
331,070	4,704	280,285	143,625
332,085	4,663	280,085	143,472
333,100	4,799	279,831	143,456
334,114	4,518	279,673	143,101
335,129	4,387	279,614	142,937
336,143	4,653	279,424	143,073
337,158	4,818	279,417	143,209
338,173	4,767	279,092	142,983
339,187	4,612	278,759	142,656
340,202	4,547	278,587	142,496
341,216	4,788	278,569	142,696
342,231	4,676	278,388	142,488
343,246	4,695	278,270	142,432
344,260	4,655	278,093	142,292
345,275	4,859	277,934	142,385
346,289	5,238	277,817	142,661
347,304	5,214	277,575	142,502
348,319	4,801	277,377	142,009
349,333	4,776	277,195	141,880
350,348	4,847	277,097	141,883
351,362	5,148	276,879	142,033
352,377	4,924	276,735	141,742
353,392	4,908	276,580	141,635
354,406	5,293	276,220	141,790
355,421	188,441	1343,557	1404,551
356,435	152,141	1473,496	1404,444
