DTS Sentinel unit serial number:	SN410029Multiplexer serial number:	ORYXHardware model number:	OX2-SRSoftware version number:	ORYX F/W v4,00 Oryx Data Collector v3.7.2.0data status	okinstallation	B4 Nyhavnadifferential loss correction	single-endedforward channel	channel 2reverse channel	N/Adate	2023/12/18time	20:20:13forward acquisition time	300,00reverse acquisition time	0,00gamma	499,1914k internal	0,3124k external	0,3124temperature offset calibration	1,0000default loss term (dB/km)	0,3820temperature slope calibration	1,0000multiplexer offset coefficient	1,0000multiplexer slope coefficient	1,0000fibre end	0,00T internal ref (°C)	21,87T ext. ref 1 (°C)	7,00T ext. ref 2 (°C)	6,93length (m)	temperature (°C)	Stokes	anti-Stokes-744,400	247,031	0,109	-0,138
-743,385	-84,760	-0,256	0,060
-742,371	800,000	0,067	-0,147
-741,356	242,368	-0,140	0,175
-740,342	-200,000	0,001	-0,065
-739,327	-127,204	-0,228	0,024
-738,312	247,036	-0,055	-0,069
-737,298	-163,323	-0,213	0,007
-736,283	-200,000	0,016	-0,145
-735,269	109,807	-0,180	0,161
-734,254	95,332	0,085	-0,073
-733,239	-15,310	-0,417	-0,198
-732,225	-174,692	0,146	-0,003
-731,210	-200,000	-0,003	0,048
-730,196	-200,000	0,003	-0,079
-729,181	-77,440	0,044	-0,011
-728,167	-59,346	0,125	0,040
-727,152	800,000	-0,021	-0,068
-726,137	-131,042	-0,110	0,011
-725,123	800,000	0,025	0,060
-724,108	562,308	-0,061	0,111
-723,094	69,615	-0,225	-0,172
-722,079	-125,868	-0,057	0,006
-721,064	800,000	-0,038	0,098
-720,050	44,819	-0,086	-0,059
-719,035	430,230	0,053	-0,085
-718,021	664,926	-0,074	-0,143
-717,006	-200,000	-0,040	-0,138
-715,991	-200,000	0,015	-0,063
-714,977	-60,999	-0,089	-0,028
-713,962	126,866	-0,052	0,049
-712,948	198,957	0,104	0,119
-711,933	60,327	0,039	0,029
-710,918	-143,721	0,107	0,007
-709,904	-105,023	-0,086	0,014
-708,889	800,000	-0,037	-0,081
-707,875	-81,092	-0,181	-0,044
-706,860	-200,000	-0,002	-0,036
-705,845	-126,449	0,024	0,003
-704,831	-95,241	-0,011	-0,002
-703,816	-200,000	0,028	-0,159
-702,802	160,544	0,037	0,039
-701,787	-33,377	-0,099	-0,041
-700,772	96,620	0,099	-0,084
-699,758	-112,893	0,150	0,022
-698,743	474,797	-0,030	-0,051
-697,729	-91,367	0,150	-0,032
-696,714	60,827	0,112	-0,082
-695,699	-88,282	-0,088	0,019
-694,685	-110,304	-0,118	-0,018
-693,670	52,072	-0,048	-0,034
-692,656	-200,000	0,020	-0,139
-691,641	800,000	-0,016	0,040
-690,627	69,649	0,119	0,091
-689,612	800,000	0,019	-0,043
-688,597	-107,636	-0,054	0,009
-687,583	363,064	-0,085	-0,128
-686,568	-200,000	0,017	-0,060
-685,554	-200,000	-0,009	0,066
-684,539	634,820	0,071	-0,134
-683,524	800,000	0,026	-0,080
-682,510	-11,575	0,114	0,055
-681,495	-110,174	-0,126	-0,019
-680,481	-200,000	-0,022	-0,136
-679,466	-200,000	0,011	-0,166
-678,451	56,426	0,026	0,019
-677,437	-101,946	-0,092	-0,016
-676,422	-200,000	-0,026	0,090
-675,408	248,512	0,070	-0,088
-674,393	-200,000	-0,015	0,057
-673,378	-104,737	-0,160	0,027
-672,364	147,943	0,041	-0,041
-671,349	-79,012	0,139	-0,035
-670,335	92,914	0,086	-0,073
-669,320	347,599	-0,101	-0,149
-668,305	-115,180	-0,065	0,009
-667,291	-83,479	-0,124	-0,029
-666,276	224,844	-0,129	0,155
-665,262	106,974	0,064	-0,056
-664,247	183,197	0,008	0,009
-663,232	-77,816	-0,097	0,025
-662,218	-200,000	0,004	0,137
-661,203	-200,000	0,000	-0,002
-660,189	175,708	-0,036	0,038
-659,174	-200,000	0,001	0,119
-658,159	-200,000	0,015	-0,059
-657,145	-200,000	-0,012	0,043
-656,130	-23,832	-0,114	-0,050
-655,116	12,180	-0,034	0,019
-654,101	-200,000	0,010	-0,067
-653,086	-200,000	0,005	-0,155
-652,072	-200,000	0,036	-0,139
-651,057	800,000	-0,055	-0,157
-650,043	-80,977	-0,113	0,028
-649,028	40,460	-0,028	0,018
-648,014	-200,000	0,002	-0,079
-646,999	36,716	0,148	-0,097
-645,984	-95,322	-0,052	0,010
-644,970	-200,000	-0,003	0,093
-643,955	-200,000	0,010	0,076
-642,941	-200,000	0,015	-0,061
-641,926	-123,176	-0,102	0,012
-640,911	-200,000	-0,000	0,024
-639,897	-62,078	0,058	0,018
-638,882	-108,186	0,055	0,009
-637,868	-85,313	-0,054	0,012
-636,853	-200,000	-0,007	-0,050
-635,838	64,764	-0,087	-0,065
-634,824	-7,568	0,063	-0,032
-633,809	-200,000	-0,002	-0,055
-632,795	660,120	0,046	0,088
-631,780	650,840	0,024	0,046
-630,765	-18,578	0,120	0,055
-629,751	10,553	-0,147	0,083
-628,736	-47,930	-0,062	-0,022
-627,722	-200,000	-0,037	0,164
-626,707	111,642	0,044	-0,039
-625,692	1,849	0,054	0,029
-624,678	-64,496	0,052	0,015
-623,663	800,000	-0,021	-0,050
-622,649	-123,937	-0,163	-0,019
-621,634	800,000	0,056	-0,171
-620,619	-109,266	-0,128	0,020
-619,605	695,053	-0,082	0,161
-618,590	687,977	0,011	-0,022
-617,576	-116,027	0,205	-0,028
-616,561	-200,000	0,028	0,133
-615,546	-200,000	0,018	0,086
-614,532	-114,172	0,101	0,014
-613,517	43,298	-0,068	0,046
-612,503	382,939	0,089	0,136
-611,488	57,994	0,060	0,043
-610,474	56,295	0,061	-0,044
-609,459	785,570	0,022	-0,046
-608,444	413,051	-0,031	0,050
-607,430	-109,798	-0,078	0,012
-606,415	-26,998	-0,153	0,066
-605,401	-200,000	0,003	0,150
-604,386	222,142	-0,019	-0,022
-603,371	45,197	0,065	0,044
-602,357	-200,000	0,005	-0,053
-601,342	704,799	-0,025	-0,050
-600,328	38,939	0,054	-0,036
-599,313	-200,000	-0,002	0,118
-598,298	463,185	0,036	0,059
-597,284	-66,322	0,048	-0,014
-596,269	556,578	-0,051	-0,092
-595,255	-200,000	-0,025	-0,219
-594,240	-137,876	-0,285	-0,023
-593,225	-71,410	-0,050	-0,014
-592,211	111,597	-0,124	-0,111
-591,196	53,496	0,040	-0,028
-590,182	50,445	0,025	-0,017
-589,167	-200,000	0,038	0,126
-588,152	-200,000	-0,004	-0,102
-587,138	10,245	-0,051	-0,029
-586,123	800,000	-0,034	-0,106
-585,109	-113,113	0,041	-0,006
-584,094	-115,913	-0,051	-0,007
-583,079	800,000	0,037	-0,082
-582,065	-32,529	0,241	0,099
-581,050	-58,685	-0,201	0,064
-580,036	-33,905	-0,113	-0,046
-579,021	-58,717	0,127	-0,041
-578,006	-166,840	-0,040	0,001
-576,992	-37,167	-0,096	-0,038
-575,977	800,000	-0,045	0,112
-574,963	34,008	0,073	-0,047
-573,948	-200,000	-0,027	0,224
-572,934	-200,000	0,010	0,043
-571,919	42,899	-0,178	-0,120
-570,904	241,111	0,057	-0,070
-569,890	121,098	-0,080	-0,074
-568,875	-200,000	0,001	0,012
-567,861	349,502	0,102	-0,149
-566,846	-170,305	0,022	-0,001
-565,831	-130,959	0,048	0,005
-564,817	283,067	-0,051	0,068
-563,802	87,249	-0,112	-0,092
-562,788	76,250	-0,023	0,018
-561,773	241,467	-0,006	-0,007
-560,758	-148,190	0,070	-0,004
-559,744	440,814	-0,023	0,037
-558,729	-200,000	0,037	-0,132
-557,715	-65,230	0,022	0,006
-556,700	-30,588	-0,009	-0,004
-555,685	0,569	-0,116	-0,061
-554,671	78,386	0,045	0,035
-553,656	800,000	-0,039	0,083
-552,642	238,050	0,081	0,100
-551,627	-200,000	-0,003	0,034
-550,612	-200,000	0,003	0,053
-549,598	451,490	0,080	-0,131
-548,583	-200,000	-0,042	-0,186
-547,569	125,201	-0,034	0,032
-546,554	-95,787	0,142	0,028
-545,539	800,000	-0,012	-0,035
-544,525	-32,663	-0,111	-0,045
-543,510	800,000	0,021	0,054
-542,496	-131,869	-0,134	-0,013
-541,481	84,175	-0,115	-0,093
-540,466	296,209	-0,105	-0,143
-539,452	220,062	0,061	0,072
-538,437	-200,000	0,000	-0,010
-537,423	800,000	-0,031	-0,097
-536,408	648,425	-0,078	-0,149
-535,393	379,238	-0,050	-0,076
-534,379	142,257	-0,096	-0,094
-533,364	-200,000	-0,006	-0,121
-532,350	85,641	-0,098	-0,080
-531,335	-200,000	0,021	0,274
-530,321	197,484	-0,091	0,103
-529,306	628,548	-0,027	-0,051
-528,291	-8,214	-0,070	-0,034
-527,277	-200,000	-0,010	-0,066
-526,262	-200,000	0,011	-0,087
-525,248	493,691	-0,046	0,078
-524,233	-70,365	0,161	0,045
-523,218	800,000	0,040	-0,100
-522,204	205,275	0,101	0,116
-521,189	179,808	0,035	-0,038
-520,175	-1,907	0,200	-0,104
-519,160	-200,000	0,003	-0,027
-518,145	133,185	0,055	-0,052
-517,131	729,898	0,016	-0,031
-516,116	800,000	0,056	0,138
-515,102	127,173	-0,061	0,057
-514,087	2,104	-0,081	0,043
-513,072	528,686	0,004	0,006
-512,058	16,526	0,105	-0,061
-511,043	756,377	0,034	-0,068
-510,029	-200,000	-0,008	0,058
-509,014	-28,662	-0,056	0,024
-507,999	517,792	-0,066	0,114
-506,985	365,084	0,038	0,057
-505,970	473,579	0,031	0,052
-504,956	14,784	0,165	-0,095
-503,941	458,999	-0,041	0,068
-502,926	-28,909	0,056	0,024
-501,912	29,936	0,038	-0,024
-500,897	-136,531	0,031	0,003
-499,883	116,483	0,152	-0,138
-498,868	800,000	-0,014	-0,038
-497,853	-80,221	0,012	-0,003
-496,839	800,000	-0,047	0,134
-495,824	-32,812	0,225	-0,092
-494,810	187,455	-0,010	0,011
-493,795	-200,000	-0,026	-0,121
-492,781	-150,423	0,099	0,006
-491,766	166,168	0,091	0,095
-490,751	800,000	0,021	0,064
-489,737	109,604	-0,063	0,056
-488,722	-39,613	-0,094	0,036
-487,708	-200,000	0,012	0,137
-486,693	-200,000	-0,036	0,131
-485,678	32,991	0,022	-0,014
-484,664	-27,367	0,096	-0,041
-483,649	-141,601	-0,090	-0,007
-482,635	659,252	0,017	-0,032
-481,620	-59,343	-0,066	-0,021
-480,605	800,000	0,038	0,115
-479,591	185,888	0,055	-0,061
-478,576	-57,939	0,101	-0,032
-477,562	800,000	0,037	0,078
-476,547	-125,295	0,101	0,011
-475,532	-72,774	0,152	-0,041
-474,518	545,987	-0,036	-0,064
-473,503	-17,876	0,098	0,045
-472,489	432,739	-0,070	0,112
-471,474	46,494	-0,082	-0,056
-470,459	0,530	-0,031	0,017
-469,445	605,565	-0,033	0,060
-468,430	-26,220	-0,101	-0,044
-467,416	-97,990	0,148	0,028
-466,401	-200,000	-0,003	0,078
-465,386	231,579	-0,058	0,071
-464,372	211,099	0,057	0,066
-463,357	-140,648	-0,175	0,013
-462,343	3,953	-0,036	0,019
-461,328	-44,255	-0,090	-0,033
-460,313	-200,000	0,010	0,076
-459,299	-36,642	-0,075	0,029
-458,284	342,275	0,037	0,054
-457,270	-200,000	-0,022	0,097
-456,255	-200,000	-0,005	-0,036
-455,241	800,000	-0,045	-0,109
-454,226	800,000	0,026	-0,065
-453,211	-200,000	0,002	-0,011
-452,197	800,000	-0,018	-0,052
-451,182	-29,986	0,063	0,026
-450,168	76,615	-0,054	-0,042
-449,153	113,530	-0,055	0,050
-448,138	190,339	0,096	-0,107
-447,124	800,000	-0,058	-0,152
-446,109	408,952	-0,075	0,118
-445,095	-200,000	0,022	-0,090
-444,080	-200,000	0,016	0,076
-443,065	800,000	0,046	0,098
-442,051	381,206	0,022	0,034
-441,036	84,405	0,058	-0,047
-440,022	800,000	0,012	-0,025
-439,007	-200,000	-0,060	0,213
-437,992	31,038	0,050	0,031
-436,978	-97,406	-0,096	0,018
-435,963	104,351	-0,071	-0,062
-434,949	122,496	0,071	-0,065
-433,934	-179,670	0,076	-0,001
-432,919	-200,000	0,009	0,099
-431,905	168,726	-0,066	-0,069
-430,890	800,000	-0,035	-0,111
-429,876	56,810	-0,040	-0,029
-428,861	-62,961	0,138	-0,042
-427,846	-5,742	-0,144	0,072
-426,832	433,322	-0,061	-0,098
-425,817	-200,000	0,009	-0,061
-424,803	-200,000	0,006	0,020
-423,788	-200,000	-0,001	0,013
-422,773	-200,000	0,005	0,090
-421,759	330,280	0,076	0,108
-420,744	183,608	-0,052	-0,057
-419,730	-200,000	0,014	0,091
-418,715	-200,000	-0,012	-0,082
-417,701	-55,254	-0,025	0,008
-416,686	-50,626	0,131	-0,045
-415,671	390,655	0,032	-0,049
-414,657	59,601	0,068	-0,049
-413,642	-200,000	0,009	-0,054
-412,628	800,000	0,025	-0,051
-411,613	-93,712	-0,075	0,015
-410,598	316,142	0,059	-0,082
-409,584	-34,641	-0,187	0,075
-408,569	191,970	-0,074	0,082
-407,555	-81,115	0,120	0,029
-406,540	-81,474	-0,046	-0,011
-405,525	14,663	0,038	0,022
-404,511	229,434	-0,073	-0,088
-403,496	-52,378	0,064	-0,022
-402,482	-99,090	-0,165	-0,030
-401,467	-121,074	-0,099	0,012
-400,452	303,053	0,038	-0,052
-399,438	211,810	-0,070	0,081
-398,423	-25,494	0,055	-0,024
-397,409	-14,689	-0,081	-0,038
-396,394	227,835	-0,074	0,089
-395,379	92,439	0,045	-0,037
-394,365	-200,000	0,026	0,172
-393,350	-200,000	0,002	0,308
-392,336	-64,062	-0,089	-0,027
-391,321	-55,218	0,095	-0,031
-390,306	-53,511	-0,065	-0,022
-389,292	800,000	-0,010	0,024
-388,277	81,383	0,098	0,077
-387,263	800,000	-0,032	-0,098
-386,248	350,449	0,035	-0,052
-385,233	800,000	-0,052	-0,153
-384,219	-200,000	0,025	-0,084
-383,204	-200,000	0,024	-0,094
-382,190	140,533	-0,019	0,018
-381,175	-200,000	-0,001	-0,141
-380,160	-115,978	0,045	-0,006
-379,146	-125,198	0,039	-0,004
-378,131	800,000	0,027	0,085
-377,117	-83,250	0,056	-0,013
-376,102	-170,678	-0,073	0,002
-375,088	336,551	0,065	-0,093
-374,073	-200,000	0,009	0,049
-373,058	176,481	0,077	-0,083
-372,044	800,000	-0,024	0,068
-371,029	800,000	-0,026	0,061
-370,015	391,390	-0,032	-0,049
-369,000	190,388	-0,063	-0,069
-367,985	-200,000	0,014	-0,079
-366,971	207,976	-0,027	-0,031
-365,956	122,065	-0,067	-0,061
-364,942	175,602	-0,106	-0,113
-363,927	48,039	0,097	0,066
-362,912	-200,000	-0,009	0,185
-361,898	-58,079	-0,006	0,002
-360,883	40,360	0,048	-0,032
-359,869	142,098	-0,049	-0,047
-358,854	322,341	0,082	-0,115
-357,839	2,839	0,091	-0,048
-356,825	-129,189	0,068	-0,007
-355,810	-200,000	-0,018	0,068
-354,796	-78,091	0,078	-0,020
-353,781	60,802	-0,082	-0,060
-352,766	-72,968	-0,052	0,014
-351,752	800,000	0,027	-0,072
-350,737	731,530	0,047	0,093
-349,723	426,680	-0,069	0,109
-348,708	110,383	-0,097	-0,086
-347,693	40,796	0,054	0,036
-346,679	66,656	-0,037	-0,027
-345,664	-24,706	0,029	-0,013
-344,650	44,655	0,019	0,013
-343,635	-47,321	-0,101	0,036
-342,620	36,465	0,053	0,034
-341,606	129,516	0,055	-0,052
-340,591	-3,448	0,100	0,051
-339,577	800,000	-0,012	-0,038
-338,562	136,465	0,055	-0,053
-337,548	800,000	-0,034	-0,073
-336,533	-200,000	-0,016	0,093
-335,518	-200,000	0,045	0,167
-334,504	655,818	0,031	-0,058
-333,489	-69,643	0,065	0,018
-332,475	32,046	-0,054	-0,034
-331,460	-118,351	-0,144	-0,018
-330,445	62,730	0,013	-0,009
-329,431	800,000	0,068	-0,185
-328,416	-51,967	-0,012	0,004
-327,402	-38,201	0,031	-0,012
-326,387	-200,000	0,028	0,122
-325,372	319,074	-0,029	-0,040
-324,358	-200,000	-0,037	-0,164
-323,343	45,207	-0,018	-0,012
-322,329	-96,458	-0,012	-0,002
-321,314	-37,632	-0,171	0,067
-320,299	-126,380	0,091	0,010
-319,285	72,648	-0,039	-0,030
-318,270	800,000	0,010	-0,025
-317,256	327,443	-0,098	0,138
-316,241	-105,694	-0,081	0,013
-315,226	-35,143	-0,052	-0,021
-314,212	781,948	0,017	-0,034
-313,197	-94,920	0,114	-0,022
-312,183	-132,214	-0,093	-0,009
-311,168	272,132	0,031	-0,040
-310,153	-152,784	0,066	0,003
-309,139	156,863	-0,084	-0,086
-308,124	230,129	-0,049	0,058
-307,110	-149,314	0,165	0,009
-306,095	197,680	-0,063	0,070
-305,080	227,238	-0,034	0,040
-304,066	-168,573	-0,063	-0,002
-303,051	41,744	0,060	-0,040
-302,037	155,317	-0,059	0,059
-301,022	-128,638	0,119	0,012
-300,008	-96,421	0,164	0,031
-298,993	-145,163	0,075	-0,005
-297,978	387,437	0,025	-0,038
-296,964	166,996	-0,071	-0,074
-295,949	-116,970	0,104	0,014
-294,935	-200,000	-0,009	-0,119
-293,920	3,892	0,033	0,017
-292,905	-200,000	-0,010	-0,126
-291,891	-63,542	0,056	-0,017
-290,876	126,308	0,012	0,011
-289,862	69,038	-0,150	-0,113
-288,847	-38,115	0,058	0,023
-287,832	183,492	0,053	-0,058
-286,818	767,584	0,061	0,123
-285,803	-60,500	-0,035	-0,011
-284,789	342,032	0,123	0,176
-283,774	800,000	-0,009	0,024
-282,759	107,859	-0,080	0,070
-281,745	-131,804	-0,222	0,021
-280,730	800,000	0,053	-0,155
-279,716	800,000	-0,036	-0,098
-278,701	-200,000	-0,003	-0,063
-277,686	800,000	-0,038	0,091
-276,672	281,801	-0,110	0,144
-275,657	-200,000	-0,030	-0,124
-274,643	-200,000	0,001	0,013
-273,628	-73,784	0,062	0,016
-272,613	15,022	0,121	-0,069
-271,599	800,000	0,054	0,130
-270,584	-200,000	0,009	0,067
-269,570	-200,000	-0,011	0,093
-268,555	28,253	0,098	0,060
-267,540	-162,707	-0,046	0,002
-266,526	800,000	-0,039	-0,082
-265,511	-91,813	0,081	-0,017
-264,497	606,097	0,040	-0,074
-263,482	800,000	-0,024	-0,066
-262,467	-200,000	0,013	-0,094
-261,453	230,441	0,059	-0,071
-260,438	-56,641	-0,038	-0,012
-259,424	-70,148	0,062	-0,017
-258,409	-93,162	-0,057	-0,012
-257,395	-115,024	0,050	0,007
-256,380	75,766	0,042	-0,033
-255,365	-58,801	-0,073	0,023
-254,351	65,712	-0,098	0,072
-253,336	-33,202	0,074	0,030
-252,322	-200,000	-0,009	0,028
-251,307	67,265	-0,050	0,038
-250,292	800,000	0,046	0,105
-249,278	547,225	0,055	0,097
-248,263	567,805	0,050	0,090
-247,249	-200,000	0,026	0,110
-246,234	-200,000	0,010	0,204
-245,219	150,196	-0,089	0,088
-244,205	800,000	-0,034	-0,106
-243,190	800,000	0,022	-0,045
-242,176	736,238	0,022	0,043
-241,161	-111,772	0,116	-0,017
-240,146	327,916	0,032	-0,045
-239,132	-200,000	-0,023	-0,192
-238,117	177,897	-0,057	0,060
-237,103	797,122	-0,007	-0,013
-236,088	34,044	-0,046	0,029
-235,073	-101,279	-0,073	0,013
-234,059	800,000	0,013	0,038
-233,044	-200,000	0,011	0,119
-232,030	205,811	0,013	-0,015
-231,015	800,000	-0,033	-0,088
-230,000	800,000	-0,025	-0,064
-228,986	-200,000	0,010	0,037
-227,971	800,000	-0,036	0,077
-226,957	-184,257	0,110	-0,001
-225,942	-60,513	0,152	0,047
-224,927	800,000	-0,039	0,115
-223,913	258,495	0,065	-0,082
-222,898	-200,000	-0,001	0,053
-221,884	-10,274	-0,048	0,023
-220,869	20,971	-0,045	0,027
-219,855	-153,267	0,105	0,005
-218,840	-76,047	-0,043	0,011
-217,825	30,774	-0,033	0,021
-216,811	28,470	0,065	0,040
-215,796	-58,319	-0,122	-0,039
-214,782	50,650	0,067	-0,047
-213,767	-200,000	0,008	-0,050
-212,752	-35,712	0,023	-0,009
-211,738	-95,111	0,105	0,021
-210,723	168,687	0,032	-0,033
-209,709	31,276	0,055	-0,035
-208,694	215,258	0,069	0,079
-207,679	-89,436	-0,153	-0,033
-206,665	187,959	-0,100	0,109
-205,650	-7,469	0,198	0,097
-204,636	43,428	0,054	0,036
-203,621	-200,000	0,002	-0,039
-202,606	800,000	-0,013	0,040
-201,592	-98,003	-0,137	-0,026
-200,577	52,658	0,067	-0,046
-199,563	-200,000	-0,008	0,130
-198,548	-200,000	-0,000	0,097
-197,533	-200,000	-0,030	0,128
-196,519	800,000	-0,026	0,076
-195,504	-159,468	-0,171	-0,007
-194,490	800,000	-0,023	-0,074
-193,475	800,000	0,039	-0,085
-192,460	410,016	-0,059	-0,091
-191,446	52,814	-0,063	-0,044
-190,431	-200,000	0,004	0,158
-189,417	-200,000	0,000	0,034
-188,402	-17,379	0,141	-0,065
-187,387	-200,000	-0,020	-0,113
-186,373	95,476	-0,054	-0,045
-185,358	327,352	0,053	-0,074
-184,344	138,505	-0,034	0,032
-183,329	81,074	0,065	0,051
-182,315	-200,000	-0,021	-0,076
-181,300	-138,828	-0,146	-0,011
-180,285	-157,810	-0,135	-0,006
-179,271	-200,000	0,006	0,048
-178,256	708,037	0,084	-0,163
-177,242	616,637	-0,029	-0,053
-176,227	184,825	-0,058	0,062
-175,212	393,698	-0,014	-0,022
-174,198	4,512	0,076	0,040
-173,183	-200,000	0,031	-0,125
-172,169	-10,374	-0,065	0,031
-171,154	378,597	-0,041	-0,061
-170,139	-111,332	0,142	0,021
-169,125	63,136	0,063	-0,046
-168,110	-38,250	0,047	0,018
-167,096	-174,449	-0,054	-0,001
-166,081	-200,000	0,022	-0,102
-165,066	484,885	0,058	0,096
-164,052	-200,000	-0,018	-0,096
-163,037	160,027	0,074	-0,075
-162,023	-67,614	0,108	0,031
-161,008	-200,000	0,031	0,137
-159,993	159,995	0,063	-0,064
-158,979	1,469	-0,094	0,049
-157,964	465,414	-0,058	-0,095
-156,950	533,130	-0,029	-0,050
-155,935	526,326	-0,015	-0,025
-154,920	-200,000	0,060	0,206
-153,906	800,000	-0,039	0,085
-152,891	71,337	-0,107	0,081
-151,877	528,189	-0,088	-0,152
-150,862	40,678	0,112	-0,073
-149,847	-200,000	-0,003	-0,105
-148,833	-200,000	0,015	-0,086
-147,818	-200,000	-0,003	0,025
-146,804	-71,600	0,063	-0,017
-145,789	116,565	-0,054	0,048
-144,775	400,728	0,075	-0,115
-143,760	-200,000	-0,010	-0,091
-142,745	-137,940	0,081	0,006
-141,731	82,825	0,070	-0,055
-140,716	800,000	0,018	-0,054
-139,702	346,987	0,048	0,069
-138,687	800,000	-0,050	0,155
-137,672	-200,000	0,010	0,090
-136,658	88,097	-0,126	0,102
-135,643	-87,468	-0,127	-0,028
-134,629	-200,000	-0,026	-0,152
-133,614	-50,749	0,087	0,030
-132,599	-200,000	-0,004	0,071
-131,585	-80,703	-0,063	0,015
-130,570	-200,000	0,011	0,163
-129,556	-103,750	0,111	0,019
-128,541	800,000	0,022	-0,057
-127,526	205,798	-0,083	0,094
-126,512	-200,000	-0,007	0,063
-125,497	-95,919	-0,143	-0,028
-124,483	-17,887	0,097	0,044
-123,468	-63,884	-0,072	-0,021
-122,453	9,836	-0,053	0,029
-121,439	-200,000	-0,003	-0,128
-120,424	383,358	0,042	-0,062
-119,410	-200,000	-0,018	-0,124
-118,395	-0,126	0,011	0,006
-117,380	141,856	0,048	0,046
-116,366	-200,000	-0,005	0,083
-115,351	-52,442	0,071	-0,024
-114,337	13,753	-0,165	0,093
-113,322	800,000	0,045	0,122
-112,307	800,000	-0,035	-0,079
-111,293	-200,000	-0,061	0,203
-110,278	-200,000	-0,006	0,086
-109,264	-200,000	0,098	-0,000
-108,249	-200,000	-0,013	0,107
-107,234	-200,000	-0,024	0,119
-106,220	15,757	-0,074	-0,042
-105,205	-133,547	0,037	-0,003
-104,191	61,677	0,055	0,039
-103,176	-200,000	-0,012	0,078
-102,162	15,620	0,061	-0,035
-101,147	-130,513	-0,116	0,011
-100,132	67,525	-0,088	-0,065
-99,118	-200,000	-0,050	-0,170
-98,103	0,236	0,120	0,062
-97,089	227,695	-0,038	-0,045
-96,074	-200,000	-0,002	0,055
-95,059	51,221	-0,065	0,045
-94,045	-200,000	0,011	-0,082
-93,030	800,000	-0,018	0,039
-92,016	228,920	-0,139	-0,166
-91,001	109,332	0,135	0,117
-89,986	800,000	0,024	0,062
-88,972	-190,291	0,097	-0,001
-87,957	358,639	0,011	-0,016
-86,943	199,425	-0,062	-0,069
-85,928	280,563	-0,106	-0,138
-84,913	66,051	-0,017	0,012
-83,899	521,856	-0,052	-0,089
-82,884	-42,075	0,113	-0,042
-81,870	175,474	0,085	0,090
-80,855	-200,000	0,041	-0,134
-79,840	-200,000	0,006	-0,139
-78,826	96,268	0,016	-0,013
-77,811	44,708	0,108	0,072
-76,797	800,000	0,010	0,023
-75,782	-7,865	-0,043	-0,021
-74,767	-95,491	0,102	-0,020
-73,753	491,779	0,028	-0,047
-72,738	800,000	0,032	0,070
-71,724	800,000	0,019	-0,054
-70,709	411,325	-0,010	-0,015
-69,694	-200,000	0,022	0,139
-68,680	-27,858	0,068	-0,029
-67,665	800,000	0,048	0,102
-66,651	2,907	-0,129	-0,068
-65,636	49,789	0,092	0,063
-64,622	800,000	-0,106	-0,312
-63,607	95,439	0,090	0,074
-62,592	-16,458	-0,119	-0,055
-61,578	124,186	-0,010	0,009
-60,563	710,972	0,045	0,087
-59,549	800,000	-0,045	0,090
-58,534	-144,557	-1,302	-0,086
-57,519	671,907	-0,816	-1,541
-56,505	-200,000	-0,869	-4,334
-55,490	19,904	0,540	-0,315
-54,476	800,000	4,870	11,730
-53,461	-200,000	14,043	254,586
-52,446	-200,000	693,970	2263,199
-51,432	599,362	1624,327	2935,704
-50,417	117,735	1633,460	1458,729
-49,403	73,507	1287,434	976,816
-48,388	37,382	1023,749	656,917
-47,373	23,916	982,172	585,924
-46,359	23,163	971,423	577,017
-45,344	22,111	967,111	570,996
-44,330	22,044	965,674	569,907
-43,315	21,956	964,197	568,723
-42,300	21,982	963,078	568,128
-41,286	21,901	962,410	567,445
-40,271	21,939	961,272	566,878
-39,257	21,852	960,600	566,176
-38,242	21,863	959,445	565,507
-37,227	21,902	958,621	565,125
-36,213	21,864	957,807	564,502
-35,198	21,845	956,777	563,811
-34,184	21,969	956,260	563,883
-33,169	21,898	955,197	563,006
-32,154	21,967	954,259	562,653
-31,140	21,964	953,337	562,077
-30,125	21,956	952,739	561,674
-29,111	21,870	951,919	560,894
-28,096	21,913	951,226	560,602
-27,082	21,899	950,651	560,195
-26,067	21,939	949,678	559,728
-25,052	21,936	949,043	559,322
-24,038	21,913	948,337	558,811
-23,023	21,916	947,683	558,412
-22,009	21,961	946,991	558,125
-20,994	21,950	946,331	557,679
-19,979	21,892	945,873	557,202
-18,965	21,900	945,179	556,796
-17,950	21,894	944,530	556,374
-16,936	21,931	943,737	556,001
-15,921	21,881	943,213	555,512
-14,906	21,815	942,320	554,754
-13,892	21,780	941,951	554,402
-12,877	21,739	941,254	553,842
-11,863	21,740	940,468	553,360
-10,848	21,797	939,989	553,237
-9,833	21,911	939,607	553,353
-8,819	21,857	938,956	552,774
-7,804	21,820	938,289	552,245
-6,790	21,755	937,902	551,787
-5,775	21,830	937,166	551,571
-4,760	21,777	936,598	551,047
-3,746	21,745	936,087	550,623
-2,731	21,650	935,196	549,776
-1,717	21,611	934,418	549,173
-0,702	21,658	933,713	548,886
0,313	21,456	933,112	548,726
1,327	23,860	930,963	554,972
2,342	31,329	809,034	502,541
3,356	26,059	509,476	307,433
4,371	1,586	374,500	194,758
5,386	-1,390	357,642	182,310
6,400	-2,301	351,713	178,169
7,415	-2,703	349,158	176,374
8,429	-2,662	347,819	175,731
9,444	-2,530	346,744	175,331
10,459	-2,535	346,109	174,988
11,473	-2,664	345,479	174,500
12,488	-2,612	344,768	174,187
13,502	-2,643	344,199	173,848
14,517	-2,555	343,922	173,796
15,531	-2,534	343,297	173,489
16,546	-2,498	342,991	173,362
17,561	-2,484	342,610	173,170
18,575	-2,555	342,231	172,880
19,590	-2,450	341,610	172,675
20,604	-2,315	341,461	172,743
21,619	-2,506	341,075	172,307
22,634	-2,481	340,667	172,115
23,648	-2,464	340,257	171,913
24,663	-2,525	339,954	171,673
25,677	-2,588	339,821	171,516
26,692	-2,519	339,410	171,374
27,707	-2,469	339,211	171,317
28,721	-2,455	338,821	171,122
29,736	-2,411	338,403	170,946
30,750	-2,550	338,265	170,699
31,765	-2,532	337,922	170,533
32,780	-2,513	337,662	170,408
33,794	-2,356	337,277	170,380
34,809	-2,388	336,888	170,131
35,823	-2,481	336,628	169,877
36,838	-2,259	336,445	170,026
37,853	-2,532	336,263	169,604
38,867	-2,567	335,910	169,370
39,882	-2,577	335,827	169,302
40,896	-2,363	335,394	169,316
41,911	-2,381	335,122	169,142
42,926	-2,437	334,955	168,978
43,940	-2,405	334,529	168,785
44,955	-2,286	334,286	168,784
45,969	-2,381	334,152	168,592
46,984	-2,406	333,943	168,444
47,999	-2,490	333,675	168,197
49,013	-2,637	333,409	167,879
50,028	-2,549	333,096	167,808
51,042	-2,663	332,865	167,546
52,057	-2,538	332,468	167,473
53,071	-2,589	332,165	167,248
54,086	-2,485	331,813	167,174
55,101	-2,572	331,900	167,104
56,115	-2,421	331,420	167,020
57,130	-2,543	331,208	166,759
58,144	-2,441	330,951	166,730
59,159	-2,445	330,644	166,556
60,174	-2,474	330,353	166,362
61,188	-2,466	330,156	166,258
62,203	-2,351	330,117	166,354
63,217	-2,371	329,646	166,078
64,232	-2,473	329,367	165,808
65,247	-2,418	328,958	165,649
66,261	-2,531	328,907	165,481
67,276	-2,510	328,563	165,317
68,290	-2,295	328,220	165,372
69,305	-2,435	328,104	165,141
70,320	-2,397	327,804	165,017
71,334	-2,419	327,520	164,835
72,349	-2,531	327,330	164,600
73,363	-2,448	326,951	164,487
74,378	-2,526	326,863	164,341
75,393	-2,377	326,622	164,371
76,407	-2,497	326,399	164,110
77,422	-2,387	326,088	164,062
78,436	-2,521	325,873	163,790
79,451	-2,465	325,488	163,645
80,466	-2,500	325,151	163,421
81,480	-2,368	325,095	163,526
82,495	-2,450	324,751	163,247
83,509	-2,386	324,565	163,210
84,524	-2,348	324,381	163,145
85,539	-2,347	324,036	162,958
86,553	-2,389	323,940	162,849
87,568	-2,382	323,576	162,659
88,582	-2,422	323,262	162,443
89,597	-2,490	323,185	162,314
90,611	-2,480	322,960	162,198
91,626	-2,436	322,693	162,098
92,641	-2,348	322,433	162,049
93,655	-2,351	322,294	161,962
94,670	-2,549	322,031	161,597
95,684	-2,388	321,663	161,575
96,699	-2,554	321,509	161,301
97,714	-2,326	321,336	161,451
98,728	-2,480	321,103	161,151
99,743	-2,470	320,893	161,041
100,757	-2,361	320,548	160,973
101,772	-2,366	320,367	160,863
102,787	-2,475	320,183	160,636
103,801	-2,508	319,887	160,438
104,816	-2,443	319,537	160,319
105,830	-2,422	319,368	160,243
106,845	-2,264	319,030	160,231
107,860	-2,420	318,894	159,978
108,874	-2,414	318,667	159,857
109,889	-2,499	318,494	159,663
110,903	-2,547	318,181	159,440
111,918	-2,427	318,107	159,518
112,933	-2,406	317,792	159,369
113,947	-2,503	317,516	159,112
114,962	-2,604	317,412	158,935
115,976	-2,459	317,213	158,978
116,991	-2,424	316,864	158,828
118,006	-2,332	316,696	158,830
119,020	-2,559	316,664	158,554
120,035	-2,469	316,472	158,540
121,049	-2,478	316,286	158,424
122,064	-2,393	315,819	158,267
123,079	-2,433	315,558	158,080
124,093	-2,474	315,352	157,917
125,108	-2,487	315,192	157,809
126,122	-2,500	315,045	157,707
127,137	-2,465	314,677	157,547
128,151	-2,469	314,524	157,451
129,166	-2,376	314,217	157,384
130,181	-2,367	314,006	157,274
131,195	-2,513	313,699	156,950
132,210	-2,361	313,591	157,044
133,224	-2,253	313,155	156,928
134,239	-2,371	313,003	156,711
135,254	-2,479	312,924	156,543
136,268	-2,504	312,651	156,365
137,283	-2,501	312,391	156,225
138,297	-2,504	312,183	156,103
139,312	-2,631	311,890	155,808
140,327	-2,448	311,609	155,848
141,341	-2,345	311,573	155,926
142,356	-2,522	311,389	155,632
143,370	-2,365	311,013	155,596
144,385	-2,274	310,850	155,597
145,400	-2,424	310,859	155,429
146,414	-2,406	310,454	155,231
147,429	-2,399	310,207	155,101
148,443	-2,309	309,939	155,049
149,458	-2,334	309,841	154,960
150,473	-2,326	309,668	154,868
151,487	-2,388	309,380	154,644
152,502	-2,306	309,096	154,575
153,516	-2,258	309,004	154,565
154,531	-2,326	308,784	154,371
155,546	-2,300	308,481	154,233
156,560	-2,326	308,112	154,007
157,575	-2,433	308,058	153,854
158,589	-2,359	307,691	153,734
159,604	-2,265	307,663	153,805
160,619	-2,431	307,452	153,512
161,633	-2,269	307,180	153,532
162,648	-2,380	307,112	153,368
163,662	-2,384	306,794	153,192
164,677	-2,286	306,527	153,147
165,692	-2,386	306,438	152,985
166,706	-2,365	306,146	152,847
167,721	-2,267	306,100	152,912
168,735	-2,256	305,761	152,742
169,750	-2,319	305,650	152,606
170,764	-2,333	305,426	152,466
171,779	-2,346	305,227	152,340
172,794	-2,295	305,008	152,270
173,808	-2,431	304,920	152,072
174,823	-2,452	304,557	151,856
175,837	-2,440	304,227	151,690
176,852	-2,502	304,116	151,557
177,867	-2,392	304,141	151,669
178,881	-2,355	303,794	151,521
179,896	-2,505	303,676	151,294
180,910	-2,402	303,330	151,214
181,925	-2,588	303,284	150,986
182,940	-2,439	302,987	150,978
183,954	-2,360	302,852	150,979
184,969	-2,234	302,610	150,973
185,983	-2,340	302,415	150,755
186,998	-2,200	302,236	150,796
188,013	-2,458	302,089	150,444
189,027	-2,416	301,792	150,326
190,042	-2,364	301,504	150,222
191,056	-2,391	301,355	150,107
192,071	-2,438	301,088	149,912
193,086	-2,305	300,949	149,966
194,100	-2,309	300,658	149,803
195,115	-2,189	300,355	149,761
196,129	-2,407	300,267	149,481
197,144	-2,321	300,048	149,447
198,159	-2,408	299,783	149,213
199,173	-2,485	299,586	149,024
200,188	-2,394	299,371	148,995
201,202	-2,582	299,307	148,760
202,217	-2,426	299,056	148,780
203,232	-2,345	298,818	148,730
204,246	-2,413	298,559	148,520
205,261	-2,343	298,383	148,489
206,275	-2,407	298,200	148,321
207,290	-2,390	298,036	148,243
208,304	-2,224	297,874	148,316
209,319	-2,359	297,652	148,056
210,334	-2,356	297,384	147,913
211,348	-2,287	297,096	147,826
212,363	-2,315	297,047	147,760
213,377	-2,181	296,835	147,776
214,392	-2,271	296,687	147,599
215,407	-2,190	296,359	147,504
216,421	-2,337	296,269	147,299
217,436	-2,307	296,013	147,189
218,450	-2,554	295,917	146,880
219,465	-2,415	295,619	146,859
220,480	-2,411	295,582	146,831
221,494	-2,253	295,243	146,807
222,509	-2,215	295,065	146,743
223,523	-2,314	294,954	146,576
224,538	-2,345	294,805	146,459
225,553	-2,307	294,564	146,363
226,567	-2,314	294,399	146,261
227,582	-2,189	293,977	146,163
228,596	-2,237	293,824	146,026
229,611	-2,209	293,738	145,998
230,626	-2,375	293,517	145,711
231,640	-2,341	293,231	145,589
232,655	-2,453	293,107	145,404
233,669	-2,586	292,980	145,196
234,684	-2,296	292,771	145,366
235,699	-2,285	292,552	145,256
236,713	-2,270	292,322	145,143
237,728	-2,307	292,137	145,003
238,742	-2,318	291,951	144,885
239,757	-2,357	291,775	144,747
240,772	-2,300	291,585	144,696
241,786	-2,460	291,467	144,467
242,801	-2,197	291,228	144,594
243,815	-2,462	291,149	144,281
244,830	-2,328	290,812	144,234
245,844	-2,314	290,511	144,086
246,859	-2,498	290,422	143,848
247,874	-2,408	290,196	143,811
248,888	-2,307	290,098	143,849
249,903	-2,350	289,903	143,698
250,917	-2,477	289,725	143,472
251,932	-2,383	289,476	143,428
252,947	-2,549	289,159	143,096
253,961	-2,861	288,933	142,667
254,976	-3,088	288,651	142,294
255,990	-3,203	288,292	141,993
257,005	-2,567	288,492	142,697
258,020	-0,417	289,226	145,143
259,034	1,207	289,555	146,878
260,049	1,709	289,719	147,437
261,063	2,002	289,724	147,713
262,078	2,406	289,472	147,964
263,093	2,538	289,558	148,123
264,107	2,819	289,487	148,346
265,122	3,126	289,345	148,559
266,136	3,061	289,138	148,377
267,151	3,175	288,990	148,398
268,166	3,201	288,852	148,339
269,180	3,148	288,619	148,154
270,195	3,195	288,460	148,105
271,209	3,172	288,192	147,932
272,224	2,948	288,083	147,646
273,239	2,915	287,819	147,465
274,253	2,912	287,612	147,344
275,268	2,876	287,330	147,152
276,282	2,734	287,215	146,942
277,297	3,015	286,869	147,023
278,312	3,177	286,875	147,168
279,326	2,790	286,690	146,689
280,341	2,894	286,483	146,670
281,355	2,939	286,203	146,557
282,370	2,921	286,106	146,476
283,384	2,799	285,922	146,253
284,399	2,940	285,749	146,285
285,414	2,807	285,607	146,072
286,428	2,868	285,200	145,909
287,443	2,795	285,229	145,842
288,457	2,699	285,138	145,691
289,472	2,747	284,630	145,464
290,487	2,803	284,422	145,397
291,501	2,694	284,331	145,234
292,516	2,679	284,103	145,091
293,530	2,535	284,104	144,941
294,545	2,719	283,805	144,951
295,560	2,697	283,622	144,824
296,574	2,673	283,315	144,631
297,589	2,558	283,143	144,421
298,603	2,476	282,998	144,257
299,618	2,843	282,811	144,496
300,633	2,620	282,721	144,226
301,647	2,691	282,547	144,191
302,662	2,617	282,409	144,039
303,676	2,792	282,304	144,138
304,691	2,995	282,074	144,198
305,706	2,900	281,952	144,033
306,720	2,932	281,764	143,955
307,735	3,053	281,638	143,992
308,749	3,004	281,300	143,760
309,764	3,021	281,148	143,685
310,779	2,921	280,931	143,468
311,793	3,040	280,664	143,430
312,808	2,820	280,628	143,193
313,822	2,791	280,469	143,072
314,837	2,775	280,236	142,926
315,852	2,789	280,004	142,807
316,866	2,941	279,913	142,890
317,881	2,845	279,700	142,679
318,895	2,825	279,420	142,505
319,910	2,821	279,268	142,411
320,925	2,912	279,149	142,423
321,939	2,716	279,065	142,185
322,954	2,890	278,782	142,189
323,968	2,955	278,654	142,172
324,983	3,133	278,428	142,209
325,997	3,067	278,328	142,084
327,012	2,850	278,193	141,801
328,027	3,125	277,913	141,900
329,041	3,199	277,822	141,910
330,056	3,060	277,577	141,644
331,070	3,068	277,418	141,557
332,085	2,867	277,229	141,262
333,100	2,978	277,041	141,256
334,114	3,081	276,880	141,257
335,129	2,984	276,718	141,072
336,143	2,823	276,581	140,841
337,158	3,052	276,456	140,977
338,173	2,866	276,266	140,695
339,187	3,124	276,016	140,793
340,202	3,071	275,728	140,585
341,216	2,979	275,603	140,424
342,231	3,085	275,478	140,445
343,246	2,864	275,303	140,140
344,260	2,958	275,138	140,131
345,275	2,981	275,058	140,098
346,289	3,065	274,759	140,010
347,304	3,073	274,597	139,923
348,319	3,073	274,370	139,794
349,333	3,013	274,131	139,605
350,348	2,841	274,263	139,503
351,362	3,064	273,870	139,495
352,377	3,060	273,777	139,431
353,392	3,011	273,496	139,230
354,406	3,151	273,283	139,237
355,421	191,381	1350,155	1430,294
356,435	154,517	1481,465	1430,430
