DTS Sentinel unit serial number:	SN410029Multiplexer serial number:	ORYXHardware model number:	OX2-SRSoftware version number:	ORYX F/W v4,00 Oryx Data Collector v3.7.2.0data status	okinstallation	B4 Nyhavnadifferential loss correction	single-endedforward channel	channel 2reverse channel	N/Adate	2023/12/15time	16:40:13forward acquisition time	300,00reverse acquisition time	0,00gamma	499,1914k internal	0,3144k external	0,3144temperature offset calibration	1,0000default loss term (dB/km)	0,3820temperature slope calibration	1,0000multiplexer offset coefficient	1,0000multiplexer slope coefficient	1,0000fibre end	0,00T internal ref (°C)	17,66T ext. ref 1 (°C)	3,54T ext. ref 2 (°C)	3,69length (m)	temperature (°C)	Stokes	anti-Stokes-744,400	532,178	-0,057	0,100
-743,385	101,847	-0,131	0,113
-742,371	-200,000	0,007	0,128
-741,356	-100,412	-0,124	0,022
-740,342	-200,000	-0,004	-0,058
-739,327	213,196	-0,109	0,127
-738,312	800,000	-0,030	-0,084
-737,298	-69,245	-0,258	-0,073
-736,283	-21,461	0,088	-0,040
-735,269	-113,904	-0,182	0,026
-734,254	193,081	-0,078	0,087
-733,239	-62,730	-0,380	-0,116
-732,225	-138,953	0,215	-0,017
-731,210	-200,000	-0,016	0,096
-730,196	-200,000	0,000	-0,100
-729,181	-200,000	0,011	-0,049
-728,167	-200,000	-0,019	0,079
-727,152	-200,000	0,006	0,061
-726,137	405,588	-0,023	-0,036
-725,123	-200,000	-0,034	-0,123
-724,108	800,000	-0,086	-0,191
-723,094	-57,812	-0,123	-0,039
-722,079	234,768	-0,132	-0,161
-721,064	-35,616	0,038	-0,015
-720,050	432,240	0,107	0,172
-719,035	-200,000	0,012	0,044
-718,021	800,000	0,043	-0,134
-717,006	-200,000	-0,036	-0,141
-715,991	719,446	-0,066	-0,130
-714,977	800,000	-0,040	-0,118
-713,962	399,112	0,067	-0,104
-712,948	-200,000	-0,001	-0,057
-711,933	800,000	-0,048	0,147
-710,918	-200,000	0,002	0,101
-709,904	-200,000	0,034	-0,112
-708,889	800,000	-0,050	-0,136
-707,875	520,344	-0,070	-0,122
-706,860	133,721	-0,045	0,043
-705,845	-200,000	0,002	0,085
-704,831	-200,000	-0,015	-0,187
-703,816	100,044	0,094	-0,081
-702,802	-102,849	0,042	0,007
-701,787	-45,680	-0,026	-0,009
-700,772	-167,527	-0,030	-0,001
-699,758	-63,309	0,047	0,014
-698,743	224,347	0,031	0,037
-697,729	411,381	-0,023	-0,037
-696,714	-200,000	-0,003	-0,012
-695,699	-200,000	-0,006	-0,041
-694,685	800,000	-0,044	-0,131
-693,670	-71,624	-0,102	-0,028
-692,656	-187,447	-0,045	-0,000
-691,641	116,380	0,060	0,054
-690,627	-200,000	0,016	-0,139
-689,612	-134,419	0,185	-0,016
-688,597	249,964	0,082	-0,103
-687,583	96,997	-0,067	-0,057
-686,568	80,289	0,013	-0,010
-685,554	367,374	-0,070	-0,105
-684,539	-200,000	0,012	0,151
-683,524	-26,846	-0,032	0,014
-682,510	-16,006	0,039	-0,018
-681,495	94,871	0,046	-0,038
-680,481	-37,345	-0,119	0,047
-679,466	-84,516	-0,071	-0,016
-678,451	33,235	-0,074	-0,047
-677,437	33,880	0,053	0,034
-676,422	-24,870	0,042	-0,018
-675,408	-200,000	0,003	-0,014
-674,393	118,780	-0,075	0,068
-673,378	-94,610	-0,161	0,032
-672,364	-78,767	-0,042	-0,010
-671,349	-165,020	-0,126	-0,004
-670,335	175,638	-0,032	-0,034
-669,320	-142,538	-0,113	-0,008
-668,305	800,000	-0,057	0,144
-667,291	-135,734	-0,064	-0,005
-666,276	-178,174	0,171	-0,003
-665,262	302,463	-0,101	-0,138
-664,247	-7,048	-0,152	-0,076
-663,232	-200,000	0,008	-0,059
-662,218	-89,085	0,100	0,022
-661,203	21,087	0,168	-0,100
-660,189	184,265	-0,079	-0,087
-659,174	-152,767	-0,053	0,003
-658,159	800,000	-0,065	-0,162
-657,145	92,181	-0,081	-0,067
-656,130	-200,000	-0,003	-0,030
-655,116	-60,817	0,069	-0,022
-654,101	-79,537	0,128	0,032
-653,086	-45,066	-0,104	0,038
-652,072	-42,311	-0,093	-0,035
-651,057	-200,000	-0,016	-0,074
-650,043	474,483	-0,048	-0,081
-649,028	-200,000	-0,019	-0,139
-648,014	132,927	0,068	-0,065
-646,999	800,000	0,048	0,122
-645,984	-107,557	0,094	0,015
-644,970	-104,293	-0,114	0,019
-643,955	-200,000	0,009	-0,076
-642,941	-200,000	-0,034	-0,114
-641,926	-200,000	0,012	0,103
-640,911	-88,601	0,111	-0,024
-639,897	72,910	0,033	0,026
-638,882	-173,904	0,088	0,002
-637,868	-67,017	-0,084	-0,024
-636,853	800,000	-0,095	-0,232
-635,838	60,283	-0,035	-0,025
-634,824	561,973	-0,034	0,062
-633,809	-200,000	-0,016	-0,104
-632,795	44,686	0,061	-0,042
-631,780	800,000	-0,013	0,036
-630,765	-71,425	-0,079	-0,022
-629,751	401,917	-0,037	0,058
-628,736	-29,544	0,100	-0,042
-627,722	44,058	-0,147	-0,099
-626,707	-200,000	0,004	-0,127
-625,692	748,701	-0,058	-0,116
-624,678	156,906	-0,088	0,090
-623,663	154,696	0,049	-0,050
-622,649	-17,314	0,102	0,047
-621,634	-145,515	-0,048	-0,003
-620,619	-200,000	-0,008	-0,067
-619,605	81,450	0,033	0,026
-618,590	-200,000	0,013	-0,071
-617,576	-83,993	-0,070	0,016
-616,561	-69,620	-0,040	-0,011
-615,546	-35,909	-0,123	-0,049
-614,532	-32,089	-0,081	-0,033
-613,517	138,800	0,068	0,066
-612,503	51,313	0,032	-0,022
-611,488	-11,091	0,061	0,029
-610,474	133,603	0,064	-0,061
-609,459	251,764	0,080	0,101
-608,444	4,171	-0,187	-0,101
-607,430	179,947	-0,077	0,083
-606,415	-90,473	0,145	-0,031
-605,401	53,708	0,130	0,092
-604,386	131,672	-0,121	-0,114
-603,371	242,108	-0,067	0,082
-602,357	143,727	-0,078	0,076
-601,342	130,035	-0,021	-0,019
-600,328	-200,000	-0,011	-0,055
-599,313	466,891	-0,045	0,075
-598,298	-76,732	-0,119	-0,031
-597,284	-142,974	0,060	-0,004
-596,269	-14,047	0,123	0,058
-595,255	-200,000	-0,005	0,024
-594,240	800,000	-0,054	0,112
-593,225	19,915	-0,124	0,074
-592,211	-200,000	0,007	-0,092
-591,196	26,437	0,088	-0,054
-590,182	-101,684	-0,045	0,008
-589,167	-200,000	0,005	-0,162
-588,152	192,497	0,050	-0,056
-587,138	-200,000	-0,016	-0,108
-586,123	-106,344	-0,135	0,022
-585,109	158,422	-0,109	0,112
-584,094	-75,603	-0,038	-0,010
-583,079	-120,916	0,026	-0,003
-582,065	334,376	0,044	-0,063
-581,050	-200,000	0,033	0,187
-580,036	404,961	-0,032	-0,050
-579,021	189,065	0,016	-0,017
-578,006	-200,000	0,047	-0,180
-576,992	-200,000	0,019	0,134
-575,977	800,000	0,053	0,169
-574,963	800,000	-0,037	0,111
-573,948	-200,000	0,034	0,136
-572,934	7,797	0,116	0,064
-571,919	-127,491	-0,104	-0,011
-570,904	121,849	-0,096	-0,088
-569,890	519,904	0,019	0,034
-568,875	-200,000	0,022	0,109
-567,861	177,084	0,077	0,082
-566,846	757,526	-0,046	-0,092
-565,831	-114,667	-0,102	0,014
-564,817	-139,036	0,028	0,002
-563,802	-128,536	-0,097	-0,010
-562,788	3,757	0,134	-0,072
-561,773	-56,189	-0,098	-0,032
-560,758	800,000	-0,049	0,147
-559,744	125,464	-0,067	-0,062
-558,729	-16,686	0,158	0,073
-557,715	-0,587	-0,016	0,009
-556,700	800,000	-0,032	-0,073
-555,685	199,708	-0,035	0,039
-554,671	234,207	-0,017	-0,020
-553,656	800,000	-0,044	-0,114
-552,642	374,302	-0,011	0,017
-551,627	-8,835	0,070	0,034
-550,612	-3,017	0,038	-0,020
-549,598	800,000	0,058	-0,162
-548,583	-163,113	0,165	0,006
-547,569	-107,047	0,026	0,004
-546,554	211,448	-0,034	0,040
-545,539	347,270	0,096	0,140
-544,525	271,357	-0,046	-0,060
-543,510	109,940	-0,093	-0,082
-542,496	497,482	-0,058	-0,099
-541,481	591,997	0,007	0,013
-540,466	800,000	0,020	-0,065
-539,452	-200,000	0,012	0,109
-538,437	92,038	0,202	0,167
-537,423	-200,000	-0,103	-0,000
-536,408	128,274	-0,048	-0,045
-535,393	51,712	0,116	-0,081
-534,379	341,600	-0,047	-0,068
-533,364	85,229	0,010	0,008
-532,350	-200,000	0,023	-0,099
-531,335	25,146	-0,040	-0,024
-530,321	-28,766	-0,062	-0,026
-529,306	-26,829	-0,140	-0,060
-528,291	-81,808	-0,114	-0,027
-527,277	434,720	-0,039	0,062
-526,262	15,563	-0,083	0,048
-525,248	-70,058	0,146	-0,040
-524,233	800,000	0,014	-0,043
-523,218	-40,157	0,179	0,068
-522,204	-48,035	0,070	0,025
-521,189	-4,666	-0,055	-0,028
-520,175	-200,000	-0,038	-0,153
-519,160	568,359	0,029	-0,052
-518,145	-51,623	0,056	0,019
-517,131	-72,883	-0,147	-0,039
-516,116	800,000	0,029	0,074
-515,102	800,000	0,057	-0,155
-514,087	-200,000	-0,004	-0,110
-513,072	-113,182	-0,060	0,009
-512,058	-24,170	0,119	0,052
-511,043	14,965	0,079	0,045
-510,029	-70,144	-0,177	0,049
-509,014	-100,530	-0,037	-0,007
-507,999	800,000	-0,036	-0,115
-506,985	291,807	-0,083	-0,111
-505,970	401,907	0,053	-0,081
-504,956	800,000	-0,026	-0,074
-503,941	-114,208	0,084	-0,012
-502,926	-111,628	0,075	0,011
-501,912	-45,898	0,097	0,035
-500,897	-200,000	0,030	0,170
-499,883	63,180	-0,059	-0,043
-498,868	-200,000	0,002	-0,022
-497,853	-200,000	-0,005	0,078
-496,839	182,801	-0,039	0,042
-495,824	-103,915	-0,082	-0,014
-494,810	-127,785	0,052	0,005
-493,795	9,005	-0,115	0,063
-492,781	119,112	0,037	-0,033
-491,766	495,805	-0,032	-0,055
-490,751	-126,297	-0,116	-0,012
-489,737	189,472	0,042	0,046
-488,722	-200,000	0,014	-0,072
-487,708	544,895	-0,011	-0,019
-486,693	800,000	-0,038	0,086
-485,678	-40,991	-0,060	0,022
-484,664	472,971	0,042	0,069
-483,649	-200,000	-0,001	0,008
-482,635	-134,495	0,084	-0,007
-481,620	350,353	-0,071	-0,103
-480,605	47,839	0,128	0,088
-479,591	180,154	0,073	0,078
-478,576	-57,423	0,054	-0,017
-477,562	66,863	-0,090	-0,067
-476,547	800,000	-0,046	-0,099
-475,532	-27,079	-0,111	0,047
-474,518	800,000	-0,013	0,029
-473,503	-139,945	0,060	0,005
-472,489	8,472	-0,092	0,050
-471,474	364,485	-0,082	-0,121
-470,459	-16,588	0,137	0,063
-469,445	59,230	-0,067	-0,048
-468,430	-200,000	-0,029	0,172
-467,416	24,091	-0,030	0,018
-466,401	314,727	0,078	0,107
-465,386	-5,429	0,148	-0,074
-464,372	21,845	0,069	-0,041
-463,357	114,816	-0,074	-0,066
-462,343	203,179	0,039	0,044
-461,328	-200,000	0,010	0,044
-460,313	-200,000	0,007	0,126
-459,299	-113,247	0,121	0,017
-458,284	397,269	-0,028	0,042
-457,270	800,000	-0,030	-0,093
-456,255	124,269	0,123	0,113
-455,241	-200,000	-0,030	-0,123
-454,226	-97,663	-0,085	0,016
-453,211	-200,000	0,018	-0,090
-452,197	698,662	0,024	0,046
-451,182	513,399	0,019	0,033
-450,168	-62,006	-0,077	0,023
-449,153	51,281	0,089	0,062
-448,138	-102,357	-0,106	0,018
-447,124	-200,000	-0,040	-0,156
-446,109	-122,044	0,146	-0,017
-445,095	800,000	-0,014	0,041
-444,080	-121,986	0,045	0,005
-443,065	751,433	-0,056	0,111
-442,051	800,000	0,030	-0,084
-441,036	787,148	0,049	-0,099
-440,022	671,812	0,061	0,116
-439,007	65,505	0,095	0,070
-437,992	-92,355	-0,025	0,005
-436,978	-10,692	0,187	0,090
-435,963	66,051	0,017	0,012
-434,949	-159,517	0,033	0,001
-433,934	-200,000	-0,012	-0,081
-432,919	-151,970	0,189	0,010
-431,905	-200,000	0,008	0,030
-430,890	395,471	-0,081	-0,125
-429,876	55,217	0,046	-0,032
-428,861	157,560	0,073	-0,074
-427,846	47,601	-0,010	-0,007
-426,832	800,000	0,022	0,053
-425,817	395,645	-0,025	0,038
-424,803	265,169	-0,047	-0,060
-423,788	-63,766	-0,052	0,015
-422,773	107,798	-0,064	0,056
-421,759	231,552	0,017	0,021
-420,744	129,788	0,058	0,055
-419,730	41,925	-0,121	-0,080
-418,715	-11,362	0,016	-0,008
-417,701	700,106	0,012	-0,022
-416,686	-114,100	0,141	-0,020
-415,671	800,000	-0,010	-0,021
-414,657	-200,000	-0,015	0,066
-413,642	-141,457	0,232	0,017
-412,628	429,222	-0,041	0,064
-411,613	335,271	-0,077	0,109
-410,598	-59,706	0,039	-0,012
-409,584	-200,000	0,024	0,103
-408,569	5,883	0,066	0,036
-407,555	236,222	0,057	0,069
-406,540	-62,435	-0,057	-0,017
-405,525	-200,000	-0,002	-0,012
-404,511	800,000	-0,044	0,136
-403,496	-200,000	-0,005	-0,077
-402,482	-200,000	-0,017	-0,132
-401,467	800,000	0,027	0,069
-400,452	-200,000	-0,026	0,235
-399,438	275,617	-0,060	-0,078
-398,423	-200,000	-0,013	0,163
-397,409	471,690	0,044	-0,072
-396,394	-70,089	-0,098	0,027
-395,379	-67,831	-0,085	0,024
-394,365	-200,000	0,023	-0,078
-393,350	-46,175	0,131	0,047
-392,336	456,826	0,032	-0,052
-391,321	-82,127	-0,039	-0,009
-390,306	-200,000	-0,018	-0,073
-389,292	-10,721	0,069	-0,033
-388,277	-31,043	-0,128	-0,052
-387,263	349,944	0,081	0,117
-386,248	800,000	0,068	0,214
-385,233	-135,812	-0,118	0,010
-384,219	-92,735	-0,043	0,009
-383,204	-190,165	-0,092	-0,001
-382,190	85,901	-0,145	-0,117
-381,175	-200,000	0,003	-0,101
-380,160	-200,000	0,006	-0,021
-379,146	-171,482	0,042	0,001
-378,131	-46,919	-0,106	-0,038
-377,117	800,000	0,028	-0,087
-376,102	-200,000	0,027	0,092
-375,088	-21,857	-0,022	0,010
-374,073	445,807	0,056	0,091
-373,058	48,272	-0,035	0,024
-372,044	176,630	0,096	0,102
-371,029	424,779	0,058	-0,091
-370,015	-200,000	0,002	0,047
-369,000	62,877	-0,094	-0,069
-367,985	172,506	-0,051	-0,054
-366,971	-200,000	0,002	-0,026
-365,956	-31,822	-0,067	-0,027
-364,942	-200,000	0,005	0,149
-363,927	-200,000	0,023	0,084
-362,912	-86,455	0,141	-0,031
-361,898	470,533	-0,105	-0,174
-360,883	-200,000	0,009	-0,079
-359,869	-200,000	-0,001	-0,113
-358,854	-7,457	0,100	0,049
-357,839	800,000	0,041	-0,102
-356,825	354,212	0,094	0,137
-355,810	-35,949	-0,054	0,021
-354,796	-200,000	0,002	-0,008
-353,781	-86,001	0,034	-0,008
-352,766	-100,373	0,042	0,008
-351,752	205,817	-0,073	0,083
-350,737	-200,000	0,006	0,175
-349,723	-5,140	0,023	-0,011
-348,708	75,381	-0,103	0,079
-347,693	446,513	0,063	0,101
-346,679	267,190	-0,100	-0,127
-345,664	800,000	0,027	-0,073
-344,650	0,304	0,096	0,050
-343,635	118,277	-0,041	-0,036
-342,620	-13,357	-0,047	0,022
-341,606	336,668	0,050	0,071
-340,591	-19,756	0,094	-0,042
-339,577	712,760	-0,041	-0,079
-338,562	800,000	-0,030	-0,072
-337,548	-14,892	-0,080	0,037
-336,533	800,000	-0,017	0,044
-335,518	-33,459	0,046	-0,018
-334,504	800,000	-0,019	0,046
-333,489	-98,624	-0,132	-0,024
-332,475	64,777	-0,039	-0,029
-331,460	-40,529	-0,022	-0,008
-330,445	65,679	-0,031	-0,023
-329,431	-174,267	-0,110	-0,002
-328,416	448,142	0,058	0,093
-327,402	46,238	-0,076	0,051
-326,387	-73,189	-0,070	0,018
-325,372	55,848	-0,078	-0,055
-324,358	-200,000	-0,001	-0,028
-323,343	249,148	-0,030	-0,037
-322,329	68,793	-0,066	-0,049
-321,314	-200,000	-0,004	0,088
-320,299	-96,434	0,079	0,015
-319,285	21,586	0,032	-0,019
-318,270	152,441	-0,059	-0,059
-317,256	-142,517	-0,095	0,007
-316,241	-200,000	0,009	0,030
-315,226	-200,000	0,020	-0,101
-314,212	-45,221	0,020	-0,007
-313,197	-200,000	0,000	0,048
-312,183	-200,000	0,000	0,204
-311,168	304,729	-0,030	0,041
-310,153	308,000	0,028	-0,039
-309,139	158,999	-0,061	-0,062
-308,124	318,258	0,045	-0,062
-307,110	-89,533	0,083	0,018
-306,095	9,089	-0,093	-0,051
-305,080	800,000	0,037	0,098
-304,066	682,789	0,044	-0,084
-303,051	661,061	0,038	0,071
-302,037	14,134	-0,058	0,033
-301,022	-30,481	-0,071	-0,029
-300,008	115,327	-0,075	0,067
-298,993	127,592	-0,139	-0,128
-297,978	-59,059	0,114	-0,035
-296,964	364,514	-0,032	-0,047
-295,949	800,000	-0,026	-0,084
-294,935	-7,124	0,033	0,016
-293,920	-200,000	-0,007	0,067
-292,905	-173,547	0,061	0,001
-291,891	-200,000	0,035	0,192
-290,876	53,699	0,056	0,039
-289,862	-200,000	0,000	0,006
-288,847	144,764	-0,079	0,076
-287,832	137,055	-0,062	0,059
-286,818	461,114	-0,036	-0,059
-285,803	-200,000	0,002	-0,012
-284,789	695,452	-0,031	-0,060
-283,774	800,000	-0,017	0,047
-282,759	-169,884	0,114	0,003
-281,745	788,942	-0,045	-0,090
-280,730	248,947	0,144	-0,177
-279,716	124,846	0,060	-0,055
-278,701	97,375	0,047	0,039
-277,686	267,093	0,067	0,085
-276,672	-76,103	0,100	-0,025
-275,657	-6,733	0,045	0,022
-274,643	800,000	0,029	0,070
-273,628	-111,348	-0,137	-0,020
-272,613	-200,000	0,008	-0,093
-271,599	-200,000	-0,028	0,106
-270,584	66,745	0,123	0,091
-269,570	-16,544	0,013	-0,006
-268,555	44,875	-0,101	0,067
-267,540	277,671	0,072	-0,093
-266,526	-120,958	-0,069	0,008
-265,511	126,361	0,081	0,074
-264,497	93,201	0,063	0,052
-263,482	362,509	0,065	-0,096
-262,467	189,219	0,042	-0,046
-261,453	-200,000	-0,012	-0,104
-260,438	12,826	-0,037	0,021
-259,424	87,698	0,080	-0,064
-258,409	-89,717	0,102	-0,021
-257,395	-200,000	-0,001	-0,114
-256,380	519,544	0,034	-0,058
-255,365	-107,454	-0,126	0,020
-254,351	201,280	0,070	0,079
-253,336	8,653	-0,080	0,043
-252,322	800,000	0,064	0,184
-251,307	66,804	0,067	-0,049
-250,292	-27,291	0,111	0,047
-249,278	445,167	0,037	0,059
-248,263	-200,000	-0,018	0,080
-247,249	152,050	-0,124	0,123
-246,234	137,157	-0,062	-0,059
-245,219	100,610	-0,047	-0,040
-244,205	69,526	0,087	0,065
-243,190	179,415	0,052	0,055
-242,176	-200,000	-0,015	-0,110
-241,161	-200,000	-0,027	0,161
-240,146	-200,000	-0,004	0,284
-239,132	800,000	-0,065	0,139
-238,117	358,779	-0,067	-0,097
-237,103	800,000	-0,031	-0,065
-236,088	153,907	-0,075	-0,075
-235,073	-129,761	-0,086	-0,009
-234,059	1,076	0,065	0,034
-233,044	800,000	0,047	0,098
-232,030	800,000	-0,016	0,042
-231,015	-200,000	-0,014	-0,080
-230,000	739,451	-0,048	-0,093
-228,986	-108,326	0,039	-0,006
-227,971	-33,605	-0,049	-0,020
-226,957	-200,000	0,034	-0,193
-225,942	-29,136	0,105	-0,044
-224,927	254,657	-0,089	-0,111
-223,913	-200,000	0,029	-0,109
-222,898	134,988	-0,071	-0,067
-221,884	-184,127	0,110	-0,001
-220,869	-200,000	-0,007	-0,119
-219,855	28,487	-0,018	0,011
-218,840	-200,000	0,033	0,211
-217,825	126,811	0,031	0,028
-216,811	191,670	-0,136	0,149
-215,796	-104,954	-0,062	-0,010
-214,782	-70,464	-0,109	0,030
-213,767	-126,356	-0,103	-0,011
-212,752	-200,000	-0,004	0,098
-211,738	-200,000	0,001	0,029
-210,723	247,550	-0,106	0,130
-209,709	19,044	0,036	-0,021
-208,694	-200,000	0,009	-0,064
-207,679	597,730	-0,049	-0,089
-206,665	9,561	0,135	-0,074
-205,650	-87,776	0,151	0,033
-204,636	-14,037	0,124	0,058
-203,621	-200,000	0,001	-0,091
-202,606	-200,000	-0,018	-0,120
-201,592	-67,064	-0,059	0,017
-200,577	-39,172	0,083	-0,031
-199,563	800,000	-0,060	-0,123
-198,548	-200,000	0,029	-0,132
-197,533	-17,030	0,104	0,047
-196,519	18,754	0,088	-0,051
-195,504	86,795	-0,037	-0,029
-194,490	316,451	-0,016	0,021
-193,475	-1,003	-0,177	0,090
-192,460	-99,717	0,051	0,009
-191,446	-200,000	0,038	-0,157
-190,431	-200,000	0,021	0,073
-189,417	-200,000	-0,001	0,162
-188,402	800,000	-0,018	0,039
-187,387	-200,000	-0,000	0,065
-186,373	-8,857	0,070	0,034
-185,358	41,198	-0,046	0,030
-184,344	123,469	0,059	-0,053
-183,329	-88,258	0,107	0,023
-182,315	-84,314	-0,050	-0,011
-181,300	-140,453	0,039	-0,003
-180,285	8,010	-0,107	-0,058
-179,271	345,128	-0,050	-0,071
-178,256	-200,000	0,009	0,036
-177,242	81,632	0,043	-0,034
-176,227	165,413	-0,035	0,035
-175,212	-200,000	-0,007	-0,067
-174,198	-200,000	-0,029	0,099
-173,183	-200,000	-0,030	-0,153
-172,169	-74,181	0,074	0,019
-171,154	173,304	-0,051	-0,053
-170,139	-87,976	-0,014	-0,003
-169,125	-200,000	0,019	0,177
-168,110	14,996	-0,100	0,057
-167,096	-200,000	0,006	-0,031
-166,081	305,065	0,017	0,023
-165,066	-40,396	0,017	0,006
-164,052	431,195	0,043	-0,067
-163,037	-8,924	0,051	-0,025
-162,023	-200,000	0,033	-0,139
-161,008	73,016	-0,094	0,071
-159,993	-200,000	0,008	-0,090
-158,979	-200,000	-0,009	0,143
-157,964	155,361	0,056	-0,056
-156,950	42,311	-0,003	-0,002
-155,935	-152,808	-0,023	-0,001
-154,920	-200,000	0,010	-0,070
-153,906	694,489	0,019	0,037
-152,891	-1,143	0,155	0,079
-151,877	-100,094	0,144	-0,026
-150,862	193,156	-0,073	-0,080
-149,847	-111,897	-0,052	-0,008
-148,833	800,000	0,051	0,106
-147,818	-94,428	0,146	0,029
-146,804	-111,553	-0,101	-0,015
-145,789	-46,129	0,149	-0,053
-144,775	-58,611	-0,095	0,029
-143,760	55,250	-0,054	-0,037
-142,745	-50,055	0,053	-0,018
-141,731	17,234	-0,054	0,031
-140,716	45,528	0,074	-0,049
-139,702	-200,000	-0,015	-0,108
-138,687	29,987	0,121	0,075
-137,672	261,569	0,018	-0,023
-136,658	800,000	-0,084	-0,248
-135,643	493,556	0,028	0,047
-134,629	800,000	0,026	0,072
-133,614	73,053	-0,060	0,045
-132,599	-0,827	-0,032	0,016
-131,585	-37,451	-0,113	0,044
-130,570	800,000	0,051	0,106
-129,556	437,579	0,043	0,068
-128,541	-170,569	-0,101	-0,002
-127,526	-111,471	-0,042	0,006
-126,512	-200,000	-0,007	-0,026
-125,497	-26,532	0,141	-0,059
-124,483	22,206	0,092	-0,054
-123,468	-120,563	-0,070	0,008
-122,453	-16,657	0,113	-0,052
-121,439	712,234	0,020	-0,038
-120,424	-22,991	-0,069	-0,030
-119,410	-200,000	0,005	-0,028
-118,395	800,000	-0,029	0,079
-117,380	800,000	0,032	0,099
-116,366	402,242	0,039	-0,060
-115,351	-126,848	-0,230	0,024
-114,337	-72,694	-0,045	0,012
-113,322	42,662	-0,035	-0,023
-112,307	47,056	-0,095	-0,064
-111,293	133,991	0,039	0,037
-110,278	41,739	-0,059	0,039
-109,264	-73,008	-0,129	0,034
-108,249	227,130	-0,018	-0,022
-107,234	-200,000	0,020	-0,074
-106,220	54,884	-0,032	0,022
-105,205	89,167	-0,052	0,042
-104,191	800,000	-0,020	-0,056
-103,176	19,587	0,041	0,024
-102,162	-200,000	0,023	0,088
-101,147	-200,000	0,021	-0,069
-100,132	135,748	-0,101	-0,095
-99,118	800,000	-0,013	0,027
-98,103	50,815	0,087	-0,059
-97,089	16,853	0,159	0,091
-96,074	800,000	0,021	-0,059
-95,059	225,343	-0,035	0,041
-94,045	97,903	-0,147	-0,122
-93,030	800,000	0,011	-0,024
-92,016	226,924	-0,068	-0,080
-91,001	41,541	0,112	-0,073
-89,986	-146,002	0,065	0,004
-88,972	800,000	0,028	-0,060
-87,957	-200,000	0,014	-0,096
-86,943	201,505	0,067	0,074
-85,928	72,983	-0,094	-0,071
-84,913	-200,000	0,005	-0,095
-83,899	136,631	-0,112	0,106
-82,884	113,257	-0,098	0,086
-81,870	-53,486	-0,091	0,030
-80,855	-200,000	-0,026	0,084
-79,840	-26,630	-0,019	-0,008
-78,826	-71,950	0,066	-0,018
-77,811	-107,231	-0,158	-0,025
-76,797	-172,421	-0,151	0,003
-75,782	-99,187	0,112	-0,020
-74,767	-114,982	0,151	0,020
-73,753	800,000	0,010	-0,022
-72,738	-200,000	0,000	0,121
-71,724	-148,738	-0,086	0,005
-70,709	384,395	-0,039	0,058
-69,694	71,733	-0,108	-0,081
-68,680	800,000	-0,014	-0,039
-67,665	-200,000	0,008	0,032
-66,651	-12,689	0,089	-0,042
-65,636	231,357	0,078	-0,092
-64,622	800,000	-0,015	0,040
-63,607	-22,436	-0,107	0,047
-62,592	-160,941	0,022	-0,001
-61,578	800,000	0,028	0,076
-60,563	-3,468	-0,046	-0,023
-59,549	-200,000	-0,018	0,067
-58,534	-35,117	-1,792	-0,700
-57,519	800,000	-0,491	-1,269
-56,505	-200,000	-1,199	-4,694
-55,490	-41,419	0,731	0,270
-54,476	800,000	4,998	11,724
-53,461	-200,000	16,496	274,382
-52,446	800,000	710,761	2222,638
-51,432	557,556	1623,931	2832,909
-50,417	122,087	1620,494	1457,981
-49,403	86,097	1281,484	1015,895
-48,388	36,889	1027,939	653,589
-47,373	21,172	990,647	577,961
-46,359	19,987	978,804	567,127
-45,344	18,027	974,561	558,211
-44,330	18,194	973,368	558,053
-43,315	17,799	971,692	555,777
-42,300	17,780	970,523	555,024
-41,286	17,759	969,563	554,382
-40,271	17,729	968,646	553,739
-39,257	17,718	967,807	553,199
-38,242	17,693	967,024	552,649
-37,227	17,756	966,317	552,431
-36,213	17,651	965,498	551,596
-35,198	17,694	964,308	551,035
-34,184	17,667	963,507	550,467
-33,169	17,664	962,664	549,954
-32,154	17,719	961,847	549,646
-31,140	17,711	960,954	549,088
-30,125	17,735	960,225	548,724
-29,111	17,709	959,318	548,103
-28,096	17,746	958,699	547,844
-27,082	17,788	958,017	547,571
-26,067	17,678	957,321	546,795
-25,052	17,732	956,465	546,459
-24,038	17,700	955,821	545,966
-23,023	17,660	955,164	545,441
-22,009	17,727	954,510	545,260
-20,994	17,705	953,950	544,849
-19,979	17,733	953,140	544,454
-18,965	17,654	952,571	543,856
-17,950	17,744	951,917	543,749
-16,936	17,602	951,411	542,982
-15,921	17,657	950,608	542,677
-14,906	17,567	950,054	542,051
-13,892	17,538	949,360	541,542
-12,877	17,505	948,721	541,051
-11,863	17,486	948,232	540,691
-10,848	17,597	947,362	540,525
-9,833	17,663	946,951	540,483
-8,819	17,636	946,284	539,992
-7,804	17,593	945,850	539,587
-6,790	17,587	945,259	539,209
-5,775	17,556	944,751	538,800
-4,760	17,639	944,009	538,619
-3,746	17,590	943,312	538,043
-2,731	17,502	942,736	537,415
-1,717	17,351	941,895	536,435
-0,702	17,451	941,221	536,345
0,313	17,168	940,870	536,059
1,327	19,716	938,399	542,661
2,342	26,796	811,138	488,281
3,356	20,946	514,631	299,679
4,371	-1,146	385,823	195,721
5,386	-3,618	369,168	184,131
6,400	-4,771	362,839	179,522
7,415	-5,664	360,088	177,043
8,429	-5,906	358,340	175,870
9,444	-5,991	357,379	175,279
10,459	-6,173	356,665	174,690
11,473	-6,094	355,990	174,441
12,488	-5,895	355,393	174,376
13,502	-6,064	355,065	173,993
14,517	-6,171	354,292	173,468
15,531	-6,496	353,561	172,702
16,546	-6,581	353,109	172,362
17,561	-6,717	352,758	172,012
18,575	-6,662	352,224	171,802
19,590	-6,828	351,877	171,417
20,604	-6,740	351,568	171,357
21,619	-6,788	351,187	171,099
22,634	-6,729	350,729	170,930
23,648	-6,943	350,389	170,493
24,663	-6,787	350,075	170,512
25,677	-6,884	349,678	170,188
26,692	-6,665	349,378	170,288
27,707	-6,816	349,178	169,996
28,721	-6,858	348,775	169,734
29,736	-6,907	348,459	169,506
30,750	-6,923	348,066	169,280
31,765	-6,862	347,784	169,201
32,780	-6,766	347,441	169,133
33,794	-6,852	347,269	168,933
34,809	-6,972	347,038	168,662
35,823	-6,960	346,586	168,441
36,838	-6,746	346,085	168,437
37,853	-6,969	346,077	168,154
38,867	-6,926	345,633	167,974
39,882	-7,127	345,507	167,661
40,896	-6,942	345,153	167,692
41,911	-7,011	344,781	167,414
42,926	-7,046	344,555	167,249
43,940	-6,931	344,208	167,201
44,955	-7,026	343,820	166,886
45,969	-7,187	343,670	166,609
46,984	-7,297	343,387	166,327
47,999	-7,381	342,942	165,998
49,013	-7,478	342,733	165,769
50,028	-7,571	342,542	165,553
51,042	-7,500	342,095	165,406
52,057	-7,538	341,684	165,148
53,071	-7,528	341,733	165,168
54,086	-7,627	341,337	164,846
55,101	-7,485	341,161	164,912
56,115	-7,499	341,178	164,890
57,130	-6,715	340,932	165,669
58,144	-6,568	340,758	165,740
59,159	-6,620	340,332	165,458
60,174	-6,586	340,049	165,346
61,188	-6,772	339,932	165,058
62,203	-6,890	339,700	164,793
63,217	-6,821	339,334	164,682
64,232	-6,627	338,989	164,724
65,247	-6,472	338,830	164,812
66,261	-6,722	338,554	164,374
67,276	-7,012	337,914	163,714
68,290	-7,134	337,707	163,458
69,305	-7,240	337,695	163,315
70,320	-7,351	337,325	162,994
71,334	-7,051	337,035	163,185
72,349	-6,597	336,826	163,590
73,363	-6,441	336,715	163,701
74,378	-6,580	336,436	163,392
75,393	-6,653	336,054	163,108
76,407	-6,870	335,896	162,768
77,422	-6,962	335,629	162,519
78,436	-6,579	335,169	162,719
79,451	-6,573	334,961	162,611
80,466	-6,847	334,618	162,117
81,480	-7,143	334,196	161,560
82,495	-7,176	334,036	161,432
83,509	-7,222	333,936	161,316
84,524	-7,117	333,516	161,218
85,539	-7,189	333,171	160,956
86,553	-7,258	332,896	160,730
87,568	-7,074	332,689	160,825
88,582	-7,140	332,570	160,677
89,597	-7,201	332,265	160,447
90,611	-6,917	332,096	160,672
91,626	-6,779	332,025	160,780
92,641	-6,858	331,785	160,560
93,655	-6,933	331,345	160,248
94,670	-7,083	331,151	159,970
95,684	-7,094	331,032	159,886
96,699	-6,941	330,597	159,835
97,714	-7,131	330,319	159,472
98,728	-7,174	330,049	159,280
99,743	-7,249	329,700	159,012
100,757	-7,096	329,406	159,028
101,772	-7,191	329,336	158,874
102,787	-7,022	329,064	158,917
103,801	-7,007	328,875	158,829
104,816	-6,989	328,829	158,813
105,830	-6,873	328,590	158,813
106,845	-6,710	328,414	158,896
107,860	-6,943	328,050	158,445
108,874	-6,938	327,720	158,278
109,889	-6,821	327,472	158,274
110,903	-6,976	327,334	158,021
111,918	-7,012	327,089	157,848
112,933	-7,013	326,900	157,742
113,947	-6,916	326,512	157,648
114,962	-6,881	326,473	157,654
115,976	-6,856	326,195	157,534
116,991	-6,899	326,017	157,386
118,006	-6,872	325,742	157,269
119,020	-6,817	325,725	157,308
120,035	-6,680	325,357	157,267
121,049	-6,930	325,246	156,923
122,064	-6,857	324,964	156,854
123,079	-6,920	324,751	156,668
124,093	-6,954	324,367	156,430
125,108	-7,081	323,932	156,067
126,122	-7,369	323,640	155,596
127,137	-7,254	323,276	155,533
128,151	-7,317	323,186	155,407
129,166	-7,235	323,119	155,451
130,181	-7,181	322,648	155,270
131,195	-7,217	322,475	155,133
132,210	-7,116	322,372	155,180
133,224	-6,873	322,244	155,370
134,239	-7,024	322,021	155,085
135,254	-6,832	321,795	155,171
136,268	-6,837	321,397	154,960
137,283	-7,288	321,096	154,310
138,297	-7,248	320,775	154,186
139,312	-7,202	320,619	154,146
140,327	-6,661	320,610	154,717
141,341	-6,581	320,510	154,742
142,356	-6,268	320,225	154,930
143,370	-6,413	320,110	154,704
144,385	-6,441	320,011	154,612
145,400	-6,294	319,562	154,540
146,414	-6,418	319,451	154,338
147,429	-6,568	319,285	154,082
148,443	-6,541	319,048	153,983
149,458	-6,501	318,704	153,846
150,473	-6,407	318,505	153,838
151,487	-6,567	318,249	153,528
152,502	-6,478	318,097	153,537
153,516	-6,409	317,877	153,492
154,531	-6,371	317,649	153,408
155,546	-6,603	317,462	153,056
156,560	-6,597	317,096	152,872
157,575	-6,571	316,789	152,738
158,589	-6,485	316,552	152,702
159,604	-6,365	316,490	152,788
160,619	-6,197	316,219	152,823
161,633	-6,244	316,122	152,712
162,648	-6,383	315,886	152,436
163,662	-6,430	315,779	152,320
164,677	-6,472	315,414	152,086
165,692	-6,596	315,283	151,877
166,706	-6,501	315,128	151,890
167,721	-6,317	314,834	151,931
168,735	-6,267	314,572	151,844
169,750	-6,317	314,561	151,772
170,764	-6,141	314,157	151,750
171,779	-6,098	314,120	151,765
172,794	-6,085	313,766	151,594
173,808	-6,509	313,640	151,070
174,823	-6,861	313,152	150,448
175,837	-7,054	312,879	150,100
176,852	-6,667	313,125	150,614
177,867	-6,214	312,779	150,913
178,881	-6,250	312,667	150,808
179,896	-6,121	312,445	150,823
180,910	-6,115	312,219	150,707
181,925	-6,179	312,047	150,543
182,940	-6,141	311,908	150,503
183,954	-6,130	311,560	150,332
184,969	-6,313	311,365	150,033
185,983	-6,228	311,227	150,042
186,998	-6,257	311,066	149,921
188,013	-6,173	310,772	149,854
189,027	-6,198	310,451	149,660
190,042	-6,218	310,192	149,500
191,056	-6,146	310,323	149,625
192,071	-5,922	310,023	149,703
193,086	-6,021	309,842	149,498
194,100	-6,053	309,494	149,284
195,115	-6,047	309,267	149,167
196,129	-6,169	309,123	148,956
197,144	-6,041	308,810	148,926
198,159	-6,035	308,643	148,838
199,173	-5,984	308,423	148,772
200,188	-5,959	308,195	148,674
201,202	-6,367	307,948	148,119
202,217	-6,953	307,392	147,230
203,232	-6,871	307,160	147,191
204,246	-6,494	307,161	147,569
205,261	-6,297	307,044	147,704
206,275	-6,195	306,972	147,762
207,290	-6,177	306,753	147,661
208,304	-6,049	306,486	147,652
209,319	-6,128	306,335	147,484
210,334	-6,139	306,016	147,306
211,348	-6,245	305,814	147,087
212,363	-6,225	305,773	147,075
213,377	-6,120	305,498	147,037
214,392	-6,066	305,296	146,983
215,407	-6,441	304,857	146,372
216,421	-6,785	304,688	145,925
217,436	-6,620	304,368	145,928
218,450	-6,525	304,357	146,008
219,465	-6,365	304,242	146,103
220,480	-6,311	304,038	146,048
221,494	-6,332	303,841	145,918
222,509	-6,515	303,747	145,674
223,523	-6,205	303,511	145,864
224,538	-6,129	303,427	145,887
225,553	-6,041	303,155	145,833
226,567	-6,075	303,115	145,767
227,582	-5,896	302,738	145,755
228,596	-6,122	302,714	145,501
229,611	-6,025	302,423	145,446
230,626	-6,216	302,307	145,183
231,640	-6,507	301,667	144,567
232,655	-6,963	301,311	143,922
233,669	-7,148	301,249	143,691
234,684	-6,939	301,020	143,781
235,699	-6,765	300,820	143,849
236,713	-6,925	300,633	143,585
237,728	-6,592	300,573	143,880
238,742	-6,672	300,590	143,795
239,757	-6,278	300,341	144,061
240,772	-6,407	300,264	143,880
241,786	-6,271	299,864	143,813
242,801	-6,420	299,670	143,557
243,815	-6,611	299,545	143,292
244,830	-6,602	299,267	143,156
245,844	-6,429	299,024	143,200
246,859	-6,382	298,662	143,062
247,874	-6,469	298,703	142,981
248,888	-6,386	298,433	142,922
249,903	-6,230	298,413	143,057
250,917	-6,185	298,281	143,025
251,932	-5,706	298,230	143,468
252,947	-5,028	298,587	144,306
253,961	-4,836	298,214	144,305
254,976	-4,482	298,298	144,687
255,990	-3,587	298,339	145,589
257,005	-3,634	298,276	145,498
258,020	-1,264	299,080	148,252
259,034	-0,445	299,197	149,117
260,049	-0,387	299,168	149,147
261,063	0,174	299,012	149,617
262,078	0,411	298,960	149,814
263,093	0,383	298,779	149,683
264,107	0,411	298,601	149,608
265,122	0,275	298,489	149,403
266,136	0,587	298,167	149,539
267,151	0,624	298,114	149,536
268,166	0,623	298,078	149,504
269,180	0,685	297,709	149,367
270,195	0,591	297,585	149,198
271,209	0,514	297,302	148,966
272,224	0,668	297,207	149,058
273,239	0,657	297,014	148,937
274,253	0,713	296,786	148,866
275,268	0,465	296,515	148,470
276,282	0,544	296,542	148,549
277,297	0,595	296,157	148,393
278,312	0,764	295,920	148,428
279,326	0,616	295,836	148,227
280,341	0,642	295,575	148,109
281,355	0,394	295,481	147,804
282,370	0,538	295,201	147,792
283,384	0,597	294,929	147,700
284,399	0,599	294,856	147,653
285,414	0,641	294,605	147,555
286,428	0,410	294,474	147,250
287,443	0,731	294,255	147,442
288,457	0,484	294,219	147,169
289,472	0,652	293,927	147,174
290,487	0,650	293,686	147,038
291,501	0,529	293,524	146,825
292,516	0,494	293,318	146,676
293,530	0,552	293,246	146,683
294,545	0,553	293,043	146,570
295,560	0,557	292,845	146,461
296,574	0,575	292,641	146,364
297,589	0,637	292,407	146,294
298,603	0,571	292,107	146,066
299,618	0,547	291,968	145,961
300,633	0,491	291,791	145,805
301,647	0,646	291,573	145,833
302,662	0,585	291,477	145,713
303,676	0,691	291,303	145,716
304,691	0,541	291,010	145,411
305,706	0,674	290,670	145,357
306,720	0,508	290,668	145,183
307,735	0,540	290,512	145,122
308,749	0,586	290,273	145,035
309,764	0,584	290,139	144,953
310,779	0,637	289,910	144,876
311,793	0,539	289,788	144,708
312,808	0,543	289,491	144,551
313,822	0,556	289,215	144,412
314,837	0,648	289,127	144,444
315,852	0,596	289,098	144,367
316,866	0,566	288,785	144,169
317,881	0,516	288,642	144,036
318,895	0,534	288,506	143,973
319,910	0,426	288,277	143,742
320,925	0,573	288,035	143,750
321,939	0,507	287,972	143,642
322,954	0,584	287,847	143,641
323,968	0,631	287,577	143,538
324,983	0,715	287,254	143,444
325,997	0,480	287,222	143,191
327,012	0,702	286,993	143,276
328,027	0,541	286,812	143,019
329,041	0,613	286,537	142,938
330,056	0,435	286,432	142,704
331,070	0,636	286,175	142,754
332,085	0,737	286,064	142,782
333,100	0,673	285,867	142,609
334,114	0,710	285,554	142,476
335,129	0,623	285,527	142,368
336,143	0,757	285,299	142,368
337,158	0,690	285,112	142,199
338,173	0,668	284,915	142,067
339,187	0,692	284,789	142,014
340,202	0,573	284,609	141,800
341,216	0,718	284,149	141,694
342,231	0,610	284,179	141,595
343,246	0,640	284,009	141,526
344,260	0,590	283,851	141,387
345,275	0,600	283,833	141,375
346,289	0,631	283,499	141,225
347,304	0,682	283,309	141,166
348,319	0,524	283,234	140,967
349,333	0,706	283,041	141,030
350,348	0,532	282,881	140,774
351,362	0,992	282,480	140,993
352,377	0,919	282,443	140,894
353,392	0,797	282,389	140,740
354,406	0,872	282,076	140,642
355,421	191,773	1329,166	1400,057
356,435	155,246	1456,754	1400,083
