DTS Sentinel unit serial number:	SN410029Multiplexer serial number:	ORYXHardware model number:	OX2-SRSoftware version number:	ORYX F/W v4,00 Oryx Data Collector v3.7.2.0data status	okinstallation	B4 Nyhavnadifferential loss correction	single-endedforward channel	channel 2reverse channel	N/Adate	2023/12/18time	18:55:14forward acquisition time	300,00reverse acquisition time	0,00gamma	499,1914k internal	0,3123k external	0,3123temperature offset calibration	1,0000default loss term (dB/km)	0,3820temperature slope calibration	1,0000multiplexer offset coefficient	1,0000multiplexer slope coefficient	1,0000fibre end	0,00T internal ref (°C)	21,91T ext. ref 1 (°C)	6,95T ext. ref 2 (°C)	6,96length (m)	temperature (°C)	Stokes	anti-Stokes-744,400	-67,303	-0,195	-0,057
-743,385	-39,847	-0,272	0,106
-742,371	-96,292	0,108	0,021
-741,356	76,226	-0,157	0,124
-740,342	48,374	0,051	-0,036
-739,327	-64,661	-0,313	0,094
-738,312	117,661	-0,067	-0,062
-737,298	-5,491	-0,220	0,112
-736,283	-11,047	0,193	-0,095
-735,269	-59,336	-0,145	0,046
-734,254	6,111	-0,022	0,012
-733,239	-83,899	-0,493	-0,116
-732,225	-200,000	0,012	-0,076
-731,210	169,229	-0,064	0,068
-730,196	-139,953	0,149	0,012
-729,181	-3,092	-0,115	-0,060
-728,167	-200,000	0,001	0,058
-727,152	-45,608	0,020	0,007
-726,137	800,000	0,053	0,160
-725,123	800,000	-0,010	0,026
-724,108	-59,342	-0,118	-0,038
-723,094	-178,781	-0,114	-0,002
-722,079	608,193	-0,046	0,086
-721,064	-200,000	-0,008	-0,071
-720,050	-130,279	-0,099	0,010
-719,035	-37,373	0,113	-0,045
-718,021	-28,924	-0,173	0,074
-717,006	13,127	-0,173	-0,100
-715,991	-59,410	-0,049	-0,016
-714,977	138,012	0,022	0,022
-713,962	800,000	0,021	-0,061
-712,948	800,000	-0,003	-0,007
-711,933	800,000	-0,047	0,114
-710,918	130,192	-0,037	-0,036
-709,904	460,941	-0,078	-0,130
-708,889	-18,473	-0,065	-0,030
-707,875	195,778	-0,067	-0,076
-706,860	-200,000	0,017	0,095
-705,845	-200,000	0,005	0,022
-704,831	114,061	0,041	-0,037
-703,816	-200,000	0,002	-0,013
-702,802	48,337	-0,106	-0,074
-701,787	41,989	-0,098	-0,066
-700,772	-7,828	0,059	-0,030
-699,758	-200,000	-0,007	0,026
-698,743	800,000	0,042	0,128
-697,729	-200,000	0,004	0,118
-696,714	182,843	0,012	0,013
-695,699	131,967	-0,123	0,118
-694,685	630,418	-0,033	-0,063
-693,670	79,571	-0,091	-0,073
-692,656	-119,435	-0,062	0,008
-691,641	587,847	0,027	0,050
-690,627	-72,561	0,100	0,027
-689,612	-67,897	-0,056	0,016
-688,597	130,642	-0,043	-0,041
-687,583	-15,091	-0,182	0,086
-686,568	-73,066	-0,111	0,030
-685,554	-200,000	0,056	-0,199
-684,539	-35,399	0,114	0,046
-683,524	-118,597	0,127	0,016
-682,510	-200,000	-0,008	0,053
-681,495	-164,795	-0,029	-0,001
-680,481	495,996	-0,083	-0,143
-679,466	274,131	-0,032	-0,043
-678,451	375,486	-0,055	-0,084
-677,437	-200,000	0,015	-0,132
-676,422	190,462	-0,095	-0,106
-675,408	244,685	-0,047	0,059
-674,393	378,044	-0,030	0,046
-673,378	43,888	-0,075	-0,051
-672,364	73,566	-0,060	0,047
-671,349	127,283	-0,108	-0,101
-670,335	-200,000	-0,005	-0,112
-669,320	-27,969	0,087	-0,037
-668,305	-200,000	-0,025	0,084
-667,291	800,000	0,042	-0,134
-666,276	70,887	-0,127	0,098
-665,262	185,040	-0,127	0,140
-664,247	-146,392	-0,068	-0,004
-663,232	70,138	0,021	-0,016
-662,218	-56,781	0,095	0,031
-661,203	46,706	-0,072	0,049
-660,189	-134,635	0,090	0,008
-659,174	800,000	-0,059	-0,127
-658,159	-200,000	0,010	-0,171
-657,145	-10,625	0,114	0,056
-656,130	-161,814	0,025	0,001
-655,116	-144,516	0,123	0,008
-654,101	-200,000	0,009	0,076
-653,086	-147,178	0,151	0,009
-652,072	236,963	0,049	-0,060
-651,057	201,611	0,098	-0,112
-650,043	800,000	-0,057	-0,131
-649,028	-200,000	0,020	-0,170
-648,014	235,821	0,049	-0,060
-646,999	-177,415	-0,019	0,000
-645,984	-54,841	0,147	0,049
-644,970	-200,000	0,028	0,122
-643,955	344,944	-0,059	0,087
-642,941	-200,000	-0,020	-0,120
-641,926	-119,605	0,060	-0,008
-640,911	-100,257	0,162	-0,030
-639,897	800,000	-0,034	0,079
-638,882	800,000	0,014	-0,036
-637,868	298,842	-0,058	-0,079
-636,853	-200,000	-0,008	0,065
-635,838	144,371	-0,077	-0,077
-634,824	800,000	-0,041	0,114
-633,809	-117,868	0,101	-0,013
-632,795	800,000	0,002	-0,004
-631,780	-79,540	-0,117	-0,029
-630,765	-17,147	0,047	-0,022
-629,751	36,258	-0,095	-0,062
-628,736	-200,000	-0,017	-0,194
-627,722	719,406	0,018	0,036
-626,707	-200,000	0,026	-0,127
-625,692	75,769	0,053	0,042
-624,678	24,883	0,086	-0,053
-623,663	-200,000	0,014	-0,056
-622,649	-64,607	-0,125	0,037
-621,634	-200,000	0,006	-0,100
-620,619	373,582	-0,048	-0,072
-619,605	326,454	0,034	-0,048
-618,590	11,648	0,149	-0,085
-617,576	507,340	0,042	-0,073
-616,561	-134,889	-0,028	0,003
-615,546	-166,168	-0,149	-0,005
-614,532	197,798	-0,007	-0,008
-613,517	705,391	0,131	-0,257
-612,503	371,661	-0,040	-0,060
-611,488	448,327	0,073	0,120
-610,474	-200,000	0,006	0,062
-609,459	393,899	0,066	-0,102
-608,444	-86,396	0,026	0,006
-607,430	-200,000	-0,028	-0,123
-606,415	477,711	-0,060	-0,101
-605,401	619,435	0,035	0,066
-604,386	142,228	0,065	0,064
-603,371	-28,362	0,152	-0,065
-602,357	-50,947	0,058	0,020
-601,342	120,491	-0,067	-0,062
-600,328	518,601	-0,051	-0,089
-599,313	-200,000	-0,015	-0,112
-598,298	-70,755	-0,017	0,005
-597,284	-77,596	0,133	-0,034
-596,269	-49,812	0,045	0,016
-595,255	-2,371	0,184	0,095
-594,240	-171,124	0,078	-0,002
-593,225	335,252	-0,100	-0,144
-592,211	756,665	-0,033	-0,066
-591,196	-200,000	-0,021	-0,112
-590,182	-200,000	-0,019	-0,071
-589,167	581,841	0,044	0,081
-588,152	-164,473	0,115	0,004
-587,138	151,003	-0,130	0,131
-586,123	23,411	-0,069	-0,042
-585,109	655,978	-0,138	-0,264
-584,094	-200,000	-0,025	-0,142
-583,079	382,430	0,069	0,106
-582,065	-200,000	-0,001	-0,054
-581,050	-7,761	-0,096	0,048
-580,036	-200,000	-0,016	-0,126
-579,021	-69,264	0,091	-0,026
-578,006	-109,359	-0,107	0,017
-576,992	270,849	-0,035	-0,045
-575,977	155,049	-0,046	0,047
-574,963	-46,445	0,032	-0,012
-573,948	451,425	0,031	0,051
-572,934	41,346	-0,023	0,015
-571,919	-79,399	-0,095	-0,024
-570,904	16,825	-0,147	-0,086
-569,890	9,719	0,046	-0,026
-568,875	691,286	-0,051	0,100
-567,861	-140,464	-0,075	-0,006
-566,846	52,488	-0,133	0,094
-565,831	-63,104	-0,057	0,017
-564,817	574,539	0,048	0,087
-563,802	-200,000	-0,005	-0,103
-562,788	-200,000	-0,014	-0,098
-561,773	800,000	0,030	0,074
-560,758	69,772	0,069	0,053
-559,744	800,000	0,066	0,185
-558,729	-4,043	-0,069	0,035
-557,715	800,000	0,040	-0,087
-556,700	245,994	-0,087	0,109
-555,685	-7,281	0,049	-0,024
-554,671	295,296	0,034	-0,047
-553,656	-77,911	-0,062	0,016
-552,642	-79,686	-0,102	-0,025
-551,627	-105,600	0,071	0,012
-550,612	-2,999	-0,111	-0,057
-549,598	90,613	-0,106	-0,088
-548,583	589,748	0,053	-0,096
-547,569	-87,638	-0,152	-0,034
-546,554	234,272	-0,089	-0,108
-545,539	206,226	0,069	-0,079
-544,525	600,810	0,020	0,036
-543,510	-200,000	0,021	0,162
-542,496	89,711	0,055	-0,046
-541,481	-76,611	-0,025	-0,006
-540,466	800,000	0,028	0,076
-539,452	231,976	0,037	0,045
-538,437	51,331	0,127	-0,089
-537,423	56,303	0,060	0,043
-536,408	-115,470	0,062	0,009
-535,393	-200,000	0,022	0,084
-534,379	-96,535	-0,139	-0,027
-533,364	-200,000	0,006	-0,084
-532,350	599,968	0,028	-0,051
-531,335	-120,246	-0,066	0,008
-530,321	800,000	0,063	0,190
-529,306	-47,539	-0,090	-0,032
-528,291	800,000	-0,036	-0,077
-527,277	638,979	-0,067	-0,126
-526,262	800,000	-0,015	-0,041
-525,248	151,035	0,036	-0,036
-524,233	800,000	0,045	0,100
-523,218	371,296	0,072	-0,109
-522,204	-200,000	0,049	0,161
-521,189	23,806	-0,086	0,052
-520,175	-200,000	-0,023	-0,089
-519,160	512,089	0,049	0,085
-518,145	-69,280	0,094	-0,026
-517,131	-115,686	0,048	0,007
-516,116	420,865	0,082	0,130
-515,102	-83,649	-0,082	-0,019
-514,087	-83,363	0,042	-0,010
-513,072	-121,588	0,072	0,009
-512,058	71,488	-0,033	0,026
-511,043	443,428	-0,081	0,132
-510,029	800,000	0,010	-0,028
-509,014	800,000	-0,036	0,114
-507,999	695,920	-0,010	-0,019
-506,985	-82,055	0,083	0,020
-505,970	-50,220	0,046	0,016
-504,956	76,219	-0,045	0,035
-503,941	566,346	-0,049	0,089
-502,926	800,000	0,066	-0,151
-501,912	-200,000	0,031	0,104
-500,897	-200,000	0,003	-0,172
-499,883	183,443	-0,024	-0,027
-498,868	315,073	-0,063	-0,088
-497,853	-93,381	-0,180	0,037
-496,839	530,498	0,065	-0,114
-495,824	-2,795	-0,050	0,026
-494,810	-200,000	-0,060	-0,212
-493,795	-80,426	0,055	-0,013
-492,781	-170,508	-0,052	0,001
-491,766	-86,150	-0,084	0,019
-490,751	108,478	-0,044	0,039
-489,737	269,969	-0,095	-0,124
-488,722	633,063	0,035	-0,066
-487,708	-89,738	0,067	0,014
-486,693	577,244	-0,028	0,050
-485,678	800,000	0,076	-0,156
-484,664	-200,000	-0,003	-0,148
-483,649	-21,656	0,050	0,022
-482,635	-109,801	-0,103	-0,016
-481,620	-89,903	0,172	0,037
-480,605	-200,000	0,026	-0,109
-479,591	264,182	0,053	0,068
-478,576	800,000	0,127	0,323
-477,562	-68,521	-0,072	0,020
-476,547	48,499	0,159	-0,110
-475,532	800,000	-0,041	0,087
-474,518	800,000	0,043	0,135
-473,503	800,000	0,036	-0,098
-472,489	480,262	-0,044	0,075
-471,474	-111,777	-0,215	0,032
-470,459	27,436	-0,072	0,045
-469,445	-120,239	-0,132	0,016
-468,430	800,000	-0,029	0,064
-467,416	112,823	0,124	0,111
-466,401	800,000	0,028	0,072
-465,386	-93,778	0,067	-0,013
-464,372	800,000	-0,033	-0,073
-463,357	-200,000	-0,025	0,113
-462,343	-200,000	-0,010	-0,091
-461,328	293,184	0,032	-0,043
-460,313	52,272	-0,075	-0,053
-459,299	17,576	0,080	0,047
-458,284	481,118	0,080	0,134
-457,270	-200,000	0,017	0,188
-456,255	800,000	0,015	0,042
-455,241	-97,707	-0,034	-0,006
-454,226	238,069	-0,051	0,062
-453,211	800,000	0,059	-0,120
-452,197	-103,789	0,060	0,010
-451,182	-200,000	-0,007	0,136
-450,168	-126,527	0,130	-0,014
-449,153	800,000	0,049	-0,107
-448,138	-94,390	-0,101	-0,020
-447,124	95,714	0,026	0,022
-446,109	-200,000	-0,013	-0,099
-445,095	793,587	0,046	0,094
-444,080	-104,659	-0,077	0,013
-443,065	-28,405	0,111	0,047
-442,051	-81,545	-0,020	0,005
-441,036	800,000	-0,076	-0,203
-440,022	800,000	-0,031	0,075
-439,007	-75,834	0,127	-0,033
-437,992	800,000	0,059	-0,132
-436,978	800,000	0,031	0,078
-435,963	800,000	0,021	-0,049
-434,949	739,186	0,017	-0,033
-433,934	-200,000	-0,003	-0,174
-432,919	-200,000	-0,005	0,054
-431,905	-200,000	-0,008	-0,081
-430,890	350,525	0,043	0,063
-429,876	-95,723	0,104	-0,020
-428,861	138,467	0,032	-0,031
-427,846	457,550	-0,029	0,048
-426,832	386,909	0,040	0,061
-425,817	-112,879	-0,143	0,021
-424,803	800,000	0,037	-0,083
-423,788	239,172	0,053	-0,065
-422,773	9,222	0,050	0,028
-421,759	85,372	-0,053	0,043
-420,744	144,082	0,023	0,023
-419,730	-200,000	-0,018	0,070
-418,715	746,007	-0,010	-0,019
-417,701	81,877	-0,071	-0,056
-416,686	-200,000	0,001	-0,140
-415,671	-45,748	0,161	0,058
-414,657	-1,436	-0,122	0,063
-413,642	255,504	-0,146	0,185
-412,628	800,000	-0,036	-0,075
-411,613	-62,591	-0,156	0,047
-410,598	616,447	-0,087	-0,161
-409,584	800,000	0,014	-0,032
-408,569	-200,000	-0,016	0,070
-407,555	-146,935	0,084	0,005
-406,540	217,041	-0,054	0,064
-405,525	800,000	-0,077	-0,190
-404,511	800,000	0,039	-0,119
-403,496	239,654	-0,097	0,119
-402,482	214,993	-0,193	0,225
-401,467	262,607	0,087	0,112
-400,452	-200,000	-0,003	0,066
-399,438	150,962	-0,008	0,008
-398,423	108,796	0,038	0,034
-397,409	17,320	-0,183	-0,106
-396,394	-200,000	0,003	-0,091
-395,379	354,444	0,038	0,055
-394,365	-200,000	0,022	0,099
-393,350	100,516	0,070	0,060
-392,336	728,445	0,032	-0,062
-391,321	-4,868	0,128	-0,065
-390,306	-200,000	-0,001	-0,054
-389,292	-23,282	-0,098	-0,043
-388,277	-24,320	0,096	0,042
-387,263	-200,000	0,031	0,135
-386,248	800,000	0,018	0,039
-385,233	-25,792	0,084	-0,036
-384,219	11,267	-0,104	-0,058
-383,204	-200,000	0,016	-0,058
-382,190	647,059	0,060	-0,113
-381,175	150,843	0,017	-0,017
-380,160	395,630	-0,065	0,100
-379,146	-200,000	0,013	-0,048
-378,131	14,155	-0,057	-0,033
-377,117	56,972	-0,031	0,022
-376,102	-41,038	-0,066	0,025
-375,088	-200,000	0,015	0,117
-374,073	-70,310	-0,042	0,011
-373,058	-108,786	0,069	-0,011
-372,044	63,122	-0,135	0,099
-371,029	329,899	0,122	0,172
-370,015	-33,670	0,146	0,059
-369,000	-144,200	-0,056	0,004
-367,985	-200,000	-0,027	-0,154
-366,971	-200,000	0,034	-0,145
-365,956	166,462	-0,142	0,148
-364,942	7,962	0,060	-0,033
-363,927	-111,403	-0,097	0,014
-362,912	800,000	-0,031	0,076
-361,898	299,473	-0,035	-0,047
-360,883	177,074	0,022	-0,023
-359,869	-200,000	-0,017	0,157
-358,854	197,879	0,049	0,055
-357,839	-119,586	0,171	-0,022
-356,825	-123,063	-0,060	-0,007
-355,810	38,969	0,022	-0,014
-354,796	-98,974	0,047	-0,009
-353,781	-10,650	-0,161	0,078
-352,766	-44,696	-0,108	0,039
-351,752	-200,000	0,020	-0,094
-350,737	-200,000	-0,006	-0,027
-349,723	127,233	-0,025	-0,024
-348,708	384,299	-0,107	0,163
-347,693	249,999	-0,109	-0,136
-346,679	-112,018	0,089	-0,013
-345,664	113,716	0,095	0,085
-344,650	-200,000	-0,008	-0,038
-343,635	800,000	0,039	0,114
-342,620	127,097	0,141	0,132
-341,606	64,536	0,115	0,085
-340,591	566,386	-0,021	0,038
-339,577	60,501	0,042	-0,031
-338,562	556,115	0,073	0,130
-337,548	-98,558	0,022	0,004
-336,533	54,643	0,072	0,051
-335,518	20,286	-0,037	-0,022
-334,504	8,854	0,034	0,019
-333,489	30,724	-0,033	0,021
-332,475	-200,000	0,001	0,059
-331,460	-11,617	0,170	0,081
-330,445	-50,171	0,072	0,025
-329,431	-76,593	-0,021	0,005
-328,416	800,000	0,046	0,125
-327,402	800,000	0,040	-0,105
-326,387	-79,740	0,060	0,015
-325,372	18,375	-0,088	-0,051
-324,358	44,208	-0,157	0,106
-323,343	-70,376	-0,075	-0,021
-322,329	-200,000	0,014	0,119
-321,314	145,558	0,024	0,023
-320,299	800,000	0,025	0,070
-319,285	-200,000	0,003	-0,019
-318,270	-6,756	-0,168	-0,083
-317,256	800,000	0,032	-0,089
-316,241	198,868	0,017	-0,020
-315,226	800,000	0,049	0,113
-314,212	31,211	-0,045	0,028
-313,197	800,000	0,091	0,196
-312,183	71,973	0,079	-0,060
-311,168	-200,000	0,002	-0,150
-310,153	696,934	-0,102	-0,198
-309,139	165,051	-0,139	-0,144
-308,124	-200,000	-0,015	0,113
-307,110	-131,278	0,154	0,015
-306,095	-200,000	0,007	0,056
-305,080	261,456	-0,068	0,087
-304,066	62,538	-0,063	0,046
-303,051	68,524	-0,058	0,043
-302,037	100,258	0,024	-0,020
-301,022	-200,000	0,060	0,197
-300,008	122,309	0,073	-0,067
-298,993	131,197	0,055	0,051
-297,978	494,351	-0,082	0,138
-296,964	-200,000	-0,026	-0,092
-295,949	61,158	0,089	-0,065
-294,935	-200,000	0,015	0,069
-293,920	800,000	0,062	0,131
-292,905	-200,000	0,002	0,029
-291,891	506,204	-0,052	0,088
-290,876	-200,000	0,017	0,170
-289,862	800,000	0,048	0,105
-288,847	10,771	0,064	-0,036
-287,832	800,000	-0,017	0,050
-286,818	171,143	0,093	0,098
-285,803	214,886	0,098	0,114
-284,789	-200,000	0,057	0,232
-283,774	92,641	0,054	0,045
-282,759	45,295	-0,020	0,014
-281,745	800,000	0,044	-0,093
-280,730	216,286	-0,025	0,030
-279,716	-24,499	0,056	0,024
-278,701	-189,347	0,097	-0,001
-277,686	800,000	-0,040	0,086
-276,672	-75,187	-0,077	-0,020
-275,657	110,703	0,084	-0,074
-274,643	39,861	-0,125	0,082
-273,628	-93,958	-0,037	-0,007
-272,613	-2,866	0,077	0,039
-271,599	43,152	0,149	0,099
-270,584	57,171	-0,091	-0,065
-269,570	-200,000	0,015	0,147
-268,555	7,046	-0,091	-0,050
-267,540	800,000	-0,013	0,033
-266,526	130,447	0,026	0,024
-265,511	442,027	-0,059	-0,095
-264,497	800,000	-0,044	0,119
-263,482	6,003	-0,037	0,020
-262,467	482,024	0,034	-0,056
-261,453	321,793	0,023	0,033
-260,438	159,366	0,060	-0,061
-259,424	130,685	-0,100	-0,094
-258,409	83,636	0,106	-0,085
-257,395	237,672	0,014	-0,017
-256,380	295,166	-0,083	0,112
-255,365	-200,000	-0,030	0,155
-254,351	673,219	-0,051	0,097
-253,336	-200,000	-0,009	0,047
-252,322	154,020	0,069	0,069
-251,307	-200,000	-0,025	0,122
-250,292	-140,220	0,082	0,006
-249,278	-49,707	0,115	-0,040
-248,263	800,000	0,025	0,055
-247,249	729,960	0,087	0,171
-246,234	170,443	-0,116	-0,121
-245,219	-200,000	-0,006	-0,079
-244,205	108,258	-0,028	-0,024
-243,190	-200,000	0,029	-0,131
-242,176	149,591	0,057	-0,056
-241,161	-200,000	-0,001	0,063
-240,146	800,000	0,026	-0,066
-239,132	455,443	0,014	-0,023
-238,117	800,000	0,074	-0,167
-237,103	-200,000	-0,002	-0,008
-236,088	689,991	0,050	0,095
-235,073	-152,664	0,111	-0,006
-234,059	-148,850	0,122	0,007
-233,044	50,092	-0,060	0,041
-232,030	-200,000	0,009	0,038
-231,015	-200,000	0,062	-0,261
-230,000	-84,892	-0,139	-0,032
-228,986	259,560	0,035	0,044
-227,971	-148,405	0,045	0,003
-226,957	-135,156	-0,119	-0,010
-225,942	192,606	0,049	0,054
-224,927	-43,591	-0,031	-0,011
-223,913	-76,365	-0,038	0,010
-222,898	81,223	0,023	0,018
-221,884	426,878	-0,007	-0,012
-220,869	89,336	0,038	-0,031
-219,855	800,000	-0,050	-0,120
-218,840	-200,000	-0,030	0,123
-217,825	-77,692	-0,050	-0,012
-216,811	-200,000	0,006	0,090
-215,796	-75,362	-0,104	-0,027
-214,782	538,068	-0,052	-0,090
-213,767	536,587	0,059	-0,102
-212,752	430,384	-0,036	0,057
-211,738	-200,000	-0,004	0,078
-210,723	-200,000	-0,026	-0,129
-209,709	133,024	-0,108	0,102
-208,694	-200,000	-0,003	0,150
-207,679	-43,726	0,140	0,051
-206,665	-6,069	-0,087	-0,043
-205,650	61,322	0,036	0,026
-204,636	-200,000	-0,003	-0,051
-203,621	-96,447	0,084	-0,016
-202,606	274,874	-0,064	0,083
-201,592	-200,000	0,038	-0,278
-200,577	160,765	-0,108	-0,110
-199,563	-5,963	0,068	-0,034
-198,548	800,000	-0,022	0,060
-197,533	-33,089	-0,026	-0,010
-196,519	122,118	-0,005	-0,005
-195,504	-200,000	-0,005	0,057
-194,490	452,449	-0,092	-0,149
-193,475	227,230	-0,046	-0,055
-192,460	-87,534	0,061	-0,013
-191,446	52,924	0,055	0,038
-190,431	-200,000	-0,004	-0,087
-189,417	-171,766	0,053	-0,001
-188,402	-46,774	0,051	-0,018
-187,387	27,602	-0,125	0,076
-186,373	800,000	-0,057	-0,137
-185,358	-109,787	0,060	-0,009
-184,344	-200,000	0,002	-0,016
-183,329	800,000	0,032	-0,076
-182,315	167,063	0,079	0,082
-181,300	2,179	-0,069	-0,036
-180,285	722,021	-0,033	-0,065
-179,271	-200,000	0,009	-0,173
-178,256	800,000	-0,040	-0,097
-177,242	177,027	0,051	-0,054
-176,227	46,567	-0,112	0,075
-175,212	66,276	-0,119	0,088
-174,198	800,000	-0,022	-0,049
-173,183	800,000	-0,073	-0,190
-172,169	-53,047	-0,158	-0,053
-171,154	-200,000	-0,027	0,103
-170,139	78,903	0,123	0,096
-169,125	2,251	-0,069	-0,036
-168,110	800,000	-0,040	-0,095
-167,096	-45,535	-0,095	0,034
-166,081	-146,818	0,079	0,005
-165,066	720,274	-0,040	-0,078
-164,052	17,798	0,018	0,010
-163,037	18,708	0,044	-0,026
-162,023	288,014	0,033	0,044
-161,008	21,010	-0,091	-0,053
-159,993	-56,274	0,153	-0,049
-158,979	44,144	-0,128	-0,085
-157,964	-60,357	-0,107	0,033
-156,950	456,919	0,061	0,099
-155,935	-20,480	0,052	-0,023
-154,920	131,959	-0,079	0,074
-153,906	-14,150	-0,081	0,038
-152,891	353,578	0,043	-0,063
-151,877	10,023	-0,048	-0,027
-150,862	258,677	-0,106	-0,134
-149,847	-68,034	0,076	-0,021
-148,833	30,261	0,094	-0,058
-147,818	-99,578	-0,075	-0,014
-146,804	461,459	-0,034	0,055
-145,789	77,445	-0,062	-0,048
-144,775	800,000	0,055	0,121
-143,760	-200,000	-0,035	-0,147
-142,745	-61,809	0,097	-0,029
-141,731	-200,000	-0,014	0,107
-140,716	-177,041	0,100	-0,002
-139,702	-35,181	0,053	0,021
-138,687	800,000	-0,039	-0,100
-137,672	-90,852	0,088	0,018
-136,658	-200,000	-0,027	-0,141
-135,643	78,892	-0,083	-0,065
-134,629	800,000	-0,042	0,088
-133,614	-200,000	0,002	0,098
-132,599	-200,000	-0,008	0,059
-131,585	-200,000	0,002	0,010
-130,570	640,361	-0,082	0,152
-129,556	56,976	-0,044	-0,031
-128,541	262,810	0,079	0,100
-127,526	-121,774	0,203	-0,024
-126,512	89,432	-0,094	-0,076
-125,497	-200,000	-0,034	0,130
-124,483	800,000	0,044	0,119
-123,468	-200,000	0,005	-0,081
-122,453	345,846	-0,046	-0,066
-121,439	-119,851	-0,102	0,013
-120,424	-200,000	0,009	0,131
-119,410	364,024	0,025	0,036
-118,395	-139,807	-0,119	-0,009
-117,380	-112,873	0,018	-0,003
-116,366	-127,953	0,125	-0,013
-115,351	-200,000	-0,015	0,113
-114,337	408,996	-0,056	0,086
-113,322	-121,297	0,055	-0,007
-112,307	27,137	0,054	-0,033
-111,293	114,517	0,062	0,055
-110,278	-200,000	-0,011	0,060
-109,264	800,000	0,038	-0,080
-108,249	800,000	0,036	0,079
-107,234	310,525	-0,024	0,033
-106,220	800,000	0,027	0,077
-105,205	158,765	-0,027	-0,027
-104,191	121,029	0,081	0,074
-103,176	-200,000	0,005	-0,033
-102,162	800,000	-0,018	-0,037
-101,147	-17,780	-0,092	-0,042
-100,132	75,456	0,033	-0,025
-99,118	800,000	0,070	0,209
-98,103	-135,988	0,092	-0,008
-97,089	-200,000	0,002	0,032
-96,074	-200,000	-0,021	0,203
-95,059	74,385	-0,063	0,048
-94,045	78,180	-0,029	0,023
-93,030	800,000	-0,087	0,191
-92,016	375,323	-0,026	0,039
-91,001	-43,018	0,146	0,053
-89,986	158,167	0,119	-0,120
-88,972	-48,395	0,055	-0,019
-87,957	431,561	-0,117	0,185
-86,943	488,283	-0,098	0,163
-85,928	-200,000	-0,022	0,123
-84,913	-115,673	0,096	0,013
-83,899	212,495	0,091	0,104
-82,884	776,408	0,023	0,046
-81,870	-200,000	0,033	-0,154
-80,855	-110,181	0,063	0,009
-79,840	-129,928	-0,208	0,020
-78,826	-94,295	-0,080	0,016
-77,811	-50,425	-0,080	0,027
-76,797	303,934	-0,009	0,012
-75,782	-35,728	0,111	0,044
-74,767	35,920	0,053	0,034
-73,753	122,562	0,026	-0,023
-72,738	-6,264	-0,014	-0,007
-71,724	-37,794	0,121	0,046
-70,709	123,901	-0,063	-0,057
-69,694	-13,013	-0,138	-0,065
-68,680	-11,382	0,116	0,055
-67,665	270,984	0,108	0,138
-66,651	-6,006	0,144	-0,071
-65,636	316,271	-0,087	0,120
-64,622	-79,194	0,051	-0,013
-63,607	-69,647	-0,097	0,027
-62,592	511,039	0,051	-0,087
-61,578	-165,426	0,016	0,000
-60,563	-200,000	0,011	0,118
-59,549	800,000	-0,029	0,080
-58,534	-128,055	-1,440	-0,148
-57,519	491,251	-0,829	-1,383
-56,505	-200,000	-0,867	-4,345
-55,490	12,047	0,626	-0,349
-54,476	800,000	5,051	11,716
-53,461	-200,000	13,888	254,540
-52,446	-200,000	693,192	2264,150
-51,432	601,215	1623,770	2938,627
-50,417	117,958	1633,328	1459,857
-49,403	73,587	1287,423	977,253
-48,388	37,468	1023,700	657,261
-47,373	23,989	981,965	586,115
-46,359	23,232	971,340	577,268
-45,344	22,157	967,101	571,211
-44,330	22,071	965,645	570,048
-43,315	21,971	964,227	568,864
-42,300	21,961	963,210	568,209
-41,286	21,933	962,295	567,554
-40,271	21,937	961,194	566,896
-39,257	21,890	960,293	566,190
-38,242	21,898	959,403	565,666
-37,227	21,913	958,660	565,257
-36,213	21,902	957,764	564,670
-35,198	21,840	956,865	563,917
-34,184	21,989	956,102	563,925
-33,169	21,915	955,135	563,093
-32,154	22,030	954,237	562,914
-31,140	21,958	953,389	562,158
-30,125	21,962	952,775	561,787
-29,111	21,933	951,958	561,190
-28,096	21,977	951,282	560,912
-27,082	21,992	950,499	560,474
-26,067	21,963	949,732	559,906
-25,052	21,979	948,987	559,498
-24,038	21,923	948,429	558,967
-23,023	21,888	947,676	558,388
-22,009	21,973	947,073	558,283
-20,994	21,987	946,358	557,884
-19,979	21,972	945,698	557,425
-18,965	21,926	945,196	556,960
-17,950	21,939	944,690	556,683
-16,936	21,907	943,872	556,074
-15,921	21,861	943,147	555,478
-14,906	21,873	942,435	555,077
-13,892	21,837	941,736	554,527
-12,877	21,871	941,151	554,271
-11,863	21,760	940,577	553,556
-10,848	21,816	940,132	553,451
-9,833	21,917	939,676	553,482
-8,819	21,893	938,830	552,884
-7,804	21,800	938,376	552,302
-6,790	21,807	937,632	551,863
-5,775	21,883	937,000	551,709
-4,760	21,817	936,369	551,109
-3,746	21,844	935,564	550,698
-2,731	21,718	935,201	550,063
-1,717	21,682	934,437	549,478
-0,702	21,668	933,629	548,939
0,313	21,403	933,290	548,732
1,327	23,933	930,740	555,139
2,342	31,474	809,123	503,052
3,356	26,111	509,707	307,701
4,371	1,746	374,729	195,107
5,386	-1,264	357,703	182,520
6,400	-2,165	351,792	178,396
7,415	-2,421	349,209	176,761
8,429	-2,116	347,792	176,395
9,444	-2,117	346,832	175,891
10,459	-2,235	346,364	175,497
11,473	-2,235	345,724	175,157
12,488	-2,281	345,049	174,744
13,502	-2,271	344,419	174,422
14,517	-2,121	343,955	174,350
15,531	-2,006	343,593	174,286
16,546	-1,837	343,067	174,203
17,561	-1,836	342,605	173,955
18,575	-1,946	342,417	173,714
19,590	-1,912	341,844	173,448
20,604	-1,805	341,544	173,406
21,619	-1,993	341,303	173,048
22,634	-1,859	340,829	172,949
23,648	-2,048	340,611	172,601
24,663	-2,031	340,275	172,435
25,677	-1,937	340,053	172,418
26,692	-1,979	339,541	172,094
27,707	-1,932	339,302	172,012
28,721	-1,856	339,087	171,976
29,736	-1,873	338,506	171,647
30,750	-2,010	338,434	171,436
31,765	-1,983	338,134	171,299
32,780	-1,977	337,874	171,158
33,794	-1,898	337,544	171,068
34,809	-1,942	337,250	170,853
35,823	-1,877	336,930	170,751
36,838	-1,902	336,666	170,573
37,853	-1,898	336,333	170,394
38,867	-1,959	336,071	170,175
39,882	-2,050	335,940	169,989
40,896	-1,776	335,587	170,110
41,911	-1,832	335,391	169,932
42,926	-1,655	334,865	169,853
43,940	-1,905	334,806	169,522
44,955	-2,047	334,493	169,184
45,969	-2,125	334,398	169,032
46,984	-1,971	334,129	169,057
47,999	-1,993	333,780	168,840
49,013	-1,832	333,547	168,892
50,028	-1,941	333,198	168,575
51,042	-1,878	332,898	168,481
52,057	-2,059	332,687	168,152
53,071	-2,086	332,464	167,993
54,086	-1,978	332,182	167,959
55,101	-1,985	332,149	167,920
56,115	-1,933	331,704	167,739
57,130	-1,910	331,330	167,561
58,144	-1,969	331,189	167,408
59,159	-2,056	330,800	167,097
60,174	-1,864	330,486	167,142
61,188	-1,978	330,483	166,995
62,203	-1,791	330,019	166,958
63,217	-1,932	329,804	166,676
64,232	-2,031	329,482	166,386
65,247	-2,097	329,177	166,142
66,261	-1,926	328,958	166,209
67,276	-2,084	328,769	165,921
68,290	-1,914	328,597	166,011
69,305	-1,897	328,231	165,831
70,320	-1,976	328,085	165,653
71,334	-1,933	327,911	165,599
72,349	-1,890	327,600	165,476
73,363	-1,934	327,136	165,177
74,378	-1,949	326,982	165,068
75,393	-2,037	326,749	164,837
76,407	-2,051	326,706	164,785
77,422	-1,765	326,154	164,811
78,436	-1,913	326,042	164,575
79,451	-2,041	325,725	164,258
80,466	-1,883	325,614	164,363
81,480	-2,031	325,282	164,016
82,495	-1,828	324,943	164,056
83,509	-1,933	324,744	163,825
84,524	-1,980	324,695	163,732
85,539	-1,901	324,327	163,620
86,553	-1,994	324,134	163,405
87,568	-1,893	323,788	163,329
88,582	-2,009	323,685	163,133
89,597	-1,746	323,370	163,251
90,611	-1,984	323,249	162,912
91,626	-1,867	322,836	162,819
92,641	-1,745	322,689	162,864
93,655	-1,974	322,490	162,497
94,670	-2,084	322,359	162,295
95,684	-1,825	322,040	162,405
96,699	-1,921	321,680	162,103
97,714	-1,850	321,467	162,059
98,728	-1,915	321,348	161,914
99,743	-1,843	320,968	161,787
100,757	-1,705	320,716	161,796
101,772	-2,023	320,573	161,361
102,787	-1,989	320,330	161,262
103,801	-1,997	319,972	161,059
104,816	-2,029	319,839	160,943
105,830	-1,874	319,572	160,963
106,845	-1,844	319,304	160,847
107,860	-1,924	319,188	160,687
108,874	-1,831	318,780	160,568
109,889	-1,961	318,579	160,311
110,903	-1,906	318,374	160,253
111,918	-1,954	318,108	160,053
112,933	-1,896	317,878	159,986
113,947	-1,898	317,783	159,922
114,962	-1,832	317,490	159,832
115,976	-1,909	317,168	159,572
116,991	-1,850	317,007	159,541
118,006	-1,966	316,918	159,356
119,020	-1,910	316,594	159,240
120,035	-1,850	316,492	159,239
121,049	-1,966	316,258	158,982
122,064	-1,895	316,080	158,955
123,079	-1,838	315,692	158,807
124,093	-1,832	315,474	158,690
125,108	-1,942	315,364	158,501
126,122	-1,911	315,121	158,398
127,137	-1,749	314,883	158,440
128,151	-1,975	314,761	158,121
129,166	-1,904	314,449	158,026
130,181	-1,999	314,225	157,797
131,195	-1,938	313,848	157,659
132,210	-2,018	313,654	157,463
133,224	-1,881	313,463	157,500
134,239	-2,054	313,250	157,193
135,254	-1,992	313,036	157,138
136,268	-1,977	312,723	156,983
137,283	-2,015	312,753	156,943
138,297	-2,010	312,379	156,747
139,312	-2,090	312,162	156,539
140,327	-2,060	311,971	156,461
141,341	-1,872	311,672	156,496
142,356	-2,000	311,515	156,268
143,370	-1,935	311,333	156,232
144,385	-1,802	310,957	156,171
145,400	-1,923	310,936	156,018
146,414	-1,926	310,699	155,882
147,429	-2,001	310,472	155,675
148,443	-1,878	310,152	155,629
149,458	-1,955	309,958	155,437
150,473	-1,955	309,789	155,339
151,487	-2,015	309,690	155,212
152,502	-1,886	309,305	155,141
153,516	-1,835	309,136	155,096
154,531	-1,802	308,855	154,976
155,546	-1,846	308,647	154,811
156,560	-1,903	308,523	154,676
157,575	-1,943	308,235	154,476
158,589	-1,832	307,971	154,446
159,604	-2,022	307,745	154,120
160,619	-1,804	307,650	154,286
161,633	-1,716	307,447	154,263
162,648	-1,713	307,250	154,154
163,662	-1,792	307,010	153,937
164,677	-1,840	306,846	153,791
165,692	-1,689	306,588	153,806
166,706	-1,738	306,480	153,686
167,721	-1,646	306,186	153,621
168,735	-1,786	305,991	153,363
169,750	-1,934	305,847	153,124
170,764	-1,990	305,647	152,952
171,779	-1,958	305,423	152,860
172,794	-1,772	305,075	152,865
173,808	-1,764	305,050	152,847
174,823	-2,001	304,906	152,515
175,837	-1,909	304,608	152,449
176,852	-1,881	304,182	152,250
177,867	-1,922	304,154	152,181
178,881	-2,004	304,114	152,062
179,896	-1,781	303,780	152,112
180,910	-1,949	303,400	151,734
181,925	-1,764	303,295	151,859
182,940	-1,881	303,221	151,688
183,954	-1,926	303,122	151,579
184,969	-1,741	302,782	151,585
185,983	-1,736	302,747	151,559
186,998	-1,768	302,435	151,357
188,013	-1,800	302,227	151,207
189,027	-1,763	301,956	151,095
190,042	-1,876	301,728	150,853
191,056	-1,900	301,579	150,740
192,071	-1,949	301,191	150,482
193,086	-1,844	300,908	150,435
194,100	-1,945	300,869	150,299
195,115	-1,851	300,707	150,301
196,129	-1,906	300,415	150,085
197,144	-1,924	300,268	149,979
198,159	-1,960	300,036	149,813
199,173	-1,994	299,804	149,651
200,188	-1,921	299,511	149,564
201,202	-2,114	299,348	149,274
202,217	-1,855	299,182	149,441
203,232	-1,894	299,030	149,312
204,246	-1,854	298,807	149,228
205,261	-1,945	298,728	149,083
206,275	-1,749	298,332	149,070
207,290	-1,637	298,168	149,087
208,304	-1,746	298,056	148,909
209,319	-1,777	297,855	148,763
210,334	-1,759	297,543	148,612
211,348	-1,895	297,367	148,374
212,363	-1,689	297,178	148,474
213,377	-1,608	296,885	148,396
214,392	-1,863	296,698	148,033
215,407	-1,810	296,641	148,044
216,421	-1,873	296,419	147,857
217,436	-1,870	296,224	147,749
218,450	-1,882	295,920	147,573
219,465	-1,865	295,660	147,447
220,480	-1,869	295,629	147,415
221,494	-1,916	295,368	147,225
222,509	-1,932	295,299	147,161
223,523	-1,822	295,096	147,156
224,538	-2,069	294,888	146,794
225,553	-1,892	294,724	146,875
226,567	-1,802	294,495	146,838
227,582	-1,788	294,310	146,745
228,596	-1,907	294,075	146,497
229,611	-1,932	293,846	146,345
230,626	-1,771	293,656	146,398
231,640	-1,827	293,631	146,316
232,655	-1,754	293,339	146,230
233,669	-1,802	293,106	146,054
234,684	-2,002	293,023	145,801
235,699	-1,820	292,692	145,803
236,713	-1,697	292,416	145,775
237,728	-1,871	292,308	145,536
238,742	-1,849	292,004	145,394
239,757	-1,716	291,792	145,406
240,772	-1,725	291,655	145,316
241,786	-1,970	291,493	144,980
242,801	-1,903	291,384	144,979
243,815	-1,847	291,137	144,899
244,830	-1,959	291,007	144,711
245,844	-1,826	290,682	144,667
246,859	-1,855	290,477	144,523
247,874	-1,913	290,325	144,378
248,888	-2,007	290,113	144,168
249,903	-2,012	289,938	144,063
250,917	-2,075	289,777	143,909
251,932	-2,138	289,595	143,744
252,947	-2,175	289,241	143,520
253,961	-2,889	288,758	142,571
254,976	-3,348	288,406	141,938
255,990	-3,410	288,321	141,824
257,005	-2,346	288,623	142,995
258,020	0,123	289,355	145,752
259,034	1,532	289,814	147,345
260,049	1,832	289,943	147,689
261,063	2,345	289,797	148,102
262,078	2,712	289,741	148,417
263,093	2,766	289,721	148,447
264,107	2,968	289,540	148,538
265,122	3,324	289,358	148,776
266,136	3,447	289,093	148,746
267,151	3,218	289,111	148,520
268,166	3,325	288,982	148,544
269,180	3,286	288,806	148,403
270,195	3,320	288,508	148,269
271,209	3,230	288,475	148,152
272,224	3,268	288,091	147,978
273,239	3,220	287,866	147,803
274,253	3,028	287,669	147,504
275,268	3,194	287,491	147,559
276,282	3,151	287,210	147,361
277,297	3,010	287,025	147,117
278,312	3,346	286,815	147,320
279,326	3,200	286,675	147,093
280,341	2,982	286,478	146,771
281,355	3,088	286,314	146,774
282,370	3,023	286,086	146,582
283,384	3,080	285,801	146,478
284,399	3,094	285,662	146,407
285,414	3,001	285,678	146,313
286,428	3,062	285,392	146,211
287,443	3,012	285,118	146,011
288,457	2,750	284,994	145,684
289,472	2,916	284,747	145,703
290,487	2,939	284,462	145,566
291,501	2,925	284,407	145,511
292,516	2,931	284,211	145,404
293,530	2,750	284,085	145,154
294,545	3,143	283,836	145,388
295,560	3,139	283,510	145,204
296,574	2,771	283,508	144,840
297,589	2,604	283,241	144,534
298,603	2,740	282,933	144,492
299,618	2,832	282,902	144,551
300,633	2,739	282,838	144,416
301,647	2,772	282,714	144,372
302,662	2,977	282,518	144,453
303,676	3,126	282,441	144,541
304,691	3,255	281,929	144,388
305,706	3,359	281,983	144,501
306,720	3,265	281,941	144,377
307,735	3,310	281,615	144,240
308,749	3,148	281,515	144,024
309,764	3,104	281,281	143,850
310,779	3,180	281,119	143,826
311,793	3,228	280,795	143,692
312,808	3,079	280,572	143,425
313,822	3,115	280,429	143,373
314,837	3,219	280,266	143,374
315,852	3,033	280,018	143,061
316,866	3,229	279,915	143,178
317,881	3,193	279,742	143,044
318,895	3,170	279,465	142,868
319,910	3,072	279,425	142,743
320,925	3,166	279,089	142,647
321,939	3,050	279,067	142,515
322,954	3,129	278,757	142,418
323,968	3,322	278,692	142,550
324,983	3,171	278,549	142,325
325,997	3,322	278,353	142,352
327,012	3,457	278,231	142,402
328,027	3,365	277,993	142,183
329,041	3,406	277,731	142,074
330,056	3,221	277,701	141,874
331,070	3,306	277,431	141,803
332,085	3,207	277,263	141,612
333,100	3,240	277,044	141,518
334,114	3,296	276,940	141,504
335,129	3,111	276,745	141,221
336,143	3,229	276,596	141,241
337,158	3,352	276,387	141,236
338,173	3,231	276,209	141,020
339,187	3,347	276,019	141,018
340,202	3,297	275,845	140,871
341,216	3,363	275,513	140,749
342,231	3,157	275,598	140,590
343,246	3,111	275,400	140,434
344,260	3,213	275,139	140,382
345,275	3,318	275,035	140,413
346,289	3,391	274,860	140,378
347,304	3,391	274,667	140,267
348,319	3,221	274,458	139,992
349,333	3,301	274,226	139,934
350,348	3,206	274,152	139,798
351,362	3,386	273,966	139,855
352,377	3,374	273,683	139,687
353,392	3,267	273,638	139,554
354,406	3,209	273,372	139,353
355,421	192,215	1350,794	1433,910
356,435	155,222	1482,171	1434,042
