DTS Sentinel unit serial number:	SN410029Multiplexer serial number:	ORYXHardware model number:	OX2-SRSoftware version number:	ORYX F/W v4,00 Oryx Data Collector v3.7.2.0data status	okinstallation	B4 Nyhavnadifferential loss correction	single-endedforward channel	channel 2reverse channel	N/Adate	2023/12/15time	14:30:13forward acquisition time	300,00reverse acquisition time	0,00gamma	499,1914k internal	0,3160k external	0,3160temperature offset calibration	1,0000default loss term (dB/km)	0,3820temperature slope calibration	1,0000multiplexer offset coefficient	1,0000multiplexer slope coefficient	1,0000fibre end	0,00T internal ref (°C)	15,04T ext. ref 1 (°C)	1,63T ext. ref 2 (°C)	1,79length (m)	temperature (°C)	Stokes	anti-Stokes-744,400	-18,882	0,225	0,103
-743,385	-189,996	-0,345	-0,003
-742,371	-20,331	0,166	0,075
-741,356	-76,843	-0,310	-0,079
-740,342	-99,459	0,328	0,060
-739,327	-35,770	-0,294	-0,117
-738,312	361,494	0,091	-0,134
-737,298	-109,397	-0,239	0,037
-736,283	-34,204	0,194	0,078
-735,269	18,658	-0,210	-0,123
-734,254	142,642	0,079	0,077
-733,239	-86,732	-0,625	-0,140
-732,225	-23,906	0,198	0,087
-731,210	-87,387	-0,151	0,033
-730,196	-200,000	0,001	-0,067
-729,181	-2,640	-0,135	0,070
-728,167	-13,756	-0,077	0,037
-727,152	-161,004	-0,083	0,003
-726,137	-200,000	0,010	0,115
-725,123	263,802	-0,101	0,130
-724,108	-171,603	-0,126	-0,003
-723,094	-88,981	0,113	0,024
-722,079	-200,000	-0,041	-0,179
-721,064	-112,462	-0,175	-0,025
-720,050	-126,698	0,047	0,005
-719,035	-200,000	-0,001	-0,038
-718,021	-11,463	-0,296	-0,143
-717,006	132,656	0,081	-0,077
-715,991	-22,136	-0,108	-0,048
-714,977	5,412	-0,035	0,019
-713,962	-94,007	-0,021	0,004
-712,948	683,557	-0,035	0,067
-711,933	-200,000	0,016	-0,081
-710,918	-200,000	0,001	-0,068
-709,904	-50,636	-0,070	-0,024
-708,889	800,000	-0,020	-0,049
-707,875	-100,519	-0,145	-0,026
-706,860	-15,977	0,070	0,033
-705,845	-61,810	-0,056	0,017
-704,831	-35,087	-0,098	-0,039
-703,816	41,834	-0,049	-0,033
-702,802	246,252	0,099	-0,123
-701,787	81,698	-0,091	0,072
-700,772	44,375	-0,057	-0,038
-699,758	800,000	-0,029	-0,071
-698,743	131,527	0,061	-0,058
-697,729	-153,568	0,060	-0,003
-696,714	381,589	0,050	0,075
-695,699	-81,262	0,055	-0,013
-694,685	-87,371	-0,137	0,030
-693,670	800,000	-0,033	0,077
-692,656	-132,813	0,213	-0,020
-691,641	32,861	-0,044	0,028
-690,627	-200,000	-0,005	-0,138
-689,612	-200,000	-0,020	-0,187
-688,597	69,521	-0,043	-0,032
-687,583	508,063	-0,123	-0,210
-686,568	560,103	-0,068	0,121
-685,554	800,000	0,051	-0,117
-684,539	800,000	0,017	-0,036
-683,524	-149,621	-0,079	-0,005
-682,510	104,969	-0,052	0,045
-681,495	-88,662	-0,038	-0,008
-680,481	-200,000	-0,016	-0,139
-679,466	606,985	0,042	-0,077
-678,451	-200,000	0,043	-0,161
-677,437	785,504	0,051	0,104
-676,422	83,983	0,025	0,020
-675,408	143,187	-0,076	-0,075
-674,393	800,000	-0,058	-0,186
-673,378	62,818	-0,028	0,021
-672,364	-200,000	-0,023	0,081
-671,349	-200,000	-0,010	-0,121
-670,335	170,672	-0,110	-0,116
-669,320	-183,595	-0,024	-0,000
-668,305	51,049	-0,197	0,137
-667,291	-182,335	0,136	-0,002
-666,276	121,057	0,053	0,048
-665,262	800,000	0,013	0,028
-664,247	122,036	0,124	-0,114
-663,232	-135,463	0,047	0,004
-662,218	365,536	0,092	0,137
-661,203	82,505	-0,034	-0,027
-660,189	-1,356	0,011	0,005
-659,174	-72,806	-0,261	-0,070
-658,159	-53,738	-0,151	-0,050
-657,145	800,000	-0,051	-0,146
-656,130	-6,453	0,082	-0,041
-655,116	-162,632	-0,089	0,003
-654,101	247,837	0,053	-0,065
-653,086	-135,247	-0,037	-0,003
-652,072	106,785	-0,015	0,013
-651,057	410,064	0,069	-0,108
-650,043	-5,538	0,061	-0,031
-649,028	60,810	0,038	-0,028
-648,014	-72,676	0,131	-0,035
-646,999	54,618	0,058	0,041
-645,984	173,413	0,053	0,056
-644,970	572,222	-0,015	-0,027
-643,955	233,075	-0,114	-0,138
-642,941	-200,000	0,083	-0,280
-641,926	354,016	-0,044	0,064
-640,911	517,586	-0,027	-0,046
-639,897	-97,516	0,048	0,009
-638,882	-200,000	-0,024	-0,087
-637,868	151,588	-0,126	-0,126
-636,853	496,612	-0,094	-0,159
-635,838	142,384	-0,004	-0,004
-634,824	-200,000	0,001	-0,092
-633,809	235,975	0,014	0,016
-632,795	70,712	0,044	0,034
-631,780	41,462	0,094	-0,062
-630,765	-101,744	-0,075	-0,013
-629,751	658,855	-0,054	-0,103
-628,736	164,078	0,028	-0,029
-627,722	-200,000	0,015	0,094
-626,707	800,000	-0,041	0,085
-625,692	-200,000	-0,008	0,071
-624,678	-200,000	-0,016	-0,074
-623,663	-200,000	-0,009	-0,068
-622,649	800,000	-0,022	-0,067
-621,634	19,677	-0,152	0,090
-620,619	800,000	-0,024	0,066
-619,605	115,255	-0,078	0,070
-618,590	145,796	0,125	0,123
-617,576	9,124	0,128	0,070
-616,561	323,416	0,109	0,153
-615,546	-200,000	-0,010	0,063
-614,532	191,986	-0,096	-0,106
-613,517	410,094	-0,106	0,165
-612,503	166,822	-0,025	-0,026
-611,488	-200,000	0,026	0,118
-610,474	156,192	-0,029	0,029
-609,459	-45,219	0,071	0,026
-608,444	353,666	-0,095	0,139
-607,430	-200,000	-0,014	-0,077
-606,415	-200,000	-0,018	-0,123
-605,401	-200,000	0,010	-0,053
-604,386	330,600	0,046	-0,065
-603,371	-200,000	-0,014	0,078
-602,357	800,000	-0,052	-0,114
-601,342	-200,000	-0,053	-0,303
-600,328	-200,000	0,030	0,114
-599,313	84,050	-0,054	-0,043
-598,298	-81,764	-0,076	0,018
-597,284	102,496	0,092	0,079
-596,269	-200,000	0,001	0,057
-595,255	-54,688	-0,098	-0,032
-594,240	-200,000	-0,014	-0,076
-593,225	599,692	-0,057	-0,104
-592,211	91,622	-0,077	-0,063
-591,196	-200,000	0,007	-0,085
-590,182	800,000	-0,011	0,028
-589,167	-104,494	-0,112	-0,019
-588,152	-8,573	-0,101	0,049
-587,138	367,408	-0,011	0,016
-586,123	800,000	-0,018	-0,039
-585,109	-200,000	-0,106	0,000
-584,094	331,885	-0,053	-0,074
-583,079	175,382	0,073	0,077
-582,065	-54,894	-0,017	0,005
-581,050	-200,000	0,001	0,049
-580,036	-35,885	-0,033	0,013
-579,021	-200,000	-0,015	0,140
-578,006	-60,521	-0,071	-0,022
-576,992	-47,003	-0,051	-0,018
-575,977	256,196	0,065	0,081
-574,963	775,832	-0,028	0,056
-573,948	-60,277	-0,110	-0,034
-572,934	-73,673	-0,083	0,022
-571,919	356,589	-0,007	0,011
-570,904	437,815	0,063	-0,101
-569,890	-200,000	0,028	-0,093
-568,875	-200,000	-0,014	0,045
-567,861	420,995	-0,105	0,165
-566,846	144,591	0,078	0,076
-565,831	-77,943	0,072	-0,018
-564,817	-20,215	-0,054	-0,024
-563,802	112,196	0,007	0,006
-562,788	-200,000	0,013	0,125
-561,773	-200,000	0,007	-0,037
-560,758	-42,208	0,033	0,012
-559,744	-200,000	0,015	0,085
-558,729	88,556	0,070	0,057
-557,715	-200,000	0,004	-0,020
-556,700	613,137	-0,043	-0,078
-555,685	158,977	-0,180	-0,183
-554,671	167,081	0,050	0,052
-553,656	100,707	0,061	0,052
-552,642	-113,656	0,130	0,018
-551,627	-129,262	-0,035	0,003
-550,612	-41,222	-0,036	0,014
-549,598	-200,000	-0,008	0,041
-548,583	131,275	0,064	0,060
-547,569	66,213	-0,049	0,036
-546,554	5,938	0,070	-0,038
-545,539	676,274	0,003	0,005
-544,525	800,000	-0,033	0,082
-543,510	-200,000	0,011	0,178
-542,496	-165,154	0,094	-0,003
-541,481	-83,998	-0,116	0,027
-540,466	-93,775	0,158	0,031
-539,452	96,965	0,029	0,024
-538,437	-200,000	-0,006	0,064
-537,423	-165,705	-0,055	-0,002
-536,408	49,849	-0,071	-0,049
-535,393	14,949	0,064	-0,037
-534,379	-34,210	-0,093	-0,037
-533,364	254,017	-0,094	0,117
-532,350	-27,726	-0,117	-0,049
-531,335	-168,569	0,084	0,002
-530,321	294,505	-0,110	-0,147
-529,306	-44,588	-0,053	0,019
-528,291	452,454	-0,010	-0,016
-527,277	207,424	0,047	-0,053
-526,262	135,109	-0,054	0,052
-525,248	-200,000	0,006	-0,094
-524,233	-200,000	-0,004	0,112
-523,218	-97,767	-0,081	-0,015
-522,204	-4,847	0,034	-0,017
-521,189	81,584	-0,074	0,059
-520,175	800,000	-0,067	-0,144
-519,160	800,000	-0,021	-0,059
-518,145	-200,000	-0,005	0,044
-517,131	302,764	0,066	0,089
-516,116	800,000	-0,005	-0,012
-515,102	160,125	0,116	-0,118
-514,087	-200,000	0,011	-0,073
-513,072	212,751	-0,075	-0,086
-512,058	800,000	0,035	-0,111
-511,043	87,974	0,073	0,059
-510,029	201,693	0,023	-0,026
-509,014	324,782	0,031	0,043
-507,999	-200,000	-0,014	-0,140
-506,985	-116,612	0,046	0,006
-505,970	-200,000	-0,003	-0,058
-504,956	-200,000	0,018	-0,078
-503,941	-28,777	0,029	0,012
-502,926	-200,000	0,014	-0,121
-501,912	170,197	0,067	0,070
-500,897	-85,483	-0,076	-0,017
-499,883	548,251	0,073	-0,129
-498,868	-200,000	0,026	-0,105
-497,853	388,316	0,034	-0,052
-496,839	800,000	-0,040	0,110
-495,824	-200,000	0,004	-0,014
-494,810	155,909	-0,043	-0,043
-493,795	-200,000	0,006	-0,033
-492,781	-44,838	-0,204	-0,074
-491,766	-32,533	-0,077	0,031
-490,751	85,985	0,102	-0,082
-489,737	-65,264	-0,164	-0,048
-488,722	-69,182	0,101	0,028
-487,708	-152,579	0,036	0,002
-486,693	-119,599	-0,147	0,018
-485,678	391,311	-0,038	-0,058
-484,664	671,495	-0,095	-0,181
-483,649	-200,000	-0,007	-0,211
-482,635	-184,091	0,158	0,002
-481,620	800,000	-0,027	0,079
-480,605	346,481	0,038	-0,054
-479,591	294,344	-0,023	-0,030
-478,576	513,828	-0,083	0,141
-477,562	244,537	-0,079	-0,097
-476,547	-71,887	0,150	-0,040
-475,532	-105,105	-0,131	0,022
-474,518	-143,708	-0,080	-0,005
-473,503	166,176	0,049	0,050
-472,489	-200,000	-0,011	-0,060
-471,474	-86,235	0,040	-0,009
-470,459	-200,000	-0,006	-0,070
-469,445	28,510	-0,073	-0,045
-468,430	800,000	-0,037	-0,118
-467,416	-143,899	0,068	-0,005
-466,401	22,215	0,119	-0,070
-465,386	-170,345	-0,098	-0,002
-464,372	86,603	-0,056	0,045
-463,357	800,000	-0,011	-0,033
-462,343	696,651	-0,057	0,111
-461,328	-149,373	-0,114	0,007
-460,313	-13,988	0,078	-0,037
-459,299	-200,000	0,012	-0,074
-458,284	202,043	0,101	0,113
-457,270	114,900	0,120	0,107
-456,255	42,237	-0,039	0,026
-455,241	-138,860	0,003	0,000
-454,226	137,987	-0,009	0,009
-453,211	-200,000	-0,008	0,075
-452,197	64,727	-0,049	0,036
-451,182	-46,444	0,156	-0,056
-450,168	95,943	-0,053	0,044
-449,153	244,083	-0,096	-0,118
-448,138	102,881	0,088	0,075
-447,124	463,154	0,017	0,027
-446,109	-102,659	-0,025	0,004
-445,095	-200,000	0,018	0,113
-444,080	78,418	0,114	-0,089
-443,065	800,000	-0,049	0,112
-442,051	-200,000	0,016	0,077
-441,036	34,969	0,099	0,063
-440,022	32,414	-0,091	-0,057
-439,007	190,252	-0,030	-0,033
-437,992	245,924	0,063	0,077
-436,978	17,391	0,170	0,098
-435,963	140,935	0,091	0,088
-434,949	437,629	-0,062	0,099
-433,934	800,000	0,054	-0,163
-432,919	-200,000	0,013	-0,047
-431,905	-200,000	0,010	0,043
-430,890	561,870	-0,034	0,060
-429,876	-48,872	-0,118	0,041
-428,861	236,043	0,074	0,089
-427,846	-109,256	-0,111	-0,017
-426,832	335,245	-0,061	0,086
-425,817	80,121	0,044	0,034
-424,803	-162,060	0,065	-0,002
-423,788	-200,000	-0,007	0,084
-422,773	681,312	0,072	0,138
-421,759	-200,000	0,028	0,137
-420,744	396,152	0,049	0,075
-419,730	-53,456	-0,049	-0,016
-418,715	-200,000	-0,069	0,224
-417,701	-200,000	-0,002	0,172
-416,686	-148,034	0,018	-0,001
-415,671	-200,000	-0,005	0,051
-414,657	143,887	0,119	0,116
-413,642	-146,807	0,068	-0,004
-412,628	-44,857	0,032	0,012
-411,613	113,045	0,021	-0,019
-410,598	-38,339	0,079	-0,030
-409,584	-200,000	0,000	0,035
-408,569	-200,000	-0,022	0,114
-407,555	-54,198	0,152	0,050
-406,540	45,958	-0,070	0,047
-405,525	800,000	0,048	-0,108
-404,511	-19,586	-0,053	-0,024
-403,496	800,000	0,052	-0,143
-402,482	-106,116	0,093	-0,015
-401,467	65,515	-0,035	0,026
-400,452	505,210	0,027	-0,045
-399,438	98,814	-0,073	-0,061
-398,423	-18,983	-0,081	0,037
-397,409	-143,957	0,041	-0,003
-396,394	-84,251	-0,063	0,014
-395,379	-200,000	0,005	0,086
-394,365	618,208	0,030	0,055
-393,350	800,000	0,032	0,103
-392,336	69,937	0,051	-0,038
-391,321	800,000	-0,005	-0,015
-390,306	-77,466	0,054	-0,014
-389,292	93,041	0,049	-0,041
-388,277	-153,857	-0,101	-0,005
-387,263	644,642	0,031	-0,058
-386,248	87,269	0,128	-0,103
-385,233	226,073	0,029	-0,035
-384,219	75,855	0,058	0,045
-383,204	7,092	0,048	-0,026
-382,190	-135,252	-0,232	0,020
-381,175	686,760	0,010	-0,020
-380,160	70,785	0,026	0,020
-379,146	22,388	0,083	0,049
-378,131	-96,764	-0,120	-0,023
-377,117	-200,000	0,043	0,142
-376,102	-200,000	-0,003	-0,144
-375,088	131,504	-0,086	-0,080
-374,073	-200,000	-0,017	0,068
-373,058	199,609	0,095	-0,105
-372,044	800,000	0,011	0,022
-371,029	800,000	-0,043	0,100
-370,015	-200,000	0,012	0,084
-369,000	-200,000	0,003	-0,089
-367,985	-162,254	-0,288	-0,010
-366,971	-40,847	0,120	0,045
-365,956	-200,000	0,014	0,057
-364,942	143,530	-0,059	0,057
-363,927	-112,333	0,094	-0,013
-362,912	-12,541	-0,034	0,016
-361,898	148,156	-0,027	-0,026
-360,883	145,237	0,153	-0,149
-359,869	-117,064	-0,055	0,007
-358,854	71,509	0,056	0,042
-357,839	-177,657	0,052	0,001
-356,825	-20,444	0,185	-0,082
-355,810	-21,112	0,064	0,028
-354,796	-200,000	-0,010	0,036
-353,781	-94,006	-0,069	0,014
-352,766	465,576	-0,044	0,072
-351,752	-143,285	0,031	-0,002
-350,737	-12,068	0,080	-0,038
-349,723	-14,586	0,105	0,049
-348,708	-125,148	-0,071	0,008
-347,693	-69,373	0,086	-0,024
-346,679	-31,618	-0,096	0,039
-345,664	-105,884	-0,133	0,022
-344,650	-54,940	0,086	0,028
-343,635	-167,958	0,133	0,004
-342,620	-85,743	0,052	0,012
-341,606	-200,000	-0,007	0,063
-340,591	-200,000	-0,019	0,077
-339,577	-200,000	-0,017	-0,069
-338,562	93,196	-0,078	-0,064
-337,548	46,449	0,039	0,026
-336,533	15,359	0,005	-0,003
-335,518	800,000	0,042	-0,102
-334,504	-33,771	-0,067	0,027
-333,489	276,081	0,085	-0,109
-332,475	800,000	-0,055	0,114
-331,460	-151,096	0,097	0,005
-330,445	203,367	-0,033	0,037
-329,431	-200,000	-0,008	0,124
-328,416	9,533	-0,026	0,014
-327,402	-200,000	-0,020	-0,067
-326,387	-98,456	-0,118	0,022
-325,372	800,000	-0,048	-0,109
-324,358	-200,000	-0,004	0,058
-323,343	800,000	0,032	0,084
-322,329	-200,000	-0,051	-0,214
-321,314	65,066	0,015	-0,011
-320,299	-11,517	0,030	0,014
-319,285	-96,973	0,071	0,013
-318,270	800,000	-0,025	-0,077
-317,256	-24,611	-0,159	-0,068
-316,241	-200,000	-0,010	0,052
-315,226	-64,756	0,097	-0,028
-314,212	314,213	-0,076	0,105
-313,197	402,459	0,060	0,091
-312,183	-26,410	0,201	0,085
-311,168	-200,000	0,011	-0,043
-310,153	-200,000	-0,015	0,065
-309,139	800,000	0,062	-0,150
-308,124	-200,000	-0,020	-0,066
-307,110	128,417	0,032	0,030
-306,095	306,512	0,039	0,053
-305,080	121,095	0,048	-0,043
-304,066	-56,919	0,028	0,009
-303,051	-200,000	0,016	-0,152
-302,037	-200,000	-0,003	-0,016
-301,022	-32,194	0,047	-0,019
-300,008	187,490	0,024	0,026
-298,993	-8,974	0,006	-0,003
-297,978	28,729	-0,042	0,026
-296,964	-200,000	-0,034	0,000
-295,949	-26,344	-0,061	0,026
-294,935	122,055	0,115	0,103
-293,920	800,000	0,021	-0,060
-292,905	-47,534	0,057	-0,020
-291,891	-98,101	-0,110	-0,020
-290,876	-16,868	0,076	0,035
-289,862	765,613	0,019	0,038
-288,847	800,000	-0,020	0,054
-287,832	146,848	0,049	-0,048
-286,818	95,356	-0,048	0,039
-285,803	97,652	0,121	0,100
-284,789	111,233	-0,031	0,027
-283,774	-80,024	0,097	0,023
-282,759	718,087	-0,025	0,048
-281,745	800,000	-0,059	0,138
-280,730	108,837	-0,011	0,009
-279,716	-127,114	-0,085	-0,009
-278,701	146,140	-0,117	0,114
-277,686	178,857	0,084	0,089
-276,672	800,000	0,042	0,129
-275,657	-70,529	-0,065	-0,018
-274,643	216,837	-0,018	0,021
-273,628	-20,169	0,039	-0,017
-272,613	-200,000	0,009	-0,068
-271,599	-116,825	0,031	-0,004
-270,584	-160,186	0,075	-0,003
-269,570	193,737	0,074	0,081
-268,555	-200,000	0,033	-0,165
-267,540	800,000	-0,047	0,098
-266,526	-200,000	-0,104	0,000
-265,511	32,649	-0,076	0,047
-264,497	-61,772	-0,187	-0,056
-263,482	-200,000	0,011	0,141
-262,467	205,456	-0,016	-0,018
-261,453	56,351	-0,051	-0,036
-260,438	-139,902	-0,046	0,003
-259,424	-58,361	0,117	0,036
-258,409	300,573	-0,095	-0,126
-257,395	-143,984	0,082	-0,005
-256,380	-10,650	0,075	0,036
-255,365	-5,545	-0,026	-0,013
-254,351	-200,000	0,001	0,005
-253,336	-73,200	0,041	0,011
-252,322	70,423	0,086	0,064
-251,307	213,711	-0,023	0,027
-250,292	-200,000	-0,011	0,079
-249,278	-93,436	-0,130	0,026
-248,263	132,739	-0,026	0,024
-247,249	-80,810	0,083	0,020
-246,234	-77,175	-0,098	-0,024
-245,219	58,424	0,031	0,022
-244,205	128,948	0,024	-0,022
-243,190	254,479	0,047	-0,058
-242,176	800,000	0,022	-0,046
-241,161	800,000	-0,032	0,073
-240,146	-200,000	0,025	-0,084
-239,132	246,010	0,045	-0,055
-238,117	344,248	-0,034	-0,049
-237,103	117,783	0,055	-0,049
-236,088	49,023	0,031	0,021
-235,073	455,327	0,041	0,066
-234,059	60,134	-0,099	0,071
-233,044	-139,036	0,093	0,007
-232,030	413,113	0,043	-0,067
-231,015	-200,000	0,012	-0,132
-230,000	198,575	0,072	-0,080
-228,986	800,000	-0,049	0,143
-227,971	15,893	0,051	0,029
-226,957	-200,000	0,012	-0,101
-225,942	-200,000	-0,022	0,105
-224,927	-200,000	-0,001	0,027
-223,913	-61,023	-0,164	-0,050
-222,898	429,159	-0,038	-0,060
-221,884	-200,000	0,016	0,088
-220,869	34,885	-0,027	-0,017
-219,855	63,204	0,052	0,037
-218,840	-16,957	-0,017	0,008
-217,825	213,734	0,020	-0,023
-216,811	537,184	-0,050	0,087
-215,796	-54,812	0,175	-0,057
-214,782	-200,000	0,004	-0,022
-213,767	-200,000	-0,024	0,081
-212,752	79,464	-0,030	-0,023
-211,738	12,831	-0,121	-0,067
-210,723	244,682	0,091	0,111
-209,709	49,320	-0,102	0,069
-208,694	67,954	0,140	-0,103
-207,679	59,197	-0,115	-0,081
-206,665	-153,211	0,049	-0,002
-205,650	-65,169	0,157	-0,045
-204,636	-68,444	-0,093	0,026
-203,621	13,178	-0,017	-0,009
-202,606	-200,000	0,012	0,041
-201,592	78,225	-0,067	-0,052
-200,577	-28,608	-0,149	-0,062
-199,563	-200,000	0,005	0,053
-198,548	-200,000	-0,028	-0,092
-197,533	-200,000	0,001	-0,084
-196,519	-200,000	-0,028	0,224
-195,504	-26,476	-0,073	0,031
-194,490	282,649	-0,055	-0,071
-193,475	-200,000	0,007	-0,084
-192,460	218,981	0,069	-0,080
-191,446	-200,000	-0,027	-0,140
-190,431	70,000	-0,148	-0,110
-189,417	18,626	0,168	0,096
-188,402	38,737	-0,023	0,015
-187,387	99,150	-0,094	0,078
-186,373	0,131	-0,147	-0,075
-185,358	-200,000	-0,016	-0,066
-184,344	105,656	0,062	0,053
-183,329	-116,242	0,159	0,021
-182,315	-200,000	0,006	0,026
-181,300	800,000	0,013	-0,040
-180,285	535,695	-0,081	-0,139
-179,271	13,532	-0,079	0,044
-178,256	24,990	0,034	-0,020
-177,242	-200,000	-0,018	0,069
-176,227	800,000	0,022	-0,045
-175,212	213,056	-0,050	0,057
-174,198	800,000	0,023	0,054
-173,183	39,995	0,130	0,084
-172,169	43,400	-0,012	-0,008
-171,154	688,928	-0,024	-0,045
-170,139	-28,704	-0,017	0,007
-169,125	24,687	0,051	-0,030
-168,110	10,676	0,169	0,093
-167,096	800,000	0,032	-0,091
-166,081	-200,000	0,026	-0,098
-165,066	0,408	-0,054	-0,028
-164,052	17,472	-0,062	-0,035
-163,037	376,719	0,040	0,059
-162,023	38,467	0,153	-0,098
-161,008	60,364	0,040	0,029
-159,993	14,898	0,044	-0,025
-158,979	-200,000	0,005	-0,151
-157,964	-200,000	0,010	-0,105
-156,950	-200,000	0,005	-0,090
-155,935	-34,676	-0,077	-0,030
-154,920	-160,982	0,091	0,003
-153,906	-200,000	-0,021	0,079
-152,891	800,000	0,024	-0,060
-151,877	151,576	-0,083	-0,082
-150,862	800,000	0,017	-0,050
-149,847	16,351	0,048	0,027
-148,833	68,603	0,176	-0,129
-147,818	-200,000	-0,001	-0,047
-146,804	-5,372	-0,102	0,050
-145,789	178,784	0,043	-0,045
-144,775	21,998	-0,203	0,119
-143,760	547,770	0,055	0,095
-142,745	-21,738	-0,054	-0,024
-141,731	49,780	0,102	-0,069
-140,716	-200,000	-0,012	0,058
-139,702	303,135	-0,018	-0,024
-138,687	631,524	-0,066	0,122
-137,672	-200,000	0,029	0,095
-136,658	90,486	0,151	-0,121
-135,643	-200,000	-0,027	-0,096
-134,629	800,000	-0,054	-0,117
-133,614	7,766	0,126	-0,068
-132,599	518,582	-0,040	0,068
-131,585	16,330	-0,040	0,023
-130,570	800,000	0,044	-0,099
-129,556	13,929	-0,076	-0,042
-128,541	800,000	-0,020	-0,041
-127,526	-192,273	0,126	-0,001
-126,512	54,762	-0,089	-0,062
-125,497	-111,967	-0,073	0,011
-124,483	-72,908	0,049	0,013
-123,468	-102,744	-0,055	-0,009
-122,453	-110,387	0,195	-0,029
-121,439	131,359	-0,043	0,039
-120,424	432,686	0,033	0,051
-119,410	-118,924	0,070	0,009
-118,395	-68,649	-0,098	0,027
-117,380	-200,000	-0,045	0,173
-116,366	-200,000	0,021	0,111
-115,351	166,696	0,069	-0,071
-114,337	598,117	-0,097	-0,173
-113,322	-200,000	-0,008	-0,038
-112,307	270,174	0,074	-0,093
-111,293	-200,000	0,010	0,096
-110,278	-4,620	-0,118	0,058
-109,264	-6,765	-0,157	0,077
-108,249	-156,258	-0,123	-0,005
-107,234	113,686	-0,025	-0,022
-106,220	-200,000	-0,000	-0,166
-105,205	800,000	-0,054	0,154
-104,191	143,444	0,108	0,104
-103,176	-54,027	0,130	0,042
-102,162	-72,661	-0,072	0,019
-101,147	312,194	0,068	-0,092
-100,132	139,923	-0,005	0,005
-99,118	191,382	-0,068	0,073
-98,103	90,509	0,122	0,098
-97,089	-45,261	0,155	0,055
-96,074	-27,398	0,081	-0,034
-95,059	-200,000	-0,007	0,073
-94,045	30,361	-0,074	-0,045
-93,030	-200,000	-0,000	-0,096
-92,016	356,672	-0,109	0,156
-91,001	-182,367	0,052	0,001
-89,986	-109,329	0,129	0,019
-88,972	88,102	0,144	0,114
-87,957	5,206	0,065	-0,034
-86,943	-83,450	-0,057	0,013
-85,928	661,371	-0,039	-0,073
-84,913	-140,852	-0,075	-0,005
-83,899	18,065	0,071	0,041
-82,884	97,798	-0,116	0,096
-81,870	17,090	-0,026	0,015
-80,855	257,603	0,119	0,148
-79,840	-21,914	-0,075	0,033
-78,826	128,286	0,152	0,139
-77,811	318,015	-0,075	-0,102
-76,797	-200,000	0,011	0,039
-75,782	353,285	-0,022	0,032
-74,767	419,914	0,016	-0,024
-73,753	-200,000	-0,016	0,080
-72,738	-152,065	-0,126	-0,006
-71,724	176,830	0,078	-0,081
-70,709	800,000	-0,031	-0,071
-69,694	182,112	-0,051	0,054
-68,680	-148,993	0,105	0,006
-67,665	421,373	0,044	-0,067
-66,651	800,000	0,010	0,022
-65,636	-82,442	-0,039	0,009
-64,622	-72,387	0,069	0,018
-63,607	-200,000	0,023	-0,121
-62,592	-142,678	-0,068	-0,005
-61,578	497,882	0,043	0,071
-60,563	18,513	0,127	0,072
-59,549	-44,017	-0,086	0,031
-58,534	4,918	-1,842	-0,969
-57,519	-200,000	-0,266	-0,915
-56,505	-200,000	-1,405	-4,954
-55,490	98,605	0,850	0,703
-54,476	800,000	5,272	11,858
-53,461	-200,000	17,577	289,732
-52,446	800,000	725,231	2229,182
-51,432	544,231	1638,472	2816,318
-50,417	109,957	1629,238	1401,372
-49,403	74,572	1283,002	966,482
-48,388	31,535	1025,154	630,479
-47,373	20,194	987,163	569,829
-46,359	18,450	975,062	557,121
-45,344	15,374	971,061	544,781
-44,330	15,634	969,590	544,782
-43,315	15,165	967,677	542,158
-42,300	15,078	966,606	541,253
-41,286	15,097	965,710	540,792
-40,271	15,035	964,542	539,915
-39,257	15,039	963,896	539,544
-38,242	15,086	962,972	539,159
-37,227	15,065	962,246	538,663
-36,213	15,070	961,210	538,078
-35,198	15,080	960,280	537,567
-34,184	15,080	959,699	537,221
-33,169	14,998	958,599	536,319
-32,154	15,120	957,719	536,199
-31,140	15,092	956,938	535,650
-30,125	15,083	956,257	535,220
-29,111	15,064	955,419	534,667
-28,096	15,101	954,673	534,347
-27,082	15,122	953,963	533,998
-26,067	15,086	953,271	533,475
-25,052	15,051	952,422	532,864
-24,038	15,109	951,809	532,685
-23,023	15,008	951,348	532,085
-22,009	15,045	950,758	531,851
-20,994	15,113	949,962	531,602
-19,979	15,060	949,373	531,082
-18,965	15,090	948,652	530,755
-17,950	15,057	948,226	530,389
-16,936	14,988	947,542	529,765
-15,921	15,038	946,979	529,588
-14,906	14,945	946,254	528,866
-13,892	14,975	945,412	528,471
-12,877	14,967	944,683	528,017
-11,863	14,928	944,119	527,556
-10,848	14,913	943,788	527,303
-9,833	15,011	943,224	527,276
-8,819	15,040	942,591	526,994
-7,804	15,017	941,817	526,469
-6,790	14,985	941,380	526,103
-5,775	15,001	940,913	525,871
-4,760	14,950	940,323	525,359
-3,746	15,005	939,495	525,050
-2,731	14,872	938,857	524,253
-1,717	14,768	938,140	523,503
-0,702	14,796	937,499	523,212
0,313	14,608	936,954	523,105
1,327	17,380	934,265	530,264
2,342	24,414	807,622	477,343
3,356	18,256	517,878	295,404
4,371	-3,076	394,204	196,384
5,386	-5,335	378,162	185,462
6,400	-6,989	372,019	180,332
7,415	-7,909	368,969	177,677
8,429	-8,274	367,211	176,358
9,444	-8,230	366,193	175,908
10,459	-8,348	365,542	175,432
11,473	-8,521	364,588	174,742
12,488	-8,459	364,024	174,534
13,502	-8,762	363,532	173,907
14,517	-8,684	362,691	173,585
15,531	-8,963	362,196	172,987
16,546	-8,862	361,724	172,872
17,561	-9,104	361,286	172,348
18,575	-9,014	361,017	172,315
19,590	-9,188	360,654	171,912
20,604	-8,989	360,043	171,851
21,619	-9,013	359,522	171,557
22,634	-9,119	359,407	171,356
23,648	-9,131	358,783	171,030
24,663	-9,032	358,564	171,031
25,677	-9,030	358,198	170,844
26,692	-9,087	357,946	170,639
27,707	-9,260	357,712	170,301
28,721	-9,132	357,303	170,246
29,736	-9,000	356,984	170,240
30,750	-9,029	356,535	169,976
31,765	-9,079	356,268	169,773
32,780	-9,088	355,940	169,590
33,794	-9,104	355,693	169,439
34,809	-8,977	355,278	169,379
35,823	-9,116	354,911	169,021
36,838	-9,210	354,683	168,784
37,853	-9,180	354,424	168,681
38,867	-9,040	354,177	168,718
39,882	-9,232	353,829	168,306
40,896	-9,208	353,552	168,188
41,911	-9,199	353,352	168,088
42,926	-9,141	352,812	167,887
43,940	-9,187	352,575	167,703
44,955	-9,058	352,311	167,718
45,969	-9,248	352,023	167,337
46,984	-9,120	351,702	167,324
47,999	-9,339	351,534	166,966
49,013	-9,141	351,220	167,039
50,028	-9,204	350,882	166,788
51,042	-9,147	350,847	166,825
52,057	-9,161	350,292	166,529
53,071	-9,253	350,109	166,318
54,086	-9,209	349,822	166,219
55,101	-9,133	349,601	166,190
56,115	-9,140	349,302	166,025
57,130	-8,992	348,994	166,039
58,144	-8,958	348,795	165,970
59,159	-9,019	348,601	165,790
60,174	-8,989	348,128	165,586
61,188	-8,912	347,910	165,559
62,203	-9,108	347,786	165,253
63,217	-9,040	347,418	165,143
64,232	-9,101	347,223	164,965
65,247	-8,913	346,844	164,992
66,261	-8,944	346,499	164,776
67,276	-9,224	346,253	164,316
68,290	-9,234	345,865	164,105
69,305	-9,057	345,562	164,154
70,320	-9,081	345,236	163,956
71,334	-9,078	345,136	163,898
72,349	-8,968	344,913	163,906
73,363	-8,980	344,635	163,745
74,378	-8,932	344,266	163,611
75,393	-8,876	344,068	163,569
76,407	-8,952	343,572	163,229
77,422	-9,090	343,543	163,040
78,436	-8,928	343,037	162,974
79,451	-9,009	342,777	162,742
80,466	-9,105	342,615	162,539
81,480	-9,148	342,288	162,319
82,495	-9,216	342,225	162,196
83,509	-9,071	341,740	162,120
84,524	-9,211	341,547	161,851
85,539	-9,263	341,322	161,670
86,553	-9,180	341,040	161,618
87,568	-9,206	340,737	161,430
88,582	-9,199	340,406	161,267
89,597	-9,107	340,226	161,273
90,611	-9,244	340,086	161,035
91,626	-9,079	339,787	161,068
92,641	-9,000	339,597	161,056
93,655	-9,125	339,296	160,754
94,670	-9,130	339,061	160,623
95,684	-9,164	338,739	160,416
96,699	-9,167	338,477	160,275
97,714	-9,185	338,322	160,166
98,728	-9,203	338,070	160,013
99,743	-9,152	337,701	159,881
100,757	-9,211	337,500	159,705
101,772	-9,155	337,305	159,662
102,787	-9,207	336,946	159,419
103,801	-9,139	336,799	159,412
104,816	-9,157	336,552	159,261
105,830	-9,086	336,370	159,242
106,845	-9,014	335,979	159,125
107,860	-9,120	335,693	158,854
108,874	-9,114	335,593	158,800
109,889	-9,060	335,139	158,632
110,903	-9,016	334,852	158,531
111,918	-9,111	334,813	158,392
112,933	-9,170	334,687	158,251
113,947	-9,154	334,534	158,183
114,962	-9,007	334,131	158,145
115,976	-9,002	333,988	158,068
116,991	-9,056	333,575	157,798
118,006	-9,166	333,437	157,594
119,020	-9,121	333,353	157,591
120,035	-8,976	333,048	157,596
121,049	-8,908	332,641	157,466
122,064	-8,946	332,473	157,330
123,079	-9,037	332,146	157,059
124,093	-9,009	331,824	156,925
125,108	-9,115	331,607	156,688
126,122	-9,212	331,384	156,460
127,137	-9,303	331,217	156,266
128,151	-9,171	330,969	156,282
129,166	-9,231	330,757	156,101
130,181	-9,043	330,442	156,149
131,195	-9,200	330,262	155,874
132,210	-9,089	329,901	155,814
133,224	-9,169	329,650	155,592
134,239	-8,980	329,444	155,692
135,254	-9,197	329,359	155,396
136,268	-8,941	328,914	155,457
137,283	-9,187	328,796	155,114
138,297	-9,141	328,533	155,027
139,312	-9,182	328,258	154,837
140,327	-8,864	328,062	155,084
141,341	-8,864	327,916	155,001
142,356	-8,894	327,718	154,861
143,370	-8,859	327,642	154,850
144,385	-8,661	327,186	154,840
145,400	-8,846	326,919	154,495
146,414	-8,860	326,883	154,448
147,429	-8,976	326,633	154,189
148,443	-8,846	326,271	154,148
149,458	-8,843	326,018	154,017
150,473	-8,847	325,922	153,954
151,487	-8,842	325,582	153,785
152,502	-8,923	325,302	153,550
153,516	-8,907	325,157	153,486
154,531	-8,710	324,838	153,537
155,546	-8,834	324,744	153,344
156,560	-8,839	324,347	153,136
157,575	-8,911	324,234	152,991
158,589	-8,824	323,863	152,898
159,604	-8,827	323,805	152,853
160,619	-8,689	323,457	152,825
161,633	-8,416	323,136	152,957
162,648	-8,775	323,165	152,567
163,662	-8,934	322,952	152,279
164,677	-8,887	322,747	152,221
165,692	-8,802	322,373	152,122
166,706	-8,857	322,418	152,070
167,721	-8,749	322,166	152,055
168,735	-8,516	321,872	152,156
169,750	-8,628	321,675	151,928
170,764	-8,667	321,488	151,783
171,779	-8,710	321,328	151,647
172,794	-8,747	321,036	151,457
173,808	-8,766	320,792	151,308
174,823	-8,906	320,466	150,989
175,837	-9,066	320,263	150,708
176,852	-8,952	320,272	150,821
177,867	-8,760	320,029	150,900
178,881	-8,633	319,517	150,782
179,896	-8,746	319,606	150,689
180,910	-8,757	319,313	150,526
181,925	-8,655	319,091	150,518
182,940	-8,651	318,849	150,394
183,954	-8,659	318,562	150,236
184,969	-8,743	318,519	150,112
185,983	-8,628	318,272	150,106
186,998	-8,597	318,072	150,031
188,013	-8,524	317,614	149,880
189,027	-8,605	317,496	149,724
190,042	-8,609	317,433	149,677
191,056	-8,697	317,288	149,502
192,071	-8,589	316,936	149,437
193,086	-8,707	316,822	149,244
194,100	-8,544	316,440	149,225
195,115	-8,553	316,112	149,047
196,129	-8,556	316,001	148,978
197,144	-8,608	315,734	148,785
198,159	-8,564	315,463	148,690
199,173	-8,677	315,331	148,495
200,188	-8,500	315,236	148,625
201,202	-8,711	314,935	148,246
202,217	-9,036	314,675	147,767
203,232	-8,948	314,354	147,696
204,246	-8,704	314,138	147,838
205,261	-8,598	313,942	147,845
206,275	-8,640	313,762	147,702
207,290	-8,691	313,591	147,555
208,304	-8,672	313,346	147,447
209,319	-8,512	313,177	147,522
210,334	-8,666	312,971	147,250
211,348	-8,649	312,731	147,142
212,363	-8,583	312,517	147,097
213,377	-8,688	312,372	146,905
214,392	-8,665	312,158	146,817
215,407	-8,649	311,835	146,668
216,421	-8,907	311,557	146,254
217,436	-8,933	311,382	146,132
218,450	-8,733	311,089	146,191
219,465	-8,597	310,892	146,226
220,480	-8,733	310,852	146,053
221,494	-8,720	310,661	145,963
222,509	-8,646	310,365	145,888
223,523	-8,713	310,319	145,785
224,538	-8,630	310,094	145,752
225,553	-8,551	309,940	145,749
226,567	-8,543	309,669	145,616
227,582	-8,543	309,483	145,516
228,596	-8,577	309,323	145,393
229,611	-8,523	309,277	145,414
230,626	-8,636	308,892	145,103
231,640	-8,757	308,391	144,730
232,655	-9,108	308,300	144,312
233,669	-8,905	308,138	144,432
234,684	-9,117	307,961	144,118
235,699	-8,759	307,609	144,309
236,713	-8,982	307,527	144,028
237,728	-8,776	307,378	144,157
238,742	-8,698	307,161	144,123
239,757	-8,711	306,937	143,992
240,772	-8,745	306,740	143,851
241,786	-8,773	306,625	143,756
242,801	-8,927	306,332	143,448
243,815	-8,868	306,288	143,475
244,830	-8,751	306,098	143,494
245,844	-8,650	305,707	143,401
246,859	-8,890	305,633	143,108
247,874	-8,714	305,394	143,163
248,888	-8,711	305,169	143,047
249,903	-8,694	305,092	143,016
250,917	-8,614	304,774	142,936
251,932	-8,418	304,768	143,120
252,947	-8,013	304,830	143,549
253,961	-7,244	304,896	144,351
254,976	-6,989	304,640	144,476
255,990	-7,397	304,424	143,947
257,005	-5,853	305,148	145,850
258,020	-1,910	306,491	150,510
259,034	-0,689	306,829	151,910
260,049	-0,267	306,889	152,357
261,063	0,175	306,760	152,731
262,078	0,432	306,854	153,026
263,093	0,727	306,595	153,185
264,107	0,733	306,462	153,111
265,122	0,944	306,112	153,137
266,136	1,086	306,065	153,244
267,151	0,858	306,008	152,969
268,166	0,785	305,873	152,814
269,180	0,974	305,620	152,867
270,195	1,083	305,540	152,923
271,209	1,042	305,192	152,694
272,224	1,056	305,012	152,604
273,239	0,901	304,858	152,357
274,253	1,168	304,588	152,478
275,268	0,987	304,397	152,186
276,282	1,060	304,244	152,169
277,297	0,929	304,063	151,933
278,312	1,055	303,782	151,907
279,326	0,972	303,637	151,737
280,341	0,916	303,564	151,631
281,355	0,938	303,436	151,575
282,370	1,082	302,983	151,480
283,384	0,855	302,900	151,197
284,399	0,820	302,650	151,023
285,414	0,940	302,376	150,993
286,428	0,873	302,256	150,853
287,443	0,912	302,094	150,798
288,457	0,979	301,795	150,703
289,472	0,906	301,663	150,550
290,487	0,965	301,361	150,444
291,501	1,024	301,182	150,401
292,516	0,834	301,084	150,149
293,530	0,751	300,829	149,926
294,545	0,888	300,637	149,953
295,560	0,666	300,578	149,689
296,574	0,935	300,210	149,759
297,589	0,851	299,973	149,544
298,603	0,825	299,950	149,494
299,618	0,897	299,651	149,404
300,633	0,880	299,455	149,275
301,647	0,656	299,364	148,994
302,662	0,766	299,065	148,941
303,676	0,881	298,820	148,920
304,691	0,738	298,705	148,708
305,706	0,798	298,528	148,666
306,720	0,659	298,290	148,397
307,735	0,778	298,148	148,431
308,749	0,774	298,108	148,393
309,764	1,029	297,701	148,429
310,779	0,741	297,638	148,100
311,793	0,945	297,246	148,092
312,808	0,831	297,188	147,938
313,822	0,764	296,967	147,749
314,837	1,048	296,800	147,932
315,852	0,762	296,614	147,545
316,866	1,024	296,290	147,628
317,881	0,969	296,190	147,512
318,895	0,978	295,927	147,377
319,910	0,892	295,766	147,198
320,925	0,956	295,616	147,173
321,939	0,926	295,399	147,022
322,954	0,988	295,391	147,066
323,968	0,909	294,998	146,780
324,983	1,098	294,849	146,878
325,997	0,840	294,732	146,555
327,012	0,825	294,550	146,436
328,027	0,913	294,294	146,382
329,041	0,953	294,077	146,299
330,056	1,083	293,837	146,294
331,070	0,918	293,817	146,110
332,085	0,805	293,612	145,886
333,100	0,927	293,266	145,819
334,114	0,854	293,068	145,636
335,129	1,057	292,941	145,757
336,143	0,925	292,806	145,549
337,158	1,133	292,633	145,651
338,173	0,809	292,500	145,260
339,187	1,039	292,264	145,351
340,202	1,143	292,073	145,343
341,216	1,007	291,872	145,099
342,231	0,944	291,655	144,918
343,246	0,924	291,500	144,809
344,260	0,932	291,386	144,747
345,275	1,066	291,164	144,752
346,289	1,185	290,923	144,734
347,304	1,062	290,831	144,557
348,319	1,008	290,497	144,326
349,333	1,096	290,358	144,329
350,348	1,097	290,147	144,212
351,362	1,121	290,078	144,188
352,377	1,146	289,780	144,050
353,392	1,309	289,674	144,141
354,406	1,286	289,437	143,988
355,421	192,888	1324,335	1391,591
356,435	156,452	1450,387	1391,571
