DTS Sentinel unit serial number:	SN410029Multiplexer serial number:	ORYXHardware model number:	OX2-SRSoftware version number:	ORYX F/W v4,00 Oryx Data Collector v3.7.2.0data status	okinstallation	B4 Nyhavnadifferential loss correction	single-endedforward channel	channel 2reverse channel	N/Adate	2023/12/16time	08:45:13forward acquisition time	300,00reverse acquisition time	0,00gamma	499,1914k internal	0,3127k external	0,3127temperature offset calibration	1,0000default loss term (dB/km)	0,3820temperature slope calibration	1,0000multiplexer offset coefficient	1,0000multiplexer slope coefficient	1,0000fibre end	0,00T internal ref (°C)	22,69T ext. ref 1 (°C)	8,71T ext. ref 2 (°C)	8,86length (m)	temperature (°C)	Stokes	anti-Stokes-744,400	154,922	-0,102	0,104
-743,385	101,719	-0,121	0,105
-742,371	-148,165	0,148	-0,009
-741,356	649,989	-0,086	0,165
-740,342	94,371	0,107	0,090
-739,327	-79,436	-0,210	0,053
-738,312	28,729	-0,046	-0,029
-737,298	-26,898	-0,309	0,134
-736,283	-200,000	-0,015	-0,099
-735,269	-22,317	-0,285	0,128
-734,254	-200,000	0,008	0,085
-733,239	-30,113	-0,480	-0,202
-732,225	27,767	0,027	-0,017
-731,210	-200,000	-0,038	-0,152
-730,196	48,315	-0,030	-0,021
-729,181	-200,000	0,032	-0,167
-728,167	220,848	-0,032	0,039
-727,152	101,417	-0,065	-0,057
-726,137	-200,000	-0,018	-0,160
-725,123	355,241	-0,041	-0,062
-724,108	-63,713	-0,137	-0,042
-723,094	-171,117	-0,124	-0,003
-722,079	-200,000	-0,003	-0,060
-721,064	-200,000	-0,013	-0,044
-720,050	-10,434	0,092	-0,045
-719,035	-200,000	0,021	-0,077
-718,021	-129,156	0,090	-0,009
-717,006	28,324	-0,122	-0,077
-715,991	-200,000	0,026	0,112
-714,977	112,612	0,030	-0,027
-713,962	699,344	-0,037	-0,073
-712,948	467,641	0,092	0,154
-711,933	-8,734	0,094	-0,047
-710,918	-60,039	-0,079	0,025
-709,904	-111,632	-0,051	0,008
-708,889	-200,000	-0,017	-0,162
-707,875	182,854	0,041	-0,045
-706,860	96,144	-0,074	0,062
-705,845	800,000	0,051	0,143
-704,831	131,862	-0,042	-0,041
-703,816	-200,000	0,017	-0,115
-702,802	542,117	0,007	-0,012
-701,787	-149,102	-0,026	0,002
-700,772	800,000	-0,052	0,120
-699,758	-200,000	-0,017	0,176
-698,743	-39,078	-0,084	-0,033
-697,729	292,605	-0,070	-0,095
-696,714	5,197	-0,081	0,044
-695,699	-200,000	0,014	-0,200
-694,685	-200,000	-0,013	-0,079
-693,670	665,686	-0,078	-0,150
-692,656	-61,965	0,051	-0,016
-691,641	56,024	0,049	-0,035
-690,627	800,000	0,027	-0,089
-689,612	-51,005	-0,105	-0,036
-688,597	-23,853	0,107	0,047
-687,583	55,772	0,055	-0,039
-686,568	-77,875	-0,088	0,022
-685,554	267,282	-0,059	0,077
-684,539	800,000	-0,034	-0,095
-683,524	-113,923	-0,068	-0,010
-682,510	800,000	-0,011	0,029
-681,495	-145,493	0,129	0,008
-680,481	79,323	-0,081	-0,064
-679,466	-200,000	0,007	0,033
-678,451	-56,430	-0,095	0,031
-677,437	222,761	0,023	0,028
-676,422	800,000	0,016	0,037
-675,408	-200,000	-0,030	-0,110
-674,393	124,095	-0,075	0,070
-673,378	152,496	-0,084	-0,085
-672,364	-146,215	-0,164	0,011
-671,349	305,085	0,044	-0,061
-670,335	-200,000	0,007	0,028
-669,320	-69,866	0,027	0,008
-668,305	-10,982	0,034	0,017
-667,291	82,389	0,097	0,078
-666,276	115,175	-0,093	-0,084
-665,262	-200,000	0,000	-0,076
-664,247	-200,000	0,024	0,091
-663,232	357,437	-0,059	-0,087
-662,218	-72,228	0,133	0,036
-661,203	800,000	0,024	-0,075
-660,189	-200,000	0,037	-0,130
-659,174	44,542	-0,058	-0,039
-658,159	-149,479	-0,120	-0,007
-657,145	314,492	-0,029	-0,041
-656,130	-200,000	-0,021	-0,083
-655,116	-99,237	0,158	0,029
-654,101	-187,725	0,144	0,001
-653,086	800,000	0,007	-0,016
-652,072	-48,203	-0,186	-0,066
-651,057	-93,070	-0,069	-0,014
-650,043	-200,000	-0,024	0,101
-649,028	-200,000	0,014	-0,129
-648,014	-200,000	-0,007	0,098
-646,999	-112,618	-0,137	-0,020
-645,984	-122,351	0,095	0,011
-644,970	184,630	-0,040	-0,044
-643,955	259,672	0,019	-0,024
-642,941	82,349	-0,029	-0,023
-641,926	789,280	0,039	-0,079
-640,911	232,419	0,011	-0,013
-639,897	17,918	-0,072	-0,043
-638,882	-72,521	-0,084	0,023
-637,868	-98,222	-0,150	-0,028
-636,853	800,000	0,050	-0,104
-635,838	248,637	-0,093	-0,117
-634,824	-45,569	0,013	-0,005
-633,809	349,550	-0,063	-0,093
-632,795	113,601	-0,049	-0,044
-631,780	-94,658	-0,050	-0,010
-630,765	-37,369	-0,024	-0,010
-629,751	-122,692	0,030	-0,004
-628,736	70,123	0,095	0,073
-627,722	-28,139	-0,061	0,026
-626,707	800,000	-0,035	-0,110
-625,692	800,000	-0,025	0,053
-624,678	251,440	-0,066	0,084
-623,663	268,984	0,050	0,065
-622,649	-200,000	-0,015	-0,125
-621,634	56,383	-0,025	-0,018
-620,619	388,283	-0,050	-0,077
-619,605	-38,089	0,121	-0,047
-618,590	227,354	-0,097	-0,117
-617,576	758,343	-0,009	0,017
-616,561	21,921	0,053	0,032
-615,546	-200,000	0,033	0,168
-614,532	-109,357	-0,095	0,015
-613,517	800,000	0,043	-0,108
-612,503	251,484	0,029	-0,036
-611,488	505,265	-0,041	0,071
-610,474	-200,000	-0,052	0,218
-609,459	-79,807	-0,044	0,011
-608,444	-100,306	-0,105	-0,019
-607,430	-133,312	0,079	-0,007
-606,415	800,000	-0,012	-0,032
-605,401	800,000	0,043	0,098
-604,386	-200,000	0,025	0,145
-603,371	58,616	0,040	0,029
-602,357	-200,000	-0,013	0,065
-601,342	293,364	-0,023	0,031
-600,328	56,616	-0,077	-0,055
-599,313	-200,000	0,008	0,127
-598,298	49,960	0,075	-0,052
-597,284	183,886	0,071	-0,078
-596,269	0,780	-0,111	0,058
-595,255	583,515	0,056	-0,103
-594,240	391,133	0,019	-0,029
-593,225	319,944	-0,068	-0,096
-592,211	704,588	-0,053	-0,104
-591,196	-200,000	0,016	0,087
-590,182	-164,104	0,154	-0,005
-589,167	89,159	-0,023	-0,019
-588,152	-200,000	0,000	0,028
-587,138	800,000	0,055	0,120
-586,123	-200,000	-0,003	0,094
-585,109	800,000	-0,025	-0,058
-584,094	168,157	-0,028	0,029
-583,079	6,286	0,101	0,055
-582,065	-118,368	0,153	0,020
-581,050	-200,000	-0,016	0,185
-580,036	-131,741	-0,137	-0,013
-579,021	194,923	-0,090	-0,101
-578,006	-129,605	-0,073	0,007
-576,992	-200,000	-0,027	-0,109
-575,977	-200,000	-0,014	0,075
-574,963	-69,856	0,078	-0,022
-573,948	-200,000	0,035	0,164
-572,934	-135,825	-0,106	0,009
-571,919	-200,000	-0,012	-0,063
-570,904	-200,000	0,011	-0,072
-569,890	-115,446	-0,097	-0,013
-568,875	56,671	-0,052	-0,037
-567,861	-200,000	0,016	0,152
-566,846	236,962	-0,020	0,025
-565,831	684,656	0,026	-0,050
-564,817	800,000	-0,023	-0,054
-563,802	-124,976	-0,177	-0,020
-562,788	158,251	-0,087	-0,089
-561,773	249,962	0,073	-0,091
-560,758	160,776	-0,033	-0,034
-559,744	800,000	-0,031	0,081
-558,729	-69,698	0,020	0,006
-557,715	800,000	0,007	0,023
-556,700	94,984	-0,149	0,125
-555,685	-200,000	-0,019	-0,098
-554,671	-27,099	0,045	0,019
-553,656	-77,809	0,050	0,013
-552,642	800,000	0,019	-0,053
-551,627	-200,000	0,004	0,019
-550,612	-29,154	-0,128	0,054
-549,598	276,211	0,016	0,021
-548,583	-200,000	-0,010	-0,081
-547,569	-200,000	-0,011	0,049
-546,554	436,595	0,019	-0,031
-545,539	-119,345	0,113	0,014
-544,525	62,880	0,052	-0,038
-543,510	-200,000	-0,005	-0,049
-542,496	-49,874	-0,123	-0,043
-541,481	-200,000	0,012	-0,100
-540,466	-163,345	-0,071	0,002
-539,452	-61,637	0,129	0,040
-538,437	0,043	0,063	-0,033
-537,423	-37,316	-0,082	-0,032
-536,408	63,737	0,081	-0,060
-535,393	12,068	-0,056	0,032
-534,379	-122,174	-0,061	-0,007
-533,364	75,557	-0,043	0,033
-532,350	-123,907	0,089	-0,010
-531,335	800,000	0,029	-0,089
-530,321	-193,964	0,139	0,001
-529,306	87,996	-0,035	-0,028
-528,291	402,779	-0,081	-0,125
-527,277	-36,321	-0,142	-0,056
-526,262	44,847	-0,073	-0,049
-525,248	-110,241	0,061	-0,009
-524,233	648,598	0,034	-0,064
-523,218	-26,747	-0,093	-0,040
-522,204	309,569	0,078	0,109
-521,189	-200,000	0,039	-0,148
-520,175	-18,962	0,122	0,056
-519,160	-130,724	0,054	0,005
-518,145	175,639	-0,108	0,116
-517,131	14,517	0,092	0,053
-516,116	800,000	0,013	-0,027
-515,102	-25,144	0,038	-0,016
-514,087	-200,000	-0,021	-0,140
-513,072	-200,000	-0,028	-0,144
-512,058	307,897	0,081	0,112
-511,043	800,000	0,063	0,132
-510,029	-200,000	-0,002	0,113
-509,014	-200,000	0,007	-0,038
-507,999	26,060	-0,202	0,124
-506,985	-106,161	-0,095	-0,016
-505,970	-200,000	-0,015	-0,114
-504,956	203,364	-0,090	-0,103
-503,941	-200,000	-0,006	-0,029
-502,926	-168,827	0,118	-0,003
-501,912	15,939	0,198	0,115
-500,897	-18,905	0,088	0,040
-499,883	421,037	0,089	-0,141
-498,868	-200,000	-0,020	-0,069
-497,853	-4,818	-0,171	0,087
-496,839	-92,515	-0,152	-0,031
-495,824	226,492	0,077	-0,093
-494,810	-200,000	0,011	0,114
-493,795	-46,188	0,063	0,023
-492,781	-200,000	-0,021	-0,086
-491,766	800,000	-0,045	0,096
-490,751	246,443	-0,033	-0,041
-489,737	88,933	0,052	0,043
-488,722	717,316	-0,008	0,016
-487,708	28,793	0,086	-0,054
-486,693	800,000	0,045	0,132
-485,678	148,707	-0,062	-0,062
-484,664	-200,000	-0,010	-0,043
-483,649	3,985	0,120	-0,064
-482,635	-37,367	-0,093	-0,036
-481,620	800,000	0,042	0,089
-480,605	627,225	-0,039	0,073
-479,591	-200,000	-0,003	0,047
-478,576	612,262	0,032	-0,060
-477,562	223,906	0,069	0,082
-476,547	800,000	-0,055	-0,133
-475,532	800,000	-0,028	0,061
-474,518	-200,000	0,010	-0,079
-473,503	-200,000	0,000	-0,030
-472,489	172,958	0,032	0,034
-471,474	-59,558	-0,075	0,024
-470,459	-200,000	-0,012	-0,058
-469,445	800,000	-0,039	-0,099
-468,430	-200,000	0,011	0,045
-467,416	261,216	-0,023	0,030
-466,401	-200,000	0,018	-0,129
-465,386	799,330	-0,032	0,065
-464,372	-200,000	-0,021	0,101
-463,357	-15,898	-0,041	0,019
-462,343	24,648	0,086	-0,052
-461,328	800,000	0,044	-0,101
-460,313	-95,426	-0,115	-0,023
-459,299	-64,778	0,109	-0,032
-458,284	-200,000	0,023	0,105
-457,270	800,000	0,033	0,101
-456,255	429,862	-0,041	0,065
-455,241	179,737	-0,020	0,021
-454,226	-53,335	0,100	0,034
-453,211	115,282	0,060	-0,054
-452,197	386,173	-0,030	-0,046
-451,182	430,837	0,060	0,096
-450,168	489,506	0,042	-0,071
-449,153	800,000	0,053	0,121
-448,138	29,612	0,137	0,085
-447,124	31,446	-0,161	-0,102
-446,109	-48,418	-0,164	0,058
-445,095	88,379	-0,075	-0,062
-444,080	140,455	0,057	-0,055
-443,065	-200,000	0,051	0,177
-442,051	26,303	0,085	-0,052
-441,036	144,830	0,028	0,027
-440,022	-54,498	-0,187	0,062
-439,007	800,000	-0,038	0,084
-437,992	-200,000	0,008	0,026
-436,978	205,259	0,077	0,088
-435,963	-173,710	0,170	-0,004
-434,949	203,352	-0,119	-0,136
-433,934	4,251	0,147	0,079
-432,919	290,176	-0,105	-0,141
-431,905	-200,000	0,011	-0,072
-430,890	-200,000	-0,006	0,119
-429,876	227,322	0,064	0,076
-428,861	8,424	0,022	-0,012
-427,846	-200,000	-0,015	-0,082
-426,832	-200,000	-0,033	-0,123
-425,817	753,443	-0,060	-0,119
-424,803	-200,000	0,003	0,038
-423,788	800,000	0,022	0,050
-422,773	-200,000	0,026	0,110
-421,759	124,443	0,071	0,066
-420,744	-45,442	0,042	-0,015
-419,730	-63,044	-0,135	-0,041
-418,715	109,636	0,112	-0,099
-417,701	-88,401	-0,034	-0,007
-416,686	800,000	-0,026	0,067
-415,671	209,341	0,065	0,075
-414,657	-104,271	-0,115	0,019
-413,642	141,358	0,066	0,065
-412,628	237,362	-0,087	0,107
-411,613	167,425	0,048	-0,050
-410,598	800,000	-0,022	0,050
-409,584	-35,042	0,195	-0,078
-408,569	341,228	-0,032	0,045
-407,555	-73,077	0,148	-0,039
-406,540	230,492	0,061	-0,074
-405,525	-200,000	0,081	0,000
-404,511	111,947	-0,019	0,017
-403,496	-200,000	-0,020	-0,128
-402,482	-200,000	0,024	-0,103
-401,467	87,927	0,072	0,058
-400,452	-13,313	0,132	0,063
-399,438	-64,920	-0,101	-0,030
-398,423	-200,000	0,020	-0,096
-397,409	-123,175	-0,162	-0,019
-396,394	-200,000	-0,053	-0,181
-395,379	-200,000	-0,016	0,052
-394,365	-161,907	0,063	-0,002
-393,350	-200,000	-0,025	0,110
-392,336	800,000	0,023	0,060
-391,321	98,570	-0,093	-0,078
-390,306	-200,000	-0,002	0,026
-389,292	-200,000	0,006	-0,074
-388,277	200,114	-0,012	-0,013
-387,263	14,738	0,074	0,042
-386,248	-200,000	0,014	0,156
-385,233	800,000	0,030	0,082
-384,219	-132,025	0,079	-0,007
-383,204	-34,000	-0,200	0,081
-382,190	-200,000	-0,007	-0,096
-381,175	-76,202	-0,038	-0,010
-380,160	-97,772	0,112	0,021
-379,146	-68,821	0,086	0,024
-378,131	-200,000	0,012	0,046
-377,117	679,636	-0,010	0,019
-376,102	96,412	0,055	-0,047
-375,088	33,676	0,061	0,039
-374,073	-78,173	-0,127	-0,032
-373,058	800,000	0,068	0,195
-372,044	143,757	-0,083	0,081
-371,029	-200,000	0,005	0,051
-370,015	10,831	0,112	0,063
-369,000	-200,000	-0,013	-0,065
-367,985	-200,000	-0,014	-0,089
-366,971	800,000	-0,034	-0,083
-365,956	800,000	0,084	0,186
-364,942	-200,000	-0,002	-0,044
-363,927	-107,322	0,216	0,034
-362,912	612,154	0,035	-0,064
-361,898	-200,000	0,004	-0,032
-360,883	800,000	0,046	-0,099
-359,869	-200,000	0,018	-0,082
-358,854	441,844	0,080	0,129
-357,839	322,689	-0,043	-0,060
-356,825	230,475	-0,111	0,134
-355,810	800,000	-0,030	0,063
-354,796	-190,274	0,017	0,000
-353,781	318,365	0,056	0,078
-352,766	-89,057	0,041	0,009
-351,752	214,318	0,116	-0,135
-350,737	-154,835	-0,031	-0,001
-349,723	68,693	-0,141	0,106
-348,708	119,695	-0,071	-0,065
-347,693	650,391	0,050	-0,095
-346,679	688,787	-0,037	-0,070
-345,664	-200,000	-0,025	0,111
-344,650	-73,175	-0,116	0,031
-343,635	-104,424	0,070	-0,012
-342,620	-200,000	0,003	0,038
-341,606	-200,000	-0,018	-0,107
-340,591	-46,949	-0,140	0,050
-339,577	800,000	0,042	-0,133
-338,562	-11,011	0,114	-0,055
-337,548	147,018	0,009	0,008
-336,533	451,948	0,083	0,135
-335,518	-150,028	0,049	-0,003
-334,504	90,021	0,086	-0,070
-333,489	800,000	-0,023	-0,051
-332,475	-24,022	-0,131	0,057
-331,460	191,135	0,057	-0,063
-330,445	-200,000	0,013	0,145
-329,431	-200,000	-0,000	-0,003
-328,416	-200,000	0,004	0,143
-327,402	-90,427	0,233	0,049
-326,387	-200,000	0,007	-0,072
-325,372	32,809	-0,085	-0,054
-324,358	39,133	0,017	-0,011
-323,343	-65,802	0,043	0,013
-322,329	-9,839	0,137	0,066
-321,314	-52,656	0,148	0,050
-320,299	-200,000	-0,004	-0,053
-319,285	763,043	0,035	0,069
-318,270	-128,105	-0,024	0,003
-317,256	60,496	-0,077	-0,056
-316,241	488,676	0,039	-0,065
-315,226	-200,000	-0,006	0,063
-314,212	-200,000	0,023	0,147
-313,197	-87,789	-0,090	0,020
-312,183	28,790	0,037	-0,023
-311,168	313,536	0,057	-0,079
-310,153	141,674	-0,060	-0,058
-309,139	-200,000	0,024	-0,109
-308,124	-200,000	-0,028	0,103
-307,110	-48,520	-0,126	0,044
-306,095	-200,000	-0,009	0,194
-305,080	-200,000	-0,007	0,036
-304,066	11,521	-0,058	0,033
-303,051	800,000	0,005	-0,013
-302,037	365,931	0,070	0,103
-301,022	800,000	-0,029	0,093
-300,008	-83,075	0,042	-0,010
-298,993	511,079	-0,068	-0,116
-297,978	31,325	0,054	-0,034
-296,964	-200,000	-0,025	0,106
-295,949	-200,000	-0,004	-0,138
-294,935	-26,986	0,100	-0,043
-293,920	14,023	-0,091	0,052
-292,905	-141,296	-0,053	0,004
-291,891	-200,000	-0,002	-0,094
-290,876	-200,000	-0,020	-0,086
-289,862	-64,498	-0,050	-0,015
-288,847	105,073	-0,132	-0,114
-287,832	-200,000	-0,018	0,108
-286,818	110,551	-0,101	0,088
-285,803	-14,297	0,073	0,034
-284,789	-200,000	0,001	-0,029
-283,774	102,768	0,047	0,041
-282,759	118,372	-0,045	-0,041
-281,745	-106,677	0,089	0,014
-280,730	-116,310	-0,028	0,004
-279,716	-63,745	-0,090	0,027
-278,701	-101,281	0,134	0,024
-277,686	800,000	0,054	0,153
-276,672	-166,285	-0,113	0,003
-275,657	105,926	-0,030	0,026
-274,643	0,414	-0,172	0,089
-273,628	-200,000	-0,003	-0,174
-272,613	800,000	-0,016	-0,033
-271,599	-69,750	0,042	-0,012
-270,584	207,898	0,103	-0,118
-269,570	-43,883	-0,060	0,022
-268,555	-17,142	0,024	-0,011
-267,540	-180,497	0,079	-0,001
-266,526	-135,769	-0,100	-0,009
-265,511	-200,000	0,008	0,030
-264,497	-200,000	0,002	0,055
-263,482	-144,501	0,118	-0,008
-262,467	-200,000	-0,004	0,020
-261,453	-200,000	-0,029	-0,177
-260,438	275,953	0,138	-0,180
-259,424	-48,770	0,086	-0,030
-258,409	-193,383	-0,100	0,001
-257,395	-200,000	-0,011	-0,062
-256,380	37,339	0,034	0,022
-255,365	-131,023	0,050	0,005
-254,351	131,970	-0,034	-0,032
-253,336	-12,694	0,081	0,038
-252,322	-129,529	-0,058	-0,006
-251,307	-200,000	0,010	0,060
-250,292	-200,000	-0,012	-0,105
-249,278	563,083	0,054	0,096
-248,263	525,092	-0,073	0,125
-247,249	-200,000	0,008	0,081
-246,234	-99,727	0,068	0,012
-245,219	-200,000	0,006	0,097
-244,205	-141,428	-0,080	-0,006
-243,190	-81,044	-0,114	-0,027
-242,176	711,479	-0,068	0,132
-241,161	244,471	0,058	0,071
-240,146	359,329	-0,042	0,062
-239,132	-112,153	0,122	-0,018
-238,117	354,409	-0,055	0,080
-237,103	94,594	-0,069	0,057
-236,088	-200,000	-0,002	-0,141
-235,073	-18,729	-0,110	0,050
-234,059	119,271	0,065	-0,059
-233,044	245,108	0,040	-0,050
-232,030	-128,224	-0,063	-0,007
-231,015	-4,485	-0,088	-0,044
-230,000	75,207	-0,051	0,039
-228,986	-140,789	0,117	0,009
-227,971	248,584	-0,033	0,041
-226,957	246,736	0,100	-0,124
-225,942	-123,817	0,143	0,016
-224,927	798,200	-0,030	-0,062
-223,913	800,000	-0,054	-0,116
-222,898	271,460	-0,029	0,038
-221,884	-54,213	0,110	-0,036
-220,869	262,985	-0,028	0,036
-219,855	666,224	0,074	0,139
-218,840	-200,000	-0,007	-0,073
-217,825	501,871	-0,069	0,117
-216,811	77,827	-0,036	-0,028
-215,796	4,007	-0,045	0,024
-214,782	173,943	-0,109	0,115
-213,767	-200,000	-0,003	-0,032
-212,752	708,878	0,025	-0,048
-211,738	-200,000	0,002	0,005
-210,723	800,000	-0,052	0,111
-209,709	446,868	0,073	-0,118
-208,694	148,064	-0,086	-0,084
-207,679	-81,485	0,058	-0,014
-206,665	2,877	0,080	-0,042
-205,650	-200,000	0,025	-0,224
-204,636	154,088	-0,078	-0,078
-203,621	-200,000	0,004	0,069
-202,606	-200,000	-0,013	-0,063
-201,592	-79,744	-0,103	0,025
-200,577	-200,000	-0,013	-0,070
-199,563	-200,000	0,006	0,029
-198,548	-35,018	0,084	-0,033
-197,533	261,333	0,055	0,070
-196,519	-200,000	0,028	0,188
-195,504	-97,219	-0,039	0,007
-194,490	213,079	-0,121	-0,139
-193,475	402,126	-0,042	-0,064
-192,460	480,823	0,008	0,013
-191,446	-10,350	-0,109	-0,053
-190,431	-91,620	0,218	0,045
-189,417	800,000	0,016	0,037
-188,402	-79,549	-0,111	-0,027
-187,387	319,821	-0,059	0,082
-186,373	-89,445	0,072	-0,015
-185,358	800,000	-0,043	-0,102
-184,344	-123,368	0,073	0,008
-183,329	-113,544	-0,083	0,012
-182,315	675,462	0,038	-0,073
-181,300	-118,563	0,092	0,012
-180,285	-40,922	-0,096	-0,036
-179,271	-113,523	0,088	-0,012
-178,256	800,000	0,023	-0,063
-177,242	800,000	0,053	-0,155
-176,227	161,635	0,022	-0,023
-175,212	800,000	0,064	0,203
-174,198	-64,622	-0,175	-0,051
-173,183	800,000	-0,049	0,122
-172,169	-162,619	-0,034	0,001
-171,154	-49,930	0,132	0,045
-170,139	-119,793	0,128	-0,016
-169,125	800,000	0,062	0,125
-168,110	8,797	0,071	-0,039
-167,096	-200,000	0,000	0,014
-166,081	-200,000	0,022	0,114
-165,066	424,650	0,027	-0,042
-164,052	-143,479	0,112	-0,008
-163,037	-89,987	-0,109	0,023
-162,023	-71,787	-0,043	0,011
-161,008	-41,426	0,089	-0,033
-159,993	-104,101	0,083	0,014
-158,979	-138,047	-0,108	0,009
-157,964	21,184	-0,212	-0,125
-156,950	-200,000	0,008	0,054
-155,935	532,563	0,051	0,088
-154,920	144,597	-0,062	-0,061
-153,906	633,579	-0,033	0,060
-152,891	487,036	-0,048	-0,079
-151,877	230,223	-0,041	-0,049
-150,862	-102,174	-0,081	0,014
-149,847	232,894	0,057	-0,068
-148,833	-141,908	-0,076	0,005
-147,818	800,000	-0,067	0,156
-146,804	51,815	0,087	0,060
-145,789	-24,877	0,069	-0,030
-144,775	800,000	0,013	-0,031
-143,760	-33,549	-0,086	-0,034
-142,745	245,091	-0,027	-0,034
-141,731	746,113	0,020	0,040
-140,716	73,974	-0,092	-0,070
-139,702	-20,775	0,171	0,076
-138,687	800,000	0,013	0,034
-137,672	-200,000	-0,001	-0,033
-136,658	800,000	0,046	-0,114
-135,643	-174,402	0,020	-0,000
-134,629	800,000	-0,017	-0,038
-133,614	-33,399	0,079	-0,032
-132,599	378,603	0,006	-0,008
-131,585	-51,017	0,153	0,052
-130,570	-200,000	-0,021	-0,085
-129,556	46,446	-0,033	0,022
-128,541	202,891	-0,141	-0,159
-127,526	709,079	0,041	-0,080
-126,512	-102,032	-0,077	-0,013
-125,497	271,152	0,107	-0,137
-124,483	-73,580	-0,064	-0,017
-123,468	-200,000	0,009	0,089
-122,453	65,165	-0,076	0,055
-121,439	-118,616	-0,122	-0,015
-120,424	10,162	-0,098	-0,054
-119,410	-36,978	0,116	0,045
-118,395	-20,988	-0,048	0,021
-117,380	-200,000	-0,006	-0,113
-116,366	80,488	-0,018	-0,014
-115,351	-20,951	-0,180	-0,080
-114,337	114,551	-0,037	-0,033
-113,322	-200,000	-0,024	-0,115
-112,307	-60,807	0,121	-0,037
-111,293	-115,047	0,106	-0,014
-110,278	-200,000	0,007	0,118
-109,264	-200,000	-0,013	-0,106
-108,249	800,000	-0,012	-0,038
-107,234	2,742	-0,134	-0,070
-106,220	-200,000	0,013	-0,088
-105,205	83,740	-0,043	-0,034
-104,191	-10,391	0,097	0,046
-103,176	-118,102	0,133	0,017
-102,162	-200,000	-0,007	0,040
-101,147	-86,857	0,022	0,005
-100,132	704,377	0,037	-0,072
-99,118	153,947	-0,126	-0,126
-98,103	800,000	0,071	-0,187
-97,089	193,562	0,102	0,112
-96,074	800,000	-0,040	0,103
-95,059	53,664	-0,090	0,063
-94,045	186,676	-0,096	0,104
-93,030	800,000	0,050	0,159
-92,016	60,889	-0,084	-0,060
-91,001	-10,763	0,062	0,030
-89,986	3,926	0,076	-0,040
-88,972	-73,441	0,091	-0,024
-87,957	-50,867	-0,037	0,012
-86,943	534,153	0,034	-0,058
-85,928	-200,000	-0,012	-0,085
-84,913	-200,000	-0,057	-0,190
-83,899	-200,000	0,005	-0,078
-82,884	772,086	-0,062	0,124
-81,870	447,098	0,025	-0,040
-80,855	-200,000	-0,002	0,077
-79,840	800,000	-0,074	-0,163
-78,826	-19,570	0,085	-0,038
-77,811	426,529	-0,093	-0,146
-76,797	-107,266	-0,049	-0,008
-75,782	-57,011	-0,094	0,030
-74,767	-99,505	0,070	0,013
-73,753	800,000	0,056	-0,133
-72,738	-200,000	0,004	0,019
-71,724	-39,426	-0,045	0,017
-70,709	538,611	-0,019	0,034
-69,694	40,775	0,070	-0,045
-68,680	-200,000	0,023	-0,123
-67,665	178,207	-0,109	-0,116
-66,651	-200,000	-0,017	0,154
-65,636	19,709	-0,055	0,032
-64,622	-200,000	0,016	-0,107
-63,607	-200,000	-0,002	-0,104
-62,592	800,000	-0,019	-0,043
-61,578	-83,317	0,136	-0,031
-60,563	94,626	-0,033	0,027
-59,549	-49,632	0,102	0,035
-58,534	-134,081	-1,329	-0,117
-57,519	800,000	-0,844	-1,715
-56,505	-200,000	-0,709	-4,334
-55,490	31,999	0,468	-0,292
-54,476	800,000	4,868	11,498
-53,461	-200,000	13,345	251,216
-52,446	-200,000	685,976	2262,499
-51,432	603,350	1617,825	2928,750
-50,417	121,171	1632,695	1472,940
-49,403	74,683	1287,714	980,849
-48,388	38,653	1023,213	660,253
-47,373	24,679	980,786	587,052
-46,359	23,852	970,575	578,214
-45,344	22,923	966,305	572,619
-44,330	22,865	964,862	571,551
-43,315	22,764	963,519	570,406
-42,300	22,756	962,331	569,653
-41,286	22,693	961,512	568,942
-40,271	22,710	960,530	568,393
-39,257	22,742	959,698	567,982
-38,242	22,734	958,711	567,351
-37,227	22,697	958,041	566,810
-36,213	22,622	957,129	566,009
-35,198	22,638	956,090	565,423
-34,184	22,684	955,527	565,216
-33,169	22,722	954,397	564,647
-32,154	22,783	953,527	564,306
-31,140	22,733	952,722	563,646
-30,125	22,721	952,052	563,190
-29,111	22,746	951,253	562,774
-28,096	22,736	950,356	562,188
-27,082	22,694	949,946	561,788
-26,067	22,711	949,088	561,312
-25,052	22,696	948,420	560,848
-24,038	22,711	947,829	560,524
-23,023	22,720	946,998	560,039
-22,009	22,723	946,473	559,715
-20,994	22,730	945,891	559,372
-19,979	22,794	945,044	559,053
-18,965	22,717	944,534	558,484
-17,950	22,704	943,939	558,070
-16,936	22,637	943,303	557,456
-15,921	22,706	942,578	557,226
-14,906	22,638	941,908	556,592
-13,892	22,628	941,121	556,075
-12,877	22,573	940,549	555,540
-11,863	22,538	939,863	555,001
-10,848	22,627	939,331	554,946
-9,833	22,734	938,977	555,053
-8,819	22,727	938,415	554,677
-7,804	22,698	937,453	553,994
-6,790	22,606	937,030	553,432
-5,775	22,659	936,396	553,204
-4,760	22,631	935,806	552,744
-3,746	22,625	935,179	552,334
-2,731	22,492	934,542	551,517
-1,717	22,443	934,051	551,050
-0,702	22,399	933,180	550,376
0,313	22,281	932,509	550,442
1,327	24,925	929,992	557,195
2,342	33,101	808,649	506,602
3,356	28,751	508,204	310,962
4,371	4,274	372,268	196,846
5,386	1,356	354,894	184,088
6,400	-0,289	348,716	178,895
7,415	-0,929	345,724	176,583
8,429	-1,362	344,322	175,337
9,444	-1,366	343,396	174,846
10,459	-1,292	342,679	174,553
11,473	-1,456	342,241	174,121
12,488	-1,146	341,830	174,261
13,502	-1,054	341,187	174,026
14,517	-1,174	340,447	173,493
15,531	-1,454	339,912	172,876
16,546	-1,652	339,553	172,448
17,561	-1,616	339,176	172,282
18,575	-1,638	338,735	172,017
19,590	-1,609	338,314	171,822
20,604	-1,558	338,044	171,729
21,619	-1,634	337,581	171,390
22,634	-1,615	337,240	171,224
23,648	-1,644	336,934	171,019
24,663	-1,489	336,490	170,959
25,677	-1,624	336,323	170,703
26,692	-1,631	335,895	170,462
27,707	-1,575	335,667	170,396
28,721	-1,563	335,470	170,294
29,736	-1,643	335,067	169,982
30,750	-1,576	334,692	169,853
31,765	-1,698	334,450	169,576
32,780	-1,779	334,255	169,369
33,794	-1,547	333,957	169,468
34,809	-1,615	333,639	169,215
35,823	-1,633	333,386	169,051
36,838	-1,644	333,037	168,846
37,853	-1,633	332,809	168,727
38,867	-1,499	332,428	168,673
39,882	-1,703	332,204	168,312
40,896	-1,754	331,990	168,129
41,911	-1,528	331,664	168,206
42,926	-1,798	331,487	167,795
43,940	-1,672	331,114	167,734
44,955	-1,723	330,776	167,490
45,969	-1,885	330,730	167,268
46,984	-1,943	330,186	166,912
47,999	-2,197	330,007	166,519
49,013	-2,073	329,614	166,446
50,028	-2,339	329,338	165,992
51,042	-2,401	329,158	165,816
52,057	-2,316	328,880	165,758
53,071	-2,348	328,585	165,557
54,086	-2,252	328,288	165,502
55,101	-2,207	328,134	165,459
56,115	-1,912	327,863	165,639
57,130	-1,664	327,827	165,886
58,144	-1,367	327,691	166,135
59,159	-1,349	327,320	165,953
60,174	-1,375	326,989	165,741
61,188	-1,523	327,027	165,580
62,203	-1,514	326,701	165,410
63,217	-1,576	326,330	165,138
64,232	-1,343	326,062	165,248
65,247	-1,383	326,003	165,159
66,261	-1,303	325,600	165,029
67,276	-1,570	325,244	164,537
68,290	-1,967	325,050	163,982
69,305	-1,796	324,724	163,992
70,320	-1,993	324,623	163,708
71,334	-1,662	324,176	163,835
72,349	-1,354	323,957	164,052
73,363	-1,408	323,829	163,913
74,378	-1,427	323,754	163,838
75,393	-1,490	323,246	163,498
76,407	-1,457	323,109	163,449
77,422	-1,492	322,917	163,299
78,436	-1,436	322,642	163,208
79,451	-1,348	322,438	163,186
80,466	-1,682	322,169	162,669
81,480	-1,709	321,658	162,366
82,495	-1,766	321,446	162,182
83,509	-1,817	321,265	162,020
84,524	-1,785	320,941	161,877
85,539	-1,883	320,722	161,645
86,553	-1,942	320,436	161,422
87,568	-1,860	320,329	161,443
88,582	-1,805	319,924	161,285
89,597	-1,810	319,712	161,159
90,611	-1,730	319,654	161,202
91,626	-1,531	319,388	161,271
92,641	-1,652	319,274	161,067
93,655	-1,594	318,927	160,941
94,670	-1,783	318,706	160,609
95,684	-1,782	318,526	160,505
96,699	-1,547	318,188	160,576
97,714	-1,793	317,893	160,146
98,728	-2,010	317,806	159,852
99,743	-1,908	317,284	159,685
100,757	-1,970	317,156	159,540
101,772	-1,940	316,918	159,438
102,787	-1,940	316,937	159,434
103,801	-1,706	316,647	159,526
104,816	-1,612	316,338	159,458
105,830	-1,556	316,376	159,523
106,845	-1,418	316,114	159,525
107,860	-1,488	315,735	159,245
108,874	-1,607	315,529	158,998
109,889	-1,613	315,219	158,822
110,903	-1,801	315,036	158,513
111,918	-1,778	314,793	158,402
112,933	-1,679	314,607	158,400
113,947	-1,615	314,354	158,327
114,962	-1,635	314,256	158,243
115,976	-1,565	313,954	158,152
116,991	-1,744	313,684	157,810
118,006	-1,488	313,490	157,972
119,020	-1,580	313,508	157,868
120,035	-1,492	313,242	157,814
121,049	-1,462	313,077	157,749
122,064	-1,534	312,753	157,495
123,079	-1,459	312,399	157,382
124,093	-1,484	312,199	157,241
125,108	-1,757	311,907	156,790
126,122	-2,113	311,779	156,334
127,137	-2,121	311,396	156,119
128,151	-1,955	311,246	156,206
129,166	-1,887	310,967	156,124
130,181	-1,900	310,724	155,974
131,195	-1,951	310,567	155,828
132,210	-1,695	310,345	155,973
133,224	-1,618	310,319	156,027
134,239	-1,587	310,029	155,900
135,254	-1,479	309,835	155,902
136,268	-1,572	309,470	155,608
137,283	-1,889	309,007	155,027
138,297	-2,143	308,932	154,709
139,312	-2,130	308,709	154,597
140,327	-1,568	308,599	155,119
141,341	-1,460	308,600	155,218
142,356	-1,320	308,367	155,234
143,370	-1,125	308,173	155,326
144,385	-1,117	308,007	155,237
145,400	-1,163	307,704	155,022
146,414	-1,339	307,530	154,738
147,429	-1,253	307,304	154,700
148,443	-1,235	307,221	154,663
149,458	-1,289	306,920	154,441
150,473	-1,225	306,671	154,369
151,487	-1,413	306,427	154,036
152,502	-1,423	306,438	154,017
153,516	-1,296	306,106	153,969
154,531	-1,351	305,933	153,811
155,546	-1,209	305,634	153,795
156,560	-1,325	305,335	153,510
157,575	-1,382	305,082	153,310
158,589	-1,407	305,030	153,245
159,604	-1,253	304,728	153,239
160,619	-1,392	304,608	153,021
161,633	-1,341	304,377	152,944
162,648	-1,367	304,185	152,807
163,662	-1,291	304,087	152,823
164,677	-1,243	303,848	152,738
165,692	-1,265	303,746	152,651
166,706	-1,268	303,413	152,466
167,721	-1,384	303,205	152,229
168,735	-1,397	303,103	152,151
169,750	-1,194	302,998	152,293
170,764	-1,081	302,687	152,240
171,779	-1,211	302,640	152,069
172,794	-1,126	302,441	152,042
173,808	-1,285	301,971	151,630
174,823	-1,623	301,675	151,122
175,837	-1,798	301,301	150,742
176,852	-1,401	301,371	151,170
177,867	-1,042	301,230	151,453
178,881	-1,030	301,192	151,431
179,896	-1,106	300,853	151,170
180,910	-1,064	300,633	151,089
181,925	-1,064	300,678	151,098
182,940	-0,989	300,354	150,998
183,954	-0,950	300,038	150,866
184,969	-1,196	299,914	150,539
185,983	-1,233	299,512	150,287
186,998	-1,098	299,352	150,330
188,013	-1,100	299,330	150,304
189,027	-1,169	299,085	150,097
190,042	-1,114	298,980	150,087
191,056	-1,064	298,730	149,999
192,071	-1,055	298,660	149,959
193,086	-1,014	298,342	149,828
194,100	-1,013	298,268	149,778
195,115	-0,996	297,867	149,581
196,129	-1,156	297,612	149,277
197,144	-1,182	297,599	149,232
198,159	-1,046	297,349	149,231
199,173	-1,014	297,050	149,099
200,188	-0,899	296,955	149,153
201,202	-1,112	296,629	148,762
202,217	-1,770	296,179	147,864
203,232	-1,615	295,975	147,904
204,246	-1,304	295,864	148,147
205,261	-0,909	295,718	148,457
206,275	-0,934	295,672	148,394
207,290	-1,125	295,395	148,051
208,304	-1,102	295,261	147,994
209,319	-1,012	295,100	147,990
210,334	-1,020	294,823	147,830
211,348	-1,111	294,652	147,640
212,363	-1,097	294,432	147,531
213,377	-1,134	294,271	147,401
214,392	-1,015	294,099	147,419
215,407	-1,205	293,756	147,045
216,421	-1,371	293,600	146,790
217,436	-1,332	293,366	146,698
218,450	-1,374	293,237	146,579
219,465	-1,230	293,079	146,630
220,480	-1,076	292,958	146,708
221,494	-1,182	292,743	146,483
222,509	-1,242	292,544	146,311
223,523	-1,152	292,373	146,301
224,538	-1,044	292,159	146,288
225,553	-0,857	292,047	146,403
226,567	-1,033	291,810	146,097
227,582	-0,922	291,495	146,037
228,596	-1,015	291,511	145,939
229,611	-0,819	291,337	146,032
230,626	-0,821	291,022	145,860
231,640	-1,333	290,752	145,209
232,655	-1,908	290,461	144,486
233,669	-1,862	290,245	144,412
234,684	-1,739	290,076	144,435
235,699	-1,620	290,031	144,516
236,713	-1,497	289,617	144,417
237,728	-1,357	289,545	144,505
238,742	-1,413	289,455	144,392
239,757	-1,283	289,380	144,469
240,772	-1,044	289,066	144,532
241,786	-1,134	288,897	144,348
242,801	-1,295	288,549	144,004
243,815	-1,383	288,360	143,811
244,830	-1,263	288,243	143,857
245,844	-1,408	288,092	143,628
246,859	-1,299	288,029	143,689
247,874	-1,172	287,436	143,504
248,888	-1,312	287,510	143,392
249,903	-1,077	287,556	143,630
250,917	-0,941	287,403	143,673
251,932	-0,863	287,332	143,699
252,947	-0,059	287,338	144,467
253,961	-0,127	287,165	144,302
254,976	0,748	287,586	145,347
255,990	2,560	287,913	147,253
257,005	3,132	287,910	147,790
258,020	4,041	288,219	148,815
259,034	4,196	288,199	148,941
260,049	4,061	287,994	148,692
261,063	4,035	287,520	148,409
262,078	4,271	287,616	148,672
263,093	4,800	287,653	149,188
264,107	4,687	287,362	148,916
265,122	4,819	287,239	148,966
266,136	5,011	287,108	149,070
267,151	4,972	287,039	148,982
268,166	4,758	286,603	148,537
269,180	4,775	286,323	148,395
270,195	4,741	286,218	148,296
271,209	4,758	286,091	148,232
272,224	4,651	285,844	147,989
273,239	4,577	285,629	147,793
274,253	4,492	285,504	147,635
275,268	4,943	285,334	147,964
276,282	4,923	285,273	147,900
277,297	4,664	285,121	147,561
278,312	4,914	285,100	147,776
279,326	4,923	284,711	147,570
280,341	4,708	284,526	147,255
281,355	4,685	284,039	146,968
282,370	4,662	283,911	146,868
283,384	4,561	283,877	146,741
284,399	4,562	283,798	146,688
285,414	4,416	283,499	146,382
286,428	4,578	283,326	146,433
287,443	4,110	283,114	145,867
288,457	4,136	282,878	145,757
289,472	4,090	282,715	145,617
290,487	4,321	282,445	145,683
291,501	4,370	282,166	145,573
292,516	3,976	281,945	145,074
293,530	4,041	281,814	145,055
294,545	4,303	281,775	145,268
295,560	4,302	281,587	145,158
296,574	4,166	281,318	144,878
297,589	4,367	281,156	144,970
298,603	4,832	281,145	145,389
299,618	4,511	281,174	145,089
300,633	4,334	280,843	144,739
301,647	4,286	280,567	144,539
302,662	4,555	280,389	144,686
303,676	4,327	280,132	144,328
304,691	3,940	279,941	143,855
305,706	4,000	279,647	143,747
306,720	3,940	279,425	143,564
307,735	3,861	279,350	143,439
308,749	4,256	279,211	143,723
309,764	4,202	279,149	143,627
310,779	4,075	278,788	143,311
311,793	4,111	278,579	143,224
312,808	3,946	278,436	142,985
313,822	4,209	278,201	143,096
314,837	4,020	277,949	142,778
315,852	4,006	277,679	142,614
316,866	4,047	277,696	142,647
317,881	4,158	277,572	142,674
318,895	3,943	277,334	142,340
319,910	3,979	277,003	142,190
320,925	3,859	276,831	141,978
321,939	4,050	276,802	142,128
322,954	4,060	276,801	142,123
323,968	4,135	276,634	142,094
324,983	4,276	276,389	142,086
325,997	4,329	276,241	142,046
327,012	4,443	276,088	142,059
328,027	4,321	275,876	141,825
329,041	4,196	275,804	141,661
330,056	4,277	275,606	141,621
331,070	4,280	275,321	141,465
332,085	4,012	275,117	141,101
333,100	4,237	274,929	141,198
334,114	4,289	274,734	141,133
335,129	4,106	274,434	140,799
336,143	4,299	274,368	140,930
337,158	4,457	274,308	141,030
338,173	4,360	274,099	140,822
339,187	4,211	274,085	140,666
340,202	4,226	273,772	140,506
341,216	4,230	273,670	140,445
342,231	4,211	273,431	140,292
343,246	4,356	273,180	140,284
344,260	4,026	273,117	139,939
345,275	4,323	273,056	140,165
346,289	4,488	273,043	140,296
347,304	4,618	272,819	140,286
348,319	4,269	272,425	139,754
349,333	4,383	272,262	139,761
350,348	4,609	272,153	139,898
351,362	4,679	271,923	139,831
352,377	4,505	271,736	139,565
353,392	4,447	271,791	139,527
354,406	4,673	271,508	139,574
355,421	191,625	1331,797	1410,283
356,435	154,785	1461,076	1410,412
