DTS Sentinel unit serial number:	SN410029Multiplexer serial number:	ORYXHardware model number:	OX2-SRSoftware version number:	ORYX F/W v4,00 Oryx Data Collector v3.7.2.0data status	okinstallation	B4 Nyhavnadifferential loss correction	single-endedforward channel	channel 2reverse channel	N/Adate	2023/12/15time	20:00:13forward acquisition time	300,00reverse acquisition time	0,00gamma	499,1914k internal	0,3137k external	0,3137temperature offset calibration	1,0000default loss term (dB/km)	0,3820temperature slope calibration	1,0000multiplexer offset coefficient	1,0000multiplexer slope coefficient	1,0000fibre end	0,00T internal ref (°C)	20,26T ext. ref 1 (°C)	5,84T ext. ref 2 (°C)	6,01length (m)	temperature (°C)	Stokes	anti-Stokes-744,400	-200,000	0,006	0,045
-743,385	-56,560	-0,122	0,040
-742,371	-200,000	-0,010	-0,138
-741,356	496,953	-0,090	0,154
-740,342	-200,000	0,004	-0,041
-739,327	2,219	-0,200	0,107
-738,312	31,964	0,042	-0,027
-737,298	-62,998	-0,341	0,104
-736,283	178,604	0,019	-0,021
-735,269	114,014	-0,111	0,100
-734,254	-112,311	0,167	0,024
-733,239	-46,357	-0,411	-0,149
-732,225	169,123	0,125	0,133
-731,210	539,678	0,032	-0,056
-730,196	111,685	-0,120	-0,108
-729,181	-200,000	-0,018	-0,135
-728,167	800,000	-0,086	-0,196
-727,152	21,072	-0,135	-0,081
-726,137	-144,959	-0,089	-0,006
-725,123	404,524	0,010	-0,016
-724,108	-200,000	-0,018	-0,296
-723,094	-200,000	-0,046	-0,171
-722,079	-65,112	-0,052	-0,016
-721,064	-200,000	-0,025	-0,205
-720,050	294,885	-0,050	-0,067
-719,035	487,077	-0,047	0,079
-718,021	118,603	-0,037	-0,034
-717,006	-149,322	-0,218	0,013
-715,991	73,563	-0,106	-0,083
-714,977	800,000	-0,059	0,131
-713,962	-200,000	-0,002	-0,040
-712,948	-200,000	0,021	-0,137
-711,933	800,000	-0,021	-0,059
-710,918	69,459	0,024	0,018
-709,904	800,000	-0,039	-0,092
-708,889	235,534	-0,094	-0,115
-707,875	67,530	-0,079	-0,060
-706,860	800,000	0,021	0,057
-705,845	-68,092	-0,154	-0,044
-704,831	169,346	-0,110	0,116
-703,816	318,085	0,041	-0,058
-702,802	-200,000	-0,021	-0,105
-701,787	-123,336	-0,110	0,013
-700,772	-200,000	0,003	-0,098
-699,758	-104,123	-0,049	-0,008
-698,743	523,760	0,065	0,113
-697,729	770,502	-0,051	-0,104
-696,714	-200,000	-0,004	-0,087
-695,699	56,095	-0,031	-0,022
-694,685	21,287	0,030	0,018
-693,670	1,633	0,070	-0,037
-692,656	800,000	-0,025	-0,068
-691,641	152,336	0,067	-0,067
-690,627	-200,000	0,000	0,088
-689,612	-190,091	0,015	-0,000
-688,597	360,078	0,034	-0,051
-687,583	293,163	-0,078	-0,105
-686,568	-200,000	-0,015	-0,106
-685,554	-200,000	0,027	-0,136
-684,539	-130,149	0,057	0,006
-683,524	-132,600	0,113	-0,011
-682,510	89,217	0,097	-0,080
-681,495	-51,524	0,061	-0,021
-680,481	24,321	-0,037	-0,022
-679,466	-131,443	-0,057	-0,006
-678,451	89,683	-0,066	0,055
-677,437	146,945	-0,052	-0,052
-676,422	200,010	0,097	0,110
-675,408	-200,000	-0,024	0,194
-674,393	800,000	-0,045	-0,104
-673,378	132,642	0,012	0,012
-672,364	208,775	-0,005	-0,006
-671,349	64,762	-0,038	0,028
-670,335	329,831	0,040	0,057
-669,320	-183,920	0,170	-0,002
-668,305	-139,863	-0,149	-0,012
-667,291	-200,000	-0,001	-0,114
-666,276	591,988	-0,011	-0,020
-665,262	-200,000	-0,026	-0,088
-664,247	382,934	-0,068	-0,104
-663,232	135,629	-0,091	-0,088
-662,218	57,821	0,077	-0,055
-661,203	-17,110	-0,104	0,048
-660,189	-40,304	-0,129	-0,050
-659,174	-34,637	-0,032	0,013
-658,159	-200,000	0,015	-0,095
-657,145	-71,102	-0,069	-0,019
-656,130	11,770	-0,034	0,019
-655,116	4,834	0,109	0,059
-654,101	77,471	0,102	-0,080
-653,086	-190,164	-0,188	0,001
-652,072	-200,000	0,001	0,020
-651,057	-197,963	-0,105	-0,000
-650,043	104,808	0,081	-0,071
-649,028	324,425	0,042	-0,060
-648,014	133,348	0,089	-0,085
-646,999	65,182	-0,083	-0,062
-645,984	361,040	0,044	0,065
-644,970	-74,916	-0,085	-0,022
-643,955	-118,378	-0,097	0,013
-642,941	331,431	-0,112	-0,160
-641,926	-200,000	-0,010	-0,137
-640,911	529,266	-0,094	-0,165
-639,897	4,458	0,136	-0,073
-638,882	312,411	0,030	-0,041
-637,868	-64,696	-0,049	-0,014
-636,853	-200,000	0,012	-0,054
-635,838	800,000	-0,023	-0,057
-634,824	-200,000	0,004	-0,095
-633,809	-200,000	-0,015	-0,064
-632,795	800,000	0,029	0,092
-631,780	800,000	0,038	-0,080
-630,765	-200,000	-0,022	-0,187
-629,751	-200,000	-0,010	-0,156
-628,736	523,022	-0,037	-0,064
-627,722	-80,172	0,119	-0,029
-626,707	-95,764	-0,055	-0,011
-625,692	95,881	0,082	0,069
-624,678	23,308	0,114	0,069
-623,663	-200,000	-0,007	0,084
-622,649	24,957	0,035	-0,021
-621,634	-34,197	-0,098	-0,039
-620,619	581,066	0,043	-0,077
-619,605	800,000	0,026	-0,073
-618,590	-48,087	0,131	-0,047
-617,576	270,907	0,072	0,093
-616,561	9,556	-0,040	0,022
-615,546	-57,572	0,081	0,026
-614,532	175,062	-0,156	-0,167
-613,517	216,406	-0,037	0,044
-612,503	-125,241	-0,016	0,002
-611,488	57,846	0,091	-0,066
-610,474	177,238	-0,069	0,074
-609,459	268,425	-0,056	0,072
-608,444	169,503	0,067	-0,070
-607,430	-200,000	0,004	-0,030
-606,415	-102,866	-0,065	-0,011
-605,401	800,000	0,044	-0,127
-604,386	20,133	0,072	0,043
-603,371	-78,866	0,180	-0,045
-602,357	234,139	-0,077	0,094
-601,342	348,442	-0,058	-0,085
-600,328	800,000	-0,051	-0,116
-599,313	636,610	0,048	-0,091
-598,298	427,447	0,023	0,036
-597,284	-200,000	-0,015	0,091
-596,269	800,000	-0,013	0,042
-595,255	-92,778	0,088	-0,018
-594,240	-200,000	0,025	0,113
-593,225	800,000	-0,026	-0,069
-592,211	-200,000	0,001	-0,073
-591,196	-200,000	-0,013	0,050
-590,182	21,168	0,042	-0,025
-589,167	-200,000	0,000	0,003
-588,152	-200,000	0,012	0,051
-587,138	70,665	-0,074	0,056
-586,123	-64,418	0,023	-0,007
-585,109	-55,658	-0,049	-0,016
-584,094	349,308	0,083	0,122
-583,079	25,892	0,081	-0,050
-582,065	800,000	-0,044	-0,092
-581,050	-4,664	0,036	0,018
-580,036	-77,732	-0,187	-0,047
-579,021	195,620	-0,036	0,041
-578,006	800,000	0,015	-0,048
-576,992	-200,000	-0,007	-0,034
-575,977	556,501	0,061	0,109
-574,963	-61,237	0,135	-0,042
-573,948	-13,320	0,084	0,040
-572,934	121,359	0,056	0,052
-571,919	-104,572	-0,070	0,012
-570,904	77,036	0,043	-0,034
-569,890	-34,293	-0,038	-0,015
-568,875	138,223	-0,018	-0,018
-567,861	800,000	-0,034	0,093
-566,846	-200,000	0,016	-0,072
-565,831	-43,977	-0,144	-0,053
-564,817	26,169	-0,029	0,018
-563,802	-151,287	0,064	-0,003
-562,788	-200,000	0,017	-0,093
-561,773	-200,000	-0,037	-0,144
-560,758	13,966	0,082	0,047
-559,744	-200,000	0,034	0,146
-558,729	800,000	-0,017	0,052
-557,715	-200,000	0,007	-0,027
-556,700	282,646	-0,083	-0,110
-555,685	34,214	-0,113	0,073
-554,671	16,646	0,120	0,070
-553,656	306,319	-0,102	-0,140
-552,642	681,598	0,067	-0,129
-551,627	800,000	-0,072	-0,156
-550,612	320,926	0,045	0,063
-549,598	-47,877	-0,134	0,048
-548,583	-118,280	-0,119	0,015
-547,569	93,839	0,085	-0,071
-546,554	-200,000	0,022	0,080
-545,539	-200,000	-0,017	-0,062
-544,525	105,681	-0,107	0,093
-543,510	764,111	-0,020	0,040
-542,496	800,000	-0,064	-0,131
-541,481	-118,282	0,030	0,004
-540,466	275,803	0,028	0,037
-539,452	19,894	0,025	0,015
-538,437	800,000	-0,020	0,047
-537,423	-70,117	-0,059	0,016
-536,408	164,009	0,025	0,026
-535,393	245,872	0,035	-0,044
-534,379	127,222	-0,049	0,046
-533,364	-200,000	0,008	0,050
-532,350	300,456	0,081	0,111
-531,335	-33,748	0,099	-0,040
-530,321	-200,000	0,008	-0,089
-529,306	191,861	-0,063	0,070
-528,291	171,608	-0,048	-0,050
-527,277	9,896	-0,136	0,076
-526,262	282,108	-0,046	-0,061
-525,248	800,000	0,015	-0,035
-524,233	37,749	0,064	0,042
-523,218	-33,833	0,058	0,024
-522,204	116,635	-0,079	-0,072
-521,189	-41,376	-0,061	-0,023
-520,175	-200,000	-0,032	0,115
-519,160	800,000	-0,044	-0,092
-518,145	61,593	0,027	0,020
-517,131	-200,000	-0,041	-0,165
-516,116	562,242	-0,028	-0,051
-515,102	325,788	0,078	0,110
-514,087	-40,710	0,018	-0,007
-513,072	149,443	0,057	-0,057
-512,058	-139,174	0,030	-0,002
-511,043	133,389	-0,084	0,080
-510,029	-200,000	-0,018	0,060
-509,014	-42,985	-0,128	0,047
-507,999	-200,000	-0,007	0,140
-506,985	21,257	-0,076	0,045
-505,970	20,724	0,072	-0,043
-504,956	800,000	-0,041	-0,086
-503,941	-23,342	0,114	0,050
-502,926	-149,006	0,130	-0,008
-501,912	-16,350	0,081	0,038
-500,897	5,243	0,094	-0,051
-499,883	350,836	0,079	0,115
-498,868	267,190	-0,046	-0,060
-497,853	800,000	-0,040	-0,111
-496,839	71,213	-0,080	-0,061
-495,824	-22,497	0,073	0,032
-494,810	-200,000	-0,017	0,071
-493,795	-6,960	-0,059	0,030
-492,781	256,709	-0,077	-0,097
-491,766	140,218	-0,110	-0,106
-490,751	-200,000	-0,001	0,016
-489,737	800,000	-0,033	-0,068
-488,722	-59,530	0,077	-0,024
-487,708	751,598	-0,054	0,107
-486,693	-200,000	-0,006	-0,024
-485,678	-144,258	0,100	-0,007
-484,664	-200,000	-0,025	0,165
-483,649	-200,000	0,001	-0,088
-482,635	-200,000	-0,018	0,086
-481,620	-200,000	0,005	0,123
-480,605	-200,000	0,016	-0,052
-479,591	739,740	0,093	0,184
-478,576	226,787	-0,034	0,041
-477,562	800,000	-0,058	-0,181
-476,547	-96,820	-0,071	0,013
-475,532	73,882	-0,148	0,114
-474,518	346,255	-0,057	0,083
-473,503	105,819	-0,019	0,016
-472,489	-120,116	0,031	-0,004
-471,474	-42,129	-0,070	-0,026
-470,459	578,866	0,016	-0,029
-469,445	-200,000	-0,017	0,144
-468,430	-56,664	0,079	0,025
-467,416	-52,757	-0,061	0,021
-466,401	-123,649	-0,113	0,013
-465,386	-137,507	0,113	-0,009
-464,372	800,000	0,015	-0,048
-463,357	-200,000	0,040	-0,155
-462,343	-47,275	-0,083	0,030
-461,328	16,182	-0,055	0,032
-460,313	93,326	0,048	-0,039
-459,299	800,000	-0,020	-0,044
-458,284	-28,334	0,070	0,029
-457,270	-131,760	0,146	0,014
-456,255	-200,000	0,011	0,092
-455,241	256,052	-0,057	0,072
-454,226	-200,000	0,024	0,084
-453,211	706,029	0,045	-0,088
-452,197	151,172	0,124	0,123
-451,182	-56,580	-0,064	-0,021
-450,168	595,174	0,034	-0,062
-449,153	-200,000	0,011	0,065
-448,138	800,000	0,020	0,056
-447,124	-25,433	0,086	0,037
-446,109	-153,273	-0,125	-0,006
-445,095	800,000	0,035	0,088
-444,080	800,000	0,048	-0,144
-443,065	188,114	-0,028	0,030
-442,051	-200,000	-0,001	0,036
-441,036	166,141	-0,059	-0,061
-440,022	470,242	-0,053	-0,088
-439,007	800,000	-0,019	0,052
-437,992	53,347	0,120	0,084
-436,978	-200,000	0,027	0,125
-435,963	-176,381	-0,059	-0,001
-434,949	-110,813	-0,053	-0,008
-433,934	59,291	0,059	0,042
-432,919	-102,262	-0,059	0,010
-431,905	-200,000	0,003	-0,043
-430,890	-200,000	-0,014	-0,099
-429,876	-6,043	-0,035	0,018
-428,861	663,080	0,034	-0,064
-427,846	-200,000	-0,028	-0,104
-426,832	-200,000	0,001	-0,133
-425,817	-200,000	-0,128	0,000
-424,803	-200,000	-0,012	0,050
-423,788	104,269	0,077	-0,067
-422,773	50,118	0,099	0,068
-421,759	182,703	-0,059	0,063
-420,744	-200,000	0,014	-0,074
-419,730	-172,781	0,139	0,003
-418,715	103,841	0,051	0,044
-417,701	31,512	0,058	0,036
-416,686	-200,000	0,000	-0,015
-415,671	-200,000	0,011	0,067
-414,657	-107,091	0,072	-0,012
-413,642	800,000	0,043	-0,130
-412,628	800,000	-0,040	-0,096
-411,613	800,000	0,018	-0,048
-410,598	286,679	-0,027	0,036
-409,584	-200,000	-0,036	0,186
-408,569	563,122	0,034	0,060
-407,555	-200,000	0,009	0,090
-406,540	800,000	-0,060	0,143
-405,525	-200,000	-0,008	0,046
-404,511	602,678	-0,049	-0,089
-403,496	800,000	-0,026	-0,067
-402,482	47,454	-0,025	0,017
-401,467	-64,016	0,089	0,026
-400,452	20,436	0,033	-0,019
-399,438	-65,448	0,071	-0,021
-398,423	800,000	0,020	0,059
-397,409	203,922	0,046	-0,053
-396,394	-200,000	-0,034	0,151
-395,379	800,000	-0,009	0,027
-394,365	55,865	-0,059	-0,042
-393,350	-36,105	-0,013	0,005
-392,336	113,374	0,048	-0,043
-391,321	-153,091	-0,098	0,005
-390,306	-84,109	-0,126	0,029
-389,292	-87,358	0,040	0,009
-388,277	26,274	-0,119	0,072
-387,263	549,254	0,072	0,127
-386,248	-200,000	0,005	0,107
-385,233	-200,000	0,002	0,137
-384,219	-141,663	0,031	-0,002
-383,204	-116,456	0,093	-0,012
-382,190	-98,325	-0,073	0,014
-381,175	147,423	0,044	-0,044
-380,160	-37,617	-0,022	0,009
-379,146	-200,000	-0,014	-0,058
-378,131	-200,000	-0,011	-0,116
-377,117	-200,000	-0,010	0,059
-376,102	799,013	-0,039	-0,080
-375,088	-46,582	0,124	0,044
-374,073	23,922	-0,117	0,070
-373,058	-78,527	0,058	-0,014
-372,044	135,481	0,091	0,086
-371,029	-98,323	0,098	-0,018
-370,015	-200,000	0,018	0,063
-369,000	-141,581	-0,069	-0,005
-367,985	189,079	0,038	0,041
-366,971	800,000	-0,007	0,014
-365,956	-158,819	-0,093	0,004
-364,942	800,000	-0,024	-0,066
-363,927	-200,000	0,015	-0,077
-362,912	800,000	0,029	0,067
-361,898	591,632	-0,049	0,089
-360,883	-75,325	0,036	-0,009
-359,869	-200,000	-0,029	-0,100
-358,854	71,834	0,059	0,045
-357,839	226,984	0,097	-0,116
-356,825	42,653	0,053	-0,035
-355,810	174,905	0,074	0,078
-354,796	-200,000	-0,008	0,090
-353,781	-200,000	0,011	0,083
-352,766	-82,183	0,064	0,015
-351,752	457,232	-0,104	-0,170
-350,737	800,000	0,011	-0,027
-349,723	-200,000	0,033	-0,114
-348,708	800,000	0,036	0,074
-347,693	800,000	-0,074	0,171
-346,679	-200,000	0,057	-0,258
-345,664	-200,000	0,006	-0,059
-344,650	383,181	0,027	0,040
-343,635	156,602	0,045	-0,045
-342,620	800,000	0,084	0,178
-341,606	180,173	0,120	0,129
-340,591	-37,804	0,017	-0,006
-339,577	800,000	-0,022	0,053
-338,562	305,577	-0,063	0,086
-337,548	198,810	0,046	0,051
-336,533	525,119	0,077	0,132
-335,518	323,528	-0,047	-0,066
-334,504	169,900	-0,066	0,069
-333,489	-200,000	-0,007	0,030
-332,475	-200,000	-0,010	-0,159
-331,460	-200,000	-0,015	-0,170
-330,445	34,325	-0,099	0,063
-329,431	-110,761	0,038	-0,006
-328,416	800,000	-0,025	-0,055
-327,402	800,000	0,017	-0,040
-326,387	-199,447	0,034	-0,000
-325,372	-200,000	0,006	0,036
-324,358	800,000	-0,040	-0,104
-323,343	619,738	-0,069	-0,127
-322,329	-200,000	-0,009	0,037
-321,314	13,933	-0,050	-0,028
-320,299	180,727	0,020	-0,021
-319,285	800,000	-0,041	-0,107
-318,270	-86,019	0,084	-0,019
-317,256	-59,669	-0,074	-0,023
-316,241	276,441	0,011	-0,014
-315,226	360,926	-0,046	-0,067
-314,212	51,098	0,023	0,016
-313,197	-200,000	0,006	0,038
-312,183	-92,526	-0,113	-0,023
-311,168	52,612	0,156	-0,108
-310,153	-102,953	0,089	-0,015
-309,139	-200,000	-0,011	0,049
-308,124	-29,560	0,106	0,044
-307,110	52,557	0,108	0,075
-306,095	311,414	-0,138	0,190
-305,080	-200,000	0,005	-0,024
-304,066	-169,813	0,076	-0,002
-303,051	1,974	-0,061	-0,032
-302,037	-61,586	-0,054	-0,016
-301,022	-138,283	0,057	0,005
-300,008	46,905	0,037	-0,025
-298,993	81,008	0,031	-0,024
-297,978	-116,836	-0,059	-0,008
-296,964	-200,000	0,007	-0,024
-295,949	-200,000	0,020	-0,131
-294,935	84,758	-0,118	0,094
-293,920	9,138	0,066	-0,036
-292,905	186,883	0,070	0,076
-291,891	-200,000	-0,002	-0,058
-290,876	-168,960	-0,035	-0,001
-289,862	363,058	-0,023	0,034
-288,847	-13,363	-0,088	-0,041
-287,832	-10,248	0,070	0,034
-286,818	88,372	0,101	-0,082
-285,803	-4,558	0,101	-0,051
-284,789	-200,000	0,050	0,166
-283,774	-122,734	-0,115	0,013
-282,759	-14,647	-0,081	-0,038
-281,745	800,000	0,035	-0,110
-280,730	-49,310	-0,028	-0,010
-279,716	-98,004	0,070	-0,013
-278,701	293,965	0,015	-0,020
-277,686	240,610	0,040	-0,049
-276,672	800,000	0,030	0,064
-275,657	-21,234	-0,131	-0,058
-274,643	-200,000	-0,089	0,000
-273,628	41,234	-0,085	-0,056
-272,613	150,466	0,048	0,048
-271,599	-165,652	0,087	0,003
-270,584	-77,506	-0,061	0,015
-269,570	-200,000	-0,002	0,027
-268,555	-76,790	0,071	-0,018
-267,540	-27,583	-0,095	-0,040
-266,526	-41,895	-0,110	-0,041
-265,511	-74,124	-0,029	-0,007
-264,497	256,686	0,066	0,083
-263,482	331,973	0,097	-0,136
-262,467	-15,206	0,052	-0,024
-261,453	36,321	0,172	0,110
-260,438	-91,821	-0,092	0,019
-259,424	-92,845	-0,051	0,010
-258,409	-43,487	0,042	0,015
-257,395	-122,991	0,074	-0,009
-256,380	-200,000	-0,014	0,059
-255,365	800,000	0,060	0,168
-254,351	-200,000	-0,015	0,124
-253,336	-200,000	-0,036	0,122
-252,322	-110,576	-0,166	0,025
-251,307	273,552	0,028	-0,037
-250,292	-107,919	0,106	0,017
-249,278	-200,000	-0,010	0,100
-248,263	97,627	0,086	-0,072
-247,249	800,000	0,035	0,075
-246,234	-200,000	-0,031	-0,112
-245,219	83,122	-0,160	-0,127
-244,205	-118,795	-0,109	0,014
-243,190	-200,000	-0,028	-0,092
-242,176	800,000	0,060	-0,154
-241,161	-79,617	-0,121	-0,029
-240,146	-200,000	-0,036	-0,121
-239,132	225,591	-0,045	-0,053
-238,117	800,000	0,009	-0,023
-237,103	127,274	-0,097	-0,090
-236,088	-30,160	0,035	0,014
-235,073	290,712	0,078	0,103
-234,059	778,980	-0,030	0,060
-233,044	800,000	0,024	0,073
-232,030	-33,843	0,038	0,015
-231,015	-200,000	0,009	-0,041
-230,000	210,232	0,014	-0,016
-228,986	529,588	0,088	0,151
-227,971	150,433	-0,033	-0,033
-226,957	482,891	0,026	-0,042
-225,942	13,634	0,118	-0,067
-224,927	-24,473	-0,054	0,023
-223,913	-178,403	-0,083	-0,001
-222,898	-200,000	-0,007	0,056
-221,884	-76,000	0,125	-0,032
-220,869	-13,536	-0,083	0,039
-219,855	-200,000	0,029	0,142
-218,840	-117,518	0,052	0,007
-217,825	800,000	0,037	-0,091
-216,811	169,189	-0,056	0,058
-215,796	-63,593	0,106	-0,031
-214,782	-200,000	-0,002	0,067
-213,767	-200,000	-0,011	-0,056
-212,752	63,725	0,068	0,050
-211,738	-200,000	0,025	0,146
-210,723	327,247	0,081	-0,114
-209,709	561,551	-0,045	-0,080
-208,694	-119,670	-0,065	0,008
-207,679	-4,681	0,079	-0,040
-206,665	800,000	-0,052	0,114
-205,650	-200,000	-0,021	0,100
-204,636	-91,750	0,043	0,009
-203,621	800,000	0,023	0,064
-202,606	224,069	-0,035	-0,041
-201,592	219,562	0,014	-0,016
-200,577	43,478	-0,076	-0,051
-199,563	551,058	-0,040	0,071
-198,548	-38,599	0,129	-0,049
-197,533	-200,000	0,011	0,108
-196,519	-5,352	0,044	0,022
-195,504	800,000	-0,044	-0,135
-194,490	-0,216	-0,139	0,072
-193,475	-143,775	-0,071	0,005
-192,460	-52,917	-0,105	-0,035
-191,446	-48,425	-0,096	-0,034
-190,431	-200,000	0,060	0,222
-189,417	800,000	-0,005	-0,014
-188,402	800,000	0,029	-0,089
-187,387	48,299	-0,043	0,029
-186,373	729,981	-0,036	-0,071
-185,358	800,000	0,011	-0,024
-184,344	-61,172	0,093	0,028
-183,329	486,112	-0,142	0,236
-182,315	-200,000	-0,011	0,070
-181,300	96,293	-0,103	0,085
-180,285	107,405	-0,122	-0,106
-179,271	180,461	-0,075	-0,080
-178,256	-200,000	0,017	-0,060
-177,242	-126,206	0,160	-0,017
-176,227	-0,642	0,052	0,027
-175,212	165,364	-0,089	0,091
-174,198	-2,010	-0,081	0,041
-173,183	362,905	0,031	-0,045
-172,169	-3,824	-0,057	-0,029
-171,154	-74,793	-0,117	0,030
-170,139	-191,859	0,096	-0,001
-169,125	16,458	-0,133	-0,076
-168,110	-102,126	0,074	-0,013
-167,096	-28,601	0,105	0,044
-166,081	87,588	0,082	-0,065
-165,066	163,974	-0,127	-0,129
-164,052	-200,000	0,033	0,170
-163,037	-86,327	0,114	0,025
-162,023	306,541	-0,089	-0,121
-161,008	-200,000	0,007	-0,045
-159,993	-75,418	0,093	0,024
-158,979	94,823	0,043	-0,035
-157,964	5,236	-0,056	-0,030
-156,950	-62,999	-0,139	-0,041
-155,935	-200,000	-0,026	0,113
-154,920	249,080	0,112	0,138
-153,906	183,641	0,114	0,123
-152,891	261,966	-0,109	0,138
-151,877	-47,048	0,076	0,027
-150,862	591,404	-0,035	-0,062
-149,847	89,827	0,081	-0,066
-148,833	424,775	-0,069	-0,109
-147,818	492,514	0,052	0,087
-146,804	553,313	-0,024	0,042
-145,789	-200,000	0,002	0,103
-144,775	75,758	0,036	-0,028
-143,760	-26,676	-0,023	-0,010
-142,745	-200,000	0,012	0,079
-141,731	800,000	0,040	-0,109
-140,716	184,531	0,093	0,100
-139,702	97,635	-0,074	-0,062
-138,687	39,920	0,039	0,026
-137,672	-64,358	-0,261	-0,076
-136,658	-200,000	0,044	-0,144
-135,643	424,761	0,015	0,023
-134,629	-147,229	-0,056	-0,003
-133,614	-50,927	-0,199	-0,067
-132,599	-63,814	0,054	0,016
-131,585	203,954	0,059	0,067
-130,570	163,274	0,118	-0,120
-129,556	13,147	-0,128	-0,072
-128,541	-75,556	-0,068	-0,017
-127,526	800,000	-0,011	0,024
-126,512	-113,280	-0,105	0,015
-125,497	-200,000	-0,028	0,132
-124,483	92,359	0,121	0,099
-123,468	62,627	-0,141	0,102
-122,453	800,000	-0,022	-0,056
-121,439	-200,000	-0,007	0,079
-120,424	-200,000	0,009	0,032
-119,410	-200,000	0,008	0,040
-118,395	557,214	0,076	-0,133
-117,380	39,255	-0,014	0,009
-116,366	-132,788	-0,159	-0,015
-115,351	135,793	0,050	0,047
-114,337	245,646	-0,146	-0,179
-113,322	346,446	0,033	0,047
-112,307	-37,888	0,084	-0,032
-111,293	-134,288	-0,031	0,003
-110,278	-200,000	-0,005	-0,063
-109,264	-200,000	0,021	0,145
-108,249	562,217	-0,041	0,072
-107,234	-51,323	-0,152	0,051
-106,220	702,900	-0,045	-0,087
-105,205	181,905	-0,046	0,049
-104,191	83,703	0,071	0,056
-103,176	137,220	0,051	0,048
-102,162	34,266	-0,054	-0,034
-101,147	143,363	0,032	-0,031
-100,132	56,187	-0,099	-0,069
-99,118	306,511	-0,032	0,043
-98,103	1,631	0,080	-0,042
-97,089	1,693	-0,136	-0,070
-96,074	720,702	0,039	0,076
-95,059	800,000	0,083	0,232
-94,045	-200,000	0,012	0,144
-93,030	17,747	-0,251	-0,144
-92,016	34,128	0,061	-0,038
-91,001	322,603	0,066	0,091
-89,986	800,000	-0,011	-0,034
-88,972	78,189	-0,131	0,101
-87,957	367,013	0,054	0,079
-86,943	92,445	0,064	0,052
-85,928	237,755	-0,078	-0,094
-84,913	8,495	-0,062	-0,034
-83,899	-84,116	-0,039	0,009
-82,884	9,674	0,050	-0,027
-81,870	-200,000	-0,022	-0,115
-80,855	288,097	0,080	-0,105
-79,840	10,961	-0,102	0,056
-78,826	-200,000	0,012	-0,172
-77,811	-200,000	0,011	-0,083
-76,797	-200,000	-0,018	-0,179
-75,782	-77,896	0,122	-0,030
-74,767	782,496	0,058	-0,116
-73,753	800,000	0,018	0,050
-72,738	510,386	0,034	0,057
-71,724	485,488	0,038	-0,062
-70,709	800,000	-0,069	-0,187
-69,694	253,098	-0,061	-0,076
-68,680	71,361	-0,028	-0,021
-67,665	141,620	0,045	0,043
-66,651	47,758	0,050	-0,034
-65,636	-200,000	0,012	0,112
-64,622	800,000	-0,038	-0,083
-63,607	-58,667	-0,049	-0,015
-62,592	505,130	-0,035	-0,059
-61,578	205,619	-0,057	-0,065
-60,563	-200,000	0,019	0,069
-59,549	-200,000	0,058	0,188
-58,534	-99,014	-1,512	-0,274
-57,519	728,111	-0,702	-1,359
-56,505	-200,000	-0,882	-4,537
-55,490	-169,266	0,692	0,018
-54,476	800,000	4,839	11,588
-53,461	-200,000	14,915	262,715
-52,446	-200,000	698,816	2235,009
-51,432	573,378	1620,692	2866,169
-50,417	120,559	1626,308	1459,610
-49,403	79,338	1280,821	991,083
-48,388	37,696	1020,075	652,894
-47,373	22,794	980,107	578,558
-46,359	21,832	969,257	568,994
-45,344	20,495	964,892	562,060
-44,330	20,551	963,628	561,483
-43,315	20,425	962,129	560,181
-42,300	20,320	961,140	559,240
-41,286	20,303	960,227	558,634
-40,271	20,323	959,140	558,043
-39,257	20,319	958,315	557,529
-38,242	20,298	957,465	556,944
-37,227	20,289	956,640	556,412
-36,213	20,285	955,713	555,840
-35,198	20,268	954,636	555,135
-34,184	20,299	954,090	554,896
-33,169	20,273	953,160	554,249
-32,154	20,341	952,229	553,904
-31,140	20,290	951,447	553,265
-30,125	20,308	950,599	552,806
-29,111	20,293	949,811	552,277
-28,096	20,318	949,143	551,946
-27,082	20,334	948,404	551,547
-26,067	20,267	947,579	550,832
-25,052	20,324	946,765	550,520
-24,038	20,283	946,216	550,047
-23,023	20,278	945,726	549,722
-22,009	20,382	945,067	549,649
-20,994	20,344	944,254	549,034
-19,979	20,316	943,746	548,628
-18,965	20,313	943,207	548,285
-17,950	20,288	942,534	547,792
-16,936	20,243	941,888	547,251
-15,921	20,260	941,067	546,806
-14,906	20,202	940,446	546,239
-13,892	20,149	939,975	545,777
-12,877	20,131	939,244	545,274
-11,863	20,145	938,534	544,884
-10,848	20,145	938,165	544,648
-9,833	20,250	937,840	544,769
-8,819	20,221	937,294	544,340
-7,804	20,187	936,259	543,609
-6,790	20,170	935,868	543,309
-5,775	20,277	935,158	543,211
-4,760	20,205	934,457	542,556
-3,746	20,185	933,999	542,205
-2,731	19,982	933,498	541,256
-1,717	20,061	932,505	540,906
-0,702	20,022	931,746	540,320
0,313	19,864	931,246	540,352
1,327	22,487	928,932	547,168
2,342	30,158	805,025	494,829
3,356	25,204	506,029	302,631
4,371	1,566	373,011	193,150
5,386	-1,172	356,155	181,063
6,400	-2,652	349,972	176,127
7,415	-3,657	347,188	173,512
8,429	-3,766	345,769	172,659
9,444	-3,772	344,726	172,114
10,459	-3,738	344,087	171,820
11,473	-3,917	343,539	171,321
12,488	-3,649	342,994	171,349
13,502	-3,657	342,278	170,966
14,517	-3,827	341,698	170,463
15,531	-4,168	341,310	169,854
16,546	-4,151	340,715	169,563
17,561	-4,059	340,121	169,360
18,575	-4,219	339,722	168,959
19,590	-4,139	339,446	168,899
20,604	-4,113	339,062	168,724
21,619	-4,130	338,765	168,542
22,634	-4,188	338,372	168,263
23,648	-4,298	337,975	167,923
24,663	-4,224	337,659	167,837
25,677	-4,211	337,233	167,626
26,692	-4,265	337,118	167,491
27,707	-4,168	336,655	167,358
28,721	-4,167	336,440	167,237
29,736	-4,301	336,051	166,875
30,750	-4,127	335,663	166,868
31,765	-4,190	335,450	166,674
32,780	-4,351	335,329	166,414
33,794	-4,261	334,978	166,328
34,809	-4,119	334,656	166,317
35,823	-4,286	334,421	165,994
36,838	-4,269	334,091	165,834
37,853	-4,302	333,819	165,647
38,867	-4,240	333,484	165,536
39,882	-4,380	333,272	165,257
40,896	-4,239	332,873	165,205
41,911	-4,379	332,628	164,909
42,926	-4,286	332,396	164,885
43,940	-4,423	332,129	164,583
44,955	-4,384	331,770	164,435
45,969	-4,410	331,584	164,298
46,984	-4,503	331,264	164,019
47,999	-4,566	330,759	163,683
49,013	-4,674	330,596	163,466
50,028	-4,631	330,347	163,377
51,042	-4,913	330,163	162,951
52,057	-4,855	329,934	162,891
53,071	-4,795	329,729	162,842
54,086	-4,874	329,498	162,624
55,101	-4,600	329,145	162,744
56,115	-4,438	328,897	162,789
57,130	-4,092	328,596	163,015
58,144	-4,056	328,553	163,020
59,159	-4,077	328,275	162,844
60,174	-4,090	328,088	162,722
61,188	-4,071	327,809	162,590
62,203	-4,013	327,658	162,566
63,217	-3,997	327,307	162,395
64,232	-4,233	327,124	162,026
65,247	-3,882	326,790	162,238
66,261	-4,027	326,535	161,935
67,276	-4,299	326,176	161,440
68,290	-4,337	325,827	161,210
69,305	-4,374	325,800	161,141
70,320	-4,472	325,570	160,903
71,334	-4,252	325,247	160,974
72,349	-3,976	324,949	161,119
73,363	-4,108	324,780	160,874
74,378	-4,118	324,512	160,716
75,393	-4,125	324,159	160,519
76,407	-4,270	323,946	160,239
77,422	-4,066	323,712	160,335
78,436	-4,052	323,464	160,213
79,451	-4,138	323,180	159,962
80,466	-4,260	322,853	159,652
81,480	-4,373	322,552	159,364
82,495	-4,394	322,089	159,098
83,509	-4,240	322,095	159,257
84,524	-4,379	321,908	158,997
85,539	-4,309	321,536	158,876
86,553	-4,397	321,438	158,717
87,568	-4,445	321,211	158,539
88,582	-4,417	320,843	158,374
89,597	-4,441	320,793	158,308
90,611	-4,069	320,434	158,523
91,626	-4,196	320,367	158,338
92,641	-4,229	320,078	158,144
93,655	-4,301	319,726	157,878
94,670	-4,449	319,669	157,674
95,684	-4,501	319,323	157,433
96,699	-4,308	318,971	157,455
97,714	-4,536	318,880	157,149
98,728	-4,387	318,498	157,108
99,743	-4,401	318,217	156,940
100,757	-4,412	317,941	156,778
101,772	-4,405	317,886	156,745
102,787	-4,372	317,614	156,632
103,801	-4,287	317,389	156,599
104,816	-4,262	317,235	156,536
105,830	-4,210	317,130	156,526
106,845	-4,159	316,861	156,435
107,860	-4,347	316,626	156,102
108,874	-4,273	316,362	156,038
109,889	-4,108	315,936	155,991
110,903	-4,278	315,762	155,708
111,918	-4,177	315,713	155,780
112,933	-4,307	315,366	155,454
113,947	-4,209	315,160	155,444
114,962	-4,167	315,011	155,403
115,976	-4,241	314,829	155,219
116,991	-4,244	314,474	155,027
118,006	-4,127	314,422	155,113
119,020	-4,150	314,179	154,955
120,035	-4,233	314,100	154,813
121,049	-4,292	313,888	154,632
122,064	-4,122	313,528	154,622
123,079	-4,225	313,259	154,365
124,093	-4,011	313,035	154,469
125,108	-4,349	312,780	153,970
126,122	-4,558	312,544	153,618
127,137	-4,507	312,238	153,508
128,151	-4,432	312,108	153,511
129,166	-4,292	311,738	153,462
130,181	-4,482	311,427	153,095
131,195	-4,514	311,306	152,988
132,210	-4,253	311,166	153,182
133,224	-4,195	310,914	153,105
134,239	-4,201	310,789	153,024
135,254	-4,187	310,467	152,866
136,268	-4,281	310,244	152,644
137,283	-4,478	309,904	152,256
138,297	-4,528	309,665	152,072
139,312	-4,580	309,631	151,987
140,327	-4,216	309,435	152,260
141,341	-3,920	309,323	152,502
142,356	-3,825	309,183	152,519
143,370	-3,844	308,953	152,372
144,385	-3,826	308,636	152,221
145,400	-3,841	308,329	152,040
146,414	-3,877	308,212	151,931
147,429	-3,830	308,020	151,872
148,443	-3,915	307,750	151,637
149,458	-3,997	307,711	151,519
150,473	-3,845	307,229	151,426
151,487	-4,073	307,233	151,177
152,502	-3,913	306,882	151,158
153,516	-4,059	306,672	150,888
154,531	-3,931	306,446	150,896
155,546	-4,000	306,202	150,691
156,560	-3,835	306,088	150,793
157,575	-4,019	305,916	150,505
158,589	-4,104	305,676	150,285
159,604	-3,890	305,327	150,321
160,619	-3,860	305,279	150,315
161,633	-3,902	304,914	150,078
162,648	-3,905	304,806	150,009
163,662	-3,940	304,706	149,910
164,677	-3,916	304,422	149,781
165,692	-3,934	304,162	149,622
166,706	-3,771	304,013	149,703
167,721	-3,851	303,973	149,588
168,735	-3,960	303,683	149,320
169,750	-3,673	303,422	149,473
170,764	-3,840	303,268	149,212
171,779	-3,881	303,086	149,068
172,794	-3,879	302,945	148,987
173,808	-4,171	302,810	148,608
174,823	-4,251	302,276	148,251
175,837	-4,393	302,171	148,041
176,852	-3,942	302,029	148,419
177,867	-3,857	301,960	148,459
178,881	-3,822	301,715	148,360
179,896	-3,807	301,528	148,271
180,910	-3,739	301,278	148,204
181,925	-3,753	301,128	148,103
182,940	-3,609	300,871	148,110
183,954	-3,707	300,466	147,797
184,969	-3,762	300,525	147,757
185,983	-3,663	300,296	147,732
186,998	-3,807	300,149	147,501
188,013	-3,629	299,885	147,538
189,027	-3,645	299,575	147,357
190,042	-3,599	299,496	147,351
191,056	-3,817	299,315	147,028
192,071	-3,613	299,155	147,142
193,086	-3,637	298,985	147,022
194,100	-3,488	298,687	147,013
195,115	-3,803	298,413	146,547
196,129	-3,663	298,292	146,615
197,144	-3,552	297,929	146,536
198,159	-3,557	297,756	146,433
199,173	-3,722	297,709	146,230
200,188	-3,735	297,510	146,106
201,202	-3,803	297,182	145,864
202,217	-4,203	296,848	145,287
203,232	-4,153	296,716	145,259
204,246	-4,064	296,527	145,242
205,261	-3,665	296,247	145,491
206,275	-3,628	296,101	145,444
207,290	-3,857	295,996	145,150
208,304	-3,943	295,798	144,954
209,319	-3,715	295,485	145,016
210,334	-3,788	295,358	144,867
211,348	-3,846	295,042	144,642
212,363	-3,706	294,959	144,727
213,377	-3,777	294,672	144,503
214,392	-3,745	294,567	144,471
215,407	-3,773	294,246	144,273
216,421	-3,904	293,952	143,986
217,436	-3,932	294,015	143,976
218,450	-3,932	293,664	143,791
219,465	-4,001	293,581	143,670
220,480	-3,812	293,558	143,833
221,494	-3,901	293,289	143,600
222,509	-3,887	293,037	143,477
223,523	-3,675	292,934	143,624
224,538	-3,755	292,697	143,416
225,553	-3,592	292,431	143,433
226,567	-3,711	292,417	143,296
227,582	-3,745	292,160	143,124
228,596	-3,828	292,016	142,959
229,611	-3,770	291,835	142,915
230,626	-3,791	291,719	142,824
231,640	-3,949	291,312	142,457
232,655	-4,247	290,930	141,966
233,669	-4,257	290,635	141,800
234,684	-4,310	290,605	141,721
235,699	-4,101	290,472	141,847
236,713	-4,243	290,380	141,651
237,728	-4,112	290,062	141,611
238,742	-3,927	289,856	141,678
239,757	-3,777	289,731	141,751
240,772	-3,894	289,628	141,574
241,786	-3,976	289,490	141,413
242,801	-3,967	289,190	141,263
243,815	-3,909	288,937	141,184
244,830	-3,928	288,860	141,115
245,844	-4,157	288,643	140,774
246,859	-3,876	288,328	140,880
247,874	-3,953	288,269	140,764
248,888	-3,911	288,077	140,699
249,903	-3,606	288,038	140,962
250,917	-3,672	287,899	140,818
251,932	-3,670	287,822	140,769
252,947	-2,876	287,892	141,559
253,961	-3,100	287,515	141,145
254,976	-2,183	287,957	142,237
255,990	0,584	288,565	145,204
257,005	0,694	288,697	145,363
258,020	2,058	289,161	146,905
259,034	2,758	289,018	147,496
260,049	2,621	288,928	147,305
261,063	2,398	288,627	146,923
262,078	2,638	288,596	147,125
263,093	3,505	288,639	147,972
264,107	3,550	288,327	147,842
265,122	3,521	288,298	147,785
266,136	3,649	288,046	147,767
267,151	3,357	287,985	147,441
268,166	3,244	287,628	147,137
269,180	3,357	287,572	147,203
270,195	3,367	287,339	147,081
271,209	3,413	287,145	147,013
272,224	3,227	286,928	146,710
273,239	3,193	286,615	146,504
274,253	3,187	286,481	146,417
275,268	3,279	286,482	146,492
276,282	3,506	286,096	146,499
277,297	3,248	285,953	146,166
278,312	3,265	285,839	146,112
279,326	3,573	285,681	146,311
280,341	3,351	285,580	146,035
281,355	3,363	285,214	145,846
282,370	3,058	285,074	145,471
283,384	3,348	284,794	145,591
284,399	3,469	284,799	145,695
285,414	3,269	284,543	145,362
286,428	3,221	284,402	145,231
287,443	2,974	284,011	144,784
288,457	2,974	283,806	144,667
289,472	2,950	283,688	144,571
290,487	2,887	283,559	144,433
291,501	2,762	283,208	144,123
292,516	2,757	282,985	143,992
293,530	2,470	282,928	143,679
294,545	2,955	282,891	144,105
295,560	3,084	282,702	144,118
296,574	2,832	282,434	143,731
297,589	2,981	282,215	143,747
298,603	3,276	282,220	144,015
299,618	3,327	282,047	143,961
300,633	3,216	281,763	143,699
301,647	3,122	281,744	143,588
302,662	3,158	281,460	143,465
303,676	2,807	281,090	142,934
304,691	2,932	280,715	142,848
305,706	2,486	280,562	142,340
306,720	2,494	280,410	142,258
307,735	2,405	280,303	142,108
308,749	2,841	280,039	142,368
309,764	2,791	279,945	142,261
310,779	2,652	279,705	141,996
311,793	2,630	279,315	141,766
312,808	2,549	279,237	141,638
313,822	2,661	279,256	141,739
314,837	2,471	279,034	141,438
315,852	2,501	278,765	141,316
316,866	2,576	278,550	141,264
317,881	2,522	278,405	141,128
318,895	2,508	278,352	141,076
319,910	2,411	277,939	140,764
320,925	2,459	277,845	140,748
321,939	2,681	277,777	140,906
322,954	2,510	277,597	140,645
323,968	2,760	277,524	140,826
324,983	2,819	277,387	140,799
325,997	2,733	277,244	140,634
327,012	3,093	277,015	140,837
328,027	2,835	276,890	140,523
329,041	2,726	276,731	140,329
330,056	2,743	276,577	140,255
331,070	2,760	276,328	140,131
332,085	2,652	276,004	139,856
333,100	2,676	275,929	139,827
334,114	2,670	275,652	139,669
335,129	2,521	275,441	139,413
336,143	2,875	275,368	139,687
337,158	3,016	275,278	139,758
338,173	3,065	275,054	139,677
339,187	2,636	274,878	139,184
340,202	2,784	274,794	139,263
341,216	2,907	274,492	139,211
342,231	2,805	274,375	139,046
343,246	2,880	274,145	138,985
344,260	2,643	274,009	138,688
345,275	2,890	273,874	138,832
346,289	3,069	273,893	138,992
347,304	3,119	273,581	138,867
348,319	2,830	273,364	138,481
349,333	2,799	273,066	138,291
350,348	3,082	273,057	138,530
351,362	3,303	272,768	138,571
352,377	3,030	272,675	138,265
353,392	3,265	272,458	138,354
354,406	3,264	272,390	138,306
355,421	192,765	1328,481	1405,960
356,435	155,793	1457,208	1406,028
