DTS Sentinel unit serial number:	SN410029Multiplexer serial number:	ORYXHardware model number:	OX2-SRSoftware version number:	ORYX F/W v4,00 Oryx Data Collector v3.7.2.0data status	okinstallation	B4 Nyhavnadifferential loss correction	single-endedforward channel	channel 2reverse channel	N/Adate	2023/12/15time	18:55:13forward acquisition time	300,00reverse acquisition time	0,00gamma	499,1914k internal	0,3138k external	0,3138temperature offset calibration	1,0000default loss term (dB/km)	0,3820temperature slope calibration	1,0000multiplexer offset coefficient	1,0000multiplexer slope coefficient	1,0000fibre end	0,00T internal ref (°C)	19,46T ext. ref 1 (°C)	5,45T ext. ref 2 (°C)	5,59length (m)	temperature (°C)	Stokes	anti-Stokes-744,400	-200,000	-0,008	0,088
-743,385	-88,749	-0,395	0,086
-742,371	-89,471	0,226	0,049
-741,356	-68,855	-0,251	0,071
-740,342	-138,003	0,059	0,005
-739,327	-60,832	-0,147	0,046
-738,312	-45,996	0,097	-0,035
-737,298	-94,239	-0,243	-0,049
-736,283	-111,183	0,182	0,027
-735,269	156,178	-0,188	0,192
-734,254	413,273	0,038	-0,060
-733,239	-53,586	-0,391	-0,132
-732,225	-31,784	0,157	0,065
-731,210	800,000	0,055	0,127
-730,196	720,187	-0,058	0,115
-729,181	-80,298	-0,150	-0,037
-728,167	800,000	-0,027	-0,074
-727,152	80,723	-0,132	-0,106
-726,137	32,965	0,105	-0,067
-725,123	-200,000	-0,047	-0,179
-724,108	-200,000	0,008	-0,094
-723,094	-200,000	-0,005	-0,147
-722,079	-200,000	-0,025	-0,147
-721,064	63,411	-0,102	-0,076
-720,050	-4,389	0,166	-0,085
-719,035	-200,000	-0,005	0,062
-718,021	-161,371	-0,131	-0,005
-717,006	-45,982	-0,127	-0,046
-715,991	-96,014	-0,024	-0,005
-714,977	170,517	-0,085	-0,091
-713,962	-0,258	-0,108	-0,057
-712,948	88,321	0,139	0,114
-711,933	-101,168	-0,115	-0,021
-710,918	-200,000	-0,013	0,090
-709,904	-27,927	-0,084	-0,036
-708,889	800,000	-0,039	-0,103
-707,875	-200,000	-0,045	-0,164
-706,860	66,157	-0,025	0,019
-705,845	-139,417	-0,060	-0,005
-704,831	76,328	0,146	0,114
-703,816	-200,000	-0,025	0,110
-702,802	-10,319	-0,155	-0,076
-701,787	-200,000	0,039	-0,195
-700,772	59,021	0,024	-0,018
-699,758	663,408	0,044	0,085
-698,743	-57,865	-0,085	-0,027
-697,729	642,371	0,022	0,041
-696,714	626,349	-0,051	-0,095
-695,699	-200,000	-0,017	-0,084
-694,685	-19,373	-0,073	-0,034
-693,670	87,224	0,059	-0,048
-692,656	800,000	-0,007	-0,020
-691,641	-200,000	-0,002	-0,057
-690,627	-7,679	0,076	0,038
-689,612	-119,081	0,106	-0,014
-688,597	-200,000	-0,026	0,097
-687,583	-128,850	-0,135	0,014
-686,568	258,043	-0,055	-0,071
-685,554	34,513	0,120	0,077
-684,539	51,404	-0,069	0,049
-683,524	-25,385	0,046	-0,020
-682,510	-13,601	0,041	0,019
-681,495	-1,492	0,118	-0,061
-680,481	448,867	-0,115	-0,188
-679,466	-162,770	0,115	-0,004
-678,451	-23,246	-0,097	-0,043
-677,437	308,044	0,049	-0,067
-676,422	262,767	0,032	0,041
-675,408	800,000	-0,006	0,018
-674,393	0,811	-0,059	-0,031
-673,378	106,961	-0,046	-0,041
-672,364	-62,868	0,122	-0,037
-671,349	561,485	0,011	-0,021
-670,335	-19,549	0,078	-0,036
-669,320	-200,000	0,000	0,060
-668,305	49,935	0,041	-0,029
-667,291	-150,403	0,039	0,002
-666,276	763,271	-0,046	0,094
-665,262	440,653	-0,108	-0,176
-664,247	-153,671	-0,071	0,004
-663,232	-8,736	-0,051	-0,025
-662,218	-74,753	-0,119	0,031
-661,203	222,434	-0,039	0,046
-660,189	251,494	0,028	-0,036
-659,174	-67,330	-0,052	0,015
-658,159	800,000	0,043	0,106
-657,145	333,746	-0,060	-0,086
-656,130	800,000	-0,024	-0,074
-655,116	-50,252	0,088	-0,031
-654,101	800,000	-0,025	-0,054
-653,086	-200,000	-0,002	-0,036
-652,072	-137,948	-0,073	0,006
-651,057	362,835	-0,039	-0,058
-650,043	91,422	0,047	-0,039
-649,028	-200,000	-0,029	-0,147
-648,014	-135,311	0,067	0,006
-646,999	-200,000	0,011	0,082
-645,984	772,962	0,059	0,120
-644,970	-200,000	0,017	-0,056
-643,955	800,000	0,030	-0,086
-642,941	-36,303	-0,055	-0,022
-641,926	273,877	-0,101	0,133
-640,911	751,955	0,042	0,084
-639,897	-200,000	-0,001	0,045
-638,882	43,391	0,081	0,054
-637,868	800,000	-0,017	-0,052
-636,853	-200,000	-0,019	-0,100
-635,838	-161,394	-0,121	-0,005
-634,824	800,000	-0,036	0,076
-633,809	-31,890	0,079	-0,033
-632,795	-22,285	0,032	-0,014
-631,780	438,629	-0,047	-0,076
-630,765	-103,841	0,064	-0,011
-629,751	714,303	0,031	-0,062
-628,736	800,000	-0,055	-0,116
-627,722	-4,326	-0,035	-0,018
-626,707	-200,000	0,036	-0,132
-625,692	243,476	0,074	-0,092
-624,678	-200,000	0,018	-0,060
-623,663	-37,737	-0,035	-0,014
-622,649	-160,466	0,062	0,002
-621,634	5,648	0,178	-0,097
-620,619	800,000	-0,043	-0,122
-619,605	-147,676	0,101	-0,006
-618,590	800,000	0,048	0,139
-617,576	176,522	-0,053	-0,056
-616,561	-75,580	-0,067	-0,017
-615,546	-23,419	-0,136	-0,060
-614,532	214,026	0,063	-0,074
-613,517	800,000	0,038	0,108
-612,503	255,771	-0,067	0,084
-611,488	298,694	0,070	0,096
-610,474	20,411	0,026	-0,015
-609,459	108,315	0,033	0,029
-608,444	-159,889	-0,111	-0,004
-607,430	-133,967	-0,075	-0,007
-606,415	-100,358	-0,117	-0,021
-605,401	-32,911	-0,063	0,026
-604,386	163,628	-0,068	0,070
-603,371	32,045	0,053	-0,033
-602,357	-130,981	0,137	0,013
-601,342	82,503	-0,023	0,018
-600,328	205,753	0,039	-0,045
-599,313	800,000	0,010	0,022
-598,298	357,359	0,049	-0,073
-597,284	-65,817	-0,048	0,014
-596,269	-60,286	0,160	0,050
-595,255	111,125	0,048	-0,042
-594,240	161,329	0,099	-0,102
-593,225	373,200	-0,104	-0,157
-592,211	-200,000	0,026	-0,095
-591,196	41,253	0,065	0,043
-590,182	393,764	-0,048	0,074
-589,167	169,026	0,105	-0,111
-588,152	-200,000	-0,038	-0,147
-587,138	-200,000	-0,020	0,117
-586,123	147,412	-0,091	0,091
-585,109	118,915	0,077	0,070
-584,094	10,845	-0,082	0,046
-583,079	-200,000	0,010	-0,077
-582,065	97,794	0,122	0,103
-581,050	-0,625	0,004	-0,002
-580,036	-53,046	-0,093	-0,032
-579,021	-200,000	0,003	-0,063
-578,006	688,959	-0,037	0,071
-576,992	-200,000	-0,011	-0,065
-575,977	532,562	0,051	0,090
-574,963	800,000	-0,035	0,104
-573,948	8,007	0,037	-0,020
-572,934	-200,000	0,011	0,043
-571,919	800,000	0,038	-0,122
-570,904	51,418	0,077	-0,054
-569,890	-200,000	0,008	-0,097
-568,875	-197,290	0,093	-0,000
-567,861	210,291	-0,071	-0,082
-566,846	-200,000	0,011	-0,144
-565,831	81,069	-0,062	0,049
-564,817	800,000	-0,009	-0,024
-563,802	270,900	-0,104	0,135
-562,788	-163,679	-0,083	0,003
-561,773	494,189	-0,038	-0,065
-560,758	710,723	0,027	0,052
-559,744	-148,104	0,184	0,011
-558,729	183,508	-0,066	0,072
-557,715	-31,987	0,055	-0,022
-556,700	-186,882	-0,074	-0,001
-555,685	-200,000	0,048	-0,196
-554,671	65,561	0,089	-0,066
-553,656	-200,000	0,034	0,150
-552,642	38,175	0,074	-0,049
-551,627	-200,000	-0,001	-0,007
-550,612	-166,502	-0,158	0,005
-549,598	800,000	0,004	-0,012
-548,583	-163,442	-0,085	0,003
-547,569	50,306	-0,142	0,099
-546,554	-200,000	0,013	-0,055
-545,539	800,000	0,025	-0,068
-544,525	-72,956	-0,023	-0,006
-543,510	701,243	-0,045	-0,087
-542,496	-200,000	-0,001	-0,086
-541,481	70,777	-0,090	-0,069
-540,466	269,126	-0,016	0,020
-539,452	-164,491	-0,014	0,000
-538,437	800,000	0,013	0,041
-537,423	-147,153	-0,076	0,005
-536,408	47,356	0,037	-0,025
-535,393	248,789	0,036	0,045
-534,379	66,241	0,024	-0,018
-533,364	-84,152	0,062	0,014
-532,350	-200,000	-0,016	-0,070
-531,335	-31,279	0,130	0,054
-530,321	148,398	0,074	0,074
-529,306	46,113	0,101	-0,069
-528,291	20,619	-0,139	0,083
-527,277	800,000	0,045	-0,122
-526,262	80,900	-0,046	-0,036
-525,248	164,169	-0,036	0,038
-524,233	-80,674	0,153	-0,037
-523,218	-11,210	-0,201	-0,097
-522,204	-200,000	0,039	-0,138
-521,189	-200,000	-0,010	0,058
-520,175	415,374	-0,050	0,079
-519,160	800,000	0,064	-0,142
-518,145	-47,456	0,077	-0,027
-517,131	-200,000	0,015	0,077
-516,116	63,218	-0,050	0,037
-515,102	67,661	0,092	0,069
-514,087	248,066	0,082	-0,102
-513,072	-60,910	0,050	-0,016
-512,058	-200,000	-0,020	-0,176
-511,043	800,000	-0,030	0,078
-510,029	60,621	-0,055	0,040
-509,014	800,000	-0,032	-0,075
-507,999	267,538	-0,039	-0,050
-506,985	-7,039	0,074	-0,037
-505,970	321,704	0,057	-0,080
-504,956	-200,000	0,008	-0,099
-503,941	346,255	-0,006	-0,009
-502,926	173,892	-0,068	0,073
-501,912	-181,309	0,093	0,001
-500,897	-200,000	0,005	0,043
-499,883	-47,785	-0,096	0,034
-498,868	-200,000	0,005	-0,060
-497,853	800,000	-0,034	0,089
-496,839	800,000	0,012	-0,028
-495,824	25,061	0,080	-0,049
-494,810	-200,000	0,003	0,053
-493,795	-62,733	0,127	0,038
-492,781	-200,000	-0,028	-0,121
-491,766	234,202	0,029	-0,036
-490,751	-4,354	-0,107	-0,054
-489,737	38,116	0,129	0,084
-488,722	800,000	-0,068	0,170
-487,708	187,233	0,029	0,032
-486,693	-112,908	0,055	0,008
-485,678	200,087	-0,040	-0,045
-484,664	800,000	-0,042	0,122
-483,649	-70,563	-0,114	0,032
-482,635	135,793	-0,059	0,056
-481,620	220,704	-0,042	0,050
-480,605	41,224	-0,007	0,005
-479,591	-200,000	0,046	0,187
-478,576	782,856	0,051	0,104
-477,562	458,921	-0,068	0,111
-476,547	-150,538	-0,058	-0,003
-475,532	119,251	-0,102	-0,093
-474,518	-200,000	-0,009	-0,089
-473,503	-200,000	0,061	0,201
-472,489	-69,061	-0,047	0,013
-471,474	-98,824	0,028	0,005
-470,459	-200,000	-0,023	-0,118
-469,445	800,000	-0,046	-0,117
-468,430	-146,171	0,019	0,001
-467,416	161,056	-0,111	-0,114
-466,401	90,355	0,032	-0,026
-465,386	671,920	-0,048	0,091
-464,372	238,250	-0,038	0,046
-463,357	20,289	-0,162	-0,096
-462,343	305,501	-0,074	0,101
-461,328	-200,000	0,001	-0,080
-460,313	-43,547	-0,062	0,023
-459,299	-200,000	-0,039	-0,126
-458,284	-106,246	0,072	0,012
-457,270	102,171	0,079	0,068
-456,255	13,753	-0,078	0,044
-455,241	-200,000	0,043	-0,170
-454,226	-200,000	0,004	-0,093
-453,211	-155,580	0,058	-0,003
-452,197	-124,278	-0,038	-0,004
-451,182	-200,000	0,004	-0,066
-450,168	68,416	-0,074	0,056
-449,153	-200,000	0,026	0,105
-448,138	64,773	-0,024	-0,017
-447,124	-200,000	0,002	-0,084
-446,109	12,196	-0,154	0,087
-445,095	197,542	0,125	0,140
-444,080	800,000	-0,045	-0,137
-443,065	-200,000	0,031	0,156
-442,051	257,760	-0,094	-0,119
-441,036	473,265	-0,010	-0,017
-440,022	-200,000	-0,006	-0,025
-439,007	800,000	0,031	0,067
-437,992	-11,962	0,182	-0,087
-436,978	-108,040	-0,095	0,015
-435,963	-161,081	0,111	-0,004
-434,949	428,730	-0,106	0,168
-433,934	149,373	-0,070	0,070
-432,919	16,011	-0,006	0,003
-431,905	800,000	0,020	-0,057
-430,890	800,000	0,061	0,154
-429,876	-61,862	0,107	0,033
-428,861	800,000	-0,012	0,037
-427,846	-14,410	-0,110	-0,052
-426,832	-200,000	0,003	0,079
-425,817	75,104	0,083	-0,064
-424,803	504,450	0,093	0,158
-423,788	444,102	-0,107	-0,173
-422,773	655,382	0,041	0,078
-421,759	800,000	-0,022	-0,057
-420,744	-200,000	0,009	-0,091
-419,730	-200,000	-0,008	-0,038
-418,715	-80,175	-0,120	-0,029
-417,701	-200,000	-0,039	0,132
-416,686	800,000	0,059	0,177
-415,671	260,345	-0,030	-0,038
-414,657	-200,000	0,009	-0,109
-413,642	200,466	-0,030	-0,033
-412,628	-200,000	0,012	-0,106
-411,613	362,441	-0,061	-0,090
-410,598	-17,294	0,107	-0,049
-409,584	7,238	-0,019	-0,010
-408,569	445,001	-0,017	0,027
-407,555	-36,221	0,041	0,016
-406,540	800,000	0,034	0,110
-405,525	-27,461	0,090	0,038
-404,511	-11,587	-0,063	-0,030
-403,496	88,449	-0,105	0,085
-402,482	-200,000	0,033	-0,142
-401,467	-200,000	-0,022	0,117
-400,452	54,214	-0,119	-0,084
-399,438	299,153	0,022	0,030
-398,423	167,793	-0,109	-0,113
-397,409	283,919	-0,055	-0,073
-396,394	331,642	0,079	-0,111
-395,379	-200,000	-0,010	-0,106
-394,365	-66,253	-0,163	0,047
-393,350	-200,000	0,037	0,154
-392,336	249,825	-0,051	0,064
-391,321	35,063	-0,100	-0,064
-390,306	-120,750	-0,036	0,004
-389,292	800,000	0,041	-0,087
-388,277	800,000	-0,046	-0,107
-387,263	-124,386	0,069	0,008
-386,248	405,759	0,029	0,044
-385,233	800,000	-0,021	-0,058
-384,219	-200,000	0,001	-0,032
-383,204	474,221	0,040	-0,067
-382,190	-200,000	-0,017	-0,074
-381,175	800,000	0,047	0,111
-380,160	381,348	0,031	0,047
-379,146	88,752	-0,032	-0,026
-378,131	-200,000	0,124	0,000
-377,117	-58,517	-0,078	-0,025
-376,102	-199,645	-0,093	0,000
-375,088	120,494	0,108	-0,098
-374,073	545,283	0,079	-0,139
-373,058	6,393	0,026	-0,014
-372,044	187,741	-0,056	0,061
-371,029	800,000	0,019	0,044
-370,015	-47,816	0,149	0,052
-369,000	114,437	-0,079	-0,070
-367,985	-6,333	-0,111	-0,055
-366,971	-65,664	-0,056	-0,016
-365,956	95,187	0,024	0,020
-364,942	-102,627	-0,022	-0,004
-363,927	-113,201	-0,055	-0,008
-362,912	-92,258	-0,084	-0,017
-361,898	-68,589	0,128	0,036
-360,883	800,000	-0,039	0,117
-359,869	216,795	-0,019	0,022
-358,854	-131,913	-0,095	-0,009
-357,839	800,000	-0,021	-0,062
-356,825	97,835	-0,099	0,083
-355,810	299,893	-0,029	-0,039
-354,796	-108,262	-0,054	0,008
-353,781	-12,537	0,041	0,020
-352,766	-43,061	-0,092	0,034
-351,752	800,000	-0,046	0,141
-350,737	345,342	-0,055	0,079
-349,723	83,917	0,045	0,036
-348,708	17,035	0,042	-0,024
-347,693	29,817	-0,085	0,053
-346,679	103,991	-0,119	-0,102
-345,664	-99,974	-0,095	-0,017
-344,650	-162,368	0,060	-0,002
-343,635	-200,000	0,001	-0,055
-342,620	359,633	0,084	0,123
-341,606	-200,000	0,011	0,200
-340,591	-200,000	-0,015	-0,089
-339,577	-200,000	0,003	0,039
-338,562	800,000	0,037	-0,085
-337,548	-200,000	-0,003	-0,084
-336,533	98,229	-0,096	-0,081
-335,518	-107,397	0,044	0,007
-334,504	-34,721	-0,118	-0,047
-333,489	-200,000	0,010	0,083
-332,475	-29,654	-0,100	-0,041
-331,460	9,224	0,074	0,041
-330,445	479,077	-0,049	0,082
-329,431	-75,677	0,053	0,014
-328,416	800,000	-0,033	0,067
-327,402	97,532	-0,059	-0,050
-326,387	57,476	-0,034	-0,024
-325,372	-85,016	-0,118	-0,027
-324,358	36,847	-0,068	0,044
-323,343	188,792	0,073	-0,080
-322,329	245,174	0,058	0,071
-321,314	800,000	-0,034	0,082
-320,299	-99,888	-0,141	0,026
-319,285	206,133	0,079	0,090
-318,270	82,415	-0,051	-0,041
-317,256	800,000	-0,019	0,052
-316,241	800,000	0,041	-0,089
-315,226	-200,000	0,013	-0,075
-314,212	264,928	0,083	0,106
-313,197	145,203	-0,060	-0,059
-312,183	-200,000	0,023	-0,083
-311,168	95,427	-0,033	-0,028
-310,153	-134,743	0,018	0,002
-309,139	-200,000	0,017	-0,179
-308,124	265,312	0,013	0,017
-307,110	-129,170	0,174	0,018
-306,095	-200,000	0,002	0,032
-305,080	227,994	0,067	0,080
-304,066	36,238	-0,040	0,025
-303,051	-60,490	-0,098	-0,030
-302,037	800,000	0,022	-0,065
-301,022	249,559	-0,062	-0,077
-300,008	-200,000	-0,017	0,136
-298,993	-74,675	0,035	0,009
-297,978	-17,882	0,117	0,053
-296,964	-53,553	-0,062	-0,021
-295,949	-200,000	0,000	0,030
-294,935	108,169	0,034	0,029
-293,920	119,825	0,041	0,037
-292,905	152,405	0,088	-0,087
-291,891	-124,374	0,121	0,014
-290,876	469,917	0,031	0,051
-289,862	261,817	-0,019	0,024
-288,847	-200,000	0,001	-0,075
-287,832	40,636	-0,135	-0,089
-286,818	239,552	0,078	-0,094
-285,803	-31,581	0,056	-0,023
-284,789	80,381	-0,207	-0,162
-283,774	197,218	-0,019	0,021
-282,759	-146,712	-0,059	-0,004
-281,745	-200,000	0,025	-0,148
-280,730	106,434	-0,085	-0,073
-279,716	156,098	-0,058	-0,058
-278,701	-200,000	-0,032	0,126
-277,686	-157,506	0,019	-0,001
-276,672	244,146	-0,027	-0,033
-275,657	-62,356	-0,052	-0,016
-274,643	58,651	0,125	-0,089
-273,628	-200,000	-0,007	0,031
-272,613	-39,100	0,101	-0,038
-271,599	67,111	0,108	-0,080
-270,584	403,076	0,129	0,199
-269,570	-200,000	-0,004	0,084
-268,555	81,173	-0,039	0,031
-267,540	-200,000	-0,016	-0,102
-266,526	49,084	-0,027	-0,018
-265,511	532,134	0,054	0,093
-264,497	107,882	-0,006	0,005
-263,482	186,086	0,089	0,096
-262,467	-200,000	0,006	0,073
-261,453	800,000	0,045	-0,100
-260,438	206,962	0,059	-0,067
-259,424	-200,000	-0,023	-0,107
-258,409	279,625	-0,056	-0,073
-257,395	-146,752	0,058	0,004
-256,380	-21,747	0,064	-0,028
-255,365	-28,827	-0,108	-0,045
-254,351	-200,000	0,003	-0,074
-253,336	-200,000	-0,007	0,124
-252,322	47,513	-0,033	0,022
-251,307	800,000	0,065	0,155
-250,292	374,494	0,082	0,122
-249,278	-200,000	-0,008	0,246
-248,263	-200,000	0,016	0,087
-247,249	624,265	0,063	0,116
-246,234	747,302	0,020	-0,039
-245,219	-125,852	-0,086	0,009
-244,205	800,000	-0,053	-0,112
-243,190	-46,878	0,066	0,023
-242,176	-67,009	0,157	0,045
-241,161	-200,000	0,045	0,146
-240,146	105,550	-0,064	0,055
-239,132	-200,000	0,032	-0,115
-238,117	-25,787	-0,086	0,037
-237,103	708,734	-0,010	0,019
-236,088	7,261	-0,066	-0,036
-235,073	-170,224	-0,151	0,004
-234,059	413,098	0,037	0,058
-233,044	0,526	0,075	0,039
-232,030	800,000	0,039	-0,098
-231,015	74,861	-0,071	-0,055
-230,000	-200,000	-0,010	-0,098
-228,986	268,284	-0,060	0,077
-227,971	-200,000	-0,017	0,088
-226,957	-88,228	0,177	0,038
-225,942	198,580	-0,028	-0,031
-224,927	800,000	0,054	-0,148
-223,913	-58,132	-0,128	0,040
-222,898	151,445	-0,086	0,085
-221,884	-51,318	0,040	-0,014
-220,869	264,175	0,145	0,184
-219,855	-145,911	0,131	-0,008
-218,840	35,940	-0,039	-0,025
-217,825	389,283	-0,038	-0,058
-216,811	23,726	0,076	-0,045
-215,796	-63,800	-0,154	0,046
-214,782	136,960	0,125	0,119
-213,767	-76,233	-0,042	0,011
-212,752	-200,000	-0,036	0,124
-211,738	-27,021	-0,037	0,016
-210,723	-4,831	0,185	-0,092
-209,709	-200,000	0,010	0,115
-208,694	21,714	0,136	-0,080
-207,679	221,305	-0,006	-0,007
-206,665	26,285	0,150	0,091
-205,650	-200,000	-0,003	0,104
-204,636	50,974	0,040	0,028
-203,621	-200,000	0,014	0,105
-202,606	-15,079	0,065	0,030
-201,592	293,491	-0,070	-0,093
-200,577	-0,664	0,134	0,069
-199,563	-200,000	-0,002	0,111
-198,548	800,000	0,023	-0,049
-197,533	219,834	-0,127	0,148
-196,519	800,000	0,012	-0,029
-195,504	800,000	0,013	-0,036
-194,490	-200,000	0,023	0,088
-193,475	800,000	0,055	-0,116
-192,460	-116,241	-0,057	-0,008
-191,446	430,606	-0,033	0,052
-190,431	800,000	-0,021	0,066
-189,417	281,278	0,061	0,079
-188,402	30,343	-0,081	-0,050
-187,387	-5,966	-0,105	-0,052
-186,373	12,700	-0,081	0,045
-185,358	164,264	-0,033	0,034
-184,344	-151,872	0,097	-0,005
-183,329	-103,477	0,150	-0,025
-182,315	-146,153	0,152	0,010
-181,300	-12,414	-0,167	0,079
-180,285	-102,059	0,059	0,010
-179,271	-29,514	0,040	-0,017
-178,256	800,000	-0,029	0,080
-177,242	316,186	0,029	0,040
-176,227	-38,688	0,041	0,016
-175,212	800,000	0,039	0,098
-174,198	800,000	-0,033	-0,093
-173,183	-134,363	0,025	0,002
-172,169	32,701	0,041	-0,026
-171,154	-200,000	0,004	0,019
-170,139	17,542	0,076	-0,044
-169,125	130,769	-0,107	-0,100
-168,110	-200,000	-0,005	0,150
-167,096	800,000	0,024	0,052
-166,081	800,000	-0,030	0,063
-165,066	-200,000	0,020	0,074
-164,052	5,169	-0,042	0,023
-163,037	488,507	0,031	-0,051
-162,023	-118,006	0,115	-0,015
-161,008	800,000	-0,022	0,045
-159,993	422,004	-0,096	0,150
-158,979	-111,955	0,125	-0,018
-157,964	800,000	-0,047	-0,113
-156,950	14,003	0,091	0,051
-155,935	346,315	0,041	0,059
-154,920	800,000	-0,011	0,025
-153,906	334,171	0,080	-0,113
-152,891	688,838	-0,044	-0,084
-151,877	800,000	0,022	-0,070
-150,862	-35,256	-0,155	-0,061
-149,847	105,523	0,074	0,064
-148,833	191,640	-0,024	-0,027
-147,818	215,591	0,089	0,103
-146,804	475,874	0,030	0,050
-145,789	800,000	0,016	-0,044
-144,775	-200,000	0,007	-0,158
-143,760	-17,929	-0,040	0,018
-142,745	-156,804	-0,069	0,003
-141,731	-53,984	0,095	-0,031
-140,716	800,000	-0,027	-0,065
-139,702	-19,699	0,087	-0,039
-138,687	800,000	-0,015	0,038
-137,672	800,000	0,010	0,029
-136,658	-53,910	-0,010	0,003
-135,643	-54,487	-0,101	0,033
-134,629	161,611	0,042	-0,042
-133,614	297,896	0,066	0,088
-132,599	110,835	-0,102	0,089
-131,585	800,000	0,010	0,031
-130,570	-55,841	-0,071	-0,023
-129,556	-200,000	0,001	0,004
-128,541	561,204	0,020	-0,036
-127,526	-200,000	-0,034	-0,152
-126,512	-155,800	0,112	0,005
-125,497	-84,987	0,068	0,015
-124,483	-93,402	0,131	0,026
-123,468	-27,663	-0,036	0,015
-122,453	-61,486	-0,110	0,033
-121,439	96,191	0,106	0,087
-120,424	62,801	-0,076	-0,055
-119,410	345,695	0,055	0,078
-118,395	-145,893	-0,173	0,011
-117,380	-120,463	-0,047	-0,006
-116,366	-200,000	0,016	-0,056
-115,351	-61,189	0,053	0,016
-114,337	-9,736	0,070	-0,034
-113,322	-154,284	-0,184	-0,009
-112,307	389,765	-0,116	0,175
-111,293	-28,201	0,188	0,078
-110,278	143,548	-0,097	-0,094
-109,264	-200,000	-0,010	-0,066
-108,249	-83,273	-0,171	0,039
-107,234	-57,339	0,128	-0,040
-106,220	96,940	0,052	-0,043
-105,205	-200,000	-0,004	0,079
-104,191	57,809	-0,028	0,019
-103,176	64,359	0,051	0,037
-102,162	35,588	-0,107	-0,068
-101,147	800,000	-0,045	0,117
-100,132	158,674	-0,067	0,067
-99,118	-115,113	-0,077	0,011
-98,103	190,608	0,094	0,102
-97,089	-21,643	-0,059	-0,026
-96,074	62,635	-0,050	0,036
-95,059	800,000	-0,034	0,099
-94,045	-200,000	-0,004	-0,094
-93,030	11,035	0,038	0,021
-92,016	208,214	0,042	0,048
-91,001	-200,000	0,028	0,098
-89,986	-2,915	-0,156	-0,078
-88,972	800,000	-0,036	0,081
-87,957	-123,866	-0,093	0,010
-86,943	165,558	0,037	0,038
-85,928	590,385	-0,037	0,066
-84,913	-81,680	-0,063	-0,015
-83,899	-59,168	0,065	0,020
-82,884	64,257	0,097	-0,071
-81,870	387,104	-0,068	-0,101
-80,855	631,164	0,013	-0,024
-79,840	-200,000	-0,001	0,032
-78,826	109,083	0,101	-0,087
-77,811	-0,081	-0,112	-0,058
-76,797	800,000	0,053	-0,140
-75,782	246,671	-0,010	0,012
-74,767	218,793	-0,086	0,099
-73,753	-200,000	-0,015	0,072
-72,738	445,382	0,045	-0,072
-71,724	800,000	0,057	-0,130
-70,709	-200,000	-0,010	-0,046
-69,694	-29,120	-0,143	-0,059
-68,680	-200,000	0,026	0,107
-67,665	-200,000	0,019	0,071
-66,651	142,901	-0,018	0,017
-65,636	-200,000	0,001	0,083
-64,622	-134,777	0,168	0,014
-63,607	800,000	-0,039	0,106
-62,592	-67,528	-0,021	0,006
-61,578	41,500	0,034	0,022
-60,563	75,175	-0,081	0,062
-59,549	49,743	-0,042	-0,028
-58,534	-50,082	-1,529	-0,520
-57,519	602,980	-0,693	-1,250
-56,505	-200,000	-0,972	-4,578
-55,490	-65,281	0,642	0,185
-54,476	800,000	4,853	11,517
-53,461	-200,000	15,312	264,147
-52,446	800,000	696,375	2209,802
-51,432	561,749	1615,810	2833,168
-50,417	120,844	1623,462	1457,880
-49,403	81,869	1281,144	1001,042
-48,388	37,577	1021,996	653,494
-47,373	22,300	982,751	578,286
-46,359	21,240	971,624	568,245
-45,344	19,716	967,594	560,896
-44,330	19,803	966,153	560,322
-43,315	19,554	964,515	558,539
-42,300	19,546	963,435	557,866
-41,286	19,556	962,579	557,382
-40,271	19,561	961,623	556,820
-39,257	19,565	960,831	556,353
-38,242	19,565	959,914	555,801
-37,227	19,490	959,279	555,167
-36,213	19,532	958,149	554,629
-35,198	19,389	957,444	553,735
-34,184	19,524	956,709	553,724
-33,169	19,529	955,756	553,167
-32,154	19,547	954,613	552,540
-31,140	19,509	953,826	551,940
-30,125	19,572	953,140	551,725
-29,111	19,508	952,275	550,998
-28,096	19,482	951,712	550,565
-27,082	19,500	951,030	550,208
-26,067	19,484	950,286	549,704
-25,052	19,488	949,471	549,224
-24,038	19,489	948,850	548,845
-23,023	19,509	948,159	548,487
-22,009	19,500	947,505	548,061
-20,994	19,557	946,816	547,820
-19,979	19,520	946,360	547,417
-18,965	19,450	945,844	546,875
-17,950	19,490	945,112	546,556
-16,936	19,461	944,475	546,074
-15,921	19,415	943,904	545,577
-14,906	19,356	943,190	544,954
-13,892	19,294	942,567	544,374
-12,877	19,444	941,734	544,349
-11,863	19,300	941,300	543,621
-10,848	19,319	940,731	543,330
-9,833	19,411	940,367	543,389
-8,819	19,433	939,666	543,031
-7,804	19,432	938,913	542,571
-6,790	19,387	938,540	542,194
-5,775	19,430	937,760	541,857
-4,760	19,426	937,081	541,430
-3,746	19,407	936,411	540,962
-2,731	19,320	935,458	540,115
-1,717	19,190	935,140	539,501
-0,702	19,236	934,400	539,198
0,313	18,973	934,045	538,980
1,327	21,626	931,669	545,891
2,342	29,204	806,631	493,075
3,356	24,100	507,729	301,660
4,371	1,053	375,273	193,596
5,386	-1,766	358,339	181,380
6,400	-3,116	352,209	176,630
7,415	-4,048	349,396	174,086
8,429	-4,320	347,926	173,013
9,444	-4,314	346,939	172,513
10,459	-4,395	346,343	172,105
11,473	-4,341	345,648	171,808
12,488	-4,152	345,078	171,734
13,502	-4,211	344,622	171,422
14,517	-4,440	343,929	170,791
15,531	-4,742	343,375	170,146
16,546	-4,818	342,914	169,812
17,561	-4,845	342,418	169,520
18,575	-4,666	342,013	169,515
19,590	-4,778	341,572	169,149
20,604	-4,682	341,259	169,091
21,619	-4,829	340,860	168,707
22,634	-4,760	340,467	168,578
23,648	-4,872	340,146	168,273
24,663	-4,757	339,879	168,261
25,677	-4,965	339,543	167,837
26,692	-4,932	339,326	167,752
27,707	-4,802	338,964	167,710
28,721	-4,954	338,751	167,413
29,736	-5,011	338,412	167,165
30,750	-4,904	337,913	167,026
31,765	-4,806	337,710	167,025
32,780	-4,798	337,442	166,887
33,794	-4,871	337,387	166,760
34,809	-4,784	336,863	166,587
35,823	-4,882	336,661	166,360
36,838	-4,887	336,324	166,173
37,853	-5,000	336,138	165,935
38,867	-4,874	335,833	165,915
39,882	-4,778	335,405	165,799
40,896	-4,821	335,091	165,579
41,911	-5,046	334,867	165,197
42,926	-4,877	334,584	165,235
43,940	-5,084	334,315	164,851
44,955	-5,066	334,061	164,732
45,969	-4,985	333,761	164,662
46,984	-5,401	333,645	164,115
47,999	-5,281	333,054	163,946
49,013	-5,336	332,913	163,799
50,028	-5,484	332,642	163,483
51,042	-5,410	332,337	163,402
52,057	-5,409	332,027	163,236
53,071	-5,341	331,799	163,187
54,086	-5,415	331,479	162,931
55,101	-5,470	331,413	162,822
56,115	-5,098	331,091	163,070
57,130	-4,812	330,996	163,334
58,144	-4,720	330,735	163,293
59,159	-4,682	330,567	163,239
60,174	-4,735	330,207	162,987
61,188	-4,920	330,200	162,761
62,203	-4,765	329,730	162,689
63,217	-4,813	329,501	162,507
64,232	-4,734	329,100	162,384
65,247	-4,541	329,041	162,557
66,261	-4,704	328,840	162,260
67,276	-4,918	328,301	161,740
68,290	-5,098	328,200	161,474
69,305	-5,083	327,963	161,359
70,320	-5,016	327,669	161,276
71,334	-4,896	327,407	161,266
72,349	-4,611	327,242	161,489
73,363	-4,790	326,932	161,122
74,378	-4,770	326,722	161,027
75,393	-4,743	326,388	160,878
76,407	-4,871	326,132	160,595
77,422	-4,709	325,846	160,619
78,436	-4,698	325,671	160,532
79,451	-4,701	325,441	160,400
80,466	-4,830	325,009	160,030
81,480	-5,039	324,787	159,674
82,495	-5,108	324,452	159,419
83,509	-5,043	324,485	159,494
84,524	-5,014	324,001	159,273
85,539	-5,065	323,741	159,075
86,553	-5,231	323,540	158,778
87,568	-5,188	323,398	158,742
88,582	-5,189	323,121	158,591
89,597	-5,083	322,907	158,588
90,611	-4,996	322,710	158,574
91,626	-4,787	322,482	158,677
92,641	-4,898	322,176	158,391
93,655	-4,854	321,966	158,322
94,670	-4,859	321,667	158,154
95,684	-4,994	321,491	157,906
96,699	-4,771	321,139	157,963
97,714	-4,841	320,939	157,774
98,728	-4,936	320,618	157,499
99,743	-5,245	320,495	157,087
100,757	-5,150	320,215	157,039
101,772	-5,160	319,958	156,888
102,787	-5,034	319,763	156,916
103,801	-4,960	319,550	156,878
104,816	-4,996	319,344	156,724
105,830	-4,806	319,104	156,798
106,845	-4,696	318,908	156,807
107,860	-4,914	318,800	156,504
108,874	-4,869	318,425	156,354
109,889	-5,007	318,277	156,118
110,903	-4,885	318,007	156,104
111,918	-4,918	317,815	155,959
112,933	-4,889	317,564	155,855
113,947	-4,810	317,397	155,844
114,962	-4,712	317,057	155,769
115,976	-4,698	316,854	155,670
116,991	-4,696	316,526	155,497
118,006	-4,783	316,374	155,316
119,020	-4,826	316,254	155,196
120,035	-4,755	316,083	155,175
121,049	-4,804	315,991	155,063
122,064	-4,802	315,744	154,931
123,079	-4,877	315,418	154,676
124,093	-5,000	315,179	154,413
125,108	-4,996	314,848	154,241
126,122	-5,036	314,479	154,005
127,137	-5,215	314,298	153,711
128,151	-5,026	314,113	153,808
129,166	-4,898	313,892	153,823
130,181	-5,165	313,623	153,392
131,195	-5,045	313,385	153,391
132,210	-4,981	313,217	153,362
133,224	-4,796	313,071	153,474
134,239	-4,710	312,833	153,435
135,254	-4,597	312,581	153,418
136,268	-4,770	312,439	153,151
137,283	-5,029	312,033	152,663
138,297	-5,174	311,830	152,398
139,312	-5,208	311,625	152,247
140,327	-4,724	311,493	152,682
141,341	-4,443	311,333	152,887
142,356	-4,583	311,315	152,716
143,370	-4,440	310,985	152,692
144,385	-4,597	310,860	152,451
145,400	-4,588	310,546	152,292
146,414	-4,574	310,243	152,145
147,429	-4,495	310,034	152,112
148,443	-4,588	309,956	151,963
149,458	-4,529	309,698	151,884
150,473	-4,411	309,493	151,895
151,487	-4,608	309,125	151,494
152,502	-4,561	309,034	151,485
153,516	-4,527	308,738	151,362
154,531	-4,476	308,480	151,276
155,546	-4,623	308,350	151,044
156,560	-4,678	308,190	150,896
157,575	-4,779	307,913	150,640
158,589	-4,610	307,661	150,680
159,604	-4,359	307,583	150,890
160,619	-4,561	307,316	150,535
161,633	-4,485	307,107	150,498
162,648	-4,449	306,854	150,399
163,662	-4,578	306,640	150,146
164,677	-4,575	306,556	150,094
165,692	-4,554	306,270	149,963
166,706	-4,560	306,149	149,885
167,721	-4,641	305,985	149,707
168,735	-4,334	305,707	149,875
169,750	-4,500	305,668	149,671
170,764	-4,405	305,319	149,585
171,779	-4,453	305,239	149,483
172,794	-4,349	304,961	149,441
173,808	-4,531	304,620	149,072
174,823	-4,912	304,334	148,527
175,837	-4,887	304,066	148,408
176,852	-4,683	304,196	148,669
177,867	-4,418	303,888	148,778
178,881	-4,382	303,725	148,721
179,896	-4,428	303,439	148,521
180,910	-4,509	303,374	148,393
181,925	-4,389	303,154	148,395
182,940	-4,205	302,772	148,383
183,954	-4,551	302,783	148,021
184,969	-4,517	302,635	147,971
185,983	-4,337	302,304	147,979
186,998	-4,310	302,082	147,885
188,013	-4,471	301,983	147,659
189,027	-4,381	301,792	147,644
190,042	-4,323	301,418	147,507
191,056	-4,254	301,388	147,549
192,071	-4,231	301,218	147,477
193,086	-4,188	300,994	147,398
194,100	-4,221	300,632	147,173
195,115	-4,398	300,426	146,880
196,129	-4,216	300,210	146,946
197,144	-4,289	300,075	146,793
198,159	-4,188	299,944	146,818
199,173	-4,251	299,633	146,588
200,188	-4,173	299,513	146,596
201,202	-4,299	299,063	146,236
202,217	-4,752	298,784	145,629
203,232	-4,725	298,615	145,561
204,246	-4,558	298,526	145,673
205,261	-4,400	298,488	145,800
206,275	-4,417	298,195	145,627
207,290	-4,306	298,068	145,664
208,304	-4,331	297,785	145,487
209,319	-4,374	297,556	145,319
210,334	-4,230	297,386	145,368
211,348	-4,468	297,247	145,048
212,363	-4,156	296,913	145,185
213,377	-4,268	296,737	144,973
214,392	-4,333	296,524	144,791
215,407	-4,532	296,451	144,544
216,421	-4,701	296,087	144,185
217,436	-4,590	295,857	144,171
218,450	-4,612	295,713	144,065
219,465	-4,413	295,630	144,211
220,480	-4,300	295,370	144,184
221,494	-4,470	295,273	143,955
222,509	-4,519	295,035	143,776
223,523	-4,399	294,922	143,828
224,538	-4,254	294,611	143,808
225,553	-4,233	294,534	143,778
226,567	-4,410	294,585	143,614
227,582	-4,212	294,194	143,608
228,596	-4,352	294,170	143,444
229,611	-4,270	293,838	143,350
230,626	-4,412	293,660	143,111
231,640	-4,706	293,335	142,649
232,655	-5,012	293,105	142,222
233,669	-4,818	292,778	142,242
234,684	-4,787	292,558	142,153
235,699	-4,835	292,493	142,061
236,713	-4,749	292,417	142,097
237,728	-4,571	292,325	142,214
238,742	-4,561	291,988	142,048
239,757	-4,359	291,927	142,204
240,772	-4,338	291,729	142,115
241,786	-4,460	291,539	141,890
242,801	-4,504	291,402	141,768
243,815	-4,582	291,011	141,489
244,830	-4,511	290,821	141,453
245,844	-4,615	290,771	141,315
246,859	-4,746	290,450	141,018
247,874	-4,487	290,258	141,165
248,888	-4,543	290,140	141,040
249,903	-4,193	289,946	141,275
250,917	-4,101	289,788	141,275
251,932	-4,065	289,795	141,301
252,947	-3,390	290,037	142,064
253,961	-3,404	289,512	141,781
254,976	-2,558	290,115	142,887
255,990	-0,073	290,648	145,560
257,005	0,233	290,566	145,804
258,020	1,736	291,032	147,490
259,034	2,440	291,049	148,171
260,049	2,183	290,833	147,798
261,063	1,989	290,581	147,468
262,078	2,262	290,568	147,714
263,093	2,943	290,714	148,437
264,107	2,838	290,587	148,258
265,122	2,992	290,339	148,267
266,136	3,033	290,220	148,233
267,151	2,870	289,986	147,942
268,166	2,805	289,733	147,737
269,180	2,779	289,527	147,593
270,195	2,828	289,398	147,562
271,209	2,721	289,097	147,292
272,224	2,816	288,843	147,241
273,239	2,735	288,715	147,084
274,253	2,613	288,480	146,834
275,268	2,920	288,460	147,107
276,282	2,947	288,148	146,961
277,297	2,644	287,927	146,543
278,312	2,767	287,720	146,543
279,326	3,005	287,701	146,749
280,341	2,935	287,481	146,556
281,355	2,885	287,349	146,427
282,370	2,881	287,077	146,272
283,384	2,750	287,005	146,097
284,399	2,898	286,849	146,146
285,414	2,954	286,583	146,051
286,428	2,701	286,532	145,770
287,443	2,460	286,162	145,339
288,457	2,407	285,866	145,125
289,472	2,318	285,767	144,977
290,487	2,438	285,468	144,927
291,501	2,508	285,211	144,850
292,516	2,278	285,092	144,558
293,530	2,272	284,956	144,470
294,545	2,318	285,053	144,550
295,560	2,485	284,819	144,577
296,574	2,369	284,481	144,283
297,589	2,545	284,286	144,338
298,603	2,998	284,251	144,737
299,618	2,934	283,978	144,524
300,633	2,799	283,751	144,268
301,647	2,639	283,754	144,105
302,662	2,631	283,467	143,940
303,676	2,458	283,190	143,622
304,691	2,296	282,787	143,252
305,706	2,093	282,593	142,951
306,720	2,171	282,238	142,832
307,735	2,010	282,126	142,610
308,749	2,190	282,206	142,807
309,764	2,294	281,911	142,743
310,779	2,126	281,638	142,435
311,793	1,837	281,549	142,105
312,808	2,069	281,265	142,167
313,822	2,050	281,219	142,114
314,837	1,943	280,989	141,885
315,852	1,855	280,693	141,640
316,866	2,162	280,619	141,877
317,881	2,142	280,418	141,743
318,895	2,029	280,291	141,562
319,910	1,641	280,103	141,093
320,925	1,903	279,758	141,150
321,939	2,016	279,750	141,238
322,954	2,296	279,643	141,432
323,968	2,244	279,413	141,255
324,983	2,380	279,210	141,266
325,997	2,361	279,006	141,133
327,012	2,322	279,013	141,088
328,027	2,285	278,766	140,916
329,041	2,099	278,523	140,608
330,056	2,207	278,340	140,603
331,070	2,344	278,067	140,579
332,085	2,172	277,931	140,340
333,100	2,447	277,674	140,451
334,114	2,237	277,614	140,214
335,129	1,940	277,379	139,809
336,143	2,317	277,327	140,118
337,158	2,483	277,199	140,194
338,173	2,333	277,056	139,971
339,187	1,974	276,919	139,558
340,202	2,312	276,578	139,685
341,216	2,516	276,499	139,820
342,231	2,466	276,290	139,656
343,246	2,186	276,112	139,296
344,260	2,146	275,898	139,140
345,275	2,415	275,856	139,352
346,289	2,600	275,820	139,491
347,304	2,730	275,599	139,486
348,319	2,460	275,241	139,046
349,333	2,407	275,199	138,964
350,348	2,639	275,053	139,089
351,362	2,789	274,861	139,117
352,377	2,602	274,483	138,743
353,392	2,581	274,578	138,759
354,406	2,786	274,386	138,836
355,421	191,733	1328,572	1402,226
356,435	154,984	1457,041	1402,286
