DTS Sentinel unit serial number:	SN410029Multiplexer serial number:	ORYXHardware model number:	OX2-SRSoftware version number:	ORYX F/W v4,00 Oryx Data Collector v3.7.2.0data status	okinstallation	B4 Nyhavnadifferential loss correction	single-endedforward channel	channel 2reverse channel	N/Adate	2023/12/19time	13:20:13forward acquisition time	300,00reverse acquisition time	0,00gamma	499,1914k internal	0,3127k external	0,3127temperature offset calibration	1,0000default loss term (dB/km)	0,3820temperature slope calibration	1,0000multiplexer offset coefficient	1,0000multiplexer slope coefficient	1,0000fibre end	0,00T internal ref (°C)	19,40T ext. ref 1 (°C)	4,52T ext. ref 2 (°C)	4,47length (m)	temperature (°C)	Stokes	anti-Stokes-744,400	224,706	0,103	-0,124
-743,385	238,280	-0,190	0,236
-742,371	-124,773	0,046	0,005
-741,356	-188,467	-0,339	0,003
-740,342	-117,175	0,118	-0,016
-739,327	-63,969	-0,191	0,058
-738,312	-148,642	0,049	0,003
-737,298	-117,714	-0,234	0,031
-736,283	-101,764	-0,168	-0,030
-735,269	25,550	-0,221	0,136
-734,254	-200,000	-0,011	-0,044
-733,239	-15,447	-0,440	-0,208
-732,225	-80,898	0,143	0,035
-731,210	-27,110	0,028	-0,012
-730,196	800,000	-0,066	0,145
-729,181	28,819	-0,099	-0,062
-728,167	151,265	-0,009	0,009
-727,152	-200,000	-0,010	0,036
-726,137	-200,000	-0,011	-0,139
-725,123	-14,922	0,127	0,060
-724,108	-200,000	0,012	-0,074
-723,094	351,946	-0,143	-0,211
-722,079	-200,000	-0,017	-0,067
-721,064	559,824	-0,026	-0,047
-720,050	289,291	0,077	0,105
-719,035	313,688	-0,035	0,049
-718,021	-120,076	0,082	0,010
-717,006	20,544	-0,079	-0,048
-715,991	246,533	-0,128	-0,161
-714,977	-23,248	-0,058	0,026
-713,962	189,949	-0,088	0,098
-712,948	800,000	-0,042	-0,087
-711,933	100,491	-0,139	-0,120
-710,918	-200,000	0,025	-0,122
-709,904	-200,000	-0,006	-0,035
-708,889	179,757	-0,089	-0,097
-707,875	18,100	-0,127	-0,075
-706,860	288,340	-0,012	0,016
-705,845	174,041	-0,027	-0,029
-704,831	174,860	0,018	-0,019
-703,816	50,459	0,070	0,049
-702,802	-29,140	-0,074	-0,031
-701,787	23,114	0,046	-0,028
-700,772	-200,000	-0,029	-0,100
-699,758	348,746	-0,056	-0,082
-698,743	-16,315	-0,065	0,030
-697,729	-92,998	0,020	0,004
-696,714	93,011	0,061	-0,052
-695,699	-200,000	0,003	-0,086
-694,685	280,008	0,057	-0,076
-693,670	-39,690	-0,086	-0,033
-692,656	-200,000	0,018	-0,101
-691,641	-78,765	0,049	0,012
-690,627	-50,815	0,118	0,041
-689,612	217,453	-0,010	0,012
-688,597	-40,124	-0,136	-0,052
-687,583	-4,626	-0,086	-0,044
-686,568	470,987	-0,131	-0,220
-685,554	151,571	-0,119	-0,121
-684,539	-173,002	-0,166	0,004
-683,524	-162,291	-0,118	-0,004
-682,510	-10,634	0,048	0,024
-681,495	-46,651	0,044	-0,016
-680,481	-106,433	-0,126	-0,021
-679,466	429,135	-0,106	-0,171
-678,451	-63,638	0,143	0,043
-677,437	54,933	0,119	0,085
-676,422	350,474	-0,058	-0,085
-675,408	800,000	-0,032	-0,072
-674,393	-126,817	-0,067	-0,007
-673,378	-8,369	-0,032	-0,016
-672,364	-137,606	-0,078	-0,006
-671,349	267,273	-0,070	-0,091
-670,335	361,124	0,066	-0,099
-669,320	-200,000	-0,017	0,094
-668,305	171,781	0,030	-0,032
-667,291	-200,000	-0,012	-0,062
-666,276	237,264	-0,076	-0,093
-665,262	315,284	-0,077	-0,108
-664,247	104,289	-0,032	0,028
-663,232	129,513	-0,051	-0,048
-662,218	800,000	-0,039	-0,105
-661,203	-200,000	0,017	-0,114
-660,189	-132,337	0,066	-0,006
-659,174	247,636	-0,060	-0,075
-658,159	-200,000	-0,093	0,000
-657,145	-21,926	-0,090	-0,040
-656,130	115,760	-0,071	0,064
-655,116	63,398	0,143	0,106
-654,101	173,588	-0,026	0,028
-653,086	-17,647	-0,095	0,044
-652,072	-142,208	-0,093	-0,007
-651,057	800,000	-0,016	0,045
-650,043	-200,000	-0,027	-0,167
-649,028	362,703	-0,124	-0,185
-648,014	-113,981	0,207	-0,029
-646,999	385,925	-0,028	0,042
-645,984	-200,000	0,014	-0,064
-644,970	507,769	-0,060	0,103
-643,955	-2,552	-0,083	0,043
-642,941	354,210	-0,066	-0,098
-641,926	599,293	-0,033	0,061
-640,911	-200,000	0,008	0,174
-639,897	68,442	0,004	0,003
-638,882	-5,210	0,043	0,022
-637,868	-200,000	0,005	0,065
-636,853	-51,745	-0,105	-0,036
-635,838	50,030	-0,089	-0,062
-634,824	0,232	0,029	-0,015
-633,809	-200,000	-0,003	0,103
-632,795	640,077	-0,027	-0,051
-631,780	300,490	0,047	-0,064
-630,765	98,059	-0,051	0,043
-629,751	800,000	0,021	-0,055
-628,736	-200,000	0,001	-0,071
-627,722	-92,439	-0,079	0,016
-626,707	115,825	0,066	0,060
-625,692	183,532	0,092	0,101
-624,678	540,599	0,040	0,072
-623,663	-151,470	-0,127	-0,007
-622,649	17,544	-0,037	0,022
-621,634	-115,629	-0,052	-0,007
-620,619	-49,318	-0,009	-0,003
-619,605	-47,034	-0,048	-0,017
-618,590	189,676	0,128	0,142
-617,576	800,000	-0,023	-0,070
-616,561	-26,701	0,026	-0,011
-615,546	88,374	0,015	-0,013
-614,532	242,870	-0,047	-0,058
-613,517	-40,430	-0,087	0,033
-612,503	169,178	-0,128	-0,136
-611,488	298,225	0,035	0,048
-610,474	-200,000	-0,004	0,036
-609,459	-158,648	0,089	0,004
-608,444	304,218	-0,088	-0,121
-607,430	184,470	-0,114	-0,125
-606,415	-123,012	-0,091	-0,011
-605,401	685,279	-0,051	-0,099
-604,386	112,055	0,080	-0,072
-603,371	-200,000	0,004	-0,164
-602,357	32,738	-0,056	-0,036
-601,342	43,412	-0,062	-0,042
-600,328	118,689	0,175	-0,160
-599,313	163,621	-0,027	0,028
-598,298	208,943	-0,068	0,079
-597,284	-200,000	0,027	-0,112
-596,269	-41,368	-0,045	0,017
-595,255	671,727	-0,018	0,036
-594,240	-200,000	-0,007	-0,036
-593,225	-200,000	-0,003	0,097
-592,211	-89,239	-0,037	0,008
-591,196	800,000	0,019	0,054
-590,182	27,679	0,044	-0,028
-589,167	690,739	0,033	-0,065
-588,152	-104,781	-0,018	-0,003
-587,138	-200,000	-0,031	-0,127
-586,123	381,856	-0,073	-0,112
-585,109	436,900	-0,043	-0,069
-584,094	-200,000	-0,009	-0,040
-583,079	72,770	0,032	0,025
-582,065	142,096	-0,041	0,040
-581,050	-128,386	0,120	-0,012
-580,036	-200,000	-0,000	-0,057
-579,021	212,974	-0,029	0,034
-578,006	433,469	0,070	-0,113
-576,992	715,019	-0,020	0,040
-575,977	175,883	-0,009	0,010
-574,963	308,563	-0,045	-0,062
-573,948	800,000	0,065	0,140
-572,934	-200,000	-0,007	0,084
-571,919	800,000	-0,005	-0,012
-570,904	800,000	-0,059	-0,127
-569,890	-11,056	-0,076	0,037
-568,875	386,359	-0,081	0,123
-567,861	227,229	0,048	0,058
-566,846	-200,000	-0,011	0,057
-565,831	234,794	-0,037	-0,046
-564,817	126,399	0,046	-0,043
-563,802	800,000	-0,011	0,024
-562,788	-78,622	-0,087	-0,022
-561,773	-5,682	0,016	0,008
-560,758	-71,474	0,080	0,022
-559,744	81,488	-0,068	-0,055
-558,729	-86,085	0,077	-0,017
-557,715	117,984	0,049	0,045
-556,700	2,591	0,025	0,013
-555,685	-200,000	-0,007	-0,091
-554,671	542,001	-0,094	-0,166
-553,656	224,215	-0,092	0,110
-552,642	575,150	0,053	-0,096
-551,627	-200,000	0,011	-0,062
-550,612	-21,557	0,092	0,041
-549,598	-25,146	-0,043	-0,019
-548,583	62,270	-0,040	0,030
-547,569	54,072	-0,060	-0,043
-546,554	-200,000	0,012	0,047
-545,539	-200,000	0,013	-0,051
-544,525	202,622	0,082	0,094
-543,510	93,720	0,066	0,055
-542,496	-200,000	-0,009	-0,084
-541,481	304,563	-0,050	-0,069
-540,466	-143,126	0,058	-0,004
-539,452	-82,067	-0,058	0,014
-538,437	-200,000	0,039	-0,187
-537,423	-12,016	0,115	-0,055
-536,408	-169,469	-0,096	0,003
-535,393	-86,833	-0,069	0,015
-534,379	800,000	0,033	-0,098
-533,364	-52,987	0,096	0,033
-532,350	101,962	-0,113	0,098
-531,335	20,536	0,104	0,062
-530,321	117,353	-0,071	0,064
-529,306	-10,477	0,069	-0,034
-528,291	612,154	0,053	0,099
-527,277	2,344	0,011	0,006
-526,262	235,814	0,052	-0,064
-525,248	800,000	0,011	0,027
-524,233	800,000	0,044	0,104
-523,218	-200,000	0,006	0,057
-522,204	51,442	-0,059	-0,041
-521,189	800,000	-0,028	-0,076
-520,175	287,236	-0,039	-0,052
-519,160	-65,491	-0,098	0,029
-518,145	-100,720	-0,098	0,018
-517,131	-92,461	0,107	0,022
-516,116	168,658	0,116	-0,122
-515,102	-23,155	-0,032	0,014
-514,087	-121,312	-0,071	0,009
-513,072	800,000	-0,027	0,066
-512,058	800,000	0,059	0,124
-511,043	38,561	0,073	0,048
-510,029	-200,000	0,013	0,087
-509,014	59,768	0,150	0,109
-507,999	-8,266	-0,052	0,026
-506,985	-23,640	-0,072	-0,032
-505,970	-200,000	0,034	-0,153
-504,956	-200,000	-0,009	-0,041
-503,941	-200,000	-0,026	0,120
-502,926	-200,000	-0,029	0,134
-501,912	82,468	0,056	0,045
-500,897	-200,000	0,018	0,096
-499,883	-200,000	0,003	0,024
-498,868	262,600	-0,105	0,134
-497,853	-200,000	0,000	-0,016
-496,839	-78,338	0,022	0,005
-495,824	50,627	0,059	-0,041
-494,810	800,000	-0,022	0,065
-493,795	396,080	0,069	0,106
-492,781	251,209	-0,090	-0,113
-491,766	115,274	-0,015	0,013
-490,751	22,593	-0,020	0,012
-489,737	-131,090	0,130	0,013
-488,722	-66,443	0,038	0,011
-487,708	800,000	0,026	-0,055
-486,693	-37,738	0,139	0,054
-485,678	416,834	-0,004	-0,006
-484,664	26,810	-0,056	0,034
-483,649	-86,831	-0,098	-0,022
-482,635	800,000	0,023	0,069
-481,620	-61,147	0,186	-0,057
-480,605	27,487	-0,028	-0,017
-479,591	800,000	0,043	0,110
-478,576	32,914	-0,062	-0,040
-477,562	-200,000	-0,009	0,105
-476,547	-14,731	-0,061	-0,029
-475,532	-174,499	-0,082	-0,002
-474,518	-83,851	0,151	0,035
-473,503	800,000	0,065	0,142
-472,489	-23,609	0,073	-0,032
-471,474	-78,159	-0,125	-0,031
-470,459	800,000	-0,037	0,100
-469,445	800,000	-0,026	0,057
-468,430	-32,617	0,109	-0,045
-467,416	297,236	-0,064	-0,087
-466,401	210,739	-0,031	0,036
-465,386	-200,000	-0,007	0,156
-464,372	800,000	-0,038	0,108
-463,357	-200,000	-0,027	-0,119
-462,343	132,482	0,030	-0,029
-461,328	800,000	0,047	0,124
-460,313	-0,919	-0,082	-0,042
-459,299	788,577	0,047	-0,095
-458,284	502,424	0,044	0,075
-457,270	-200,000	0,003	0,038
-456,255	-180,544	0,082	0,001
-455,241	241,267	-0,062	0,076
-454,226	-31,900	-0,099	-0,041
-453,211	-108,663	0,183	0,029
-452,197	761,056	0,059	-0,118
-451,182	328,097	-0,159	-0,225
-450,168	18,351	-0,079	0,046
-449,153	-58,730	-0,065	0,020
-448,138	257,020	-0,033	-0,041
-447,124	576,050	-0,072	-0,129
-446,109	-90,235	-0,073	-0,016
-445,095	-200,000	-0,022	0,075
-444,080	-32,264	-0,031	0,013
-443,065	-200,000	0,031	0,144
-442,051	-200,000	0,014	-0,061
-441,036	-109,170	-0,031	0,005
-440,022	800,000	0,017	0,040
-439,007	-55,991	-0,073	0,024
-437,992	800,000	-0,022	-0,068
-436,978	-177,287	0,119	-0,002
-435,963	65,647	-0,072	0,053
-434,949	-145,686	0,079	-0,005
-433,934	-161,469	0,088	0,003
-432,919	-7,182	0,150	0,075
-431,905	800,000	-0,079	-0,179
-430,890	320,024	0,014	-0,020
-429,876	800,000	-0,037	0,090
-428,861	-133,470	0,035	-0,003
-427,846	-200,000	0,028	0,097
-426,832	66,918	-0,125	0,094
-425,817	-111,745	0,065	-0,010
-424,803	800,000	0,014	-0,033
-423,788	10,143	0,015	0,008
-422,773	-129,025	-0,059	-0,006
-421,759	-45,621	-0,007	0,003
-420,744	298,163	0,048	-0,065
-419,730	-118,322	-0,246	0,032
-418,715	-78,333	0,123	-0,031
-417,701	-109,530	0,040	0,006
-416,686	-200,000	-0,008	-0,033
-415,671	238,697	-0,097	0,119
-414,657	1,490	0,123	0,065
-413,642	-95,694	-0,087	0,017
-412,628	800,000	0,006	-0,018
-411,613	150,317	0,123	-0,123
-410,598	-3,388	0,061	-0,031
-409,584	800,000	0,024	-0,058
-408,569	142,742	0,086	-0,084
-407,555	-200,000	0,016	0,082
-406,540	32,568	-0,031	0,020
-405,525	-200,000	-0,034	0,118
-404,511	7,276	-0,078	-0,043
-403,496	-95,704	0,084	-0,016
-402,482	800,000	-0,043	-0,132
-401,467	-125,130	-0,098	-0,011
-400,452	139,188	0,060	0,058
-399,438	390,775	-0,038	-0,058
-398,423	-200,000	0,016	-0,075
-397,409	-49,674	0,084	0,029
-396,394	800,000	0,037	0,078
-395,379	-200,000	-0,011	0,155
-394,365	184,263	0,123	0,134
-393,350	232,608	-0,038	-0,046
-392,336	-53,154	-0,222	-0,074
-391,321	78,590	0,104	-0,081
-390,306	-143,855	-0,064	-0,004
-389,292	338,535	0,028	-0,040
-388,277	800,000	-0,053	0,119
-387,263	-29,415	0,090	-0,038
-386,248	-25,081	0,162	0,070
-385,233	-47,148	0,149	-0,053
-384,219	800,000	-0,022	0,070
-383,204	-4,690	-0,051	-0,026
-382,190	294,915	0,145	-0,195
-381,175	147,956	0,024	-0,023
-380,160	800,000	0,019	-0,050
-379,146	464,958	0,006	0,009
-378,131	37,376	-0,159	0,103
-377,117	-200,000	0,029	-0,131
-376,102	800,000	-0,065	-0,177
-375,088	165,287	-0,048	-0,050
-374,073	-141,543	-0,032	-0,002
-373,058	-0,252	0,021	-0,011
-372,044	153,642	-0,124	-0,124
-371,029	-200,000	0,008	0,081
-370,015	446,513	0,023	0,037
-369,000	9,064	-0,076	-0,042
-367,985	800,000	0,034	0,073
-366,971	-200,000	0,006	-0,104
-365,956	154,765	-0,055	0,056
-364,942	33,661	-0,072	0,046
-363,927	-97,176	0,132	-0,025
-362,912	-31,844	-0,160	0,065
-361,898	277,295	-0,057	0,074
-360,883	21,640	-0,053	-0,032
-359,869	-200,000	-0,010	0,083
-358,854	800,000	-0,030	0,069
-357,839	-200,000	0,014	0,124
-356,825	800,000	0,038	-0,117
-355,810	-42,287	0,061	-0,023
-354,796	168,780	-0,091	0,096
-353,781	-200,000	0,007	-0,047
-352,766	9,641	0,022	0,012
-351,752	-15,251	0,102	0,048
-350,737	78,307	0,020	0,016
-349,723	194,529	0,102	0,114
-348,708	800,000	-0,048	0,142
-347,693	-51,446	-0,056	0,019
-346,679	-89,265	0,119	-0,026
-345,664	35,926	-0,116	-0,074
-344,650	-131,453	0,022	0,002
-343,635	689,192	0,012	-0,024
-342,620	800,000	-0,013	-0,033
-341,606	-124,822	0,010	0,001
-340,591	436,832	0,008	0,012
-339,577	-200,000	-0,012	-0,139
-338,562	175,005	-0,088	-0,094
-337,548	249,324	-0,026	-0,032
-336,533	-101,776	0,090	0,016
-335,518	681,926	0,034	-0,064
-334,504	714,021	-0,012	-0,023
-333,489	6,651	-0,037	0,020
-332,475	175,711	0,059	-0,063
-331,460	-106,985	0,156	0,025
-330,445	160,289	-0,010	0,010
-329,431	-60,824	0,121	0,037
-328,416	220,043	0,092	-0,108
-327,402	-126,939	0,062	0,007
-326,387	-200,000	-0,001	0,015
-325,372	800,000	0,025	-0,069
-324,358	248,760	0,037	-0,046
-323,343	243,992	-0,017	-0,020
-322,329	31,247	-0,086	-0,054
-321,314	41,538	0,072	0,048
-320,299	-200,000	-0,003	0,049
-319,285	-200,000	-0,008	0,048
-318,270	14,928	0,173	0,099
-317,256	165,588	0,103	0,106
-316,241	66,109	-0,062	-0,046
-315,226	174,296	-0,099	0,105
-314,212	-137,992	-0,083	0,007
-313,197	20,868	0,016	-0,009
-312,183	64,808	0,038	0,028
-311,168	219,272	-0,107	-0,126
-310,153	604,476	0,051	0,092
-309,139	458,853	0,063	0,103
-308,124	753,260	0,005	0,010
-307,110	-92,521	-0,138	-0,028
-306,095	-200,000	0,003	0,035
-305,080	800,000	0,044	0,141
-304,066	6,399	-0,020	0,011
-303,051	19,510	0,056	-0,033
-302,037	304,285	0,039	0,053
-301,022	59,626	0,109	0,078
-300,008	-200,000	0,002	0,043
-298,993	-200,000	0,007	0,061
-297,978	-77,118	0,072	-0,018
-296,964	279,800	-0,048	0,063
-295,949	406,275	-0,009	-0,014
-294,935	-12,884	-0,035	-0,017
-293,920	49,932	0,134	0,092
-292,905	206,234	0,030	0,034
-291,891	-200,000	0,001	-0,009
-290,876	800,000	0,001	-0,004
-289,862	-200,000	-0,023	0,128
-288,847	-26,078	-0,063	-0,027
-287,832	5,706	-0,088	0,047
-286,818	171,971	0,099	-0,104
-285,803	-160,600	0,101	-0,004
-284,789	-82,230	0,080	0,019
-283,774	736,592	0,039	-0,076
-282,759	-200,000	-0,004	0,034
-281,745	-68,374	-0,136	0,038
-280,730	65,403	-0,045	-0,033
-279,716	345,655	-0,043	0,061
-278,701	-129,538	0,070	0,007
-277,686	40,831	0,023	-0,015
-276,672	118,797	0,100	0,090
-275,657	0,224	-0,105	-0,055
-274,643	-89,135	-0,064	0,014
-273,628	-200,000	0,002	-0,108
-272,613	320,624	-0,024	-0,033
-271,599	-69,721	0,077	0,021
-270,584	74,172	-0,096	0,073
-269,570	-10,857	0,075	-0,036
-268,555	-19,698	0,102	-0,046
-267,540	550,881	-0,038	-0,067
-266,526	800,000	-0,043	-0,125
-265,511	-75,788	0,039	-0,010
-264,497	-15,407	-0,021	-0,010
-263,482	-68,685	0,131	-0,037
-262,467	468,011	-0,021	-0,035
-261,453	-3,053	0,078	-0,040
-260,438	-20,997	-0,042	-0,019
-259,424	247,659	0,066	-0,082
-258,409	71,922	-0,141	-0,107
-257,395	63,725	0,083	0,061
-256,380	278,646	-0,085	0,111
-255,365	-49,628	0,016	-0,006
-254,351	97,331	-0,074	0,062
-253,336	208,353	-0,043	0,049
-252,322	800,000	-0,086	-0,176
-251,307	-200,000	0,002	-0,046
-250,292	-41,498	-0,186	0,069
-249,278	-56,088	-0,081	0,026
-248,263	44,614	0,065	0,043
-247,249	800,000	-0,035	0,081
-246,234	-200,000	0,036	-0,202
-245,219	24,492	-0,041	0,025
-244,205	117,266	0,027	0,024
-243,190	158,127	0,044	0,044
-242,176	115,169	0,007	0,006
-241,161	10,429	-0,075	0,041
-240,146	48,408	0,022	-0,015
-239,132	-184,551	-0,133	0,002
-238,117	-59,894	-0,114	-0,035
-237,103	-42,606	-0,068	0,025
-236,088	-14,619	0,053	0,025
-235,073	19,548	-0,123	0,072
-234,059	357,865	0,081	-0,118
-233,044	367,454	0,057	-0,084
-232,030	-36,205	0,032	0,013
-231,015	454,995	0,095	-0,154
-230,000	-200,000	0,050	-0,176
-228,986	129,460	-0,089	0,083
-227,971	800,000	-0,052	0,120
-226,957	-200,000	-0,009	0,056
-225,942	-200,000	-0,012	0,063
-224,927	-200,000	0,006	0,096
-223,913	-14,750	-0,126	-0,059
-222,898	132,965	-0,005	0,005
-221,884	-200,000	0,015	0,106
-220,869	-154,847	-0,059	-0,003
-219,855	7,206	0,086	-0,047
-218,840	171,641	0,048	0,050
-217,825	57,596	0,009	0,006
-216,811	488,109	-0,039	-0,065
-215,796	91,830	-0,121	0,099
-214,782	178,799	-0,049	0,052
-213,767	800,000	0,074	0,167
-212,752	-200,000	-0,022	-0,195
-211,738	563,707	0,050	0,088
-210,723	427,096	0,048	-0,075
-209,709	106,079	-0,095	-0,082
-208,694	100,393	0,124	0,105
-207,679	85,732	-0,073	-0,058
-206,665	183,881	-0,010	0,010
-205,650	468,949	0,031	0,051
-204,636	-160,956	0,077	-0,003
-203,621	-135,045	0,078	0,007
-202,606	-200,000	-0,006	-0,196
-201,592	800,000	0,048	-0,114
-200,577	800,000	-0,040	-0,127
-199,563	-15,834	-0,116	-0,054
-198,548	-90,262	0,230	0,048
-197,533	364,896	0,014	0,020
-196,519	-200,000	-0,028	-0,102
-195,504	-46,057	-0,178	-0,064
-194,490	130,773	0,045	-0,042
-193,475	800,000	-0,032	-0,101
-192,460	62,845	0,114	-0,083
-191,446	-147,805	0,052	-0,003
-190,431	-71,714	-0,063	-0,017
-189,417	6,411	-0,041	0,022
-188,402	-45,675	-0,051	-0,018
-187,387	30,052	-0,078	0,049
-186,373	241,567	-0,026	0,032
-185,358	-16,467	0,104	0,048
-184,344	-85,962	0,039	0,009
-183,329	266,519	0,065	0,083
-182,315	88,882	0,036	-0,029
-181,300	-91,074	-0,146	0,030
-180,285	-114,658	-0,106	-0,015
-179,271	-115,088	0,199	0,027
-178,256	800,000	0,039	0,107
-177,242	33,283	-0,021	0,013
-176,227	18,334	0,145	-0,084
-175,212	-78,665	0,081	0,020
-174,198	-64,146	-0,024	-0,007
-173,183	-200,000	-0,044	-0,151
-172,169	800,000	0,031	-0,098
-171,154	800,000	-0,023	-0,057
-170,139	-70,382	0,060	-0,016
-169,125	-1,483	0,050	0,025
-168,110	-200,000	0,006	0,082
-167,096	-47,943	0,066	0,023
-166,081	-50,065	-0,099	-0,034
-165,066	131,337	0,111	-0,104
-164,052	-200,000	-0,005	0,068
-163,037	-200,000	0,009	-0,042
-162,023	-36,476	-0,105	0,041
-161,008	800,000	0,039	0,114
-159,993	526,339	-0,016	-0,028
-158,979	118,366	0,067	-0,060
-157,964	800,000	0,045	0,107
-156,950	119,764	-0,155	-0,140
-155,935	-5,800	0,146	0,073
-154,920	389,486	-0,159	0,240
-153,906	450,512	0,047	0,075
-152,891	-108,953	-0,060	0,009
-151,877	83,353	-0,093	-0,074
-150,862	800,000	-0,057	-0,142
-149,847	100,068	0,166	-0,140
-148,833	17,156	0,131	-0,076
-147,818	800,000	-0,017	-0,048
-146,804	-200,000	-0,032	0,159
-145,789	79,733	0,032	-0,025
-144,775	-44,644	-0,051	-0,019
-143,760	442,445	-0,032	-0,051
-142,745	151,509	-0,174	0,173
-141,731	800,000	-0,042	0,087
-140,716	59,812	-0,044	-0,032
-139,702	800,000	0,031	-0,080
-138,687	51,013	-0,149	0,103
-137,672	-200,000	0,004	0,014
-136,658	-68,193	-0,053	0,015
-135,643	800,000	-0,052	-0,120
-134,629	800,000	-0,026	-0,068
-133,614	227,767	-0,026	-0,031
-132,599	-200,000	0,008	0,064
-131,585	-18,594	-0,087	-0,039
-130,570	-160,426	-0,063	0,002
-129,556	-200,000	0,008	-0,063
-128,541	73,198	-0,077	-0,059
-127,526	-99,287	0,085	-0,015
-126,512	-200,000	0,004	-0,016
-125,497	-200,000	0,010	-0,060
-124,483	-13,499	0,178	-0,084
-123,468	204,444	0,046	0,052
-122,453	330,283	-0,042	0,059
-121,439	-200,000	0,031	0,104
-120,424	-200,000	0,009	-0,058
-119,410	181,299	0,046	0,049
-118,395	-59,775	0,018	0,005
-117,380	128,456	-0,077	-0,071
-116,366	571,217	-0,029	-0,052
-115,351	-48,152	-0,197	0,069
-114,337	633,183	-0,053	0,098
-113,322	-106,902	0,075	-0,012
-112,307	-163,946	0,047	0,002
-111,293	-200,000	-0,004	-0,127
-110,278	20,706	0,101	0,059
-109,264	800,000	-0,038	0,112
-108,249	-200,000	0,006	0,120
-107,234	684,634	-0,024	-0,046
-106,220	46,368	0,038	-0,025
-105,205	-96,870	0,097	-0,018
-104,191	-200,000	0,013	-0,168
-103,176	-200,000	-0,005	0,107
-102,162	8,489	-0,116	0,063
-101,147	4,373	-0,107	0,057
-100,132	-133,245	0,053	0,005
-99,118	800,000	0,032	0,077
-98,103	-154,799	0,083	0,004
-97,089	800,000	0,022	0,048
-96,074	698,927	0,055	0,105
-95,059	486,788	0,042	-0,070
-94,045	395,615	-0,063	-0,096
-93,030	-200,000	0,012	-0,114
-92,016	-117,468	-0,260	-0,034
-91,001	-200,000	-0,049	-0,176
-89,986	-173,356	-0,042	0,001
-88,972	-135,654	0,145	0,012
-87,957	-32,835	0,031	0,012
-86,943	-144,823	-0,045	0,003
-85,928	-43,399	-0,007	-0,002
-84,913	-85,596	-0,093	0,021
-83,899	-40,306	-0,077	0,029
-82,884	-200,000	0,008	-0,043
-81,870	-200,000	-0,006	-0,098
-80,855	-31,941	0,070	0,028
-79,840	-91,932	-0,091	0,019
-78,826	800,000	-0,026	-0,080
-77,811	81,802	-0,123	-0,096
-76,797	-77,231	-0,057	-0,014
-75,782	-200,000	0,019	-0,075
-74,767	-200,000	-0,002	-0,086
-73,753	18,276	0,048	0,028
-72,738	12,005	-0,093	-0,052
-71,724	-200,000	0,006	-0,154
-70,709	365,908	0,078	-0,114
-69,694	-200,000	-0,052	-0,171
-68,680	1,400	-0,083	0,043
-67,665	-200,000	0,037	0,127
-66,651	205,070	-0,122	0,138
-65,636	192,405	-0,120	0,132
-64,622	16,837	-0,057	-0,033
-63,607	-88,717	0,035	-0,007
-62,592	-155,036	0,217	-0,010
-61,578	541,336	-0,088	-0,152
-60,563	11,832	0,030	0,017
-59,549	41,946	-0,055	0,036
-58,534	-55,500	-1,431	-0,462
-57,519	689,078	-0,760	-1,447
-56,505	-200,000	-0,851	-4,448
-55,490	-149,957	0,648	-0,036
-54,476	800,000	5,134	11,702
-53,461	-200,000	15,376	270,059
-52,446	-200,000	696,137	2253,805
-51,432	589,753	1615,846	2898,608
-50,417	120,890	1624,061	1463,615
-49,403	82,611	1281,460	1007,658
-48,388	37,362	1022,250	655,159
-47,373	22,156	983,461	580,200
-46,359	21,134	972,414	570,304
-45,344	19,660	968,152	562,951
-44,330	19,693	966,911	562,315
-43,315	19,457	965,265	560,564
-42,300	19,467	964,331	560,033
-41,286	19,465	963,012	559,239
-40,271	19,403	962,353	558,633
-39,257	19,454	961,458	558,257
-38,242	19,441	960,625	557,706
-37,227	19,444	959,902	557,276
-36,213	19,405	959,037	556,627
-35,198	19,453	957,927	556,114
-34,184	19,446	957,274	555,690
-33,169	19,432	956,300	555,059
-32,154	19,465	955,293	554,557
-31,140	19,421	954,481	553,922
-30,125	19,475	953,685	553,613
-29,111	19,456	952,993	553,129
-28,096	19,459	952,261	552,689
-27,082	19,457	951,678	552,324
-26,067	19,369	950,861	551,546
-25,052	19,447	950,032	551,294
-24,038	19,414	949,456	550,829
-23,023	19,385	948,827	550,352
-22,009	19,478	948,047	550,173
-20,994	19,465	947,471	549,776
-19,979	19,470	946,717	549,335
-18,965	19,411	946,116	548,775
-17,950	19,429	945,676	548,556
-16,936	19,335	945,078	547,887
-15,921	19,399	944,240	547,584
-14,906	19,352	943,598	547,039
-13,892	19,357	942,888	546,620
-12,877	19,249	942,426	545,988
-11,863	19,217	941,861	545,536
-10,848	19,327	941,101	545,426
-9,833	19,399	940,845	545,483
-8,819	19,397	940,042	544,990
-7,804	19,401	939,269	544,532
-6,790	19,313	938,739	543,926
-5,775	19,333	938,274	543,697
-4,760	19,332	937,616	543,292
-3,746	19,332	936,991	542,908
-2,731	19,185	936,388	542,072
-1,717	19,164	935,574	541,513
-0,702	19,101	935,121	541,031
0,313	18,951	934,319	540,907
1,327	21,421	932,004	547,307
2,342	28,824	806,221	493,481
3,356	23,238	506,258	300,344
4,371	-0,824	373,734	191,047
5,386	-3,725	357,234	179,028
6,400	-4,788	351,357	174,779
7,415	-5,235	348,877	172,993
8,429	-5,433	347,612	172,112
9,444	-5,424	346,574	171,594
10,459	-5,349	346,103	171,435
11,473	-5,234	345,320	171,169
12,488	-5,192	344,584	170,839
13,502	-5,277	344,150	170,508
14,517	-5,327	343,553	170,138
15,531	-5,461	343,254	169,815
16,546	-5,362	342,853	169,719
17,561	-5,301	342,376	169,540
18,575	-5,235	341,854	169,344
19,590	-5,314	341,721	169,170
20,604	-5,069	341,256	169,212
21,619	-5,338	340,909	168,709
22,634	-5,129	340,332	168,655
23,648	-5,311	340,142	168,332
24,663	-5,284	339,913	168,235
25,677	-5,273	339,448	168,003
26,692	-5,194	339,150	167,933
27,707	-5,221	338,980	167,802
28,721	-5,304	338,708	167,556
29,736	-5,332	338,383	167,347
30,750	-5,258	337,863	167,161
31,765	-5,353	337,813	167,011
32,780	-5,186	337,340	166,956
33,794	-5,198	337,062	166,789
34,809	-5,308	336,968	166,601
35,823	-5,149	336,540	166,559
36,838	-5,212	336,226	166,316
37,853	-5,198	335,910	166,161
38,867	-5,338	335,793	165,925
39,882	-5,084	335,503	166,061
40,896	-5,370	335,294	165,613
41,911	-5,139	334,918	165,678
42,926	-5,256	334,718	165,430
43,940	-5,194	334,401	165,330
44,955	-5,061	333,991	165,265
45,969	-5,323	333,944	164,927
46,984	-5,123	333,641	164,991
47,999	-5,280	333,592	164,773
49,013	-5,093	333,087	164,722
50,028	-5,178	332,975	164,555
51,042	-5,230	332,602	164,297
52,057	-5,196	332,381	164,212
53,071	-5,154	332,119	164,116
54,086	-5,176	331,840	163,938
55,101	-5,210	331,717	163,823
56,115	-5,321	331,420	163,537
57,130	-5,239	331,097	163,456
58,144	-5,377	330,749	163,112
59,159	-5,372	330,566	163,013
60,174	-5,293	330,306	162,959
61,188	-5,294	329,919	162,753
62,203	-5,209	329,815	162,784
63,217	-5,421	329,634	162,440
64,232	-5,297	329,111	162,307
65,247	-5,142	328,827	162,328
66,261	-5,250	328,772	162,165
67,276	-5,168	328,408	162,063
68,290	-5,284	328,169	161,800
69,305	-5,278	327,921	161,670
70,320	-5,228	327,678	161,592
71,334	-5,286	327,505	161,427
72,349	-5,219	327,223	161,349
73,363	-5,298	326,914	161,094
74,378	-5,370	326,574	160,831
75,393	-5,369	326,430	160,748
76,407	-5,302	326,286	160,737
77,422	-5,184	325,882	160,656
78,436	-5,302	325,606	160,373
79,451	-5,244	325,432	160,338
80,466	-5,211	325,014	160,155
81,480	-5,258	324,843	160,003
82,495	-5,224	324,590	159,902
83,509	-5,167	324,431	159,873
84,524	-5,186	324,216	159,732
85,539	-5,086	323,887	159,667
86,553	-5,207	323,719	159,435
87,568	-5,183	323,371	159,276
88,582	-5,160	323,074	159,141
89,597	-5,152	322,918	159,060
90,611	-5,176	322,824	158,972
91,626	-5,035	322,406	158,908
92,641	-5,072	322,171	158,736
93,655	-5,175	321,912	158,482
94,670	-5,166	321,814	158,429
95,684	-5,152	321,478	158,265
96,699	-5,272	321,288	158,025
97,714	-5,227	321,184	158,010
98,728	-5,132	320,963	157,991
99,743	-5,080	320,562	157,837
100,757	-5,209	320,410	157,606
101,772	-5,185	320,177	157,504
102,787	-5,212	319,955	157,351
103,801	-5,327	319,656	157,065
104,816	-5,155	319,537	157,180
105,830	-5,205	319,238	156,965
106,845	-5,245	319,068	156,823
107,860	-5,174	318,763	156,736
108,874	-5,196	318,442	156,541
109,889	-5,169	318,140	156,408
110,903	-5,287	318,123	156,257
111,918	-5,288	317,897	156,131
112,933	-5,179	317,606	156,093
113,947	-5,272	317,613	155,981
114,962	-5,190	317,102	155,806
115,976	-5,140	316,873	155,733
116,991	-5,145	316,648	155,603
118,006	-5,246	316,421	155,368
119,020	-5,295	316,315	155,249
120,035	-5,184	316,132	155,266
121,049	-5,158	315,925	155,179
122,064	-5,171	315,722	155,051
123,079	-5,185	315,390	154,858
124,093	-5,204	315,164	154,713
125,108	-5,204	314,981	154,610
126,122	-5,089	314,768	154,615
127,137	-5,067	314,456	154,471
128,151	-5,005	314,358	154,476
129,166	-5,069	314,142	154,288
130,181	-5,322	313,926	153,897
131,195	-5,226	313,629	153,840
132,210	-5,192	313,367	153,735
133,224	-5,205	313,030	153,542
134,239	-5,202	312,999	153,516
135,254	-5,062	312,493	153,403
136,268	-5,162	312,501	153,287
137,283	-5,226	312,319	153,116
138,297	-5,090	311,929	153,056
139,312	-5,172	311,726	152,855
140,327	-5,157	311,379	152,687
141,341	-5,109	311,205	152,639
142,356	-5,131	311,032	152,518
143,370	-5,043	310,707	152,438
144,385	-5,136	310,897	152,418
145,400	-5,035	310,560	152,346
146,414	-5,120	310,118	152,027
147,429	-5,119	310,018	151,965
148,443	-5,205	309,731	151,720
149,458	-5,139	309,611	151,718
150,473	-5,189	309,253	151,475
151,487	-5,091	309,172	151,526
152,502	-5,270	308,949	151,214
153,516	-5,090	308,652	151,245
154,531	-4,983	308,352	151,197
155,546	-5,238	308,358	150,919
156,560	-5,172	307,966	150,783
157,575	-5,088	307,869	150,809
158,589	-5,013	307,455	150,672
159,604	-5,074	307,365	150,550
160,619	-5,212	307,154	150,289
161,633	-5,047	307,037	150,392
162,648	-4,999	306,808	150,316
163,662	-5,123	306,688	150,114
164,677	-5,076	306,314	149,966
165,692	-5,093	306,199	149,880
166,706	-5,011	305,965	149,836
167,721	-5,127	305,797	149,620
168,735	-5,082	305,503	149,510
169,750	-5,081	305,437	149,465
170,764	-5,215	305,171	149,183
171,779	-5,177	305,003	149,126
172,794	-5,064	304,684	149,074
173,808	-5,117	304,469	148,901
174,823	-5,118	304,465	148,884
175,837	-5,013	304,112	148,807
176,852	-5,198	303,956	148,527
177,867	-4,946	303,645	148,622
178,881	-5,105	303,575	148,410
179,896	-5,109	303,373	148,294
180,910	-5,158	303,136	148,114
181,925	-5,222	302,989	147,963
182,940	-5,096	302,803	147,989
183,954	-5,212	302,652	147,783
184,969	-4,902	302,253	147,894
185,983	-5,011	302,216	147,750
186,998	-5,016	301,918	147,586
188,013	-4,977	301,748	147,529
189,027	-5,060	301,487	147,304
190,042	-5,112	301,332	147,162
191,056	-5,008	301,035	147,109
192,071	-5,044	300,861	146,975
193,086	-5,077	300,546	146,775
194,100	-5,062	300,482	146,745
195,115	-5,063	300,196	146,592
196,129	-4,963	299,929	146,550
197,144	-5,089	299,861	146,376
198,159	-5,021	299,373	146,194
199,173	-5,170	299,236	145,962
200,188	-4,952	298,982	146,046
201,202	-5,047	298,800	145,848
202,217	-5,089	298,747	145,766
203,232	-4,869	298,343	145,779
204,246	-5,024	298,269	145,573
205,261	-5,120	298,198	145,428
206,275	-4,948	297,775	145,383
207,290	-5,027	297,662	145,235
208,304	-4,977	297,614	145,249
209,319	-5,044	297,367	145,048
210,334	-5,023	297,015	144,884
211,348	-5,031	296,882	144,798
212,363	-5,017	296,647	144,685
213,377	-5,093	296,598	144,572
214,392	-5,012	296,245	144,469
215,407	-5,097	296,053	144,276
216,421	-4,884	295,795	144,351
217,436	-5,097	295,632	144,045
218,450	-5,047	295,433	143,986
219,465	-5,043	295,404	143,963
220,480	-5,019	295,173	143,862
221,494	-5,124	295,034	143,676
222,509	-5,004	294,715	143,628
223,523	-4,970	294,505	143,547
224,538	-5,154	294,304	143,253
225,553	-5,105	294,216	143,246
226,567	-5,031	294,043	143,223
227,582	-5,013	293,807	143,112
228,596	-5,103	293,708	142,961
229,611	-5,142	293,450	142,785
230,626	-4,893	293,229	142,911
231,640	-4,996	292,944	142,657
232,655	-4,867	292,746	142,676
233,669	-5,136	292,538	142,296
234,684	-5,031	292,274	142,259
235,699	-5,018	292,326	142,284
236,713	-4,917	292,246	142,332
237,728	-4,884	291,872	142,170
238,742	-4,983	291,760	142,005
239,757	-5,127	291,437	141,694
240,772	-4,993	291,231	141,712
241,786	-5,099	291,134	141,548
242,801	-5,095	290,874	141,414
243,815	-4,974	290,665	141,418
244,830	-5,057	290,547	141,266
245,844	-5,066	290,364	141,157
246,859	-5,185	290,222	140,957
247,874	-4,908	289,895	141,058
248,888	-4,956	289,672	140,889
249,903	-5,028	289,611	140,777
250,917	-5,126	289,415	140,574
251,932	-5,049	289,152	140,509
252,947	-5,086	288,889	140,332
253,961	-5,414	288,536	139,829
254,976	-5,425	288,385	139,733
255,990	-5,357	288,408	139,796
257,005	-3,839	288,801	141,453
258,020	-1,425	289,525	144,149
259,034	-0,094	289,923	145,634
260,049	0,281	289,988	146,019
261,063	0,597	289,972	146,306
262,078	0,921	289,710	146,476
263,093	1,317	289,799	146,893
264,107	1,515	289,634	146,989
265,122	1,683	289,524	147,084
266,136	1,912	289,386	147,223
267,151	1,776	289,372	147,070
268,166	1,760	289,119	146,913
269,180	1,955	288,852	146,954
270,195	1,636	288,736	146,572
271,209	1,955	288,455	146,726
272,224	1,767	288,242	146,422
273,239	1,808	288,054	146,353
274,253	1,907	287,826	146,319
275,268	1,589	287,519	145,843
276,282	1,625	287,611	145,912
277,297	1,751	287,222	145,824
278,312	1,788	287,080	145,774
279,326	1,806	286,863	145,668
280,341	1,879	286,713	145,649
281,355	1,793	286,653	145,522
282,370	1,659	286,302	145,203
283,384	1,587	286,133	145,035
284,399	1,686	285,865	144,982
285,414	1,543	285,733	144,765
286,428	1,754	285,551	144,861
287,443	1,641	285,418	144,673
288,457	1,625	285,151	144,509
289,472	1,484	285,138	144,355
290,487	1,605	284,781	144,277
291,501	1,585	284,635	144,172
292,516	1,531	284,428	144,002
293,530	1,525	284,272	143,904
294,545	1,407	284,264	143,776
295,560	1,621	283,827	143,745
296,574	1,402	283,809	143,515
297,589	1,610	283,586	143,587
298,603	1,573	283,317	143,403
299,618	1,461	283,167	143,208
300,633	1,607	283,034	143,266
301,647	1,533	282,922	143,127
302,662	1,621	282,596	143,032
303,676	1,656	282,507	143,007
304,691	1,629	282,240	142,834
305,706	1,651	282,063	142,753
306,720	1,667	281,945	142,695
307,735	1,846	281,773	142,764
308,749	1,883	281,617	142,707
309,764	1,829	281,587	142,628
310,779	1,800	281,190	142,387
311,793	1,602	281,107	142,147
312,808	1,796	280,759	142,140
313,822	1,543	280,665	141,842
314,837	1,860	280,410	141,998
315,852	1,772	280,314	141,854
316,866	1,705	280,115	141,678
317,881	1,801	279,982	141,688
318,895	1,676	279,635	141,383
319,910	1,564	279,640	141,268
320,925	1,697	279,310	141,213
321,939	1,567	279,169	141,007
322,954	1,785	279,002	141,114
323,968	1,685	279,072	141,044
324,983	1,779	278,721	140,941
325,997	1,831	278,485	140,858
327,012	1,766	278,456	140,770
328,027	1,828	278,136	140,654
329,041	1,743	278,019	140,502
330,056	1,763	277,754	140,374
331,070	1,877	277,659	140,420
332,085	1,859	277,504	140,312
333,100	1,915	277,233	140,215
334,114	1,956	276,996	140,120
335,129	1,720	276,879	139,830
336,143	1,727	276,765	139,767
337,158	1,691	276,620	139,648
338,173	1,700	276,461	139,564
339,187	1,797	276,364	139,592
340,202	1,718	276,073	139,359
341,216	1,772	275,802	139,260
342,231	1,830	275,657	139,227
343,246	1,755	275,492	139,063
344,260	1,846	275,394	139,084
345,275	1,862	275,343	139,061
346,289	1,690	275,222	138,829
347,304	1,883	274,853	138,808
348,319	1,987	274,545	138,735
349,333	1,834	274,416	138,518
350,348	1,922	274,306	138,530
351,362	1,896	274,146	138,413
352,377	1,868	273,954	138,279
353,392	2,044	273,781	138,339
354,406	2,046	273,509	138,192
355,421	192,806	1348,018	1431,141
356,435	155,746	1478,997	1431,240
