DTS Sentinel unit serial number:	SN410029Multiplexer serial number:	ORYXHardware model number:	OX2-SRSoftware version number:	ORYX F/W v4,00 Oryx Data Collector v3.7.2.0data status	okinstallation	B4 Nyhavnadifferential loss correction	single-endedforward channel	channel 2reverse channel	N/Adate	2023/12/15time	16:20:13forward acquisition time	300,00reverse acquisition time	0,00gamma	499,1914k internal	0,3146k external	0,3146temperature offset calibration	1,0000default loss term (dB/km)	0,3820temperature slope calibration	1,0000multiplexer offset coefficient	1,0000multiplexer slope coefficient	1,0000fibre end	0,00T internal ref (°C)	17,30T ext. ref 1 (°C)	3,21T ext. ref 2 (°C)	3,33length (m)	temperature (°C)	Stokes	anti-Stokes-744,400	254,534	0,082	0,103
-743,385	-69,567	-0,228	0,064
-742,371	582,277	0,108	0,197
-741,356	-88,085	-0,469	0,103
-740,342	-46,277	0,116	-0,042
-739,327	-144,421	-0,260	0,018
-738,312	58,662	0,083	-0,061
-737,298	-165,496	-0,348	0,011
-736,283	-75,820	0,080	0,021
-735,269	-80,982	-0,377	0,092
-734,254	192,489	0,088	0,098
-733,239	-84,786	-0,479	-0,111
-732,225	-57,378	0,186	0,060
-731,210	78,263	0,058	0,045
-730,196	422,301	0,035	0,056
-729,181	-133,851	-0,099	-0,009
-728,167	247,468	0,040	0,050
-727,152	-200,000	0,015	0,222
-726,137	-200,000	-0,020	-0,196
-725,123	-72,347	-0,042	-0,011
-724,108	302,707	-0,084	-0,115
-723,094	-200,000	0,002	-0,063
-722,079	800,000	-0,098	-0,208
-721,064	-129,628	-0,089	0,009
-720,050	-200,000	0,011	-0,052
-719,035	-200,000	0,002	0,018
-718,021	800,000	-0,056	-0,139
-717,006	519,315	-0,038	-0,065
-715,991	-29,374	0,063	-0,027
-714,977	120,412	-0,109	-0,100
-713,962	378,849	0,082	-0,124
-712,948	116,000	0,056	-0,051
-711,933	-20,578	-0,082	0,037
-710,918	63,638	-0,038	0,028
-709,904	-200,000	-0,004	-0,108
-708,889	20,767	-0,142	0,085
-707,875	-200,000	-0,018	-0,125
-706,860	47,268	0,067	0,046
-705,845	-200,000	-0,004	-0,020
-704,831	777,326	-0,038	0,078
-703,816	746,225	0,045	-0,089
-702,802	800,000	0,033	-0,078
-701,787	-25,960	0,121	-0,052
-700,772	101,667	-0,076	-0,065
-699,758	800,000	0,013	-0,031
-698,743	-200,000	0,010	0,111
-697,729	-12,638	-0,053	-0,025
-696,714	-200,000	-0,019	0,082
-695,699	245,473	-0,144	-0,179
-694,685	-79,036	-0,085	0,021
-693,670	800,000	0,023	-0,057
-692,656	-20,389	-0,081	-0,037
-691,641	36,906	-0,011	-0,007
-690,627	-131,231	0,163	0,016
-689,612	-200,000	0,006	0,139
-688,597	-12,087	-0,034	0,016
-687,583	92,174	-0,066	0,055
-686,568	134,881	0,036	-0,034
-685,554	-117,834	-0,148	0,019
-684,539	197,199	0,073	0,082
-683,524	800,000	-0,023	-0,069
-682,510	-106,398	-0,039	-0,006
-681,495	196,531	-0,020	0,023
-680,481	-16,645	0,015	0,007
-679,466	105,933	0,083	-0,072
-678,451	-17,315	-0,036	-0,017
-677,437	-8,582	-0,128	-0,063
-676,422	413,171	-0,040	-0,063
-675,408	-60,949	0,111	0,034
-674,393	716,215	-0,033	-0,064
-673,378	232,450	-0,085	0,103
-672,364	288,452	0,044	0,059
-671,349	-97,241	0,027	-0,005
-670,335	-18,068	0,047	-0,022
-669,320	-200,000	0,032	0,187
-668,305	461,601	-0,048	0,079
-667,291	-200,000	-0,000	0,039
-666,276	800,000	-0,018	0,054
-665,262	213,092	-0,140	-0,163
-664,247	800,000	0,034	-0,105
-663,232	-159,408	0,031	-0,001
-662,218	800,000	0,022	-0,064
-661,203	164,324	0,054	-0,056
-660,189	516,894	0,054	0,093
-659,174	-96,022	-0,188	0,037
-658,159	-199,921	0,183	-0,001
-657,145	800,000	0,011	-0,036
-656,130	51,483	0,020	-0,014
-655,116	132,473	-0,042	0,040
-654,101	179,740	0,031	0,034
-653,086	222,589	-0,073	-0,087
-652,072	108,189	-0,067	-0,059
-651,057	-200,000	-0,002	-0,046
-650,043	490,376	-0,118	-0,201
-649,028	44,045	0,034	0,023
-648,014	-18,652	-0,043	0,020
-646,999	-129,987	-0,083	-0,008
-645,984	356,985	-0,077	-0,114
-644,970	626,577	0,009	-0,017
-643,955	76,129	-0,092	-0,072
-642,941	466,849	-0,042	0,070
-641,926	-200,000	-0,010	-0,066
-640,911	129,761	-0,102	0,096
-639,897	622,060	-0,016	-0,031
-638,882	-200,000	-0,003	0,043
-637,868	-200,000	0,001	0,113
-636,853	800,000	0,040	-0,096
-635,838	-143,538	-0,091	0,006
-634,824	509,569	-0,118	-0,203
-633,809	314,970	-0,039	-0,054
-632,795	31,720	0,065	-0,041
-631,780	-17,903	0,031	-0,014
-630,765	-200,000	-0,006	0,045
-629,751	800,000	0,040	-0,085
-628,736	-111,053	-0,047	-0,007
-627,722	-105,083	-0,038	0,006
-626,707	10,790	-0,145	0,081
-625,692	175,694	0,032	0,034
-624,678	144,123	0,006	0,006
-623,663	-101,182	-0,091	0,016
-622,649	-127,085	0,012	0,001
-621,634	583,413	-0,032	0,057
-620,619	87,205	-0,067	-0,054
-619,605	87,393	0,049	0,040
-618,590	800,000	-0,035	0,074
-617,576	-151,116	0,083	0,005
-616,561	-200,000	-0,013	0,049
-615,546	284,149	-0,048	0,064
-614,532	800,000	0,034	-0,086
-613,517	-200,000	0,002	0,085
-612,503	249,181	-0,031	0,038
-611,488	-166,284	0,117	-0,004
-610,474	-51,299	0,023	0,008
-609,459	326,451	-0,039	0,055
-608,444	-110,201	0,016	-0,002
-607,430	-83,731	-0,153	-0,036
-606,415	-200,000	0,006	-0,136
-605,401	400,263	0,029	0,045
-604,386	800,000	-0,055	-0,144
-603,371	-200,000	-0,003	0,072
-602,357	586,717	0,013	0,024
-601,342	276,735	-0,054	-0,070
-600,328	310,167	-0,037	0,050
-599,313	-91,424	-0,011	0,002
-598,298	-48,472	-0,151	-0,053
-597,284	95,817	0,138	0,116
-596,269	108,741	0,041	-0,036
-595,255	-200,000	-0,007	-0,036
-594,240	-200,000	-0,008	-0,072
-593,225	-200,000	-0,000	-0,081
-592,211	-159,401	-0,141	-0,006
-591,196	665,712	0,037	0,070
-590,182	-200,000	0,031	-0,134
-589,167	-200,000	-0,009	-0,079
-588,152	74,844	-0,032	-0,025
-587,138	-92,886	-0,040	-0,008
-586,123	-81,146	0,063	0,015
-585,109	139,131	0,045	0,044
-584,094	-70,508	-0,158	0,044
-583,079	292,085	-0,055	0,074
-582,065	-55,927	0,050	0,016
-581,050	-200,000	-0,014	-0,056
-580,036	729,037	-0,022	-0,044
-579,021	288,049	0,064	-0,085
-578,006	-200,000	-0,016	0,056
-576,992	-153,093	-0,079	-0,004
-575,977	-200,000	0,040	-0,144
-574,963	250,001	0,031	0,039
-573,948	84,836	0,118	0,095
-572,934	-35,576	-0,105	-0,042
-571,919	-200,000	-0,020	-0,068
-570,904	332,590	-0,026	0,038
-569,890	236,560	0,059	-0,072
-568,875	-200,000	-0,024	0,078
-567,861	58,698	0,043	-0,031
-566,846	800,000	0,031	-0,071
-565,831	88,402	0,084	0,069
-564,817	13,129	-0,078	-0,044
-563,802	-200,000	-0,009	-0,079
-562,788	53,890	0,024	-0,017
-561,773	-19,403	0,047	-0,021
-560,758	586,224	-0,049	0,090
-559,744	112,042	0,034	0,030
-558,729	-78,315	-0,080	-0,020
-557,715	-200,000	-0,006	0,086
-556,700	43,543	-0,110	0,074
-555,685	-110,762	-0,064	0,010
-554,671	-72,277	-0,038	0,010
-553,656	72,503	0,073	-0,056
-552,642	189,008	-0,032	-0,035
-551,627	-200,000	0,003	0,121
-550,612	-162,670	-0,128	-0,005
-549,598	-200,000	0,039	0,130
-548,583	478,271	-0,048	0,080
-547,569	800,000	0,039	-0,085
-546,554	-20,030	0,056	0,025
-545,539	84,601	-0,087	0,070
-544,525	-41,735	-0,023	-0,009
-543,510	-19,429	0,138	-0,062
-542,496	800,000	0,019	-0,054
-541,481	-105,880	-0,180	-0,030
-540,466	-24,027	0,078	-0,034
-539,452	800,000	-0,025	-0,075
-538,437	364,745	0,035	0,052
-537,423	262,642	-0,041	0,052
-536,408	800,000	0,040	-0,102
-535,393	-97,694	0,099	0,019
-534,379	-88,561	-0,021	-0,005
-533,364	-193,423	-0,078	0,000
-532,350	-149,002	-0,099	-0,006
-531,335	-27,354	-0,084	0,036
-530,321	38,105	0,032	0,021
-529,306	-200,000	0,004	0,037
-528,291	273,704	0,024	-0,032
-527,277	88,192	0,030	-0,024
-526,262	-200,000	0,007	-0,055
-525,248	-200,000	-0,046	0,158
-524,233	-200,000	0,008	0,148
-523,218	399,114	0,022	0,033
-522,204	-43,925	0,086	0,032
-521,189	800,000	0,057	-0,176
-520,175	269,708	0,094	-0,121
-519,160	58,741	0,038	-0,028
-518,145	75,369	0,124	-0,096
-517,131	-7,259	0,040	-0,020
-516,116	96,705	0,053	0,044
-515,102	-200,000	-0,007	0,043
-514,087	-200,000	0,000	0,009
-513,072	784,830	-0,088	0,177
-512,058	154,650	0,126	-0,128
-511,043	-200,000	-0,019	0,068
-510,029	167,349	0,072	0,075
-509,014	71,013	0,028	0,021
-507,999	-200,000	-0,012	-0,092
-506,985	-57,044	-0,121	0,039
-505,970	-200,000	-0,024	-0,089
-504,956	-85,871	-0,040	-0,009
-503,941	110,589	-0,134	0,118
-502,926	-31,880	-0,041	-0,017
-501,912	-17,366	0,115	0,053
-500,897	-200,000	0,004	0,115
-499,883	-30,272	0,066	-0,027
-498,868	-200,000	0,019	-0,156
-497,853	-200,000	0,003	-0,099
-496,839	-200,000	-0,007	-0,109
-495,824	-200,000	-0,019	0,077
-494,810	65,805	-0,113	0,084
-493,795	276,179	0,059	0,078
-492,781	800,000	-0,036	-0,091
-491,766	603,936	-0,049	-0,089
-490,751	-54,518	-0,061	-0,020
-489,737	445,191	0,014	0,022
-488,722	-95,482	-0,108	-0,021
-487,708	-160,717	0,144	0,006
-486,693	-84,376	0,073	-0,017
-485,678	-39,538	-0,081	0,031
-484,664	70,907	-0,123	-0,093
-483,649	135,719	0,036	-0,035
-482,635	-142,901	0,022	0,002
-481,620	-15,542	0,044	0,020
-480,605	56,778	-0,050	0,036
-479,591	15,159	0,073	-0,042
-478,576	-152,953	0,148	-0,008
-477,562	-200,000	0,011	-0,136
-476,547	18,242	-0,037	-0,021
-475,532	-92,623	-0,083	-0,017
-474,518	-200,000	-0,019	0,198
-473,503	800,000	-0,017	0,038
-472,489	3,564	0,030	-0,016
-471,474	-200,000	-0,011	-0,111
-470,459	-104,590	-0,142	-0,024
-469,445	296,351	0,032	0,043
-468,430	-7,571	-0,037	-0,018
-467,416	-45,139	0,105	0,038
-466,401	-76,345	0,067	0,017
-465,386	-65,388	-0,028	-0,008
-464,372	-200,000	0,010	-0,048
-463,357	800,000	0,023	0,055
-462,343	-36,478	-0,114	0,045
-461,328	-61,006	0,067	0,021
-460,313	-200,000	0,007	0,072
-459,299	-200,000	-0,009	0,146
-458,284	147,518	-0,032	0,032
-457,270	-200,000	0,009	-0,071
-456,255	-200,000	-0,013	0,129
-455,241	723,737	-0,033	-0,065
-454,226	-200,000	-0,002	-0,158
-453,211	-200,000	-0,016	0,099
-452,197	-200,000	0,034	0,148
-451,182	361,580	0,035	0,052
-450,168	-24,331	0,091	-0,039
-449,153	-166,281	-0,078	0,002
-448,138	-200,000	0,025	-0,161
-447,124	124,048	-0,118	-0,108
-446,109	-161,613	-0,057	-0,002
-445,095	74,829	0,081	0,063
-444,080	216,999	0,064	0,074
-443,065	-200,000	-0,012	-0,040
-442,051	-200,000	-0,030	-0,106
-441,036	-15,000	-0,066	0,031
-440,022	260,783	-0,073	0,093
-439,007	-200,000	-0,041	0,204
-437,992	351,092	0,058	0,084
-436,978	368,532	0,034	0,051
-435,963	641,592	-0,002	0,004
-434,949	800,000	0,028	0,071
-433,934	-73,941	-0,076	-0,020
-432,919	-200,000	-0,020	-0,105
-431,905	-200,000	0,007	0,131
-430,890	-36,330	-0,063	0,025
-429,876	-200,000	0,007	0,090
-428,861	-200,000	-0,005	0,024
-427,846	273,719	-0,089	-0,115
-426,832	-112,414	0,093	0,013
-425,817	-126,720	0,084	-0,009
-424,803	102,044	-0,013	-0,011
-423,788	-197,436	0,109	0,000
-422,773	-58,074	0,023	0,007
-421,759	40,036	-0,069	-0,045
-420,744	745,555	-0,022	-0,044
-419,730	-95,230	-0,118	-0,023
-418,715	800,000	0,026	-0,079
-417,701	290,038	0,107	-0,142
-416,686	26,434	0,139	0,085
-415,671	288,840	0,014	0,018
-414,657	-11,760	-0,096	-0,046
-413,642	236,618	0,028	0,033
-412,628	17,042	-0,117	-0,067
-411,613	-121,394	-0,077	-0,009
-410,598	130,583	0,030	0,028
-409,584	337,933	-0,046	0,066
-408,569	110,754	-0,102	-0,089
-407,555	-26,628	-0,072	0,030
-406,540	563,807	-0,009	0,016
-405,525	-19,236	-0,080	-0,036
-404,511	-135,467	0,049	-0,004
-403,496	-200,000	0,032	-0,115
-402,482	108,182	0,045	0,039
-401,467	89,610	-0,083	-0,067
-400,452	192,741	0,063	-0,069
-399,438	246,672	0,024	-0,029
-398,423	450,919	0,075	-0,121
-397,409	-200,000	-0,003	0,013
-396,394	-200,000	-0,002	-0,044
-395,379	462,810	0,045	-0,073
-394,365	63,387	0,079	-0,057
-393,350	-200,000	-0,004	0,130
-392,336	-200,000	0,031	-0,105
-391,321	-200,000	-0,000	0,012
-390,306	128,027	-0,057	-0,052
-389,292	800,000	-0,022	-0,060
-388,277	-177,764	0,025	-0,000
-387,263	313,398	0,034	0,046
-386,248	-200,000	-0,006	-0,039
-385,233	-200,000	0,027	0,090
-384,219	-38,913	-0,048	0,018
-383,204	-200,000	-0,024	-0,197
-382,190	27,524	0,044	-0,027
-381,175	-200,000	-0,009	0,152
-380,160	302,364	0,114	0,155
-379,146	-200,000	-0,004	0,031
-378,131	-104,558	-0,076	0,013
-377,117	3,299	-0,037	0,020
-376,102	-200,000	-0,000	0,002
-375,088	-99,890	0,086	0,015
-374,073	483,445	-0,062	-0,103
-373,058	-200,000	0,019	0,095
-372,044	-77,886	-0,045	-0,011
-371,029	-200,000	0,010	0,042
-370,015	-200,000	0,008	-0,126
-369,000	-77,998	-0,064	-0,016
-367,985	-200,000	0,008	-0,096
-366,971	-163,831	0,102	-0,003
-365,956	138,328	-0,079	-0,075
-364,942	-6,482	-0,197	-0,097
-363,927	800,000	-0,042	0,107
-362,912	190,696	0,013	0,015
-361,898	140,989	0,077	0,075
-360,883	-7,958	0,077	-0,038
-359,869	-101,363	-0,153	-0,027
-358,854	-200,000	0,024	-0,096
-357,839	-13,868	0,020	-0,010
-356,825	-74,265	0,094	0,025
-355,810	-87,660	0,023	-0,005
-354,796	-200,000	-0,023	-0,120
-353,781	-4,441	0,065	-0,033
-352,766	400,132	-0,080	0,123
-351,752	160,527	0,125	-0,127
-350,737	-103,643	0,127	0,022
-349,723	-70,266	-0,049	-0,013
-348,708	-107,643	-0,068	-0,011
-347,693	-200,000	0,015	0,139
-346,679	189,187	0,035	0,038
-345,664	800,000	0,043	-0,134
-344,650	602,847	-0,046	0,083
-343,635	212,518	-0,033	0,038
-342,620	-31,156	0,051	-0,021
-341,606	12,993	-0,006	-0,003
-340,591	-200,000	-0,012	-0,054
-339,577	-200,000	0,010	-0,136
-338,562	-23,931	-0,088	0,038
-337,548	-55,581	-0,109	0,035
-336,533	134,844	0,014	0,013
-335,518	69,794	0,070	0,052
-334,504	-78,267	0,094	-0,023
-333,489	800,000	-0,029	0,068
-332,475	-200,000	-0,023	-0,082
-331,460	123,129	0,075	0,068
-330,445	800,000	-0,011	-0,031
-329,431	-62,815	0,161	0,048
-328,416	-200,000	-0,008	0,162
-327,402	102,225	0,099	0,084
-326,387	27,212	-0,129	0,079
-325,372	114,444	-0,037	0,032
-324,358	-200,000	0,027	-0,098
-323,343	32,249	-0,054	0,034
-322,329	-200,000	-0,038	0,133
-321,314	52,505	-0,102	0,071
-320,299	466,027	-0,032	0,052
-319,285	-200,000	0,018	-0,066
-318,270	-200,000	-0,026	0,104
-317,256	800,000	-0,031	0,067
-316,241	75,713	0,071	-0,054
-315,226	366,372	0,032	0,048
-314,212	-200,000	0,007	-0,031
-313,197	249,358	-0,092	-0,113
-312,183	-200,000	0,023	-0,096
-311,168	-73,217	0,081	-0,021
-310,153	-200,000	0,007	-0,118
-309,139	800,000	-0,033	-0,105
-308,124	416,376	0,058	-0,091
-307,110	7,777	0,073	0,040
-306,095	-2,319	-0,035	-0,018
-305,080	-74,983	-0,130	-0,034
-304,066	800,000	0,032	-0,068
-303,051	800,000	-0,060	-0,185
-302,037	-200,000	-0,008	-0,066
-301,022	170,069	-0,077	0,081
-300,008	-200,000	0,031	0,172
-298,993	800,000	-0,007	-0,018
-297,978	-200,000	-0,028	0,110
-296,964	126,172	-0,147	-0,136
-295,949	-200,000	-0,008	-0,098
-294,935	-63,092	-0,060	-0,018
-293,920	232,354	0,049	0,059
-292,905	-200,000	-0,008	0,033
-291,891	17,749	0,119	-0,069
-290,876	4,795	0,156	0,083
-289,862	-77,807	0,084	-0,021
-288,847	-200,000	-0,012	-0,092
-287,832	72,457	-0,042	0,032
-286,818	-75,511	0,009	0,002
-285,803	-200,000	-0,024	0,084
-284,789	-200,000	0,001	0,019
-283,774	24,597	0,054	-0,032
-282,759	-113,254	0,068	-0,010
-281,745	277,925	0,084	-0,109
-280,730	354,422	0,088	-0,128
-279,716	-200,000	0,022	-0,215
-278,701	-41,950	0,061	0,022
-277,686	800,000	0,051	0,131
-276,672	548,171	0,046	0,081
-275,657	102,352	-0,108	0,092
-274,643	-200,000	-0,006	0,138
-273,628	261,957	-0,054	0,068
-272,613	425,312	0,008	-0,013
-271,599	-11,012	0,086	-0,041
-270,584	173,215	-0,037	0,039
-269,570	-200,000	-0,005	0,241
-268,555	-200,000	-0,003	-0,039
-267,540	330,375	-0,051	-0,071
-266,526	-200,000	0,015	0,052
-265,511	234,286	-0,047	0,057
-264,497	-141,977	-0,082	-0,006
-263,482	84,669	0,042	0,033
-262,467	44,919	0,136	-0,091
-261,453	102,755	0,103	0,087
-260,438	-132,546	-0,059	-0,005
-259,424	-200,000	-0,012	0,040
-258,409	561,786	-0,020	0,035
-257,395	800,000	-0,035	0,097
-256,380	-191,281	0,165	-0,001
-255,365	675,779	0,097	0,185
-254,351	800,000	-0,034	0,094
-253,336	800,000	0,036	-0,081
-252,322	-200,000	0,019	-0,101
-251,307	496,531	-0,076	-0,127
-250,292	-18,443	-0,128	-0,058
-249,278	8,867	0,034	-0,018
-248,263	-49,152	-0,066	0,023
-247,249	-200,000	-0,011	0,087
-246,234	-200,000	-0,007	0,074
-245,219	260,425	0,017	0,022
-244,205	474,077	0,040	-0,066
-243,190	-102,886	0,124	0,021
-242,176	-177,058	0,140	-0,002
-241,161	53,878	0,064	0,045
-240,146	-37,907	0,140	-0,054
-239,132	-43,418	0,094	-0,034
-238,117	221,463	-0,060	-0,070
-237,103	289,393	-0,089	-0,117
-236,088	-13,520	0,076	-0,036
-235,073	197,481	0,053	-0,058
-234,059	10,775	0,048	0,027
-233,044	-17,253	0,085	-0,039
-232,030	85,767	0,025	0,020
-231,015	-200,000	0,030	-0,096
-230,000	514,337	-0,068	0,115
-228,986	800,000	-0,059	0,130
-227,971	42,664	0,211	0,139
-226,957	-104,154	0,118	-0,020
-225,942	145,155	-0,079	0,077
-224,927	-200,000	-0,012	-0,078
-223,913	800,000	-0,043	-0,101
-222,898	73,378	0,093	-0,070
-221,884	95,327	-0,083	-0,069
-220,869	-200,000	-0,017	0,075
-219,855	323,583	0,127	0,176
-218,840	252,159	0,092	0,114
-217,825	800,000	-0,031	0,063
-216,811	-114,625	0,062	0,008
-215,796	486,743	-0,055	0,092
-214,782	423,122	0,047	-0,074
-213,767	800,000	0,036	0,091
-212,752	800,000	0,044	-0,105
-211,738	-16,160	0,023	0,011
-210,723	160,437	0,055	0,055
-209,709	96,084	-0,076	-0,063
-208,694	-200,000	-0,001	-0,129
-207,679	67,330	0,044	-0,032
-206,665	-200,000	-0,023	0,096
-205,650	13,909	0,186	0,105
-204,636	22,929	0,109	0,065
-203,621	-200,000	-0,016	0,078
-202,606	-172,290	-0,169	-0,004
-201,592	-200,000	-0,014	-0,114
-200,577	53,555	0,057	0,040
-199,563	-89,986	-0,114	-0,024
-198,548	158,703	0,064	0,065
-197,533	-200,000	0,016	0,131
-196,519	800,000	-0,032	-0,065
-195,504	172,211	0,108	0,112
-194,490	-200,000	0,006	-0,084
-193,475	236,437	-0,040	0,048
-192,460	-58,349	-0,106	-0,033
-191,446	-16,058	0,047	0,021
-190,431	-76,140	-0,077	-0,019
-189,417	55,694	0,044	0,031
-188,402	87,685	-0,137	0,110
-187,387	201,277	-0,023	-0,025
-186,373	-200,000	-0,007	-0,151
-185,358	-137,944	-0,142	-0,011
-184,344	253,621	0,071	0,088
-183,329	-162,678	0,074	-0,003
-182,315	-94,509	0,051	-0,010
-181,300	-68,939	0,072	-0,020
-180,285	800,000	-0,015	-0,036
-179,271	-200,000	-0,018	-0,168
-178,256	561,623	0,071	0,126
-177,242	13,796	-0,090	0,050
-176,227	66,445	-0,122	0,090
-175,212	-24,740	0,065	0,028
-174,198	800,000	-0,002	0,005
-173,183	485,339	-0,037	0,060
-172,169	-59,859	0,136	-0,042
-171,154	410,587	-0,081	0,125
-170,139	772,621	-0,046	-0,091
-169,125	-200,000	-0,001	-0,048
-168,110	-171,423	0,084	0,002
-167,096	219,239	-0,106	-0,123
-166,081	-200,000	0,000	0,011
-165,066	96,217	-0,079	0,065
-164,052	-74,184	0,075	0,019
-163,037	224,883	-0,081	-0,094
-162,023	308,082	0,076	0,103
-161,008	18,905	-0,080	-0,046
-159,993	60,296	0,062	-0,044
-158,979	11,895	-0,090	-0,050
-157,964	164,144	0,072	-0,073
-156,950	-200,000	-0,030	0,102
-155,935	800,000	0,035	-0,097
-154,920	800,000	0,054	0,114
-153,906	670,557	-0,021	-0,040
-152,891	67,464	0,031	-0,023
-151,877	-200,000	0,022	-0,105
-150,862	-200,000	-0,008	0,048
-149,847	-114,482	0,105	-0,014
-148,833	182,124	-0,084	-0,090
-147,818	800,000	0,066	0,167
-146,804	50,867	0,109	-0,074
-145,789	-75,286	-0,061	-0,015
-144,775	-200,000	0,005	0,023
-143,760	-200,000	-0,040	-0,128
-142,745	-158,629	0,138	-0,006
-141,731	167,328	-0,059	-0,060
-140,716	-61,988	-0,036	0,011
-139,702	-200,000	0,057	0,202
-138,687	27,654	-0,076	-0,046
-137,672	-60,153	0,199	0,061
-136,658	-87,245	-0,208	-0,045
-135,643	110,873	0,061	0,053
-134,629	-200,000	-0,004	-0,076
-133,614	800,000	-0,048	0,118
-132,599	-177,133	-0,037	-0,001
-131,585	188,286	0,024	0,026
-130,570	-17,403	0,077	0,035
-129,556	-200,000	0,003	-0,025
-128,541	-200,000	-0,020	-0,074
-127,526	342,288	0,041	0,059
-126,512	36,463	-0,023	-0,015
-125,497	-200,000	0,020	0,127
-124,483	-200,000	-0,010	0,072
-123,468	800,000	-0,050	0,146
-122,453	159,724	0,023	0,024
-121,439	31,486	0,086	0,053
-120,424	-200,000	-0,009	0,054
-119,410	-200,000	-0,013	-0,049
-118,395	586,106	0,039	0,070
-117,380	800,000	0,035	0,088
-116,366	800,000	0,009	0,021
-115,351	-200,000	-0,001	-0,171
-114,337	-200,000	0,008	-0,124
-113,322	-55,585	-0,069	-0,022
-112,307	-74,715	-0,123	-0,032
-111,293	800,000	0,039	0,084
-110,278	-200,000	0,031	0,100
-109,264	174,228	0,073	-0,077
-108,249	-62,049	0,090	0,027
-107,234	-200,000	0,020	0,116
-106,220	-2,994	-0,138	-0,069
-105,205	-126,864	0,116	-0,012
-104,191	609,129	0,055	0,100
-103,176	419,847	-0,026	-0,040
-102,162	800,000	-0,022	0,069
-101,147	-159,893	0,077	-0,003
-100,132	-200,000	-0,016	-0,080
-99,118	24,021	-0,039	-0,023
-98,103	171,361	0,070	-0,072
-97,089	-200,000	-0,015	0,056
-96,074	333,156	0,148	0,207
-95,059	-200,000	0,016	0,122
-94,045	-118,336	-0,101	-0,013
-93,030	-57,500	0,161	-0,051
-92,016	49,572	-0,084	0,057
-91,001	284,101	-0,039	0,051
-89,986	-34,007	-0,063	-0,025
-88,972	-200,000	-0,025	0,106
-87,957	156,438	0,076	0,076
-86,943	-200,000	-0,013	-0,082
-85,928	-200,000	-0,024	0,104
-84,913	24,168	-0,084	-0,050
-83,899	22,523	-0,046	0,027
-82,884	-99,839	0,059	0,011
-81,870	800,000	-0,015	0,038
-80,855	111,580	0,065	-0,056
-79,840	569,734	-0,084	0,149
-78,826	29,611	0,011	-0,007
-77,811	566,119	-0,060	0,106
-76,797	-155,260	-0,069	-0,003
-75,782	-97,372	-0,053	-0,010
-74,767	73,009	0,069	0,052
-73,753	-200,000	0,008	0,029
-72,738	-200,000	0,005	-0,159
-71,724	499,256	-0,106	-0,177
-70,709	449,231	-0,083	-0,132
-69,694	800,000	-0,055	-0,123
-68,680	800,000	-0,029	0,062
-67,665	-50,436	0,119	0,040
-66,651	-200,000	-0,017	0,123
-65,636	-200,000	0,012	-0,096
-64,622	-8,134	-0,032	0,015
-63,607	-69,488	0,101	-0,028
-62,592	248,926	-0,077	0,095
-61,578	623,088	0,029	-0,052
-60,563	800,000	-0,030	-0,062
-59,549	800,000	0,063	0,130
-58,534	-36,881	-1,768	-0,680
-57,519	800,000	-0,334	-0,902
-56,505	-200,000	-1,115	-4,705
-55,490	-36,498	0,737	0,284
-54,476	800,000	5,174	11,834
-53,461	-200,000	16,695	272,551
-52,446	800,000	712,502	2208,662
-51,432	550,916	1625,492	2820,594
-50,417	117,979	1621,543	1439,015
-49,403	81,570	1282,656	998,474
-48,388	35,487	1029,400	649,440
-47,373	20,925	992,104	577,712
-46,359	19,738	980,250	566,874
-45,344	17,652	975,965	557,515
-44,330	17,802	974,874	557,362
-43,315	17,369	973,282	555,011
-42,300	17,457	971,930	554,506
-41,286	17,350	971,284	553,763
-40,271	17,332	970,244	553,089
-39,257	17,356	969,332	552,625
-38,242	17,341	968,566	552,119
-37,227	17,342	967,855	551,694
-36,213	17,276	966,984	550,960
-35,198	17,271	966,140	550,440
-34,184	17,405	965,330	550,395
-33,169	17,338	964,163	549,491
-32,154	17,416	963,333	549,247
-31,140	17,431	962,642	548,882
-30,125	17,392	961,901	548,310
-29,111	17,378	960,962	547,708
-28,096	17,420	960,162	547,366
-27,082	17,259	959,850	546,647
-26,067	17,365	958,885	546,417
-25,052	17,339	958,141	545,887
-24,038	17,312	957,402	545,356
-23,023	17,318	956,706	544,960
-22,009	17,275	956,178	544,497
-20,994	17,406	955,197	544,338
-19,979	17,357	954,808	543,939
-18,965	17,391	954,246	543,706
-17,950	17,370	953,722	543,319
-16,936	17,231	953,015	542,450
-15,921	17,220	952,211	541,934
-14,906	17,138	951,602	541,302
-13,892	17,171	950,870	540,969
-12,877	17,223	950,159	540,711
-11,863	17,151	949,673	540,182
-10,848	17,259	948,924	540,080
-9,833	17,290	948,439	539,882
-8,819	17,239	947,881	539,381
-7,804	17,193	947,381	538,926
-6,790	17,154	946,644	538,361
-5,775	17,217	946,124	538,246
-4,760	17,313	945,387	538,110
-3,746	17,171	944,989	537,411
-2,731	17,122	944,191	536,778
-1,717	17,064	943,467	536,162
-0,702	17,023	942,926	535,705
0,313	16,875	942,150	535,601
1,327	19,257	939,978	541,863
2,342	26,210	812,985	487,571
3,356	20,381	516,604	299,703
4,371	-1,211	388,044	196,668
5,386	-3,929	371,702	184,910
6,400	-5,038	365,598	180,468
7,415	-5,860	362,736	178,017
8,429	-6,271	361,081	176,680
9,444	-6,400	360,167	176,057
10,459	-6,427	359,330	175,600
11,473	-6,440	358,743	175,280
12,488	-6,246	358,263	175,269
13,502	-6,382	357,579	174,752
14,517	-6,595	356,882	174,136
15,531	-6,975	356,347	173,394
16,546	-6,847	355,727	173,233
17,561	-7,057	355,330	172,769
18,575	-6,899	354,826	172,701
19,590	-7,136	354,551	172,263
20,604	-6,951	354,152	172,278
21,619	-7,166	353,924	171,892
22,634	-7,053	353,403	171,760
23,648	-7,146	353,097	171,483
24,663	-7,183	352,744	171,252
25,677	-7,144	352,356	171,095
26,692	-7,278	352,177	170,832
27,707	-7,186	351,666	170,680
28,721	-7,036	351,331	170,682
29,736	-7,238	351,023	170,274
30,750	-7,188	350,762	170,193
31,765	-7,235	350,432	169,961
32,780	-7,245	350,141	169,792
33,794	-7,154	349,741	169,692
34,809	-7,265	349,646	169,498
35,823	-7,263	349,290	169,313
36,838	-7,289	348,835	169,047
37,853	-7,242	348,713	169,028
38,867	-7,283	348,248	168,739
39,882	-7,271	348,063	168,649
40,896	-7,368	347,688	168,337
41,911	-7,266	347,289	168,249
42,926	-7,259	346,956	168,081
43,940	-7,548	346,791	167,644
44,955	-7,367	346,531	167,718
45,969	-7,501	346,194	167,381
46,984	-7,653	345,974	167,079
47,999	-7,646	345,500	166,844
49,013	-7,677	345,260	166,677
50,028	-7,833	345,012	166,358
51,042	-7,727	344,878	166,404
52,057	-7,750	344,581	166,219
53,071	-7,857	344,410	165,995
54,086	-7,779	344,006	165,878
55,101	-7,746	343,628	165,720
56,115	-7,539	343,472	165,872
57,130	-7,202	343,361	166,200
58,144	-6,797	343,047	166,507
59,159	-6,946	342,877	166,235
60,174	-6,854	342,718	166,251
61,188	-6,888	342,483	166,082
62,203	-7,082	342,197	165,702
63,217	-7,154	341,711	165,367
64,232	-7,030	341,536	165,413
65,247	-6,874	341,295	165,463
66,261	-6,890	341,114	165,342
67,276	-7,242	340,477	164,609
68,290	-7,382	340,299	164,346
69,305	-7,344	340,120	164,289
70,320	-7,501	339,672	163,877
71,334	-7,247	339,571	164,107
72,349	-6,820	339,501	164,553
73,363	-6,853	339,202	164,355
74,378	-7,030	338,991	164,034
75,393	-6,802	338,571	164,080
76,407	-7,092	338,221	163,561
77,422	-7,081	338,113	163,506
78,436	-6,937	338,055	163,630
79,451	-7,010	337,520	163,273
80,466	-7,161	337,084	162,874
81,480	-7,333	336,718	162,484
82,495	-7,384	336,672	162,389
83,509	-7,402	336,347	162,197
84,524	-7,665	336,136	161,780
85,539	-7,587	335,676	161,633
86,553	-7,518	335,497	161,612
87,568	-7,472	335,200	161,506
88,582	-7,593	334,946	161,231
89,597	-7,483	334,845	161,295
90,611	-7,318	334,629	161,364
91,626	-7,096	334,350	161,468
92,641	-7,294	334,182	161,147
93,655	-7,354	333,918	160,937
94,670	-7,476	333,672	160,665
95,684	-7,261	333,348	160,739
96,699	-7,269	333,019	160,557
97,714	-7,456	332,838	160,243
98,728	-7,529	332,462	159,966
99,743	-7,641	332,268	159,731
100,757	-7,569	331,909	159,627
101,772	-7,534	331,849	159,622
102,787	-7,484	331,620	159,554
103,801	-7,377	331,450	159,579
104,816	-7,421	331,375	159,479
105,830	-7,165	331,113	159,627
106,845	-6,944	330,681	159,654
107,860	-7,302	330,579	159,188
108,874	-7,210	330,266	159,126
109,889	-7,359	330,041	158,836
110,903	-7,268	329,707	158,763
111,918	-7,340	329,517	158,576
112,933	-7,289	329,404	158,566
113,947	-7,246	329,059	158,434
114,962	-7,224	328,775	158,308
115,976	-7,263	328,585	158,158
116,991	-7,306	328,451	158,032
118,006	-7,258	328,127	157,915
119,020	-7,324	328,048	157,789
120,035	-7,103	327,840	157,921
121,049	-7,084	327,661	157,842
122,064	-7,028	327,157	157,647
123,079	-7,231	327,027	157,345
124,093	-7,259	326,773	157,178
125,108	-7,569	326,461	156,670
126,122	-7,651	326,140	156,411
127,137	-7,643	325,946	156,313
128,151	-7,538	325,681	156,288
129,166	-7,542	325,349	156,111
130,181	-7,545	325,220	156,031
131,195	-7,595	324,949	155,832
132,210	-7,410	324,920	156,008
133,224	-7,278	324,629	156,000
134,239	-7,133	324,448	156,059
135,254	-7,230	324,251	155,844
136,268	-7,437	323,975	155,469
137,283	-7,484	323,417	155,136
138,297	-7,611	323,233	154,895
139,312	-7,553	323,203	154,931
140,327	-7,219	323,041	155,204
141,341	-6,929	323,027	155,502
142,356	-6,657	322,853	155,702
143,370	-6,768	322,610	155,449
144,385	-6,533	322,287	155,537
145,400	-6,690	322,084	155,253
146,414	-6,745	321,837	155,061
147,429	-6,890	321,645	154,796
148,443	-6,933	321,434	154,634
149,458	-6,886	321,149	154,534
150,473	-6,719	320,921	154,592
151,487	-6,989	320,703	154,181
152,502	-6,947	320,500	154,114
153,516	-6,881	320,442	154,144
154,531	-6,823	319,924	153,944
155,546	-6,962	319,886	153,762
156,560	-7,097	319,526	153,429
157,575	-7,049	319,302	153,360
158,589	-6,969	318,998	153,286
159,604	-6,767	318,961	153,474
160,619	-6,726	318,699	153,378
161,633	-6,855	318,650	153,201
162,648	-6,646	318,254	153,222
163,662	-6,804	318,147	152,987
164,677	-6,842	317,817	152,773
165,692	-6,893	317,642	152,621
166,706	-6,852	317,509	152,588
167,721	-6,813	317,228	152,481
168,735	-6,594	317,271	152,722
169,750	-6,682	316,831	152,403
170,764	-6,666	316,669	152,329
171,779	-6,670	316,553	152,255
172,794	-6,494	316,345	152,329
173,808	-6,755	316,085	151,912
174,823	-7,335	315,519	151,008
175,837	-7,281	315,226	150,912
176,852	-6,998	315,359	151,264
177,867	-6,745	315,339	151,510
178,881	-6,620	314,943	151,439
179,896	-6,675	314,873	151,333
180,910	-6,508	314,541	151,338
181,925	-6,521	314,321	151,205
182,940	-6,525	314,048	151,056
183,954	-6,553	314,009	150,994
184,969	-6,577	313,734	150,823
185,983	-6,644	313,674	150,710
186,998	-6,866	313,531	150,392
188,013	-6,561	313,167	150,526
189,027	-6,475	312,812	150,433
190,042	-6,372	312,728	150,489
191,056	-6,187	312,472	150,547
192,071	-6,401	312,373	150,261
193,086	-6,328	312,069	150,178
194,100	-6,388	311,798	149,971
195,115	-6,432	311,623	149,827
196,129	-6,490	311,501	149,694
197,144	-6,398	311,265	149,664
198,159	-6,360	310,903	149,516
199,173	-6,369	310,795	149,441
200,188	-6,210	310,528	149,466
201,202	-6,603	310,147	148,858
202,217	-7,186	309,685	148,014
203,232	-7,265	309,441	147,802
204,246	-6,752	309,347	148,280
205,261	-6,401	309,272	148,596
206,275	-6,639	309,241	148,320
207,290	-6,388	309,015	148,459
208,304	-6,452	308,841	148,296
209,319	-6,438	308,720	148,239
210,334	-6,313	308,512	148,256
211,348	-6,412	308,239	148,009
212,363	-6,446	307,966	147,829
213,377	-6,461	307,922	147,780
214,392	-6,466	307,509	147,563
215,407	-6,896	307,247	146,979
216,421	-7,114	306,993	146,619
217,436	-7,072	306,695	146,507
218,450	-7,031	306,571	146,477
219,465	-6,669	306,438	146,774
220,480	-6,694	306,301	146,669
221,494	-6,794	306,093	146,454
222,509	-6,801	305,925	146,353
223,523	-6,665	305,796	146,419
224,538	-6,619	305,685	146,399
225,553	-6,450	305,383	146,415
226,567	-6,445	305,325	146,380
227,582	-6,316	305,123	146,402
228,596	-6,403	305,099	146,288
229,611	-6,275	304,699	146,215
230,626	-6,480	304,399	145,848
231,640	-7,020	304,100	145,139
232,655	-7,416	303,638	144,501
233,669	-7,335	303,489	144,500
234,684	-7,385	303,198	144,297
235,699	-7,256	303,089	144,364
236,713	-7,046	302,914	144,483
237,728	-6,963	302,788	144,494
238,742	-6,990	302,647	144,386
239,757	-6,580	302,481	144,711
240,772	-6,599	302,319	144,601
241,786	-6,751	302,255	144,403
242,801	-6,783	301,862	144,171
243,815	-7,109	301,755	143,776
244,830	-6,784	301,559	143,999
245,844	-6,968	301,317	143,684
246,859	-6,927	301,125	143,621
247,874	-6,912	300,955	143,543
248,888	-6,830	300,739	143,509
249,903	-6,588	300,592	143,671
250,917	-6,503	300,426	143,664
251,932	-6,060	300,554	144,160
252,947	-5,060	300,743	145,247
253,961	-5,094	300,501	145,082
254,976	-4,324	300,698	145,942
255,990	-3,451	300,804	146,860
257,005	-3,713	300,806	146,583
258,020	-1,523	301,483	149,110
259,034	-0,461	301,539	150,197
260,049	-0,328	301,461	150,279
261,063	0,008	301,570	150,659
262,078	0,462	301,382	151,007
263,093	0,426	301,189	150,862
264,107	0,576	300,924	150,866
265,122	0,695	300,854	150,938
266,136	0,587	300,675	150,725
267,151	0,619	300,631	150,722
268,166	0,751	300,423	150,736
269,180	0,836	300,114	150,653
270,195	0,676	299,879	150,361
271,209	0,666	299,885	150,341
272,224	0,721	299,656	150,269
273,239	0,793	299,330	150,163
274,253	0,865	299,182	150,148
275,268	0,704	298,987	149,876
276,282	0,695	298,783	149,751
277,297	0,631	298,605	149,584
278,312	0,684	298,365	149,504
279,326	0,605	298,302	149,380
280,341	0,573	298,103	149,236
281,355	0,593	297,788	149,084
282,370	0,794	297,593	149,173
283,384	0,660	297,409	148,935
284,399	0,514	297,307	148,725
285,414	0,517	297,048	148,585
286,428	0,734	296,939	148,733
287,443	0,587	296,747	148,478
288,457	0,527	296,517	148,291
289,472	0,625	296,118	148,174
290,487	0,498	296,034	147,994
291,501	0,585	295,810	147,954
292,516	0,600	295,734	147,918
293,530	0,521	295,466	147,693
294,545	0,646	295,329	147,734
295,560	0,679	295,169	147,673
296,574	0,517	294,963	147,398
297,589	0,674	294,842	147,478
298,603	0,575	294,491	147,192
299,618	0,618	294,399	147,176
300,633	0,621	294,124	147,028
301,647	0,692	293,991	147,018
302,662	0,626	293,915	146,902
303,676	0,560	293,661	146,697
304,691	0,706	293,396	146,695
305,706	0,671	293,247	146,573
306,720	0,547	293,214	146,423
307,735	0,541	292,833	146,213
308,749	0,635	292,616	146,184
309,764	0,541	292,493	146,018
310,779	0,786	292,286	146,139
311,793	0,639	292,048	145,865
312,808	0,628	291,832	145,733
313,822	0,492	291,628	145,486
314,837	0,419	291,579	145,378
315,852	0,576	291,369	145,413
316,866	0,650	291,113	145,344
317,881	0,729	290,878	145,289
318,895	0,695	290,737	145,173
319,910	0,657	290,624	145,067
320,925	0,564	290,334	144,820
321,939	0,679	290,191	144,846
322,954	0,547	290,012	144,617
323,968	0,637	289,885	144,627
324,983	0,725	289,578	144,546
325,997	0,486	289,599	144,314
327,012	0,731	289,426	144,450
328,027	0,682	288,998	144,176
329,041	0,619	288,942	144,076
330,056	0,608	288,730	143,946
331,070	0,647	288,490	143,851
332,085	0,748	288,357	143,868
333,100	0,615	288,058	143,580
334,114	0,527	287,982	143,444
335,129	0,591	287,806	143,405
336,143	0,578	287,543	143,249
337,158	0,640	287,424	143,236
338,173	0,694	287,231	143,179
339,187	0,677	287,046	143,057
340,202	0,656	286,845	142,924
341,216	0,612	286,626	142,761
342,231	0,410	286,565	142,526
343,246	0,741	286,388	142,739
344,260	0,766	286,147	142,630
345,275	0,602	285,997	142,387
346,289	0,859	285,859	142,549
347,304	0,633	285,724	142,256
348,319	0,539	285,409	141,997
349,333	0,727	285,175	142,046
350,348	0,796	284,983	142,002
351,362	0,898	284,857	142,023
352,377	0,937	284,706	141,972
353,392	0,726	284,603	141,709
354,406	0,873	284,309	141,688
355,421	191,733	1327,184	1397,175
356,435	155,293	1454,246	1397,189
