DTS Sentinel unit serial number:	SN410029Multiplexer serial number:	ORYXHardware model number:	OX2-SRSoftware version number:	ORYX F/W v4,00 Oryx Data Collector v3.7.2.0data status	okinstallation	B4 Nyhavnadifferential loss correction	single-endedforward channel	channel 2reverse channel	N/Adate	2023/12/16time	07:00:13forward acquisition time	300,00reverse acquisition time	0,00gamma	499,1914k internal	0,3127k external	0,3127temperature offset calibration	1,0000default loss term (dB/km)	0,3820temperature slope calibration	1,0000multiplexer offset coefficient	1,0000multiplexer slope coefficient	1,0000fibre end	0,00T internal ref (°C)	22,31T ext. ref 1 (°C)	7,61T ext. ref 2 (°C)	7,80length (m)	temperature (°C)	Stokes	anti-Stokes-744,400	-67,924	-0,037	0,011
-743,385	-44,610	-0,200	0,074
-742,371	89,777	0,043	0,036
-741,356	-120,782	-0,210	-0,026
-740,342	800,000	0,030	-0,084
-739,327	-12,766	-0,196	0,095
-738,312	568,598	0,077	-0,140
-737,298	37,183	-0,190	0,125
-736,283	-200,000	0,009	0,062
-735,269	188,043	-0,179	0,199
-734,254	-200,000	-0,030	0,138
-733,239	-164,882	-0,411	-0,013
-732,225	166,900	0,076	0,080
-731,210	62,990	-0,078	0,058
-730,196	204,238	0,026	0,030
-729,181	198,708	0,076	-0,086
-728,167	85,116	-0,066	-0,053
-727,152	62,399	-0,086	-0,064
-726,137	-6,057	-0,080	-0,041
-725,123	-200,000	-0,020	-0,105
-724,108	12,907	-0,049	0,028
-723,094	725,924	-0,068	-0,136
-722,079	-200,000	-0,004	-0,125
-721,064	800,000	-0,085	-0,176
-720,050	-200,000	-0,015	-0,163
-719,035	-81,385	-0,115	-0,028
-718,021	242,087	-0,065	0,081
-717,006	-58,099	-0,096	0,031
-715,991	308,982	-0,099	-0,138
-714,977	-74,005	-0,087	0,023
-713,962	27,096	-0,074	-0,046
-712,948	-164,118	0,075	-0,003
-711,933	-139,803	-0,069	0,005
-710,918	39,753	-0,018	0,012
-709,904	-200,000	0,007	-0,039
-708,889	-200,000	0,001	-0,109
-707,875	-56,536	-0,097	0,032
-706,860	305,825	-0,044	0,060
-705,845	-54,194	-0,024	0,008
-704,831	-200,000	-0,001	0,063
-703,816	-200,000	0,015	-0,109
-702,802	-29,369	-0,071	0,030
-701,787	-200,000	-0,035	-0,145
-700,772	-200,000	0,004	0,077
-699,758	146,900	0,057	0,057
-698,743	800,000	0,004	-0,008
-697,729	-131,790	-0,052	-0,005
-696,714	11,513	-0,087	-0,050
-695,699	800,000	-0,034	0,086
-694,685	30,327	0,131	0,083
-693,670	800,000	-0,015	-0,044
-692,656	237,974	0,110	-0,136
-691,641	43,768	-0,047	-0,032
-690,627	-32,196	0,111	-0,046
-689,612	-200,000	-0,002	-0,064
-688,597	-200,000	-0,031	-0,122
-687,583	175,266	-0,061	-0,066
-686,568	800,000	-0,012	0,027
-685,554	107,081	0,060	-0,053
-684,539	-200,000	-0,012	0,045
-683,524	-111,853	0,057	-0,008
-682,510	-200,000	-0,007	0,055
-681,495	614,551	0,015	-0,029
-680,481	74,235	-0,116	-0,091
-679,466	800,000	-0,057	-0,118
-678,451	-49,584	-0,078	-0,027
-677,437	736,363	-0,016	-0,032
-676,422	562,042	-0,030	0,054
-675,408	238,884	0,104	0,129
-674,393	-57,973	0,141	0,045
-673,378	-141,157	-0,084	-0,006
-672,364	800,000	0,037	-0,080
-671,349	-200,000	-0,039	-0,137
-670,335	-200,000	0,006	0,122
-669,320	-105,731	0,060	0,010
-668,305	-200,000	0,009	-0,065
-667,291	-200,000	-0,025	-0,089
-666,276	800,000	0,070	-0,156
-665,262	353,734	0,060	-0,089
-664,247	-130,870	-0,111	-0,011
-663,232	57,392	-0,124	-0,090
-662,218	-200,000	0,016	-0,076
-661,203	117,941	0,052	0,047
-660,189	800,000	0,002	-0,005
-659,174	-162,688	-0,145	-0,005
-658,159	91,968	-0,023	-0,019
-657,145	-97,232	-0,076	0,015
-656,130	17,351	0,091	0,054
-655,116	64,874	0,089	0,067
-654,101	22,668	0,034	-0,020
-653,086	-102,909	0,114	-0,020
-652,072	-200,000	0,018	0,145
-651,057	213,945	0,017	-0,020
-650,043	-200,000	0,014	-0,087
-649,028	-55,521	-0,029	0,010
-648,014	-200,000	-0,020	0,069
-646,999	57,562	-0,034	0,024
-645,984	174,585	-0,055	0,059
-644,970	-103,979	-0,162	0,028
-643,955	-200,000	-0,002	-0,023
-642,941	800,000	-0,028	-0,084
-641,926	541,437	-0,108	-0,191
-640,911	615,925	0,023	-0,044
-639,897	371,405	-0,059	-0,089
-638,882	105,927	-0,068	0,060
-637,868	-128,904	-0,093	0,010
-636,853	-76,066	0,101	-0,026
-635,838	-200,000	-0,005	-0,041
-634,824	341,188	-0,033	-0,048
-633,809	800,000	0,049	0,105
-632,795	92,877	-0,046	0,038
-631,780	41,789	0,031	0,021
-630,765	216,828	-0,044	0,053
-629,751	40,417	-0,092	-0,061
-628,736	737,043	-0,033	-0,065
-627,722	57,296	-0,135	-0,098
-626,707	569,668	-0,046	-0,083
-625,692	413,207	0,013	0,021
-624,678	138,402	-0,020	-0,019
-623,663	-200,000	-0,020	0,094
-622,649	-21,313	0,063	-0,029
-621,634	-107,799	-0,092	0,015
-620,619	-200,000	-0,095	-0,000
-619,605	374,260	-0,041	-0,063
-618,590	796,796	0,111	0,228
-617,576	333,960	0,052	-0,075
-616,561	-68,231	-0,093	0,027
-615,546	131,681	0,045	-0,043
-614,532	-200,000	-0,013	0,075
-613,517	94,665	0,163	0,138
-612,503	-200,000	0,004	-0,024
-611,488	60,222	-0,078	-0,057
-610,474	-200,000	-0,021	0,100
-609,459	478,307	0,056	0,095
-608,444	793,898	-0,063	-0,128
-607,430	-65,402	-0,233	-0,069
-606,415	-200,000	-0,041	-0,192
-605,401	-116,654	0,110	-0,015
-604,386	-200,000	0,018	0,081
-603,371	140,505	0,027	-0,027
-602,357	800,000	0,025	0,067
-601,342	-200,000	0,054	-0,000
-600,328	-15,879	0,017	-0,008
-599,313	-200,000	-0,004	-0,046
-598,298	-200,000	-0,004	-0,078
-597,284	-200,000	0,018	0,067
-596,269	800,000	0,036	0,085
-595,255	-200,000	-0,029	-0,117
-594,240	435,566	-0,049	-0,079
-593,225	800,000	-0,044	-0,108
-592,211	-66,825	0,039	-0,011
-591,196	782,718	-0,043	-0,087
-590,182	-87,612	0,063	0,014
-589,167	319,090	0,043	-0,061
-588,152	-200,000	0,007	0,043
-587,138	188,811	0,046	0,051
-586,123	56,811	-0,139	-0,100
-585,109	-128,670	-0,074	-0,008
-584,094	800,000	0,062	0,158
-583,079	-5,751	-0,117	-0,059
-582,065	-149,690	0,136	0,008
-581,050	-200,000	0,003	-0,112
-580,036	-200,000	0,022	-0,107
-579,021	438,155	0,024	-0,039
-578,006	-200,000	-0,018	-0,093
-576,992	-47,763	-0,111	0,040
-575,977	78,043	0,076	-0,060
-574,963	-45,987	-0,052	-0,019
-573,948	412,285	-0,043	-0,068
-572,934	-200,000	0,002	-0,023
-571,919	132,088	-0,025	0,024
-570,904	353,028	-0,075	-0,110
-569,890	43,983	-0,064	0,043
-568,875	800,000	0,039	0,091
-567,861	-10,332	0,043	0,021
-566,846	-49,884	0,068	0,024
-565,831	-88,003	-0,134	-0,029
-564,817	-200,000	-0,006	-0,034
-563,802	-11,804	0,013	0,006
-562,788	639,197	-0,011	-0,021
-561,773	-53,160	-0,083	0,028
-560,758	800,000	0,102	-0,268
-559,744	-67,763	0,067	0,019
-558,729	182,646	-0,075	0,082
-557,715	733,092	0,032	-0,063
-556,700	-200,000	-0,024	0,150
-555,685	463,356	0,084	0,140
-554,671	-46,907	0,094	-0,034
-553,656	-200,000	0,007	-0,160
-552,642	187,395	0,039	-0,043
-551,627	-200,000	-0,004	-0,063
-550,612	216,328	-0,022	-0,026
-549,598	800,000	0,034	-0,072
-548,583	-57,211	-0,105	0,034
-547,569	-92,470	-0,064	0,013
-546,554	90,436	0,160	0,132
-545,539	375,382	-0,048	0,073
-544,525	-200,000	0,006	0,087
-543,510	800,000	0,037	-0,107
-542,496	-137,441	-0,070	-0,006
-541,481	-200,000	-0,022	-0,117
-540,466	-200,000	-0,006	-0,042
-539,452	-200,000	-0,017	0,133
-538,437	-93,749	0,104	0,021
-537,423	81,194	-0,051	-0,040
-536,408	-173,834	0,023	-0,000
-535,393	648,921	-0,058	-0,110
-534,379	-194,459	0,065	-0,000
-533,364	146,436	-0,099	0,098
-532,350	-127,030	0,188	-0,020
-531,335	-11,402	0,038	0,018
-530,321	-200,000	0,007	0,081
-529,306	42,180	0,038	0,025
-528,291	-132,289	0,081	-0,008
-527,277	-119,488	-0,174	0,022
-526,262	-96,542	0,038	0,007
-525,248	-76,802	-0,111	0,028
-524,233	109,422	-0,144	0,127
-523,218	58,671	-0,186	0,134
-522,204	800,000	-0,048	0,104
-521,189	677,128	0,053	-0,102
-520,175	800,000	0,053	0,160
-519,160	-200,000	-0,019	0,101
-518,145	-115,542	0,114	-0,016
-517,131	-200,000	-0,027	0,131
-516,116	89,721	0,143	0,117
-515,102	-149,112	0,093	0,005
-514,087	195,548	-0,058	0,066
-513,072	174,308	-0,048	-0,051
-512,058	-72,065	-0,133	0,036
-511,043	-200,000	0,070	0,237
-510,029	-13,781	-0,114	0,054
-509,014	322,239	-0,098	0,137
-507,999	800,000	-0,073	0,212
-506,985	800,000	-0,014	-0,042
-505,970	324,489	-0,134	0,189
-504,956	782,543	0,080	0,163
-503,941	-200,000	-0,068	0,000
-502,926	800,000	0,034	-0,102
-501,912	92,150	-0,119	0,099
-500,897	109,872	0,064	-0,057
-499,883	179,746	-0,098	0,105
-498,868	425,761	0,079	-0,126
-497,853	338,901	-0,013	-0,018
-496,839	-12,323	-0,065	-0,031
-495,824	-200,000	0,015	0,116
-494,810	-59,845	0,059	0,018
-493,795	-141,633	-0,048	-0,004
-492,781	-53,308	-0,069	-0,023
-491,766	-49,759	-0,052	0,018
-490,751	228,977	0,141	-0,169
-489,737	92,449	-0,042	0,035
-488,722	64,735	0,053	0,040
-487,708	-200,000	-0,036	-0,160
-486,693	-200,000	0,016	-0,096
-485,678	-200,000	-0,004	-0,022
-484,664	-200,000	-0,007	0,023
-483,649	-200,000	0,019	-0,136
-482,635	-200,000	-0,050	-0,235
-481,620	-200,000	-0,017	0,073
-480,605	-9,871	-0,039	0,019
-479,591	-150,687	0,062	-0,003
-478,576	151,590	0,126	-0,127
-477,562	-200,000	-0,008	0,070
-476,547	-200,000	-0,000	0,065
-475,532	112,768	0,039	-0,034
-474,518	-35,217	0,107	0,043
-473,503	43,974	-0,072	-0,048
-472,489	-142,489	-0,090	-0,006
-471,474	-196,424	-0,055	-0,000
-470,459	-200,000	0,021	0,193
-469,445	-89,110	0,066	-0,014
-468,430	-44,869	-0,135	-0,049
-467,416	-200,000	0,013	-0,124
-466,401	192,389	0,066	-0,074
-465,386	83,469	0,122	0,098
-464,372	-200,000	-0,010	-0,080
-463,357	-200,000	-0,012	-0,059
-462,343	-66,695	-0,062	0,018
-461,328	-200,000	-0,000	-0,039
-460,313	-200,000	0,007	-0,180
-459,299	-37,595	0,049	0,019
-458,284	324,024	0,050	-0,070
-457,270	45,858	-0,078	-0,053
-456,255	800,000	-0,012	-0,033
-455,241	800,000	-0,061	-0,170
-454,226	-10,107	0,022	0,011
-453,211	800,000	0,092	-0,280
-452,197	457,678	-0,024	-0,040
-451,182	-200,000	-0,017	0,062
-450,168	-169,903	0,105	-0,003
-449,153	-200,000	0,000	0,094
-448,138	-139,677	-0,050	0,004
-447,124	-200,000	-0,010	-0,043
-446,109	-200,000	0,014	0,068
-445,095	-124,709	-0,045	-0,005
-444,080	800,000	0,054	-0,123
-443,065	-13,620	0,062	-0,029
-442,051	-119,028	-0,120	0,015
-441,036	476,857	-0,020	0,034
-440,022	583,112	-0,032	0,058
-439,007	-200,000	0,012	0,127
-437,992	-25,790	0,081	0,035
-436,978	280,342	0,060	0,079
-435,963	-25,278	0,042	0,018
-434,949	-33,380	-0,086	0,035
-433,934	-114,325	0,095	0,013
-432,919	800,000	0,022	0,066
-431,905	185,361	-0,022	-0,024
-430,890	174,495	-0,046	0,049
-429,876	83,857	-0,032	0,026
-428,861	-131,412	-0,112	-0,011
-427,846	-200,000	0,017	0,092
-426,832	76,406	-0,049	0,038
-425,817	800,000	-0,020	-0,049
-424,803	195,361	-0,010	0,011
-423,788	361,992	-0,048	0,071
-422,773	-27,344	0,083	-0,035
-421,759	358,970	0,036	-0,053
-420,744	-56,421	-0,050	-0,016
-419,730	-200,000	-0,026	0,114
-418,715	-74,224	0,021	-0,006
-417,701	-48,702	0,154	0,054
-416,686	540,488	0,052	0,091
-415,671	800,000	0,019	0,045
-414,657	-10,563	-0,085	0,041
-413,642	-200,000	-0,012	-0,080
-412,628	-9,029	-0,066	-0,033
-411,613	800,000	-0,028	0,084
-410,598	-200,000	0,054	-0,201
-409,584	-116,364	-0,096	0,013
-408,569	-29,302	-0,039	0,016
-407,555	287,314	0,094	0,125
-406,540	-32,267	-0,038	0,015
-405,525	-47,386	-0,125	0,044
-404,511	201,998	-0,108	-0,123
-403,496	89,043	-0,052	-0,043
-402,482	-200,000	0,002	-0,069
-401,467	105,917	0,062	-0,054
-400,452	81,131	-0,101	-0,080
-399,438	298,133	-0,088	0,119
-398,423	125,427	0,008	-0,008
-397,409	479,814	0,061	-0,101
-396,394	-141,378	0,061	-0,004
-395,379	800,000	0,012	0,038
-394,365	-200,000	0,002	0,090
-393,350	-16,572	-0,114	0,053
-392,336	-200,000	0,016	0,113
-391,321	-200,000	-0,029	0,122
-390,306	-90,795	-0,069	0,015
-389,292	136,727	0,044	-0,043
-388,277	359,376	0,037	0,055
-387,263	-200,000	0,007	-0,083
-386,248	-60,143	0,098	-0,031
-385,233	-200,000	0,014	0,085
-384,219	800,000	-0,047	0,146
-383,204	712,097	-0,096	-0,188
-382,190	29,082	0,073	-0,045
-381,175	-17,030	0,097	0,045
-380,160	655,425	0,015	0,028
-379,146	-13,905	-0,012	0,006
-378,131	-200,000	0,016	0,082
-377,117	-200,000	0,111	-0,000
-376,102	-200,000	0,012	-0,076
-375,088	800,000	-0,019	0,059
-374,073	-200,000	-0,023	0,142
-373,058	6,802	0,059	0,032
-372,044	-200,000	-0,004	0,108
-371,029	241,714	0,084	0,103
-370,015	800,000	0,037	0,120
-369,000	2,679	-0,038	-0,020
-367,985	800,000	0,060	-0,173
-366,971	-58,766	0,094	0,030
-365,956	4,478	-0,058	0,031
-364,942	249,437	0,083	0,104
-363,927	3,302	0,067	0,036
-362,912	435,270	0,055	0,087
-361,898	800,000	-0,050	0,104
-360,883	-200,000	-0,005	0,039
-359,869	186,166	0,077	0,084
-358,854	-200,000	0,016	-0,091
-357,839	800,000	0,076	-0,157
-356,825	429,549	0,037	-0,059
-355,810	-170,422	-0,024	-0,001
-354,796	434,595	0,026	0,042
-353,781	608,316	-0,075	-0,139
-352,766	100,201	-0,128	-0,109
-351,752	-73,503	0,043	0,012
-350,737	800,000	-0,020	-0,062
-349,723	-100,074	0,025	0,005
-348,708	-166,842	-0,091	0,003
-347,693	-37,366	-0,039	-0,015
-346,679	800,000	0,014	0,039
-345,664	52,473	0,070	-0,049
-344,650	-200,000	0,012	0,142
-343,635	-200,000	-0,024	0,205
-342,620	-200,000	0,005	0,021
-341,606	158,814	0,088	-0,090
-340,591	549,561	-0,068	-0,119
-339,577	12,888	0,095	-0,054
-338,562	-189,577	0,159	-0,001
-337,548	284,352	-0,040	0,054
-336,533	-128,128	-0,046	0,005
-335,518	151,261	-0,126	0,126
-334,504	-13,948	0,082	0,039
-333,489	800,000	0,056	0,122
-332,475	-49,893	-0,087	-0,030
-331,460	800,000	0,044	-0,111
-330,445	752,295	-0,045	-0,090
-329,431	357,078	-0,054	-0,079
-328,416	17,940	-0,113	-0,066
-327,402	302,155	-0,066	-0,090
-326,387	-27,667	-0,019	-0,008
-325,372	-200,000	0,001	0,087
-324,358	154,887	-0,029	-0,030
-323,343	-62,409	0,132	-0,040
-322,329	291,296	-0,061	0,081
-321,314	102,782	0,048	0,041
-320,299	-115,829	0,041	0,005
-319,285	229,221	-0,030	0,036
-318,270	18,356	-0,129	-0,075
-317,256	171,129	-0,062	-0,066
-316,241	52,977	-0,037	0,026
-315,226	-200,000	0,005	-0,101
-314,212	-200,000	0,011	-0,058
-313,197	-200,000	-0,030	-0,123
-312,183	314,617	-0,049	0,068
-311,168	404,659	0,025	0,039
-310,153	92,560	0,098	-0,081
-309,139	-200,000	-0,003	-0,033
-308,124	140,575	0,075	0,073
-307,110	-31,322	0,071	-0,029
-306,095	43,082	0,058	0,039
-305,080	568,678	0,038	-0,068
-304,066	-105,564	0,080	-0,013
-303,051	-47,667	-0,099	-0,035
-302,037	114,159	-0,058	-0,052
-301,022	54,357	-0,139	-0,098
-300,008	-200,000	0,007	0,112
-298,993	18,737	0,087	0,051
-297,978	500,620	0,064	0,109
-296,964	412,144	-0,004	0,006
-295,949	800,000	-0,047	-0,114
-294,935	85,104	-0,090	-0,072
-293,920	68,253	0,024	-0,018
-292,905	-200,000	-0,016	-0,089
-291,891	43,274	0,098	-0,065
-290,876	-200,000	0,011	-0,080
-289,862	379,950	0,043	0,065
-288,847	-200,000	0,011	-0,050
-287,832	-165,670	-0,063	-0,002
-286,818	-200,000	0,001	-0,033
-285,803	-63,374	-0,054	0,016
-284,789	-3,064	0,063	0,032
-283,774	-200,000	-0,036	0,126
-282,759	-23,022	0,142	-0,062
-281,745	-200,000	0,024	-0,116
-280,730	481,662	-0,044	-0,073
-279,716	381,439	-0,047	-0,070
-278,701	224,389	0,066	-0,078
-277,686	-168,515	0,110	0,003
-276,672	151,685	0,084	0,084
-275,657	800,000	0,015	0,045
-274,643	-200,000	-0,038	-0,149
-273,628	493,262	0,006	-0,010
-272,613	-43,373	-0,065	0,024
-271,599	-200,000	0,011	-0,117
-270,584	138,457	-0,068	0,065
-269,570	40,526	-0,011	-0,007
-268,555	572,741	0,022	0,039
-267,540	-46,800	-0,084	-0,030
-266,526	178,716	0,021	-0,023
-265,511	-200,000	-0,026	-0,125
-264,497	800,000	0,037	-0,080
-263,482	169,662	0,020	-0,021
-262,467	209,803	0,040	-0,046
-261,453	-147,097	-0,083	-0,005
-260,438	449,907	-0,042	-0,068
-259,424	-33,277	-0,139	0,056
-258,409	189,405	0,027	-0,030
-257,395	-62,829	0,075	0,022
-256,380	-200,000	0,154	-0,000
-255,365	-200,000	0,008	0,075
-254,351	-200,000	-0,001	0,059
-253,336	800,000	0,049	-0,105
-252,322	100,715	-0,031	-0,026
-251,307	205,948	-0,060	-0,069
-250,292	-200,000	-0,022	-0,118
-249,278	-200,000	0,035	0,152
-248,263	-30,950	0,162	0,066
-247,249	-200,000	0,002	0,050
-246,234	800,000	0,038	0,087
-245,219	-25,880	-0,036	0,015
-244,205	-20,324	-0,049	0,022
-243,190	-42,456	-0,041	0,015
-242,176	-200,000	-0,021	0,092
-241,161	-96,100	0,048	-0,009
-240,146	-33,329	0,037	0,015
-239,132	-4,280	0,099	-0,050
-238,117	-200,000	0,022	0,119
-237,103	88,902	-0,133	-0,108
-236,088	-58,670	0,099	0,031
-235,073	-200,000	0,009	0,099
-234,059	-115,383	0,081	0,011
-233,044	800,000	-0,034	-0,097
-232,030	-200,000	0,002	-0,040
-231,015	165,243	0,028	-0,029
-230,000	121,838	-0,099	-0,091
-228,986	109,710	0,052	0,045
-227,971	391,572	0,072	0,109
-226,957	-89,308	0,253	0,054
-225,942	501,434	-0,082	0,139
-224,927	21,522	-0,123	0,073
-223,913	324,119	-0,044	0,061
-222,898	-200,000	-0,025	-0,082
-221,884	-99,024	0,062	0,011
-220,869	80,237	-0,137	-0,108
-219,855	-120,444	0,111	-0,014
-218,840	57,640	0,059	0,042
-217,825	96,915	-0,062	0,052
-216,811	328,528	-0,046	-0,065
-215,796	27,693	0,096	-0,059
-214,782	-200,000	-0,005	-0,139
-213,767	72,870	0,017	-0,013
-212,752	141,249	0,115	0,111
-211,738	-106,195	0,192	0,031
-210,723	800,000	0,043	0,122
-209,709	170,823	-0,044	0,046
-208,694	-88,883	-0,085	-0,018
-207,679	-200,000	0,015	-0,126
-206,665	-42,079	0,044	0,016
-205,650	272,205	0,063	0,082
-204,636	-12,335	0,069	0,033
-203,621	60,623	0,113	0,081
-202,606	-4,173	-0,020	-0,010
-201,592	-200,000	-0,001	-0,074
-200,577	7,888	0,034	-0,019
-199,563	-200,000	0,014	-0,076
-198,548	-200,000	-0,032	0,235
-197,533	-123,951	0,113	-0,013
-196,519	20,186	0,172	-0,101
-195,504	8,744	-0,130	-0,071
-194,490	800,000	0,045	0,093
-193,475	154,465	-0,047	-0,047
-192,460	-200,000	0,009	-0,045
-191,446	296,559	0,020	-0,026
-190,431	-106,973	0,102	0,016
-189,417	-146,466	-0,096	0,006
-188,402	500,070	0,003	-0,005
-187,387	100,459	0,056	0,048
-186,373	205,266	-0,053	-0,060
-185,358	-45,637	-0,061	0,022
-184,344	-200,000	0,003	-0,029
-183,329	13,007	0,048	0,027
-182,315	143,966	-0,039	0,038
-181,300	54,020	0,146	0,102
-180,285	800,000	-0,023	0,053
-179,271	800,000	0,030	0,075
-178,256	79,379	0,074	-0,057
-177,242	-186,869	-0,115	0,001
-176,227	-181,806	0,040	-0,001
-175,212	-196,903	0,036	0,000
-174,198	-31,587	0,087	0,036
-173,183	315,578	-0,039	0,054
-172,169	-4,870	-0,098	-0,049
-171,154	-109,569	0,115	-0,018
-170,139	114,864	0,139	-0,123
-169,125	89,307	-0,075	0,061
-168,110	800,000	0,021	0,061
-167,096	187,753	0,046	-0,050
-166,081	-200,000	0,017	0,076
-165,066	800,000	0,009	0,018
-164,052	71,842	0,061	0,046
-163,037	213,906	-0,144	-0,166
-162,023	205,481	-0,037	0,042
-161,008	83,373	0,038	-0,030
-159,993	-200,000	0,026	-0,107
-158,979	-200,000	-0,039	-0,140
-157,964	-13,305	-0,130	-0,061
-156,950	437,693	-0,025	-0,039
-155,935	800,000	0,040	0,102
-154,920	800,000	-0,037	0,116
-153,906	-200,000	-0,004	0,085
-152,891	794,222	0,039	0,079
-151,877	-131,593	-0,146	-0,014
-150,862	-59,466	-0,037	0,012
-149,847	800,000	0,056	-0,115
-148,833	-125,882	-0,165	-0,018
-147,818	800,000	-0,056	0,113
-146,804	292,220	0,053	-0,071
-145,789	-90,188	0,127	-0,027
-144,775	-200,000	-0,008	0,039
-143,760	800,000	-0,007	0,021
-142,745	-200,000	0,017	-0,171
-141,731	-91,494	-0,089	-0,018
-140,716	-200,000	0,002	-0,058
-139,702	33,064	-0,119	-0,075
-138,687	526,889	-0,031	0,054
-137,672	-151,637	0,041	-0,002
-136,658	114,085	-0,071	-0,063
-135,643	185,306	0,126	-0,137
-134,629	113,656	-0,063	-0,056
-133,614	197,916	0,036	0,041
-132,599	-43,575	-0,032	0,012
-131,585	8,173	0,086	-0,047
-130,570	-80,768	-0,075	0,018
-129,556	-59,971	-0,101	0,031
-128,541	-35,883	0,099	0,039
-127,526	-22,641	-0,030	0,013
-126,512	451,048	-0,044	0,072
-125,497	445,689	-0,037	0,059
-124,483	-146,482	-0,060	-0,004
-123,468	517,533	0,048	-0,083
-122,453	118,321	0,079	-0,071
-121,439	72,700	-0,223	0,169
-120,424	800,000	-0,030	0,079
-119,410	-200,000	0,011	0,049
-118,395	113,511	0,037	-0,033
-117,380	-117,080	0,218	0,029
-116,366	464,702	0,024	0,038
-115,351	122,536	0,019	0,017
-114,337	70,127	0,033	0,025
-113,322	-200,000	-0,012	0,070
-112,307	-200,000	0,090	-0,000
-111,293	640,720	0,046	0,086
-110,278	-94,521	0,096	0,019
-109,264	-101,171	0,026	-0,005
-108,249	-200,000	-0,008	-0,055
-107,234	-1,962	-0,111	-0,056
-106,220	646,035	-0,018	-0,034
-105,205	-200,000	0,002	0,076
-104,191	-200,000	-0,010	0,125
-103,176	497,685	0,023	0,039
-102,162	-127,590	0,181	0,019
-101,147	-42,367	0,090	-0,033
-100,132	-149,160	-0,086	-0,005
-99,118	800,000	0,032	-0,075
-98,103	-200,000	-0,035	0,130
-97,089	-64,476	0,020	0,006
-96,074	8,529	0,026	-0,014
-95,059	800,000	-0,049	-0,133
-94,045	102,664	0,028	-0,024
-93,030	726,897	0,009	-0,018
-92,016	129,090	-0,086	0,079
-91,001	-200,000	0,011	-0,041
-89,986	241,882	0,071	-0,086
-88,972	-56,349	-0,100	-0,032
-87,957	-200,000	-0,016	0,057
-86,943	-90,206	-0,080	0,017
-85,928	800,000	-0,025	-0,080
-84,913	-132,962	-0,086	-0,008
-83,899	-54,213	-0,124	-0,041
-82,884	-200,000	-0,005	-0,019
-81,870	75,235	-0,030	-0,023
-80,855	-91,315	-0,043	0,009
-79,840	81,817	-0,059	0,046
-78,826	-200,000	0,007	-0,209
-77,811	-39,022	0,072	-0,027
-76,797	251,940	-0,030	0,038
-75,782	299,276	-0,094	-0,125
-74,767	307,397	0,059	0,080
-73,753	-100,194	0,061	-0,011
-72,738	-200,000	-0,037	0,128
-71,724	800,000	-0,016	-0,033
-70,709	-200,000	0,023	-0,159
-69,694	-144,582	-0,048	-0,003
-68,680	-72,511	0,095	-0,025
-67,665	515,627	-0,040	0,069
-66,651	-46,079	0,038	-0,014
-65,636	-81,517	-0,171	0,040
-64,622	-123,960	0,081	0,009
-63,607	-105,893	-0,030	-0,005
-62,592	800,000	0,037	-0,081
-61,578	-200,000	0,009	-0,062
-60,563	32,875	0,073	-0,046
-59,549	800,000	0,057	0,134
-58,534	-123,926	-1,470	-0,166
-57,519	734,199	-0,776	-1,512
-56,505	-200,000	-0,807	-4,441
-55,490	-45,928	0,671	-0,239
-54,476	800,000	4,910	11,398
-53,461	-200,000	13,844	251,007
-52,446	-200,000	689,161	2248,437
-51,432	591,568	1619,701	2909,357
-50,417	119,326	1631,618	1463,172
-49,403	74,225	1286,554	978,072
-48,388	38,204	1022,482	658,230
-47,373	24,356	980,525	585,807
-46,359	23,555	969,985	576,868
-45,344	22,587	965,814	571,209
-44,330	22,435	964,407	569,857
-43,315	22,370	962,904	568,738
-42,300	22,329	961,792	567,925
-41,286	22,309	960,967	567,348
-40,271	22,327	960,031	566,833
-39,257	22,323	958,901	566,130
-38,242	22,309	958,044	565,555
-37,227	22,310	957,278	565,084
-36,213	22,283	956,498	564,516
-35,198	22,265	955,529	563,863
-34,184	22,334	954,968	563,731
-33,169	22,285	954,014	562,989
-32,154	22,357	952,932	562,558
-31,140	22,338	952,111	561,993
-30,125	22,371	951,337	561,617
-29,111	22,354	950,464	561,027
-28,096	22,346	949,839	560,609
-27,082	22,339	949,317	560,257
-26,067	22,335	948,402	559,681
-25,052	22,397	947,576	559,370
-24,038	22,316	947,005	558,751
-23,023	22,333	946,375	558,413
-22,009	22,360	945,818	558,149
-20,994	22,379	945,265	557,861
-19,979	22,362	944,505	557,334
-18,965	22,396	943,816	557,013
-17,950	22,355	943,360	556,592
-16,936	22,290	942,649	555,943
-15,921	22,276	941,876	555,422
-14,906	22,293	941,088	554,989
-13,892	22,255	940,573	554,543
-12,877	22,258	939,814	554,084
-11,863	22,223	939,350	553,675
-10,848	22,257	938,792	553,432
-9,833	22,329	938,356	553,383
-8,819	22,318	937,705	552,941
-7,804	22,241	937,089	552,314
-6,790	22,273	936,258	551,903
-5,775	22,320	935,758	551,734
-4,760	22,243	935,166	551,119
-3,746	22,275	934,352	550,719
-2,731	22,091	933,953	549,883
-1,717	22,058	933,207	549,319
-0,702	22,096	932,423	548,955
0,313	21,860	931,816	548,683
1,327	24,379	929,298	555,046
2,342	31,864	807,740	502,677
3,356	27,060	507,814	307,829
4,371	3,274	372,279	195,566
5,386	0,230	355,139	182,833
6,400	-1,237	348,921	177,854
7,415	-2,278	346,329	175,276
8,429	-2,223	344,668	174,485
9,444	-2,276	343,703	173,918
10,459	-2,257	343,123	173,632
11,473	-2,246	342,446	173,287
12,488	-1,951	342,010	173,398
13,502	-1,767	341,519	173,350
14,517	-2,008	340,980	172,779
15,531	-2,237	340,386	172,193
16,546	-2,130	339,854	172,034
17,561	-2,209	339,541	171,768
18,575	-2,065	339,161	171,729
19,590	-2,230	338,771	171,324
20,604	-2,155	338,508	171,263
21,619	-2,260	338,126	170,932
22,634	-2,060	337,639	170,902
23,648	-2,138	337,337	170,645
24,663	-2,115	336,994	170,482
25,677	-2,228	336,797	170,237
26,692	-2,166	336,428	170,106
27,707	-2,335	336,119	169,740
28,721	-2,287	335,918	169,678
29,736	-2,133	335,496	169,628
30,750	-2,177	335,162	169,393
31,765	-2,140	334,774	169,225
32,780	-2,145	334,657	169,144
33,794	-2,131	334,287	168,959
34,809	-2,192	333,983	168,719
35,823	-2,143	333,691	168,614
36,838	-2,276	333,456	168,327
37,853	-2,227	333,208	168,243
38,867	-2,334	332,960	167,981
39,882	-2,288	332,631	167,852
40,896	-2,347	332,298	167,602
41,911	-2,338	332,193	167,544
42,926	-2,197	331,779	167,482
43,940	-2,230	331,466	167,270
44,955	-2,292	331,093	166,997
45,969	-2,406	331,069	166,840
46,984	-2,469	330,699	166,568
47,999	-2,728	330,536	166,177
49,013	-2,799	330,082	165,853
50,028	-2,839	329,863	165,684
51,042	-2,972	329,534	165,353
52,057	-2,917	329,048	165,157
53,071	-2,927	329,031	165,122
54,086	-2,759	328,791	165,176
55,101	-2,663	328,486	165,116
56,115	-2,481	328,454	165,290
57,130	-2,104	328,212	165,578
58,144	-2,143	327,968	165,397
59,159	-2,085	327,667	165,295
60,174	-2,106	327,615	165,231
61,188	-1,971	327,279	165,197
62,203	-2,132	326,997	164,861
63,217	-2,274	326,922	164,648
64,232	-2,101	326,580	164,655
65,247	-1,996	326,148	164,540
66,261	-2,093	325,896	164,290
67,276	-2,251	325,506	163,903
68,290	-2,441	325,406	163,626
69,305	-2,418	325,046	163,456
70,320	-2,471	324,786	163,252
71,334	-2,386	324,717	163,297
72,349	-1,975	324,523	163,641
73,363	-2,048	324,271	163,419
74,378	-2,111	323,956	163,175
75,393	-1,966	323,567	163,126
76,407	-2,153	323,592	162,917
77,422	-2,242	323,186	162,599
78,436	-2,004	322,807	162,657
79,451	-2,165	322,802	162,462
80,466	-2,172	322,465	162,271
81,480	-2,318	322,067	161,894
82,495	-2,474	321,957	161,653
83,509	-2,464	321,748	161,545
84,524	-2,389	321,373	161,424
85,539	-2,592	321,072	161,035
86,553	-2,406	320,996	161,188
87,568	-2,415	320,569	160,949
88,582	-2,430	320,501	160,884
89,597	-2,543	320,221	160,606
90,611	-2,313	320,097	160,781
91,626	-2,190	319,882	160,793
92,641	-2,194	319,780	160,723
93,655	-2,331	319,422	160,379
94,670	-2,384	319,151	160,171
95,684	-2,270	318,793	160,101
96,699	-2,256	318,694	160,053
97,714	-2,288	318,334	159,823
98,728	-2,385	318,109	159,590
99,743	-2,471	317,813	159,334
100,757	-2,613	317,538	159,027
101,772	-2,488	317,481	159,120
102,787	-2,540	317,237	158,928
103,801	-2,363	316,878	158,926
104,816	-2,242	316,825	159,015
105,830	-2,301	316,759	158,904
106,845	-2,226	316,404	158,793
107,860	-2,132	316,160	158,757
108,874	-2,204	315,856	158,513
109,889	-2,200	315,637	158,394
110,903	-2,404	315,438	158,060
111,918	-2,481	315,169	157,829
112,933	-2,352	315,144	157,940
113,947	-2,139	314,742	157,954
114,962	-2,227	314,623	157,786
115,976	-2,255	314,383	157,621
116,991	-2,267	314,130	157,468
118,006	-2,435	314,051	157,233
119,020	-2,218	313,733	157,293
120,035	-2,091	313,556	157,325
121,049	-2,040	313,310	157,243
122,064	-2,299	313,352	156,973
123,079	-2,329	312,892	156,696
124,093	-2,155	312,632	156,738
125,108	-2,378	312,339	156,339
126,122	-2,614	312,183	155,997
127,137	-2,652	311,664	155,682
128,151	-2,665	311,627	155,636
129,166	-2,649	311,454	155,554
130,181	-2,614	311,192	155,446
131,195	-2,668	311,020	155,288
132,210	-2,394	310,774	155,442
133,224	-2,239	310,570	155,490
134,239	-2,139	310,328	155,461
135,254	-2,340	310,295	155,218
136,268	-2,464	309,922	154,886
137,283	-2,499	309,579	154,665
138,297	-2,679	309,341	154,343
139,312	-2,557	309,060	154,317
140,327	-2,453	309,154	154,459
141,341	-2,020	308,974	154,811
142,356	-2,203	308,887	154,561
143,370	-1,896	308,557	154,705
144,385	-2,008	308,320	154,455
145,400	-1,994	308,026	154,309
146,414	-1,931	307,810	154,252
147,429	-1,907	307,594	154,156
148,443	-1,942	307,523	154,069
149,458	-2,068	307,313	153,818
150,473	-1,949	306,924	153,735
151,487	-1,942	306,819	153,676
152,502	-2,063	306,693	153,473
153,516	-2,049	306,540	153,397
154,531	-1,883	306,259	153,415
155,546	-1,932	305,912	153,177
156,560	-2,071	305,715	152,920
157,575	-2,209	305,397	152,604
158,589	-2,145	305,254	152,586
159,604	-2,033	305,033	152,578
160,619	-1,873	304,786	152,606
161,633	-2,006	304,617	152,371
162,648	-1,838	304,441	152,442
163,662	-2,048	304,281	152,132
164,677	-2,017	304,081	152,050
165,692	-1,882	303,894	152,082
166,706	-2,011	303,732	151,855
167,721	-2,038	303,520	151,707
168,735	-2,030	303,347	151,615
169,750	-2,000	303,159	151,539
170,764	-1,859	303,111	151,647
171,779	-1,658	302,876	151,722
172,794	-1,841	302,614	151,389
173,808	-1,985	302,473	151,157
174,823	-2,352	302,057	150,560
175,837	-2,612	301,802	150,153
176,852	-2,108	301,685	150,597
177,867	-1,863	301,600	150,792
178,881	-2,023	301,372	150,501
179,896	-1,809	301,229	150,635
180,910	-1,724	300,997	150,592
181,925	-1,919	300,874	150,318
182,940	-1,720	300,567	150,354
183,954	-1,714	300,379	150,253
184,969	-1,995	300,179	149,854
185,983	-2,058	299,952	149,663
186,998	-1,914	299,813	149,726
188,013	-1,859	299,627	149,676
189,027	-1,775	299,495	149,682
190,042	-2,017	299,152	149,252
191,056	-1,888	299,095	149,340
192,071	-1,713	298,692	149,304
193,086	-1,675	298,574	149,269
194,100	-1,596	298,343	149,221
195,115	-1,840	298,162	148,870
196,129	-1,859	297,975	148,745
197,144	-1,944	297,645	148,481
198,159	-1,580	297,461	148,743
199,173	-1,719	297,166	148,442
200,188	-1,754	297,175	148,398
201,202	-1,939	296,800	148,012
202,217	-2,468	296,484	147,310
203,232	-2,383	296,154	147,218
204,246	-2,153	296,153	147,435
205,261	-1,893	296,141	147,676
206,275	-1,728	295,855	147,686
207,290	-1,822	295,826	147,564
208,304	-1,744	295,501	147,466
209,319	-1,779	295,164	147,250
210,334	-1,778	295,119	147,216
211,348	-1,822	294,824	147,012
212,363	-1,835	294,592	146,870
213,377	-1,677	294,446	146,941
214,392	-1,829	294,283	146,696
215,407	-2,162	294,047	146,234
216,421	-2,187	293,749	146,048
217,436	-2,263	293,491	145,831
218,450	-2,076	293,474	145,996
219,465	-2,047	293,232	145,891
220,480	-2,019	293,234	145,906
221,494	-2,106	292,925	145,653
222,509	-2,045	292,698	145,588
223,523	-1,788	292,640	145,800
224,538	-1,906	292,465	145,584
225,553	-1,800	292,291	145,588
226,567	-1,611	292,117	145,675
227,582	-1,765	291,954	145,429
228,596	-1,719	291,778	145,374
229,611	-1,641	291,504	145,301
230,626	-1,747	291,289	145,077
231,640	-2,152	291,005	144,525
232,655	-2,302	290,615	144,171
233,669	-2,394	290,391	143,956
234,684	-2,478	290,318	143,825
235,699	-2,271	290,098	143,906
236,713	-2,363	289,931	143,720
237,728	-2,119	289,718	143,841
238,742	-2,250	289,721	143,701
239,757	-2,007	289,530	143,831
240,772	-1,987	289,345	143,745
241,786	-1,961	289,060	143,617
242,801	-2,177	288,918	143,323
243,815	-2,149	288,689	143,223
244,830	-2,133	288,583	143,174
245,844	-1,991	288,187	143,103
246,859	-2,038	288,082	142,992
247,874	-2,114	287,893	142,812
248,888	-2,163	287,788	142,700
249,903	-2,187	287,832	142,686
250,917	-1,940	287,565	142,780
251,932	-1,825	287,490	142,841
252,947	-1,248	287,458	143,371
253,961	-1,678	286,891	142,659
254,976	-0,926	287,535	143,696
255,990	1,946	288,275	146,837
257,005	2,524	288,385	147,439
258,020	3,917	288,737	148,956
259,034	4,228	288,550	149,147
260,049	4,071	288,250	148,827
261,063	3,850	288,100	148,524
262,078	4,094	287,960	148,673
263,093	4,695	287,942	149,231
264,107	4,548	287,884	149,046
265,122	4,651	287,789	149,083
266,136	4,840	287,654	149,182
267,151	4,805	287,380	148,992
268,166	4,582	287,161	148,651
269,180	4,577	286,904	148,500
270,195	4,635	286,725	148,450
271,209	4,609	286,567	148,330
272,224	4,402	286,300	147,979
273,239	4,370	286,068	147,816
274,253	4,416	285,934	147,778
275,268	4,841	286,012	148,212
276,282	4,825	285,685	148,014
277,297	4,612	285,466	147,684
278,312	4,938	285,384	147,939
279,326	4,787	285,184	147,679
280,341	4,449	284,883	147,187
281,355	4,420	284,741	147,073
282,370	4,309	284,648	146,906
283,384	4,445	284,326	146,856
284,399	4,494	284,159	146,803
285,414	4,420	284,044	146,661
286,428	4,345	283,827	146,464
287,443	4,200	283,538	146,164
288,457	4,000	283,193	145,784
289,472	4,166	283,120	145,891
290,487	4,132	282,957	145,761
291,501	4,052	282,626	145,503
292,516	3,872	282,441	145,224
293,530	4,049	282,221	145,265
294,545	4,206	282,217	145,398
295,560	4,285	282,043	145,370
296,574	3,970	281,919	144,997
297,589	4,282	281,802	145,217
298,603	4,659	281,720	145,516
299,618	4,477	281,532	145,236
300,633	4,519	281,215	145,099
301,647	4,288	281,197	144,859
302,662	4,423	280,860	144,799
303,676	4,344	280,617	144,587
304,691	3,966	280,406	144,111
305,706	3,942	280,104	143,921
306,720	3,958	279,864	143,800
307,735	3,754	279,852	143,590
308,749	3,987	279,779	143,758
309,764	4,113	279,570	143,755
310,779	3,983	279,298	143,481
311,793	3,885	279,058	143,254
312,808	3,917	278,760	143,119
313,822	3,940	278,651	143,071
314,837	3,774	278,548	142,851
315,852	3,696	278,312	142,644
316,866	3,841	278,105	142,660
317,881	3,948	278,107	142,747
318,895	3,861	277,715	142,453
319,910	3,833	277,443	142,275
320,925	3,724	277,450	142,165
321,939	3,931	277,343	142,289
322,954	4,070	277,166	142,314
323,968	3,986	277,075	142,177
324,983	4,094	276,717	142,080
325,997	3,950	276,759	141,957
327,012	4,261	276,552	142,124
328,027	4,168	276,383	141,939
329,041	4,296	276,051	141,874
330,056	4,164	276,066	141,748
331,070	4,153	275,856	141,616
332,085	4,035	275,586	141,357
333,100	4,016	275,486	141,275
334,114	4,222	275,207	141,309
335,129	3,939	274,934	140,897
336,143	4,069	274,932	141,002
337,158	4,562	274,771	141,359
338,173	4,269	274,619	140,999
339,187	4,074	274,404	140,698
340,202	4,142	274,243	140,666
341,216	4,267	274,011	140,648
342,231	4,013	273,966	140,381
343,246	4,189	273,639	140,360
344,260	4,120	273,451	140,189
345,275	4,143	273,441	140,192
346,289	4,451	273,368	140,423
347,304	4,410	273,268	140,322
348,319	4,190	272,868	139,904
349,333	4,200	272,684	139,806
350,348	4,410	272,732	140,009
351,362	4,547	272,297	139,897
352,377	4,417	272,269	139,753
353,392	4,452	272,067	139,668
354,406	4,622	271,924	139,736
355,421	191,659	1331,743	1410,276
356,435	154,825	1460,969	1410,403
