DTS Sentinel unit serial number:	SN410029Multiplexer serial number:	ORYXHardware model number:	OX2-SRSoftware version number:	ORYX F/W v4,00 Oryx Data Collector v3.7.2.0data status	okinstallation	B4 Nyhavnadifferential loss correction	single-endedforward channel	channel 2reverse channel	N/Adate	2023/12/16time	00:05:13forward acquisition time	300,00reverse acquisition time	0,00gamma	499,1914k internal	0,3127k external	0,3127temperature offset calibration	1,0000default loss term (dB/km)	0,3820temperature slope calibration	1,0000multiplexer offset coefficient	1,0000multiplexer slope coefficient	1,0000fibre end	0,00T internal ref (°C)	21,88T ext. ref 1 (°C)	6,76T ext. ref 2 (°C)	6,91length (m)	temperature (°C)	Stokes	anti-Stokes-744,400	48,709	-0,067	-0,047
-743,385	-78,645	-0,141	0,036
-742,371	-35,614	0,057	0,023
-741,356	800,000	-0,064	0,188
-740,342	71,969	0,123	-0,095
-739,327	-100,861	-0,329	0,060
-738,312	-27,054	0,037	0,016
-737,298	-12,807	-0,177	0,085
-736,283	-7,084	0,049	0,025
-735,269	-58,748	-0,236	0,076
-734,254	800,000	0,019	-0,052
-733,239	-88,852	-0,434	-0,095
-732,225	-75,466	0,142	-0,037
-731,210	-16,907	-0,045	0,021
-730,196	-8,648	-0,141	-0,070
-729,181	-200,000	0,040	-0,157
-728,167	-101,074	-0,055	0,010
-727,152	-96,746	0,115	-0,022
-726,137	-16,579	-0,210	-0,099
-725,123	800,000	-0,045	-0,103
-724,108	669,347	-0,046	-0,089
-723,094	207,620	-0,092	-0,107
-722,079	-151,887	-0,119	-0,006
-721,064	-47,606	0,061	-0,022
-720,050	-200,000	0,019	-0,135
-719,035	800,000	0,026	0,065
-718,021	104,954	-0,076	-0,067
-717,006	446,179	-0,039	-0,064
-715,991	-200,000	-0,013	-0,179
-714,977	180,599	-0,118	-0,129
-713,962	20,909	0,054	0,033
-712,948	45,087	-0,127	-0,087
-711,933	-147,701	-0,049	0,003
-710,918	800,000	0,030	-0,068
-709,904	-49,329	-0,099	0,035
-708,889	484,227	0,084	-0,142
-707,875	341,183	-0,106	-0,154
-706,860	104,962	-0,094	0,082
-705,845	52,227	-0,095	-0,068
-704,831	81,878	-0,043	-0,035
-703,816	-55,444	-0,079	0,026
-702,802	161,511	-0,044	-0,045
-701,787	93,948	-0,181	-0,152
-700,772	362,537	-0,075	-0,113
-699,758	-200,000	0,009	0,062
-698,743	-16,320	0,150	0,070
-697,729	334,011	0,013	-0,018
-696,714	304,310	-0,041	0,057
-695,699	142,710	0,026	0,025
-694,685	52,065	-0,072	-0,051
-693,670	45,363	-0,144	-0,098
-692,656	-200,000	0,049	-0,164
-691,641	-200,000	0,016	0,098
-690,627	800,000	0,037	-0,079
-689,612	-138,555	-0,001	-0,000
-688,597	800,000	-0,051	-0,156
-687,583	140,284	-0,134	-0,131
-686,568	-48,879	-0,142	-0,050
-685,554	-40,063	-0,067	-0,026
-684,539	-150,977	-0,017	0,001
-683,524	-81,416	-0,068	0,017
-682,510	-37,813	0,106	0,042
-681,495	-86,394	-0,141	-0,032
-680,481	800,000	-0,022	0,070
-679,466	24,249	-0,043	-0,026
-678,451	-200,000	-0,018	0,139
-677,437	-200,000	0,054	-0,185
-676,422	44,553	-0,062	-0,042
-675,408	-200,000	0,005	0,092
-674,393	119,920	-0,108	-0,100
-673,378	68,662	0,112	-0,086
-672,364	649,536	-0,050	-0,095
-671,349	-200,000	-0,009	-0,036
-670,335	-41,940	-0,051	-0,019
-669,320	-200,000	-0,002	-0,027
-668,305	800,000	-0,066	-0,157
-667,291	-200,000	0,018	-0,061
-666,276	12,540	-0,129	-0,074
-665,262	-200,000	-0,025	-0,093
-664,247	355,924	0,056	-0,083
-663,232	171,800	-0,117	-0,125
-662,218	25,821	-0,082	0,051
-661,203	-200,000	0,005	-0,063
-660,189	591,017	-0,027	-0,050
-659,174	240,456	-0,149	-0,185
-658,159	-140,311	-0,139	-0,011
-657,145	-63,858	-0,079	0,024
-656,130	64,302	-0,104	-0,077
-655,116	-187,860	-0,045	0,000
-654,101	-200,000	-0,003	0,022
-653,086	-200,000	0,032	0,135
-652,072	172,382	0,072	-0,076
-651,057	62,572	-0,033	0,024
-650,043	-136,805	0,100	0,008
-649,028	82,406	0,098	-0,079
-648,014	-108,272	-0,046	0,007
-646,999	-200,000	0,009	0,179
-645,984	-69,188	0,047	0,013
-644,970	362,811	0,031	0,046
-643,955	169,784	-0,143	-0,151
-642,941	-153,205	0,146	-0,007
-641,926	-200,000	-0,001	0,062
-640,911	259,216	0,061	-0,078
-639,897	-11,616	-0,108	-0,053
-638,882	-200,000	-0,018	-0,062
-637,868	800,000	0,038	-0,099
-636,853	-200,000	0,020	-0,105
-635,838	484,988	-0,023	0,039
-634,824	800,000	-0,010	0,031
-633,809	-200,000	-0,007	0,042
-632,795	800,000	-0,026	0,064
-631,780	800,000	-0,004	-0,013
-630,765	-200,000	-0,007	0,036
-629,751	35,296	-0,018	-0,011
-628,736	300,752	-0,122	-0,168
-627,722	-106,150	0,040	-0,007
-626,707	-3,975	0,077	-0,039
-625,692	-200,000	-0,005	-0,054
-624,678	-83,947	0,166	0,039
-623,663	-126,738	0,028	0,003
-622,649	800,000	-0,022	0,047
-621,634	238,118	-0,121	-0,149
-620,619	800,000	-0,044	-0,094
-619,605	53,495	-0,054	0,038
-618,590	-8,844	0,135	0,067
-617,576	-112,002	0,048	-0,007
-616,561	75,167	0,084	-0,066
-615,546	-51,473	-0,060	-0,021
-614,532	582,570	-0,039	0,071
-613,517	800,000	-0,028	0,076
-612,503	-97,214	0,147	0,028
-611,488	105,143	-0,035	-0,030
-610,474	-167,945	0,019	-0,001
-609,459	372,125	0,071	-0,107
-608,444	26,931	-0,062	0,039
-607,430	54,409	-0,048	-0,034
-606,415	-42,615	-0,028	0,011
-605,401	-152,245	-0,188	0,010
-604,386	-200,000	-0,010	0,081
-603,371	45,470	0,078	0,053
-602,357	-200,000	-0,014	-0,067
-601,342	-200,000	-0,010	-0,126
-600,328	431,676	0,027	-0,044
-599,313	-131,022	-0,056	-0,005
-598,298	-28,790	0,036	-0,015
-597,284	-36,610	0,115	0,045
-596,269	-92,295	0,082	0,017
-595,255	-92,740	-0,134	0,028
-594,240	-87,187	0,053	-0,012
-593,225	302,159	0,024	-0,034
-592,211	200,149	-0,107	-0,122
-591,196	494,681	0,059	-0,101
-590,182	369,223	-0,066	-0,100
-589,167	195,995	-0,087	-0,098
-588,152	-53,097	0,064	-0,021
-587,138	-200,000	-0,002	-0,050
-586,123	96,962	-0,103	0,087
-585,109	-155,541	0,026	-0,001
-584,094	270,247	0,113	-0,147
-583,079	97,238	0,090	0,076
-582,065	-78,462	-0,120	0,030
-581,050	-78,515	-0,061	0,015
-580,036	213,497	-0,076	-0,089
-579,021	-200,000	0,045	-0,161
-578,006	-200,000	-0,029	-0,124
-576,992	-127,674	-0,079	-0,008
-575,977	-200,000	0,033	-0,132
-574,963	195,595	0,061	0,069
-573,948	800,000	0,026	0,057
-572,934	-142,109	-0,074	0,005
-571,919	37,454	-0,125	-0,082
-570,904	-200,000	0,021	-0,159
-569,890	800,000	0,026	0,057
-568,875	-200,000	-0,006	0,085
-567,861	-200,000	0,000	0,113
-566,846	129,125	0,053	0,050
-565,831	134,403	-0,122	-0,117
-564,817	-200,000	-0,003	0,082
-563,802	44,841	-0,134	0,091
-562,788	236,376	-0,026	0,032
-561,773	56,565	0,094	0,067
-560,758	-41,494	0,135	0,051
-559,744	32,698	-0,102	-0,065
-558,729	800,000	0,034	0,073
-557,715	-36,142	0,041	-0,016
-556,700	-200,000	0,014	-0,099
-555,685	-136,202	-0,060	-0,005
-554,671	733,045	0,029	0,058
-553,656	78,590	0,081	-0,064
-552,642	645,484	-0,102	0,193
-551,627	-20,354	0,116	0,052
-550,612	-124,138	0,108	0,012
-549,598	214,472	0,062	-0,073
-548,583	-200,000	-0,021	-0,129
-547,569	323,323	0,057	-0,081
-546,554	422,881	0,073	0,117
-545,539	800,000	-0,013	0,027
-544,525	34,521	0,013	0,008
-543,510	800,000	0,022	-0,051
-542,496	-26,684	-0,137	-0,059
-541,481	-59,911	-0,032	0,010
-540,466	-72,331	0,046	0,012
-539,452	-200,000	0,006	0,079
-538,437	16,220	0,077	0,045
-537,423	-200,000	0,030	0,111
-536,408	800,000	0,024	-0,078
-535,393	55,947	0,060	-0,043
-534,379	-200,000	-0,002	-0,078
-533,364	800,000	0,016	-0,034
-532,350	386,541	-0,058	0,089
-531,335	154,828	-0,027	-0,028
-530,321	-200,000	-0,004	0,147
-529,306	-200,000	0,022	-0,111
-528,291	445,580	0,080	-0,130
-527,277	281,480	-0,138	-0,183
-526,262	800,000	0,009	-0,020
-525,248	800,000	-0,033	0,075
-524,233	334,619	0,053	0,076
-523,218	212,604	0,120	0,140
-522,204	-105,581	0,153	-0,025
-521,189	-200,000	0,009	-0,058
-520,175	-10,092	0,054	-0,026
-519,160	800,000	0,023	-0,046
-518,145	-200,000	-0,001	-0,042
-517,131	-200,000	-0,018	-0,092
-516,116	-200,000	0,140	0,000
-515,102	-8,127	-0,131	0,065
-514,087	51,054	-0,061	0,043
-513,072	-200,000	0,012	-0,070
-512,058	-136,269	0,058	0,005
-511,043	93,756	-0,055	0,046
-510,029	-200,000	0,012	0,096
-509,014	121,903	0,107	-0,099
-507,999	800,000	-0,043	0,092
-506,985	5,252	-0,048	0,026
-505,970	-59,584	-0,103	0,032
-504,956	-12,271	-0,083	-0,040
-503,941	318,536	0,083	0,116
-502,926	-17,726	0,151	0,069
-501,912	-200,000	-0,002	0,019
-500,897	109,315	0,122	-0,108
-499,883	800,000	-0,054	0,116
-498,868	-200,000	-0,005	0,107
-497,853	-44,460	0,029	-0,011
-496,839	1,996	0,089	-0,047
-495,824	-20,540	0,026	0,012
-494,810	-102,699	-0,120	-0,021
-493,795	800,000	0,006	-0,017
-492,781	429,097	-0,060	-0,097
-491,766	-200,000	0,011	-0,067
-490,751	-67,319	-0,087	0,025
-489,737	-200,000	-0,007	0,086
-488,722	-200,000	0,011	0,183
-487,708	585,393	-0,032	0,058
-486,693	-200,000	-0,008	0,088
-485,678	145,720	-0,042	-0,042
-484,664	70,668	-0,091	-0,069
-483,649	358,860	0,042	-0,062
-482,635	-200,000	0,023	-0,085
-481,620	-73,217	0,102	-0,027
-480,605	291,304	0,089	0,120
-479,591	-200,000	0,010	0,070
-478,576	6,000	-0,055	0,030
-477,562	479,482	0,044	-0,074
-476,547	-117,053	-0,085	-0,011
-475,532	-149,510	0,067	0,004
-474,518	-143,009	0,051	-0,004
-473,503	-200,000	0,006	-0,108
-472,489	-200,000	-0,100	-0,000
-471,474	-96,036	0,150	0,029
-470,459	-152,596	-0,090	-0,005
-469,445	-111,729	-0,062	-0,009
-468,430	432,136	-0,014	0,022
-467,416	103,018	0,046	0,040
-466,401	673,367	-0,043	0,083
-465,386	124,103	0,143	0,132
-464,372	800,000	-0,018	-0,038
-463,357	-85,911	-0,103	-0,023
-462,343	141,258	0,050	-0,049
-461,328	178,389	-0,073	-0,078
-460,313	-200,000	0,023	-0,106
-459,299	226,955	0,070	0,084
-458,284	-200,000	0,034	0,202
-457,270	365,516	-0,106	0,157
-456,255	-127,394	0,014	-0,002
-455,241	800,000	-0,009	0,028
-454,226	631,256	0,020	0,037
-453,211	252,029	0,046	-0,057
-452,197	115,297	0,088	0,079
-451,182	25,947	-0,129	0,079
-450,168	-28,079	0,023	0,010
-449,153	-80,504	-0,040	-0,010
-448,138	-40,962	-0,161	0,061
-447,124	169,435	0,022	0,023
-446,109	498,222	0,043	0,072
-445,095	197,635	0,014	-0,016
-444,080	178,710	-0,032	-0,035
-443,065	-41,804	0,116	0,044
-442,051	-97,682	0,017	-0,003
-441,036	663,324	0,024	0,045
-440,022	-132,880	0,103	0,009
-439,007	447,176	0,084	-0,136
-437,992	-200,000	0,000	-0,055
-436,978	645,091	-0,022	0,041
-435,963	-22,763	-0,057	0,025
-434,949	-45,819	-0,112	-0,040
-433,934	276,226	0,038	0,049
-432,919	-200,000	0,013	-0,071
-431,905	-200,000	-0,006	-0,043
-430,890	-200,000	0,003	0,010
-429,876	800,000	0,023	0,064
-428,861	557,613	0,029	0,052
-427,846	-181,717	-0,148	0,002
-426,832	-74,464	0,098	0,026
-425,817	-81,864	-0,118	-0,028
-424,803	-111,193	-0,103	-0,015
-423,788	-200,000	0,006	-0,026
-422,773	-5,633	0,011	-0,006
-421,759	751,292	-0,024	0,049
-420,744	-200,000	0,038	-0,190
-419,730	70,755	-0,017	0,013
-418,715	-4,597	0,067	0,034
-417,701	800,000	-0,058	0,126
-416,686	126,912	0,036	0,033
-415,671	800,000	0,027	0,061
-414,657	-94,380	0,161	-0,032
-413,642	800,000	-0,002	0,005
-412,628	79,412	-0,035	0,027
-411,613	-28,692	-0,113	-0,048
-410,598	800,000	0,032	-0,087
-409,584	-75,460	0,067	0,017
-408,569	800,000	0,039	-0,100
-407,555	-200,000	0,005	-0,029
-406,540	410,126	-0,006	-0,009
-405,525	82,294	-0,023	0,019
-404,511	-200,000	-0,021	-0,102
-403,496	80,557	-0,047	0,037
-402,482	59,105	-0,041	0,030
-401,467	-95,220	-0,053	0,010
-400,452	386,675	0,029	0,045
-399,438	325,579	0,128	0,181
-398,423	-200,000	0,019	-0,081
-397,409	422,209	-0,055	-0,086
-396,394	-200,000	0,007	-0,223
-395,379	495,743	-0,046	0,078
-394,365	-55,316	0,100	-0,033
-393,350	1,526	0,091	-0,048
-392,336	404,299	0,052	0,081
-391,321	201,527	-0,041	-0,046
-390,306	-35,877	-0,049	0,019
-389,292	222,665	-0,092	0,109
-388,277	-99,748	0,065	0,012
-387,263	172,456	-0,088	0,093
-386,248	141,755	0,026	0,025
-385,233	113,421	-0,101	-0,090
-384,219	-200,000	-0,040	0,139
-383,204	-200,000	-0,026	-0,094
-382,190	176,789	0,088	-0,094
-381,175	-200,000	0,015	0,132
-380,160	-200,000	0,005	0,025
-379,146	414,686	-0,035	0,055
-378,131	-49,200	0,030	0,011
-377,117	-200,000	0,015	-0,052
-376,102	289,104	-0,098	-0,131
-375,088	-45,235	0,104	-0,038
-374,073	-61,168	0,015	0,005
-373,058	800,000	-0,019	-0,053
-372,044	-59,450	0,077	0,024
-371,029	-89,926	0,052	0,011
-370,015	102,577	0,121	-0,104
-369,000	-66,355	-0,201	-0,058
-367,985	-200,000	0,020	-0,134
-366,971	398,245	-0,048	-0,074
-365,956	800,000	-0,020	-0,061
-364,942	-36,981	0,166	-0,065
-363,927	22,219	-0,134	0,080
-362,912	346,061	0,031	-0,044
-361,898	-200,000	0,008	-0,060
-360,883	400,205	0,046	-0,071
-359,869	-200,000	0,009	0,032
-358,854	-102,705	0,075	0,013
-357,839	38,631	0,093	0,060
-356,825	672,286	-0,030	-0,058
-355,810	99,175	-0,107	0,090
-354,796	-200,000	0,015	-0,064
-353,781	800,000	0,028	-0,074
-352,766	161,991	-0,058	-0,059
-351,752	-183,610	0,041	0,001
-350,737	118,996	0,054	0,049
-349,723	681,781	0,035	0,068
-348,708	-200,000	-0,018	0,208
-347,693	-101,472	-0,165	-0,029
-346,679	800,000	0,009	0,027
-345,664	-15,882	-0,093	-0,043
-344,650	-128,375	-0,057	-0,006
-343,635	-107,118	-0,074	-0,012
-342,620	74,544	0,104	-0,080
-341,606	-200,000	0,012	0,055
-340,591	173,819	-0,055	-0,058
-339,577	-142,260	-0,135	-0,010
-338,562	13,391	-0,059	-0,033
-337,548	-200,000	0,018	-0,072
-336,533	-200,000	0,018	-0,106
-335,518	-200,000	0,013	0,118
-334,504	93,022	-0,050	0,042
-333,489	800,000	-0,040	-0,096
-332,475	800,000	0,022	-0,063
-331,460	-21,490	0,107	0,047
-330,445	800,000	-0,032	0,083
-329,431	683,724	0,017	-0,033
-328,416	-50,072	0,121	-0,042
-327,402	-123,417	-0,073	0,008
-326,387	-99,952	-0,096	-0,017
-325,372	-200,000	0,015	-0,112
-324,358	-170,157	-0,022	-0,001
-323,343	800,000	-0,012	-0,030
-322,329	-25,923	0,109	0,047
-321,314	-200,000	0,013	0,094
-320,299	800,000	0,029	-0,079
-319,285	-163,357	0,068	0,002
-318,270	158,795	0,025	-0,026
-317,256	-174,837	0,041	0,001
-316,241	-200,000	-0,030	0,120
-315,226	800,000	-0,054	0,145
-314,212	-200,000	0,016	0,072
-313,197	-115,643	0,183	0,025
-312,183	613,684	0,017	0,032
-311,168	-200,000	0,002	0,151
-310,153	88,147	0,103	-0,084
-309,139	-69,675	-0,035	-0,010
-308,124	-165,093	0,197	-0,006
-307,110	423,524	0,014	0,023
-306,095	222,788	-0,027	-0,032
-305,080	174,834	-0,036	0,038
-304,066	-193,954	0,038	-0,000
-303,051	-129,032	-0,048	0,005
-302,037	800,000	0,036	0,105
-301,022	454,263	0,053	0,087
-300,008	461,207	-0,024	0,040
-298,993	800,000	-0,026	-0,084
-297,978	214,274	-0,069	0,080
-296,964	-47,475	0,011	0,004
-295,949	334,721	-0,103	-0,146
-294,935	112,638	-0,092	-0,082
-293,920	800,000	-0,050	-0,114
-292,905	-55,992	-0,188	0,061
-291,891	-200,000	0,013	0,072
-290,876	218,763	-0,037	0,044
-289,862	-200,000	-0,014	0,053
-288,847	125,971	-0,086	0,080
-287,832	-200,000	-0,007	-0,084
-286,818	385,060	-0,022	-0,033
-285,803	800,000	-0,013	0,032
-284,789	267,372	0,074	0,095
-283,774	-54,034	-0,090	0,030
-282,759	-200,000	0,001	-0,059
-281,745	39,546	-0,107	0,070
-280,730	54,364	-0,087	0,061
-279,716	-200,000	0,004	0,075
-278,701	800,000	0,015	0,038
-277,686	800,000	0,048	-0,108
-276,672	162,018	0,044	-0,045
-275,657	-200,000	0,007	-0,109
-274,643	-200,000	-0,017	0,137
-273,628	131,415	-0,116	-0,109
-272,613	-200,000	-0,005	-0,058
-271,599	54,710	0,129	0,091
-270,584	259,825	0,128	0,162
-269,570	-200,000	0,006	0,121
-268,555	-112,610	-0,030	-0,004
-267,540	-200,000	-0,013	-0,117
-266,526	298,341	0,022	-0,030
-265,511	-55,078	0,015	-0,005
-264,497	-200,000	0,042	-0,164
-263,482	-62,738	0,105	-0,032
-262,467	202,191	-0,129	0,146
-261,453	-200,000	0,013	-0,136
-260,438	-6,054	-0,052	-0,026
-259,424	-76,079	-0,237	-0,061
-258,409	361,420	-0,072	-0,106
-257,395	-200,000	0,010	-0,098
-256,380	800,000	-0,061	0,129
-255,365	-48,420	0,057	0,020
-254,351	-120,420	-0,105	-0,013
-253,336	-30,486	-0,014	-0,006
-252,322	385,406	0,075	-0,113
-251,307	-200,000	-0,004	-0,184
-250,292	-200,000	-0,005	-0,020
-249,278	800,000	0,033	0,085
-248,263	-61,214	-0,047	-0,014
-247,249	-161,771	-0,053	-0,002
-246,234	790,755	0,046	-0,093
-245,219	-200,000	0,049	-0,000
-244,205	70,390	-0,008	0,006
-243,190	233,170	0,112	0,135
-242,176	-104,310	0,090	-0,015
-241,161	-69,608	0,075	0,021
-240,146	-26,389	-0,079	0,034
-239,132	-200,000	-0,003	-0,043
-238,117	800,000	-0,035	-0,077
-237,103	37,004	0,050	0,032
-236,088	59,771	0,076	-0,055
-235,073	800,000	0,048	0,145
-234,059	800,000	0,047	0,118
-233,044	-200,000	0,010	0,057
-232,030	-167,636	0,067	0,002
-231,015	800,000	-0,025	-0,068
-230,000	164,752	-0,168	-0,174
-228,986	582,700	0,064	-0,116
-227,971	68,262	0,028	0,021
-226,957	-200,000	0,002	0,113
-225,942	239,862	-0,070	0,085
-224,927	800,000	0,029	-0,069
-223,913	-200,000	0,002	-0,027
-222,898	91,584	-0,096	-0,079
-221,884	-200,000	0,050	-0,257
-220,869	113,471	-0,010	-0,008
-219,855	800,000	-0,021	0,055
-218,840	368,124	0,107	0,159
-217,825	-129,601	-0,097	-0,010
-216,811	800,000	0,033	-0,084
-215,796	-200,000	-0,004	-0,128
-214,782	-200,000	-0,025	-0,125
-213,767	472,928	-0,066	0,109
-212,752	276,887	0,092	0,120
-211,738	-86,023	-0,226	0,051
-210,723	9,933	0,056	0,031
-209,709	-200,000	0,007	-0,036
-208,694	-200,000	-0,005	0,053
-207,679	-165,362	0,073	-0,002
-206,665	18,102	0,090	0,052
-205,650	256,652	0,049	0,062
-204,636	-46,946	-0,086	-0,031
-203,621	-36,770	-0,113	-0,044
-202,606	-64,959	-0,041	0,012
-201,592	-150,737	-0,113	-0,006
-200,577	-73,916	0,040	0,011
-199,563	97,329	-0,130	0,109
-198,548	-200,000	0,003	-0,074
-197,533	51,433	0,076	0,053
-196,519	800,000	0,023	0,067
-195,504	-101,013	0,109	-0,019
-194,490	171,167	-0,093	0,098
-193,475	800,000	0,028	0,076
-192,460	-47,115	0,049	-0,017
-191,446	89,819	0,102	-0,083
-190,431	-200,000	0,006	0,167
-189,417	800,000	-0,029	0,063
-188,402	-17,240	-0,147	0,067
-187,387	77,278	-0,121	0,094
-186,373	-200,000	0,013	0,062
-185,358	39,228	0,076	0,050
-184,344	508,726	0,020	0,034
-183,329	195,050	-0,072	-0,080
-182,315	-200,000	0,016	-0,065
-181,300	73,399	0,081	0,062
-180,285	-28,668	-0,143	0,059
-179,271	311,609	0,056	0,076
-178,256	14,082	0,088	-0,050
-177,242	304,451	-0,028	0,038
-176,227	-200,000	0,015	0,060
-175,212	41,988	-0,065	-0,043
-174,198	-117,714	0,100	-0,013
-173,183	385,989	0,052	0,078
-172,169	-200,000	-0,006	0,024
-171,154	-200,000	-0,017	-0,071
-170,139	154,695	-0,105	0,106
-169,125	-171,356	0,033	-0,001
-168,110	-42,376	-0,068	0,025
-167,096	15,798	0,078	0,045
-166,081	600,548	-0,063	0,114
-165,066	89,477	0,023	0,019
-164,052	67,928	-0,054	0,040
-163,037	105,586	0,096	0,083
-162,023	800,000	0,057	0,155
-161,008	-200,000	0,011	0,049
-159,993	800,000	0,049	0,102
-158,979	-174,263	-0,124	0,003
-157,964	-200,000	0,045	-0,206
-156,950	800,000	-0,025	-0,066
-155,935	165,751	-0,050	-0,051
-154,920	-36,804	0,028	0,011
-153,906	549,134	0,018	-0,032
-152,891	-200,000	-0,002	-0,159
-151,877	272,686	-0,051	0,066
-150,862	-200,000	0,002	0,075
-149,847	422,313	0,098	-0,154
-148,833	-200,000	0,024	0,117
-147,818	68,677	0,113	0,084
-146,804	800,000	0,012	-0,031
-145,789	65,454	0,136	0,100
-144,775	-200,000	0,010	-0,085
-143,760	232,197	0,052	0,062
-142,745	-184,733	-0,089	-0,001
-141,731	265,739	0,100	0,128
-140,716	73,648	0,036	-0,027
-139,702	153,576	0,028	0,028
-138,687	160,593	0,066	0,067
-137,672	-92,122	0,079	-0,016
-136,658	63,879	-0,073	-0,053
-135,643	800,000	0,013	-0,026
-134,629	108,399	-0,115	-0,099
-133,614	-82,568	0,119	0,028
-132,599	47,851	0,096	-0,065
-131,585	-106,682	-0,053	-0,009
-130,570	-63,335	0,092	0,027
-129,556	-200,000	-0,008	0,026
-128,541	158,653	-0,081	-0,082
-127,526	-181,078	0,190	0,003
-126,512	-200,000	0,006	-0,078
-125,497	-124,528	0,093	-0,010
-124,483	-200,000	-0,024	-0,169
-123,468	638,714	0,018	-0,034
-122,453	-75,967	0,182	0,046
-121,439	17,559	-0,059	-0,034
-120,424	-107,803	-0,144	0,023
-119,410	-200,000	-0,044	0,240
-118,395	-200,000	0,060	0,210
-117,380	800,000	-0,040	0,103
-116,366	800,000	0,073	-0,148
-115,351	-200,000	-0,039	-0,148
-114,337	-16,929	-0,124	-0,057
-113,322	-109,647	0,227	0,034
-112,307	183,309	-0,173	0,185
-111,293	-76,922	-0,100	-0,025
-110,278	-200,000	0,001	0,021
-109,264	-200,000	-0,014	0,082
-108,249	88,102	-0,008	0,007
-107,234	-200,000	-0,012	-0,115
-106,220	137,734	0,050	0,047
-105,205	587,584	0,062	0,110
-104,191	800,000	-0,005	-0,012
-103,176	-200,000	-0,000	0,014
-102,162	-47,576	-0,096	0,034
-101,147	193,337	-0,019	-0,021
-100,132	800,000	-0,036	-0,075
-99,118	-7,529	0,036	0,017
-98,103	800,000	-0,016	0,038
-97,089	800,000	0,055	0,151
-96,074	-127,572	0,066	0,007
-95,059	391,491	-0,038	-0,058
-94,045	-18,859	-0,088	0,040
-93,030	45,000	-0,141	0,094
-92,016	54,884	-0,109	-0,077
-91,001	-154,857	0,046	-0,002
-89,986	800,000	0,053	0,124
-88,972	135,144	0,032	0,030
-87,957	-200,000	0,008	-0,110
-86,943	-200,000	0,017	-0,057
-85,928	491,030	0,027	-0,045
-84,913	436,610	0,056	-0,089
-83,899	202,002	-0,073	0,081
-82,884	-70,206	0,098	-0,027
-81,870	13,684	-0,050	0,028
-80,855	800,000	0,039	0,106
-79,840	-162,402	0,056	-0,002
-78,826	800,000	-0,027	0,072
-77,811	3,061	-0,118	-0,062
-76,797	-6,180	0,042	0,021
-75,782	380,734	-0,052	0,078
-74,767	-102,629	0,112	-0,019
-73,753	-67,046	-0,086	-0,024
-72,738	-114,000	-0,092	0,013
-71,724	62,674	-0,062	-0,045
-70,709	-60,644	0,200	-0,061
-69,694	-200,000	0,033	-0,144
-68,680	-113,387	0,054	-0,008
-67,665	-200,000	0,000	0,004
-66,651	-68,243	-0,128	0,036
-65,636	-119,564	0,052	0,006
-64,622	-29,843	-0,065	0,027
-63,607	93,338	0,076	0,063
-62,592	340,097	0,050	-0,071
-61,578	182,877	-0,064	-0,069
-60,563	-65,544	0,166	-0,048
-59,549	174,269	0,056	-0,059
-58,534	-122,354	-1,377	-0,161
-57,519	678,527	-0,766	-1,450
-56,505	-200,000	-0,976	-4,323
-55,490	16,978	0,635	-0,364
-54,476	800,000	4,762	11,533
-53,461	-200,000	14,025	249,988
-52,446	-200,000	691,489	2234,051
-51,432	581,709	1619,446	2889,434
-50,417	117,778	1628,853	1453,274
-49,403	73,516	1283,732	973,006
-48,388	37,660	1020,472	655,060
-47,373	23,941	978,676	583,298
-46,359	23,153	968,026	574,358
-45,344	22,087	963,947	568,446
-44,330	22,107	962,289	567,511
-43,315	21,940	961,141	566,268
-42,300	21,961	959,911	565,588
-41,286	21,943	958,941	564,938
-40,271	21,912	958,113	564,325
-39,257	21,970	956,973	563,819
-38,242	21,922	956,127	563,144
-37,227	21,912	955,336	562,625
-36,213	21,867	954,551	561,993
-35,198	21,899	953,477	561,443
-34,184	21,896	952,943	561,097
-33,169	21,884	952,096	560,536
-32,154	21,895	951,271	560,063
-31,140	21,928	950,194	559,512
-30,125	22,014	949,486	559,350
-29,111	21,855	948,931	558,492
-28,096	21,895	947,992	558,044
-27,082	21,960	947,401	557,883
-26,067	21,904	946,492	557,147
-25,052	21,883	945,746	556,618
-24,038	21,955	945,159	556,479
-23,023	21,961	944,530	556,107
-22,009	21,933	943,950	555,654
-20,994	21,926	943,389	555,281
-19,979	21,947	942,586	554,851
-18,965	21,890	941,944	554,271
-17,950	21,935	941,292	554,006
-16,936	21,846	940,674	553,341
-15,921	21,837	940,104	552,955
-14,906	21,813	939,208	552,328
-13,892	21,790	938,763	551,972
-12,877	21,835	938,011	551,651
-11,863	21,763	937,448	551,069
-10,848	21,812	936,936	550,904
-9,833	21,881	936,492	550,836
-8,819	21,851	936,071	550,473
-7,804	21,838	935,147	549,865
-6,790	21,847	934,506	549,496
-5,775	21,890	933,979	549,301
-4,760	21,808	933,400	548,680
-3,746	21,851	932,649	548,351
-2,731	21,665	932,189	547,475
-1,717	21,588	931,549	546,835
-0,702	21,643	930,617	546,439
0,313	21,439	930,045	546,287
1,327	23,996	927,801	552,924
2,342	31,873	806,062	501,628
3,356	27,004	506,998	307,221
4,371	2,690	371,838	194,579
5,386	-0,417	354,894	181,906
6,400	-1,987	348,392	176,675
7,415	-2,926	345,651	174,152
8,429	-3,074	344,070	173,164
9,444	-3,031	343,107	172,715
10,459	-3,175	342,518	172,234
11,473	-3,138	341,815	171,908
12,488	-2,958	341,572	171,983
13,502	-2,793	340,836	171,790
14,517	-3,011	340,369	171,284
15,531	-3,209	339,750	170,725
16,546	-3,116	339,298	170,592
17,561	-3,270	338,921	170,208
18,575	-3,319	338,623	169,986
19,590	-3,234	338,173	169,843
20,604	-3,117	337,763	169,758
21,619	-3,129	337,537	169,615
22,634	-3,109	337,051	169,380
23,648	-3,141	336,672	169,136
24,663	-3,223	336,321	168,851
25,677	-3,180	336,133	168,791
26,692	-3,139	335,705	168,609
27,707	-3,170	335,487	168,448
28,721	-3,222	335,074	168,166
29,736	-3,297	334,770	167,912
30,750	-3,172	334,518	167,914
31,765	-3,298	334,193	167,592
32,780	-3,187	333,957	167,585
33,794	-3,145	333,676	167,478
34,809	-3,193	333,428	167,283
35,823	-3,192	333,058	167,084
36,838	-3,170	332,824	166,977
37,853	-3,209	332,627	166,819
38,867	-3,183	332,166	166,602
39,882	-3,256	331,961	166,401
40,896	-3,262	331,786	166,292
41,911	-3,349	331,443	166,006
42,926	-3,256	330,978	165,864
43,940	-3,260	330,895	165,803
44,955	-3,307	330,415	165,495
45,969	-3,256	330,330	165,495
46,984	-3,332	330,058	165,258
47,999	-3,686	329,831	164,728
49,013	-3,653	329,715	164,693
50,028	-3,650	329,059	164,354
51,042	-3,797	329,117	164,202
52,057	-3,819	328,620	163,915
53,071	-3,723	328,374	163,886
54,086	-3,652	328,057	163,793
55,101	-3,618	327,796	163,686
56,115	-3,572	327,730	163,691
57,130	-3,279	327,637	163,960
58,144	-3,067	327,178	163,952
59,159	-3,116	327,090	163,839
60,174	-3,098	326,869	163,733
61,188	-3,077	326,604	163,610
62,203	-3,193	326,323	163,324
63,217	-3,074	326,118	163,340
64,232	-3,197	325,745	163,002
65,247	-3,070	325,728	163,121
66,261	-3,093	325,314	162,873
67,276	-3,238	324,928	162,504
68,290	-3,337	324,818	162,324
69,305	-3,293	324,378	162,139
70,320	-3,421	324,193	161,889
71,334	-3,298	323,911	161,870
72,349	-2,967	323,733	162,134
73,363	-2,993	323,505	161,977
74,378	-3,100	323,251	161,717
75,393	-3,272	323,025	161,399
76,407	-3,076	322,791	161,484
77,422	-3,072	322,416	161,287
78,436	-3,142	322,277	161,126
79,451	-3,131	322,026	160,999
80,466	-3,229	321,625	160,676
81,480	-3,381	321,478	160,421
82,495	-3,344	321,098	160,257
83,509	-3,336	320,942	160,173
84,524	-3,262	320,570	160,055
85,539	-3,284	320,493	159,978
86,553	-3,369	320,214	159,732
87,568	-3,376	319,959	159,583
88,582	-3,388	319,587	159,370
89,597	-3,455	319,620	159,298
90,611	-3,286	319,395	159,356
91,626	-3,206	319,201	159,333
92,641	-3,254	318,933	159,133
93,655	-3,242	318,686	159,008
94,670	-3,450	318,482	158,666
95,684	-3,484	318,233	158,491
96,699	-3,363	317,940	158,462
97,714	-3,343	317,754	158,377
98,728	-3,327	317,512	158,259
99,743	-3,353	317,043	157,984
100,757	-3,395	316,796	157,801
101,772	-3,550	316,748	157,595
102,787	-3,359	316,573	157,700
103,801	-3,322	316,365	157,622
104,816	-3,359	316,115	157,445
105,830	-3,099	315,999	157,653
106,845	-3,179	315,764	157,436
107,860	-3,127	315,362	157,277
108,874	-3,248	315,278	157,091
109,889	-3,219	314,987	156,962
110,903	-3,342	314,748	156,698
111,918	-3,280	314,506	156,629
112,933	-3,270	314,369	156,559
113,947	-3,187	313,961	156,430
114,962	-3,118	313,793	156,407
115,976	-3,313	313,682	156,128
116,991	-3,369	313,356	155,893
118,006	-3,363	313,250	155,833
119,020	-3,255	313,004	155,812
120,035	-3,238	313,029	155,828
121,049	-3,238	312,629	155,615
122,064	-3,166	312,336	155,533
123,079	-3,300	312,264	155,340
124,093	-3,307	311,894	155,134
125,108	-3,316	311,614	154,971
126,122	-3,414	311,403	154,748
127,137	-3,392	311,227	154,671
128,151	-3,458	311,175	154,561
129,166	-3,411	310,898	154,459
130,181	-3,253	310,584	154,457
131,195	-3,538	310,204	153,954
132,210	-3,331	310,159	154,136
133,224	-3,188	309,764	154,076
134,239	-3,187	309,770	154,067
135,254	-3,133	309,449	153,950
136,268	-3,143	309,349	153,876
137,283	-3,395	308,978	153,412
138,297	-3,344	308,656	153,294
139,312	-3,469	308,543	153,092
140,327	-3,268	308,368	153,202
141,341	-3,049	308,189	153,330
142,356	-3,000	307,966	153,257
143,370	-2,966	307,789	153,190
144,385	-2,953	307,630	153,111
145,400	-3,009	307,343	152,896
146,414	-2,958	307,182	152,856
147,429	-3,010	307,029	152,712
148,443	-3,012	306,871	152,617
149,458	-2,872	306,572	152,601
150,473	-2,921	306,468	152,484
151,487	-3,007	306,170	152,233
152,502	-2,967	305,865	152,110
153,516	-3,196	305,748	151,799
154,531	-2,969	305,526	151,912
155,546	-2,903	305,204	151,807
156,560	-3,132	305,077	151,493
157,575	-3,180	304,714	151,249
158,589	-3,151	304,517	151,167
159,604	-3,052	304,311	151,155
160,619	-2,953	304,102	151,139
161,633	-3,037	304,056	151,016
162,648	-3,008	303,920	150,964
163,662	-2,885	303,632	150,935
164,677	-3,192	303,544	150,562
165,692	-3,045	303,331	150,594
166,706	-3,034	303,275	150,564
167,721	-3,020	302,938	150,398
168,735	-2,979	302,759	150,338
169,750	-3,024	302,569	150,184
170,764	-2,888	302,434	150,243
171,779	-2,867	302,192	150,131
172,794	-2,874	301,849	149,940
173,808	-2,952	301,733	149,789
174,823	-3,289	301,362	149,246
175,837	-3,316	301,094	149,072
176,852	-3,267	301,052	149,089
177,867	-2,959	300,939	149,335
178,881	-2,774	300,670	149,376
179,896	-2,874	300,547	149,200
180,910	-2,958	300,285	148,971
181,925	-2,726	300,107	149,105
182,940	-2,890	299,902	148,823
183,954	-2,836	299,613	148,721
184,969	-2,839	299,514	148,656
185,983	-2,972	299,371	148,437
186,998	-2,857	299,069	148,390
188,013	-3,026	298,944	148,144
189,027	-2,938	298,651	148,075
190,042	-2,808	298,414	148,075
191,056	-2,855	298,283	147,950
192,071	-2,842	298,270	147,943
193,086	-2,702	298,051	147,963
194,100	-2,898	297,764	147,609
195,115	-2,863	297,594	147,548
196,129	-2,829	297,194	147,370
197,144	-2,772	297,011	147,324
198,159	-2,601	296,718	147,337
199,173	-2,916	296,565	146,932
200,188	-2,720	296,444	147,056
201,202	-3,057	296,312	146,639
202,217	-3,189	295,966	146,322
203,232	-3,111	295,552	146,182
204,246	-3,151	295,471	146,089
205,261	-3,013	295,474	146,216
206,275	-2,926	295,265	146,187
207,290	-2,881	294,986	146,080
208,304	-3,033	294,960	145,902
209,319	-2,960	294,574	145,771
210,334	-3,088	294,496	145,592
211,348	-2,783	294,058	145,666
212,363	-2,776	293,938	145,601
213,377	-2,770	293,846	145,547
214,392	-2,926	293,634	145,274
215,407	-2,961	293,258	145,042
216,421	-3,132	293,336	144,897
217,436	-3,080	292,918	144,729
218,450	-3,202	292,792	144,533
219,465	-3,081	292,662	144,576
220,480	-2,967	292,364	144,529
221,494	-2,990	292,270	144,446
222,509	-3,161	292,074	144,168
223,523	-2,987	291,921	144,251
224,538	-2,873	291,764	144,273
225,553	-3,004	291,580	144,040
226,567	-2,952	291,552	144,065
227,582	-2,984	291,352	143,922
228,596	-2,659	290,936	144,022
229,611	-2,641	290,917	144,018
230,626	-2,752	290,701	143,789
231,640	-2,905	290,160	143,359
232,655	-3,317	289,990	142,859
233,669	-3,476	289,837	142,616
234,684	-3,274	289,728	142,747
235,699	-3,117	289,541	142,795
236,713	-3,123	289,396	142,704
237,728	-3,030	289,198	142,685
238,742	-3,180	289,034	142,445
239,757	-3,026	288,971	142,552
240,772	-2,923	288,703	142,507
241,786	-3,075	288,615	142,303
242,801	-3,027	288,316	142,190
243,815	-2,931	288,135	142,181
244,830	-3,075	288,039	141,980
245,844	-3,147	287,982	141,870
246,859	-3,125	287,651	141,715
247,874	-3,140	287,458	141,594
248,888	-3,006	287,262	141,615
249,903	-2,999	287,049	141,504
250,917	-2,753	286,879	141,644
251,932	-2,616	286,783	141,717
252,947	-2,198	286,901	142,167
253,961	-2,382	286,568	141,812
254,976	-1,477	286,994	142,885
255,990	1,377	287,727	145,999
257,005	2,011	287,975	146,725
258,020	3,385	288,329	148,223
259,034	3,419	288,309	148,232
260,049	3,412	287,843	147,973
261,063	3,076	287,717	147,570
262,078	3,301	287,735	147,784
263,093	4,005	287,670	148,416
264,107	3,885	287,597	148,250
265,122	3,970	287,423	148,229
266,136	4,047	287,309	148,231
267,151	4,158	286,922	148,124
268,166	3,997	286,790	147,888
269,180	3,962	286,594	147,741
270,195	4,004	286,437	147,687
271,209	4,111	286,165	147,637
272,224	4,136	285,852	147,486
273,239	3,684	285,760	146,992
274,253	3,872	285,415	146,981
275,268	4,015	285,451	147,123
276,282	3,883	285,339	146,926
277,297	4,060	285,169	146,995
278,312	4,629	285,058	147,468
279,326	4,387	284,857	147,120
280,341	4,047	284,634	146,668
281,355	3,963	284,202	146,351
282,370	3,808	284,095	146,136
283,384	3,823	283,886	146,030
284,399	3,905	283,784	146,042
285,414	3,739	283,544	145,748
286,428	3,893	283,317	145,764
287,443	3,505	283,113	145,279
288,457	3,536	282,955	145,214
289,472	3,569	282,681	145,092
290,487	3,452	282,596	144,925
291,501	3,396	282,258	144,685
292,516	3,247	281,990	144,395
293,530	3,273	281,905	144,363
294,545	3,575	281,874	144,618
295,560	3,895	281,736	144,837
296,574	3,741	281,313	144,461
297,589	3,715	281,445	144,492
298,603	4,075	281,292	144,739
299,618	3,946	281,067	144,490
300,633	3,826	280,685	144,168
301,647	3,719	280,719	144,071
302,662	3,785	280,471	143,993
303,676	3,615	280,189	143,677
304,691	3,406	279,859	143,298
305,706	3,262	279,583	143,010
306,720	3,266	279,444	142,930
307,735	3,094	279,372	142,720
308,749	3,221	279,365	142,823
309,764	3,649	279,043	143,043
310,779	3,473	278,847	142,767
311,793	3,213	278,712	142,443
312,808	3,185	278,492	142,291
313,822	3,509	278,190	142,426
314,837	3,242	278,094	142,116
315,852	3,048	277,811	141,779
316,866	3,113	277,637	141,737
317,881	3,186	277,608	141,778
318,895	3,291	277,296	141,702
319,910	3,058	277,146	141,398
320,925	3,117	276,919	141,324
321,939	3,322	276,810	141,446
322,954	3,421	276,740	141,488
323,968	3,236	276,617	141,242
324,983	3,420	276,406	141,291
325,997	3,572	276,373	141,402
327,012	3,622	275,972	141,230
328,027	3,635	275,838	141,161
329,041	3,350	275,646	140,788
330,056	3,529	275,561	140,897
331,070	3,339	275,369	140,612
332,085	3,225	275,201	140,408
333,100	3,574	274,882	140,553
334,114	3,512	274,545	140,311
335,129	3,253	274,535	140,057
336,143	3,528	274,451	140,253
337,158	3,822	274,415	140,491
338,173	3,618	274,222	140,193
339,187	3,475	273,935	139,904
340,202	3,466	273,813	139,820
341,216	3,508	273,704	139,791
342,231	3,523	273,524	139,700
343,246	3,367	273,319	139,441
344,260	3,525	273,039	139,430
345,275	3,538	273,051	139,435
346,289	3,929	272,996	139,749
347,304	3,975	272,636	139,595
348,319	3,725	272,508	139,290
349,333	3,554	272,285	139,008
350,348	3,938	272,176	139,288
351,362	3,843	272,071	139,136
352,377	3,924	271,795	139,055
353,392	3,858	271,699	138,934
354,406	4,015	271,401	138,912
355,421	191,421	1330,716	1408,336
356,435	154,611	1459,870	1408,443
