DTS Sentinel unit serial number:	SN410029Multiplexer serial number:	ORYXHardware model number:	OX2-SRSoftware version number:	ORYX F/W v4,00 Oryx Data Collector v3.7.2.0data status	okinstallation	B4 Nyhavnadifferential loss correction	single-endedforward channel	channel 2reverse channel	N/Adate	2023/12/19time	11:55:14forward acquisition time	300,00reverse acquisition time	0,00gamma	499,1914k internal	0,3127k external	0,3127temperature offset calibration	1,0000default loss term (dB/km)	0,3820temperature slope calibration	1,0000multiplexer offset coefficient	1,0000multiplexer slope coefficient	1,0000fibre end	0,00T internal ref (°C)	19,68T ext. ref 1 (°C)	4,47T ext. ref 2 (°C)	4,42length (m)	temperature (°C)	Stokes	anti-Stokes-744,400	-101,776	0,148	-0,026
-743,385	-86,684	-0,282	0,064
-742,371	474,038	0,093	-0,157
-741,356	88,383	-0,202	0,167
-740,342	-200,000	-0,006	0,099
-739,327	-177,187	-0,350	0,006
-738,312	54,531	0,124	-0,089
-737,298	-48,230	-0,276	0,099
-736,283	800,000	-0,007	-0,017
-735,269	-106,428	-0,261	-0,043
-734,254	630,942	-0,039	-0,074
-733,239	-126,080	-0,460	-0,051
-732,225	-19,845	0,073	-0,033
-731,210	-158,696	0,095	0,004
-730,196	237,797	0,051	0,064
-729,181	-137,907	-0,100	0,008
-728,167	30,151	-0,063	0,040
-727,152	-80,662	0,062	-0,015
-726,137	176,338	-0,047	0,051
-725,123	-97,179	-0,116	-0,022
-724,108	26,174	-0,086	-0,053
-723,094	800,000	-0,032	-0,071
-722,079	-200,000	0,002	-0,158
-721,064	171,449	0,054	-0,057
-720,050	379,907	-0,040	0,061
-719,035	536,723	0,036	0,064
-718,021	-200,000	-0,014	-0,135
-717,006	67,134	-0,042	-0,032
-715,991	636,660	-0,076	-0,143
-714,977	800,000	-0,024	-0,072
-713,962	-200,000	-0,027	-0,110
-712,948	-69,811	0,107	-0,030
-711,933	-12,379	-0,037	-0,018
-710,918	-200,000	0,010	-0,080
-709,904	-185,051	-0,179	-0,002
-708,889	212,973	-0,135	-0,159
-707,875	52,987	-0,038	-0,027
-706,860	-200,000	-0,003	-0,026
-705,845	-68,617	0,014	-0,004
-704,831	-200,000	-0,135	0,000
-703,816	-200,000	0,005	0,084
-702,802	565,023	0,033	-0,060
-701,787	-162,466	-0,129	0,005
-700,772	63,504	-0,025	-0,019
-699,758	-200,000	-0,009	-0,046
-698,743	-113,884	0,064	-0,009
-697,729	246,668	0,012	0,015
-696,714	-200,000	-0,009	0,066
-695,699	-200,000	0,011	-0,078
-694,685	-108,490	0,069	0,011
-693,670	128,796	-0,115	-0,109
-692,656	19,270	-0,076	-0,045
-691,641	142,134	0,079	0,078
-690,627	-126,724	-0,276	-0,030
-689,612	126,255	0,110	0,103
-688,597	-55,061	-0,068	0,023
-687,583	-200,000	0,002	-0,173
-686,568	-200,000	0,022	-0,105
-685,554	16,694	-0,174	-0,102
-684,539	-200,000	0,002	0,053
-683,524	-200,000	0,018	-0,101
-682,510	-98,303	0,116	-0,022
-681,495	52,238	-0,068	-0,048
-680,481	-200,000	-0,041	-0,192
-679,466	308,544	0,095	-0,133
-678,451	-15,674	-0,143	-0,068
-677,437	-70,273	-0,080	0,022
-676,422	-167,199	-0,096	-0,003
-675,408	-51,511	0,095	0,033
-674,393	-48,903	-0,074	0,026
-673,378	-116,601	-0,141	0,019
-672,364	-27,104	0,105	-0,045
-671,349	-14,742	-0,105	-0,050
-670,335	-200,000	-0,013	-0,055
-669,320	18,074	-0,023	-0,014
-668,305	-23,258	0,051	-0,023
-667,291	-157,469	-0,106	-0,005
-666,276	800,000	0,062	-0,137
-665,262	-200,000	0,002	-0,078
-664,247	-200,000	-0,002	-0,091
-663,232	282,327	0,060	-0,080
-662,218	3,967	0,041	0,022
-661,203	-132,555	-0,044	0,004
-660,189	-13,874	-0,112	-0,053
-659,174	248,201	0,099	-0,124
-658,159	113,094	-0,120	-0,108
-657,145	-6,557	-0,032	-0,016
-656,130	-200,000	-0,004	-0,101
-655,116	-41,095	-0,047	-0,018
-654,101	69,673	0,031	0,024
-653,086	354,460	-0,094	0,139
-652,072	-51,315	0,054	0,019
-651,057	215,923	-0,110	-0,130
-650,043	110,196	-0,062	-0,055
-649,028	253,303	-0,048	-0,061
-648,014	167,556	-0,031	-0,032
-646,999	-200,000	0,002	0,088
-645,984	-85,450	-0,026	0,006
-644,970	78,663	-0,063	0,050
-643,955	800,000	-0,013	0,041
-642,941	7,499	-0,080	-0,044
-641,926	-200,000	0,013	-0,047
-640,911	72,551	0,096	-0,074
-639,897	66,204	-0,074	-0,056
-638,882	800,000	-0,039	0,114
-637,868	31,244	-0,085	0,054
-636,853	-84,655	0,132	-0,031
-635,838	629,932	-0,067	0,126
-634,824	313,293	0,069	0,097
-633,809	171,338	-0,041	-0,044
-632,795	-101,845	-0,098	0,017
-631,780	-171,322	0,055	-0,001
-630,765	-98,563	-0,111	0,021
-629,751	478,639	-0,094	-0,159
-628,736	353,798	0,061	-0,091
-627,722	187,815	-0,054	0,060
-626,707	49,155	-0,056	-0,039
-625,692	-35,837	0,087	-0,035
-624,678	800,000	-0,051	0,110
-623,663	76,657	-0,060	-0,047
-622,649	21,745	-0,055	0,033
-621,634	-141,435	-0,096	0,007
-620,619	87,488	0,058	-0,048
-619,605	-25,985	-0,150	-0,065
-618,590	112,618	-0,052	-0,047
-617,576	800,000	-0,015	-0,041
-616,561	260,786	-0,104	0,133
-615,546	323,930	0,021	0,030
-614,532	-200,000	-0,008	-0,073
-613,517	-200,000	0,004	-0,065
-612,503	800,000	0,110	-0,257
-611,488	367,010	0,041	0,061
-610,474	-143,848	0,150	-0,010
-609,459	800,000	0,022	-0,062
-608,444	356,052	0,022	-0,032
-607,430	-115,468	0,033	0,005
-606,415	501,249	0,039	-0,067
-605,401	-8,548	0,142	-0,070
-604,386	-200,000	-0,002	0,107
-603,371	-200,000	-0,008	0,111
-602,357	11,277	0,109	0,062
-601,342	-200,000	-0,013	0,074
-600,328	439,034	-0,023	-0,037
-599,313	482,192	0,038	-0,064
-598,298	-200,000	0,003	-0,014
-597,284	76,404	0,065	-0,051
-596,269	26,571	0,070	0,044
-595,255	315,653	0,070	0,098
-594,240	-119,765	-0,019	0,002
-593,225	84,831	-0,124	-0,101
-592,211	-138,646	-0,061	-0,005
-591,196	122,194	0,029	-0,026
-590,182	2,815	0,156	0,083
-589,167	-110,501	-0,118	-0,018
-588,152	-200,000	0,007	-0,047
-587,138	207,180	0,057	0,065
-586,123	-66,527	-0,135	0,039
-585,109	-180,505	-0,067	-0,001
-584,094	-200,000	-0,025	0,124
-583,079	-47,112	0,189	0,068
-582,065	-28,664	0,077	-0,033
-581,050	-87,918	0,011	0,002
-580,036	35,786	-0,089	-0,058
-579,021	-33,951	-0,092	0,037
-578,006	-200,000	-0,014	-0,067
-576,992	-200,000	-0,011	-0,072
-575,977	564,781	0,065	0,116
-574,963	440,316	0,079	0,127
-573,948	-65,921	0,065	0,019
-572,934	-200,000	-0,011	0,198
-571,919	749,116	-0,030	0,061
-570,904	-50,892	-0,024	-0,008
-569,890	323,487	-0,077	-0,109
-568,875	-30,284	0,060	0,025
-567,861	197,409	0,090	-0,102
-566,846	-200,000	0,014	0,147
-565,831	-118,229	0,070	-0,009
-564,817	147,743	-0,104	0,103
-563,802	51,290	-0,106	0,074
-562,788	-200,000	0,018	-0,064
-561,773	-200,000	-0,000	-0,009
-560,758	130,315	-0,028	0,027
-559,744	-135,917	0,088	-0,008
-558,729	-167,586	0,076	-0,002
-557,715	-200,000	0,006	-0,042
-556,700	-200,000	0,006	0,043
-555,685	284,082	-0,078	-0,104
-554,671	-29,419	-0,033	-0,014
-553,656	-99,558	0,086	-0,016
-552,642	-200,000	-0,001	0,136
-551,627	-56,186	-0,077	-0,025
-550,612	-3,972	-0,132	-0,067
-549,598	-200,000	-0,016	0,057
-548,583	-43,554	0,102	0,038
-547,569	50,258	0,088	-0,061
-546,554	-142,936	-0,056	-0,004
-545,539	-90,244	0,154	-0,033
-544,525	24,981	-0,151	0,092
-543,510	-38,969	-0,138	-0,054
-542,496	28,752	-0,103	0,064
-541,481	-113,645	0,090	-0,013
-540,466	-112,397	0,037	-0,005
-539,452	-33,958	0,074	-0,030
-538,437	515,330	-0,040	0,069
-537,423	210,484	0,059	0,068
-536,408	-110,569	-0,121	0,018
-535,393	800,000	-0,077	-0,161
-534,379	800,000	0,065	-0,187
-533,364	-26,796	-0,179	0,077
-532,350	800,000	0,041	0,132
-531,335	321,393	-0,058	0,081
-530,321	-200,000	-0,016	-0,072
-529,306	-200,000	0,012	0,000
-528,291	-197,859	0,133	-0,001
-527,277	-131,611	-0,263	0,025
-526,262	-76,803	0,067	-0,017
-525,248	391,298	0,094	0,144
-524,233	-28,791	0,115	0,049
-523,218	123,833	-0,107	-0,099
-522,204	151,151	0,008	0,008
-521,189	-200,000	0,009	0,043
-520,175	-136,338	-0,081	-0,007
-519,160	-200,000	0,019	0,098
-518,145	-200,000	0,028	-0,096
-517,131	-28,705	0,085	0,036
-516,116	-200,000	0,003	0,135
-515,102	425,105	0,041	-0,066
-514,087	-144,459	-0,097	-0,007
-513,072	71,606	-0,075	-0,058
-512,058	-60,592	0,075	0,023
-511,043	800,000	0,028	-0,080
-510,029	25,287	0,107	-0,065
-509,014	59,013	0,040	-0,029
-507,999	58,215	-0,120	-0,087
-506,985	273,676	-0,049	-0,064
-505,970	-200,000	0,010	0,072
-504,956	-125,022	-0,079	0,009
-503,941	481,478	-0,020	0,034
-502,926	331,645	0,021	0,030
-501,912	800,000	-0,018	0,054
-500,897	38,680	-0,046	-0,030
-499,883	58,170	-0,059	-0,042
-498,868	-9,288	-0,079	0,039
-497,853	250,724	0,046	0,058
-496,839	-116,676	0,103	0,014
-495,824	75,630	0,054	0,042
-494,810	81,055	0,038	-0,030
-493,795	-200,000	0,017	0,102
-492,781	35,546	0,140	0,090
-491,766	-125,914	-0,062	0,007
-490,751	-143,108	-0,042	0,003
-489,737	467,780	-0,049	0,081
-488,722	69,997	0,053	-0,040
-487,708	-200,000	0,001	-0,105
-486,693	-200,000	0,061	0,209
-485,678	800,000	-0,022	0,050
-484,664	298,924	-0,078	-0,107
-483,649	-200,000	0,003	-0,137
-482,635	-45,557	-0,039	-0,014
-481,620	526,763	0,037	0,064
-480,605	40,601	-0,133	-0,088
-479,591	-10,729	0,074	0,036
-478,576	-140,927	-0,077	0,006
-477,562	-48,129	0,084	0,030
-476,547	75,538	0,082	0,064
-475,532	-87,821	0,069	-0,015
-474,518	89,275	0,071	0,058
-473,503	136,061	-0,058	-0,056
-472,489	800,000	0,018	0,051
-471,474	241,716	0,091	-0,112
-470,459	-200,000	-0,033	0,159
-469,445	-200,000	0,002	-0,020
-468,430	19,372	-0,025	-0,015
-467,416	-200,000	0,025	-0,103
-466,401	184,876	-0,059	-0,065
-465,386	138,046	-0,070	-0,068
-464,372	-52,708	-0,023	0,008
-463,357	-23,650	-0,083	0,037
-462,343	692,357	0,021	-0,041
-461,328	-200,000	0,023	-0,176
-460,313	-38,495	-0,105	0,041
-459,299	-6,789	0,035	-0,017
-458,284	-71,288	0,158	0,043
-457,270	-200,000	-0,002	0,035
-456,255	371,984	0,033	-0,049
-455,241	-200,000	0,007	0,034
-454,226	-157,761	0,070	-0,003
-453,211	-75,592	-0,148	0,038
-452,197	4,709	0,111	0,060
-451,182	141,623	0,077	0,075
-450,168	285,372	0,090	-0,120
-449,153	-99,380	0,041	0,008
-448,138	191,928	-0,035	-0,039
-447,124	14,181	0,041	-0,023
-446,109	316,367	-0,026	0,036
-445,095	-176,906	0,115	-0,002
-444,080	800,000	0,017	0,055
-443,065	800,000	0,062	0,141
-442,051	-58,343	-0,054	-0,017
-441,036	-200,000	-0,018	-0,152
-440,022	641,019	-0,069	-0,129
-439,007	250,747	-0,063	-0,079
-437,992	40,586	-0,054	0,036
-436,978	84,192	0,126	0,101
-435,963	166,685	0,031	0,033
-434,949	-200,000	0,002	-0,028
-433,934	231,103	-0,107	-0,129
-432,919	272,352	0,021	0,027
-431,905	-200,000	-0,020	-0,076
-430,890	-200,000	-0,004	0,073
-429,876	-167,780	-0,130	0,004
-428,861	-11,876	-0,072	-0,035
-427,846	800,000	0,022	-0,048
-426,832	93,291	-0,029	0,024
-425,817	141,790	-0,106	-0,103
-424,803	-200,000	0,016	-0,117
-423,788	140,516	0,102	0,099
-422,773	129,134	0,030	-0,028
-421,759	51,275	0,083	0,058
-420,744	800,000	-0,055	0,124
-419,730	29,001	-0,027	-0,017
-418,715	367,789	0,027	-0,040
-417,701	-200,000	-0,032	0,145
-416,686	-39,016	0,053	0,020
-415,671	-62,579	0,149	0,045
-414,657	-73,746	-0,041	-0,011
-413,642	-165,461	-0,031	0,001
-412,628	-63,520	0,007	0,002
-411,613	-200,000	0,028	-0,127
-410,598	-200,000	-0,034	-0,114
-409,584	190,416	0,023	-0,025
-408,569	309,641	0,060	0,083
-407,555	-51,326	0,090	-0,031
-406,540	79,292	0,097	-0,076
-405,525	800,000	-0,078	-0,214
-404,511	27,617	-0,188	-0,116
-403,496	-113,442	0,152	-0,022
-402,482	289,709	0,076	-0,102
-401,467	-200,000	-0,048	0,186
-400,452	121,038	0,106	0,097
-399,438	231,525	0,061	-0,073
-398,423	800,000	0,021	0,045
-397,409	800,000	-0,035	-0,079
-396,394	-200,000	-0,033	0,144
-395,379	201,622	-0,064	-0,072
-394,365	-0,198	-0,085	0,044
-393,350	-200,000	0,007	0,082
-392,336	800,000	-0,017	0,051
-391,321	-200,000	-0,021	-0,073
-390,306	-40,858	0,052	-0,020
-389,292	183,597	0,031	0,033
-388,277	-200,000	0,013	-0,044
-387,263	-78,091	0,070	-0,018
-386,248	439,634	0,041	-0,066
-385,233	155,891	-0,124	-0,125
-384,219	223,480	-0,029	-0,034
-383,204	31,310	-0,038	-0,024
-382,190	-200,000	-0,019	0,065
-381,175	-11,939	-0,109	-0,052
-380,160	150,046	0,045	0,045
-379,146	800,000	0,025	0,061
-378,131	-86,843	-0,085	-0,019
-377,117	-200,000	0,018	-0,104
-376,102	-200,000	-0,007	0,038
-375,088	59,615	-0,029	-0,021
-374,073	318,344	0,015	0,021
-373,058	90,195	0,070	0,058
-372,044	-120,255	-0,152	-0,019
-371,029	59,698	-0,143	0,103
-370,015	64,870	-0,087	0,064
-369,000	-200,000	-0,009	0,083
-367,985	-113,796	-0,109	-0,015
-366,971	800,000	0,057	-0,120
-365,956	230,547	-0,076	0,091
-364,942	-200,000	0,000	0,070
-363,927	-200,000	-0,002	-0,058
-362,912	-40,338	-0,121	0,046
-361,898	-118,354	0,148	0,019
-360,883	373,788	-0,101	-0,151
-359,869	-15,662	-0,059	0,028
-358,854	227,948	-0,055	-0,066
-357,839	34,221	0,132	0,084
-356,825	-144,670	0,154	-0,010
-355,810	5,004	-0,135	0,072
-354,796	671,012	0,079	0,151
-353,781	220,218	0,021	0,025
-352,766	-200,000	-0,016	-0,052
-351,752	-64,532	-0,099	0,029
-350,737	-134,075	0,116	-0,010
-349,723	211,665	0,067	0,077
-348,708	230,430	0,081	-0,097
-347,693	94,002	-0,024	0,020
-346,679	-0,624	-0,112	0,058
-345,664	-31,642	0,061	-0,025
-344,650	-200,000	-0,017	-0,109
-343,635	-166,231	-0,120	0,004
-342,620	-164,675	-0,066	-0,002
-341,606	-119,913	-0,112	0,014
-340,591	-78,186	0,070	-0,017
-339,577	338,180	-0,030	-0,043
-338,562	511,266	0,034	-0,058
-337,548	-76,051	0,065	-0,017
-336,533	4,448	0,017	-0,009
-335,518	800,000	0,061	-0,129
-334,504	-76,749	0,116	-0,029
-333,489	221,071	-0,037	-0,043
-332,475	-200,000	0,009	-0,035
-331,460	-200,000	0,001	-0,021
-330,445	-96,851	-0,043	0,008
-329,431	-17,491	0,175	0,080
-328,416	-200,000	0,004	0,068
-327,402	-53,682	-0,035	-0,012
-326,387	-167,079	-0,217	-0,006
-325,372	192,530	0,056	-0,061
-324,358	87,165	-0,070	0,057
-323,343	131,718	0,046	0,043
-322,329	-200,000	0,003	0,018
-321,314	177,095	0,062	0,066
-320,299	218,164	-0,106	0,124
-319,285	-200,000	-0,035	-0,115
-318,270	2,494	-0,108	-0,057
-317,256	-200,000	0,004	0,018
-316,241	800,000	-0,002	0,004
-315,226	268,258	-0,016	0,021
-314,212	125,813	-0,066	-0,061
-313,197	350,734	-0,047	0,068
-312,183	378,922	-0,027	0,041
-311,168	-52,203	-0,116	-0,039
-310,153	-200,000	0,011	0,059
-309,139	-200,000	-0,001	0,054
-308,124	114,295	0,014	-0,013
-307,110	462,709	0,078	-0,128
-306,095	800,000	-0,038	0,111
-305,080	-26,689	0,034	0,015
-304,066	-19,272	-0,091	-0,041
-303,051	128,891	0,073	-0,068
-302,037	-85,512	-0,117	-0,026
-301,022	393,897	0,026	-0,040
-300,008	251,947	-0,040	0,050
-298,993	-200,000	0,016	0,129
-297,978	800,000	0,019	-0,043
-296,964	279,687	-0,130	-0,170
-295,949	378,539	-0,037	-0,055
-294,935	795,886	-0,032	0,065
-293,920	-141,764	0,230	-0,017
-292,905	-200,000	0,002	-0,034
-291,891	18,871	-0,040	0,023
-290,876	-27,930	0,023	0,010
-289,862	578,588	0,069	0,125
-288,847	-200,000	0,005	0,048
-287,832	190,373	-0,048	-0,053
-286,818	70,223	-0,122	-0,092
-285,803	2,707	0,075	0,040
-284,789	800,000	0,025	0,059
-283,774	-200,000	0,043	0,152
-282,759	-200,000	0,001	0,207
-281,745	138,914	-0,021	0,020
-280,730	-200,000	-0,032	-0,122
-279,716	665,338	0,009	-0,018
-278,701	-78,341	-0,083	-0,021
-277,686	-200,000	-0,025	0,187
-276,672	-200,000	-0,008	-0,047
-275,657	800,000	-0,028	0,057
-274,643	800,000	-0,068	-0,137
-273,628	-200,000	-0,001	-0,077
-272,613	-49,387	0,018	-0,006
-271,599	403,789	0,026	0,040
-270,584	124,913	-0,063	0,058
-269,570	-139,739	0,030	0,002
-268,555	-174,816	0,050	-0,001
-267,540	270,359	-0,109	-0,141
-266,526	800,000	-0,028	-0,089
-265,511	-200,000	-0,002	0,037
-264,497	-136,518	0,017	-0,001
-263,482	-116,458	-0,007	0,001
-262,467	-78,636	0,128	0,032
-261,453	-98,654	0,091	-0,017
-260,438	-117,530	0,047	-0,006
-259,424	419,134	0,040	0,062
-258,409	-200,000	-0,006	-0,019
-257,395	-11,823	0,108	0,052
-256,380	-200,000	-0,021	0,157
-255,365	513,207	-0,036	-0,062
-254,351	-64,467	-0,065	0,019
-253,336	800,000	-0,025	-0,074
-252,322	319,443	0,071	-0,099
-251,307	47,804	-0,070	0,048
-250,292	-155,500	0,074	0,003
-249,278	-200,000	0,015	0,051
-248,263	800,000	0,022	0,051
-247,249	82,840	-0,060	-0,047
-246,234	211,294	0,055	-0,064
-245,219	-121,474	0,113	0,014
-244,205	454,945	-0,058	-0,095
-243,190	-200,000	-0,003	-0,021
-242,176	-200,000	-0,018	-0,114
-241,161	-200,000	0,015	-0,062
-240,146	-200,000	0,004	0,080
-239,132	-59,002	-0,093	-0,029
-238,117	-15,432	-0,119	-0,055
-237,103	60,012	0,047	-0,034
-236,088	-43,031	0,117	-0,043
-235,073	54,311	0,114	-0,080
-234,059	-10,956	-0,031	0,015
-233,044	-119,577	-0,133	0,017
-232,030	738,012	0,036	-0,072
-231,015	37,443	0,105	-0,068
-230,000	40,177	-0,126	-0,082
-228,986	-200,000	0,035	0,155
-227,971	342,769	0,087	0,124
-226,957	60,288	-0,117	0,084
-225,942	-200,000	0,049	0,170
-224,927	785,732	-0,118	0,236
-223,913	-163,713	0,046	-0,002
-222,898	-68,768	-0,065	-0,018
-221,884	-35,330	0,050	-0,020
-220,869	-160,273	0,157	0,006
-219,855	8,495	-0,032	0,017
-218,840	-200,000	0,013	0,106
-217,825	-49,374	0,042	0,015
-216,811	33,438	-0,151	-0,095
-215,796	465,349	-0,060	-0,099
-214,782	113,634	-0,072	0,064
-213,767	-94,075	0,143	0,028
-212,752	0,531	0,113	0,059
-211,738	142,306	0,073	0,071
-210,723	-7,589	-0,061	-0,030
-209,709	800,000	0,053	-0,169
-208,694	-200,000	-0,003	-0,013
-207,679	109,228	0,070	-0,061
-206,665	-156,030	0,171	-0,008
-205,650	74,481	-0,113	-0,087
-204,636	493,995	0,096	-0,161
-203,621	232,938	0,141	-0,170
-202,606	-200,000	-0,012	-0,052
-201,592	64,019	0,024	0,018
-200,577	-200,000	-0,013	-0,089
-199,563	20,867	0,088	0,052
-198,548	-200,000	0,015	0,103
-197,533	-200,000	0,003	-0,061
-196,519	340,979	0,075	0,107
-195,504	304,478	-0,036	0,049
-194,490	-136,781	0,137	-0,011
-193,475	65,179	-0,170	-0,125
-192,460	144,660	0,081	-0,079
-191,446	800,000	-0,038	0,097
-190,431	800,000	0,019	0,050
-189,417	-195,819	-0,156	-0,001
-188,402	101,460	-0,075	0,064
-187,387	-200,000	-0,005	0,072
-186,373	164,042	0,031	0,032
-185,358	800,000	-0,019	-0,046
-184,344	-200,000	-0,004	0,053
-183,329	334,005	0,089	0,126
-182,315	-200,000	-0,002	-0,053
-181,300	-200,000	-0,010	-0,076
-180,285	-200,000	0,010	0,070
-179,271	800,000	0,025	-0,078
-178,256	118,828	-0,056	-0,050
-177,242	-32,614	0,153	0,062
-176,227	-97,168	0,093	0,018
-175,212	-15,117	0,083	0,039
-174,198	57,779	-0,029	0,021
-173,183	-112,364	-0,177	-0,026
-172,169	800,000	0,035	0,073
-171,154	800,000	-0,019	-0,053
-170,139	217,596	0,107	0,124
-169,125	-23,665	0,060	-0,026
-168,110	800,000	-0,005	0,012
-167,096	82,553	0,023	-0,018
-166,081	800,000	0,067	-0,172
-165,066	800,000	0,053	-0,146
-164,052	645,105	-0,050	0,093
-163,037	-86,440	-0,095	0,021
-162,023	-200,000	-0,015	-0,125
-161,008	108,197	0,099	0,086
-159,993	6,390	-0,043	-0,023
-158,979	7,168	-0,103	-0,056
-157,964	621,021	-0,060	-0,109
-156,950	-71,201	0,036	-0,010
-155,935	-78,229	0,095	0,024
-154,920	-54,391	0,041	0,014
-153,906	-200,000	0,033	0,108
-152,891	171,814	0,078	0,082
-151,877	83,644	-0,011	0,008
-150,862	800,000	0,016	0,039
-149,847	-47,815	-0,013	-0,004
-148,833	-200,000	0,010	0,043
-147,818	-166,595	0,113	0,003
-146,804	398,606	0,082	0,126
-145,789	425,595	-0,044	-0,070
-144,775	-200,000	-0,041	-0,181
-143,760	-200,000	-0,061	-0,205
-142,745	-200,000	-0,029	0,098
-141,731	-0,673	-0,119	0,061
-140,716	800,000	0,039	-0,102
-139,702	82,627	-0,092	-0,072
-138,687	800,000	-0,033	-0,089
-137,672	-200,000	-0,000	0,077
-136,658	-44,953	-0,100	0,036
-135,643	-20,857	-0,138	0,061
-134,629	307,265	-0,034	0,046
-133,614	-200,000	-0,017	0,101
-132,599	352,198	0,025	0,036
-131,585	800,000	0,023	0,053
-130,570	216,994	-0,092	-0,107
-129,556	-169,394	0,096	0,002
-128,541	190,373	-0,054	-0,059
-127,526	2,745	0,053	0,028
-126,512	705,543	-0,024	0,047
-125,497	-200,000	-0,002	0,011
-124,483	-56,892	0,086	0,027
-123,468	-73,982	0,114	0,030
-122,453	92,071	-0,058	-0,048
-121,439	83,680	0,072	-0,057
-120,424	84,895	-0,035	0,028
-119,410	-83,806	0,056	-0,013
-118,395	196,890	-0,020	0,022
-117,380	241,029	0,066	0,080
-116,366	84,789	0,070	-0,055
-115,351	126,184	0,042	-0,039
-114,337	-162,311	-0,127	0,005
-113,322	-75,419	0,064	0,016
-112,307	17,093	0,113	0,065
-111,293	-92,267	-0,131	0,027
-110,278	539,184	0,059	0,103
-109,264	-100,782	0,093	-0,016
-108,249	484,150	-0,054	-0,090
-107,234	15,389	-0,066	-0,038
-106,220	128,988	-0,132	0,122
-105,205	-86,434	0,038	-0,008
-104,191	800,000	0,009	-0,019
-103,176	2,558	-0,049	-0,026
-102,162	621,570	0,031	-0,057
-101,147	-95,763	0,129	0,025
-100,132	-33,897	-0,256	-0,102
-99,118	34,214	0,190	-0,120
-98,103	-60,012	0,106	0,033
-97,089	345,532	0,039	-0,056
-96,074	800,000	0,035	-0,093
-95,059	-192,770	-0,036	0,000
-94,045	-67,726	-0,146	0,041
-93,030	-154,588	0,115	-0,005
-92,016	299,636	0,065	-0,088
-91,001	-200,000	0,009	-0,219
-89,986	37,463	0,082	-0,053
-88,972	192,959	0,138	0,151
-87,957	-200,000	0,004	0,174
-86,943	-118,448	-0,109	-0,014
-85,928	-108,513	0,046	0,007
-84,913	-14,553	0,006	0,003
-83,899	800,000	0,047	-0,139
-82,884	-139,528	0,116	-0,009
-81,870	-200,000	-0,005	-0,070
-80,855	344,986	-0,109	0,155
-79,840	400,678	0,027	0,041
-78,826	-37,724	-0,085	-0,033
-77,811	-135,883	-0,058	0,005
-76,797	677,131	0,050	-0,094
-75,782	741,737	0,031	0,060
-74,767	94,889	0,074	0,061
-73,753	-200,000	0,015	0,086
-72,738	302,999	0,061	0,083
-71,724	-38,600	-0,140	-0,053
-70,709	-185,540	-0,079	-0,001
-69,694	181,494	-0,079	-0,084
-68,680	537,481	0,054	0,093
-67,665	-200,000	0,010	0,058
-66,651	-22,723	0,059	0,026
-65,636	-134,243	0,090	0,008
-64,622	-10,842	-0,060	0,029
-63,607	800,000	-0,042	-0,111
-62,592	-200,000	-0,023	0,122
-61,578	800,000	-0,040	0,094
-60,563	-78,571	-0,102	0,025
-59,549	-27,679	0,009	-0,004
-58,534	-59,869	-1,548	-0,477
-57,519	800,000	-0,625	-1,607
-56,505	-200,000	-0,817	-4,513
-55,490	-192,364	0,657	-0,004
-54,476	800,000	5,105	11,840
-53,461	-200,000	15,139	266,479
-52,446	-200,000	696,285	2239,823
-51,432	584,475	1617,367	2890,854
-50,417	120,906	1625,726	1465,102
-49,403	82,931	1281,878	1009,201
-48,388	37,631	1022,129	655,952
-47,373	22,370	982,817	580,494
-46,359	21,422	971,621	570,749
-45,344	19,990	967,550	563,649
-44,330	19,981	966,282	562,860
-43,315	19,756	964,573	561,106
-42,300	19,714	963,670	560,422
-41,286	19,685	962,787	559,793
-40,271	19,753	961,648	559,330
-39,257	19,734	961,013	558,875
-38,242	19,810	959,967	558,491
-37,227	19,763	959,208	557,876
-36,213	19,735	958,308	557,239
-35,198	19,678	957,254	556,419
-34,184	19,716	956,739	556,219
-33,169	19,685	955,568	555,419
-32,154	19,750	954,681	555,092
-31,140	19,702	953,954	554,491
-30,125	19,729	953,186	554,111
-29,111	19,688	952,495	553,555
-28,096	19,773	951,698	553,342
-27,082	19,716	950,979	552,718
-26,067	19,652	950,370	552,137
-25,052	19,757	949,426	551,903
-24,038	19,701	948,877	551,382
-23,023	19,689	948,191	550,925
-22,009	19,727	947,455	550,596
-20,994	19,755	946,813	550,291
-19,979	19,738	946,431	549,993
-18,965	19,629	945,743	549,223
-17,950	19,677	945,143	549,008
-16,936	19,687	944,251	548,497
-15,921	19,676	943,799	548,177
-14,906	19,648	943,005	547,606
-13,892	19,666	942,311	547,240
-12,877	19,620	941,547	546,627
-11,863	19,570	941,106	546,189
-10,848	19,633	940,642	546,098
-9,833	19,682	940,231	545,993
-8,819	19,649	939,524	545,460
-7,804	19,565	938,855	544,783
-6,790	19,568	938,419	544,517
-5,775	19,649	937,783	544,382
-4,760	19,621	936,912	543,768
-3,746	19,587	936,389	543,332
-2,731	19,446	935,921	542,595
-1,717	19,472	935,145	542,205
-0,702	19,464	934,417	541,735
0,313	19,294	933,697	541,600
1,327	21,657	931,467	547,702
2,342	28,770	805,974	493,155
3,356	22,875	506,033	299,573
4,371	-0,959	373,217	190,599
5,386	-3,633	356,446	178,735
6,400	-4,795	350,605	174,387
7,415	-5,162	348,213	172,740
8,429	-5,019	346,815	172,202
9,444	-5,090	345,811	171,604
10,459	-5,115	345,250	171,281
11,473	-5,176	344,675	170,908
12,488	-5,023	343,895	170,687
13,502	-5,171	343,415	170,258
14,517	-5,038	342,813	170,102
15,531	-4,982	342,373	169,934
16,546	-4,968	342,068	169,784
17,561	-5,048	341,571	169,429
18,575	-4,890	341,165	169,398
19,590	-4,945	340,701	169,088
20,604	-4,828	340,494	169,107
21,619	-4,924	339,915	168,693
22,634	-5,095	339,844	168,442
23,648	-4,953	339,338	168,342
24,663	-4,876	339,034	168,267
25,677	-4,940	338,731	168,026
26,692	-5,139	338,433	167,631
27,707	-4,838	338,071	167,788
28,721	-5,017	337,999	167,529
29,736	-4,873	337,436	167,401
30,750	-4,942	337,104	167,142
31,765	-5,013	336,962	166,974
32,780	-4,945	336,680	166,899
33,794	-4,917	336,300	166,727
34,809	-4,813	336,042	166,705
35,823	-4,857	335,783	166,511
36,838	-5,011	335,582	166,219
37,853	-5,027	335,390	166,091
38,867	-4,994	334,931	165,886
39,882	-4,841	334,690	165,928
40,896	-4,855	334,372	165,740
41,911	-4,960	334,166	165,502
42,926	-4,955	333,819	165,321
43,940	-5,082	333,704	165,103
44,955	-4,939	333,356	165,080
45,969	-5,035	333,079	164,819
46,984	-4,907	332,776	164,801
47,999	-5,058	332,669	164,561
49,013	-5,074	332,411	164,401
50,028	-5,026	332,102	164,287
51,042	-4,963	331,848	164,218
52,057	-5,007	331,650	164,056
53,071	-4,880	331,370	164,048
54,086	-4,802	331,007	163,942
55,101	-4,840	330,861	163,811
56,115	-4,911	330,493	163,535
57,130	-4,950	330,132	163,297
58,144	-5,009	330,028	163,164
59,159	-5,054	329,725	162,948
60,174	-4,866	329,412	162,992
61,188	-5,095	329,306	162,666
62,203	-4,843	328,867	162,719
63,217	-4,972	328,673	162,464
64,232	-4,997	328,459	162,315
65,247	-5,048	328,245	162,138
66,261	-5,040	327,812	161,918
67,276	-5,083	327,720	161,810
68,290	-4,974	327,304	161,712
69,305	-4,883	327,245	161,771
70,320	-4,918	327,044	161,618
71,334	-5,069	326,860	161,343
72,349	-4,971	326,276	161,150
73,363	-4,947	326,091	161,072
74,378	-4,879	325,681	160,931
75,393	-4,952	325,531	160,760
76,407	-5,009	325,406	160,621
77,422	-4,977	325,218	160,550
78,436	-5,023	324,916	160,334
79,451	-5,034	324,582	160,143
80,466	-4,920	324,328	160,131
81,480	-4,880	324,138	160,067
82,495	-4,822	323,809	159,954
83,509	-4,883	323,554	159,746
84,524	-4,808	323,290	159,685
85,539	-5,062	323,168	159,329
86,553	-4,851	322,845	159,389
87,568	-4,987	322,650	159,128
88,582	-4,974	322,460	159,035
89,597	-4,813	322,136	159,039
90,611	-4,903	322,017	158,867
91,626	-4,993	321,759	158,625
92,641	-4,850	321,341	158,562
93,655	-4,904	321,190	158,415
94,670	-4,840	320,946	158,351
95,684	-4,951	320,781	158,133
96,699	-5,024	320,460	157,881
97,714	-4,996	320,377	157,856
98,728	-4,869	320,133	157,861
99,743	-4,860	319,857	157,721
100,757	-4,795	319,517	157,611
101,772	-4,860	319,238	157,388
102,787	-4,859	319,000	157,257
103,801	-4,957	318,874	157,074
104,816	-4,919	318,623	156,978
105,830	-4,969	318,373	156,787
106,845	-4,837	318,069	156,767
107,860	-4,963	317,931	156,547
108,874	-5,086	317,653	156,263
109,889	-4,974	317,508	156,299
110,903	-5,048	317,113	156,011
111,918	-4,931	316,907	156,022
112,933	-4,893	316,728	155,962
113,947	-4,841	316,500	155,891
114,962	-5,001	316,287	155,599
115,976	-5,022	316,182	155,512
116,991	-4,883	315,783	155,452
118,006	-4,996	315,719	155,284
119,020	-5,077	315,544	155,097
120,035	-4,805	315,191	155,202
121,049	-4,706	314,895	155,149
122,064	-4,825	314,794	154,957
123,079	-4,814	314,579	154,849
124,093	-4,784	314,359	154,759
125,108	-4,884	314,090	154,507
126,122	-4,913	313,907	154,371
127,137	-4,779	313,741	154,419
128,151	-4,833	313,591	154,274
129,166	-4,929	313,209	153,969
130,181	-4,869	313,150	153,991
131,195	-4,907	312,849	153,789
132,210	-5,112	312,592	153,430
133,224	-4,897	312,295	153,500
134,239	-4,930	312,106	153,359
135,254	-4,902	311,805	153,227
136,268	-4,833	311,708	153,239
137,283	-4,832	311,368	153,058
138,297	-4,728	311,273	153,109
139,312	-4,829	310,886	152,797
140,327	-4,875	310,742	152,664
141,341	-4,929	310,541	152,495
142,356	-4,882	310,367	152,446
143,370	-4,852	310,037	152,302
144,385	-4,748	309,881	152,322
145,400	-4,926	309,736	152,049
146,414	-5,089	309,522	151,758
147,429	-4,965	309,240	151,736
148,443	-4,910	308,990	151,659
149,458	-4,824	308,684	151,586
150,473	-4,822	308,538	151,502
151,487	-4,824	308,281	151,360
152,502	-4,962	308,042	151,084
153,516	-4,895	307,842	151,044
154,531	-5,124	307,756	150,748
155,546	-4,879	307,414	150,823
156,560	-4,926	307,316	150,713
157,575	-4,805	306,969	150,655
158,589	-4,922	306,778	150,426
159,604	-4,875	306,508	150,329
160,619	-4,688	306,392	150,454
161,633	-4,827	306,210	150,207
162,648	-4,756	306,121	150,223
163,662	-4,758	305,783	150,042
164,677	-4,635	305,434	149,985
165,692	-4,885	305,341	149,667
166,706	-4,687	305,156	149,768
167,721	-4,688	304,939	149,646
168,735	-4,690	304,820	149,573
169,750	-4,773	304,654	149,392
170,764	-4,889	304,398	149,134
171,779	-4,845	304,223	149,080
172,794	-4,866	303,958	148,915
173,808	-4,931	303,822	148,769
174,823	-4,838	303,535	148,710
175,837	-4,814	303,370	148,641
176,852	-4,970	303,327	148,445
177,867	-4,997	303,035	148,261
178,881	-4,734	302,718	148,364
179,896	-4,852	302,520	148,132
180,910	-4,863	302,283	147,992
181,925	-4,723	302,048	148,007
182,940	-4,744	301,900	147,900
183,954	-4,810	301,852	147,795
184,969	-4,777	301,645	147,715
185,983	-4,821	301,325	147,500
186,998	-4,782	301,204	147,467
188,013	-4,586	300,925	147,518
189,027	-4,607	300,761	147,403
190,042	-4,897	300,451	146,942
191,056	-5,085	300,370	146,698
192,071	-4,729	300,036	146,884
193,086	-4,948	299,785	146,525
194,100	-4,942	299,643	146,449
195,115	-4,828	299,348	146,407
196,129	-4,780	299,097	146,320
197,144	-4,883	299,005	146,157
198,159	-4,702	298,616	146,138
199,173	-4,896	298,483	145,864
200,188	-4,907	298,376	145,787
201,202	-4,986	298,125	145,571
202,217	-4,823	297,899	145,613
203,232	-4,716	297,602	145,563
204,246	-4,748	297,436	145,436
205,261	-4,781	297,181	145,265
206,275	-4,731	297,080	145,254
207,290	-4,831	297,126	145,162
208,304	-4,741	296,688	145,025
209,319	-4,904	296,602	144,807
210,334	-4,660	296,233	144,859
211,348	-4,779	296,071	144,647
212,363	-4,774	295,923	144,566
213,377	-4,755	295,808	144,517
214,392	-4,805	295,614	144,360
215,407	-4,766	295,283	144,223
216,421	-4,735	295,054	144,130
217,436	-4,725	294,896	144,050
218,450	-4,849	294,704	143,819
219,465	-4,990	294,537	143,584
220,480	-4,908	294,347	143,561
221,494	-4,734	294,024	143,564
222,509	-4,684	293,899	143,540
223,523	-4,638	293,673	143,462
224,538	-4,853	293,646	143,223
225,553	-4,807	293,352	143,111
226,567	-4,863	293,245	142,992
227,582	-4,659	292,875	143,001
228,596	-4,803	292,809	142,813
229,611	-4,682	292,561	142,799
230,626	-4,774	292,241	142,539
231,640	-4,591	292,092	142,634
232,655	-4,743	291,919	142,386
233,669	-4,601	291,681	142,399
234,684	-4,731	291,528	142,183
235,699	-4,752	291,285	142,031
236,713	-4,813	291,227	141,930
237,728	-4,704	291,128	141,977
238,742	-4,641	290,681	141,807
239,757	-4,793	290,644	141,628
240,772	-5,023	290,488	141,313
241,786	-4,728	290,246	141,472
242,801	-4,751	290,060	141,347
243,815	-4,736	289,865	141,253
244,830	-4,953	289,700	140,949
245,844	-4,770	289,525	141,029
246,859	-4,843	289,254	140,814
247,874	-4,692	289,099	140,872
248,888	-4,784	288,910	140,678
249,903	-5,048	288,850	140,380
250,917	-4,789	288,464	140,432
251,932	-4,792	288,319	140,345
252,947	-5,029	287,945	139,921
253,961	-5,388	287,637	139,410
254,976	-5,707	287,257	138,904
255,990	-5,551	287,267	139,047
257,005	-3,980	288,015	140,924
258,020	-1,583	288,679	143,567
259,034	-0,100	289,033	145,172
260,049	0,522	288,984	145,738
261,063	0,869	289,034	146,088
262,078	1,024	288,840	146,128
263,093	1,348	288,905	146,462
264,107	1,832	288,841	146,885
265,122	1,860	288,661	146,808
266,136	1,904	288,430	146,720
267,151	1,847	288,384	146,629
268,166	2,193	288,082	146,796
269,180	1,907	287,977	146,453
270,195	2,090	287,919	146,587
271,209	2,004	287,544	146,301
272,224	1,835	287,495	146,099
273,239	1,621	287,399	145,831
274,253	1,908	286,997	145,891
275,268	1,832	286,660	145,633
276,282	1,984	286,598	145,735
277,297	1,965	286,370	145,588
278,312	1,856	286,396	145,484
279,326	1,878	286,052	145,316
280,341	1,645	286,011	145,060
281,355	1,955	285,661	145,166
282,370	1,956	285,469	145,057
283,384	1,974	285,377	145,014
284,399	1,711	285,252	144,686
285,414	1,771	284,944	144,574
286,428	1,838	284,676	144,489
287,443	1,771	284,426	144,286
288,457	1,764	284,388	144,247
289,472	1,631	284,222	144,023
290,487	1,592	283,995	143,859
291,501	1,690	283,804	143,842
292,516	1,723	283,496	143,704
293,530	1,789	283,307	143,658
294,545	1,710	283,178	143,505
295,560	1,674	283,020	143,378
296,574	1,662	282,748	143,216
297,589	1,644	282,618	143,121
298,603	1,617	282,408	142,975
299,618	1,588	282,340	142,901
300,633	1,744	282,121	142,925
301,647	1,726	282,048	142,858
302,662	1,887	281,795	142,869
303,676	1,757	281,531	142,600
304,691	1,817	281,381	142,568
305,706	1,829	281,252	142,501
306,720	1,909	281,060	142,467
307,735	1,776	280,892	142,243
308,749	1,922	280,805	142,324
309,764	1,905	280,459	142,120
310,779	1,798	280,445	142,000
311,793	1,791	280,082	141,797
312,808	1,885	279,852	141,756
313,822	1,652	279,801	141,499
314,837	1,682	279,636	141,431
315,852	1,806	279,368	141,399
316,866	1,625	279,450	141,258
317,881	1,729	279,114	141,173
318,895	1,705	278,957	141,059
319,910	1,789	278,616	140,952
320,925	2,025	278,515	141,107
321,939	1,930	278,226	140,860
322,954	1,915	278,087	140,763
323,968	1,927	278,041	140,739
324,983	2,032	277,850	140,727
325,997	2,054	277,679	140,648
327,012	2,001	277,462	140,477
328,027	1,877	277,306	140,271
329,041	2,085	277,057	140,324
330,056	1,874	276,968	140,072
331,070	1,993	276,743	140,055
332,085	2,078	276,604	140,052
333,100	1,995	276,330	139,823
334,114	1,958	276,134	139,678
335,129	1,861	276,083	139,550
336,143	1,839	275,816	139,382
337,158	1,996	275,675	139,443
338,173	2,007	275,532	139,368
339,187	1,939	275,369	139,211
340,202	1,932	275,228	139,121
341,216	1,930	274,965	138,974
342,231	1,966	274,741	138,881
343,246	2,000	274,628	138,842
344,260	1,840	274,511	138,625
345,275	2,010	274,390	138,706
346,289	1,861	274,105	138,414
347,304	1,826	273,880	138,257
348,319	2,041	273,747	138,373
349,333	2,002	273,590	138,246
350,348	2,017	273,369	138,136
351,362	1,940	273,288	138,013
352,377	1,980	273,134	137,958
353,392	1,887	272,842	137,714
354,406	2,062	272,812	137,846
355,421	191,201	1346,022	1423,655
356,435	154,380	1476,825	1423,747
