DTS Sentinel unit serial number:	SN410029Multiplexer serial number:	ORYXHardware model number:	OX2-SRSoftware version number:	ORYX F/W v4,00 Oryx Data Collector v3.7.2.0data status	okinstallation	B4 Nyhavnadifferential loss correction	single-endedforward channel	channel 2reverse channel	N/Adate	2023/12/19time	01:00:13forward acquisition time	300,00reverse acquisition time	0,00gamma	499,1914k internal	0,3123k external	0,3123temperature offset calibration	1,0000default loss term (dB/km)	0,3820temperature slope calibration	1,0000multiplexer offset coefficient	1,0000multiplexer slope coefficient	1,0000fibre end	0,00T internal ref (°C)	21,89T ext. ref 1 (°C)	6,20T ext. ref 2 (°C)	6,22length (m)	temperature (°C)	Stokes	anti-Stokes-744,400	243,572	0,103	-0,130
-743,385	277,346	-0,137	0,182
-742,371	194,077	0,066	0,075
-741,356	422,375	-0,152	0,244
-740,342	56,268	-0,027	0,019
-739,327	-15,513	-0,192	0,091
-738,312	800,000	0,075	-0,171
-737,298	-112,382	-0,201	0,030
-736,283	-200,000	-0,021	-0,160
-735,269	172,447	-0,097	0,104
-734,254	269,572	0,080	-0,106
-733,239	-35,135	-0,335	-0,135
-732,225	-0,044	0,058	0,031
-731,210	501,525	-0,007	0,012
-730,196	-0,268	0,070	0,037
-729,181	-57,354	-0,083	0,027
-728,167	20,775	0,040	0,024
-727,152	-90,899	0,044	-0,009
-726,137	644,829	0,052	0,099
-725,123	695,697	0,018	0,035
-724,108	750,730	-0,078	-0,157
-723,094	-200,000	-0,022	-0,156
-722,079	391,742	-0,121	-0,188
-721,064	-53,134	-0,010	0,003
-720,050	800,000	-0,027	0,087
-719,035	225,931	-0,037	-0,044
-718,021	800,000	-0,009	-0,019
-717,006	-200,000	-0,028	-0,221
-715,991	-2,406	-0,066	-0,034
-714,977	-66,752	0,096	-0,028
-713,962	-200,000	0,016	-0,066
-712,948	-200,000	-0,005	0,096
-711,933	-200,000	0,018	0,077
-710,918	-200,000	0,008	-0,030
-709,904	-112,797	-0,172	0,025
-708,889	353,594	0,042	-0,062
-707,875	124,597	-0,149	-0,140
-706,860	800,000	0,042	0,098
-705,845	-99,920	0,067	-0,012
-704,831	800,000	0,011	0,029
-703,816	-200,000	-0,003	0,029
-702,802	128,168	-0,100	-0,095
-701,787	237,703	-0,141	-0,175
-700,772	-138,547	-0,120	-0,010
-699,758	-200,000	0,010	-0,126
-698,743	-200,000	0,029	0,155
-697,729	333,681	0,035	-0,051
-696,714	-126,230	-0,022	0,002
-695,699	-100,062	0,148	0,027
-694,685	-200,000	-0,009	-0,098
-693,670	199,072	0,028	-0,032
-692,656	108,455	-0,049	-0,043
-691,641	-200,000	0,008	-0,070
-690,627	800,000	0,036	0,084
-689,612	-200,000	-0,008	0,036
-688,597	800,000	-0,019	-0,044
-687,583	81,647	-0,173	-0,139
-686,568	-32,013	-0,100	-0,041
-685,554	800,000	0,007	0,024
-684,539	-200,000	0,011	0,132
-683,524	-79,558	0,094	-0,024
-682,510	-151,350	0,125	0,007
-681,495	88,387	-0,090	-0,075
-680,481	800,000	-0,031	-0,080
-679,466	45,288	-0,097	-0,066
-678,451	-5,516	-0,084	-0,043
-677,437	311,606	0,028	-0,039
-676,422	800,000	-0,033	0,089
-675,408	-131,627	-0,126	-0,012
-674,393	560,376	-0,025	0,045
-673,378	-200,000	-0,023	-0,075
-672,364	1,436	-0,095	-0,051
-671,349	800,000	0,013	0,026
-670,335	800,000	-0,021	0,055
-669,320	210,032	-0,072	0,085
-668,305	-200,000	-0,007	0,121
-667,291	-57,288	-0,067	-0,022
-666,276	701,217	-0,042	-0,082
-665,262	350,998	0,058	-0,085
-664,247	-89,174	-0,145	0,032
-663,232	-200,000	0,005	-0,080
-662,218	176,233	-0,037	0,040
-661,203	-162,733	0,084	-0,003
-660,189	-200,000	-0,037	-0,125
-659,174	800,000	0,045	-0,106
-658,159	-200,000	-0,041	-0,138
-657,145	59,561	0,062	0,045
-656,130	-200,000	0,012	-0,072
-655,116	33,229	0,018	0,011
-654,101	-147,736	-0,078	0,005
-653,086	-200,000	0,008	-0,029
-652,072	123,299	-0,076	0,071
-651,057	210,830	-0,066	-0,077
-650,043	-24,625	-0,064	-0,028
-649,028	-5,901	-0,083	0,042
-648,014	-66,191	0,073	-0,021
-646,999	185,857	0,022	0,024
-645,984	-200,000	-0,005	0,070
-644,970	714,514	-0,077	-0,152
-643,955	800,000	0,045	-0,094
-642,941	162,465	0,020	0,021
-641,926	800,000	0,004	-0,012
-640,911	61,412	0,055	-0,040
-639,897	-200,000	-0,005	0,037
-638,882	-15,880	0,071	-0,033
-637,868	-200,000	0,022	-0,099
-636,853	-200,000	0,001	-0,110
-635,838	332,453	-0,007	-0,010
-634,824	-20,903	-0,149	-0,067
-633,809	-200,000	0,016	-0,092
-632,795	-200,000	-0,005	-0,025
-631,780	-85,746	-0,069	0,016
-630,765	-200,000	0,014	-0,079
-629,751	687,346	-0,017	-0,034
-628,736	-200,000	-0,027	-0,145
-627,722	-200,000	0,008	-0,081
-626,707	193,878	0,034	0,038
-625,692	-9,978	-0,096	-0,047
-624,678	-121,047	-0,040	0,005
-623,663	-200,000	-0,006	-0,160
-622,649	110,408	0,116	-0,104
-621,634	176,786	-0,013	-0,014
-620,619	-200,000	0,003	-0,064
-619,605	26,067	-0,025	-0,016
-618,590	43,671	0,115	-0,078
-617,576	28,760	0,102	-0,064
-616,561	-200,000	-0,007	0,053
-615,546	-116,231	0,087	-0,012
-614,532	-200,000	0,007	-0,116
-613,517	-200,000	-0,007	-0,180
-612,503	365,013	0,061	0,092
-611,488	-99,432	-0,106	-0,020
-610,474	32,243	0,006	-0,004
-609,459	372,191	-0,059	0,089
-608,444	800,000	-0,035	-0,097
-607,430	-66,067	-0,179	-0,053
-606,415	-83,165	-0,097	0,023
-605,401	396,891	-0,022	-0,034
-604,386	-200,000	0,022	-0,124
-603,371	46,506	-0,056	-0,039
-602,357	55,335	0,013	0,010
-601,342	-15,841	-0,144	-0,068
-600,328	-200,000	-0,008	-0,068
-599,313	-200,000	0,013	0,132
-598,298	89,130	-0,029	0,024
-597,284	32,237	0,045	-0,029
-596,269	104,840	-0,100	0,088
-595,255	-105,390	0,024	0,004
-594,240	3,316	-0,078	-0,042
-593,225	192,803	-0,090	-0,100
-592,211	-20,673	-0,121	-0,055
-591,196	-200,000	0,003	-0,064
-590,182	23,370	0,110	-0,067
-589,167	-200,000	-0,022	-0,097
-588,152	-200,000	-0,002	0,152
-587,138	344,095	-0,067	0,098
-586,123	-112,638	-0,095	-0,014
-585,109	5,541	-0,165	-0,090
-584,094	549,116	0,028	0,050
-583,079	39,358	-0,037	0,024
-582,065	-96,260	-0,083	0,016
-581,050	-200,000	-0,005	0,109
-580,036	-111,759	0,040	0,006
-579,021	94,924	-0,098	0,082
-578,006	-200,000	0,015	-0,170
-576,992	-200,000	0,007	-0,054
-575,977	476,097	0,048	0,080
-574,963	7,588	0,077	-0,043
-573,948	-74,728	0,029	-0,008
-572,934	-166,912	0,083	-0,002
-571,919	-200,000	-0,002	-0,016
-570,904	245,165	-0,026	0,033
-569,890	800,000	0,043	-0,099
-568,875	11,057	0,051	0,029
-567,861	208,272	0,037	0,042
-566,846	-88,766	-0,068	-0,015
-565,831	-61,432	0,116	-0,036
-564,817	168,862	-0,096	-0,101
-563,802	800,000	-0,032	-0,086
-562,788	-188,516	0,143	-0,001
-561,773	521,743	-0,032	0,057
-560,758	-200,000	-0,006	0,156
-559,744	-106,083	-0,016	-0,003
-558,729	-45,253	0,043	0,016
-557,715	800,000	-0,030	0,081
-556,700	446,644	-0,021	0,034
-555,685	-23,120	-0,163	0,072
-554,671	-24,502	-0,136	-0,060
-553,656	-200,000	0,002	0,139
-552,642	-108,855	0,108	0,017
-551,627	-200,000	0,006	0,030
-550,612	-200,000	0,001	-0,003
-549,598	226,028	-0,115	-0,138
-548,583	-200,000	-0,018	0,058
-547,569	-69,879	0,023	0,007
-546,554	-53,927	0,164	0,055
-545,539	-82,807	-0,116	0,028
-544,525	89,449	0,047	-0,039
-543,510	800,000	-0,024	0,052
-542,496	-200,000	-0,009	-0,054
-541,481	-200,000	0,019	-0,121
-540,466	-5,141	0,052	0,026
-539,452	179,822	-0,022	-0,024
-538,437	-159,021	0,061	0,002
-537,423	30,806	-0,138	-0,087
-536,408	109,595	0,061	-0,054
-535,393	-5,066	-0,083	0,042
-534,379	-200,000	0,012	-0,150
-533,364	800,000	0,034	-0,094
-532,350	39,934	-0,088	-0,058
-531,335	-200,000	0,007	0,094
-530,321	40,937	0,171	0,114
-529,306	-42,280	-0,071	-0,027
-528,291	-200,000	0,013	0,084
-527,277	15,253	0,023	0,013
-526,262	69,336	0,047	0,036
-525,248	112,639	-0,093	0,083
-524,233	-144,321	0,185	0,013
-523,218	134,011	-0,054	0,052
-522,204	-130,706	-0,165	-0,016
-521,189	-52,412	0,068	0,023
-520,175	-200,000	0,037	-0,193
-519,160	131,742	-0,110	-0,105
-518,145	-47,149	-0,148	-0,053
-517,131	-70,979	0,112	0,031
-516,116	-85,388	-0,054	0,012
-515,102	800,000	-0,014	0,044
-514,087	62,991	0,068	-0,050
-513,072	-49,178	-0,101	-0,036
-512,058	800,000	-0,010	-0,023
-511,043	-57,311	-0,113	-0,036
-510,029	-152,845	0,061	0,003
-509,014	-200,000	0,006	0,098
-507,999	72,451	0,074	0,057
-506,985	800,000	-0,022	-0,061
-505,970	-200,000	0,038	0,136
-504,956	-200,000	-0,023	-0,174
-503,941	-200,000	0,012	0,229
-502,926	687,706	0,056	0,109
-501,912	156,910	-0,023	0,024
-500,897	311,256	-0,096	-0,133
-499,883	-69,746	-0,050	0,014
-498,868	800,000	0,072	0,163
-497,853	105,252	-0,037	0,033
-496,839	-147,953	0,117	-0,007
-495,824	79,603	0,086	-0,068
-494,810	290,583	-0,087	0,117
-493,795	-65,229	0,062	0,018
-492,781	-45,725	0,037	-0,013
-491,766	157,641	0,064	0,065
-490,751	800,000	0,011	0,031
-489,737	-82,629	-0,076	-0,018
-488,722	-200,000	-0,000	-0,009
-487,708	-46,895	-0,071	-0,025
-486,693	-98,270	-0,036	0,007
-485,678	-200,000	0,008	0,029
-484,664	200,732	0,087	-0,099
-483,649	-55,070	-0,119	0,039
-482,635	-195,238	0,133	-0,001
-481,620	-200,000	-0,009	-0,105
-480,605	800,000	0,027	0,080
-479,591	-63,162	0,023	-0,007
-478,576	-200,000	-0,023	0,075
-477,562	-107,811	-0,180	0,029
-476,547	-167,652	0,096	-0,003
-475,532	-105,447	-0,044	0,007
-474,518	183,395	0,070	-0,076
-473,503	-200,000	0,008	-0,059
-472,489	216,160	-0,042	-0,049
-471,474	-34,100	0,117	-0,047
-470,459	773,028	0,072	-0,145
-469,445	580,261	-0,111	-0,201
-468,430	-79,845	-0,085	-0,021
-467,416	-132,435	-0,035	0,003
-466,401	-25,917	-0,056	0,024
-465,386	40,493	0,102	0,068
-464,372	392,859	-0,054	-0,082
-463,357	-176,515	-0,162	-0,003
-462,343	-58,002	-0,071	-0,023
-461,328	-104,065	-0,067	0,011
-460,313	-68,553	0,153	0,044
-459,299	141,574	0,068	-0,067
-458,284	-122,330	0,093	-0,011
-457,270	65,727	0,020	0,015
-456,255	800,000	-0,024	0,055
-455,241	44,720	0,030	0,020
-454,226	-47,764	-0,110	0,039
-453,211	22,277	0,008	0,005
-452,197	108,308	0,020	0,017
-451,182	225,722	-0,023	-0,027
-450,168	50,176	0,038	-0,027
-449,153	800,000	-0,017	0,049
-448,138	800,000	-0,056	0,117
-447,124	175,164	-0,104	-0,112
-446,109	86,592	0,131	-0,106
-445,095	800,000	-0,027	0,066
-444,080	580,530	-0,072	0,131
-443,065	141,834	-0,049	0,048
-442,051	-200,000	0,028	0,138
-441,036	195,646	-0,094	-0,105
-440,022	-80,205	-0,164	-0,040
-439,007	-200,000	-0,009	0,079
-437,992	108,174	-0,038	0,033
-436,978	115,057	0,085	-0,077
-435,963	-96,397	-0,018	0,003
-434,949	-200,000	-0,015	0,055
-433,934	-87,866	-0,088	-0,019
-432,919	74,756	0,022	0,017
-431,905	-200,000	-0,058	-0,220
-430,890	-95,458	-0,067	0,013
-429,876	-63,816	0,202	-0,060
-428,861	95,827	0,069	0,058
-427,846	-200,000	-0,010	0,081
-426,832	33,159	-0,034	-0,021
-425,817	90,173	0,048	0,039
-424,803	800,000	-0,042	0,111
-423,788	-200,000	0,033	0,184
-422,773	-200,000	0,004	-0,044
-421,759	-86,057	-0,118	-0,027
-420,744	-35,019	-0,101	0,040
-419,730	2,273	-0,092	0,049
-418,715	-96,349	-0,046	0,009
-417,701	-34,755	-0,106	-0,043
-416,686	29,166	0,105	-0,066
-415,671	89,777	0,072	-0,059
-414,657	800,000	0,042	-0,105
-413,642	-200,000	0,024	0,138
-412,628	-88,054	-0,031	-0,007
-411,613	-200,000	-0,017	-0,203
-410,598	33,699	0,074	-0,047
-409,584	33,796	0,048	-0,031
-408,569	213,501	0,044	0,051
-407,555	-200,000	-0,013	0,102
-406,540	-13,446	0,109	-0,052
-405,525	800,000	0,045	-0,139
-404,511	158,889	0,012	0,013
-403,496	-200,000	0,015	0,084
-402,482	240,168	0,022	-0,028
-401,467	409,067	-0,008	0,012
-400,452	-84,160	0,044	-0,010
-399,438	137,284	0,054	-0,052
-398,423	332,532	-0,037	-0,053
-397,409	-200,000	-0,005	0,108
-396,394	214,130	-0,089	-0,104
-395,379	800,000	-0,039	-0,085
-394,365	153,315	0,040	0,040
-393,350	54,160	0,078	0,055
-392,336	120,948	0,063	0,057
-391,321	330,580	-0,053	0,075
-390,306	-149,538	0,044	0,002
-389,292	105,151	-0,116	0,101
-388,277	-137,721	0,029	-0,002
-387,263	-106,836	0,083	-0,013
-386,248	-103,512	0,106	0,018
-385,233	-76,997	-0,050	0,013
-384,219	-200,000	0,012	-0,129
-383,204	-200,000	0,028	-0,172
-382,190	-132,884	-0,100	0,009
-381,175	239,076	-0,046	0,056
-380,160	-184,582	-0,020	0,000
-379,146	-200,000	0,003	-0,152
-378,131	-76,330	0,110	-0,028
-377,117	97,889	-0,075	-0,063
-376,102	221,997	-0,027	-0,032
-375,088	800,000	-0,018	-0,042
-374,073	800,000	-0,019	0,045
-373,058	-18,119	0,175	0,080
-372,044	-168,116	0,109	0,003
-371,029	-200,000	0,026	0,128
-370,015	190,761	0,058	0,064
-369,000	-127,515	-0,083	0,009
-367,985	549,399	0,068	-0,119
-366,971	800,000	0,033	-0,096
-365,956	158,664	0,019	0,019
-364,942	77,006	0,119	0,093
-363,927	17,906	-0,076	0,044
-362,912	641,451	0,043	-0,081
-361,898	166,164	0,093	-0,097
-360,883	246,974	0,099	0,123
-359,869	660,194	0,073	-0,139
-358,854	-124,914	0,132	-0,015
-357,839	-26,023	0,045	0,019
-356,825	171,039	-0,054	-0,057
-355,810	-15,446	-0,043	0,020
-354,796	-200,000	-0,011	0,126
-353,781	-110,071	-0,045	-0,007
-352,766	-71,904	-0,140	-0,038
-351,752	800,000	-0,063	0,137
-350,737	800,000	-0,039	-0,097
-349,723	-19,215	0,140	0,063
-348,708	563,126	-0,037	0,066
-347,693	-51,804	-0,072	-0,025
-346,679	143,058	-0,093	-0,091
-345,664	-200,000	0,003	-0,018
-344,650	-64,713	-0,073	-0,022
-343,635	-200,000	-0,002	0,057
-342,620	-200,000	0,001	0,174
-341,606	20,872	0,049	-0,029
-340,591	330,449	-0,033	0,047
-339,577	258,327	-0,118	-0,150
-338,562	-200,000	-0,009	-0,096
-337,548	421,899	0,032	0,051
-336,533	635,046	0,046	0,086
-335,518	204,540	0,139	0,159
-334,504	-113,497	0,038	-0,005
-333,489	-200,000	-0,008	0,044
-332,475	322,154	-0,020	0,028
-331,460	-92,174	-0,223	0,046
-330,445	-100,034	0,088	0,016
-329,431	800,000	0,084	0,177
-328,416	127,836	-0,045	0,042
-327,402	-122,057	0,192	-0,023
-326,387	113,335	-0,137	-0,122
-325,372	454,468	-0,061	0,100
-324,358	60,842	-0,116	-0,084
-323,343	-200,000	-0,004	0,024
-322,329	-104,546	0,069	0,011
-321,314	-200,000	-0,023	0,146
-320,299	-108,959	0,081	-0,013
-319,285	-157,421	-0,064	-0,003
-318,270	175,533	-0,037	0,039
-317,256	-91,780	-0,111	0,023
-316,241	120,225	0,056	0,051
-315,226	-109,937	-0,045	-0,007
-314,212	800,000	-0,065	0,141
-313,197	-200,000	-0,002	0,038
-312,183	10,848	0,122	-0,068
-311,168	800,000	-0,042	-0,088
-310,153	23,821	-0,016	0,010
-309,139	89,103	-0,045	0,037
-308,124	255,060	0,100	-0,126
-307,110	101,908	0,007	-0,006
-306,095	-125,159	-0,126	-0,014
-305,080	24,525	-0,098	0,059
-304,066	536,920	0,029	-0,050
-303,051	-200,000	-0,015	-0,069
-302,037	-49,213	0,023	-0,008
-301,022	-200,000	-0,005	-0,032
-300,008	304,907	0,096	0,130
-298,993	207,591	-0,051	-0,058
-297,978	-13,665	-0,129	0,061
-296,964	674,900	-0,067	0,129
-295,949	-200,000	0,027	-0,103
-294,935	71,483	-0,104	-0,079
-293,920	-200,000	0,030	-0,101
-292,905	-200,000	-0,002	0,044
-291,891	-98,441	0,026	-0,005
-290,876	-200,000	-0,034	-0,132
-289,862	800,000	0,046	0,100
-288,847	-110,242	-0,107	0,016
-287,832	-109,709	0,037	0,006
-286,818	-24,839	0,104	0,045
-285,803	120,559	0,137	0,124
-284,789	-17,828	0,096	0,044
-283,774	-136,844	0,056	0,005
-282,759	-200,000	-0,010	0,039
-281,745	-70,679	-0,061	-0,017
-280,730	-100,948	-0,103	0,018
-279,716	-200,000	-0,001	-0,040
-278,701	-86,047	0,083	0,019
-277,686	15,047	0,120	-0,069
-276,672	13,004	0,271	0,153
-275,657	-200,000	0,013	-0,091
-274,643	-51,990	0,022	0,007
-273,628	-38,363	-0,137	-0,053
-272,613	-56,323	-0,068	-0,022
-271,599	-135,853	0,133	-0,011
-270,584	-99,368	-0,142	0,026
-269,570	-144,990	0,061	0,004
-268,555	-31,926	-0,054	0,022
-267,540	-18,881	0,073	-0,033
-266,526	197,789	-0,059	-0,066
-265,511	-49,960	-0,056	0,019
-264,497	-200,000	0,022	0,123
-263,482	800,000	0,080	0,172
-262,467	-93,882	0,051	-0,010
-261,453	800,000	0,045	0,114
-260,438	147,619	-0,076	-0,075
-259,424	21,540	-0,101	-0,060
-258,409	-200,000	-0,008	-0,035
-257,395	88,475	0,045	0,036
-256,380	457,230	-0,060	-0,097
-255,365	379,652	-0,047	0,071
-254,351	-32,567	-0,103	-0,042
-253,336	-200,000	-0,017	-0,069
-252,322	52,205	0,116	-0,081
-251,307	89,780	-0,049	0,040
-250,292	117,507	0,033	0,029
-249,278	-200,000	0,011	-0,052
-248,263	-43,160	-0,060	0,022
-247,249	-75,036	-0,079	0,021
-246,234	-122,906	0,059	-0,007
-245,219	-102,976	0,114	-0,020
-244,205	800,000	0,017	-0,045
-243,190	743,776	0,051	0,100
-242,176	-103,368	-0,011	0,002
-241,161	112,308	-0,025	-0,022
-240,146	-200,000	0,024	-0,083
-239,132	231,868	-0,049	-0,059
-238,117	-200,000	0,001	-0,018
-237,103	-200,000	0,018	0,060
-236,088	-156,002	-0,133	0,006
-235,073	-28,245	0,096	-0,040
-234,059	162,348	0,134	0,137
-233,044	-200,000	0,001	0,135
-232,030	-200,000	-0,010	-0,099
-231,015	-200,000	0,019	-0,137
-230,000	-135,142	0,100	-0,009
-228,986	-29,854	-0,058	-0,024
-227,971	507,248	0,081	0,138
-226,957	800,000	-0,085	0,185
-225,942	3,462	0,078	-0,041
-224,927	458,447	-0,015	-0,025
-223,913	-30,957	0,073	0,030
-222,898	-200,000	-0,011	0,072
-221,884	-200,000	-0,010	0,069
-220,869	-200,000	0,012	0,093
-219,855	80,155	-0,101	-0,079
-218,840	-137,115	0,056	0,005
-217,825	358,996	-0,096	0,141
-216,811	800,000	0,071	0,206
-215,796	-84,360	-0,238	0,055
-214,782	-185,020	0,119	0,001
-213,767	-114,170	0,040	0,006
-212,752	-200,000	-0,005	0,020
-211,738	375,872	-0,029	0,043
-210,723	230,672	-0,074	-0,089
-209,709	25,277	0,070	-0,042
-208,694	45,002	-0,052	-0,035
-207,679	-51,122	-0,083	-0,028
-206,665	-30,038	0,083	0,034
-205,650	-93,483	0,097	0,019
-204,636	326,758	0,037	0,052
-203,621	800,000	-0,041	0,092
-202,606	800,000	0,017	0,047
-201,592	-200,000	0,002	-0,212
-200,577	-200,000	0,030	0,183
-199,563	305,017	-0,015	0,020
-198,548	-106,395	-0,060	0,010
-197,533	-200,000	-0,005	0,054
-196,519	-200,000	-0,022	0,144
-195,504	-17,090	-0,032	0,014
-194,490	-200,000	-0,032	-0,163
-193,475	400,846	0,038	-0,058
-192,460	-116,163	-0,157	-0,021
-191,446	179,765	0,070	0,075
-190,431	20,627	0,066	-0,039
-189,417	340,832	0,104	0,148
-188,402	69,663	0,099	0,075
-187,387	-200,000	0,004	0,122
-186,373	-200,000	0,017	0,085
-185,358	-104,875	0,133	-0,022
-184,344	800,000	0,014	-0,041
-183,329	-200,000	-0,023	0,122
-182,315	-200,000	-0,016	0,053
-181,300	349,521	0,067	0,097
-180,285	-14,687	-0,027	-0,012
-179,271	-18,239	0,036	0,016
-178,256	155,606	-0,022	-0,022
-177,242	792,178	0,030	0,060
-176,227	26,911	0,048	-0,029
-175,212	-58,006	0,055	0,017
-174,198	197,502	0,071	0,079
-173,183	141,775	0,028	-0,027
-172,169	360,428	0,103	-0,151
-171,154	-200,000	-0,015	-0,067
-170,139	-200,000	0,016	0,083
-169,125	-83,610	0,079	0,018
-168,110	92,624	0,064	0,052
-167,096	55,621	-0,019	-0,014
-166,081	-162,820	-0,063	0,002
-165,066	369,108	0,028	-0,041
-164,052	444,766	-0,032	-0,052
-163,037	299,375	0,073	-0,098
-162,023	182,420	0,093	0,100
-161,008	244,356	0,041	0,050
-159,993	-200,000	-0,027	0,000
-158,979	110,577	-0,048	0,042
-157,964	561,571	-0,116	-0,206
-156,950	800,000	0,040	0,108
-155,935	64,340	0,096	-0,070
-154,920	800,000	0,027	-0,083
-153,906	-40,500	0,090	0,034
-152,891	55,095	0,033	0,023
-151,877	-17,984	-0,053	-0,024
-150,862	-65,057	-0,126	0,037
-149,847	-39,725	0,075	-0,029
-148,833	-200,000	-0,025	0,102
-147,818	-83,272	0,110	0,025
-146,804	236,321	-0,111	0,134
-145,789	2,344	0,127	0,067
-144,775	800,000	0,031	0,083
-143,760	83,448	0,069	-0,054
-142,745	-76,710	-0,174	0,044
-141,731	25,110	0,163	0,098
-140,716	-200,000	-0,012	0,062
-139,702	293,005	-0,043	-0,057
-138,687	-200,000	0,004	-0,024
-137,672	98,219	0,086	0,072
-136,658	171,257	0,009	0,009
-135,643	-188,673	-0,132	-0,001
-134,629	-140,138	0,062	0,005
-133,614	5,658	0,032	0,017
-132,599	800,000	-0,029	-0,078
-131,585	-100,897	-0,117	0,021
-130,570	-200,000	0,020	0,143
-129,556	268,925	-0,038	0,048
-128,541	-76,296	-0,072	-0,018
-127,526	119,689	0,062	-0,056
-126,512	-55,243	-0,031	0,010
-125,497	-44,147	0,014	0,005
-124,483	800,000	-0,030	0,090
-123,468	800,000	-0,025	0,070
-122,453	304,313	-0,037	-0,050
-121,439	-200,000	-0,066	-0,216
-120,424	-75,746	-0,183	0,047
-119,410	60,297	0,086	0,062
-118,395	800,000	0,060	0,126
-117,380	-135,807	0,137	0,012
-116,366	181,087	-0,155	0,166
-115,351	-14,399	-0,102	-0,048
-114,337	-81,450	-0,076	-0,018
-113,322	257,958	0,027	0,034
-112,307	800,000	-0,033	0,075
-111,293	-74,480	0,063	0,016
-110,278	356,761	0,028	0,041
-109,264	34,866	-0,084	0,054
-108,249	-27,295	-0,154	0,065
-107,234	-69,593	-0,104	-0,029
-106,220	65,268	0,075	0,055
-105,205	-139,719	0,130	0,010
-104,191	-200,000	-0,003	-0,044
-103,176	-4,456	-0,071	0,036
-102,162	-200,000	-0,011	-0,081
-101,147	-200,000	0,025	0,099
-100,132	75,635	0,081	-0,063
-99,118	-106,976	0,147	0,023
-98,103	36,480	0,024	0,015
-97,089	20,760	0,056	-0,033
-96,074	102,968	0,049	0,042
-95,059	130,217	0,081	-0,075
-94,045	22,457	-0,074	-0,044
-93,030	-200,000	0,008	-0,075
-92,016	146,255	0,016	-0,016
-91,001	82,124	0,085	-0,067
-89,986	48,586	0,007	-0,005
-88,972	141,943	-0,135	0,130
-87,957	-69,779	0,058	-0,016
-86,943	-200,000	0,003	-0,169
-85,928	-140,115	0,154	0,012
-84,913	-200,000	0,001	0,060
-83,899	209,703	0,060	0,069
-82,884	-200,000	0,021	0,080
-81,870	508,325	-0,067	0,114
-80,855	-6,529	0,117	0,057
-79,840	142,985	-0,107	0,104
-78,826	-140,069	-0,107	-0,008
-77,811	247,336	0,030	0,036
-76,797	-143,332	0,049	0,003
-75,782	171,597	0,117	-0,122
-74,767	-200,000	0,007	-0,174
-73,753	-128,594	0,081	0,008
-72,738	23,202	-0,075	-0,045
-71,724	138,383	-0,082	-0,078
-70,709	-200,000	0,015	0,081
-69,694	-190,611	0,130	0,001
-68,680	-183,377	-0,067	-0,001
-67,665	-159,581	0,076	-0,003
-66,651	382,779	-0,014	-0,020
-65,636	-174,539	-0,123	0,002
-64,622	-132,416	-0,152	0,014
-63,607	413,591	0,032	-0,049
-62,592	-200,000	0,020	-0,094
-61,578	99,899	0,055	-0,046
-60,563	-131,029	0,130	-0,012
-59,549	800,000	-0,037	0,081
-58,534	-133,037	-1,340	-0,122
-57,519	566,836	-0,865	-1,530
-56,505	-200,000	-0,811	-4,355
-55,490	-43,432	0,576	-0,210
-54,476	800,000	4,942	11,658
-53,461	-200,000	14,054	255,090
-52,446	-200,000	695,094	2265,778
-51,432	599,035	1625,212	2937,667
-50,417	117,659	1633,489	1458,887
-49,403	73,819	1287,412	978,393
-48,388	37,448	1023,990	657,518
-47,373	23,933	982,268	586,232
-46,359	23,209	971,777	577,574
-45,344	22,165	967,318	571,486
-44,330	22,118	965,842	570,438
-43,315	21,967	964,501	569,132
-42,300	21,940	963,514	568,438
-41,286	21,980	962,365	567,868
-40,271	21,954	961,352	567,162
-39,257	21,891	960,525	566,449
-38,242	21,904	959,488	565,857
-37,227	21,813	958,943	565,219
-36,213	21,907	957,928	564,902
-35,198	21,882	956,935	564,212
-34,184	21,902	956,381	563,928
-33,169	21,904	955,514	563,400
-32,154	21,993	954,427	563,026
-31,140	21,924	953,733	562,371
-30,125	21,943	952,991	561,972
-29,111	21,923	952,163	561,398
-28,096	21,929	951,462	560,983
-27,082	21,937	950,619	560,488
-26,067	21,988	949,725	560,102
-25,052	21,976	949,029	559,631
-24,038	21,970	948,369	559,200
-23,023	21,900	948,068	558,775
-22,009	21,992	947,245	558,564
-20,994	22,008	946,659	558,249
-19,979	21,960	945,991	557,678
-18,965	21,910	945,334	557,109
-17,950	21,924	944,824	556,831
-16,936	21,859	944,161	556,210
-15,921	21,860	943,221	555,639
-14,906	21,863	942,496	555,196
-13,892	21,816	942,159	554,829
-12,877	21,759	941,426	554,191
-11,863	21,747	940,855	553,797
-10,848	21,821	940,111	553,571
-9,833	21,874	939,775	553,522
-8,819	21,871	939,230	553,167
-7,804	21,811	938,417	552,478
-6,790	21,809	937,832	552,103
-5,775	21,876	937,237	551,944
-4,760	21,809	936,721	551,407
-3,746	21,773	936,132	550,923
-2,731	21,645	935,415	550,076
-1,717	21,610	934,773	549,565
-0,702	21,603	934,045	549,095
0,313	21,439	933,276	548,955
1,327	23,899	930,861	555,222
2,342	31,371	808,759	502,654
3,356	25,746	509,147	306,800
4,371	1,116	373,955	193,936
5,386	-1,924	357,102	181,440
6,400	-3,012	351,106	177,060
7,415	-3,240	348,643	175,527
8,429	-3,116	347,222	174,945
9,444	-3,240	346,332	174,334
10,459	-3,074	345,691	174,193
11,473	-3,230	345,080	173,684
12,488	-3,184	344,407	173,385
13,502	-3,331	343,771	172,874
14,517	-3,235	343,390	172,781
15,531	-3,125	342,917	172,658
16,546	-3,211	342,504	172,333
17,561	-2,996	342,069	172,353
18,575	-2,958	341,663	172,177
19,590	-3,108	341,352	171,828
20,604	-2,918	341,023	171,871
21,619	-2,962	340,451	171,516
22,634	-3,092	340,224	171,233
23,648	-3,115	339,918	171,038
24,663	-2,972	339,483	170,971
25,677	-3,032	339,287	170,786
26,692	-3,101	339,059	170,575
27,707	-3,019	338,666	170,459
28,721	-3,029	338,385	170,290
29,736	-2,930	338,027	170,210
30,750	-2,926	337,601	169,986
31,765	-3,081	337,506	169,742
32,780	-3,106	337,136	169,512
33,794	-2,952	336,891	169,552
34,809	-3,077	336,570	169,231
35,823	-3,122	336,256	169,006
36,838	-3,007	336,065	169,028
37,853	-3,055	335,718	168,782
38,867	-3,072	335,566	168,671
39,882	-2,979	335,185	168,572
40,896	-3,026	334,892	168,356
41,911	-3,039	334,753	168,255
42,926	-2,898	334,359	168,205
43,940	-3,073	334,063	167,840
44,955	-3,015	333,823	167,771
45,969	-3,119	333,532	167,491
46,984	-3,099	333,397	167,430
47,999	-3,104	333,202	167,312
49,013	-3,088	332,880	167,153
50,028	-3,052	332,591	167,035
51,042	-3,043	332,306	166,887
52,057	-3,002	332,155	166,844
53,071	-3,143	331,882	166,530
54,086	-3,135	331,700	166,433
55,101	-2,953	331,273	166,412
56,115	-3,004	331,100	166,251
57,130	-2,968	330,747	166,100
58,144	-3,078	330,449	165,811
59,159	-2,920	330,242	165,871
60,174	-3,099	330,052	165,558
61,188	-3,181	329,804	165,326
62,203	-3,157	329,412	165,143
63,217	-2,936	329,107	165,224
64,232	-3,033	328,920	165,007
65,247	-3,137	328,601	164,714
66,261	-3,095	328,255	164,574
67,276	-3,200	328,053	164,339
68,290	-3,115	327,977	164,382
69,305	-3,054	327,614	164,255
70,320	-3,007	327,407	164,189
71,334	-3,031	327,122	164,004
72,349	-3,066	326,804	163,790
73,363	-3,045	326,471	163,632
74,378	-3,227	326,373	163,365
75,393	-2,997	326,044	163,443
76,407	-2,977	325,773	163,315
77,422	-3,027	325,637	163,177
78,436	-2,929	325,317	163,111
79,451	-3,030	325,051	162,850
80,466	-3,033	324,790	162,702
81,480	-3,062	324,684	162,602
82,495	-2,940	324,356	162,559
83,509	-2,909	324,019	162,410
84,524	-2,853	323,722	162,309
85,539	-2,897	323,473	162,120
86,553	-2,899	323,455	162,095
87,568	-3,056	323,123	161,740
88,582	-2,847	322,807	161,799
89,597	-2,909	322,653	161,639
90,611	-2,988	322,336	161,378
91,626	-2,991	322,144	161,264
92,641	-3,117	321,883	160,980
93,655	-3,015	321,843	161,058
94,670	-3,049	321,638	160,904
95,684	-3,158	321,394	160,647
96,699	-3,025	321,111	160,638
97,714	-3,065	320,797	160,422
98,728	-3,076	320,617	160,307
99,743	-2,982	320,437	160,305
100,757	-2,953	320,157	160,183
101,772	-2,971	319,826	159,984
102,787	-3,118	319,590	159,690
103,801	-3,026	319,385	159,674
104,816	-3,024	319,181	159,561
105,830	-2,977	318,851	159,432
106,845	-3,032	318,813	159,339
107,860	-2,929	318,353	159,206
108,874	-2,969	318,213	159,080
109,889	-3,035	317,954	158,864
110,903	-2,991	317,674	158,757
111,918	-3,166	317,498	158,466
112,933	-3,183	317,424	158,396
113,947	-3,173	317,051	158,207
114,962	-3,046	316,791	158,201
115,976	-3,056	316,720	158,140
116,991	-3,026	316,302	157,949
118,006	-3,004	316,104	157,860
119,020	-2,983	316,010	157,821
120,035	-3,009	315,719	157,634
121,049	-3,019	315,597	157,548
122,064	-3,025	315,446	157,452
123,079	-2,904	315,055	157,374
124,093	-2,998	314,898	157,180
125,108	-3,085	314,720	156,983
126,122	-2,848	314,444	157,086
127,137	-2,959	314,232	156,847
128,151	-2,926	314,145	156,825
129,166	-3,023	313,896	156,583
130,181	-2,871	313,528	156,548
131,195	-3,013	313,309	156,273
132,210	-3,160	313,200	156,048
133,224	-3,172	312,991	155,917
134,239	-2,995	312,601	155,897
135,254	-2,855	312,327	155,896
136,268	-3,033	312,295	155,677
137,283	-3,095	312,041	155,471
138,297	-2,994	311,811	155,450
139,312	-2,937	311,396	155,289
140,327	-2,812	311,166	155,293
141,341	-2,997	311,074	155,037
142,356	-2,997	310,784	154,878
143,370	-2,892	310,594	154,881
144,385	-2,954	310,575	154,793
145,400	-2,898	310,267	154,685
146,414	-2,845	309,984	154,585
147,429	-2,992	309,676	154,263
148,443	-2,962	309,505	154,195
149,458	-3,006	309,274	154,020
150,473	-3,070	309,083	153,844
151,487	-3,179	308,961	153,655
152,502	-3,013	308,715	153,693
153,516	-2,909	308,536	153,700
154,531	-2,920	308,383	153,598
155,546	-3,108	308,042	153,218
156,560	-2,856	307,924	153,410
157,575	-2,920	307,662	153,199
158,589	-3,067	307,495	152,947
159,604	-3,025	307,318	152,890
160,619	-2,899	307,051	152,875
161,633	-2,928	306,842	152,728
162,648	-2,813	306,575	152,701
163,662	-2,875	306,312	152,492
164,677	-3,184	306,320	152,160
165,692	-3,011	306,055	152,195
166,706	-2,964	305,817	152,112
167,721	-2,883	305,648	152,098
168,735	-2,807	305,485	152,082
169,750	-2,902	305,239	151,848
170,764	-2,911	305,098	151,755
171,779	-3,154	304,845	151,364
172,794	-2,904	304,587	151,480
173,808	-2,778	304,312	151,461
174,823	-3,064	304,258	151,125
175,837	-2,825	303,994	151,227
176,852	-2,883	303,722	151,018
177,867	-2,875	303,447	150,877
178,881	-2,922	303,370	150,776
179,896	-2,850	303,152	150,729
180,910	-2,835	302,893	150,602
181,925	-2,761	302,692	150,565
182,940	-3,068	302,654	150,216
183,954	-2,837	302,296	150,262
184,969	-2,704	302,162	150,320
185,983	-2,816	302,146	150,183
186,998	-2,822	301,919	150,051
188,013	-2,822	301,700	149,928
189,027	-2,890	301,409	149,701
190,042	-2,987	301,170	149,470
191,056	-3,013	300,937	149,314
192,071	-2,963	300,788	149,277
193,086	-3,007	300,513	149,083
194,100	-3,116	300,297	148,852
195,115	-3,017	300,208	148,895
196,129	-2,880	299,899	148,868
197,144	-2,955	299,598	148,629
198,159	-2,915	299,434	148,575
199,173	-2,912	299,168	148,432
200,188	-3,148	298,930	148,063
201,202	-3,063	298,697	148,020
202,217	-2,853	298,595	148,169
203,232	-2,886	298,366	148,008
204,246	-2,970	298,065	147,761
205,261	-2,882	297,960	147,785
206,275	-2,988	297,767	147,568
207,290	-2,846	297,585	147,608
208,304	-2,806	297,372	147,530
209,319	-2,868	297,139	147,338
210,334	-2,820	296,993	147,301
211,348	-2,876	296,863	147,168
212,363	-2,741	296,540	147,130
213,377	-2,681	296,341	147,078
214,392	-2,968	296,277	146,745
215,407	-2,827	296,028	146,751
216,421	-2,954	295,694	146,445
217,436	-3,046	295,564	146,275
218,450	-2,923	295,334	146,271
219,465	-2,948	295,140	146,138
220,480	-2,949	295,087	146,096
221,494	-2,963	294,816	145,935
222,509	-2,796	294,580	145,973
223,523	-3,076	294,547	145,665
224,538	-2,831	294,271	145,758
225,553	-3,006	294,200	145,536
226,567	-2,866	293,809	145,469
227,582	-2,949	293,664	145,301
228,596	-2,970	293,496	145,185
229,611	-2,921	293,280	145,113
230,626	-3,020	293,078	144,903
231,640	-3,149	292,958	144,702
232,655	-2,887	292,810	144,877
233,669	-2,872	292,529	144,739
234,684	-2,937	292,376	144,586
235,699	-2,930	292,270	144,527
236,713	-2,985	292,045	144,349
237,728	-2,865	291,681	144,274
238,742	-2,905	291,632	144,197
239,757	-2,989	291,470	144,023
240,772	-3,157	291,245	143,733
241,786	-3,058	290,836	143,616
242,801	-2,934	290,757	143,685
243,815	-3,050	290,733	143,547
244,830	-2,741	290,360	143,653
245,844	-3,012	290,191	143,292
246,859	-3,056	290,036	143,159
247,874	-3,100	289,767	142,970
248,888	-2,967	289,541	142,976
249,903	-2,980	289,434	142,898
250,917	-3,007	289,202	142,744
251,932	-2,945	289,046	142,714
252,947	-3,304	288,596	142,130
253,961	-3,857	288,200	141,384
254,976	-4,342	287,855	140,731
255,990	-4,538	287,830	140,516
257,005	-3,227	288,068	141,894
258,020	-0,963	288,916	144,505
259,034	0,585	289,309	146,198
260,049	1,239	289,269	146,800
261,063	1,660	289,296	147,211
262,078	1,753	289,275	147,277
263,093	2,159	289,030	147,535
264,107	2,321	289,018	147,672
265,122	2,528	288,972	147,837
266,136	2,600	288,788	147,799
267,151	2,555	288,581	147,636
268,166	2,527	288,437	147,523
269,180	2,599	288,195	147,455
270,195	2,515	288,035	147,279
271,209	2,585	287,857	147,242
272,224	2,437	287,717	147,015
273,239	2,450	287,468	146,887
274,253	2,376	287,230	146,681
275,268	2,390	286,969	146,548
276,282	2,425	286,813	146,489
277,297	2,350	286,550	146,269
278,312	2,515	286,384	146,331
279,326	2,353	286,305	146,121
280,341	2,245	286,025	145,861
281,355	2,357	285,904	145,894
282,370	2,449	285,663	145,847
283,384	2,175	285,589	145,533
284,399	2,454	285,309	145,645
285,414	2,437	285,109	145,513
286,428	2,266	284,917	145,239
287,443	2,372	284,611	145,171
288,457	2,182	284,663	145,003
289,472	2,138	284,403	144,816
290,487	2,299	284,057	144,780
291,501	2,434	283,928	144,829
292,516	2,228	283,763	144,537
293,530	2,339	283,632	144,563
294,545	2,212	283,351	144,286
295,560	2,454	283,152	144,402
296,574	2,307	282,977	144,160
297,589	2,109	282,903	143,922
298,603	2,174	282,632	143,832
299,618	2,309	282,602	143,932
300,633	2,315	282,369	143,806
301,647	2,200	282,343	143,672
302,662	2,295	282,104	143,628
303,676	2,163	282,026	143,450
304,691	2,338	281,723	143,448
305,706	2,424	281,507	143,406
306,720	2,511	281,284	143,362
307,735	2,489	281,181	143,275
308,749	2,698	280,973	143,354
309,764	2,547	280,829	143,125
310,779	2,512	280,602	142,964
311,793	2,462	280,285	142,743
312,808	2,310	280,171	142,530
313,822	2,278	280,082	142,442
314,837	2,372	279,826	142,387
315,852	2,329	279,671	142,255
316,866	2,350	279,587	142,219
317,881	2,439	279,257	142,122
318,895	2,276	279,148	141,902
319,910	2,338	278,871	141,805
320,925	2,335	278,713	141,710
321,939	2,512	278,589	141,799
322,954	2,369	278,355	141,535
323,968	2,339	278,388	141,511
324,983	2,513	278,080	141,503
325,997	2,504	277,861	141,371
327,012	2,495	277,714	141,275
328,027	2,526	277,680	141,274
329,041	2,473	277,425	141,082
330,056	2,362	277,200	140,852
331,070	2,564	277,064	140,959
332,085	2,472	276,739	140,695
333,100	2,375	276,665	140,555
334,114	2,543	276,425	140,576
335,129	2,481	276,306	140,446
336,143	2,531	276,184	140,417
337,158	2,472	276,029	140,272
338,173	2,568	275,779	140,220
339,187	2,563	275,627	140,126
340,202	2,451	275,398	139,894
341,216	2,544	275,239	139,886
342,231	2,501	275,151	139,790
343,246	2,496	274,996	139,693
344,260	2,620	274,709	139,649
345,275	2,704	274,534	139,625
346,289	2,605	274,319	139,413
347,304	2,594	274,121	139,289
348,319	2,443	274,011	139,083
349,333	2,524	273,881	139,078
350,348	2,624	273,592	139,010
351,362	2,345	273,509	138,702
352,377	2,403	273,449	138,711
353,392	2,403	273,179	138,562
354,406	2,603	272,930	138,606
355,421	191,054	1350,058	1429,594
356,435	154,233	1481,389	1429,730
