DTS Sentinel unit serial number:	SN410029Multiplexer serial number:	ORYXHardware model number:	OX2-SRSoftware version number:	ORYX F/W v4,00 Oryx Data Collector v3.7.2.0data status	okinstallation	B4 Nyhavnadifferential loss correction	single-endedforward channel	channel 2reverse channel	N/Adate	2023/12/18time	21:55:13forward acquisition time	300,00reverse acquisition time	0,00gamma	499,1914k internal	0,3124k external	0,3124temperature offset calibration	1,0000default loss term (dB/km)	0,3820temperature slope calibration	1,0000multiplexer offset coefficient	1,0000multiplexer slope coefficient	1,0000fibre end	0,00T internal ref (°C)	21,85T ext. ref 1 (°C)	7,20T ext. ref 2 (°C)	7,14length (m)	temperature (°C)	Stokes	anti-Stokes-744,400	150,918	0,067	-0,068
-743,385	87,153	-0,233	0,191
-742,371	-200,000	-0,019	-0,104
-741,356	136,143	-0,227	0,221
-740,342	-17,502	0,163	0,076
-739,327	-68,757	-0,257	0,074
-738,312	118,229	-0,061	-0,056
-737,298	-44,414	-0,343	0,127
-736,283	-6,334	0,174	-0,088
-735,269	-14,863	-0,290	0,138
-734,254	63,517	0,034	0,025
-733,239	51,320	-0,243	-0,172
-732,225	329,576	0,056	-0,080
-731,210	246,901	-0,039	0,049
-730,196	-126,587	0,093	0,010
-729,181	94,448	0,042	-0,036
-728,167	-200,000	0,012	0,058
-727,152	174,037	-0,091	-0,099
-726,137	784,008	0,015	-0,031
-725,123	336,746	-0,076	-0,110
-724,108	139,197	-0,156	-0,153
-723,094	48,222	-0,176	-0,122
-722,079	800,000	-0,030	-0,083
-721,064	78,844	-0,036	0,029
-720,050	157,967	-0,036	-0,037
-719,035	-106,918	-0,042	-0,007
-718,021	170,538	0,044	0,047
-717,006	-37,369	-0,118	-0,047
-715,991	-200,000	0,000	-0,013
-714,977	800,000	0,022	-0,059
-713,962	36,557	0,083	-0,055
-712,948	-200,000	0,007	0,086
-711,933	93,291	-0,011	-0,009
-710,918	22,105	-0,073	-0,044
-709,904	-200,000	0,025	-0,168
-708,889	800,000	-0,049	-0,121
-707,875	-140,141	0,155	0,012
-706,860	193,272	-0,022	-0,025
-705,845	223,754	-0,042	0,050
-704,831	204,768	-0,043	0,050
-703,816	800,000	0,033	-0,085
-702,802	-200,000	0,014	0,083
-701,787	-74,149	-0,179	0,048
-700,772	16,002	-0,069	-0,041
-699,758	-102,166	-0,142	0,025
-698,743	635,125	0,070	0,133
-697,729	111,074	-0,111	0,099
-696,714	134,509	0,084	0,081
-695,699	244,094	0,016	0,020
-694,685	-15,793	-0,069	-0,032
-693,670	115,588	0,073	-0,066
-692,656	-200,000	0,007	0,047
-691,641	800,000	-0,052	0,144
-690,627	-86,274	0,197	0,045
-689,612	-200,000	-0,005	-0,042
-688,597	5,575	0,047	0,026
-687,583	175,270	0,056	-0,060
-686,568	168,570	0,051	-0,054
-685,554	-200,000	0,008	-0,117
-684,539	-200,000	0,012	0,052
-683,524	-54,224	0,051	-0,017
-682,510	-70,452	-0,122	0,034
-681,495	154,885	-0,105	-0,107
-680,481	-51,654	-0,069	-0,024
-679,466	61,220	-0,145	-0,107
-678,451	212,769	-0,071	0,084
-677,437	457,883	0,029	-0,048
-676,422	-200,000	-0,016	0,084
-675,408	176,455	0,025	-0,027
-674,393	9,139	0,019	0,011
-673,378	192,255	-0,033	-0,038
-672,364	240,738	-0,088	-0,109
-671,349	555,528	-0,073	0,131
-670,335	800,000	0,033	0,093
-669,320	89,677	0,060	0,050
-668,305	-200,000	-0,024	0,091
-667,291	-200,000	-0,031	-0,126
-666,276	-200,000	-0,000	-0,053
-665,262	55,666	-0,073	-0,053
-664,247	-200,000	0,003	-0,031
-663,232	800,000	0,017	0,049
-662,218	-148,390	-0,043	0,003
-661,203	493,227	0,089	0,152
-660,189	-200,000	-0,015	0,132
-659,174	-200,000	-0,010	-0,071
-658,159	207,325	-0,058	-0,067
-657,145	-200,000	0,028	-0,109
-656,130	-200,000	-0,007	-0,088
-655,116	-117,181	0,107	-0,014
-654,101	-170,887	0,041	-0,001
-653,086	207,680	-0,037	0,043
-652,072	40,720	0,099	-0,066
-651,057	-47,132	-0,110	-0,039
-650,043	-45,641	-0,028	-0,010
-649,028	-86,536	0,107	0,024
-648,014	30,681	-0,047	0,030
-646,999	-39,462	-0,024	-0,009
-645,984	105,483	-0,055	-0,048
-644,970	30,958	-0,086	-0,054
-643,955	343,188	-0,031	-0,045
-642,941	335,978	-0,053	-0,076
-641,926	260,205	0,082	-0,105
-640,911	63,436	-0,101	0,075
-639,897	452,063	0,078	0,129
-638,882	27,647	0,136	0,085
-637,868	-200,000	0,020	0,100
-636,853	325,171	-0,028	-0,039
-635,838	2,051	-0,056	0,030
-634,824	-200,000	0,022	-0,146
-633,809	-50,268	0,216	-0,075
-632,795	68,035	0,075	-0,057
-631,780	17,454	0,103	-0,061
-630,765	59,988	-0,070	0,051
-629,751	-200,000	-0,007	-0,152
-628,736	29,970	-0,061	-0,039
-627,722	800,000	0,024	-0,051
-626,707	800,000	0,030	-0,072
-625,692	-200,000	0,009	-0,037
-624,678	-17,928	-0,119	-0,055
-623,663	166,942	-0,090	0,095
-622,649	-48,278	-0,202	-0,072
-621,634	21,294	-0,066	-0,040
-620,619	59,401	-0,059	-0,043
-619,605	32,833	0,080	0,051
-618,590	-200,000	-0,013	-0,048
-617,576	38,076	0,038	0,025
-616,561	76,037	0,079	-0,062
-615,546	231,316	-0,045	-0,055
-614,532	-79,792	-0,088	0,022
-613,517	413,724	0,041	-0,064
-612,503	50,838	-0,126	-0,088
-611,488	-200,000	-0,011	0,140
-610,474	590,537	0,025	0,047
-609,459	656,582	0,045	-0,086
-608,444	253,140	-0,066	-0,084
-607,430	482,434	0,012	-0,021
-606,415	800,000	0,071	-0,157
-605,401	211,552	0,044	0,052
-604,386	30,094	0,079	0,050
-603,371	-200,000	-0,021	-0,085
-602,357	185,132	-0,048	0,053
-601,342	27,062	-0,107	-0,066
-600,328	-101,676	-0,156	-0,028
-599,313	218,187	-0,086	-0,102
-598,298	-34,649	0,045	0,018
-597,284	166,386	0,078	0,082
-596,269	86,851	0,149	0,121
-595,255	-200,000	0,043	0,149
-594,240	-79,422	0,080	0,020
-593,225	399,306	-0,042	-0,065
-592,211	677,115	-0,020	0,039
-591,196	800,000	-0,073	-0,157
-590,182	-200,000	0,007	0,051
-589,167	165,001	0,064	0,067
-588,152	241,902	-0,085	0,106
-587,138	-31,398	0,119	0,050
-586,123	-22,566	-0,173	0,077
-585,109	16,432	-0,136	-0,079
-584,094	800,000	-0,027	0,083
-583,079	-68,591	-0,038	-0,011
-582,065	800,000	0,035	0,110
-581,050	25,265	0,034	0,021
-580,036	800,000	0,020	-0,046
-579,021	800,000	0,009	0,025
-578,006	135,555	-0,090	-0,086
-576,992	-200,000	-0,008	0,055
-575,977	-108,754	0,064	0,010
-574,963	-200,000	-0,006	0,159
-573,948	-200,000	0,013	0,051
-572,934	146,613	0,047	0,047
-571,919	609,891	-0,047	0,087
-570,904	-200,000	-0,011	-0,101
-569,890	-200,000	0,006	-0,027
-568,875	-136,416	-0,111	-0,009
-567,861	-200,000	-0,001	-0,017
-566,846	377,151	0,059	0,089
-565,831	-200,000	0,013	-0,082
-564,817	-200,000	0,020	-0,146
-563,802	-200,000	0,006	-0,078
-562,788	85,508	-0,073	0,059
-561,773	800,000	0,041	-0,124
-560,758	-80,473	0,059	0,014
-559,744	-200,000	-0,011	0,047
-558,729	-200,000	-0,050	0,199
-557,715	-200,000	0,035	0,118
-556,700	-200,000	-0,006	-0,071
-555,685	338,902	0,053	-0,077
-554,671	-200,000	-0,017	-0,061
-553,656	-104,357	0,080	-0,014
-552,642	-62,029	0,090	0,028
-551,627	-200,000	0,021	0,129
-550,612	587,107	0,018	-0,034
-549,598	63,365	0,037	-0,027
-548,583	562,423	-0,086	-0,155
-547,569	326,235	-0,068	-0,096
-546,554	-65,470	0,095	-0,028
-545,539	-200,000	-0,001	0,085
-544,525	298,553	0,037	0,050
-543,510	51,149	-0,126	-0,088
-542,496	283,108	-0,039	-0,052
-541,481	800,000	0,057	0,121
-540,466	794,814	0,036	0,073
-539,452	35,239	-0,074	0,048
-538,437	-200,000	-0,021	0,071
-537,423	85,593	0,108	0,088
-536,408	-200,000	0,009	-0,057
-535,393	800,000	0,015	0,048
-534,379	-200,000	-0,032	0,114
-533,364	800,000	0,032	-0,094
-532,350	89,012	0,036	0,030
-531,335	800,000	-0,026	0,053
-530,321	-57,605	-0,048	-0,015
-529,306	16,485	0,090	0,053
-528,291	-91,578	-0,093	-0,019
-527,277	-8,010	-0,016	0,008
-526,262	800,000	0,013	0,042
-525,248	140,524	-0,081	-0,079
-524,233	-200,000	-0,016	0,115
-523,218	-149,078	0,112	-0,007
-522,204	800,000	-0,038	-0,081
-521,189	126,691	-0,084	0,078
-520,175	55,255	-0,057	0,041
-519,160	45,270	-0,175	-0,119
-518,145	-200,000	0,044	-0,183
-517,131	-182,543	0,112	0,001
-516,116	800,000	0,032	-0,075
-515,102	-131,916	-0,084	0,008
-514,087	-159,919	0,119	0,005
-513,072	800,000	0,048	-0,109
-512,058	-154,011	-0,073	-0,004
-511,043	-166,601	-0,026	-0,001
-510,029	-200,000	0,023	0,074
-509,014	-200,000	-0,010	-0,063
-507,999	800,000	-0,016	-0,047
-506,985	800,000	-0,013	0,036
-505,970	800,000	-0,036	-0,100
-504,956	68,546	-0,092	0,069
-503,941	-200,000	0,003	0,035
-502,926	-200,000	0,011	-0,170
-501,912	-200,000	0,005	0,186
-500,897	104,655	-0,055	-0,048
-499,883	-55,892	0,122	-0,040
-498,868	800,000	-0,024	-0,068
-497,853	125,389	-0,029	0,027
-496,839	800,000	0,024	-0,052
-495,824	-26,250	0,059	0,026
-494,810	-200,000	-0,024	0,119
-493,795	-128,748	-0,081	0,008
-492,781	755,811	-0,054	0,108
-491,766	-72,773	-0,026	-0,007
-490,751	-200,000	-0,014	-0,112
-489,737	800,000	0,036	-0,079
-488,722	-152,265	0,022	0,001
-487,708	-127,979	0,161	-0,017
-486,693	339,422	-0,030	-0,044
-485,678	100,264	-0,080	-0,068
-484,664	-149,568	0,122	0,007
-483,649	-21,252	0,051	-0,023
-482,635	-200,000	0,004	-0,092
-481,620	-2,790	0,029	0,015
-480,605	-200,000	-0,019	0,118
-479,591	70,184	-0,126	-0,096
-478,576	-200,000	0,006	-0,082
-477,562	-107,730	-0,037	-0,006
-476,547	-14,414	-0,169	-0,080
-475,532	20,505	0,028	-0,017
-474,518	-200,000	-0,001	0,051
-473,503	140,281	0,053	0,052
-472,489	71,454	-0,050	0,039
-471,474	-200,000	-0,019	-0,136
-470,459	-171,535	0,042	-0,001
-469,445	-131,536	0,087	-0,008
-468,430	-200,000	-0,001	0,039
-467,416	146,486	-0,053	0,052
-466,401	177,446	0,014	-0,015
-465,386	-48,502	0,060	-0,021
-464,372	-55,335	0,112	0,037
-463,357	-98,693	0,058	-0,011
-462,343	-180,482	-0,063	0,001
-461,328	142,441	-0,097	-0,095
-460,313	-200,000	-0,016	-0,120
-459,299	192,691	-0,029	-0,033
-458,284	-28,848	0,081	0,034
-457,270	583,686	0,074	-0,135
-456,255	307,635	0,038	-0,052
-455,241	478,798	0,061	-0,101
-454,226	23,750	-0,049	-0,030
-453,211	71,962	-0,123	0,094
-452,197	-66,273	0,137	0,040
-451,182	800,000	-0,051	0,124
-450,168	759,028	0,029	0,058
-449,153	287,100	-0,041	-0,054
-448,138	-200,000	-0,022	-0,175
-447,124	137,674	-0,039	0,037
-446,109	-89,767	0,037	0,008
-445,095	-54,198	-0,064	-0,021
-444,080	-70,340	-0,132	-0,037
-443,065	-81,737	-0,103	0,025
-442,051	107,003	0,177	-0,155
-441,036	-115,937	-0,032	0,004
-440,022	800,000	0,021	-0,045
-439,007	51,617	-0,082	0,057
-437,992	-52,629	0,064	-0,022
-436,978	-200,000	-0,006	-0,083
-435,963	-142,279	-0,094	-0,007
-434,949	-57,016	-0,072	-0,023
-433,934	196,385	-0,052	-0,058
-432,919	190,798	0,103	-0,114
-431,905	-37,355	0,020	0,008
-430,890	-65,373	-0,074	0,022
-429,876	-36,171	-0,120	0,048
-428,861	-107,126	0,084	0,014
-427,846	-36,726	-0,081	0,032
-426,832	564,301	-0,028	-0,050
-425,817	318,520	-0,030	-0,042
-424,803	-200,000	-0,007	-0,045
-423,788	800,000	-0,009	0,021
-422,773	-92,938	0,129	0,026
-421,759	-23,172	-0,120	-0,053
-420,744	-110,850	-0,103	-0,015
-419,730	98,201	-0,105	-0,089
-418,715	381,134	-0,071	0,108
-417,701	39,327	-0,086	-0,056
-416,686	-200,000	-0,016	-0,094
-415,671	160,256	-0,077	-0,079
-414,657	295,486	-0,030	-0,041
-413,642	-200,000	-0,082	0,000
-412,628	-200,000	-0,015	-0,072
-411,613	359,042	-0,014	-0,020
-410,598	-141,648	0,082	-0,006
-409,584	-200,000	-0,015	0,054
-408,569	206,060	0,087	-0,100
-407,555	281,172	0,009	-0,012
-406,540	-152,366	-0,039	0,002
-405,525	156,916	0,061	-0,062
-404,511	293,199	0,024	0,033
-403,496	800,000	0,034	0,085
-402,482	-200,000	-0,008	0,063
-401,467	-200,000	0,002	-0,029
-400,452	800,000	0,055	0,133
-399,438	-166,671	-0,066	-0,002
-398,423	798,074	-0,071	0,144
-397,409	265,401	0,104	0,134
-396,394	-119,142	-0,052	-0,007
-395,379	800,000	0,068	0,218
-394,365	800,000	0,082	0,264
-393,350	-25,439	0,090	-0,039
-392,336	314,138	0,031	0,043
-391,321	-92,251	-0,133	0,027
-390,306	-134,943	-0,025	-0,002
-389,292	80,946	-0,060	-0,047
-388,277	-35,641	-0,104	0,041
-387,263	-200,000	0,007	-0,163
-386,248	-2,429	0,022	0,012
-385,233	740,957	-0,035	-0,070
-384,219	-127,221	-0,088	-0,009
-383,204	800,000	-0,025	-0,079
-382,190	388,608	-0,020	0,031
-381,175	-52,124	0,136	0,046
-380,160	-200,000	0,017	0,097
-379,146	800,000	0,020	0,062
-378,131	800,000	-0,084	0,233
-377,117	-200,000	-0,010	0,098
-376,102	174,184	-0,085	-0,090
-375,088	189,561	-0,048	-0,053
-374,073	47,178	-0,015	-0,010
-373,058	169,884	-0,072	-0,076
-372,044	-38,781	0,091	-0,035
-371,029	-62,709	0,123	-0,037
-370,015	-98,788	-0,052	0,010
-369,000	-92,606	-0,051	0,010
-367,985	-200,000	0,022	-0,118
-366,971	47,992	-0,118	0,081
-365,956	4,892	-0,126	-0,068
-364,942	386,580	0,017	0,025
-363,927	-200,000	0,021	0,086
-362,912	14,181	0,069	-0,039
-361,898	319,310	-0,043	0,060
-360,883	-200,000	0,020	-0,120
-359,869	28,009	-0,116	0,072
-358,854	18,856	0,054	0,031
-357,839	-77,549	0,145	-0,037
-356,825	38,397	0,081	-0,053
-355,810	-200,000	0,029	0,150
-354,796	245,584	-0,072	0,089
-353,781	-200,000	0,008	-0,033
-352,766	-126,620	-0,108	0,012
-351,752	-41,028	0,136	-0,051
-350,737	403,758	0,054	0,083
-349,723	254,427	0,012	-0,015
-348,708	86,223	0,065	-0,052
-347,693	800,000	0,030	-0,082
-346,679	339,213	0,056	0,080
-345,664	-64,431	-0,068	-0,020
-344,650	-56,554	-0,062	0,020
-343,635	240,262	0,059	0,072
-342,620	23,793	0,111	0,067
-341,606	197,837	-0,029	0,032
-340,591	-12,479	-0,102	0,049
-339,577	122,855	-0,093	0,085
-338,562	63,546	-0,028	0,021
-337,548	192,155	0,094	-0,104
-336,533	7,633	0,102	-0,056
-335,518	-136,594	0,100	0,008
-334,504	800,000	0,037	0,081
-333,489	-110,994	0,104	-0,015
-332,475	-148,877	-0,111	0,006
-331,460	171,864	0,070	-0,074
-330,445	110,875	-0,049	-0,043
-329,431	-200,000	0,001	0,020
-328,416	77,959	-0,040	-0,031
-327,402	201,460	0,034	-0,039
-326,387	335,771	0,068	0,097
-325,372	800,000	-0,025	-0,054
-324,358	371,604	0,008	-0,012
-323,343	-200,000	0,028	-0,091
-322,329	171,210	0,072	0,076
-321,314	800,000	-0,024	0,072
-320,299	800,000	-0,063	0,166
-319,285	194,256	-0,060	0,067
-318,270	-200,000	0,001	-0,031
-317,256	273,956	0,083	-0,108
-316,241	772,886	-0,007	-0,015
-315,226	103,115	0,095	0,081
-314,212	406,026	-0,116	0,179
-313,197	84,774	-0,004	0,003
-312,183	-125,317	0,034	-0,004
-311,168	559,329	0,017	-0,031
-310,153	57,680	-0,018	-0,013
-309,139	-27,583	-0,189	-0,080
-308,124	-200,000	0,007	-0,028
-307,110	-63,209	0,056	0,017
-306,095	73,763	0,129	0,099
-305,080	800,000	0,006	0,014
-304,066	-200,000	0,018	-0,081
-303,051	-200,000	0,026	-0,147
-302,037	-14,787	0,185	-0,086
-301,022	-84,823	0,027	-0,006
-300,008	-200,000	-0,009	0,066
-298,993	84,362	0,128	0,102
-297,978	800,000	-0,018	0,058
-296,964	227,086	0,040	-0,048
-295,949	10,969	0,045	-0,025
-294,935	-80,294	0,111	0,027
-293,920	800,000	0,030	-0,089
-292,905	353,067	0,047	0,069
-291,891	-200,000	-0,019	0,105
-290,876	-200,000	0,015	0,100
-289,862	800,000	-0,050	-0,137
-288,847	800,000	-0,021	-0,063
-287,832	-68,082	0,097	-0,027
-286,818	-140,263	0,067	0,005
-285,803	800,000	0,014	-0,037
-284,789	-200,000	0,000	-0,139
-283,774	477,920	0,062	0,102
-282,759	71,839	0,011	-0,008
-281,745	-21,231	-0,064	0,029
-280,730	800,000	-0,022	0,064
-279,716	-200,000	-0,016	-0,077
-278,701	-121,981	-0,049	0,006
-277,686	105,888	-0,044	0,038
-276,672	281,485	-0,020	0,026
-275,657	-164,345	0,037	-0,001
-274,643	800,000	-0,040	0,086
-273,628	65,271	-0,078	-0,058
-272,613	81,594	-0,025	0,020
-271,599	23,110	0,143	0,086
-270,584	190,436	0,050	0,055
-269,570	-200,000	0,012	-0,052
-268,555	800,000	0,038	0,084
-267,540	-105,707	0,143	0,024
-266,526	-200,000	-0,024	0,090
-265,511	-107,362	0,055	0,009
-264,497	800,000	0,045	0,094
-263,482	172,779	-0,015	0,015
-262,467	-28,985	0,109	0,046
-261,453	-200,000	0,005	0,048
-260,438	12,220	-0,022	-0,013
-259,424	29,277	0,049	-0,030
-258,409	-200,000	0,022	0,093
-257,395	800,000	0,040	0,096
-256,380	-200,000	-0,006	0,124
-255,365	89,357	-0,077	-0,063
-254,351	-103,105	-0,216	0,037
-253,336	-200,000	-0,005	-0,098
-252,322	292,829	-0,079	0,105
-251,307	37,959	-0,056	0,036
-250,292	-200,000	-0,024	-0,084
-249,278	721,702	0,039	0,076
-248,263	-200,000	0,019	0,068
-247,249	-9,077	-0,047	0,023
-246,234	25,041	0,084	-0,051
-245,219	-200,000	-0,003	0,052
-244,205	194,717	-0,114	-0,126
-243,190	34,165	0,093	0,059
-242,176	175,645	0,053	0,056
-241,161	438,424	0,101	0,161
-240,146	235,937	-0,020	-0,024
-239,132	-115,054	-0,140	-0,019
-238,117	22,315	-0,096	-0,057
-237,103	754,644	-0,039	-0,077
-236,088	800,000	0,038	-0,112
-235,073	-200,000	0,014	0,134
-234,059	14,214	-0,060	0,034
-233,044	98,983	0,099	0,084
-232,030	342,419	0,073	0,105
-231,015	-200,000	0,003	-0,093
-230,000	800,000	0,032	0,069
-228,986	18,795	0,100	0,058
-227,971	800,000	0,040	-0,116
-226,957	-200,000	0,029	0,165
-225,942	161,417	0,027	-0,028
-224,927	-200,000	-0,023	0,086
-223,913	-200,000	-0,007	-0,071
-222,898	127,598	0,075	-0,070
-221,884	213,319	0,096	-0,111
-220,869	20,895	0,054	-0,032
-219,855	-200,000	0,025	-0,127
-218,840	-46,736	0,030	-0,011
-217,825	-130,890	-0,140	0,013
-216,811	759,492	-0,065	-0,130
-215,796	-27,677	-0,053	-0,022
-214,782	211,283	-0,029	0,033
-213,767	252,358	0,072	0,089
-212,752	487,868	0,044	0,073
-211,738	-65,456	-0,064	0,019
-210,723	-200,000	0,002	0,065
-209,709	56,916	-0,166	-0,118
-208,694	-200,000	0,010	-0,127
-207,679	49,629	-0,069	-0,047
-206,665	-146,995	-0,103	0,006
-205,650	50,783	-0,041	0,028
-204,636	13,170	-0,048	0,027
-203,621	166,701	0,066	0,069
-202,606	-112,916	-0,100	0,014
-201,592	800,000	-0,040	-0,125
-200,577	800,000	0,072	-0,176
-199,563	-115,313	-0,018	0,002
-198,548	214,221	0,063	-0,072
-197,533	55,896	-0,088	-0,062
-196,519	-89,589	-0,011	0,002
-195,504	-200,000	-0,012	-0,161
-194,490	-116,162	-0,027	0,004
-193,475	785,019	-0,014	0,029
-192,460	148,505	0,047	-0,047
-191,446	180,306	-0,022	-0,023
-190,431	459,711	-0,032	0,052
-189,417	43,198	-0,042	0,028
-188,402	51,811	0,097	-0,067
-187,387	-140,855	-0,041	-0,003
-186,373	-32,478	0,120	-0,049
-185,358	-32,681	-0,078	0,031
-184,344	467,841	0,044	-0,072
-183,329	-200,000	0,003	-0,034
-182,315	189,157	0,125	0,137
-181,300	123,568	-0,066	0,061
-180,285	-200,000	0,006	-0,075
-179,271	9,093	-0,105	-0,058
-178,256	-200,000	0,007	-0,092
-177,242	-122,620	0,064	-0,007
-176,227	-97,127	0,160	-0,030
-175,212	-200,000	0,010	0,174
-174,198	800,000	-0,030	0,068
-173,183	199,333	-0,011	-0,012
-172,169	-179,363	-0,060	0,001
-171,154	110,674	-0,052	-0,046
-170,139	-35,576	0,009	-0,003
-169,125	-109,134	-0,099	0,015
-168,110	-200,000	-0,018	0,089
-167,096	-16,351	0,120	-0,055
-166,081	-200,000	0,000	0,062
-165,066	479,576	0,061	-0,101
-164,052	131,817	-0,092	-0,086
-163,037	-200,000	0,019	0,130
-162,023	701,537	0,057	0,110
-161,008	-200,000	0,003	0,244
-159,993	-200,000	0,017	0,094
-158,979	12,798	-0,019	0,010
-157,964	246,683	0,047	0,058
-156,950	49,294	0,115	-0,078
-155,935	-161,096	0,092	0,003
-154,920	-35,353	0,185	-0,073
-153,906	0,790	-0,145	0,075
-152,891	116,557	0,124	0,111
-151,877	283,737	-0,063	-0,083
-150,862	-86,445	0,103	-0,023
-149,847	12,665	-0,148	-0,083
-148,833	-200,000	-0,014	-0,151
-147,818	800,000	0,011	-0,024
-146,804	759,124	0,059	0,117
-145,789	661,110	-0,008	0,016
-144,775	45,659	-0,086	-0,058
-143,760	800,000	-0,055	-0,130
-142,745	800,000	-0,074	-0,154
-141,731	-13,236	0,101	0,047
-140,716	-110,353	-0,111	0,017
-139,702	91,777	0,100	0,082
-138,687	722,498	-0,024	-0,047
-137,672	497,312	0,025	-0,042
-136,658	99,852	-0,113	-0,095
-135,643	800,000	0,030	0,075
-134,629	144,047	0,097	0,095
-133,614	136,829	-0,063	0,060
-132,599	-200,000	-0,030	0,102
-131,585	800,000	0,056	0,141
-130,570	102,133	-0,066	-0,056
-129,556	695,513	0,014	0,027
-128,541	0,794	-0,133	-0,069
-127,526	23,475	0,121	0,072
-126,512	114,070	-0,067	-0,060
-125,497	-200,000	-0,006	0,130
-124,483	-40,189	0,164	0,062
-123,468	669,157	-0,034	-0,064
-122,453	88,545	0,111	0,090
-121,439	-111,890	-0,094	-0,014
-120,424	88,574	0,090	-0,073
-119,410	-200,000	0,008	-0,138
-118,395	586,311	0,083	-0,149
-117,380	309,395	0,019	-0,026
-116,366	-36,719	-0,043	-0,017
-115,351	181,876	-0,116	-0,124
-114,337	-120,738	-0,095	-0,011
-113,322	800,000	-0,040	-0,101
-112,307	-59,610	-0,062	-0,019
-111,293	120,565	-0,027	0,024
-110,278	-90,180	0,019	0,004
-109,264	-111,743	0,103	-0,015
-108,249	-200,000	0,029	-0,108
-107,234	800,000	-0,040	-0,121
-106,220	800,000	-0,009	-0,019
-105,205	-108,483	-0,034	0,005
-104,191	562,606	0,069	-0,122
-103,176	-99,052	0,131	0,024
-102,162	800,000	0,017	0,050
-101,147	-200,000	0,018	0,069
-100,132	-200,000	-0,024	0,120
-99,118	92,068	-0,029	-0,024
-98,103	-146,332	-0,118	0,007
-97,089	538,577	0,088	0,153
-96,074	27,422	0,084	0,051
-95,059	116,252	0,132	0,117
-94,045	442,261	0,062	0,098
-93,030	-200,000	-0,005	-0,027
-92,016	-200,000	-0,003	-0,034
-91,001	-200,000	0,012	0,123
-89,986	634,072	-0,018	-0,033
-88,972	180,195	-0,074	0,079
-87,957	410,497	-0,032	-0,050
-86,943	-200,000	0,000	0,055
-85,928	-87,346	-0,055	0,012
-84,913	-59,045	-0,159	0,050
-83,899	-200,000	-0,012	0,098
-82,884	226,476	0,044	0,052
-81,870	800,000	0,033	0,098
-80,855	408,276	-0,068	-0,104
-79,840	-200,000	0,026	-0,123
-78,826	-128,509	0,145	0,015
-77,811	395,593	0,026	-0,039
-76,797	85,092	0,045	0,036
-75,782	12,759	-0,093	0,052
-74,767	-200,000	-0,035	0,236
-73,753	-200,000	0,005	0,041
-72,738	-102,909	0,152	0,026
-71,724	800,000	0,030	-0,067
-70,709	-89,419	0,040	-0,009
-69,694	12,317	-0,041	-0,023
-68,680	253,839	0,072	0,090
-67,665	-38,147	0,028	0,011
-66,651	229,691	0,050	0,060
-65,636	69,411	-0,170	0,127
-64,622	-22,381	-0,035	0,015
-63,607	-55,818	0,145	-0,047
-62,592	800,000	-0,034	-0,070
-61,578	313,225	0,049	0,067
-60,563	201,358	-0,011	0,012
-59,549	-200,000	0,003	0,110
-58,534	-171,131	-1,392	0,033
-57,519	488,981	-0,930	-1,548
-56,505	-200,000	-0,929	-4,363
-55,490	-44,563	0,614	-0,221
-54,476	800,000	4,828	11,652
-53,461	-200,000	14,044	254,279
-52,446	-200,000	694,736	2262,988
-51,432	598,710	1624,960	2935,364
-50,417	117,578	1633,560	1457,960
-49,403	73,595	1287,469	977,124
-48,388	37,405	1023,750	656,945
-47,373	23,922	981,938	585,756
-46,359	23,160	971,523	577,022
-45,344	22,038	967,252	570,797
-44,330	22,052	965,768	569,942
-43,315	21,893	964,294	568,533
-42,300	21,863	963,302	567,827
-41,286	21,910	962,254	567,341
-40,271	21,907	961,274	566,731
-39,257	21,880	960,312	566,053
-38,242	21,903	959,339	565,532
-37,227	21,875	958,627	564,999
-36,213	21,789	957,846	564,238
-35,198	21,923	956,736	563,993
-34,184	21,907	956,276	563,650
-33,169	21,833	955,295	562,809
-32,154	21,944	954,359	562,594
-31,140	21,920	953,519	561,998
-30,125	21,919	952,721	561,503
-29,111	21,826	951,847	560,667
-28,096	21,895	951,183	560,474
-27,082	21,918	950,465	560,105
-26,067	21,963	949,727	559,790
-25,052	21,917	948,923	559,146
-24,038	21,850	948,523	558,673
-23,023	21,879	947,756	558,292
-22,009	21,907	946,956	557,888
-20,994	21,954	946,297	557,630
-19,979	21,878	945,785	557,063
-18,965	21,853	945,171	556,601
-17,950	21,911	944,469	556,348
-16,936	21,910	943,806	555,934
-15,921	21,852	943,043	555,278
-14,906	21,789	942,386	554,666
-13,892	21,718	941,981	554,182
-12,877	21,765	941,180	553,839
-11,863	21,762	940,595	553,462
-10,848	21,762	940,014	553,097
-9,833	21,871	939,402	553,060
-8,819	21,812	939,116	552,685
-7,804	21,762	938,402	552,085
-6,790	21,706	937,949	551,616
-5,775	21,813	937,312	551,558
-4,760	21,784	936,551	551,000
-3,746	21,787	935,810	550,549
-2,731	21,604	935,214	549,601
-1,717	21,577	934,553	549,105
-0,702	21,588	933,934	548,753
0,313	21,393	933,143	548,504
1,327	23,981	930,752	555,184
2,342	31,643	808,779	503,194
3,356	26,193	509,679	307,760
4,371	1,669	374,583	194,894
5,386	-1,321	357,541	182,330
6,400	-2,328	351,576	178,052
7,415	-2,718	348,863	176,194
8,429	-2,819	347,622	175,430
9,444	-2,820	346,591	174,893
10,459	-2,844	345,927	174,513
11,473	-2,899	345,304	174,119
12,488	-2,786	344,723	173,945
13,502	-2,826	343,998	173,516
14,517	-2,838	343,643	173,307
15,531	-2,742	343,038	173,100
16,546	-2,833	342,752	172,832
17,561	-2,893	342,284	172,510
18,575	-2,708	341,902	172,520
19,590	-2,844	341,671	172,228
20,604	-2,817	341,201	172,009
21,619	-2,718	340,751	171,882
22,634	-2,706	340,505	171,757
23,648	-2,830	340,182	171,433
24,663	-2,836	339,780	171,208
25,677	-2,791	339,553	171,131
26,692	-2,817	339,285	170,951
27,707	-2,827	338,930	170,744
28,721	-2,865	338,773	170,606
29,736	-2,828	338,302	170,396
30,750	-2,761	338,019	170,317
31,765	-2,995	337,824	169,931
32,780	-2,845	337,446	169,901
33,794	-2,828	337,292	169,827
34,809	-2,847	337,009	169,647
35,823	-2,882	336,637	169,405
36,838	-2,869	336,275	169,222
37,853	-2,678	335,954	169,266
38,867	-2,819	335,707	168,964
39,882	-2,952	335,634	168,759
40,896	-2,697	335,062	168,751
41,911	-2,699	334,857	168,629
42,926	-2,818	334,735	168,416
43,940	-2,599	334,357	168,462
44,955	-2,757	334,064	168,118
45,969	-2,726	333,800	168,005
46,984	-2,754	333,700	167,909
47,999	-2,911	333,355	167,540
49,013	-2,873	333,168	167,475
50,028	-2,804	332,819	167,364
51,042	-2,989	332,626	167,040
52,057	-2,879	332,221	166,948
53,071	-2,827	332,046	166,904
54,086	-2,858	331,814	166,737
55,101	-2,831	331,503	166,597
56,115	-2,939	331,331	166,372
57,130	-2,796	331,008	166,358
58,144	-2,812	330,578	166,109
59,159	-2,750	330,445	166,098
60,174	-2,808	330,116	165,852
61,188	-2,770	330,095	165,869
62,203	-2,797	329,782	165,667
63,217	-2,695	329,458	165,605
64,232	-2,845	329,220	165,300
65,247	-2,843	328,866	165,111
66,261	-2,739	328,543	165,050
67,276	-2,918	328,518	164,821
68,290	-2,796	328,116	164,743
69,305	-2,946	328,013	164,507
70,320	-2,710	327,747	164,624
71,334	-2,649	327,292	164,450
72,349	-2,842	327,048	164,096
73,363	-2,877	326,879	163,958
74,378	-2,856	326,605	163,829
75,393	-2,792	326,373	163,769
76,407	-2,754	326,100	163,660
77,422	-2,755	325,979	163,584
78,436	-2,623	325,478	163,465
79,451	-2,850	325,266	163,092
80,466	-2,708	325,093	163,147
81,480	-2,748	324,827	162,956
82,495	-2,828	324,715	162,796
83,509	-2,682	324,275	162,722
84,524	-2,854	324,244	162,502
85,539	-2,674	323,789	162,459
86,553	-2,765	323,858	162,378
87,568	-2,796	323,484	162,142
88,582	-2,560	322,994	162,142
89,597	-2,922	323,052	161,757
90,611	-2,992	322,840	161,560
91,626	-2,729	322,474	161,652
92,641	-2,592	322,183	161,642
93,655	-2,657	322,039	161,484
94,670	-2,816	321,651	161,101
95,684	-2,827	321,535	161,015
96,699	-2,746	321,218	160,931
97,714	-2,667	321,016	160,902
98,728	-2,868	320,918	160,619
99,743	-2,871	320,689	160,487
100,757	-2,850	320,433	160,367
101,772	-2,831	320,185	160,250
102,787	-2,783	319,883	160,136
103,801	-2,794	319,699	160,018
104,816	-2,763	319,433	159,905
105,830	-2,798	319,354	159,813
106,845	-2,715	319,010	159,716
107,860	-2,881	318,907	159,469
108,874	-2,785	318,587	159,400
109,889	-2,866	318,334	159,171
110,903	-2,753	317,938	159,081
111,918	-2,676	317,784	159,074
112,933	-2,707	317,552	158,910
113,947	-2,774	317,407	158,752
114,962	-2,732	317,149	158,654
115,976	-2,752	316,857	158,471
116,991	-2,705	316,670	158,415
118,006	-2,764	316,529	158,266
119,020	-2,628	316,329	158,299
120,035	-2,714	316,104	158,079
121,049	-2,724	315,973	157,989
122,064	-2,720	315,667	157,826
123,079	-2,737	315,439	157,680
124,093	-2,796	315,074	157,419
125,108	-2,740	315,021	157,440
126,122	-2,764	314,661	157,219
127,137	-2,848	314,411	156,991
128,151	-2,907	314,267	156,842
129,166	-2,757	314,044	156,877
130,181	-2,744	313,798	156,754
131,195	-2,729	313,605	156,660
132,210	-2,737	313,432	156,551
133,224	-2,780	313,170	156,360
134,239	-2,605	312,907	156,401
135,254	-2,672	312,604	156,165
136,268	-2,698	312,398	156,020
137,283	-2,753	312,213	155,855
138,297	-2,788	311,993	155,694
139,312	-2,900	311,721	155,426
140,327	-2,845	311,531	155,375
141,341	-2,741	311,377	155,395
142,356	-2,712	311,130	155,289
143,370	-2,758	310,950	155,136
144,385	-2,617	310,606	155,100
145,400	-2,677	310,372	154,907
146,414	-2,849	310,159	154,605
147,429	-2,689	309,882	154,621
148,443	-2,733	309,831	154,536
149,458	-2,847	309,689	154,330
150,473	-2,724	309,354	154,279
151,487	-2,573	309,092	154,293
152,502	-2,767	308,753	153,907
153,516	-2,555	308,749	154,114
154,531	-2,755	308,555	153,794
155,546	-2,746	308,364	153,695
156,560	-2,732	308,068	153,548
157,575	-2,685	307,854	153,477
158,589	-2,679	307,563	153,324
159,604	-2,760	307,523	153,206
160,619	-2,540	307,116	153,218
161,633	-2,529	306,988	153,154
162,648	-2,547	306,757	153,005
163,662	-2,649	306,615	152,815
164,677	-2,694	306,502	152,698
165,692	-2,731	306,238	152,513
166,706	-2,524	305,842	152,519
167,721	-2,669	305,837	152,352
168,735	-2,666	305,689	152,267
169,750	-2,786	305,479	152,025
170,764	-2,765	305,348	151,967
171,779	-2,685	305,141	151,934
172,794	-2,516	304,890	151,970
173,808	-2,612	304,638	151,732
174,823	-2,834	304,536	151,439
175,837	-2,727	304,364	151,449
176,852	-2,661	303,905	151,276
177,867	-2,684	303,905	151,239
178,881	-2,532	303,583	151,221
179,896	-2,675	303,462	151,000
180,910	-2,625	303,216	150,916
181,925	-2,658	302,971	150,747
182,940	-2,664	302,845	150,665
183,954	-2,587	302,692	150,654
184,969	-2,484	302,437	150,619
185,983	-2,602	302,210	150,372
186,998	-2,676	302,032	150,194
188,013	-2,512	301,755	150,211
189,027	-2,486	301,580	150,137
190,042	-2,533	301,462	150,016
191,056	-2,683	301,211	149,725
192,071	-2,668	301,058	149,651
193,086	-2,793	300,824	149,394
194,100	-2,541	300,532	149,492
195,115	-2,615	300,275	149,276
196,129	-2,624	300,121	149,177
197,144	-2,565	299,887	149,107
198,159	-2,560	299,741	149,027
199,173	-2,711	299,471	148,726
200,188	-2,694	299,171	148,581
201,202	-2,532	299,085	148,689
202,217	-2,624	298,673	148,378
203,232	-2,716	298,546	148,208
204,246	-2,611	298,428	148,242
205,261	-2,596	298,185	148,124
206,275	-2,556	298,019	148,068
207,290	-2,594	297,815	147,916
208,304	-2,627	297,626	147,775
209,319	-2,662	297,468	147,649
210,334	-2,640	297,242	147,545
211,348	-2,446	296,907	147,561
212,363	-2,494	296,720	147,407
213,377	-2,514	296,612	147,320
214,392	-2,402	296,432	147,329
215,407	-2,549	296,300	147,103
216,421	-2,590	296,135	146,967
217,436	-2,595	295,909	146,837
218,450	-2,524	295,564	146,724
219,465	-2,622	295,444	146,553
220,480	-2,627	295,294	146,461
221,494	-2,514	295,130	146,479
222,509	-2,474	294,828	146,356
223,523	-2,599	294,702	146,156
224,538	-2,647	294,661	146,074
225,553	-2,608	294,385	145,964
226,567	-2,636	294,337	145,898
227,582	-2,586	293,990	145,763
228,596	-2,451	293,660	145,721
229,611	-2,694	293,752	145,512
230,626	-2,541	293,347	145,450
231,640	-2,653	293,279	145,292
232,655	-2,601	293,011	145,198
233,669	-2,781	292,703	144,854
234,684	-2,805	292,610	144,772
235,699	-2,505	292,367	144,935
236,713	-2,615	292,207	144,734
237,728	-2,501	292,065	144,763
238,742	-2,610	291,790	144,507
239,757	-2,651	291,697	144,407
240,772	-2,629	291,535	144,336
241,786	-2,628	291,279	144,198
242,801	-2,477	291,044	144,217
243,815	-2,482	290,845	144,100
244,830	-2,555	290,642	143,916
245,844	-2,497	290,455	143,867
246,859	-2,621	290,190	143,601
247,874	-2,497	290,005	143,618
248,888	-2,625	289,866	143,411
249,903	-2,606	289,666	143,318
250,917	-2,739	289,529	143,107
251,932	-2,636	289,342	143,103
252,947	-2,584	289,090	143,016
253,961	-2,991	288,806	142,467
254,976	-2,911	288,660	142,460
255,990	-2,933	288,373	142,284
257,005	-2,572	288,445	142,658
258,020	-0,698	289,154	144,822
259,034	0,767	289,606	146,464
260,049	1,507	289,417	147,075
261,063	1,708	289,488	147,294
262,078	2,130	289,413	147,654
263,093	2,182	289,451	147,710
264,107	2,546	289,356	148,003
265,122	2,738	289,123	148,056
266,136	2,881	289,030	148,134
267,151	2,756	288,950	147,959
268,166	2,903	288,694	147,957
269,180	3,021	288,328	147,871
270,195	2,798	288,217	147,585
271,209	2,899	288,070	147,594
272,224	2,723	287,898	147,323
273,239	2,664	287,670	147,136
274,253	2,728	287,427	147,060
275,268	2,640	287,174	146,833
276,282	2,450	286,979	146,537
277,297	2,662	286,753	146,613
278,312	2,665	286,619	146,533
279,326	2,733	286,576	146,564
280,341	2,433	286,411	146,178
281,355	2,672	286,113	146,242
282,370	2,724	285,836	146,138
283,384	2,508	285,662	145,829
284,399	2,536	285,483	145,752
285,414	2,777	285,272	145,861
286,428	2,445	285,189	145,488
287,443	2,572	285,008	145,504
288,457	2,467	284,795	145,282
289,472	2,552	284,532	145,216
290,487	2,536	284,313	145,077
291,501	2,489	284,087	144,904
292,516	2,570	284,042	144,945
293,530	2,544	283,796	144,782
294,545	2,521	283,544	144,618
295,560	2,432	283,403	144,448
296,574	2,377	283,292	144,327
297,589	2,240	283,101	144,087
298,603	2,300	282,777	143,966
299,618	2,519	282,650	144,096
300,633	2,397	282,572	143,928
301,647	2,658	282,249	143,997
302,662	2,629	282,140	143,901
303,676	2,622	282,160	143,892
304,691	2,771	281,783	143,827
305,706	2,731	281,667	143,718
306,720	2,661	281,560	143,585
307,735	2,688	281,267	143,448
308,749	2,898	281,032	143,513
309,764	2,487	281,104	143,150
310,779	2,579	280,794	143,066
311,793	2,704	280,574	143,058
312,808	2,792	280,388	143,033
313,822	2,664	280,064	142,735
314,837	2,901	279,960	142,891
315,852	2,577	279,906	142,548
316,866	2,837	279,706	142,676
317,881	2,652	279,518	142,395
318,895	2,570	279,312	142,201
319,910	2,687	279,011	142,144
320,925	2,587	278,834	141,948
321,939	2,781	278,781	142,089
322,954	2,686	278,698	141,945
323,968	2,823	278,512	141,965
324,983	2,766	278,304	141,794
325,997	2,682	278,164	141,632
327,012	2,821	278,040	141,685
328,027	2,920	277,715	141,599
329,041	2,815	277,560	141,410
330,056	3,002	277,461	141,520
331,070	2,790	277,144	141,149
332,085	2,917	276,943	141,152
333,100	2,949	276,866	141,129
334,114	2,810	276,630	140,868
335,129	2,746	276,482	140,721
336,143	2,786	276,282	140,644
337,158	2,707	276,186	140,510
338,173	2,786	275,947	140,448
339,187	2,788	275,858	140,392
340,202	2,791	275,522	140,211
341,216	2,862	275,301	140,152
342,231	2,671	275,237	139,931
343,246	2,777	275,054	139,923
344,260	2,790	274,917	139,853
345,275	2,936	274,688	139,858
346,289	2,959	274,499	139,769
347,304	2,810	274,520	139,631
348,319	2,961	274,150	139,569
349,333	2,810	274,093	139,390
350,348	2,679	273,853	139,135
351,362	2,888	273,614	139,192
352,377	2,739	273,638	139,056
353,392	2,924	273,336	139,059
354,406	2,886	273,281	138,984
355,421	192,405	1348,027	1431,308
356,435	155,400	1479,065	1431,438
