DTS Sentinel unit serial number:	SN410029Multiplexer serial number:	ORYXHardware model number:	OX2-SRSoftware version number:	ORYX F/W v4,00 Oryx Data Collector v3.7.2.0data status	okinstallation	B4 Nyhavnadifferential loss correction	single-endedforward channel	channel 2reverse channel	N/Adate	2023/12/18time	23:00:13forward acquisition time	300,00reverse acquisition time	0,00gamma	499,1914k internal	0,3124k external	0,3124temperature offset calibration	1,0000default loss term (dB/km)	0,3820temperature slope calibration	1,0000multiplexer offset coefficient	1,0000multiplexer slope coefficient	1,0000fibre end	0,00T internal ref (°C)	22,01T ext. ref 1 (°C)	7,61T ext. ref 2 (°C)	7,72length (m)	temperature (°C)	Stokes	anti-Stokes-744,400	800,000	-0,044	-0,143
-743,385	32,021	-0,267	0,171
-742,371	-200,000	-0,009	-0,135
-741,356	89,973	-0,251	0,209
-740,342	-71,691	0,079	-0,022
-739,327	-76,333	-0,042	-0,011
-738,312	24,626	0,117	-0,072
-737,298	800,000	-0,100	0,219
-736,283	31,094	0,070	-0,044
-735,269	161,568	-0,139	0,145
-734,254	315,097	-0,031	-0,043
-733,239	-112,275	-0,418	-0,062
-732,225	-9,590	0,152	0,075
-731,210	-200,000	0,005	-0,056
-730,196	-200,000	0,001	-0,079
-729,181	-48,648	-0,117	-0,042
-728,167	320,442	0,090	-0,127
-727,152	-57,421	-0,032	-0,011
-726,137	800,000	-0,041	-0,114
-725,123	-78,339	0,021	-0,005
-724,108	-119,970	-0,054	0,007
-723,094	-61,603	-0,157	-0,049
-722,079	-94,249	0,093	-0,019
-721,064	106,349	-0,065	-0,057
-720,050	336,659	0,034	0,050
-719,035	241,957	-0,053	-0,066
-718,021	74,656	-0,053	-0,042
-717,006	51,076	-0,104	-0,073
-715,991	635,256	-0,079	-0,149
-714,977	800,000	-0,066	-0,156
-713,962	160,124	0,057	0,060
-712,948	-200,000	-0,035	-0,182
-711,933	-13,557	0,119	-0,057
-710,918	-67,568	-0,115	0,033
-709,904	72,365	-0,100	0,077
-708,889	-7,230	-0,156	0,078
-707,875	331,097	-0,056	0,081
-706,860	303,325	-0,087	-0,120
-705,845	800,000	-0,026	-0,056
-704,831	800,000	0,016	0,043
-703,816	-138,773	-0,139	-0,011
-702,802	28,655	-0,027	-0,017
-701,787	-142,197	-0,089	-0,006
-700,772	-119,322	0,084	-0,011
-699,758	-65,183	-0,082	-0,024
-698,743	280,121	0,055	0,073
-697,729	108,761	-0,080	0,071
-696,714	-200,000	-0,013	-0,051
-695,699	132,927	0,084	0,081
-694,685	-8,696	-0,098	0,049
-693,670	800,000	0,051	-0,121
-692,656	-12,095	-0,025	0,012
-691,641	-200,000	-0,007	-0,087
-690,627	800,000	-0,020	0,048
-689,612	129,588	-0,099	0,094
-688,597	55,071	0,118	0,084
-687,583	800,000	-0,040	-0,103
-686,568	-85,487	-0,110	0,025
-685,554	-200,000	-0,021	-0,093
-684,539	613,715	0,023	0,043
-683,524	-200,000	0,010	0,052
-682,510	-200,000	-0,002	0,108
-681,495	800,000	0,040	0,117
-680,481	-69,006	0,014	-0,004
-679,466	273,161	-0,052	-0,069
-678,451	-200,000	-0,004	-0,099
-677,437	-39,379	-0,087	-0,034
-676,422	13,307	0,118	0,068
-675,408	800,000	0,018	0,056
-674,393	-64,541	0,084	0,025
-673,378	76,067	-0,056	-0,044
-672,364	-200,000	-0,021	0,115
-671,349	-200,000	-0,002	-0,041
-670,335	68,009	0,119	-0,091
-669,320	800,000	0,022	0,068
-668,305	24,042	-0,059	-0,036
-667,291	800,000	0,030	-0,083
-666,276	174,593	0,027	-0,030
-665,262	-60,805	-0,149	-0,047
-664,247	152,732	0,083	0,085
-663,232	-200,000	-0,001	0,093
-662,218	-73,596	0,117	-0,031
-661,203	206,010	-0,010	0,012
-660,189	80,793	-0,050	-0,040
-659,174	222,751	0,010	-0,012
-658,159	800,000	-0,032	0,075
-657,145	-61,397	-0,148	-0,046
-656,130	800,000	0,055	-0,122
-655,116	800,000	-0,045	-0,123
-654,101	74,766	-0,075	0,058
-653,086	64,114	0,157	-0,117
-652,072	-200,000	0,030	-0,113
-651,057	-1,670	0,027	-0,014
-650,043	40,364	0,087	-0,058
-649,028	-94,020	-0,094	0,019
-648,014	-76,213	-0,038	-0,010
-646,999	-200,000	-0,092	0,000
-645,984	800,000	-0,012	-0,034
-644,970	223,490	-0,043	-0,052
-643,955	-200,000	-0,015	-0,144
-642,941	45,413	-0,147	-0,101
-641,926	-200,000	-0,010	-0,068
-640,911	-27,055	-0,113	-0,049
-639,897	-200,000	0,108	0,000
-638,882	-73,362	-0,044	-0,012
-637,868	-49,685	-0,067	0,023
-636,853	136,470	0,138	-0,134
-635,838	-200,000	0,010	0,041
-634,824	-200,000	-0,018	0,062
-633,809	-200,000	0,025	0,087
-632,795	204,009	0,094	0,108
-631,780	-149,600	-0,014	-0,001
-630,765	-92,996	-0,063	0,013
-629,751	-11,483	-0,066	-0,032
-628,736	299,981	-0,135	0,185
-627,722	690,804	0,029	0,056
-626,707	117,898	-0,043	-0,039
-625,692	332,333	-0,077	-0,110
-624,678	22,771	0,065	0,039
-623,663	-136,451	-0,120	-0,010
-622,649	705,240	0,086	-0,169
-621,634	-60,164	-0,133	0,042
-620,619	151,324	-0,058	-0,059
-619,605	169,635	0,056	-0,059
-618,590	-200,000	0,007	0,086
-617,576	39,076	-0,076	0,050
-616,561	578,566	-0,010	-0,017
-615,546	800,000	0,060	-0,131
-614,532	-200,000	-0,003	-0,069
-613,517	583,701	-0,022	-0,040
-612,503	-200,000	0,009	-0,113
-611,488	-200,000	-0,027	0,117
-610,474	-16,143	0,134	0,063
-609,459	-200,000	0,041	-0,167
-608,444	-108,488	-0,171	-0,027
-607,430	215,745	-0,028	0,033
-606,415	-200,000	-0,011	0,069
-605,401	-67,260	0,067	0,019
-604,386	-33,314	-0,028	0,011
-603,371	-81,496	0,148	-0,036
-602,357	83,255	0,043	0,035
-601,342	334,903	0,028	0,041
-600,328	-200,000	-0,009	-0,050
-599,313	207,704	-0,081	0,094
-598,298	-186,807	-0,073	-0,001
-597,284	417,603	0,011	-0,018
-596,269	740,641	0,082	0,163
-595,255	81,195	-0,071	-0,057
-594,240	509,398	0,050	-0,086
-593,225	101,884	-0,036	0,031
-592,211	-200,000	-0,021	0,146
-591,196	-54,718	0,050	-0,017
-590,182	-200,000	0,002	0,056
-589,167	-200,000	0,019	0,132
-588,152	-200,000	0,007	-0,050
-587,138	-200,000	-0,023	-0,110
-586,123	224,096	0,063	0,075
-585,109	-200,000	0,015	-0,147
-584,094	-165,677	-0,071	-0,002
-583,079	91,516	-0,039	-0,033
-582,065	-142,791	0,093	0,007
-581,050	-55,495	0,147	-0,049
-580,036	233,232	-0,076	0,093
-579,021	-200,000	-0,007	-0,121
-578,006	99,431	-0,051	-0,043
-576,992	535,253	-0,075	0,132
-575,977	-17,625	0,107	-0,049
-574,963	-200,000	0,024	0,185
-573,948	800,000	0,020	0,052
-572,934	-200,000	0,027	-0,101
-571,919	-18,678	-0,091	0,042
-570,904	-200,000	-0,008	-0,069
-569,890	162,590	0,051	0,053
-568,875	28,063	-0,036	0,022
-567,861	55,590	0,055	-0,040
-566,846	154,069	0,097	-0,099
-565,831	-63,021	0,011	0,003
-564,817	68,654	0,055	-0,042
-563,802	800,000	-0,054	-0,130
-562,788	-12,697	-0,158	0,076
-561,773	800,000	0,011	-0,032
-560,758	-67,162	0,052	-0,015
-559,744	-200,000	-0,002	0,040
-558,729	112,010	-0,099	0,088
-557,715	-200,000	-0,009	-0,060
-556,700	-200,000	-0,035	-0,155
-555,685	-200,000	-0,046	-0,245
-554,671	484,094	-0,068	0,115
-553,656	-95,969	-0,042	-0,008
-552,642	-74,294	0,096	-0,026
-551,627	-136,669	-0,112	0,009
-550,612	-96,582	-0,036	0,007
-549,598	-74,402	-0,043	-0,011
-548,583	27,442	0,027	-0,017
-547,569	-104,142	-0,035	0,006
-546,554	179,604	-0,065	-0,070
-545,539	177,789	0,100	0,108
-544,525	163,087	0,033	-0,035
-543,510	110,543	-0,050	-0,044
-542,496	-200,000	0,002	-0,039
-541,481	531,729	-0,057	-0,100
-540,466	94,741	-0,075	-0,063
-539,452	-58,861	0,195	-0,062
-538,437	122,599	0,086	0,079
-537,423	-58,512	0,123	0,039
-536,408	-200,000	-0,013	0,115
-535,393	531,182	-0,025	-0,045
-534,379	-156,444	-0,142	0,006
-533,364	800,000	0,017	-0,051
-532,350	123,304	0,016	0,015
-531,335	34,853	-0,033	0,022
-530,321	13,475	-0,013	0,007
-529,306	800,000	-0,041	0,130
-528,291	471,298	0,044	0,073
-527,277	85,836	-0,137	0,112
-526,262	401,036	0,087	-0,135
-525,248	64,807	0,091	-0,067
-524,233	447,391	0,023	0,038
-523,218	-200,000	0,000	0,086
-522,204	800,000	0,011	-0,026
-521,189	-200,000	0,009	-0,164
-520,175	74,760	-0,166	-0,129
-519,160	288,792	-0,016	0,021
-518,145	-38,464	0,194	0,075
-517,131	544,443	0,063	0,111
-516,116	-94,520	-0,052	-0,010
-515,102	-11,217	0,134	-0,065
-514,087	-8,279	-0,171	0,085
-513,072	800,000	-0,038	-0,079
-512,058	397,731	0,028	0,043
-511,043	21,617	0,125	-0,075
-510,029	-200,000	-0,037	0,143
-509,014	-108,697	-0,163	-0,026
-507,999	474,038	-0,054	0,091
-506,985	-48,308	-0,115	-0,041
-505,970	-1,540	-0,129	0,067
-504,956	800,000	-0,028	-0,074
-503,941	-200,000	0,010	-0,044
-502,926	662,892	-0,060	0,114
-501,912	46,050	-0,020	0,014
-500,897	98,942	0,096	-0,082
-499,883	110,330	-0,163	0,145
-498,868	800,000	0,035	0,080
-497,853	-83,454	-0,099	0,023
-496,839	800,000	0,006	0,019
-495,824	-200,000	0,025	0,186
-494,810	800,000	-0,010	-0,033
-493,795	-200,000	0,002	0,058
-492,781	-200,000	0,002	-0,094
-491,766	-200,000	-0,027	0,139
-490,751	-60,647	0,093	-0,029
-489,737	4,827	0,157	-0,085
-488,722	-200,000	0,014	0,179
-487,708	2,133	0,060	-0,032
-486,693	-137,602	0,124	0,010
-485,678	-83,121	0,092	-0,022
-484,664	800,000	-0,054	-0,119
-483,649	-74,403	-0,065	0,017
-482,635	-138,529	0,076	0,006
-481,620	-114,876	-0,094	-0,013
-480,605	-93,848	0,110	0,022
-479,591	-103,549	-0,051	-0,009
-478,576	-49,573	0,113	0,039
-477,562	410,063	0,044	-0,069
-476,547	53,694	0,050	-0,035
-475,532	15,184	0,060	0,035
-474,518	26,423	0,120	0,074
-473,503	56,368	0,069	0,049
-472,489	-39,383	-0,133	0,051
-471,474	432,318	-0,062	0,099
-470,459	135,925	-0,023	-0,022
-469,445	800,000	-0,044	0,101
-468,430	-50,508	-0,033	0,011
-467,416	-200,000	0,022	0,106
-466,401	14,525	-0,009	-0,005
-465,386	-99,976	0,053	0,010
-464,372	-200,000	-0,006	-0,034
-463,357	266,595	0,075	-0,096
-462,343	429,814	0,012	0,019
-461,328	-50,521	-0,089	-0,031
-460,313	-119,466	0,166	-0,021
-459,299	-200,000	0,047	0,160
-458,284	492,901	0,062	0,106
-457,270	157,414	0,043	0,044
-456,255	800,000	-0,009	-0,024
-455,241	-200,000	-0,017	-0,067
-454,226	800,000	-0,010	-0,027
-453,211	-183,314	0,133	0,002
-452,197	-200,000	-0,009	0,040
-451,182	800,000	0,045	0,104
-450,168	-200,000	0,003	-0,101
-449,153	-200,000	-0,014	-0,073
-448,138	154,296	-0,124	-0,126
-447,124	453,482	0,068	0,112
-446,109	598,996	0,034	-0,062
-445,095	-200,000	0,007	0,159
-444,080	-110,229	0,124	-0,019
-443,065	-108,616	0,073	0,011
-442,051	-200,000	-0,007	-0,032
-441,036	-200,000	0,003	0,080
-440,022	800,000	0,024	0,054
-439,007	295,809	0,020	-0,027
-437,992	800,000	0,045	-0,118
-436,978	-200,000	0,011	0,078
-435,963	-32,053	-0,064	0,026
-434,949	-200,000	-0,019	0,140
-433,934	201,433	-0,054	-0,061
-432,919	365,133	-0,061	-0,091
-431,905	83,192	-0,026	0,021
-430,890	-48,943	0,021	0,008
-429,876	-45,018	0,135	0,049
-428,861	-158,014	0,133	-0,006
-427,846	-57,522	-0,127	0,041
-426,832	9,004	-0,019	0,011
-425,817	196,194	-0,084	-0,094
-424,803	35,943	-0,066	0,042
-423,788	647,517	0,032	0,060
-422,773	-200,000	-0,007	0,034
-421,759	-22,559	0,062	-0,028
-420,744	-7,580	-0,092	-0,046
-419,730	471,578	-0,063	-0,105
-418,715	800,000	0,040	-0,106
-417,701	36,846	-0,066	-0,043
-416,686	194,362	0,014	0,016
-415,671	-162,622	0,142	-0,005
-414,657	12,024	0,149	0,084
-413,642	-93,511	-0,023	0,005
-412,628	-75,774	0,077	-0,020
-411,613	120,710	0,025	0,023
-410,598	-200,000	-0,016	-0,055
-409,584	374,617	0,040	0,060
-408,569	-48,379	0,129	0,045
-407,555	-36,753	-0,089	0,035
-406,540	-200,000	-0,003	0,055
-405,525	744,327	0,021	0,042
-404,511	22,124	-0,093	-0,056
-403,496	18,720	0,093	-0,055
-402,482	78,237	-0,070	-0,055
-401,467	-200,000	-0,005	-0,057
-400,452	-51,756	-0,019	0,006
-399,438	-79,280	0,049	0,012
-398,423	800,000	0,041	-0,098
-397,409	-119,439	-0,172	-0,022
-396,394	-64,122	-0,066	0,020
-395,379	-68,689	-0,106	0,030
-394,365	800,000	-0,057	0,130
-393,350	5,137	-0,176	0,095
-392,336	42,950	0,137	0,092
-391,321	340,859	-0,027	-0,039
-390,306	-200,000	-0,032	-0,143
-389,292	-7,595	-0,123	-0,061
-388,277	-200,000	0,021	-0,100
-387,263	-83,443	-0,127	0,030
-386,248	800,000	0,054	0,121
-385,233	-200,000	0,011	0,164
-384,219	-58,431	-0,053	-0,017
-383,204	7,415	-0,106	0,058
-382,190	198,786	-0,130	-0,147
-381,175	124,005	0,006	-0,005
-380,160	800,000	0,040	-0,084
-379,146	-107,586	0,093	-0,015
-378,131	-200,000	0,002	-0,126
-377,117	300,922	0,026	-0,036
-376,102	-200,000	-0,026	-0,115
-375,088	800,000	-0,052	0,113
-374,073	-200,000	0,028	-0,128
-373,058	180,781	0,075	0,081
-372,044	228,815	-0,038	-0,046
-371,029	-146,475	0,087	-0,005
-370,015	-50,306	-0,087	0,030
-369,000	478,199	0,080	-0,133
-367,985	80,371	-0,045	0,035
-366,971	567,667	-0,055	-0,098
-365,956	188,175	0,076	-0,083
-364,942	-128,835	0,126	0,013
-363,927	-200,000	-0,012	0,145
-362,912	383,594	0,051	0,077
-361,898	-164,947	-0,123	0,004
-360,883	-200,000	0,014	-0,098
-359,869	-153,190	0,035	-0,002
-358,854	126,226	0,040	0,037
-357,839	-200,000	-0,000	0,012
-356,825	-87,290	-0,153	-0,034
-355,810	-200,000	0,003	0,070
-354,796	475,993	0,041	-0,069
-353,781	-23,206	-0,101	-0,045
-352,766	-136,934	0,113	0,009
-351,752	-200,000	0,023	-0,118
-350,737	519,438	0,061	-0,106
-349,723	-200,000	-0,012	-0,075
-348,708	339,694	0,065	0,094
-347,693	175,089	0,039	0,042
-346,679	-145,034	-0,153	0,010
-345,664	226,570	0,094	-0,112
-344,650	800,000	0,013	0,036
-343,635	-147,673	0,060	-0,004
-342,620	800,000	0,038	-0,092
-341,606	-164,112	0,044	0,001
-340,591	-55,580	0,008	-0,002
-339,577	800,000	-0,041	0,101
-338,562	-200,000	-0,039	-0,175
-337,548	525,436	0,025	-0,043
-336,533	86,100	-0,022	0,018
-335,518	800,000	0,031	0,063
-334,504	-200,000	0,002	0,094
-333,489	-72,323	0,151	-0,041
-332,475	-200,000	-0,030	-0,110
-331,460	127,072	-0,014	-0,013
-330,445	-200,000	-0,005	-0,047
-329,431	-200,000	-0,024	0,083
-328,416	800,000	0,037	0,079
-327,402	-135,422	-0,093	-0,008
-326,387	59,572	-0,079	0,057
-325,372	-70,248	-0,032	0,009
-324,358	-200,000	-0,027	-0,105
-323,343	313,428	0,015	0,021
-322,329	133,213	-0,087	-0,083
-321,314	-76,692	0,101	0,026
-320,299	288,677	-0,070	0,093
-319,285	361,057	-0,041	0,060
-318,270	-106,278	-0,130	0,021
-317,256	219,615	-0,081	-0,095
-316,241	800,000	-0,029	-0,068
-315,226	-99,752	0,083	0,015
-314,212	358,697	0,099	0,146
-313,197	503,386	0,089	0,151
-312,183	-60,307	-0,140	-0,043
-311,168	-40,703	0,045	-0,017
-310,153	800,000	-0,044	-0,099
-309,139	800,000	0,041	-0,094
-308,124	297,518	0,027	0,036
-307,110	237,674	0,080	0,097
-306,095	482,039	-0,045	0,075
-305,080	-200,000	0,008	0,043
-304,066	-170,498	0,066	0,002
-303,051	-200,000	-0,009	-0,109
-302,037	-162,750	0,082	-0,003
-301,022	198,432	0,018	-0,020
-300,008	800,000	0,075	0,159
-298,993	542,791	0,086	0,151
-297,978	-67,809	0,059	0,017
-296,964	210,912	-0,059	-0,068
-295,949	800,000	0,026	-0,055
-294,935	565,152	-0,103	-0,183
-293,920	-137,385	0,107	0,009
-292,905	-138,068	0,126	-0,010
-291,891	559,011	-0,044	0,078
-290,876	-127,875	-0,125	-0,013
-289,862	396,787	-0,126	0,194
-288,847	-200,000	0,007	-0,082
-287,832	800,000	-0,027	0,065
-286,818	182,876	-0,067	-0,072
-285,803	403,100	0,070	-0,108
-284,789	362,212	-0,039	0,058
-283,774	800,000	-0,052	0,118
-282,759	367,742	-0,075	0,111
-281,745	800,000	-0,018	0,043
-280,730	-112,903	-0,102	-0,015
-279,716	-147,545	-0,037	-0,002
-278,701	800,000	0,040	-0,099
-277,686	37,705	-0,194	0,126
-276,672	-92,910	0,071	0,014
-275,657	-59,370	-0,131	0,041
-274,643	-16,228	-0,057	-0,026
-273,628	800,000	0,031	-0,088
-272,613	177,335	0,130	-0,139
-271,599	59,623	-0,070	0,050
-270,584	-134,258	0,074	-0,007
-269,570	-125,447	0,073	-0,008
-268,555	282,905	-0,044	0,057
-267,540	417,600	-0,036	-0,057
-266,526	11,122	0,115	-0,064
-265,511	441,827	-0,016	-0,026
-264,497	-28,919	-0,067	0,028
-263,482	17,875	-0,051	0,030
-262,467	-101,700	0,090	0,016
-261,453	267,991	-0,136	0,174
-260,438	-85,602	0,235	-0,053
-259,424	-200,000	-0,004	0,019
-258,409	316,437	-0,017	0,024
-257,395	393,068	0,013	-0,020
-256,380	46,517	0,095	0,064
-255,365	-78,761	0,032	0,008
-254,351	-81,942	0,053	0,013
-253,336	-200,000	-0,004	0,051
-252,322	-200,000	0,005	-0,115
-251,307	-63,615	0,085	-0,025
-250,292	-175,622	-0,120	0,002
-249,278	-200,000	-0,020	-0,078
-248,263	8,555	0,110	0,060
-247,249	-200,000	-0,011	-0,044
-246,234	-200,000	0,019	-0,083
-245,219	693,716	0,037	0,071
-244,205	-200,000	-0,015	-0,088
-243,190	0,161	0,044	-0,023
-242,176	-200,000	0,010	0,148
-241,161	290,429	0,073	0,098
-240,146	10,924	0,042	0,023
-239,132	-200,000	-0,005	-0,021
-238,117	465,492	0,048	-0,078
-237,103	-60,303	-0,121	0,037
-236,088	80,726	-0,102	0,080
-235,073	258,976	0,123	0,156
-234,059	-128,280	0,082	-0,008
-233,044	15,630	-0,058	0,033
-232,030	584,150	-0,086	0,154
-231,015	-80,897	-0,090	-0,022
-230,000	-200,000	-0,016	-0,074
-228,986	253,667	0,026	-0,033
-227,971	209,040	-0,089	0,102
-226,957	192,792	-0,047	-0,052
-225,942	535,571	-0,017	0,030
-224,927	66,449	-0,030	-0,022
-223,913	404,698	-0,017	-0,026
-222,898	800,000	-0,053	-0,128
-221,884	179,605	0,025	-0,027
-220,869	-66,690	0,097	-0,028
-219,855	-153,087	0,018	-0,001
-218,840	-75,023	-0,074	-0,019
-217,825	-154,985	0,049	0,002
-216,811	-45,185	-0,027	0,010
-215,796	-200,000	-0,022	0,098
-214,782	132,487	0,042	0,039
-213,767	-119,609	-0,052	0,007
-212,752	-98,219	-0,028	-0,005
-211,738	-84,273	-0,047	-0,011
-210,723	-200,000	0,013	-0,087
-209,709	-110,822	-0,105	-0,016
-208,694	-200,000	0,003	0,033
-207,679	76,406	-0,084	0,065
-206,665	-41,659	0,115	0,043
-205,650	-104,984	0,054	-0,009
-204,636	233,861	0,107	0,129
-203,621	-87,870	-0,156	0,034
-202,606	482,569	0,017	0,029
-201,592	800,000	-0,030	0,077
-200,577	800,000	0,021	-0,061
-199,563	800,000	0,068	-0,207
-198,548	205,919	0,093	0,106
-197,533	-200,000	0,043	0,146
-196,519	-200,000	0,020	0,083
-195,504	-84,198	0,112	-0,026
-194,490	-200,000	-0,003	0,063
-193,475	68,578	-0,075	0,056
-192,460	-70,093	-0,219	-0,060
-191,446	318,689	0,072	0,100
-190,431	-200,000	0,026	0,098
-189,417	207,776	-0,072	-0,082
-188,402	-50,895	0,140	0,048
-187,387	121,128	-0,096	-0,088
-186,373	-144,426	0,085	0,006
-185,358	22,186	0,039	0,023
-184,344	-75,053	0,141	-0,037
-183,329	-200,000	0,002	-0,042
-182,315	-200,000	-0,019	-0,078
-181,300	800,000	-0,043	-0,099
-180,285	-126,189	0,053	0,006
-179,271	22,197	-0,039	-0,023
-178,256	-27,020	0,106	-0,045
-177,242	-18,240	-0,019	-0,008
-176,227	-200,000	-0,030	-0,190
-175,212	278,375	0,005	0,006
-174,198	800,000	0,024	-0,068
-173,183	577,535	-0,091	-0,163
-172,169	800,000	-0,056	-0,149
-171,154	157,308	0,063	-0,064
-170,139	-200,000	-0,005	-0,033
-169,125	331,894	0,033	-0,046
-168,110	15,713	0,177	0,101
-167,096	38,657	0,075	-0,049
-166,081	-6,451	-0,104	-0,051
-165,066	-15,491	-0,069	-0,032
-164,052	105,663	0,022	0,019
-163,037	178,957	-0,052	0,055
-162,023	-67,093	0,074	0,021
-161,008	-200,000	0,011	0,066
-159,993	1,439	0,109	0,057
-158,979	199,835	0,115	0,129
-157,964	-200,000	-0,001	0,015
-156,950	468,716	-0,040	-0,066
-155,935	800,000	-0,018	-0,050
-154,920	-36,035	0,083	-0,033
-153,906	496,707	0,049	0,082
-152,891	292,110	-0,056	-0,074
-151,877	95,405	0,073	-0,061
-150,862	-40,391	-0,112	0,042
-149,847	-200,000	0,003	0,101
-148,833	-21,958	0,084	-0,037
-147,818	37,027	-0,044	0,028
-146,804	-104,488	0,040	0,007
-145,789	-109,804	0,029	0,004
-144,775	800,000	0,029	0,061
-143,760	-200,000	-0,002	-0,036
-142,745	800,000	-0,044	-0,104
-141,731	800,000	0,024	0,065
-140,716	165,469	-0,064	-0,066
-139,702	22,032	0,083	-0,049
-138,687	800,000	0,027	0,079
-137,672	-134,642	-0,081	-0,007
-136,658	-118,621	-0,153	0,019
-135,643	768,558	0,025	0,049
-134,629	800,000	0,048	0,144
-133,614	-78,550	0,083	0,020
-132,599	-200,000	-0,007	-0,075
-131,585	55,465	-0,018	0,013
-130,570	9,884	-0,132	-0,073
-129,556	-8,309	-0,056	-0,027
-128,541	-200,000	0,005	-0,058
-127,526	-200,000	0,008	0,041
-126,512	-200,000	0,013	-0,145
-125,497	-200,000	-0,005	-0,097
-124,483	-200,000	-0,035	0,129
-123,468	302,895	-0,035	-0,047
-122,453	24,852	-0,045	0,027
-121,439	52,598	-0,033	0,023
-120,424	-136,409	-0,104	-0,009
-119,410	-200,000	0,016	-0,054
-118,395	-137,439	0,155	0,013
-117,380	-83,079	-0,077	0,018
-116,366	-103,328	-0,120	-0,020
-115,351	-200,000	0,010	-0,053
-114,337	115,128	-0,050	-0,045
-113,322	133,559	-0,030	-0,028
-112,307	64,629	-0,047	0,034
-111,293	349,582	-0,056	0,081
-110,278	208,997	0,074	-0,085
-109,264	800,000	-0,044	0,130
-108,249	166,372	0,095	0,098
-107,234	16,021	-0,084	-0,048
-106,220	223,095	0,029	-0,034
-105,205	-103,349	0,041	-0,007
-104,191	-79,185	0,026	0,006
-103,176	800,000	0,072	0,146
-102,162	187,918	0,034	-0,037
-101,147	-200,000	-0,010	-0,076
-100,132	19,020	0,053	-0,031
-99,118	461,756	0,084	-0,137
-98,103	-101,529	-0,117	0,020
-97,089	10,546	0,093	-0,051
-96,074	-200,000	-0,031	0,107
-95,059	800,000	0,061	0,135
-94,045	564,336	-0,066	0,118
-93,030	-200,000	-0,018	0,063
-92,016	-76,272	0,038	-0,010
-91,001	212,633	-0,078	-0,089
-89,986	143,587	-0,052	0,050
-88,972	-33,149	0,071	-0,028
-87,957	-200,000	0,005	0,089
-86,943	156,780	-0,075	0,075
-85,928	278,865	0,065	0,084
-84,913	70,203	0,090	-0,067
-83,899	549,904	0,022	0,039
-82,884	-35,083	-0,154	0,061
-81,870	-162,770	0,073	-0,003
-80,855	364,763	0,068	-0,100
-79,840	6,151	0,082	0,044
-78,826	-200,000	-0,018	0,117
-77,811	352,981	0,038	0,056
-76,797	800,000	-0,023	0,067
-75,782	53,659	0,133	0,093
-74,767	-81,816	0,117	-0,028
-73,753	42,027	0,040	-0,026
-72,738	-11,845	0,051	0,024
-71,724	210,718	0,029	0,033
-70,709	-83,724	-0,169	-0,039
-69,694	466,647	-0,038	0,062
-68,680	800,000	0,029	-0,088
-67,665	48,391	0,067	0,046
-66,651	-187,919	0,132	0,001
-65,636	442,073	0,048	-0,077
-64,622	10,329	0,030	-0,016
-63,607	161,788	-0,139	0,141
-62,592	156,192	-0,060	0,060
-61,578	36,048	0,091	0,058
-60,563	-200,000	0,002	-0,029
-59,549	649,633	-0,047	-0,088
-58,534	-105,648	-1,265	-0,206
-57,519	452,901	-0,906	-1,460
-56,505	-200,000	-0,825	-4,297
-55,490	24,468	0,522	-0,312
-54,476	800,000	4,894	11,755
-53,461	-200,000	13,810	252,081
-52,446	-200,000	692,139	2260,816
-51,432	602,342	1622,621	2938,427
-50,417	118,225	1632,716	1460,444
-49,403	73,682	1287,147	977,335
-48,388	37,608	1022,932	657,178
-47,373	24,037	981,344	585,847
-46,359	23,285	970,850	577,095
-45,344	22,310	966,307	571,189
-44,330	22,226	965,008	570,124
-43,315	22,077	963,608	568,790
-42,300	22,083	962,325	568,029
-41,286	22,098	961,543	567,592
-40,271	22,013	960,705	566,801
-39,257	22,003	959,783	566,201
-38,242	22,031	958,667	565,612
-37,227	22,041	957,883	565,157
-36,213	21,973	957,147	564,482
-35,198	22,020	956,001	563,936
-34,184	22,062	955,559	563,787
-33,169	21,996	954,756	563,079
-32,154	22,041	953,728	562,594
-31,140	22,050	952,870	562,095
-30,125	22,049	952,163	561,653
-29,111	22,071	951,324	561,205
-28,096	22,052	950,565	560,675
-27,082	22,092	949,721	560,284
-26,067	22,112	948,891	559,837
-25,052	22,121	948,242	559,461
-24,038	22,067	947,606	558,888
-23,023	22,063	946,943	558,463
-22,009	22,084	946,469	558,228
-20,994	22,023	945,870	557,659
-19,979	22,076	945,040	557,317
-18,965	22,053	944,443	556,870
-17,950	22,033	943,964	556,502
-16,936	22,024	943,316	556,069
-15,921	22,014	942,462	555,509
-14,906	21,928	941,772	554,807
-13,892	21,902	941,128	554,323
-12,877	21,937	940,455	554,018
-11,863	21,916	939,864	553,579
-10,848	21,949	939,467	553,429
-9,833	22,025	939,007	553,376
-8,819	22,011	938,362	552,931
-7,804	21,892	937,778	552,186
-6,790	21,899	937,165	551,825
-5,775	21,980	936,529	551,686
-4,760	21,947	936,005	551,251
-3,746	21,895	935,365	550,689
-2,731	21,768	934,578	549,802
-1,717	21,757	933,813	549,296
-0,702	21,779	933,073	548,910
0,313	21,624	932,332	548,814
1,327	24,089	930,226	555,270
2,342	32,011	808,649	504,163
3,356	27,131	509,366	309,212
4,371	2,536	374,185	195,823
5,386	-0,528	357,040	183,070
6,400	-1,828	351,006	178,387
7,415	-2,632	348,048	175,904
8,429	-2,932	346,755	174,876
9,444	-2,867	345,771	174,442
10,459	-2,815	344,969	174,084
11,473	-3,026	344,420	173,541
12,488	-2,869	343,941	173,470
13,502	-2,905	343,407	173,143
14,517	-2,946	342,876	172,811
15,531	-2,982	342,334	172,480
16,546	-2,987	341,926	172,253
17,561	-2,946	341,374	172,008
18,575	-2,975	341,075	171,809
19,590	-2,998	340,674	171,563
20,604	-2,971	340,501	171,492
21,619	-3,009	339,996	171,179
22,634	-2,813	339,648	171,217
23,648	-3,001	339,321	170,818
24,663	-2,871	338,790	170,687
25,677	-2,890	338,667	170,588
26,692	-2,764	338,385	170,576
27,707	-2,734	337,824	170,314
28,721	-2,990	337,686	169,931
29,736	-2,885	337,485	169,937
30,750	-2,820	336,990	169,748
31,765	-2,833	336,831	169,638
32,780	-2,703	336,460	169,587
33,794	-2,950	336,305	169,208
34,809	-2,838	335,847	169,092
35,823	-2,866	335,729	168,984
36,838	-2,853	335,367	168,802
37,853	-2,947	335,027	168,508
38,867	-2,835	334,748	168,481
39,882	-2,709	334,493	168,483
40,896	-2,829	334,367	168,267
41,911	-2,903	334,119	168,041
42,926	-2,934	333,750	167,806
43,940	-2,878	333,523	167,741
44,955	-2,961	333,226	167,481
45,969	-2,860	332,971	167,454
46,984	-2,878	332,710	167,287
47,999	-2,797	332,547	167,283
49,013	-2,897	332,237	166,998
50,028	-2,986	332,057	166,791
51,042	-2,910	331,629	166,647
52,057	-3,048	331,424	166,372
53,071	-2,940	331,160	166,348
54,086	-2,968	330,996	166,218
55,101	-2,870	330,707	166,170
56,115	-2,811	330,424	166,080
57,130	-2,792	330,173	165,960
58,144	-2,826	329,876	165,758
59,159	-2,739	329,542	165,673
60,174	-2,873	329,377	165,425
61,188	-2,973	329,027	165,121
62,203	-2,789	328,979	165,290
63,217	-2,721	328,614	165,169
64,232	-2,775	328,359	164,965
65,247	-2,800	328,065	164,774
66,261	-2,817	327,730	164,573
67,276	-2,815	327,484	164,437
68,290	-2,948	327,412	164,236
69,305	-2,733	327,021	164,267
70,320	-2,938	327,040	164,032
71,334	-2,734	326,549	163,999
72,349	-2,776	326,351	163,838
73,363	-2,911	326,096	163,545
74,378	-2,813	325,722	163,452
75,393	-2,797	325,458	163,322
76,407	-2,664	325,190	163,322
77,422	-2,843	325,042	163,034
78,436	-2,807	324,789	162,932
79,451	-2,831	324,590	162,791
80,466	-2,936	324,368	162,549
81,480	-2,832	324,002	162,466
82,495	-3,008	323,924	162,217
83,509	-2,671	323,466	162,347
84,524	-2,875	323,440	162,093
85,539	-2,898	323,026	161,846
86,553	-2,919	322,943	161,766
87,568	-2,915	322,662	161,616
88,582	-2,842	322,385	161,543
89,597	-2,856	322,214	161,427
90,611	-2,806	321,848	161,285
91,626	-2,846	321,779	161,193
92,641	-2,882	321,521	161,009
93,655	-2,856	321,228	160,876
94,670	-2,827	320,963	160,761
95,684	-2,823	320,658	160,599
96,699	-2,848	320,494	160,474
97,714	-2,861	320,252	160,325
98,728	-2,897	320,069	160,180
99,743	-2,847	319,805	160,088
100,757	-2,780	319,528	160,008
101,772	-2,785	319,272	159,861
102,787	-2,611	318,913	159,856
103,801	-2,934	318,914	159,490
104,816	-2,828	318,546	159,407
105,830	-2,796	318,271	159,291
106,845	-2,703	317,984	159,233
107,860	-2,858	317,969	159,043
108,874	-2,793	317,683	158,957
109,889	-2,862	317,463	158,757
110,903	-2,883	317,288	158,633
111,918	-2,668	317,028	158,721
112,933	-2,777	316,777	158,464
113,947	-2,808	316,530	158,293
114,962	-2,823	316,376	158,185
115,976	-2,707	316,032	158,124
116,991	-2,893	315,864	157,826
118,006	-2,829	315,748	157,822
119,020	-2,802	315,531	157,729
120,035	-2,826	315,380	157,613
121,049	-2,808	315,205	157,531
122,064	-2,750	314,793	157,374
123,079	-2,780	314,544	157,203
124,093	-2,789	314,445	157,130
125,108	-2,892	314,153	156,859
126,122	-2,890	313,943	156,743
127,137	-2,769	313,727	156,751
128,151	-2,758	313,457	156,614
129,166	-2,788	313,241	156,459
130,181	-2,903	312,931	156,167
131,195	-2,830	312,902	156,217
132,210	-2,823	312,543	156,032
133,224	-2,877	312,289	155,833
134,239	-2,802	312,096	155,803
135,254	-2,824	311,921	155,678
136,268	-2,815	311,672	155,550
137,283	-2,801	311,504	155,467
138,297	-2,895	311,241	155,223
139,312	-2,798	310,932	155,157
140,327	-2,762	310,688	155,060
141,341	-2,836	310,687	154,967
142,356	-2,655	310,280	154,942
143,370	-2,692	310,223	154,860
144,385	-2,613	309,905	154,771
145,400	-2,771	309,559	154,418
146,414	-2,552	309,346	154,529
147,429	-2,876	309,269	154,135
148,443	-2,606	309,086	154,314
149,458	-2,630	308,981	154,223
150,473	-2,741	308,790	153,997
151,487	-2,836	308,511	153,745
152,502	-2,788	308,215	153,633
153,516	-2,693	307,850	153,537
154,531	-2,805	307,896	153,430
155,546	-2,882	307,610	153,192
156,560	-2,869	307,329	153,053
157,575	-2,816	307,210	153,035
158,589	-2,612	307,009	153,134
159,604	-2,755	306,567	152,751
160,619	-2,530	306,294	152,836
161,633	-2,747	306,368	152,633
162,648	-2,694	306,015	152,499
163,662	-2,652	305,955	152,499
164,677	-2,787	305,725	152,230
165,692	-2,626	305,452	152,248
166,706	-2,786	305,242	151,964
167,721	-2,721	305,171	151,982
168,735	-2,559	304,841	151,972
169,750	-2,810	304,708	151,632
170,764	-2,770	304,685	151,649
171,779	-2,595	304,447	151,698
172,794	-2,540	304,086	151,561
173,808	-2,833	304,012	151,208
174,823	-2,799	303,612	151,031
175,837	-2,879	303,435	150,847
176,852	-2,804	303,323	150,855
177,867	-2,537	303,053	150,982
178,881	-2,708	302,920	150,726
179,896	-2,637	302,615	150,634
180,910	-2,669	302,547	150,554
181,925	-2,633	302,218	150,414
182,940	-2,534	301,940	150,363
183,954	-2,661	301,911	150,206
184,969	-2,765	301,678	149,970
185,983	-2,681	301,536	149,972
186,998	-2,577	301,213	149,904
188,013	-2,576	301,166	149,868
189,027	-2,748	300,786	149,490
190,042	-2,688	300,603	149,448
191,056	-2,586	300,471	149,473
192,071	-2,677	300,254	149,259
193,086	-2,657	299,902	149,090
194,100	-2,532	299,779	149,142
195,115	-2,714	299,523	148,817
196,129	-2,649	299,320	148,769
197,144	-2,833	299,245	148,532
198,159	-2,467	298,775	148,656
199,173	-2,548	298,668	148,507
200,188	-2,612	298,590	148,390
201,202	-2,660	298,365	148,217
202,217	-2,582	298,031	148,116
203,232	-2,766	297,822	147,814
204,246	-2,645	297,627	147,827
205,261	-2,746	297,468	147,632
206,275	-2,764	297,315	147,526
207,290	-2,523	297,020	147,608
208,304	-2,625	296,945	147,455
209,319	-2,521	296,546	147,348
210,334	-2,613	296,457	147,199
211,348	-2,612	296,277	147,097
212,363	-2,743	296,210	146,919
213,377	-2,653	295,880	146,832
214,392	-2,567	295,818	146,875
215,407	-2,529	295,525	146,755
216,421	-2,658	295,377	146,538
217,436	-2,596	295,037	146,419
218,450	-2,561	294,929	146,387
219,465	-2,636	294,760	146,216
220,480	-2,679	294,475	146,018
221,494	-2,674	294,500	146,022
222,509	-2,518	294,162	145,998
223,523	-2,503	293,974	145,906
224,538	-2,600	293,754	145,688
225,553	-2,587	293,534	145,578
226,567	-2,554	293,427	145,544
227,582	-2,520	293,220	145,462
228,596	-2,534	293,163	145,408
229,611	-2,510	292,718	145,198
230,626	-2,551	292,562	145,067
231,640	-2,509	292,422	145,026
232,655	-2,621	292,227	144,806
233,669	-2,790	292,141	144,583
234,684	-2,722	291,747	144,443
235,699	-2,812	291,822	144,378
236,713	-2,702	291,553	144,341
237,728	-2,510	291,190	144,337
238,742	-2,641	291,063	144,132
239,757	-2,509	290,775	144,107
240,772	-2,728	290,683	143,833
241,786	-2,467	290,460	143,965
242,801	-2,621	290,419	143,782
243,815	-2,643	290,133	143,606
244,830	-2,652	289,872	143,454
245,844	-2,687	289,862	143,402
246,859	-2,849	289,623	143,113
247,874	-2,702	289,411	143,140
248,888	-2,732	289,223	143,004
249,903	-2,579	289,083	143,071
250,917	-2,431	288,720	143,023
251,932	-2,517	288,680	142,907
252,947	-2,465	288,410	142,811
253,961	-2,243	288,423	143,021
254,976	-1,866	288,250	143,289
255,990	-2,195	287,848	142,757
257,005	-2,321	287,836	142,616
258,020	-0,966	288,316	144,158
259,034	0,791	288,775	146,083
260,049	1,585	288,683	146,794
261,063	1,755	288,752	146,981
262,078	1,964	288,768	147,179
263,093	2,347	288,594	147,448
264,107	2,477	288,541	147,534
265,122	2,558	288,437	147,547
266,136	2,540	288,415	147,505
267,151	2,788	288,221	147,632
268,166	2,848	287,909	147,518
269,180	2,738	287,697	147,290
270,195	2,678	287,504	147,120
271,209	2,732	287,309	147,059
272,224	2,776	287,120	146,992
273,239	2,650	286,964	146,777
274,253	2,753	286,589	146,672
275,268	2,633	286,586	146,541
276,282	2,390	286,445	146,222
277,297	2,552	286,090	146,184
278,312	2,574	286,021	146,157
279,326	2,571	285,704	145,979
280,341	2,499	285,693	145,891
281,355	2,592	285,452	145,844
282,370	2,264	285,298	145,438
283,384	2,455	284,989	145,451
284,399	2,559	284,866	145,474
285,414	2,571	284,642	145,358
286,428	2,647	284,471	145,331
287,443	2,457	284,359	145,079
288,457	2,208	284,084	144,688
289,472	2,480	283,822	144,801
290,487	2,446	283,626	144,656
291,501	2,445	283,485	144,570
292,516	2,157	283,331	144,205
293,530	2,214	283,122	144,140
294,545	2,289	283,000	144,136
295,560	2,374	282,765	144,084
296,574	2,445	282,427	143,966
297,589	2,258	282,249	143,686
298,603	2,203	282,233	143,613
299,618	2,348	282,003	143,620
300,633	2,349	281,914	143,562
301,647	2,496	281,679	143,569
302,662	2,492	281,591	143,508
303,676	2,558	281,296	143,407
304,691	2,642	281,235	143,442
305,706	2,725	281,087	143,431
306,720	2,741	280,754	143,264
307,735	2,806	280,664	143,266
308,749	2,556	280,449	142,909
309,764	2,657	280,340	142,936
310,779	2,630	280,048	142,749
311,793	2,725	279,975	142,788
312,808	2,285	279,808	142,278
313,822	2,575	279,638	142,451
314,837	2,686	279,228	142,332
315,852	2,461	279,277	142,134
316,866	2,633	279,084	142,184
317,881	2,674	278,804	142,067
318,895	2,567	278,653	141,878
319,910	2,267	278,527	141,521
320,925	2,421	278,311	141,542
321,939	2,581	278,090	141,566
322,954	2,529	278,100	141,511
323,968	2,619	277,959	141,509
324,983	2,665	277,650	141,382
325,997	2,555	277,506	141,194
327,012	2,729	277,240	141,208
328,027	2,513	277,128	140,938
329,041	2,654	276,901	140,941
330,056	2,730	276,712	140,902
331,070	2,598	276,623	140,722
332,085	2,750	276,436	140,755
333,100	2,671	276,221	140,560
334,114	2,416	276,058	140,229
335,129	2,830	275,648	140,389
336,143	2,640	275,615	140,185
337,158	2,783	275,619	140,306
338,173	2,404	275,410	139,839
339,187	2,525	275,131	139,796
340,202	2,639	275,008	139,826
341,216	2,591	274,834	139,681
342,231	2,820	274,502	139,709
343,246	2,570	274,498	139,465
344,260	2,770	274,401	139,588
345,275	2,713	274,113	139,376
346,289	2,791	273,968	139,361
347,304	2,756	273,828	139,246
348,319	2,663	273,668	139,067
349,333	2,734	273,412	138,989
350,348	2,628	273,308	138,828
351,362	2,743	273,034	138,780
352,377	2,779	272,824	138,694
353,392	2,612	272,740	138,488
354,406	2,471	272,691	138,322
355,421	192,486	1349,970	1433,794
356,435	155,439	1481,328	1433,937
