DTS Sentinel unit serial number:	SN410029Multiplexer serial number:	ORYXHardware model number:	OX2-SRSoftware version number:	ORYX F/W v4,00 Oryx Data Collector v3.7.2.0data status	okinstallation	B4 Nyhavnadifferential loss correction	single-endedforward channel	channel 2reverse channel	N/Adate	2023/12/19time	00:00:13forward acquisition time	300,00reverse acquisition time	0,00gamma	499,1914k internal	0,3123k external	0,3123temperature offset calibration	1,0000default loss term (dB/km)	0,3820temperature slope calibration	1,0000multiplexer offset coefficient	1,0000multiplexer slope coefficient	1,0000fibre end	0,00T internal ref (°C)	22,25T ext. ref 1 (°C)	7,23T ext. ref 2 (°C)	7,26length (m)	temperature (°C)	Stokes	anti-Stokes-744,400	800,000	0,058	-0,161
-743,385	57,964	-0,262	0,191
-742,371	-179,784	0,141	-0,002
-741,356	-21,908	-0,130	0,059
-740,342	-200,000	0,001	-0,016
-739,327	49,215	-0,210	0,147
-738,312	-200,000	0,015	-0,054
-737,298	-168,002	-0,350	-0,010
-736,283	52,754	-0,028	-0,020
-735,269	511,676	-0,114	0,199
-734,254	800,000	0,078	-0,183
-733,239	-53,739	-0,319	-0,108
-732,225	800,000	0,048	-0,115
-731,210	-200,000	-0,001	0,033
-730,196	-200,000	0,035	0,154
-729,181	-200,000	0,015	0,103
-728,167	713,523	-0,061	-0,121
-727,152	90,060	0,019	-0,016
-726,137	489,491	-0,026	0,045
-725,123	314,726	-0,101	0,143
-724,108	800,000	0,017	0,050
-723,094	-143,251	-0,206	-0,015
-722,079	33,961	0,001	-0,001
-721,064	92,115	-0,008	0,006
-720,050	800,000	-0,013	-0,039
-719,035	-200,000	0,019	0,155
-718,021	-11,149	-0,034	0,017
-717,006	157,629	-0,094	-0,097
-715,991	-129,682	-0,196	0,020
-714,977	-63,565	-0,146	-0,044
-713,962	-200,000	-0,010	-0,063
-712,948	468,775	0,031	0,052
-711,933	55,424	-0,084	-0,061
-710,918	315,471	0,074	0,104
-709,904	0,542	-0,060	-0,032
-708,889	69,299	-0,128	-0,098
-707,875	-50,955	-0,102	-0,035
-706,860	800,000	0,044	0,122
-705,845	148,958	-0,039	0,039
-704,831	14,059	-0,098	0,056
-703,816	-21,010	0,007	0,003
-702,802	259,121	-0,056	-0,073
-701,787	454,991	-0,118	-0,195
-700,772	769,561	0,021	0,043
-699,758	800,000	-0,018	0,045
-698,743	524,695	0,115	0,203
-697,729	-200,000	-0,025	0,116
-696,714	-200,000	0,014	-0,058
-695,699	800,000	0,027	-0,072
-694,685	-34,814	-0,178	-0,072
-693,670	183,607	-0,070	-0,077
-692,656	-118,267	-0,061	0,008
-691,641	800,000	0,034	-0,103
-690,627	-24,622	0,104	0,046
-689,612	-200,000	-0,016	-0,118
-688,597	-48,376	-0,114	0,041
-687,583	205,285	-0,081	-0,094
-686,568	800,000	0,016	0,049
-685,554	-89,481	-0,055	-0,012
-684,539	-98,131	-0,200	-0,038
-683,524	-85,711	-0,082	0,019
-682,510	3,350	0,105	0,057
-681,495	31,837	-0,168	0,107
-680,481	536,229	-0,056	0,099
-679,466	-124,758	-0,171	-0,019
-678,451	-3,793	-0,087	-0,045
-677,437	-200,000	0,008	-0,103
-676,422	-200,000	0,020	-0,166
-675,408	-160,229	0,045	-0,002
-674,393	93,931	-0,089	0,075
-673,378	32,473	-0,074	-0,047
-672,364	246,675	-0,064	-0,081
-671,349	240,664	-0,055	-0,069
-670,335	443,409	-0,030	-0,049
-669,320	354,840	-0,108	0,161
-668,305	-200,000	-0,008	0,084
-667,291	21,207	-0,082	-0,049
-666,276	-160,022	-0,051	-0,002
-665,262	800,000	-0,083	-0,214
-664,247	303,331	-0,060	-0,083
-663,232	-200,000	-0,012	0,115
-662,218	214,363	-0,060	0,071
-661,203	653,774	0,049	0,094
-660,189	314,576	0,066	0,093
-659,174	-53,688	-0,084	-0,028
-658,159	-62,526	-0,098	0,030
-657,145	48,984	-0,108	-0,075
-656,130	36,792	-0,085	-0,056
-655,116	-141,932	-0,021	0,002
-654,101	-200,000	-0,015	0,059
-653,086	-124,443	0,080	-0,009
-652,072	800,000	0,031	0,080
-651,057	-200,000	0,012	0,062
-650,043	637,951	0,056	-0,106
-649,028	-200,000	-0,042	-0,212
-648,014	333,498	-0,104	0,150
-646,999	-49,167	0,024	-0,009
-645,984	-200,000	0,019	0,077
-644,970	344,293	-0,031	0,046
-643,955	160,000	0,043	0,045
-642,941	281,013	-0,079	0,105
-641,926	800,000	-0,051	0,121
-640,911	-200,000	0,004	-0,046
-639,897	11,822	0,124	0,070
-638,882	-22,671	-0,044	-0,019
-637,868	800,000	0,035	0,082
-636,853	-92,212	-0,184	-0,038
-635,838	-52,650	-0,051	0,017
-634,824	-72,445	0,186	-0,051
-633,809	-200,000	-0,027	-0,093
-632,795	-200,000	0,013	0,084
-631,780	-37,047	0,051	-0,020
-630,765	80,648	0,125	-0,100
-629,751	-60,196	-0,149	0,047
-628,736	-200,000	-0,004	-0,035
-627,722	-85,046	-0,197	-0,045
-626,707	53,111	-0,108	0,077
-625,692	-200,000	-0,024	0,237
-624,678	-106,433	0,027	0,004
-623,663	800,000	-0,050	-0,107
-622,649	447,446	0,024	-0,040
-621,634	246,194	-0,022	-0,028
-620,619	518,851	-0,058	-0,101
-619,605	-200,000	0,000	0,026
-618,590	-200,000	0,001	0,079
-617,576	-50,602	-0,058	-0,020
-616,561	-76,994	-0,054	0,014
-615,546	209,455	-0,065	-0,076
-614,532	800,000	-0,090	-0,193
-613,517	-35,420	-0,028	-0,011
-612,503	-200,000	0,015	-0,098
-611,488	208,586	-0,072	0,083
-610,474	145,614	-0,100	-0,099
-609,459	-51,280	0,043	0,015
-608,444	-77,832	-0,040	0,010
-607,430	305,371	-0,037	-0,051
-606,415	568,802	0,025	0,045
-605,401	129,905	-0,054	0,051
-604,386	-128,656	-0,065	-0,007
-603,371	2,862	0,076	0,041
-602,357	-25,603	0,123	-0,053
-601,342	485,383	-0,018	0,030
-600,328	-136,629	-0,171	0,014
-599,313	800,000	0,026	-0,078
-598,298	800,000	0,011	-0,023
-597,284	44,046	-0,025	-0,017
-596,269	74,180	0,066	-0,052
-595,255	-30,508	0,044	-0,018
-594,240	155,638	-0,038	-0,039
-593,225	800,000	0,032	0,092
-592,211	403,991	-0,088	0,137
-591,196	-200,000	0,014	-0,049
-590,182	800,000	0,010	-0,025
-589,167	230,615	0,040	0,048
-588,152	36,354	-0,025	0,016
-587,138	800,000	0,007	-0,023
-586,123	356,891	-0,040	-0,059
-585,109	-200,000	-0,021	-0,164
-584,094	7,497	0,032	0,018
-583,079	45,756	0,029	-0,020
-582,065	-53,043	-0,112	-0,038
-581,050	205,648	-0,118	0,136
-580,036	168,597	0,066	-0,069
-579,021	-200,000	-0,024	-0,077
-578,006	-62,684	-0,084	-0,026
-576,992	25,972	0,078	-0,048
-575,977	-200,000	0,004	0,048
-574,963	800,000	0,026	0,084
-573,948	800,000	-0,040	-0,112
-572,934	800,000	0,017	-0,044
-571,919	679,711	-0,077	-0,149
-570,904	800,000	0,011	0,036
-569,890	-16,587	-0,054	0,025
-568,875	-111,125	-0,093	-0,014
-567,861	-116,628	-0,123	0,017
-566,846	177,020	-0,056	0,060
-565,831	-28,229	-0,039	0,017
-564,817	774,633	-0,024	0,049
-563,802	-176,374	-0,078	0,001
-562,788	53,044	-0,054	-0,038
-561,773	800,000	-0,055	0,123
-560,758	-172,214	-0,081	0,002
-559,744	429,013	0,046	0,074
-558,729	119,174	0,025	0,023
-557,715	-200,000	-0,012	0,048
-556,700	86,843	0,094	0,077
-555,685	800,000	-0,014	-0,031
-554,671	-200,000	0,003	-0,075
-553,656	78,968	0,054	-0,042
-552,642	49,745	0,027	0,019
-551,627	141,589	-0,058	-0,057
-550,612	171,161	-0,074	0,079
-549,598	800,000	0,029	0,071
-548,583	-179,053	-0,116	0,002
-547,569	-114,244	-0,185	0,026
-546,554	800,000	-0,046	0,110
-545,539	27,929	0,124	0,077
-544,525	-46,247	-0,028	0,010
-543,510	-77,399	-0,099	0,025
-542,496	-21,469	0,124	0,056
-541,481	-200,000	0,046	0,190
-540,466	-169,767	0,064	0,002
-539,452	-189,368	0,108	-0,001
-538,437	-200,000	0,025	0,128
-537,423	-200,000	-0,019	0,084
-536,408	212,346	0,019	0,023
-535,393	-114,633	-0,023	0,003
-534,379	29,823	0,036	0,023
-533,364	683,387	-0,026	0,051
-532,350	650,952	0,009	0,017
-531,335	9,538	0,223	0,125
-530,321	125,376	0,056	-0,052
-529,306	-3,909	-0,054	0,028
-528,291	800,000	-0,053	-0,112
-527,277	-157,997	0,110	0,005
-526,262	-88,942	-0,131	0,028
-525,248	-37,721	0,082	-0,032
-524,233	800,000	-0,042	0,107
-523,218	-200,000	-0,020	0,066
-522,204	800,000	0,034	0,073
-521,189	-200,000	0,016	0,056
-520,175	89,674	-0,140	-0,116
-519,160	77,481	-0,078	-0,061
-518,145	-200,000	-0,004	-0,024
-517,131	246,090	-0,072	-0,090
-516,116	-200,000	0,009	-0,045
-515,102	220,058	-0,095	0,112
-514,087	-200,000	0,042	0,205
-513,072	-9,212	-0,179	-0,088
-512,058	178,246	-0,045	-0,048
-511,043	-8,378	-0,044	-0,022
-510,029	74,360	0,061	-0,048
-509,014	274,332	-0,103	-0,135
-507,999	246,318	-0,095	-0,119
-506,985	-76,929	-0,027	0,007
-505,970	-200,000	0,044	0,170
-504,956	-155,161	0,211	-0,010
-503,941	145,816	0,135	0,133
-502,926	16,142	-0,030	0,018
-501,912	45,398	0,076	0,052
-500,897	-122,623	0,083	-0,010
-499,883	53,712	-0,073	-0,051
-498,868	-113,756	-0,057	0,008
-497,853	730,957	-0,046	0,091
-496,839	800,000	0,042	-0,101
-495,824	45,197	0,044	0,030
-494,810	800,000	0,029	-0,078
-493,795	661,356	0,024	0,046
-492,781	-200,000	0,009	0,046
-491,766	-200,000	-0,018	-0,214
-490,751	124,235	0,061	0,056
-489,737	-29,489	-0,096	0,040
-488,722	-200,000	-0,009	-0,065
-487,708	108,538	-0,149	0,132
-486,693	406,371	0,039	0,061
-485,678	-200,000	-0,016	-0,092
-484,664	22,782	-0,190	-0,115
-483,649	-200,000	-0,019	-0,088
-482,635	137,936	0,137	0,133
-481,620	18,017	0,080	0,047
-480,605	80,084	0,074	0,059
-479,591	545,768	-0,046	0,082
-478,576	-200,000	-0,002	-0,086
-477,562	-200,000	-0,004	0,106
-476,547	526,419	-0,023	-0,041
-475,532	800,000	0,022	0,054
-474,518	667,929	-0,015	-0,028
-473,503	-71,197	0,079	-0,022
-472,489	455,053	-0,018	-0,030
-471,474	59,422	-0,010	0,007
-470,459	329,456	0,026	-0,037
-469,445	130,558	0,075	0,071
-468,430	-200,000	0,013	0,149
-467,416	559,757	-0,052	-0,093
-466,401	420,744	-0,029	-0,046
-465,386	242,450	0,073	0,090
-464,372	97,937	0,061	0,052
-463,357	-200,000	-0,011	-0,054
-462,343	30,867	-0,044	-0,028
-461,328	800,000	-0,064	-0,153
-460,313	280,401	0,035	-0,046
-459,299	134,946	0,058	-0,055
-458,284	-200,000	-0,021	0,071
-457,270	-200,000	0,035	0,152
-456,255	-200,000	-0,007	-0,030
-455,241	76,260	-0,078	-0,061
-454,226	-148,594	-0,023	0,001
-453,211	-89,046	-0,052	-0,011
-452,197	3,350	0,125	0,067
-451,182	39,066	0,054	-0,036
-450,168	8,391	0,117	-0,065
-449,153	22,484	-0,059	0,035
-448,138	97,027	-0,048	0,041
-447,124	-200,000	-0,000	0,052
-446,109	-200,000	-0,000	0,032
-445,095	-200,000	0,044	-0,154
-444,080	189,895	0,109	0,120
-443,065	-17,630	0,131	-0,060
-442,051	-200,000	-0,005	-0,088
-441,036	-65,690	-0,110	-0,032
-440,022	308,129	0,094	0,129
-439,007	100,936	-0,079	-0,068
-437,992	-200,000	0,083	0,000
-436,978	-30,776	0,101	0,042
-435,963	-200,000	-0,034	0,167
-434,949	-137,292	0,016	0,001
-433,934	800,000	0,004	0,009
-432,919	-43,182	-0,063	-0,023
-431,905	403,619	0,080	-0,124
-430,890	-48,681	0,117	0,041
-429,876	-200,000	-0,005	-0,099
-428,861	628,169	0,052	0,097
-427,846	-116,308	-0,102	0,014
-426,832	-59,613	-0,043	-0,013
-425,817	-53,053	-0,064	0,022
-424,803	137,010	0,094	-0,090
-423,788	-117,394	0,151	-0,020
-422,773	-90,066	0,079	0,017
-421,759	101,307	-0,026	-0,022
-420,744	331,646	0,060	-0,085
-419,730	287,383	-0,044	-0,058
-418,715	-200,000	0,034	0,115
-417,701	-200,000	0,007	0,055
-416,686	800,000	0,039	0,110
-415,671	-33,560	0,093	0,038
-414,657	-98,753	0,032	-0,006
-413,642	-200,000	-0,005	-0,149
-412,628	-59,058	-0,073	-0,023
-411,613	-4,032	0,154	-0,078
-410,598	125,049	-0,043	-0,040
-409,584	388,988	-0,016	0,024
-408,569	-83,091	0,123	0,029
-407,555	-200,000	0,014	0,109
-406,540	800,000	-0,060	-0,148
-405,525	-60,154	-0,119	-0,037
-404,511	46,151	0,094	-0,064
-403,496	114,293	0,126	0,112
-402,482	-200,000	0,030	0,110
-401,467	-200,000	0,014	0,079
-400,452	-170,345	-0,084	-0,002
-399,438	-93,527	0,134	-0,027
-398,423	-8,522	-0,106	0,052
-397,409	-150,483	0,038	0,002
-396,394	-31,963	0,142	0,058
-395,379	258,399	0,009	-0,011
-394,365	-200,000	-0,035	0,136
-393,350	93,528	-0,021	0,018
-392,336	2,204	0,070	0,037
-391,321	-126,814	0,085	0,009
-390,306	47,459	0,082	0,056
-389,292	237,950	0,075	0,092
-388,277	-127,124	0,070	-0,007
-387,263	800,000	0,018	0,051
-386,248	-200,000	-0,033	0,113
-385,233	-200,000	0,008	-0,044
-384,219	63,485	0,038	0,028
-383,204	-115,930	-0,117	-0,016
-382,190	253,997	0,108	-0,136
-381,175	-103,467	-0,060	0,010
-380,160	418,362	0,013	-0,021
-379,146	169,703	0,047	0,050
-378,131	800,000	-0,017	-0,040
-377,117	-200,000	0,006	0,108
-376,102	184,306	-0,030	-0,033
-375,088	-200,000	-0,016	-0,100
-374,073	800,000	-0,014	0,040
-373,058	66,729	-0,068	-0,051
-372,044	-132,875	0,207	0,019
-371,029	-134,434	-0,086	-0,008
-370,015	368,854	-0,042	-0,062
-369,000	211,518	-0,069	0,080
-367,985	89,829	-0,094	-0,077
-366,971	800,000	-0,025	0,071
-365,956	-68,778	-0,039	-0,011
-364,942	329,242	0,055	0,078
-363,927	-142,109	0,092	0,007
-362,912	-200,000	-0,029	0,128
-361,898	6,466	0,111	0,061
-360,883	-39,321	-0,033	-0,013
-359,869	800,000	0,063	-0,144
-358,854	34,736	0,061	0,039
-357,839	599,462	-0,024	0,044
-356,825	-136,903	-0,138	0,012
-355,810	-92,397	-0,081	0,017
-354,796	329,581	-0,052	-0,074
-353,781	62,852	-0,188	-0,138
-352,766	96,093	0,071	-0,060
-351,752	-200,000	0,004	0,031
-350,737	-164,898	0,039	0,001
-349,723	-56,851	0,115	0,037
-348,708	800,000	-0,025	0,052
-347,693	58,848	-0,158	-0,114
-346,679	66,970	-0,094	-0,070
-345,664	-200,000	-0,009	0,054
-344,650	-117,414	0,119	0,016
-343,635	558,972	0,042	0,075
-342,620	-79,118	0,053	-0,013
-341,606	800,000	0,003	-0,007
-340,591	103,889	-0,058	-0,050
-339,577	-68,117	0,060	-0,017
-338,562	-200,000	-0,006	-0,050
-337,548	166,967	-0,051	-0,053
-336,533	29,738	0,049	0,031
-335,518	-200,000	-0,009	0,151
-334,504	-200,000	-0,121	0,000
-333,489	-110,470	-0,012	0,002
-332,475	-55,904	-0,056	0,018
-331,460	398,883	0,104	-0,160
-330,445	-200,000	0,007	-0,024
-329,431	800,000	0,070	-0,190
-328,416	-200,000	0,010	-0,046
-327,402	-75,856	0,104	0,027
-326,387	800,000	0,050	-0,103
-325,372	92,751	0,035	-0,029
-324,358	-200,000	-0,008	-0,045
-323,343	-200,000	0,025	-0,086
-322,329	-200,000	0,022	0,081
-321,314	-91,767	0,171	0,035
-320,299	245,865	0,020	0,024
-319,285	372,444	-0,025	0,037
-318,270	-59,133	-0,044	0,014
-317,256	327,661	0,069	-0,097
-316,241	800,000	0,010	-0,027
-315,226	228,855	0,077	0,092
-314,212	-200,000	-0,017	-0,148
-313,197	800,000	0,038	-0,086
-312,183	-200,000	0,006	0,071
-311,168	800,000	-0,004	-0,009
-310,153	-1,490	-0,032	-0,016
-309,139	800,000	-0,034	-0,099
-308,124	328,972	-0,063	0,089
-307,110	800,000	-0,010	-0,030
-306,095	130,566	0,042	0,040
-305,080	91,554	0,077	-0,063
-304,066	151,823	-0,102	-0,102
-303,051	800,000	0,038	-0,108
-302,037	-200,000	-0,017	-0,097
-301,022	-32,805	0,095	-0,039
-300,008	800,000	-0,042	-0,096
-298,993	800,000	0,011	-0,029
-297,978	-200,000	0,002	0,041
-296,964	124,700	0,068	0,063
-295,949	-200,000	0,016	-0,107
-294,935	800,000	0,021	0,059
-293,920	-116,247	0,112	0,015
-292,905	-116,760	0,073	0,010
-291,891	-200,000	-0,006	0,080
-290,876	800,000	0,041	-0,119
-289,862	753,085	0,006	0,011
-288,847	506,208	0,074	-0,126
-287,832	108,216	-0,136	-0,119
-286,818	800,000	-0,038	-0,092
-285,803	-123,329	-0,041	0,005
-284,789	800,000	0,045	-0,112
-283,774	-200,000	0,009	-0,033
-282,759	-200,000	-0,021	0,083
-281,745	84,899	0,101	0,081
-280,730	226,601	-0,054	-0,065
-279,716	-200,000	0,004	0,096
-278,701	-200,000	-0,016	0,079
-277,686	214,428	0,018	-0,021
-276,672	218,196	-0,082	-0,096
-275,657	-136,943	-0,070	0,006
-274,643	-35,565	0,033	-0,013
-273,628	-31,942	0,048	0,019
-272,613	-91,549	-0,058	-0,012
-271,599	301,746	0,119	0,162
-270,584	800,000	-0,026	-0,070
-269,570	167,968	0,011	0,012
-268,555	800,000	-0,018	0,045
-267,540	-200,000	-0,018	-0,122
-266,526	-200,000	0,036	-0,177
-265,511	255,528	0,071	-0,090
-264,497	502,217	-0,048	-0,082
-263,482	-116,823	0,095	0,013
-262,467	-200,000	-0,008	-0,063
-261,453	-6,568	0,049	-0,024
-260,438	165,601	-0,018	-0,018
-259,424	-37,074	0,078	-0,030
-258,409	100,912	0,048	0,041
-257,395	800,000	0,082	0,206
-256,380	164,241	0,083	0,086
-255,365	-75,609	0,070	-0,018
-254,351	-200,000	0,029	-0,098
-253,336	-192,211	-0,167	-0,001
-252,322	-3,952	0,030	-0,015
-251,307	800,000	0,025	-0,067
-250,292	-200,000	-0,027	-0,136
-249,278	-133,007	0,065	0,006
-248,263	-164,796	-0,082	0,003
-247,249	120,400	0,099	0,090
-246,234	-95,262	-0,109	-0,021
-245,219	77,088	0,024	-0,019
-244,205	-24,860	-0,034	0,015
-243,190	-147,024	0,060	0,004
-242,176	544,129	-0,019	-0,034
-241,161	303,377	0,075	-0,102
-240,146	-38,936	0,082	0,031
-239,132	213,115	-0,064	-0,074
-238,117	-200,000	0,012	-0,051
-237,103	16,652	0,131	-0,075
-236,088	-4,796	-0,010	-0,005
-235,073	204,578	0,064	0,072
-234,059	304,388	-0,053	-0,072
-233,044	41,133	-0,063	-0,042
-232,030	-200,000	0,011	0,073
-231,015	3,307	-0,132	0,070
-230,000	157,161	0,081	-0,082
-228,986	-200,000	-0,012	0,046
-227,971	-102,098	-0,064	-0,011
-226,957	-65,709	-0,092	0,027
-225,942	-11,033	-0,085	0,041
-224,927	100,281	0,060	-0,051
-223,913	44,334	-0,136	0,091
-222,898	-121,691	0,046	0,005
-221,884	327,963	0,045	-0,064
-220,869	392,528	-0,060	-0,092
-219,855	-200,000	-0,027	-0,117
-218,840	-57,044	-0,042	0,013
-217,825	-46,676	0,088	0,031
-216,811	-200,000	-0,003	0,076
-215,796	-200,000	0,018	-0,102
-214,782	204,511	-0,034	-0,039
-213,767	268,800	-0,021	-0,027
-212,752	176,680	0,063	0,067
-211,738	20,564	0,135	0,079
-210,723	-200,000	0,003	-0,023
-209,709	-10,351	-0,094	-0,045
-208,694	156,739	0,098	-0,099
-207,679	81,675	-0,082	0,065
-206,665	-82,764	0,070	0,016
-205,650	-200,000	-0,012	0,159
-204,636	-200,000	-0,042	0,244
-203,621	-200,000	-0,007	0,168
-202,606	-49,898	-0,066	-0,023
-201,592	283,161	-0,028	0,036
-200,577	-99,437	-0,057	-0,010
-199,563	-200,000	-0,019	-0,137
-198,548	-200,000	-0,002	-0,009
-197,533	328,551	-0,041	-0,057
-196,519	-200,000	0,011	-0,090
-195,504	79,875	0,144	0,113
-194,490	-200,000	0,005	0,027
-193,475	59,651	-0,072	-0,052
-192,460	-92,645	0,036	0,007
-191,446	649,947	0,030	0,057
-190,431	-200,000	-0,028	0,146
-189,417	-132,621	-0,059	0,005
-188,402	4,297	-0,059	0,032
-187,387	57,273	-0,055	-0,039
-186,373	-200,000	-0,022	-0,084
-185,358	-50,436	0,028	0,010
-184,344	-76,827	-0,108	0,027
-183,329	-12,187	-0,130	0,062
-182,315	118,428	0,008	-0,007
-181,300	-94,579	0,099	-0,019
-180,285	15,364	0,106	-0,061
-179,271	671,637	-0,017	0,033
-178,256	-94,957	-0,046	-0,009
-177,242	311,495	-0,051	0,070
-176,227	-200,000	-0,006	0,071
-175,212	798,224	0,027	0,055
-174,198	35,799	-0,138	0,088
-173,183	-67,571	-0,092	0,026
-172,169	-39,482	-0,106	-0,040
-171,154	599,051	0,014	0,026
-170,139	-200,000	-0,017	-0,065
-169,125	359,211	0,057	0,084
-168,110	106,652	0,079	0,069
-167,096	-128,805	-0,165	0,017
-166,081	-103,568	-0,072	0,012
-165,066	-200,000	0,009	0,051
-164,052	40,794	0,074	0,048
-163,037	-200,000	0,025	0,140
-162,023	3,012	0,174	-0,092
-161,008	73,966	-0,059	0,045
-159,993	128,549	0,057	-0,053
-158,979	800,000	-0,042	-0,098
-157,964	91,622	-0,031	0,026
-156,950	-200,000	-0,025	-0,103
-155,935	-79,828	0,087	0,021
-154,920	-200,000	-0,003	-0,015
-153,906	-75,176	0,080	-0,021
-152,891	36,861	-0,066	-0,042
-151,877	-66,967	-0,038	0,011
-150,862	-200,000	-0,003	-0,042
-149,847	-163,338	0,027	-0,001
-148,833	-110,465	-0,041	0,006
-147,818	-176,498	0,138	-0,003
-146,804	-33,997	-0,046	-0,018
-145,789	-63,846	-0,059	-0,017
-144,775	313,823	0,060	-0,082
-143,760	-65,755	-0,035	0,010
-142,745	-200,000	0,014	-0,114
-141,731	48,362	-0,053	-0,036
-140,716	-34,728	-0,099	0,039
-139,702	166,318	0,048	0,050
-138,687	-85,086	0,031	0,007
-137,672	51,234	0,016	0,011
-136,658	-200,000	-0,003	0,051
-135,643	-200,000	0,007	-0,055
-134,629	196,958	-0,043	0,048
-133,614	70,447	0,118	-0,088
-132,599	-101,343	0,020	0,003
-131,585	-90,514	0,107	-0,022
-130,570	-200,000	-0,009	-0,069
-129,556	-137,591	-0,089	0,007
-128,541	-200,000	0,012	0,056
-127,526	-200,000	0,006	0,035
-126,512	208,122	0,071	0,081
-125,497	-193,405	-0,096	-0,001
-124,483	-98,038	0,150	-0,028
-123,468	2,617	0,086	-0,045
-122,453	179,822	-0,041	-0,044
-121,439	5,105	-0,114	-0,061
-120,424	-26,462	-0,106	-0,045
-119,410	-200,000	-0,007	-0,075
-118,395	-200,000	-0,009	-0,107
-117,380	-123,680	0,117	0,013
-116,366	335,724	0,096	-0,136
-115,351	86,101	-0,045	-0,036
-114,337	-70,520	-0,070	0,019
-113,322	-75,335	-0,022	0,006
-112,307	-200,000	0,018	0,097
-111,293	-54,631	0,224	0,073
-110,278	-88,042	-0,101	0,022
-109,264	-200,000	-0,001	-0,129
-108,249	-140,562	-0,075	0,006
-107,234	-200,000	0,027	-0,100
-106,220	-22,630	0,052	-0,023
-105,205	800,000	0,054	0,115
-104,191	441,806	0,024	-0,038
-103,176	800,000	-0,033	0,096
-102,162	293,583	-0,042	-0,056
-101,147	31,487	-0,097	-0,061
-100,132	127,415	-0,080	-0,074
-99,118	-139,902	-0,113	-0,009
-98,103	800,000	0,031	0,065
-97,089	-200,000	0,015	-0,109
-96,074	-200,000	0,007	0,125
-95,059	-200,000	0,015	-0,100
-94,045	-126,374	-0,135	0,014
-93,030	-13,148	-0,062	0,029
-92,016	509,692	-0,039	-0,066
-91,001	-104,600	-0,056	-0,009
-89,986	-200,000	-0,011	0,072
-88,972	-27,868	-0,075	-0,031
-87,957	-17,498	0,069	-0,031
-86,943	-107,665	-0,062	0,010
-85,928	306,954	-0,044	-0,059
-84,913	317,269	-0,033	-0,046
-83,899	93,867	0,107	-0,088
-82,884	30,119	0,093	0,057
-81,870	800,000	0,056	-0,115
-80,855	-200,000	-0,008	0,094
-79,840	21,104	-0,040	0,024
-78,826	29,992	-0,077	0,048
-77,811	-200,000	0,011	-0,107
-76,797	578,322	0,023	0,042
-75,782	-200,000	-0,061	0,000
-74,767	-200,000	-0,008	0,158
-73,753	-200,000	-0,022	0,117
-72,738	-200,000	-0,015	-0,129
-71,724	6,977	-0,031	0,017
-70,709	-88,306	-0,079	-0,017
-69,694	-200,000	-0,033	-0,126
-68,680	150,378	0,076	0,075
-67,665	-120,524	-0,066	-0,008
-66,651	122,595	0,070	0,063
-65,636	-152,880	0,076	-0,004
-64,622	-157,689	0,138	-0,006
-63,607	-85,894	-0,105	-0,023
-62,592	257,143	-0,025	-0,032
-61,578	1,803	0,150	-0,078
-60,563	566,156	-0,043	0,076
-59,549	800,000	-0,006	0,015
-58,534	-144,852	-1,358	0,089
-57,519	414,313	-0,938	-1,454
-56,505	-200,000	-0,776	-4,321
-55,490	20,021	0,580	-0,338
-54,476	800,000	4,998	11,856
-53,461	-200,000	13,613	252,464
-52,446	-200,000	690,048	2267,000
-51,432	607,969	1621,128	2947,182
-50,417	119,437	1633,347	1467,144
-49,403	74,505	1287,571	981,242
-48,388	38,053	1023,433	659,182
-47,373	24,197	981,768	586,779
-46,359	23,468	971,271	578,094
-45,344	22,470	966,849	572,178
-44,330	22,457	965,233	571,157
-43,315	22,320	963,963	569,935
-42,300	22,291	962,959	569,223
-41,286	22,327	961,900	568,693
-40,271	22,219	961,166	567,887
-39,257	22,226	960,191	567,311
-38,242	22,214	959,334	566,743
-37,227	22,252	958,375	566,277
-36,213	22,247	957,494	565,715
-35,198	22,186	956,603	564,971
-34,184	22,285	956,034	564,932
-33,169	22,253	955,013	564,202
-32,154	22,284	954,100	563,741
-31,140	22,280	953,225	563,189
-30,125	22,331	952,488	562,894
-29,111	22,306	951,471	562,191
-28,096	22,332	950,873	561,898
-27,082	22,260	950,151	561,221
-26,067	22,260	949,523	560,826
-25,052	22,290	948,728	560,430
-24,038	22,315	947,993	560,054
-23,023	22,246	947,506	559,522
-22,009	22,343	946,680	559,325
-20,994	22,281	946,245	558,848
-19,979	22,275	945,576	558,409
-18,965	22,285	944,919	558,033
-17,950	22,283	944,193	557,574
-16,936	22,252	943,647	557,130
-15,921	22,264	942,793	556,642
-14,906	22,250	941,983	556,098
-13,892	22,165	941,471	555,504
-12,877	22,201	940,745	555,167
-11,863	22,131	940,363	554,698
-10,848	22,160	939,946	554,523
-9,833	22,275	939,192	554,419
-8,819	22,227	938,668	553,935
-7,804	22,236	937,795	553,427
-6,790	22,193	937,360	553,013
-5,775	22,175	936,938	552,686
-4,760	22,166	936,480	552,364
-3,746	22,156	935,700	551,851
-2,731	22,014	934,926	550,923
-1,717	21,964	934,372	550,418
-0,702	21,941	933,701	549,929
0,313	21,766	933,153	549,885
1,327	24,371	930,445	556,425
2,342	32,219	808,740	504,908
3,356	26,895	508,367	308,281
4,371	1,894	372,673	194,258
5,386	-1,209	355,517	181,502
6,400	-2,266	349,387	177,082
7,415	-2,804	346,752	175,088
8,429	-2,932	345,448	174,262
9,444	-3,009	344,711	173,783
10,459	-2,712	343,833	173,677
11,473	-2,915	343,175	173,089
12,488	-2,808	342,578	172,898
13,502	-2,925	342,094	172,501
14,517	-2,879	341,629	172,306
15,531	-2,919	341,225	172,039
16,546	-2,838	340,703	171,856
17,561	-2,858	340,317	171,623
18,575	-2,862	340,001	171,442
19,590	-2,756	339,521	171,309
20,604	-2,764	339,129	171,088
21,619	-2,759	338,749	170,885
22,634	-2,745	338,436	170,729
23,648	-2,935	338,032	170,289
24,663	-2,900	337,843	170,219
25,677	-2,833	337,472	170,095
26,692	-2,651	337,151	170,130
27,707	-2,794	336,894	169,819
28,721	-2,898	336,551	169,511
29,736	-2,873	336,189	169,341
30,750	-2,708	335,959	169,402
31,765	-2,724	335,675	169,225
32,780	-3,010	335,468	168,775
33,794	-2,801	335,216	168,874
34,809	-2,751	334,833	168,724
35,823	-2,828	334,615	168,511
36,838	-2,812	334,286	168,348
37,853	-2,784	333,932	168,187
38,867	-2,849	333,585	167,923
39,882	-2,774	333,443	167,922
40,896	-2,844	333,246	167,728
41,911	-2,780	332,826	167,575
42,926	-2,734	332,625	167,511
43,940	-2,847	332,433	167,271
44,955	-2,883	332,204	167,099
45,969	-2,773	331,789	167,001
46,984	-2,736	331,569	166,917
47,999	-2,822	331,378	166,708
49,013	-2,857	331,107	166,518
50,028	-2,905	330,890	166,339
51,042	-2,818	330,521	166,237
52,057	-2,810	330,230	166,086
53,071	-2,784	329,912	165,941
54,086	-2,915	329,833	165,737
55,101	-2,860	329,508	165,621
56,115	-2,944	329,298	165,406
57,130	-2,796	328,880	165,348
58,144	-2,900	328,762	165,157
59,159	-2,843	328,388	165,019
60,174	-2,822	328,179	164,923
61,188	-2,838	327,975	164,787
62,203	-2,713	327,665	164,757
63,217	-2,718	327,402	164,605
64,232	-2,678	327,172	164,519
65,247	-2,782	326,837	164,219
66,261	-2,872	326,639	164,004
67,276	-2,835	326,357	163,890
68,290	-2,845	326,137	163,753
69,305	-2,834	325,938	163,651
70,320	-2,868	325,671	163,464
71,334	-2,689	325,379	163,503
72,349	-2,708	325,072	163,313
73,363	-2,762	324,795	163,099
74,378	-2,871	324,692	162,911
75,393	-2,650	324,256	162,924
76,407	-2,810	324,155	162,681
77,422	-2,677	323,873	162,672
78,436	-2,747	323,618	162,453
79,451	-2,757	323,290	162,263
80,466	-2,778	323,105	162,132
81,480	-2,664	322,834	162,107
82,495	-2,739	322,548	161,867
83,509	-2,706	322,359	161,794
84,524	-2,750	322,058	161,579
85,539	-2,927	321,852	161,266
86,553	-2,716	321,745	161,431
87,568	-2,843	321,477	161,143
88,582	-2,843	321,179	160,979
89,597	-2,835	321,029	160,897
90,611	-2,707	320,769	160,894
91,626	-2,905	320,524	160,539
92,641	-2,701	320,397	160,685
93,655	-2,788	320,029	160,392
94,670	-2,764	319,775	160,276
95,684	-2,738	319,618	160,211
96,699	-2,674	319,284	160,100
97,714	-2,735	319,146	159,949
98,728	-2,776	318,924	159,780
99,743	-2,693	318,598	159,692
100,757	-2,904	318,543	159,420
101,772	-2,835	318,186	159,302
102,787	-2,871	318,015	159,163
103,801	-2,694	317,822	159,245
104,816	-2,691	317,401	159,024
105,830	-2,897	317,453	158,812
106,845	-2,735	317,142	158,818
107,860	-2,745	316,806	158,624
108,874	-2,794	316,630	158,469
109,889	-2,741	316,232	158,313
110,903	-2,716	315,983	158,201
111,918	-2,731	315,893	158,125
112,933	-2,797	315,673	157,930
113,947	-2,730	315,530	157,917
114,962	-2,748	315,196	157,716
115,976	-2,825	315,107	157,575
116,991	-2,709	314,655	157,459
118,006	-2,817	314,637	157,320
119,020	-2,879	314,497	157,169
120,035	-2,788	314,095	157,052
121,049	-2,730	313,963	157,034
122,064	-2,773	313,889	156,937
123,079	-2,792	313,683	156,800
124,093	-2,846	313,344	156,559
125,108	-2,937	313,113	156,332
126,122	-2,839	312,847	156,290
127,137	-2,675	312,571	156,313
128,151	-2,669	312,316	156,178
129,166	-2,783	312,323	156,046
130,181	-2,719	311,881	155,880
131,195	-2,812	311,701	155,676
132,210	-2,840	311,431	155,498
133,224	-2,754	311,272	155,496
134,239	-2,688	310,970	155,402
135,254	-2,850	310,780	155,121
136,268	-2,896	310,690	155,014
137,283	-2,759	310,405	155,002
138,297	-2,714	310,159	154,913
139,312	-2,741	309,876	154,730
140,327	-2,783	309,697	154,582
141,341	-2,721	309,453	154,512
142,356	-2,788	309,238	154,321
143,370	-2,834	308,921	154,101
144,385	-2,625	308,786	154,238
145,400	-2,744	308,688	154,051
146,414	-2,643	308,254	153,927
147,429	-2,665	308,205	153,865
148,443	-2,852	308,037	153,572
149,458	-2,816	307,795	153,475
150,473	-2,593	307,491	153,544
151,487	-2,738	307,254	153,259
152,502	-2,672	307,065	153,220
153,516	-2,741	306,820	153,012
154,531	-2,738	306,577	152,881
155,546	-2,721	306,523	152,858
156,560	-2,765	306,305	152,690
157,575	-2,733	305,913	152,514
158,589	-2,646	305,840	152,554
159,604	-2,658	305,533	152,376
160,619	-2,687	305,326	152,229
161,633	-2,682	305,140	152,127
162,648	-2,585	304,904	152,097
163,662	-2,748	304,866	151,895
164,677	-2,709	304,703	151,841
165,692	-2,729	304,372	151,642
166,706	-2,606	304,153	151,646
167,721	-2,616	303,843	151,468
168,735	-2,537	303,803	151,516
169,750	-2,673	303,605	151,264
170,764	-2,678	303,421	151,153
171,779	-2,664	303,298	151,093
172,794	-2,638	303,014	150,965
173,808	-2,662	302,811	150,825
174,823	-2,671	302,575	150,685
175,837	-2,628	302,284	150,570
176,852	-2,559	302,114	150,543
177,867	-2,772	302,171	150,340
178,881	-2,608	301,669	150,245
179,896	-2,658	301,599	150,146
180,910	-2,682	301,367	149,991
181,925	-2,744	301,133	149,798
182,940	-2,648	300,909	149,772
183,954	-2,643	300,742	149,680
184,969	-2,588	300,614	149,660
185,983	-2,684	300,459	149,472
186,998	-2,722	300,379	149,380
188,013	-2,659	300,005	149,244
189,027	-2,686	299,818	149,110
190,042	-2,583	299,467	149,027
191,056	-2,467	299,361	149,078
192,071	-2,625	299,131	148,790
193,086	-2,754	298,849	148,506
194,100	-2,606	298,627	148,533
195,115	-2,550	298,477	148,502
196,129	-2,644	298,374	148,342
197,144	-2,601	298,238	148,304
198,159	-2,560	297,836	148,133
199,173	-2,638	297,575	147,912
200,188	-2,547	297,364	147,885
201,202	-2,659	297,138	147,647
202,217	-2,662	296,948	147,536
203,232	-2,664	296,713	147,404
204,246	-2,535	296,486	147,408
205,261	-2,647	296,348	147,213
206,275	-2,586	296,175	147,175
207,290	-2,676	296,178	147,073
208,304	-2,524	295,895	147,072
209,319	-2,557	295,587	146,873
210,334	-2,553	295,338	146,740
211,348	-2,779	295,400	146,531
212,363	-2,542	294,980	146,547
213,377	-2,496	294,748	146,465
214,392	-2,579	294,550	146,271
215,407	-2,558	294,507	146,258
216,421	-2,671	294,354	146,055
217,436	-2,735	294,016	145,811
218,450	-2,512	293,782	145,904
219,465	-2,714	293,774	145,686
220,480	-2,613	293,420	145,598
221,494	-2,718	293,254	145,398
222,509	-2,622	293,103	145,405
223,523	-2,617	292,883	145,288
224,538	-2,545	292,697	145,254
225,553	-2,567	292,457	145,100
226,567	-2,557	292,348	145,043
227,582	-2,579	292,209	144,940
228,596	-2,640	291,981	144,753
229,611	-2,645	291,705	144,599
230,626	-2,414	291,578	144,751
231,640	-2,490	291,375	144,562
232,655	-2,663	291,218	144,301
233,669	-2,748	291,136	144,164
234,684	-2,666	290,796	144,063
235,699	-2,726	290,680	143,934
236,713	-2,605	290,508	143,955
237,728	-2,527	290,110	143,822
238,742	-2,461	289,981	143,809
239,757	-2,554	289,777	143,605
240,772	-2,690	289,608	143,374
241,786	-2,657	289,463	143,323
242,801	-2,690	289,298	143,195
243,815	-2,670	289,232	143,170
244,830	-2,617	288,862	143,025
245,844	-2,565	288,753	143,009
246,859	-2,559	288,404	142,830
247,874	-2,561	288,182	142,705
248,888	-2,790	288,088	142,422
249,903	-2,654	287,920	142,459
250,917	-2,758	287,721	142,248
251,932	-2,782	287,586	142,145
252,947	-2,812	287,364	141,994
253,961	-3,239	286,931	141,353
254,976	-3,723	286,412	140,617
255,990	-3,821	286,281	140,445
257,005	-2,977	286,437	141,325
258,020	-0,915	287,388	143,780
259,034	0,707	287,672	145,481
260,049	1,183	287,767	145,976
261,063	1,752	287,609	146,434
262,078	1,977	287,737	146,703
263,093	1,955	287,662	146,631
264,107	2,219	287,457	146,768
265,122	2,697	287,243	147,107
266,136	2,718	287,124	147,054
267,151	2,595	286,962	146,839
268,166	2,520	286,958	146,752
269,180	2,641	286,660	146,703
270,195	2,712	286,488	146,670
271,209	2,667	286,328	146,532
272,224	2,565	286,060	146,283
273,239	2,599	285,782	146,161
274,253	2,353	285,590	145,813
275,268	2,566	285,382	145,899
276,282	2,390	285,178	145,613
277,297	2,345	285,065	145,499
278,312	2,621	284,768	145,598
279,326	2,458	284,635	145,362
280,341	2,290	284,506	145,122
281,355	2,429	284,243	145,107
282,370	2,614	283,999	145,146
283,384	2,779	283,760	145,169
284,399	2,440	283,739	144,822
285,414	2,469	283,527	144,729
286,428	2,481	283,348	144,636
287,443	2,336	283,162	144,390
288,457	2,411	282,917	144,324
289,472	2,378	282,752	144,195
290,487	2,380	282,589	144,101
291,501	2,355	282,316	143,926
292,516	2,348	282,284	143,889
293,530	2,311	281,956	143,675
294,545	2,428	281,801	143,693
295,560	2,219	281,523	143,341
296,574	2,225	281,472	143,308
297,589	2,314	281,286	143,285
298,603	2,231	281,071	143,084
299,618	2,156	280,926	142,927
300,633	2,243	280,856	142,961
301,647	2,388	280,533	142,920
302,662	2,410	280,413	142,867
303,676	2,485	280,299	142,867
304,691	2,571	280,138	142,852
305,706	2,540	280,049	142,765
306,720	2,620	279,784	142,692
307,735	2,631	279,502	142,546
308,749	2,519	279,514	142,435
309,764	2,434	279,315	142,241
310,779	2,457	279,121	142,150
311,793	2,543	278,789	142,049
312,808	2,510	278,669	141,945
313,822	2,406	278,449	141,723
314,837	2,449	278,367	141,709
315,852	2,522	278,107	141,631
316,866	2,590	277,824	141,538
317,881	2,594	277,774	141,503
318,895	2,445	277,519	141,223
319,910	2,395	277,433	141,120
320,925	2,567	277,191	141,144
321,939	2,491	276,956	140,941
322,954	2,598	276,889	140,994
323,968	2,621	276,845	140,980
324,983	2,498	276,646	140,753
325,997	2,588	276,393	140,695
327,012	2,480	276,251	140,510
328,027	2,479	276,007	140,372
329,041	2,611	275,779	140,365
330,056	2,671	275,694	140,364
331,070	2,464	275,494	140,060
332,085	2,653	275,325	140,135
333,100	2,705	274,995	140,002
334,114	2,572	274,759	139,749
335,129	2,443	274,817	139,646
336,143	2,680	274,505	139,693
337,158	2,705	274,468	139,685
338,173	2,703	274,266	139,567
339,187	2,694	274,080	139,452
340,202	2,569	273,904	139,236
341,216	2,732	273,696	139,266
342,231	2,564	273,570	139,037
343,246	2,587	273,383	138,950
344,260	2,444	273,265	138,747
345,275	2,582	273,073	138,763
346,289	2,723	272,889	138,786
347,304	2,522	272,779	138,534
348,319	2,668	272,470	138,497
349,333	2,864	272,278	138,566
350,348	2,639	272,101	138,260
351,362	2,583	272,055	138,173
352,377	2,743	271,975	138,265
353,392	2,595	271,660	137,958
354,406	2,670	271,638	138,003
355,421	192,226	1348,653	1431,901
356,435	155,198	1479,968	1432,045
