DTS Sentinel unit serial number:	SN410029Multiplexer serial number:	ORYXHardware model number:	OX2-SRSoftware version number:	ORYX F/W v4,00 Oryx Data Collector v3.7.2.0data status	okinstallation	B4 Nyhavnadifferential loss correction	single-endedforward channel	channel 2reverse channel	N/Adate	2023/12/19time	05:15:13forward acquisition time	300,00reverse acquisition time	0,00gamma	499,1914k internal	0,3127k external	0,3127temperature offset calibration	1,0000default loss term (dB/km)	0,3820temperature slope calibration	1,0000multiplexer offset coefficient	1,0000multiplexer slope coefficient	1,0000fibre end	0,00T internal ref (°C)	20,99T ext. ref 1 (°C)	6,28T ext. ref 2 (°C)	6,34length (m)	temperature (°C)	Stokes	anti-Stokes-744,400	41,352	-0,105	-0,071
-743,385	168,718	-0,084	0,089
-742,371	-85,659	0,109	-0,025
-741,356	-16,007	-0,119	0,056
-740,342	-84,956	0,072	0,017
-739,327	-57,226	-0,214	0,070
-738,312	280,069	-0,128	-0,171
-737,298	-12,919	-0,240	0,116
-736,283	68,366	0,123	-0,094
-735,269	152,265	-0,121	0,123
-734,254	800,000	-0,031	0,070
-733,239	-60,700	-0,399	-0,125
-732,225	102,799	0,064	0,055
-731,210	-31,455	-0,021	-0,009
-730,196	-143,457	-0,070	-0,005
-729,181	268,010	0,100	0,130
-728,167	-200,000	0,008	-0,046
-727,152	-38,947	-0,191	-0,074
-726,137	317,242	0,145	-0,204
-725,123	-200,000	-0,010	-0,084
-724,108	123,538	0,094	-0,088
-723,094	395,053	-0,038	-0,059
-722,079	159,299	-0,143	-0,148
-721,064	205,088	-0,086	-0,100
-720,050	-200,000	-0,034	-0,131
-719,035	157,470	0,054	0,056
-718,021	800,000	-0,026	0,079
-717,006	292,244	-0,041	-0,056
-715,991	147,953	-0,089	-0,089
-714,977	-83,471	-0,087	0,021
-713,962	800,000	0,025	0,058
-712,948	-200,000	-0,014	-0,168
-711,933	-200,000	-0,024	-0,117
-710,918	590,425	-0,017	-0,030
-709,904	510,805	-0,115	-0,201
-708,889	-200,000	0,003	-0,169
-707,875	39,322	-0,137	-0,091
-706,860	800,000	-0,058	-0,180
-705,845	50,538	0,021	-0,015
-704,831	-48,356	0,192	0,068
-703,816	-53,837	0,057	-0,019
-702,802	-54,800	-0,108	-0,036
-701,787	2,339	-0,080	0,043
-700,772	800,000	-0,022	-0,068
-699,758	800,000	0,041	-0,089
-698,743	-83,063	0,137	0,032
-697,729	90,752	0,088	-0,073
-696,714	-46,968	-0,159	0,057
-695,699	9,946	-0,035	-0,020
-694,685	800,000	0,028	-0,085
-693,670	800,000	-0,019	0,041
-692,656	-200,000	0,006	0,079
-691,641	800,000	-0,013	0,042
-690,627	-38,708	0,057	-0,022
-689,612	-200,000	-0,009	0,043
-688,597	84,756	0,071	0,058
-687,583	-33,292	-0,101	0,042
-686,568	-161,870	-0,235	-0,009
-685,554	253,628	-0,103	-0,131
-684,539	800,000	0,031	0,063
-683,524	-46,650	0,123	-0,045
-682,510	790,461	-0,018	0,037
-681,495	-69,190	-0,083	-0,023
-680,481	339,099	-0,021	-0,031
-679,466	-44,710	-0,048	0,018
-678,451	-200,000	0,001	0,026
-677,437	421,875	-0,025	0,040
-676,422	-123,857	-0,131	0,015
-675,408	-94,634	0,169	-0,034
-674,393	46,023	0,024	0,016
-673,378	-55,259	0,018	0,006
-672,364	461,025	-0,039	0,065
-671,349	-63,475	-0,110	-0,033
-670,335	76,749	-0,051	0,040
-669,320	525,236	-0,097	0,171
-668,305	-185,202	0,044	-0,000
-667,291	122,009	0,093	-0,086
-666,276	180,054	0,018	-0,019
-665,262	690,903	-0,058	-0,114
-664,247	-200,000	0,002	-0,006
-663,232	292,814	-0,038	0,052
-662,218	-200,000	0,003	0,014
-661,203	-58,040	0,028	0,009
-660,189	-128,984	-0,040	0,004
-659,174	-44,340	-0,077	-0,028
-658,159	800,000	-0,034	-0,085
-657,145	800,000	0,015	-0,042
-656,130	-200,000	-0,028	-0,131
-655,116	36,796	0,011	-0,007
-654,101	800,000	0,019	0,046
-653,086	-200,000	0,005	-0,026
-652,072	-130,472	-0,146	-0,014
-651,057	-200,000	0,006	-0,050
-650,043	376,418	0,117	-0,178
-649,028	500,684	-0,035	-0,061
-648,014	247,966	-0,036	-0,046
-646,999	78,927	0,054	-0,043
-645,984	-200,000	-0,022	-0,100
-644,970	-200,000	0,008	-0,036
-643,955	537,715	-0,098	-0,174
-642,941	-200,000	0,007	-0,032
-641,926	38,194	0,125	0,082
-640,911	495,824	0,042	-0,071
-639,897	-21,891	-0,135	0,060
-638,882	511,658	0,062	-0,107
-637,868	-165,408	-0,134	-0,004
-636,853	-69,849	-0,165	-0,046
-635,838	63,977	0,049	0,036
-634,824	43,303	0,091	-0,061
-633,809	-45,011	0,098	0,036
-632,795	800,000	-0,026	-0,082
-631,780	-68,227	0,108	-0,031
-630,765	-45,814	-0,037	-0,014
-629,751	800,000	-0,035	-0,098
-628,736	-18,846	-0,121	-0,056
-627,722	-200,000	-0,011	-0,052
-626,707	-45,492	-0,049	0,018
-625,692	-198,623	0,096	-0,000
-624,678	-148,505	0,033	-0,002
-623,663	275,490	-0,116	-0,152
-622,649	-42,861	0,027	0,010
-621,634	-200,000	0,006	-0,071
-620,619	-200,000	0,005	-0,058
-619,605	-64,512	-0,049	0,015
-618,590	-200,000	-0,109	-0,000
-617,576	766,925	-0,026	-0,052
-616,561	800,000	-0,019	0,048
-615,546	-200,000	0,001	-0,082
-614,532	-88,675	-0,106	-0,023
-613,517	-200,000	0,001	-0,110
-612,503	46,422	0,101	0,069
-611,488	366,097	-0,037	-0,055
-610,474	66,075	0,061	0,046
-609,459	353,151	0,039	-0,058
-608,444	-58,544	0,126	0,040
-607,430	58,619	0,033	0,024
-606,415	-200,000	-0,015	-0,179
-605,401	139,119	0,061	-0,059
-604,386	-56,845	-0,116	-0,038
-603,371	-47,316	-0,155	0,056
-602,357	-61,311	0,096	0,030
-601,342	364,328	-0,022	-0,033
-600,328	192,170	-0,026	-0,029
-599,313	800,000	0,061	-0,136
-598,298	-15,986	0,055	-0,026
-597,284	219,822	-0,127	-0,151
-596,269	-200,000	-0,001	-0,006
-595,255	-57,183	0,082	-0,027
-594,240	124,441	0,063	0,058
-593,225	15,089	-0,109	-0,063
-592,211	13,877	-0,092	0,053
-591,196	-200,000	0,004	0,017
-590,182	28,138	0,126	0,078
-589,167	-106,324	0,150	0,025
-588,152	143,722	-0,049	-0,048
-587,138	-116,502	0,061	0,008
-586,123	800,000	0,019	0,040
-585,109	35,471	-0,111	-0,072
-584,094	-181,611	-0,096	-0,001
-583,079	-21,304	0,073	0,033
-582,065	-200,000	0,003	0,066
-581,050	-78,478	-0,103	-0,026
-580,036	-200,000	0,000	0,074
-579,021	56,839	0,039	0,028
-578,006	800,000	0,063	0,136
-576,992	-7,642	-0,054	-0,027
-575,977	100,719	0,173	0,149
-574,963	328,007	-0,048	-0,068
-573,948	800,000	-0,060	0,138
-572,934	389,458	0,086	0,132
-571,919	792,822	-0,052	0,107
-570,904	183,153	0,109	-0,119
-569,890	65,386	0,067	-0,050
-568,875	71,522	0,098	-0,075
-567,861	170,335	-0,158	-0,168
-566,846	800,000	-0,029	0,076
-565,831	800,000	0,055	0,134
-564,817	-44,733	0,212	-0,078
-563,802	-200,000	-0,003	-0,052
-562,788	13,251	-0,055	0,032
-561,773	-200,000	0,004	-0,062
-560,758	800,000	0,038	0,118
-559,744	-200,000	-0,007	0,051
-558,729	-166,155	-0,128	0,004
-557,715	70,320	0,038	-0,029
-556,700	299,261	-0,069	0,094
-555,685	27,977	-0,082	-0,051
-554,671	409,790	0,084	-0,132
-553,656	242,339	-0,055	0,068
-552,642	800,000	-0,019	-0,047
-551,627	88,379	-0,085	-0,069
-550,612	-200,000	0,010	0,097
-549,598	54,434	0,056	0,040
-548,583	-45,462	0,050	0,018
-547,569	-138,048	-0,075	0,006
-546,554	391,518	0,005	-0,008
-545,539	-200,000	0,013	0,074
-544,525	800,000	-0,029	-0,084
-543,510	5,730	-0,147	-0,080
-542,496	-200,000	0,024	0,128
-541,481	-110,832	0,015	-0,002
-540,466	613,722	0,051	0,094
-539,452	800,000	-0,038	0,114
-538,437	36,960	0,076	0,050
-537,423	298,954	0,035	0,048
-536,408	-168,877	0,018	-0,000
-535,393	-56,513	-0,032	0,010
-534,379	191,154	0,064	-0,071
-533,364	-122,957	-0,056	0,007
-532,350	800,000	-0,013	0,039
-531,335	314,933	0,069	0,096
-530,321	382,649	0,056	0,085
-529,306	-200,000	-0,008	-0,044
-528,291	238,616	-0,050	-0,062
-527,277	246,528	0,068	-0,085
-526,262	-200,000	-0,036	0,122
-525,248	800,000	0,016	0,038
-524,233	261,924	0,092	0,118
-523,218	544,809	0,021	0,037
-522,204	208,549	-0,039	0,045
-521,189	451,899	-0,042	-0,068
-520,175	13,960	-0,078	-0,045
-519,160	-63,397	-0,086	0,026
-518,145	800,000	0,035	0,109
-517,131	-48,011	0,129	-0,046
-516,116	321,730	0,086	0,122
-515,102	268,747	-0,017	-0,023
-514,087	-200,000	-0,004	0,017
-513,072	92,023	-0,041	-0,034
-512,058	-200,000	0,003	-0,098
-511,043	204,267	0,075	-0,086
-510,029	-99,932	0,059	0,011
-509,014	11,044	-0,092	0,052
-507,999	-200,000	-0,012	0,083
-506,985	-200,000	-0,019	-0,103
-505,970	-200,000	-0,006	-0,023
-504,956	-200,000	-0,034	-0,169
-503,941	-184,171	-0,096	-0,001
-502,926	29,703	0,026	0,016
-501,912	-200,000	-0,020	0,097
-500,897	240,415	-0,092	-0,114
-499,883	-0,307	0,072	-0,038
-498,868	266,233	-0,030	0,038
-497,853	-126,433	-0,135	-0,015
-496,839	224,019	0,087	-0,103
-495,824	446,980	0,031	-0,051
-494,810	-44,480	0,045	0,017
-493,795	-122,496	0,085	-0,010
-492,781	-29,185	0,034	-0,014
-491,766	800,000	-0,005	0,010
-490,751	487,166	-0,078	-0,132
-489,737	-200,000	0,011	0,056
-488,722	114,401	-0,052	0,046
-487,708	662,396	0,028	-0,053
-486,693	-160,919	0,140	-0,005
-485,678	98,316	-0,072	0,061
-484,664	168,514	0,078	-0,082
-483,649	-150,998	-0,064	0,003
-482,635	722,712	0,039	0,077
-481,620	-107,170	0,124	-0,020
-480,605	-159,739	0,039	-0,002
-479,591	-100,426	-0,070	-0,013
-478,576	-98,755	-0,053	0,010
-477,562	59,365	0,062	0,045
-476,547	-200,000	0,045	-0,188
-475,532	-107,524	-0,022	0,003
-474,518	132,678	0,092	-0,088
-473,503	-10,991	-0,089	-0,043
-472,489	-149,970	0,110	-0,006
-471,474	433,042	0,032	0,052
-470,459	800,000	-0,023	-0,074
-469,445	126,226	0,076	0,070
-468,430	81,166	-0,028	-0,023
-467,416	189,982	-0,037	-0,041
-466,401	53,949	-0,092	-0,065
-465,386	800,000	0,010	-0,025
-464,372	351,074	0,044	0,064
-463,357	-200,000	0,018	-0,089
-462,343	711,485	0,006	0,012
-461,328	7,833	-0,080	0,044
-460,313	431,279	0,070	0,111
-459,299	-65,183	0,086	-0,025
-458,284	-200,000	-0,006	0,023
-457,270	-74,570	-0,061	0,016
-456,255	467,115	0,082	-0,137
-455,241	200,160	-0,141	-0,160
-454,226	117,236	-0,075	0,068
-453,211	-77,159	-0,093	0,024
-452,197	422,126	-0,014	0,022
-451,182	311,747	-0,066	0,092
-450,168	-75,459	-0,107	-0,028
-449,153	255,673	-0,057	0,072
-448,138	131,527	0,034	0,032
-447,124	-24,684	-0,070	-0,030
-446,109	-200,000	-0,016	-0,076
-445,095	-7,952	0,043	0,021
-444,080	85,518	0,030	0,024
-443,065	154,787	0,030	0,030
-442,051	-200,000	0,035	-0,150
-441,036	800,000	-0,064	-0,140
-440,022	-106,178	-0,109	-0,018
-439,007	176,669	0,016	-0,017
-437,992	-91,316	-0,142	-0,030
-436,978	198,307	0,108	0,121
-435,963	7,248	0,093	0,051
-434,949	-55,169	-0,146	-0,048
-433,934	791,246	-0,079	-0,161
-432,919	-53,444	-0,119	-0,040
-431,905	800,000	0,076	0,157
-430,890	138,025	-0,043	-0,042
-429,876	-200,000	0,009	-0,094
-428,861	-80,823	0,166	0,040
-427,846	56,778	0,025	0,018
-426,832	-134,674	-0,039	-0,003
-425,817	800,000	-0,025	-0,072
-424,803	-200,000	-0,007	-0,140
-423,788	-11,379	0,050	-0,024
-422,773	800,000	0,006	-0,017
-421,759	-70,015	-0,135	0,038
-420,744	-50,542	-0,126	-0,043
-419,730	-93,193	-0,148	-0,030
-418,715	-200,000	-0,035	-0,126
-417,701	182,514	-0,075	-0,081
-416,686	-200,000	-0,216	0,001
-415,671	-112,271	-0,023	0,003
-414,657	800,000	0,023	0,073
-413,642	57,757	0,086	0,062
-412,628	115,903	0,059	0,053
-411,613	3,903	-0,059	0,031
-410,598	-121,151	0,037	-0,004
-409,584	-142,980	-0,093	-0,007
-408,569	556,810	-0,006	-0,011
-407,555	114,803	0,111	0,099
-406,540	800,000	-0,042	0,130
-405,525	6,999	0,082	0,045
-404,511	-17,755	-0,199	-0,092
-403,496	-200,000	0,001	0,008
-402,482	115,627	0,057	-0,051
-401,467	800,000	0,048	0,111
-400,452	405,875	-0,019	0,029
-399,438	-200,000	-0,030	-0,100
-398,423	-83,680	0,115	-0,027
-397,409	358,039	0,043	0,063
-396,394	25,295	0,031	-0,019
-395,379	-124,011	-0,050	0,006
-394,365	800,000	0,022	0,059
-393,350	162,331	0,032	0,033
-392,336	-200,000	-0,040	0,154
-391,321	-77,400	-0,080	-0,020
-390,306	-200,000	0,030	0,137
-389,292	170,179	-0,094	0,099
-388,277	-200,000	-0,003	0,081
-387,263	73,414	-0,052	-0,040
-386,248	-118,997	0,131	0,017
-385,233	207,641	-0,050	0,057
-384,219	-200,000	-0,001	0,038
-383,204	46,167	-0,137	0,093
-382,190	310,306	0,064	-0,089
-381,175	-200,000	-0,008	-0,113
-380,160	100,394	0,190	0,162
-379,146	55,169	0,108	0,077
-378,131	245,107	0,051	0,063
-377,117	-109,540	0,122	-0,019
-376,102	290,988	-0,019	-0,026
-375,088	-191,370	0,053	0,000
-374,073	-200,000	-0,053	-0,203
-373,058	-73,733	-0,032	0,008
-372,044	243,192	0,009	0,011
-371,029	247,661	0,061	0,076
-370,015	163,152	-0,039	0,040
-369,000	334,062	0,057	-0,081
-367,985	-200,000	-0,046	-0,211
-366,971	242,199	-0,080	-0,099
-365,956	311,457	-0,036	-0,050
-364,942	-200,000	0,005	-0,068
-363,927	-136,961	0,162	-0,013
-362,912	-200,000	0,033	-0,112
-361,898	481,207	0,044	-0,073
-360,883	-200,000	0,022	-0,156
-359,869	-51,275	-0,026	-0,009
-358,854	800,000	-0,060	-0,164
-357,839	-146,205	0,101	0,006
-356,825	-200,000	-0,004	-0,040
-355,810	-97,934	-0,040	-0,007
-354,796	600,780	0,008	0,015
-353,781	-161,790	-0,170	-0,006
-352,766	-200,000	-0,025	-0,142
-351,752	-81,295	-0,150	-0,036
-350,737	800,000	-0,007	-0,018
-349,723	800,000	-0,036	0,097
-348,708	100,235	-0,065	0,055
-347,693	118,400	0,062	-0,056
-346,679	-61,726	0,021	-0,006
-345,664	18,114	-0,181	0,106
-344,650	800,000	-0,051	0,122
-343,635	800,000	-0,058	0,153
-342,620	-89,114	0,135	-0,029
-341,606	351,872	0,046	0,067
-340,591	-71,496	-0,048	-0,013
-339,577	30,736	-0,073	-0,045
-338,562	297,341	0,045	-0,061
-337,548	-98,185	0,131	-0,024
-336,533	183,264	0,111	0,120
-335,518	800,000	-0,030	-0,083
-334,504	-63,061	-0,035	0,011
-333,489	240,208	-0,037	-0,045
-332,475	-1,469	-0,134	0,069
-331,460	-39,565	-0,023	0,009
-330,445	277,040	0,063	-0,082
-329,431	782,858	0,036	-0,073
-328,416	42,529	0,089	0,059
-327,402	800,000	0,030	0,069
-326,387	-90,552	-0,165	0,035
-325,372	402,946	-0,050	-0,078
-324,358	-9,714	-0,052	0,025
-323,343	-24,495	-0,081	0,035
-322,329	800,000	0,007	-0,018
-321,314	800,000	0,044	0,089
-320,299	525,116	0,103	0,179
-319,285	89,112	-0,177	0,144
-318,270	-90,275	-0,094	-0,020
-317,256	150,500	0,016	0,015
-316,241	-4,488	-0,071	0,036
-315,226	800,000	0,023	0,061
-314,212	-200,000	0,009	-0,045
-313,197	-200,000	-0,008	0,144
-312,183	285,396	-0,038	-0,051
-311,168	-55,301	-0,098	0,032
-310,153	-58,297	0,055	0,018
-309,139	162,682	-0,044	0,045
-308,124	506,720	0,069	0,117
-307,110	91,208	0,025	-0,021
-306,095	-124,361	0,075	-0,008
-305,080	743,123	-0,087	0,173
-304,066	-143,659	-0,192	0,013
-303,051	437,039	-0,022	0,035
-302,037	-163,457	-0,134	-0,005
-301,022	-91,648	0,056	-0,012
-300,008	-200,000	0,015	-0,061
-298,993	112,564	-0,061	-0,054
-297,978	49,803	0,140	0,097
-296,964	3,778	-0,050	-0,027
-295,949	-200,000	-0,026	-0,135
-294,935	800,000	-0,014	0,033
-293,920	-62,103	0,109	-0,033
-292,905	-200,000	0,022	0,101
-291,891	-43,250	0,066	-0,024
-290,876	-200,000	-0,006	0,174
-289,862	-10,760	0,079	-0,038
-288,847	36,949	0,073	-0,047
-287,832	-200,000	0,004	-0,171
-286,818	138,279	-0,119	-0,114
-285,803	380,267	0,074	0,111
-284,789	800,000	-0,030	-0,063
-283,774	800,000	0,057	0,179
-282,759	-169,711	-0,082	-0,002
-281,745	-100,540	-0,135	-0,024
-280,730	525,839	0,039	-0,068
-279,716	800,000	0,009	-0,025
-278,701	-47,429	-0,048	-0,017
-277,686	68,569	0,064	0,048
-276,672	181,035	0,032	-0,035
-275,657	-200,000	0,005	0,022
-274,643	72,301	-0,082	0,062
-273,628	407,555	0,075	-0,116
-272,613	449,580	0,026	0,042
-271,599	800,000	-0,030	0,073
-270,584	13,607	-0,030	0,017
-269,570	-200,000	0,034	0,127
-268,555	-140,849	-0,069	-0,005
-267,540	-11,548	-0,057	-0,027
-266,526	29,215	0,014	0,009
-265,511	50,143	0,064	-0,044
-264,497	-138,816	-0,094	-0,007
-263,482	650,472	0,023	0,043
-262,467	-34,382	0,107	-0,043
-261,453	-200,000	-0,029	0,124
-260,438	330,382	-0,105	-0,148
-259,424	-47,077	0,153	0,054
-258,409	-22,943	0,062	0,027
-257,395	228,674	-0,028	0,033
-256,380	-17,903	0,120	0,055
-255,365	-89,363	0,092	-0,020
-254,351	-153,406	0,103	0,005
-253,336	90,009	-0,018	-0,015
-252,322	-84,761	-0,046	-0,010
-251,307	616,398	0,040	-0,074
-250,292	-114,455	0,091	-0,013
-249,278	104,168	0,056	0,048
-248,263	-200,000	-0,009	0,046
-247,249	0,333	0,158	0,082
-246,234	217,888	0,039	0,046
-245,219	327,542	-0,104	-0,145
-244,205	259,938	-0,070	-0,089
-243,190	375,080	-0,046	0,069
-242,176	16,015	-0,059	0,034
-241,161	78,431	0,134	0,105
-240,146	800,000	-0,064	0,171
-239,132	-113,972	0,095	-0,013
-238,117	117,467	-0,136	0,122
-237,103	-200,000	0,018	-0,069
-236,088	163,274	0,054	-0,056
-235,073	-83,216	0,124	0,029
-234,059	-43,688	0,112	-0,041
-233,044	800,000	-0,008	-0,023
-232,030	-118,415	0,110	0,014
-231,015	-200,000	-0,030	0,112
-230,000	360,076	0,038	-0,056
-228,986	146,925	-0,018	-0,018
-227,971	264,343	0,108	-0,137
-226,957	238,616	-0,044	0,053
-225,942	800,000	0,009	0,028
-224,927	-138,362	-0,179	0,014
-223,913	322,959	-0,101	0,141
-222,898	407,751	-0,068	-0,105
-221,884	800,000	0,007	-0,020
-220,869	-137,756	0,054	-0,004
-219,855	241,250	0,062	0,076
-218,840	-200,000	0,017	0,086
-217,825	800,000	0,028	0,082
-216,811	-200,000	0,008	-0,271
-215,796	-200,000	0,012	-0,103
-214,782	-200,000	0,006	0,033
-213,767	188,036	-0,015	-0,016
-212,752	232,093	0,108	0,130
-211,738	15,997	-0,051	-0,029
-210,723	-200,000	0,038	0,137
-209,709	126,937	0,094	0,087
-208,694	-200,000	-0,007	-0,070
-207,679	41,161	-0,054	0,036
-206,665	800,000	0,072	0,205
-205,650	492,013	0,080	0,135
-204,636	678,943	-0,042	0,079
-203,621	-23,362	0,105	0,046
-202,606	-46,726	-0,067	0,024
-201,592	35,769	0,121	-0,077
-200,577	655,528	-0,045	0,084
-199,563	196,094	-0,043	-0,047
-198,548	-89,974	0,091	-0,019
-197,533	-200,000	-0,009	0,095
-196,519	481,679	0,050	-0,083
-195,504	-37,916	-0,046	-0,018
-194,490	256,470	-0,121	-0,152
-193,475	-8,942	0,019	-0,009
-192,460	5,549	-0,187	0,100
-191,446	-76,084	0,070	-0,018
-190,431	-164,664	0,149	0,005
-189,417	-19,893	0,138	0,062
-188,402	-125,345	-0,022	-0,002
-187,387	-200,000	-0,004	-0,078
-186,373	95,432	0,073	-0,061
-185,358	175,261	-0,091	-0,096
-184,344	-116,986	-0,084	0,011
-183,329	-2,916	0,069	-0,035
-182,315	403,675	0,069	0,106
-181,300	332,623	-0,105	-0,149
-180,285	-200,000	-0,014	0,064
-179,271	-200,000	-0,005	0,040
-178,256	111,547	-0,130	0,115
-177,242	-98,468	0,252	0,046
-176,227	345,180	0,019	0,027
-175,212	35,086	0,039	-0,025
-174,198	-176,362	-0,161	0,003
-173,183	800,000	0,054	-0,112
-172,169	-45,518	-0,157	-0,056
-171,154	-155,714	0,067	-0,003
-170,139	-67,058	0,145	-0,041
-169,125	800,000	0,011	-0,024
-168,110	-200,000	0,007	0,087
-167,096	-38,798	0,062	0,024
-166,081	800,000	0,011	-0,032
-165,066	21,169	-0,054	0,032
-164,052	800,000	-0,023	0,056
-163,037	-90,451	0,163	-0,034
-162,023	-110,919	0,254	-0,038
-161,008	-5,099	-0,040	-0,020
-159,993	701,155	-0,055	0,107
-158,979	108,697	0,024	-0,020
-157,964	-100,962	-0,125	-0,022
-156,950	-119,702	-0,011	0,001
-155,935	-200,000	-0,016	0,230
-154,920	74,613	0,102	0,078
-153,906	-200,000	-0,012	-0,057
-152,891	124,132	-0,022	-0,020
-151,877	575,504	0,014	0,025
-150,862	800,000	-0,066	-0,179
-149,847	-200,000	-0,019	-0,072
-148,833	-161,085	0,039	-0,001
-147,818	-37,590	-0,065	-0,025
-146,804	-200,000	-0,011	0,096
-145,789	-200,000	-0,008	0,057
-144,775	254,499	0,069	-0,086
-143,760	116,015	-0,065	-0,058
-142,745	800,000	-0,057	-0,121
-141,731	-118,907	0,193	-0,024
-140,716	800,000	-0,044	0,100
-139,702	120,896	0,017	0,015
-138,687	-48,070	0,045	0,016
-137,672	-59,033	0,136	0,042
-136,658	800,000	-0,039	-0,096
-135,643	158,609	0,032	0,033
-134,629	-200,000	0,015	-0,179
-133,614	800,000	-0,016	0,050
-132,599	800,000	0,106	0,218
-131,585	50,637	0,120	-0,082
-130,570	-200,000	0,009	0,066
-129,556	28,208	-0,108	-0,066
-128,541	-30,429	-0,131	0,054
-127,526	75,996	0,091	-0,070
-126,512	-200,000	0,029	-0,114
-125,497	176,807	0,084	0,089
-124,483	-25,776	0,116	0,050
-123,468	800,000	0,030	-0,087
-122,453	59,898	-0,123	0,088
-121,439	800,000	0,003	0,007
-120,424	-200,000	-0,003	0,046
-119,410	-200,000	0,002	-0,040
-118,395	216,413	-0,062	-0,071
-117,380	341,664	0,050	0,071
-116,366	-119,441	-0,046	-0,006
-115,351	-200,000	-0,025	-0,109
-114,337	103,306	-0,052	0,044
-113,322	-200,000	-0,029	-0,127
-112,307	658,284	0,062	-0,116
-111,293	-163,246	-0,049	-0,002
-110,278	308,216	0,097	0,132
-109,264	800,000	-0,060	0,150
-108,249	578,108	-0,059	-0,105
-107,234	800,000	-0,036	0,082
-106,220	495,236	0,068	0,114
-105,205	800,000	0,009	-0,028
-104,191	115,748	0,115	-0,103
-103,176	-200,000	-0,019	0,107
-102,162	-55,551	-0,177	-0,057
-101,147	-4,563	0,124	-0,062
-100,132	173,666	-0,105	-0,111
-99,118	-200,000	0,020	-0,094
-98,103	8,522	-0,039	-0,021
-97,089	386,420	0,082	0,123
-96,074	109,959	0,126	0,110
-95,059	282,426	0,102	-0,133
-94,045	46,279	0,106	-0,071
-93,030	-200,000	-0,036	-0,121
-92,016	800,000	-0,026	0,075
-91,001	98,890	0,130	0,109
-89,986	326,582	0,056	0,078
-88,972	800,000	0,019	0,060
-87,957	-200,000	0,003	0,066
-86,943	178,363	0,059	-0,062
-85,928	-0,290	-0,144	0,074
-84,913	-200,000	-0,025	-0,084
-83,899	97,063	-0,046	-0,039
-82,884	304,677	-0,026	-0,035
-81,870	800,000	0,042	0,095
-80,855	800,000	-0,022	0,067
-79,840	800,000	0,017	0,049
-78,826	59,504	0,056	-0,040
-77,811	-200,000	-0,083	-0,000
-76,797	-200,000	-0,018	0,076
-75,782	-71,442	0,115	-0,031
-74,767	800,000	-0,029	0,089
-73,753	530,397	0,011	0,019
-72,738	-134,399	-0,111	0,010
-71,724	-106,180	0,143	-0,023
-70,709	-31,345	0,022	-0,009
-69,694	-100,240	-0,168	0,030
-68,680	-47,887	0,196	-0,068
-67,665	471,489	-0,019	0,031
-66,651	262,879	0,119	0,150
-65,636	-200,000	0,006	0,084
-64,622	-200,000	-0,029	-0,119
-63,607	22,122	-0,037	0,022
-62,592	150,238	0,042	-0,041
-61,578	-5,664	-0,075	-0,037
-60,563	302,383	0,034	0,046
-59,549	-200,000	0,072	0,286
-58,534	-103,177	-1,417	-0,240
-57,519	434,163	-0,842	-1,331
-56,505	-200,000	-0,873	-4,341
-55,490	-52,098	0,574	-0,192
-54,476	800,000	4,923	11,845
-53,461	-200,000	14,603	262,410
-52,446	-200,000	696,115	2280,342
-51,432	603,926	1622,266	2937,806
-50,417	118,878	1630,396	1459,975
-49,403	76,789	1283,633	986,195
-48,388	37,423	1021,615	655,037
-47,373	23,290	980,977	582,559
-46,359	22,470	970,364	573,547
-45,344	21,266	965,919	566,970
-44,330	21,275	964,510	566,148
-43,315	21,075	963,119	564,659
-42,300	21,113	961,954	564,075
-41,286	21,082	960,879	563,323
-40,271	21,014	960,055	562,596
-39,257	21,044	959,122	562,125
-38,242	20,993	958,173	561,383
-37,227	21,035	957,194	560,922
-36,213	21,030	956,380	560,406
-35,198	20,938	955,497	559,569
-34,184	21,009	954,927	559,443
-33,169	21,038	953,675	558,779
-32,154	21,063	953,119	558,512
-31,140	20,993	952,409	557,850
-30,125	21,067	951,532	557,550
-29,111	21,042	950,613	556,909
-28,096	21,004	950,026	556,423
-27,082	21,011	949,276	555,985
-26,067	21,031	948,342	555,480
-25,052	21,001	947,822	555,056
-24,038	21,043	947,090	554,739
-23,023	21,049	946,443	554,358
-22,009	21,084	945,826	554,086
-20,994	21,010	945,465	553,618
-19,979	21,060	944,847	553,393
-18,965	21,075	943,784	552,794
-17,950	21,066	943,389	552,515
-16,936	21,028	942,621	551,921
-15,921	20,998	941,885	551,374
-14,906	20,975	941,255	550,907
-13,892	20,912	940,570	550,287
-12,877	20,937	939,972	549,995
-11,863	20,870	939,597	549,539
-10,848	20,918	938,764	549,182
-9,833	20,974	938,522	549,196
-8,819	20,975	937,715	548,707
-7,804	20,903	937,325	548,227
-6,790	20,843	936,713	547,660
-5,775	20,932	936,024	547,514
-4,760	20,914	935,322	547,025
-3,746	20,914	934,927	546,773
-2,731	20,769	934,115	545,821
-1,717	20,724	933,308	545,186
-0,702	20,774	932,734	544,984
0,313	20,606	931,948	544,819
1,327	22,971	929,708	550,888
2,342	30,245	806,755	497,704
3,356	24,754	507,889	303,942
4,371	0,916	374,105	193,499
5,386	-1,890	357,041	181,209
6,400	-3,138	351,058	176,648
7,415	-3,641	348,388	174,686
8,429	-3,757	346,813	173,741
9,444	-3,704	345,901	173,332
10,459	-3,829	345,341	172,887
11,473	-3,828	344,655	172,530
12,488	-3,798	344,266	172,355
13,502	-3,932	343,556	171,826
14,517	-3,794	343,142	171,766
15,531	-3,764	342,520	171,475
16,546	-3,709	342,073	171,301
17,561	-3,850	341,809	170,988
18,575	-3,697	341,361	170,928
19,590	-3,898	340,993	170,493
20,604	-3,787	340,688	170,455
21,619	-3,719	340,266	170,309
22,634	-3,793	339,859	170,003
23,648	-3,802	339,487	169,791
24,663	-3,788	339,201	169,650
25,677	-3,720	338,835	169,530
26,692	-3,857	338,638	169,257
27,707	-3,936	338,392	169,027
28,721	-3,958	338,087	168,834
29,736	-3,728	337,704	168,895
30,750	-3,825	337,358	168,595
31,765	-3,895	337,006	168,322
32,780	-3,798	336,698	168,266
33,794	-3,607	336,411	168,328
34,809	-3,719	336,283	168,119
35,823	-3,780	335,902	167,843
36,838	-3,844	335,543	167,576
37,853	-3,711	335,183	167,534
38,867	-3,912	335,007	167,199
39,882	-3,673	334,780	167,347
40,896	-3,766	334,512	167,090
41,911	-3,746	334,031	166,858
42,926	-3,741	334,013	166,840
43,940	-3,836	333,620	166,520
44,955	-3,754	333,390	166,485
45,969	-3,802	333,246	166,343
46,984	-3,875	332,964	166,103
47,999	-3,778	332,676	166,056
49,013	-3,797	332,472	165,918
50,028	-3,713	332,069	165,797
51,042	-3,776	331,941	165,647
52,057	-3,717	331,610	165,534
53,071	-3,679	331,206	165,361
54,086	-3,826	330,992	165,073
55,101	-3,625	330,741	165,161
56,115	-3,692	330,611	165,006
57,130	-3,786	330,353	164,755
58,144	-3,878	330,215	164,567
59,159	-3,857	329,814	164,377
60,174	-3,790	329,542	164,302
61,188	-3,758	329,269	164,187
62,203	-3,786	329,004	164,008
63,217	-3,689	328,701	163,953
64,232	-3,825	328,513	163,692
65,247	-3,624	328,142	163,717
66,261	-3,784	328,026	163,465
67,276	-3,833	327,742	163,254
68,290	-3,763	327,603	163,249
69,305	-3,729	327,336	163,140
70,320	-3,716	327,005	162,975
71,334	-3,650	326,663	162,864
72,349	-3,718	326,560	162,722
73,363	-3,770	326,179	162,460
74,378	-3,819	325,953	162,278
75,393	-3,658	325,713	162,323
76,407	-3,697	325,461	162,139
77,422	-3,702	325,186	161,983
78,436	-3,739	324,771	161,720
79,451	-3,657	324,623	161,723
80,466	-3,760	324,388	161,477
81,480	-3,753	324,130	161,342
82,495	-3,816	323,864	161,126
83,509	-3,936	323,697	160,895
84,524	-3,754	323,592	161,031
85,539	-3,797	323,233	160,790
86,553	-3,822	323,013	160,638
87,568	-3,899	322,639	160,353
88,582	-3,847	322,367	160,261
89,597	-3,790	322,211	160,232
90,611	-3,754	322,209	160,256
91,626	-3,716	321,698	160,029
92,641	-3,859	321,553	159,786
93,655	-3,696	321,179	159,765
94,670	-3,749	320,960	159,583
95,684	-3,774	320,757	159,441
96,699	-3,723	320,658	159,434
97,714	-3,721	320,286	159,236
98,728	-3,739	320,177	159,148
99,743	-3,665	319,777	159,016
100,757	-3,936	319,667	158,651
101,772	-3,758	319,365	158,681
102,787	-3,741	319,161	158,584
103,801	-3,680	318,981	158,547
104,816	-3,695	318,606	158,330
105,830	-3,664	318,424	158,259
106,845	-3,672	318,215	158,133
107,860	-3,581	317,977	158,100
108,874	-3,704	317,699	157,814
109,889	-3,690	317,449	157,690
110,903	-3,620	317,248	157,652
111,918	-3,790	317,187	157,424
112,933	-3,642	316,839	157,398
113,947	-3,663	316,491	157,187
114,962	-3,576	316,271	157,158
115,976	-3,739	316,106	156,887
116,991	-3,727	315,877	156,772
118,006	-3,696	315,714	156,710
119,020	-3,756	315,506	156,528
120,035	-3,630	315,345	156,570
121,049	-3,744	315,188	156,356
122,064	-3,689	314,877	156,246
123,079	-3,735	314,603	156,047
124,093	-3,816	314,507	155,899
125,108	-3,720	314,159	155,815
126,122	-3,761	313,989	155,673
127,137	-3,688	313,634	155,561
128,151	-3,746	313,520	155,429
129,166	-3,538	313,258	155,507
130,181	-3,672	313,011	155,228
131,195	-3,655	312,847	155,151
132,210	-3,753	312,651	154,936
133,224	-3,724	312,300	154,778
134,239	-3,660	312,055	154,711
135,254	-3,682	311,808	154,551
136,268	-3,798	311,671	154,347
137,283	-3,708	311,387	154,288
138,297	-3,774	311,165	154,094
139,312	-3,848	311,017	153,929
140,327	-3,730	310,747	153,907
141,341	-3,609	310,513	153,905
142,356	-3,663	310,444	153,799
143,370	-3,509	310,072	153,764
144,385	-3,711	309,835	153,420
145,400	-3,595	309,747	153,485
146,414	-3,775	309,511	153,164
147,429	-3,733	309,270	153,075
148,443	-3,655	309,051	153,036
149,458	-3,583	308,790	152,969
150,473	-3,620	308,571	152,808
151,487	-3,618	308,414	152,718
152,502	-3,548	308,181	152,663
153,516	-3,520	307,782	152,481
154,531	-3,568	307,599	152,326
155,546	-3,708	307,496	152,116
156,560	-3,502	307,244	152,193
157,575	-3,717	306,967	151,817
158,589	-3,675	306,782	151,756
159,604	-3,572	306,430	151,675
160,619	-3,801	306,472	151,444
161,633	-3,645	306,185	151,451
162,648	-3,596	306,038	151,416
163,662	-3,505	305,690	151,325
164,677	-3,621	305,711	151,202
165,692	-3,479	305,358	151,161
166,706	-3,602	305,130	150,907
167,721	-3,724	304,969	150,688
168,735	-3,399	304,797	150,926
169,750	-3,773	304,623	150,439
170,764	-3,565	304,365	150,513
171,779	-3,657	304,276	150,361
172,794	-3,774	304,130	150,155
173,808	-3,640	303,864	150,147
174,823	-3,626	303,549	149,992
175,837	-3,801	303,446	149,749
176,852	-3,780	303,285	149,677
177,867	-3,598	302,934	149,678
178,881	-3,517	302,823	149,693
179,896	-3,573	302,496	149,460
180,910	-3,734	302,517	149,292
181,925	-3,693	302,238	149,183
182,940	-3,745	301,962	148,980
183,954	-3,448	301,676	149,131
184,969	-3,493	301,593	149,029
185,983	-3,398	301,296	148,967
186,998	-3,564	301,226	148,749
188,013	-3,546	300,875	148,581
189,027	-3,461	300,615	148,526
190,042	-3,661	300,484	148,244
191,056	-3,556	300,288	148,241
192,071	-3,658	300,096	148,030
193,086	-3,619	299,931	147,974
194,100	-3,791	299,835	147,739
195,115	-3,545	299,562	147,841
196,129	-3,360	299,138	147,806
197,144	-3,565	298,976	147,506
198,159	-3,370	298,786	147,596
199,173	-3,522	298,656	147,364
200,188	-3,495	298,353	147,230
201,202	-3,586	298,106	147,003
202,217	-3,363	297,851	147,088
203,232	-3,716	297,634	146,612
204,246	-3,562	297,610	146,743
205,261	-3,794	297,429	146,407
206,275	-3,570	297,131	146,473
207,290	-3,405	296,890	146,506
208,304	-3,507	296,797	146,345
209,319	-3,330	296,346	146,287
210,334	-3,450	296,199	146,082
211,348	-3,652	296,178	145,855
212,363	-3,442	295,879	145,905
213,377	-3,519	295,744	145,749
214,392	-3,440	295,465	145,677
215,407	-3,551	295,477	145,558
216,421	-3,570	295,240	145,411
217,436	-3,577	294,889	145,217
218,450	-3,622	294,857	145,144
219,465	-3,495	294,535	145,099
220,480	-3,421	294,344	145,066
221,494	-3,684	294,225	144,733
222,509	-3,613	293,961	144,661
223,523	-3,344	293,749	144,811
224,538	-3,285	293,612	144,789
225,553	-3,471	293,235	144,405
226,567	-3,538	293,226	144,321
227,582	-3,267	292,982	144,457
228,596	-3,494	292,865	144,161
229,611	-3,533	292,774	144,065
230,626	-3,586	292,615	143,922
231,640	-3,545	292,337	143,813
232,655	-3,608	292,145	143,643
233,669	-3,626	291,864	143,475
234,684	-3,619	291,675	143,376
235,699	-3,458	291,478	143,424
236,713	-3,588	291,384	143,238
237,728	-3,528	291,110	143,149
238,742	-3,481	290,825	143,043
239,757	-3,669	290,778	142,822
240,772	-3,611	290,470	142,715
241,786	-3,621	290,261	142,590
242,801	-3,432	290,166	142,715
243,815	-3,428	289,949	142,600
244,830	-3,554	289,736	142,359
245,844	-3,515	289,619	142,327
246,859	-3,528	289,335	142,162
247,874	-3,496	289,301	142,164
248,888	-3,435	289,023	142,074
249,903	-3,489	288,789	141,894
250,917	-3,511	288,582	141,758
251,932	-3,539	288,463	141,659
252,947	-3,587	288,203	141,473
253,961	-3,465	287,975	141,467
254,976	-3,640	287,799	141,198
255,990	-3,645	287,590	141,078
257,005	-2,625	287,879	142,197
258,020	-0,558	288,510	144,503
259,034	0,320	288,868	145,523
260,049	0,985	288,797	146,120
261,063	1,273	288,816	146,396
262,078	1,584	288,646	146,599
263,093	1,976	288,618	146,950
264,107	2,295	288,546	147,210
265,122	2,375	288,481	147,241
266,136	2,480	288,291	147,233
267,151	2,526	287,976	147,104
268,166	2,409	288,012	146,995
269,180	2,410	287,859	146,906
270,195	2,431	287,487	146,722
271,209	2,521	287,248	146,674
272,224	2,501	287,195	146,614
273,239	2,353	286,982	146,350
274,253	2,250	286,808	146,149
275,268	2,305	286,436	146,000
276,282	2,037	286,292	145,656
277,297	2,149	286,178	145,693
278,312	2,324	286,036	145,775
279,326	2,314	285,821	145,643
280,341	2,222	285,635	145,447
281,355	2,232	285,324	145,285
282,370	2,053	285,295	145,086
283,384	2,270	284,992	145,127
284,399	2,223	284,936	145,040
285,414	2,279	284,621	144,920
286,428	2,364	284,475	144,914
287,443	2,129	284,248	144,562
288,457	2,006	284,095	144,354
289,472	1,928	283,882	144,159
290,487	2,039	283,726	144,172
291,501	2,013	283,476	144,008
292,516	1,983	283,315	143,884
293,530	2,034	283,214	143,869
294,545	2,147	282,877	143,792
295,560	2,114	282,715	143,666
296,574	2,124	282,526	143,566
297,589	2,032	282,278	143,340
298,603	2,032	282,234	143,306
299,618	2,011	282,005	143,156
300,633	2,070	281,909	143,151
301,647	2,185	281,702	143,140
302,662	2,239	281,530	143,092
303,676	2,095	281,570	142,964
304,691	2,253	281,306	142,965
305,706	2,359	281,037	142,916
306,720	2,220	280,944	142,725
307,735	2,346	280,571	142,641
308,749	2,330	280,513	142,584
309,764	2,150	280,198	142,242
310,779	2,224	280,063	142,231
311,793	2,437	279,808	142,288
312,808	2,335	279,486	142,016
313,822	2,240	279,514	141,928
314,837	2,282	279,316	141,855
315,852	2,348	279,163	141,826
316,866	2,244	279,096	141,682
317,881	2,435	278,736	141,665
318,895	2,260	278,609	141,424
319,910	2,264	278,387	141,303
320,925	2,388	278,212	141,317
321,939	2,123	278,157	141,030
322,954	2,310	277,852	141,037
323,968	2,393	277,870	141,110
324,983	2,293	277,695	140,916
325,997	2,258	277,402	140,722
327,012	2,269	277,342	140,689
328,027	2,464	277,015	140,691
329,041	2,344	276,758	140,437
330,056	2,189	276,671	140,238
331,070	2,213	276,585	140,203
332,085	2,410	276,262	140,209
333,100	2,429	276,097	140,131
334,114	2,320	276,081	140,009
335,129	2,315	275,861	139,881
336,143	2,420	275,620	139,843
337,158	2,183	275,445	139,523
338,173	2,362	275,267	139,585
339,187	2,400	275,040	139,492
340,202	2,296	274,957	139,342
341,216	2,320	274,747	139,246
342,231	2,352	274,543	139,159
343,246	2,225	274,413	138,965
344,260	2,340	274,246	138,973
345,275	2,415	274,069	138,939
346,289	2,395	273,903	138,825
347,304	2,411	273,722	138,735
348,319	2,319	273,486	138,519
349,333	2,305	273,353	138,427
350,348	2,367	273,098	138,342
351,362	2,355	273,034	138,286
352,377	2,417	272,955	138,290
353,392	2,396	272,745	138,152
354,406	2,630	272,476	138,216
355,421	190,340	1349,614	1424,863
356,435	153,616	1480,927	1424,977
