DTS Sentinel unit serial number:	SN410029Multiplexer serial number:	ORYXHardware model number:	OX2-SRSoftware version number:	ORYX F/W v4,00 Oryx Data Collector v3.7.2.0data status	okinstallation	B4 Nyhavnadifferential loss correction	single-endedforward channel	channel 2reverse channel	N/Adate	2023/12/15time	17:20:13forward acquisition time	300,00reverse acquisition time	0,00gamma	499,1914k internal	0,3142k external	0,3142temperature offset calibration	1,0000default loss term (dB/km)	0,3820temperature slope calibration	1,0000multiplexer offset coefficient	1,0000multiplexer slope coefficient	1,0000fibre end	0,00T internal ref (°C)	18,25T ext. ref 1 (°C)	3,97T ext. ref 2 (°C)	4,05length (m)	temperature (°C)	Stokes	anti-Stokes-744,400	-89,872	0,049	0,011
-743,385	-64,672	-0,248	0,074
-742,371	319,686	0,034	0,048
-741,356	-25,211	-0,238	0,104
-740,342	144,330	0,051	-0,050
-739,327	31,466	-0,155	-0,098
-738,312	800,000	-0,014	-0,045
-737,298	-45,619	-0,315	0,115
-736,283	800,000	0,019	0,059
-735,269	-62,972	-0,267	0,081
-734,254	36,438	0,049	0,032
-733,239	-50,439	-0,473	-0,165
-732,225	-79,651	0,175	-0,043
-731,210	-200,000	0,047	0,185
-730,196	-200,000	-0,025	0,194
-729,181	-131,572	-0,136	0,013
-728,167	-94,784	-0,056	0,011
-727,152	-200,000	0,002	-0,131
-726,137	-62,407	-0,130	-0,040
-725,123	-32,717	-0,045	0,019
-724,108	-108,343	-0,065	-0,010
-723,094	-95,284	-0,131	0,026
-722,079	207,648	0,021	-0,024
-721,064	-200,000	-0,005	-0,048
-720,050	-111,065	-0,064	0,010
-719,035	-89,761	0,178	0,038
-718,021	189,278	-0,083	0,092
-717,006	591,015	-0,051	-0,093
-715,991	218,339	-0,053	-0,062
-714,977	-14,034	-0,055	-0,026
-713,962	-18,648	-0,108	-0,050
-712,948	-87,295	-0,054	-0,012
-711,933	41,235	-0,070	-0,047
-710,918	-200,000	-0,008	0,059
-709,904	102,459	-0,065	0,056
-708,889	800,000	-0,010	0,028
-707,875	-200,000	-0,019	-0,202
-706,860	706,195	0,028	-0,056
-705,845	435,180	0,050	0,080
-704,831	-77,746	0,145	0,037
-703,816	-200,000	-0,042	-0,155
-702,802	-200,000	0,002	0,026
-701,787	-200,000	-0,029	0,161
-700,772	171,974	0,097	0,103
-699,758	-200,000	0,031	-0,105
-698,743	-43,483	-0,039	-0,015
-697,729	-200,000	-0,019	0,143
-696,714	-200,000	-0,011	0,174
-695,699	-92,538	0,097	-0,020
-694,685	-200,000	0,020	-0,065
-693,670	800,000	0,022	-0,064
-692,656	278,849	0,029	0,039
-691,641	257,597	-0,059	0,075
-690,627	-200,000	0,004	-0,033
-689,612	-12,873	-0,078	0,038
-688,597	-138,158	0,077	-0,006
-687,583	-200,000	-0,022	-0,098
-686,568	-6,282	-0,044	-0,022
-685,554	-94,356	0,121	-0,024
-684,539	-87,739	0,182	0,040
-683,524	800,000	0,016	0,042
-682,510	45,625	0,050	-0,034
-681,495	-47,491	-0,053	-0,019
-680,481	-200,000	0,010	-0,084
-679,466	518,837	-0,075	-0,131
-678,451	-200,000	0,018	-0,069
-677,437	394,928	0,099	-0,153
-676,422	161,045	0,098	-0,101
-675,408	-73,007	-0,031	-0,008
-674,393	76,046	0,035	0,027
-673,378	557,644	-0,049	0,088
-672,364	-83,712	-0,020	-0,005
-671,349	-182,783	0,096	-0,001
-670,335	271,669	0,016	-0,020
-669,320	-200,000	-0,027	-0,144
-668,305	-1,419	-0,089	-0,046
-667,291	596,992	-0,047	-0,087
-666,276	-200,000	-0,021	-0,084
-665,262	-33,281	-0,131	-0,053
-664,247	210,563	0,078	-0,091
-663,232	-200,000	0,004	-0,100
-662,218	264,692	0,049	-0,063
-661,203	-149,942	-0,086	0,005
-660,189	160,506	0,046	0,047
-659,174	-26,185	-0,126	0,054
-658,159	613,586	-0,064	-0,119
-657,145	244,831	-0,066	-0,082
-656,130	-44,174	-0,048	-0,018
-655,116	182,350	0,053	0,057
-654,101	-119,407	0,143	-0,018
-653,086	29,575	-0,035	0,022
-652,072	-22,470	0,008	0,004
-651,057	-143,593	-0,179	-0,012
-650,043	78,723	-0,021	0,016
-649,028	128,650	0,101	0,095
-648,014	800,000	-0,037	0,112
-646,999	-126,088	0,180	-0,020
-645,984	43,841	0,035	0,024
-644,970	-200,000	-0,004	0,063
-643,955	149,623	-0,156	-0,156
-642,941	64,696	-0,149	-0,111
-641,926	-200,000	0,000	0,058
-640,911	-26,506	0,063	0,027
-639,897	-137,991	0,058	0,005
-638,882	800,000	-0,009	0,023
-637,868	93,059	0,061	0,051
-636,853	-200,000	0,005	0,062
-635,838	-99,852	-0,054	-0,010
-634,824	-200,000	-0,051	-0,173
-633,809	-7,945	-0,076	0,038
-632,795	-117,282	-0,068	-0,009
-631,780	-25,701	0,105	0,046
-630,765	-13,062	-0,053	0,025
-629,751	216,872	-0,142	-0,167
-628,736	800,000	0,023	-0,071
-627,722	-106,673	-0,053	-0,009
-626,707	-126,258	0,091	0,010
-625,692	-112,350	-0,095	0,014
-624,678	77,298	-0,174	0,136
-623,663	311,869	0,101	0,140
-622,649	-55,118	0,071	-0,023
-621,634	800,000	-0,026	-0,063
-620,619	534,944	0,051	-0,090
-619,605	-200,000	0,013	-0,085
-618,590	260,870	-0,050	-0,064
-617,576	-150,839	0,121	-0,007
-616,561	-88,966	0,065	0,014
-615,546	800,000	-0,072	-0,164
-614,532	34,140	-0,095	-0,061
-613,517	-200,000	0,016	-0,128
-612,503	215,700	-0,045	-0,053
-611,488	-200,000	0,003	0,035
-610,474	145,814	-0,054	-0,054
-609,459	-97,182	-0,119	-0,023
-608,444	92,265	0,081	-0,067
-607,430	-93,339	-0,104	0,021
-606,415	401,293	-0,052	0,081
-605,401	-164,765	0,131	-0,004
-604,386	22,080	0,102	-0,061
-603,371	122,659	0,076	-0,070
-602,357	-200,000	0,030	0,107
-601,342	217,605	-0,016	-0,019
-600,328	-86,021	-0,052	-0,012
-599,313	398,771	-0,027	0,042
-598,298	347,765	-0,066	0,097
-597,284	647,189	-0,045	0,084
-596,269	-200,000	0,011	-0,047
-595,255	452,986	0,076	0,124
-594,240	-176,893	0,026	0,000
-593,225	7,947	-0,109	-0,060
-592,211	244,871	-0,045	-0,055
-591,196	56,214	0,128	-0,091
-590,182	-200,000	0,009	-0,108
-589,167	-47,112	-0,033	-0,012
-588,152	356,067	-0,040	-0,059
-587,138	-200,000	0,005	-0,029
-586,123	-151,427	0,033	0,002
-585,109	-9,566	-0,140	0,068
-584,094	-70,624	-0,065	0,018
-583,079	-91,121	0,106	0,022
-582,065	25,047	-0,048	0,029
-581,050	176,866	0,053	0,057
-580,036	-37,602	-0,072	0,028
-579,021	-10,915	-0,072	-0,035
-578,006	453,406	-0,073	-0,119
-576,992	800,000	-0,017	-0,049
-575,977	450,191	0,049	-0,080
-574,963	18,381	0,050	0,029
-573,948	82,001	-0,087	0,069
-572,934	66,301	0,048	0,036
-571,919	-58,304	-0,008	0,002
-570,904	-200,000	0,009	0,074
-569,890	-200,000	0,000	-0,056
-568,875	-33,200	0,102	-0,041
-567,861	800,000	0,017	0,044
-566,846	-28,650	-0,152	-0,064
-565,831	-53,864	0,052	-0,017
-564,817	24,772	-0,094	-0,057
-563,802	-200,000	-0,005	0,067
-562,788	-68,164	-0,097	-0,028
-561,773	-200,000	-0,037	-0,130
-560,758	719,764	0,027	0,054
-559,744	800,000	-0,013	0,034
-558,729	-200,000	-0,006	0,045
-557,715	-200,000	0,002	-0,156
-556,700	-200,000	-0,031	-0,151
-555,685	-53,646	-0,116	-0,039
-554,671	-46,176	0,092	0,033
-553,656	-200,000	-0,038	0,169
-552,642	10,636	-0,049	0,027
-551,627	-122,731	-0,144	-0,017
-550,612	615,129	-0,036	0,066
-549,598	392,365	0,059	-0,090
-548,583	170,526	-0,104	-0,109
-547,569	-69,275	0,115	0,032
-546,554	-7,419	0,058	0,029
-545,539	44,228	0,085	0,057
-544,525	-200,000	-0,002	-0,042
-543,510	91,427	-0,056	0,046
-542,496	84,305	-0,079	-0,064
-541,481	-44,309	0,069	-0,025
-540,466	800,000	-0,018	0,037
-539,452	-99,506	-0,127	-0,023
-538,437	332,286	-0,070	0,100
-537,423	443,237	0,022	0,036
-536,408	136,295	0,094	-0,090
-535,393	-200,000	0,002	-0,077
-534,379	-98,853	0,042	0,008
-533,364	-200,000	0,019	0,111
-532,350	207,027	0,044	0,051
-531,335	-32,275	0,223	0,091
-530,321	-67,613	-0,053	0,015
-529,306	-45,444	-0,069	-0,025
-528,291	-101,965	0,030	-0,005
-527,277	-85,216	0,094	-0,021
-526,262	-31,613	-0,034	0,014
-525,248	-200,000	0,014	-0,087
-524,233	154,158	0,055	-0,055
-523,218	-28,844	0,158	-0,066
-522,204	-74,338	0,054	-0,014
-521,189	-200,000	-0,024	-0,099
-520,175	347,920	0,044	-0,064
-519,160	-129,772	0,146	-0,015
-518,145	-112,420	-0,049	0,007
-517,131	-37,016	0,075	0,029
-516,116	355,661	-0,024	-0,035
-515,102	-200,000	0,028	-0,095
-514,087	-168,258	-0,099	0,003
-513,072	51,807	-0,123	-0,086
-512,058	352,068	-0,102	0,148
-511,043	34,504	0,189	-0,121
-510,029	-200,000	0,011	-0,108
-509,014	800,000	0,009	-0,025
-507,999	-200,000	0,021	0,068
-506,985	-200,000	0,019	-0,090
-505,970	74,675	-0,127	-0,098
-504,956	-41,440	0,235	-0,088
-503,941	-34,091	-0,083	-0,033
-502,926	-31,130	0,065	-0,027
-501,912	800,000	-0,005	0,012
-500,897	800,000	0,049	-0,147
-499,883	207,793	0,005	0,005
-498,868	-200,000	0,015	0,130
-497,853	-167,535	-0,156	-0,004
-496,839	-200,000	0,008	-0,137
-495,824	-200,000	-0,004	0,144
-494,810	-109,917	-0,079	-0,012
-493,795	203,089	-0,087	-0,098
-492,781	-200,000	0,004	-0,049
-491,766	-41,154	-0,169	-0,064
-490,751	-200,000	-0,007	0,053
-489,737	800,000	0,004	0,011
-488,722	-200,000	0,011	0,080
-487,708	-40,097	-0,070	0,027
-486,693	43,825	-0,047	-0,032
-485,678	73,949	-0,122	0,094
-484,664	-200,000	0,029	-0,096
-483,649	340,981	-0,102	-0,147
-482,635	-174,751	-0,119	0,002
-481,620	-200,000	0,002	0,014
-480,605	71,368	0,094	0,071
-479,591	129,239	-0,077	0,072
-478,576	92,290	-0,087	0,072
-477,562	135,504	-0,088	-0,084
-476,547	29,806	0,108	0,067
-475,532	-108,163	0,154	-0,024
-474,518	439,507	-0,035	0,057
-473,503	-140,755	0,122	-0,009
-472,489	210,279	-0,082	-0,094
-471,474	129,575	0,046	0,043
-470,459	-200,000	0,017	0,111
-469,445	800,000	0,020	0,053
-468,430	-53,647	0,040	0,013
-467,416	-200,000	0,010	-0,032
-466,401	-19,521	0,022	-0,010
-465,386	800,000	0,049	0,144
-464,372	-200,000	-0,020	0,076
-463,357	145,994	0,102	0,101
-462,343	393,675	-0,082	-0,125
-461,328	-200,000	0,004	-0,167
-460,313	19,108	0,047	0,028
-459,299	800,000	-0,010	-0,029
-458,284	-200,000	-0,015	0,074
-457,270	120,571	0,025	-0,023
-456,255	-5,430	-0,123	-0,062
-455,241	203,663	-0,067	-0,076
-454,226	21,968	-0,038	0,023
-453,211	800,000	0,009	0,020
-452,197	128,773	-0,067	0,063
-451,182	-181,312	-0,188	0,003
-450,168	215,003	-0,066	-0,076
-449,153	-200,000	-0,010	-0,048
-448,138	-99,248	-0,040	-0,007
-447,124	-200,000	-0,026	0,093
-446,109	548,520	0,017	-0,030
-445,095	-200,000	0,001	0,030
-444,080	-200,000	-0,001	0,011
-443,065	252,342	0,056	-0,070
-442,051	-118,171	-0,135	-0,017
-441,036	2,233	-0,167	-0,088
-440,022	79,061	0,025	-0,020
-439,007	-137,898	-0,056	-0,004
-437,992	440,666	0,038	-0,062
-436,978	-76,728	0,017	-0,004
-435,963	-72,985	-0,204	-0,054
-434,949	-200,000	-0,010	-0,050
-433,934	-200,000	-0,005	-0,122
-432,919	-200,000	-0,027	-0,153
-431,905	-36,340	-0,072	0,028
-430,890	-200,000	0,019	0,097
-429,876	800,000	0,013	0,032
-428,861	800,000	-0,024	-0,077
-427,846	-4,976	0,085	-0,043
-426,832	-200,000	0,000	-0,042
-425,817	-26,347	-0,096	-0,041
-424,803	71,118	-0,082	-0,062
-423,788	-6,345	-0,024	-0,012
-422,773	178,328	0,103	-0,111
-421,759	-200,000	0,011	0,037
-420,744	-174,075	0,039	0,001
-419,730	-200,000	-0,026	0,124
-418,715	-200,000	0,001	0,161
-417,701	-200,000	-0,001	0,060
-416,686	-75,573	0,108	0,028
-415,671	-200,000	0,005	0,127
-414,657	7,368	-0,053	0,029
-413,642	-200,000	0,008	0,079
-412,628	-200,000	-0,008	0,043
-411,613	-8,011	-0,135	0,066
-410,598	800,000	0,037	-0,078
-409,584	195,935	0,098	-0,109
-408,569	70,754	0,162	0,123
-407,555	20,875	0,165	0,097
-406,540	-10,693	0,055	0,026
-405,525	270,607	-0,031	-0,041
-404,511	800,000	-0,033	-0,089
-403,496	25,179	-0,064	-0,039
-402,482	281,462	0,042	0,055
-401,467	629,209	-0,013	-0,024
-400,452	413,511	0,048	-0,075
-399,438	124,131	-0,045	-0,041
-398,423	206,084	0,040	-0,045
-397,409	-86,387	-0,202	-0,045
-396,394	-144,689	-0,095	0,006
-395,379	800,000	0,039	-0,107
-394,365	-200,000	0,007	0,107
-393,350	800,000	-0,098	0,203
-392,336	483,034	0,104	0,173
-391,321	-126,610	-0,119	0,013
-390,306	55,008	0,063	0,045
-389,292	647,360	-0,020	-0,038
-388,277	-200,000	-0,030	-0,167
-387,263	800,000	-0,022	0,061
-386,248	168,631	0,003	-0,003
-385,233	-13,904	-0,038	-0,018
-384,219	18,616	0,122	-0,071
-383,204	614,259	-0,018	-0,033
-382,190	-200,000	0,003	-0,070
-381,175	97,580	0,017	-0,015
-380,160	19,932	-0,139	0,081
-379,146	277,448	-0,100	0,130
-378,131	175,843	0,031	0,032
-377,117	703,466	0,042	-0,081
-376,102	-200,000	0,001	0,037
-375,088	723,882	-0,067	-0,130
-374,073	800,000	0,042	-0,105
-373,058	-19,316	0,057	0,026
-372,044	800,000	0,027	0,068
-371,029	-153,994	0,098	0,005
-370,015	24,208	0,091	0,055
-369,000	-200,000	-0,016	-0,150
-367,985	-42,784	0,038	-0,014
-366,971	343,332	-0,100	-0,144
-365,956	-92,416	0,050	-0,010
-364,942	300,662	0,098	-0,132
-363,927	800,000	0,015	-0,034
-362,912	285,297	0,035	-0,047
-361,898	-99,460	0,103	0,019
-360,883	92,395	0,114	-0,094
-359,869	217,283	-0,045	0,053
-358,854	-38,943	-0,168	0,064
-357,839	800,000	-0,038	0,109
-356,825	162,308	0,049	0,050
-355,810	800,000	0,022	-0,044
-354,796	-45,322	-0,103	0,037
-353,781	20,280	-0,044	-0,026
-352,766	-200,000	0,013	-0,128
-351,752	-36,481	0,099	-0,039
-350,737	-123,605	0,114	0,013
-349,723	82,045	0,040	-0,032
-348,708	-140,000	0,102	0,008
-347,693	11,835	0,052	0,029
-346,679	-101,823	-0,080	-0,014
-345,664	-59,336	0,088	-0,028
-344,650	800,000	0,016	0,048
-343,635	-39,052	0,050	0,019
-342,620	-44,186	-0,127	-0,046
-341,606	-29,612	-0,094	0,039
-340,591	-67,889	0,028	-0,008
-339,577	-113,694	0,099	0,014
-338,562	-116,907	0,127	-0,017
-337,548	738,613	0,079	-0,155
-336,533	449,027	-0,030	-0,049
-335,518	778,141	0,045	-0,091
-334,504	-200,000	-0,023	0,089
-333,489	36,758	0,097	0,063
-332,475	654,291	0,076	-0,142
-331,460	-200,000	-0,035	-0,173
-330,445	66,240	0,136	0,101
-329,431	171,458	0,101	-0,106
-328,416	-35,642	0,083	0,033
-327,402	93,233	-0,063	0,052
-326,387	112,841	0,087	-0,077
-325,372	-119,193	-0,094	0,012
-324,358	-121,994	-0,135	0,016
-323,343	41,455	-0,057	0,037
-322,329	209,608	-0,045	0,051
-321,314	800,000	0,061	0,169
-320,299	40,669	0,138	0,090
-319,285	-200,000	0,012	0,144
-318,270	-36,078	0,024	-0,009
-317,256	-0,899	-0,028	-0,014
-316,241	411,010	-0,089	-0,138
-315,226	-200,000	0,022	0,095
-314,212	-35,481	0,119	-0,047
-313,197	10,405	0,048	-0,026
-312,183	186,545	-0,070	0,077
-311,168	-25,040	0,087	0,037
-310,153	20,813	-0,092	0,054
-309,139	376,162	-0,055	-0,082
-308,124	-200,000	-0,004	0,048
-307,110	-36,270	-0,069	0,027
-306,095	752,361	-0,033	-0,065
-305,080	-122,864	0,053	0,006
-304,066	-200,000	-0,018	0,151
-303,051	-17,542	0,120	0,055
-302,037	323,965	0,045	-0,063
-301,022	-8,797	-0,027	0,013
-300,008	-103,293	0,021	-0,004
-298,993	63,788	0,105	0,076
-297,978	-200,000	-0,007	-0,038
-296,964	33,228	-0,027	-0,017
-295,949	12,375	0,189	0,106
-294,935	-42,974	-0,122	-0,045
-293,920	-200,000	0,003	0,012
-292,905	53,633	-0,097	-0,067
-291,891	-58,863	0,109	-0,034
-290,876	800,000	0,029	-0,083
-289,862	157,523	-0,052	0,052
-288,847	40,584	-0,104	-0,068
-287,832	-200,000	-0,000	-0,019
-286,818	230,557	0,027	0,032
-285,803	-42,191	0,081	0,030
-284,789	-200,000	0,044	0,175
-283,774	-200,000	0,012	-0,071
-282,759	538,599	-0,034	0,059
-281,745	-33,625	0,096	-0,038
-280,730	-200,000	-0,013	-0,089
-279,716	-92,316	-0,085	-0,017
-278,701	-159,123	-0,084	0,003
-277,686	800,000	0,066	0,195
-276,672	725,165	0,023	0,045
-275,657	-200,000	0,028	0,125
-274,643	191,594	0,055	-0,060
-273,628	-200,000	0,021	-0,111
-272,613	740,860	-0,023	-0,046
-271,599	99,514	0,073	0,061
-270,584	800,000	-0,023	0,058
-269,570	800,000	0,035	0,091
-268,555	-200,000	-0,015	0,056
-267,540	43,216	0,093	0,061
-266,526	-200,000	-0,023	-0,113
-265,511	176,211	0,072	-0,076
-264,497	-137,485	0,066	-0,005
-263,482	-59,413	0,129	0,040
-262,467	518,860	0,016	-0,028
-261,453	457,807	0,023	0,037
-260,438	-45,348	0,071	-0,026
-259,424	108,420	-0,078	-0,068
-258,409	800,000	0,065	-0,146
-257,395	5,070	-0,023	0,012
-256,380	252,110	-0,020	0,025
-255,365	-200,000	0,016	0,116
-254,351	117,403	0,070	0,063
-253,336	-144,819	-0,050	-0,003
-252,322	-155,875	-0,175	-0,008
-251,307	-200,000	0,016	-0,094
-250,292	439,922	-0,009	0,014
-249,278	73,725	0,094	0,071
-248,263	800,000	-0,058	0,131
-247,249	800,000	-0,065	0,150
-246,234	-85,190	0,142	0,032
-245,219	795,516	0,014	-0,027
-244,205	627,988	0,030	0,056
-243,190	800,000	-0,046	0,115
-242,176	-135,137	0,014	0,001
-241,161	-110,621	0,065	-0,010
-240,146	28,888	-0,021	0,013
-239,132	800,000	-0,015	0,046
-238,117	-52,890	-0,060	0,020
-237,103	154,065	-0,069	0,069
-236,088	59,017	-0,050	0,036
-235,073	-25,735	0,108	0,046
-234,059	800,000	-0,033	0,075
-233,044	24,286	-0,128	0,077
-232,030	-156,708	0,109	0,005
-231,015	-200,000	-0,014	0,071
-230,000	-200,000	-0,013	-0,048
-228,986	46,677	0,070	-0,047
-227,971	-5,964	0,088	0,044
-226,957	-200,000	-0,013	0,079
-225,942	-6,634	-0,057	0,028
-224,927	224,849	-0,143	0,169
-223,913	-200,000	0,005	0,067
-222,898	-200,000	0,019	0,077
-221,884	-135,760	-0,138	0,012
-220,869	-52,944	0,084	-0,028
-219,855	-40,587	0,070	0,026
-218,840	-200,000	-0,025	0,124
-217,825	75,257	0,158	-0,121
-216,811	-81,809	-0,149	0,035
-215,796	44,539	-0,084	0,056
-214,782	15,619	0,055	-0,031
-213,767	-200,000	0,012	-0,074
-212,752	800,000	0,023	0,059
-211,738	60,443	0,147	0,105
-210,723	179,491	0,035	0,038
-209,709	139,745	-0,065	0,062
-208,694	-99,979	-0,104	-0,019
-207,679	43,927	0,151	0,100
-206,665	800,000	-0,054	0,116
-205,650	-135,447	0,101	0,009
-204,636	-156,957	0,080	0,003
-203,621	106,646	-0,047	-0,041
-202,606	-200,000	0,006	0,046
-201,592	-200,000	-0,011	-0,054
-200,577	-200,000	0,008	-0,054
-199,563	-200,000	0,025	-0,142
-198,548	-38,293	0,082	-0,031
-197,533	218,628	0,082	0,096
-196,519	-200,000	-0,015	0,055
-195,504	225,238	-0,098	-0,115
-194,490	94,774	-0,140	0,116
-193,475	152,165	-0,035	-0,035
-192,460	-10,546	0,045	0,021
-191,446	171,839	0,112	0,117
-190,431	34,113	-0,034	0,022
-189,417	800,000	0,038	-0,089
-188,402	-142,112	0,095	-0,007
-187,387	118,202	-0,090	-0,080
-186,373	800,000	-0,072	0,177
-185,358	-200,000	0,027	0,111
-184,344	124,641	-0,031	0,028
-183,329	396,482	-0,060	0,091
-182,315	-82,243	0,137	0,032
-181,300	-36,222	-0,155	-0,060
-180,285	270,611	0,029	0,037
-179,271	109,323	-0,068	0,059
-178,256	800,000	0,031	0,069
-177,242	-27,955	0,172	0,072
-176,227	107,770	-0,062	-0,054
-175,212	-200,000	0,005	-0,050
-174,198	143,561	-0,134	-0,130
-173,183	-124,364	-0,085	-0,009
-172,169	346,322	0,071	-0,102
-171,154	-200,000	0,017	0,096
-170,139	95,381	0,045	-0,037
-169,125	-119,136	0,070	0,009
-168,110	8,289	-0,091	0,050
-167,096	23,801	-0,113	0,067
-166,081	-200,000	0,032	0,106
-165,066	790,295	0,023	0,046
-164,052	-200,000	0,015	-0,078
-163,037	-119,333	0,034	-0,004
-162,023	321,019	-0,005	0,007
-161,008	46,750	-0,080	0,054
-159,993	152,505	-0,091	-0,090
-158,979	337,870	0,028	-0,039
-157,964	800,000	-0,080	-0,245
-156,950	589,990	0,079	-0,141
-155,935	107,507	-0,016	0,014
-154,920	24,255	0,021	-0,012
-153,906	-200,000	0,010	0,093
-152,891	153,861	0,090	0,089
-151,877	119,413	0,027	-0,024
-150,862	130,825	-0,052	-0,048
-149,847	134,320	-0,015	-0,015
-148,833	66,259	-0,042	-0,031
-147,818	-3,062	-0,054	0,027
-146,804	330,670	0,105	0,146
-145,789	-131,800	0,056	0,005
-144,775	105,830	-0,068	-0,058
-143,760	-200,000	0,009	-0,031
-142,745	194,239	-0,105	-0,116
-141,731	295,259	0,011	-0,014
-140,716	-130,730	0,079	0,008
-139,702	-70,317	-0,106	0,029
-138,687	-200,000	0,020	0,073
-137,672	800,000	-0,043	-0,088
-136,658	-21,344	-0,066	0,029
-135,643	286,966	-0,105	-0,138
-134,629	79,176	0,042	0,033
-133,614	-164,338	0,108	0,003
-132,599	-84,334	0,062	0,014
-131,585	-200,000	-0,001	0,081
-130,570	-125,881	-0,037	0,004
-129,556	74,788	-0,194	0,147
-128,541	-137,529	-0,040	-0,003
-127,526	800,000	0,007	0,014
-126,512	800,000	-0,037	-0,082
-125,497	-194,095	0,067	-0,000
-124,483	89,294	-0,038	-0,031
-123,468	88,518	0,082	-0,066
-122,453	63,478	-0,058	-0,042
-121,439	-20,926	-0,099	0,044
-120,424	-200,000	0,000	0,023
-119,410	800,000	-0,014	-0,030
-118,395	175,634	-0,032	-0,034
-117,380	-21,409	0,007	0,003
-116,366	100,089	0,121	-0,101
-115,351	-200,000	0,021	-0,086
-114,337	-200,000	0,032	-0,113
-113,322	62,020	0,022	0,016
-112,307	341,146	0,069	-0,097
-111,293	-200,000	0,002	0,078
-110,278	-80,117	0,093	0,022
-109,264	19,754	-0,088	0,051
-108,249	610,088	-0,078	0,141
-107,234	559,081	0,020	-0,035
-106,220	261,770	0,059	0,075
-105,205	-200,000	-0,013	0,083
-104,191	82,493	0,078	-0,061
-103,176	74,622	0,040	0,030
-102,162	800,000	-0,034	-0,089
-101,147	-48,738	-0,060	-0,021
-100,132	-105,480	-0,124	0,020
-99,118	-200,000	0,032	-0,117
-98,103	-200,000	-0,010	0,086
-97,089	-50,741	-0,149	-0,050
-96,074	800,000	0,065	0,154
-95,059	-51,175	-0,072	-0,024
-94,045	139,107	-0,033	-0,031
-93,030	89,532	-0,035	-0,028
-92,016	800,000	0,016	-0,039
-91,001	800,000	-0,035	0,097
-89,986	136,736	-0,046	0,044
-88,972	-200,000	-0,014	0,111
-87,957	-195,672	0,138	0,001
-86,943	-200,000	0,005	0,173
-85,928	26,415	-0,029	0,018
-84,913	-17,679	0,038	0,017
-83,899	220,503	0,068	-0,079
-82,884	33,456	0,121	-0,076
-81,870	-200,000	-0,032	0,102
-80,855	-200,000	0,016	-0,105
-79,840	-200,000	-0,006	-0,065
-78,826	165,431	-0,047	-0,048
-77,811	-31,278	-0,024	-0,010
-76,797	-124,063	-0,082	-0,009
-75,782	232,625	0,017	-0,021
-74,767	-114,062	0,175	-0,024
-73,753	456,445	0,036	-0,058
-72,738	-200,000	-0,018	0,069
-71,724	156,652	0,073	-0,073
-70,709	-160,232	-0,086	0,003
-69,694	-200,000	-0,020	-0,110
-68,680	-34,735	0,120	0,047
-67,665	206,603	0,047	0,053
-66,651	-200,000	0,007	-0,024
-65,636	-200,000	0,022	0,137
-64,622	-20,377	0,036	-0,016
-63,607	800,000	-0,016	0,041
-62,592	27,245	-0,023	0,014
-61,578	-200,000	-0,005	0,021
-60,563	370,225	0,064	0,093
-59,549	800,000	0,033	-0,076
-58,534	-38,126	-1,703	-0,649
-57,519	800,000	-0,526	-1,226
-56,505	-200,000	-0,930	-4,750
-55,490	-25,206	0,680	0,289
-54,476	800,000	5,066	11,615
-53,461	-200,000	16,079	279,138
-52,446	-200,000	704,197	2253,716
-51,432	575,118	1618,004	2859,937
-50,417	124,888	1619,785	1471,400
-49,403	87,570	1280,890	1021,927
-48,388	37,743	1026,013	655,723
-47,373	21,592	988,323	578,411
-46,359	20,425	976,742	567,775
-45,344	18,505	972,575	559,037
-44,330	18,668	971,332	558,833
-43,315	18,359	969,667	556,844
-42,300	18,355	968,442	556,105
-41,286	18,332	967,568	555,508
-40,271	18,366	966,682	555,086
-39,257	18,288	965,921	554,372
-38,242	18,276	965,205	553,902
-37,227	18,308	964,350	553,493
-36,213	18,269	963,281	552,732
-35,198	18,264	962,510	552,252
-34,184	18,292	961,774	551,896
-33,169	18,266	960,887	551,281
-32,154	18,346	959,736	550,860
-31,140	18,307	959,144	550,371
-30,125	18,345	958,508	550,105
-29,111	18,345	957,509	549,512
-28,096	18,296	957,072	549,082
-27,082	18,287	956,324	548,602
-26,067	18,327	955,415	548,186
-25,052	18,263	954,657	547,523
-24,038	18,260	954,101	547,173
-23,023	18,256	953,415	546,746
-22,009	18,323	952,411	546,362
-20,994	18,318	952,007	546,093
-19,979	18,281	951,517	545,674
-18,965	18,288	950,801	545,261
-17,950	18,326	950,073	544,946
-16,936	18,254	949,617	544,432
-15,921	18,196	948,932	543,833
-14,906	18,140	948,187	543,204
-13,892	18,149	947,575	542,861
-12,877	18,180	946,714	542,444
-11,863	18,111	946,263	541,945
-10,848	18,127	945,976	541,809
-9,833	18,241	945,283	541,755
-8,819	18,229	944,647	541,330
-7,804	18,153	943,994	540,694
-6,790	18,113	943,628	540,335
-5,775	18,125	943,007	539,995
-4,760	18,246	942,102	539,840
-3,746	18,214	941,550	539,402
-2,731	18,062	940,801	538,470
-1,717	18,002	940,119	537,867
-0,702	17,962	939,606	537,425
0,313	17,795	938,978	537,348
1,327	20,295	936,695	543,887
2,342	27,358	810,216	489,595
3,356	21,761	513,011	300,354
4,371	-0,547	383,412	195,423
5,386	-3,004	366,891	183,896
6,400	-4,277	360,851	179,277
7,415	-4,957	358,035	177,027
8,429	-5,046	356,546	176,167
9,444	-5,284	355,598	175,393
10,459	-5,446	354,721	174,747
11,473	-5,331	354,045	174,538
12,488	-5,161	353,743	174,580
13,502	-5,380	353,116	173,990
14,517	-5,281	352,337	173,710
15,531	-5,792	351,793	172,810
16,546	-5,764	351,043	172,459
17,561	-5,853	350,962	172,298
18,575	-5,805	350,360	172,044
19,590	-5,952	350,000	171,676
20,604	-5,867	349,627	171,579
21,619	-5,976	349,282	171,264
22,634	-5,980	348,910	171,062
23,648	-6,002	348,402	170,771
24,663	-5,961	348,179	170,696
25,677	-5,928	347,888	170,577
26,692	-5,938	347,616	170,417
27,707	-6,047	347,353	170,142
28,721	-6,027	346,932	169,945
29,736	-5,980	346,610	169,828
30,750	-6,046	346,298	169,581
31,765	-5,998	346,111	169,532
32,780	-5,931	345,799	169,444
33,794	-5,966	345,482	169,231
34,809	-6,030	345,138	168,972
35,823	-6,218	345,134	168,733
36,838	-6,067	344,497	168,585
37,853	-6,007	344,155	168,472
38,867	-6,014	343,850	168,301
39,882	-6,032	343,653	168,168
40,896	-6,112	343,317	167,894
41,911	-6,120	343,011	167,720
42,926	-6,131	342,802	167,590
43,940	-6,245	342,581	167,333
44,955	-6,161	342,171	167,217
45,969	-6,378	342,027	166,877
46,984	-6,412	341,610	166,619
47,999	-6,608	341,297	166,223
49,013	-6,626	341,086	166,084
50,028	-6,703	340,621	165,754
51,042	-6,685	340,441	165,672
52,057	-6,600	340,087	165,584
53,071	-6,798	340,030	165,310
54,086	-6,791	339,807	165,196
55,101	-6,383	339,254	165,386
56,115	-6,555	339,294	165,191
57,130	-5,867	338,928	165,795
58,144	-5,715	338,948	165,967
59,159	-5,734	338,723	165,819
60,174	-5,881	338,523	165,537
61,188	-5,722	338,129	165,513
62,203	-6,065	337,966	165,022
63,217	-5,982	337,653	164,951
64,232	-5,942	337,383	164,849
65,247	-5,614	337,066	165,058
66,261	-5,759	336,808	164,750
67,276	-6,167	336,542	164,136
68,290	-6,249	336,066	163,795
69,305	-6,200	335,880	163,746
70,320	-6,216	335,558	163,556
71,334	-6,137	335,477	163,592
72,349	-5,979	335,411	163,727
73,363	-5,755	335,072	163,804
74,378	-5,852	334,767	163,529
75,393	-5,712	334,329	163,460
76,407	-5,779	334,280	163,345
77,422	-5,870	333,808	162,996
78,436	-5,855	333,671	162,932
79,451	-5,740	333,386	162,909
80,466	-6,042	332,998	162,361
81,480	-6,162	332,643	162,037
82,495	-6,455	332,582	161,662
83,509	-6,271	332,303	161,721
84,524	-6,210	331,903	161,580
85,539	-6,395	331,665	161,240
86,553	-6,413	331,414	161,084
87,568	-6,332	331,192	161,053
88,582	-6,334	331,024	160,955
89,597	-6,341	330,810	160,828
90,611	-6,117	330,750	161,037
91,626	-5,952	330,275	160,977
92,641	-6,015	330,122	160,817
93,655	-6,131	329,814	160,522
94,670	-6,084	329,495	160,406
95,684	-6,146	329,516	160,332
96,699	-6,155	329,154	160,132
97,714	-6,135	328,873	160,003
98,728	-6,246	328,542	159,704
99,743	-6,424	328,300	159,373
100,757	-6,430	328,005	159,208
101,772	-6,266	327,849	159,302
102,787	-6,271	327,643	159,182
103,801	-6,049	327,344	159,269
104,816	-6,076	327,215	159,162
105,830	-5,930	327,009	159,211
106,845	-5,877	326,945	159,225
107,860	-5,867	326,559	159,033
108,874	-6,151	326,418	158,636
109,889	-6,025	326,049	158,581
110,903	-6,042	325,739	158,397
111,918	-5,970	325,550	158,371
112,933	-6,273	325,428	157,963
113,947	-5,914	324,964	158,120
114,962	-6,120	324,958	157,875
115,976	-5,946	324,648	157,902
116,991	-6,040	324,412	157,671
118,006	-6,060	324,176	157,519
119,020	-6,098	324,117	157,435
120,035	-5,742	323,857	157,687
121,049	-5,823	323,718	157,516
122,064	-5,948	323,487	157,252
123,079	-6,055	323,118	156,941
124,093	-5,959	322,896	156,924
125,108	-6,291	322,610	156,407
126,122	-6,369	322,299	156,157
127,137	-6,462	322,000	155,897
128,151	-6,497	321,873	155,782
129,166	-6,283	321,522	155,833
130,181	-6,347	321,237	155,611
131,195	-6,414	321,087	155,452
132,210	-6,190	320,865	155,575
133,224	-5,945	320,808	155,799
134,239	-5,836	320,470	155,740
135,254	-5,960	320,282	155,500
136,268	-5,914	319,970	155,384
137,283	-6,195	319,662	154,917
138,297	-6,431	319,477	154,557
139,312	-6,266	319,166	154,571
140,327	-5,887	319,150	154,961
141,341	-5,765	319,177	155,091
142,356	-5,487	318,939	155,263
143,370	-5,489	318,584	155,075
144,385	-5,652	318,481	154,834
145,400	-5,617	318,018	154,633
146,414	-5,616	317,831	154,529
147,429	-5,438	317,607	154,598
148,443	-5,641	317,485	154,307
149,458	-5,509	317,362	154,376
150,473	-5,369	317,093	154,381
151,487	-5,495	316,750	154,065
152,502	-5,506	316,518	153,927
153,516	-5,570	316,409	153,791
154,531	-5,573	316,118	153,633
155,546	-5,575	315,925	153,523
156,560	-5,695	315,779	153,310
157,575	-5,785	315,448	153,039
158,589	-5,624	315,302	153,127
159,604	-5,715	315,146	152,941
160,619	-5,539	314,871	152,982
161,633	-5,545	314,622	152,840
162,648	-5,610	314,454	152,676
163,662	-5,704	314,341	152,508
164,677	-5,774	314,118	152,311
165,692	-5,765	313,969	152,235
166,706	-5,663	313,632	152,166
167,721	-5,650	313,525	152,114
168,735	-5,529	313,332	152,136
169,750	-5,498	313,156	152,069
170,764	-5,426	312,971	152,042
171,779	-5,304	312,723	152,037
172,794	-5,426	312,596	151,833
173,808	-5,438	312,171	151,601
174,823	-6,026	311,807	150,790
175,837	-6,222	311,566	150,453
176,852	-5,757	311,562	150,928
177,867	-5,358	311,333	151,223
178,881	-5,472	311,329	151,088
179,896	-5,449	311,124	151,000
180,910	-5,460	311,002	150,915
181,925	-5,401	310,674	150,805
182,940	-5,353	310,292	150,656
183,954	-5,181	310,100	150,729
184,969	-5,520	310,086	150,354
185,983	-5,454	309,813	150,278
186,998	-5,355	309,593	150,260
188,013	-5,206	309,286	150,254
189,027	-5,255	309,147	150,122
190,042	-5,364	309,040	149,943
191,056	-5,206	308,651	149,905
192,071	-5,022	308,498	150,009
193,086	-5,240	308,511	149,775
194,100	-5,299	308,218	149,558
195,115	-5,414	307,949	149,295
196,129	-5,280	307,709	149,304
197,144	-5,209	307,518	149,272
198,159	-5,174	307,182	149,132
199,173	-5,401	307,198	148,891
200,188	-5,095	306,898	149,049
201,202	-5,423	306,575	148,539
202,217	-6,077	306,287	147,711
203,232	-6,017	305,799	147,525
204,246	-5,614	305,788	147,921
205,261	-5,303	305,729	148,201
206,275	-5,382	305,585	148,037
207,290	-5,383	305,315	147,892
208,304	-5,414	305,190	147,786
209,319	-5,356	304,930	147,707
210,334	-5,233	304,663	147,690
211,348	-5,296	304,489	147,528
212,363	-5,238	304,289	147,477
213,377	-5,141	304,156	147,499
214,392	-5,321	304,045	147,248
215,407	-5,731	303,671	146,634
216,421	-5,719	303,283	146,446
217,436	-5,741	303,246	146,393
218,450	-5,773	303,054	146,254
219,465	-5,591	303,035	146,418
220,480	-5,452	302,752	146,409
221,494	-5,338	302,501	146,391
222,509	-5,552	302,364	146,094
223,523	-5,395	302,192	146,158
224,538	-5,379	302,137	146,134
225,553	-5,304	301,929	146,096
226,567	-5,239	301,688	146,033
227,582	-5,176	301,498	145,993
228,596	-5,272	301,342	145,806
229,611	-5,191	301,159	145,787
230,626	-5,405	300,956	145,458
231,640	-5,591	300,360	144,969
232,655	-6,110	300,225	144,367
233,669	-6,221	299,957	144,113
234,684	-6,134	299,686	144,058
235,699	-5,973	299,523	144,129
236,713	-5,893	299,390	144,133
237,728	-5,537	299,067	144,323
238,742	-5,511	299,146	144,374
239,757	-5,451	299,175	144,435
240,772	-5,465	298,845	144,250
241,786	-5,527	298,664	144,087
242,801	-5,469	298,343	143,977
243,815	-5,684	298,342	143,748
244,830	-5,581	298,258	143,798
245,844	-5,557	297,764	143,572
246,859	-5,617	297,594	143,416
247,874	-5,505	297,410	143,427
248,888	-5,689	297,345	143,199
249,903	-5,458	297,246	143,370
250,917	-5,229	297,113	143,521
251,932	-5,038	297,002	143,645
252,947	-4,162	297,235	144,619
253,961	-4,272	296,990	144,377
254,976	-3,019	297,351	145,790
255,990	-1,584	297,570	147,316
257,005	-1,861	297,385	146,935
258,020	0,028	297,879	149,051
259,034	0,611	298,147	149,753
260,049	0,457	297,741	149,383
261,063	0,560	297,524	149,363
262,078	0,977	297,694	149,850
263,093	1,295	297,621	150,117
264,107	1,425	297,344	150,093
265,122	1,535	297,221	150,126
266,136	1,661	297,139	150,197
267,151	1,430	296,944	149,855
268,166	1,455	296,485	149,635
269,180	1,201	296,418	149,336
270,195	1,293	296,263	149,336
271,209	1,275	295,982	149,163
272,224	1,261	295,761	149,024
273,239	1,149	295,701	148,871
274,253	1,434	295,513	149,044
275,268	1,795	295,478	149,369
276,282	1,263	295,207	148,694
277,297	1,231	294,874	148,482
278,312	1,493	294,574	148,575
279,326	1,349	294,525	148,396
280,341	1,405	294,309	148,328
281,355	1,441	294,096	148,244
282,370	1,196	294,071	147,977
283,384	1,431	293,806	148,061
284,399	1,286	293,634	147,819
285,414	1,433	293,475	147,870
286,428	1,442	293,119	147,686
287,443	1,586	292,857	147,681
288,457	1,495	292,681	147,490
289,472	1,324	292,475	147,207
290,487	1,093	292,336	146,898
291,501	1,246	292,089	146,910
292,516	1,096	291,947	146,680
293,530	1,054	291,668	146,486
294,545	1,238	291,637	146,636
295,560	1,324	291,628	146,702
296,574	1,457	291,211	146,609
297,589	1,173	291,083	146,255
298,603	1,518	290,933	146,501
299,618	1,602	290,760	146,483
300,633	1,479	290,536	146,238
301,647	1,473	290,426	146,163
302,662	1,402	290,117	145,926
303,676	1,275	289,854	145,659
304,691	1,224	289,511	145,423
305,706	0,925	289,381	145,057
306,720	0,717	289,417	144,862
307,735	0,776	289,138	144,765
308,749	1,071	288,924	144,930
309,764	1,077	288,693	144,807
310,779	1,025	288,498	144,647
311,793	0,781	288,309	144,304
312,808	0,880	288,001	144,233
313,822	0,942	287,980	144,268
314,837	0,851	287,686	144,021
315,852	0,774	287,490	143,836
316,866	0,923	287,306	143,874
317,881	0,915	287,186	143,794
318,895	0,867	287,081	143,682
319,910	0,734	286,905	143,455
320,925	0,755	286,643	143,330
321,939	0,936	286,547	143,442
322,954	0,972	286,282	143,331
323,968	0,875	286,135	143,152
324,983	1,033	285,851	143,148
325,997	1,080	285,714	143,111
327,012	0,939	285,615	142,915
328,027	0,855	285,328	142,678
329,041	0,935	285,100	142,628
330,056	0,877	285,034	142,527
331,070	1,184	284,795	142,685
332,085	0,873	284,714	142,338
333,100	0,961	284,408	142,255
334,114	0,898	284,217	142,088
335,129	0,961	284,019	142,036
336,143	1,224	283,985	142,254
337,158	1,391	283,809	142,310
338,173	1,033	283,620	141,865
339,187	0,973	283,370	141,672
340,202	1,131	283,229	141,737
341,216	1,215	283,175	141,777
342,231	1,022	282,891	141,440
343,246	1,249	282,536	141,463
344,260	1,174	282,465	141,345
345,275	1,138	282,308	141,220
346,289	1,379	282,301	141,429
347,304	1,187	282,148	141,161
348,319	1,083	281,804	140,878
349,333	0,969	281,586	140,650
350,348	1,332	281,492	140,929
351,362	1,452	281,348	140,958
352,377	1,129	281,271	140,605
353,392	1,665	280,990	140,951
354,406	1,662	280,956	140,919
355,421	191,118	1329,123	1398,884
356,435	154,653	1456,859	1398,919
