DTS Sentinel unit serial number:	SN410029Multiplexer serial number:	ORYXHardware model number:	OX2-SRSoftware version number:	ORYX F/W v4,00 Oryx Data Collector v3.7.2.0data status	okinstallation	B4 Nyhavnadifferential loss correction	single-endedforward channel	channel 2reverse channel	N/Adate	2023/12/16time	08:35:13forward acquisition time	300,00reverse acquisition time	0,00gamma	499,1914k internal	0,3127k external	0,3127temperature offset calibration	1,0000default loss term (dB/km)	0,3820temperature slope calibration	1,0000multiplexer offset coefficient	1,0000multiplexer slope coefficient	1,0000fibre end	0,00T internal ref (°C)	22,62T ext. ref 1 (°C)	8,53T ext. ref 2 (°C)	8,68length (m)	temperature (°C)	Stokes	anti-Stokes-744,400	800,000	-0,014	0,042
-743,385	484,268	-0,072	0,123
-742,371	-36,674	0,056	0,022
-741,356	-29,106	-0,154	0,065
-740,342	-200,000	-0,005	-0,057
-739,327	-134,645	-0,218	0,019
-738,312	-200,000	-0,007	-0,030
-737,298	60,608	-0,220	0,162
-736,283	-87,696	0,120	-0,027
-735,269	29,876	-0,159	-0,101
-734,254	268,022	-0,027	0,035
-733,239	-92,529	-0,408	-0,085
-732,225	-54,699	0,152	0,051
-731,210	-200,000	0,000	0,040
-730,196	154,499	-0,032	-0,032
-729,181	-65,290	-0,147	0,044
-728,167	281,745	-0,035	-0,046
-727,152	-131,527	-0,148	0,014
-726,137	248,446	-0,142	-0,180
-725,123	80,620	-0,058	-0,047
-724,108	800,000	-0,046	-0,147
-723,094	-200,000	0,015	-0,086
-722,079	639,374	-0,082	-0,156
-721,064	69,603	0,046	-0,035
-720,050	713,303	0,024	0,048
-719,035	19,076	-0,138	0,082
-718,021	-107,980	-0,075	-0,012
-717,006	627,267	0,064	-0,120
-715,991	-103,083	-0,159	-0,028
-714,977	270,300	-0,073	-0,095
-713,962	800,000	-0,063	-0,168
-712,948	-200,000	-0,034	0,158
-711,933	-79,761	-0,112	0,028
-710,918	207,172	0,058	-0,067
-709,904	800,000	0,009	0,021
-708,889	251,518	-0,126	-0,160
-707,875	225,639	0,044	0,053
-706,860	-200,000	0,007	0,024
-705,845	153,005	-0,084	0,085
-704,831	800,000	-0,032	0,078
-703,816	554,957	0,059	0,105
-702,802	-82,917	0,061	0,014
-701,787	-16,114	-0,115	-0,054
-700,772	108,280	-0,106	0,094
-699,758	28,969	-0,024	-0,015
-698,743	-112,312	0,098	0,014
-697,729	800,000	-0,041	-0,097
-696,714	-200,000	-0,009	-0,034
-695,699	56,938	-0,120	0,087
-694,685	738,988	0,018	0,036
-693,670	299,946	0,044	-0,061
-692,656	-145,088	0,186	-0,012
-691,641	268,140	0,071	-0,092
-690,627	-200,000	-0,007	0,155
-689,612	-59,790	-0,088	-0,028
-688,597	-200,000	0,022	-0,169
-687,583	800,000	0,043	-0,121
-686,568	157,870	0,015	-0,016
-685,554	-22,389	-0,076	0,034
-684,539	251,639	-0,059	0,074
-683,524	800,000	0,044	0,109
-682,510	338,921	0,081	0,118
-681,495	800,000	-0,051	0,149
-680,481	-46,290	-0,055	0,020
-679,466	-170,653	-0,139	0,003
-678,451	-200,000	-0,000	-0,044
-677,437	-200,000	-0,003	0,011
-676,422	-59,792	0,116	0,037
-675,408	183,130	0,084	-0,092
-674,393	-144,927	-0,066	-0,004
-673,378	133,107	-0,026	0,025
-672,364	800,000	0,073	-0,153
-671,349	-55,390	-0,053	-0,017
-670,335	-170,747	-0,083	0,002
-669,320	-200,000	-0,007	-0,060
-668,305	-156,309	0,212	-0,010
-667,291	-161,617	-0,080	-0,003
-666,276	800,000	0,040	-0,113
-665,262	-94,779	-0,048	-0,010
-664,247	81,353	-0,085	-0,068
-663,232	-87,415	0,027	0,006
-662,218	-200,000	0,009	-0,043
-661,203	-78,564	0,150	0,038
-660,189	-51,335	-0,059	-0,020
-659,174	-80,028	-0,114	0,028
-658,159	800,000	-0,059	-0,125
-657,145	-200,000	0,004	0,094
-656,130	800,000	0,015	-0,044
-655,116	-200,000	0,012	0,055
-654,101	266,285	-0,055	0,071
-653,086	-200,000	0,024	0,132
-652,072	118,591	0,059	-0,054
-651,057	-31,914	-0,094	0,039
-650,043	-33,676	-0,055	0,022
-649,028	194,945	0,095	-0,107
-648,014	-110,060	0,081	-0,012
-646,999	148,868	0,021	-0,021
-645,984	422,121	-0,075	0,120
-644,970	-0,767	0,025	-0,013
-643,955	-71,132	-0,039	-0,011
-642,941	800,000	0,041	-0,108
-641,926	-87,571	0,097	0,022
-640,911	-56,807	0,063	-0,020
-639,897	174,373	-0,077	0,082
-638,882	-200,000	0,003	0,082
-637,868	-200,000	-0,011	0,066
-636,853	17,777	0,111	-0,065
-635,838	-59,679	-0,120	-0,038
-634,824	-200,000	-0,010	-0,096
-633,809	-63,221	0,104	0,032
-632,795	127,154	0,023	0,021
-631,780	-114,376	-0,104	-0,015
-630,765	62,314	-0,182	0,135
-629,751	94,607	-0,070	0,059
-628,736	800,000	-0,047	-0,134
-627,722	-200,000	0,019	0,083
-626,707	201,600	-0,052	0,059
-625,692	-103,819	0,075	-0,013
-624,678	414,321	-0,140	-0,221
-623,663	-200,000	0,004	0,072
-622,649	-174,235	-0,054	-0,001
-621,634	-200,000	-0,053	-0,202
-620,619	-140,033	-0,152	0,012
-619,605	-2,031	0,124	0,064
-618,590	800,000	-0,016	-0,039
-617,576	-200,000	0,015	-0,156
-616,561	-36,630	-0,030	-0,012
-615,546	-200,000	0,000	-0,072
-614,532	800,000	-0,066	-0,178
-613,517	388,613	0,008	0,012
-612,503	-154,445	0,123	-0,006
-611,488	36,281	0,033	-0,021
-610,474	-154,834	0,040	-0,002
-609,459	-20,769	-0,035	-0,016
-608,444	230,788	-0,130	-0,158
-607,430	-200,000	0,024	-0,101
-606,415	-200,000	-0,003	0,023
-605,401	-71,712	0,026	-0,007
-604,386	-200,000	-0,007	0,095
-603,371	306,233	-0,044	0,061
-602,357	-194,585	-0,064	0,000
-601,342	-200,000	0,026	-0,136
-600,328	-80,111	0,068	-0,017
-599,313	647,536	-0,062	-0,119
-598,298	71,944	-0,073	0,056
-597,284	75,512	-0,072	0,056
-596,269	800,000	0,021	0,045
-595,255	-200,000	-0,009	0,075
-594,240	161,024	-0,063	-0,066
-593,225	495,744	-0,036	-0,062
-592,211	427,199	-0,136	-0,217
-591,196	28,785	0,055	0,034
-590,182	-73,056	0,165	0,044
-589,167	226,047	-0,018	-0,022
-588,152	-200,000	-0,001	0,020
-587,138	34,649	-0,098	-0,063
-586,123	-200,000	0,003	0,070
-585,109	-200,000	-0,002	0,013
-584,094	-4,925	-0,073	0,037
-583,079	-72,067	-0,113	-0,031
-582,065	-200,000	0,023	0,085
-581,050	267,313	0,058	0,075
-580,036	4,667	0,097	0,053
-579,021	198,441	-0,052	0,059
-578,006	46,889	-0,127	-0,087
-576,992	219,120	-0,051	-0,060
-575,977	-90,813	0,189	0,040
-574,963	-200,000	-0,027	-0,175
-573,948	11,345	-0,123	-0,069
-572,934	-31,636	0,042	0,017
-571,919	-87,295	-0,090	-0,020
-570,904	800,000	-0,032	-0,083
-569,890	-200,000	0,002	-0,074
-568,875	677,953	0,040	-0,076
-567,861	113,048	-0,094	0,085
-566,846	800,000	-0,054	0,121
-565,831	-85,905	0,103	-0,023
-564,817	307,942	0,042	0,058
-563,802	718,928	-0,059	-0,116
-562,788	-114,735	0,142	0,020
-561,773	-71,443	0,066	0,018
-560,758	222,759	0,090	0,108
-559,744	388,867	0,059	-0,090
-558,729	-200,000	0,007	-0,155
-557,715	205,686	-0,033	0,038
-556,700	-107,033	-0,085	-0,014
-555,685	-194,886	0,027	0,000
-554,671	-200,000	0,003	0,026
-553,656	-200,000	0,000	0,104
-552,642	92,816	0,112	-0,093
-551,627	717,929	-0,006	0,013
-550,612	42,501	-0,073	-0,049
-549,598	134,063	-0,082	-0,079
-548,583	-200,000	-0,020	-0,081
-547,569	-200,000	-0,012	0,110
-546,554	-38,969	0,118	0,046
-545,539	75,488	-0,056	-0,044
-544,525	-200,000	0,014	0,106
-543,510	-78,860	-0,056	0,014
-542,496	800,000	0,023	-0,070
-541,481	380,016	-0,076	-0,115
-540,466	18,389	-0,103	0,061
-539,452	286,353	0,030	0,041
-538,437	800,000	-0,040	0,086
-537,423	-120,217	-0,073	0,009
-536,408	-200,000	0,000	0,004
-535,393	-200,000	0,040	-0,161
-534,379	-112,416	-0,067	0,010
-533,364	-31,614	0,131	-0,054
-532,350	800,000	-0,020	0,054
-531,335	31,050	0,044	-0,028
-530,321	34,162	-0,087	0,056
-529,306	-73,926	-0,024	-0,006
-528,291	41,882	-0,084	0,056
-527,277	-200,000	0,003	-0,081
-526,262	113,657	-0,033	0,029
-525,248	800,000	-0,056	0,124
-524,233	265,516	-0,035	0,045
-523,218	791,637	-0,051	0,103
-522,204	-115,985	0,110	-0,015
-521,189	-20,307	-0,050	-0,023
-520,175	-60,270	0,019	0,006
-519,160	229,648	-0,062	-0,075
-518,145	549,213	0,104	0,185
-517,131	-200,000	0,018	0,084
-516,116	-91,724	0,093	0,019
-515,102	77,673	0,040	0,032
-514,087	313,520	0,083	0,115
-513,072	2,748	-0,045	-0,024
-512,058	67,352	-0,078	0,059
-511,043	-200,000	-0,011	-0,041
-510,029	363,338	0,068	-0,101
-509,014	23,748	0,049	0,030
-507,999	155,321	-0,075	-0,077
-506,985	-200,000	0,002	-0,023
-505,970	115,829	0,071	0,064
-504,956	-200,000	0,003	-0,041
-503,941	-200,000	-0,021	0,130
-502,926	800,000	-0,028	-0,079
-501,912	22,520	0,066	0,040
-500,897	-125,149	0,058	0,007
-499,883	537,052	0,045	0,079
-498,868	-200,000	-0,001	-0,042
-497,853	263,918	-0,085	0,110
-496,839	230,278	0,045	0,055
-495,824	-114,113	-0,077	-0,011
-494,810	-116,173	0,153	0,021
-493,795	621,262	0,031	0,058
-492,781	-116,974	0,036	-0,005
-491,766	111,327	-0,084	-0,075
-490,751	800,000	0,021	-0,060
-489,737	-9,209	-0,050	-0,024
-488,722	137,600	0,039	0,038
-487,708	-200,000	-0,020	0,079
-486,693	800,000	0,069	0,167
-485,678	-81,769	-0,160	0,038
-484,664	-200,000	-0,058	-0,219
-483,649	35,157	0,086	-0,055
-482,635	-62,202	0,097	0,030
-481,620	307,358	0,044	-0,061
-480,605	75,735	-0,014	-0,011
-479,591	-200,000	0,020	-0,142
-478,576	-200,000	-0,016	-0,080
-477,562	-200,000	0,001	-0,093
-476,547	286,670	-0,005	0,007
-475,532	-200,000	0,023	-0,135
-474,518	37,350	0,022	-0,014
-473,503	-97,546	0,179	-0,034
-472,489	159,647	-0,055	0,056
-471,474	800,000	-0,070	0,195
-470,459	-200,000	0,004	-0,140
-469,445	-200,000	-0,037	-0,164
-468,430	50,039	-0,086	0,060
-467,416	-164,174	0,154	-0,005
-466,401	32,981	0,090	0,057
-465,386	74,902	-0,058	-0,045
-464,372	534,067	0,044	0,077
-463,357	-200,000	-0,005	0,117
-462,343	82,336	-0,077	-0,062
-461,328	800,000	-0,031	-0,081
-460,313	119,633	-0,043	0,039
-459,299	-10,901	0,055	0,026
-458,284	81,223	0,136	0,108
-457,270	-24,279	-0,068	-0,030
-456,255	-104,437	-0,114	0,019
-455,241	-87,337	0,082	0,018
-454,226	800,000	-0,081	-0,178
-453,211	-200,000	0,023	-0,204
-452,197	800,000	-0,041	-0,103
-451,182	-39,727	0,064	-0,024
-450,168	-59,704	0,108	0,034
-449,153	-200,000	0,002	-0,037
-448,138	-200,000	-0,010	-0,044
-447,124	180,340	-0,115	-0,124
-446,109	-200,000	0,011	-0,145
-445,095	-200,000	0,015	-0,076
-444,080	800,000	0,061	0,172
-443,065	-52,360	-0,036	0,012
-442,051	59,509	0,163	-0,118
-441,036	192,989	0,053	-0,059
-440,022	-200,000	-0,013	-0,151
-439,007	-200,000	-0,021	0,071
-437,992	-22,786	0,074	-0,033
-436,978	-105,480	0,151	-0,025
-435,963	599,754	0,020	0,037
-434,949	-158,381	0,025	-0,001
-433,934	429,894	-0,039	0,062
-432,919	-164,174	0,096	-0,003
-431,905	60,070	0,145	-0,105
-430,890	314,536	-0,053	-0,074
-429,876	800,000	0,051	-0,119
-428,861	11,223	-0,090	-0,050
-427,846	-111,205	-0,066	0,010
-426,832	-200,000	0,029	-0,128
-425,817	-200,000	0,029	-0,114
-424,803	-16,591	-0,072	-0,033
-423,788	-125,682	-0,111	-0,012
-422,773	-200,000	0,019	-0,132
-421,759	800,000	0,039	0,100
-420,744	-69,249	0,161	0,045
-419,730	212,016	-0,106	-0,123
-418,715	-60,454	0,057	-0,018
-417,701	-21,169	-0,017	0,007
-416,686	-84,180	0,047	-0,011
-415,671	800,000	-0,023	0,052
-414,657	-105,858	0,082	0,013
-413,642	800,000	0,045	0,119
-412,628	-16,531	-0,104	0,048
-411,613	-200,000	-0,002	0,052
-410,598	-183,501	-0,099	0,001
-409,584	800,000	0,020	-0,061
-408,569	-200,000	-0,004	-0,091
-407,555	-181,576	0,026	0,000
-406,540	8,214	0,045	-0,025
-405,525	1,156	0,053	-0,028
-404,511	-133,585	-0,066	-0,006
-403,496	-80,588	-0,185	-0,045
-402,482	470,457	-0,012	0,020
-401,467	-154,391	-0,028	-0,001
-400,452	-200,000	0,000	-0,053
-399,438	-57,206	-0,091	-0,029
-398,423	756,090	-0,028	0,056
-397,409	-90,218	-0,044	0,009
-396,394	171,464	0,057	-0,061
-395,379	786,902	-0,032	0,065
-394,365	-200,000	0,003	-0,011
-393,350	-200,000	-0,003	0,107
-392,336	81,590	0,069	0,054
-391,321	18,639	-0,156	0,092
-390,306	-200,000	0,000	-0,066
-389,292	37,119	-0,027	-0,017
-388,277	800,000	-0,023	0,073
-387,263	-43,006	0,033	-0,012
-386,248	-76,283	0,033	-0,008
-385,233	56,389	0,032	-0,023
-384,219	610,383	0,008	-0,014
-383,204	373,147	-0,060	0,090
-382,190	-200,000	-0,007	-0,057
-381,175	800,000	-0,019	0,046
-380,160	-119,926	0,066	0,008
-379,146	-142,858	0,187	0,013
-378,131	-200,000	0,033	0,151
-377,117	9,306	-0,076	-0,042
-376,102	35,415	-0,057	0,037
-375,088	19,454	-0,024	0,014
-374,073	-37,923	-0,071	0,028
-373,058	-200,000	0,008	0,142
-372,044	-200,000	-0,015	0,141
-371,029	-81,225	0,119	0,029
-370,015	-200,000	0,008	0,048
-369,000	171,700	-0,043	-0,045
-367,985	-200,000	-0,014	-0,075
-366,971	-4,255	-0,110	-0,055
-365,956	312,950	-0,038	-0,053
-364,942	-103,483	0,076	-0,013
-363,927	-96,148	-0,155	-0,030
-362,912	-200,000	0,001	0,094
-361,898	-200,000	-0,011	0,070
-360,883	-200,000	-0,021	-0,093
-359,869	158,111	0,057	-0,058
-358,854	-200,000	-0,009	0,041
-357,839	337,583	-0,033	-0,047
-356,825	-185,450	0,152	0,002
-355,810	-200,000	0,038	0,128
-354,796	-75,622	-0,196	-0,051
-353,781	394,346	0,126	0,193
-352,766	2,845	-0,061	-0,032
-351,752	-200,000	0,010	-0,107
-350,737	264,875	0,066	0,084
-349,723	-106,882	0,157	-0,025
-348,708	800,000	-0,050	0,139
-347,693	800,000	-0,033	0,082
-346,679	-11,782	0,105	0,050
-345,664	-97,719	-0,096	0,018
-344,650	-4,925	-0,046	0,023
-343,635	-53,394	0,130	0,043
-342,620	-200,000	0,010	0,118
-341,606	291,961	0,021	0,028
-340,591	-83,998	-0,152	0,035
-339,577	-41,993	0,086	-0,032
-338,562	37,667	-0,046	-0,030
-337,548	-200,000	-0,004	-0,038
-336,533	-200,000	0,028	0,095
-335,518	800,000	0,025	-0,062
-334,504	-200,000	0,019	-0,068
-333,489	45,863	0,118	-0,080
-332,475	400,890	-0,056	-0,087
-331,460	15,408	-0,048	-0,027
-330,445	-111,958	0,107	0,016
-329,431	-68,083	0,169	-0,048
-328,416	230,320	-0,044	0,053
-327,402	-200,000	0,002	0,018
-326,387	-171,106	0,109	0,003
-325,372	800,000	0,012	-0,034
-324,358	800,000	-0,008	-0,019
-323,343	365,416	-0,024	0,036
-322,329	-200,000	0,009	0,177
-321,314	-24,092	0,034	-0,015
-320,299	162,521	0,040	0,041
-319,285	-200,000	-0,007	0,147
-318,270	-200,000	-0,003	0,044
-317,256	167,942	0,019	-0,019
-316,241	-87,022	-0,226	0,050
-315,226	-10,743	-0,096	-0,046
-314,212	31,611	0,089	0,056
-313,197	-18,156	0,106	-0,049
-312,183	-52,831	0,034	-0,011
-311,168	584,716	-0,033	0,059
-310,153	-69,920	0,091	-0,025
-309,139	-138,938	-0,149	0,012
-308,124	404,679	0,011	0,018
-307,110	-43,782	0,057	0,021
-306,095	-17,996	0,126	0,058
-305,080	-200,000	-0,009	-0,070
-304,066	-72,035	-0,071	0,019
-303,051	-200,000	0,004	-0,031
-302,037	800,000	0,017	-0,049
-301,022	800,000	0,002	0,005
-300,008	21,357	0,215	-0,128
-298,993	-95,663	-0,023	-0,004
-297,978	110,150	0,023	0,020
-296,964	-200,000	-0,027	-0,089
-295,949	0,039	-0,079	0,041
-294,935	-55,099	-0,057	-0,019
-293,920	325,226	0,050	-0,069
-292,905	18,386	0,029	-0,017
-291,891	800,000	-0,034	0,084
-290,876	154,749	-0,020	-0,020
-289,862	-78,646	-0,144	-0,036
-288,847	46,072	-0,092	0,062
-287,832	-140,323	0,102	0,008
-286,818	278,942	0,053	-0,070
-285,803	800,000	0,040	0,084
-284,789	-200,000	0,002	0,127
-283,774	598,971	-0,009	-0,016
-282,759	158,975	0,051	0,052
-281,745	386,186	-0,053	0,080
-280,730	680,272	0,022	-0,043
-279,716	303,264	0,033	0,045
-278,701	127,597	0,062	0,058
-277,686	314,350	0,054	0,074
-276,672	710,685	0,075	0,145
-275,657	-200,000	-0,007	0,086
-274,643	216,427	0,062	-0,072
-273,628	800,000	-0,006	0,015
-272,613	30,147	0,033	-0,021
-271,599	800,000	-0,049	-0,104
-270,584	-200,000	-0,001	0,138
-269,570	-200,000	-0,006	0,118
-268,555	-200,000	-0,021	0,121
-267,540	63,704	-0,034	0,025
-266,526	-200,000	0,027	-0,181
-265,511	135,234	-0,214	0,203
-264,497	-49,686	0,031	0,011
-263,482	-15,466	-0,073	0,034
-262,467	-200,000	-0,026	0,166
-261,453	380,322	-0,056	0,084
-260,438	123,027	0,082	-0,075
-259,424	29,492	-0,045	-0,028
-258,409	-144,296	-0,054	0,004
-257,395	753,789	-0,036	-0,071
-256,380	-25,492	0,063	-0,027
-255,365	-88,257	0,099	0,022
-254,351	-178,742	-0,097	-0,002
-253,336	490,455	-0,044	-0,073
-252,322	-3,576	0,053	-0,027
-251,307	534,872	0,070	-0,121
-250,292	328,392	0,071	0,100
-249,278	-74,427	0,018	0,005
-248,263	-200,000	0,013	0,168
-247,249	342,807	-0,009	-0,013
-246,234	800,000	-0,031	0,097
-245,219	-200,000	0,004	-0,025
-244,205	116,927	-0,106	-0,095
-243,190	91,497	0,010	0,008
-242,176	-142,555	-0,057	0,004
-241,161	-86,122	0,078	0,017
-240,146	-200,000	-0,013	0,069
-239,132	-156,796	-0,035	0,002
-238,117	171,138	0,034	0,035
-237,103	800,000	-0,022	-0,065
-236,088	54,554	-0,148	-0,104
-235,073	457,411	-0,037	0,061
-234,059	-200,000	-0,037	0,151
-233,044	-200,000	0,002	-0,177
-232,030	210,224	-0,087	-0,099
-231,015	70,051	-0,064	0,048
-230,000	295,415	-0,100	-0,134
-228,986	-200,000	-0,021	-0,086
-227,971	-122,592	0,104	0,012
-226,957	-12,175	0,028	-0,013
-225,942	800,000	0,027	0,065
-224,927	-200,000	0,001	-0,063
-223,913	52,309	-0,111	0,077
-222,898	-60,540	0,085	-0,026
-221,884	-200,000	0,026	-0,096
-220,869	260,252	0,075	-0,095
-219,855	87,050	-0,019	-0,016
-218,840	-196,820	0,148	0,001
-217,825	-48,739	-0,059	-0,021
-216,811	-200,000	-0,013	0,067
-215,796	183,029	0,008	0,009
-214,782	-40,470	0,056	0,021
-213,767	-200,000	-0,007	-0,076
-212,752	59,422	0,053	-0,038
-211,738	-200,000	-0,004	0,084
-210,723	800,000	0,065	0,150
-209,709	800,000	0,022	0,054
-208,694	-85,614	0,098	-0,022
-207,679	-17,072	-0,081	-0,037
-206,665	-200,000	0,036	0,185
-205,650	166,508	0,089	0,092
-204,636	8,015	0,087	-0,048
-203,621	-200,000	0,001	-0,069
-202,606	-38,749	-0,030	-0,011
-201,592	-44,025	-0,030	-0,011
-200,577	-177,362	-0,169	0,003
-199,563	426,599	0,093	-0,147
-198,548	35,969	-0,046	0,029
-197,533	-200,000	0,014	0,072
-196,519	-67,293	0,092	0,026
-195,504	1,838	0,127	-0,067
-194,490	800,000	0,046	-0,114
-193,475	-34,361	-0,074	-0,029
-192,460	367,130	-0,029	0,043
-191,446	-90,291	-0,134	0,028
-190,431	800,000	0,039	0,106
-189,417	-200,000	-0,060	0,212
-188,402	91,513	-0,037	0,030
-187,387	86,927	-0,082	0,066
-186,373	-200,000	-0,010	0,098
-185,358	-124,386	0,083	-0,009
-184,344	38,444	-0,043	-0,028
-183,329	185,474	0,072	0,078
-182,315	-200,000	-0,008	0,029
-181,300	132,403	-0,069	-0,065
-180,285	800,000	0,067	-0,173
-179,271	236,132	-0,079	-0,095
-178,256	-133,348	0,144	0,013
-177,242	-108,070	0,030	-0,005
-176,227	42,437	0,055	0,037
-175,212	121,651	0,036	-0,033
-174,198	183,852	0,115	0,124
-173,183	-146,005	-0,061	-0,004
-172,169	-169,555	-0,072	0,002
-171,154	-92,551	0,052	0,011
-170,139	172,862	0,023	0,024
-169,125	-200,000	0,001	0,198
-168,110	267,944	0,076	0,098
-167,096	800,000	-0,032	-0,085
-166,081	17,768	-0,054	-0,031
-165,066	-200,000	-0,043	-0,151
-164,052	-153,080	0,100	-0,005
-163,037	360,737	-0,111	0,162
-162,023	-200,000	-0,005	0,064
-161,008	-101,140	-0,062	-0,011
-159,993	-200,000	-0,016	-0,093
-158,979	83,743	-0,058	-0,046
-157,964	-140,578	-0,129	-0,010
-156,950	151,114	-0,037	0,037
-155,935	-71,935	0,093	0,025
-154,920	800,000	-0,020	-0,057
-153,906	110,341	-0,121	0,106
-152,891	-134,302	0,092	0,008
-151,877	297,370	-0,043	-0,058
-150,862	-200,000	-0,032	0,104
-149,847	168,355	-0,075	-0,078
-148,833	41,567	0,147	0,096
-147,818	800,000	0,082	0,165
-146,804	-200,000	0,013	0,053
-145,789	-200,000	-0,027	0,097
-144,775	435,009	0,064	-0,102
-143,760	64,784	-0,061	-0,045
-142,745	294,638	-0,030	-0,040
-141,731	-55,802	0,027	0,009
-140,716	164,035	-0,077	0,079
-139,702	-200,000	-0,009	-0,092
-138,687	-200,000	-0,002	0,019
-137,672	-149,191	0,116	0,007
-136,658	6,444	0,104	-0,056
-135,643	22,550	0,094	0,056
-134,629	-78,285	-0,026	0,007
-133,614	134,318	0,090	0,084
-132,599	-127,908	0,065	-0,007
-131,585	91,339	0,017	-0,014
-130,570	-103,630	0,079	-0,013
-129,556	-2,731	-0,059	-0,030
-128,541	17,354	-0,068	-0,039
-127,526	-200,000	0,012	-0,097
-126,512	-30,124	0,138	-0,057
-125,497	800,000	-0,011	-0,022
-124,483	800,000	-0,053	0,113
-123,468	-200,000	0,009	0,131
-122,453	-200,000	-0,009	0,036
-121,439	7,582	-0,137	0,074
-120,424	800,000	0,036	0,077
-119,410	800,000	0,049	0,110
-118,395	-200,000	-0,003	-0,044
-117,380	-200,000	0,014	0,098
-116,366	-144,000	-0,134	-0,009
-115,351	-200,000	0,024	0,078
-114,337	316,626	-0,012	-0,016
-113,322	-200,000	0,017	-0,077
-112,307	783,759	0,030	-0,061
-111,293	289,343	-0,020	-0,027
-110,278	-79,565	-0,061	0,015
-109,264	-41,215	0,086	-0,032
-108,249	24,564	-0,050	0,030
-107,234	-180,143	0,068	0,001
-106,220	-61,869	-0,037	0,011
-105,205	800,000	0,025	0,068
-104,191	240,421	0,046	0,056
-103,176	-61,798	0,139	0,042
-102,162	237,964	-0,055	0,067
-101,147	696,206	-0,090	0,172
-100,132	800,000	0,015	0,047
-99,118	800,000	-0,052	-0,149
-98,103	671,443	0,012	0,023
-97,089	14,241	-0,064	-0,036
-96,074	-87,760	-0,108	-0,023
-95,059	-200,000	0,000	-0,045
-94,045	-35,877	0,150	-0,059
-93,030	7,526	0,063	0,034
-92,016	-6,201	-0,064	-0,032
-91,001	-200,000	0,006	-0,067
-89,986	800,000	-0,033	0,091
-88,972	-91,269	-0,095	0,019
-87,957	216,689	0,050	0,057
-86,943	-200,000	-0,038	0,135
-85,928	339,629	-0,082	-0,116
-84,913	510,602	-0,060	0,102
-83,899	-200,000	0,000	-0,028
-82,884	-30,907	0,008	0,003
-81,870	-200,000	-0,029	-0,116
-80,855	800,000	0,017	0,050
-79,840	-121,178	-0,092	-0,011
-78,826	800,000	0,015	0,036
-77,811	317,802	-0,102	-0,140
-76,797	71,488	-0,015	-0,011
-75,782	-106,410	-0,137	-0,022
-74,767	-200,000	0,003	0,079
-73,753	578,032	0,014	0,024
-72,738	-101,171	-0,174	-0,031
-71,724	-200,000	0,018	-0,067
-70,709	452,095	0,011	0,018
-69,694	-79,694	0,158	0,038
-68,680	-137,103	-0,235	-0,019
-67,665	124,382	-0,079	0,072
-66,651	460,231	0,111	0,181
-65,636	-81,126	-0,217	-0,052
-64,622	-200,000	-0,006	-0,046
-63,607	-200,000	0,006	-0,031
-62,592	-7,875	-0,051	-0,025
-61,578	-106,106	-0,097	0,016
-60,563	-200,000	0,003	0,182
-59,549	-200,000	-0,007	0,190
-58,534	-170,125	-1,277	-0,032
-57,519	488,121	-0,904	-1,501
-56,505	-200,000	-0,842	-4,207
-55,490	35,625	0,587	-0,373
-54,476	800,000	4,812	11,530
-53,461	-200,000	13,371	250,554
-52,446	-200,000	686,054	2257,718
-51,432	601,169	1617,726	2923,982
-50,417	120,867	1632,173	1470,814
-49,403	74,760	1287,302	980,703
-48,388	38,643	1022,742	659,816
-47,373	24,610	980,578	586,614
-46,359	23,876	970,238	578,006
-45,344	22,899	965,842	572,181
-44,330	22,852	964,393	571,147
-43,315	22,624	963,296	569,733
-42,300	22,627	962,286	569,125
-41,286	22,665	961,164	568,561
-40,271	22,656	960,273	567,983
-39,257	22,664	959,496	567,528
-38,242	22,643	958,361	566,763
-37,227	22,599	957,573	566,133
-36,213	22,625	956,683	565,669
-35,198	22,553	955,879	564,938
-34,184	22,660	955,178	564,847
-33,169	22,618	954,212	564,119
-32,154	22,682	953,378	563,809
-31,140	22,689	952,388	563,225
-30,125	22,687	951,833	562,866
-29,111	22,701	950,906	562,341
-28,096	22,675	950,153	561,790
-27,082	22,725	949,442	561,506
-26,067	22,674	948,734	560,903
-25,052	22,662	947,999	560,408
-24,038	22,665	947,329	559,999
-23,023	22,623	946,887	559,583
-22,009	22,679	945,996	559,212
-20,994	22,682	945,462	558,883
-19,979	22,716	944,731	558,536
-18,965	22,680	944,341	558,170
-17,950	22,593	943,629	557,450
-16,936	22,594	942,968	557,040
-15,921	22,621	942,061	556,569
-14,906	22,589	941,381	556,045
-13,892	22,594	940,977	555,797
-12,877	22,557	940,223	555,212
-11,863	22,454	939,868	554,656
-10,848	22,554	938,944	554,403
-9,833	22,599	938,787	554,433
-8,819	22,642	937,989	554,076
-7,804	22,558	937,326	553,397
-6,790	22,562	936,585	552,948
-5,775	22,603	936,207	552,833
-4,760	22,573	935,721	552,430
-3,746	22,508	934,969	551,760
-2,731	22,396	934,413	551,056
-1,717	22,339	933,654	550,407
-0,702	22,418	932,813	550,140
0,313	22,194	932,209	549,909
1,327	24,785	929,585	556,431
2,342	32,637	808,478	505,167
3,356	28,321	508,351	310,272
4,371	4,322	372,481	196,991
5,386	1,355	355,260	184,248
6,400	-0,132	349,073	179,239
7,415	-1,225	346,161	176,428
8,429	-1,511	344,756	175,356
9,444	-1,485	343,755	174,862
10,459	-1,521	343,106	174,474
11,473	-1,412	342,338	174,197
12,488	-1,153	342,039	174,334
13,502	-1,238	341,531	173,960
14,517	-1,232	340,784	173,570
15,531	-1,616	340,224	172,821
16,546	-1,675	339,842	172,542
17,561	-1,663	339,266	172,249
18,575	-1,640	339,083	172,167
19,590	-1,672	338,391	171,763
20,604	-1,504	338,143	171,816
21,619	-1,815	337,958	171,346
22,634	-1,657	337,413	171,238
23,648	-1,653	337,200	171,120
24,663	-1,598	336,909	171,020
25,677	-1,677	336,569	170,740
26,692	-1,584	336,202	170,646
27,707	-1,705	335,997	170,388
28,721	-1,737	335,629	170,149
29,736	-1,755	335,230	169,910
30,750	-1,638	335,043	169,935
31,765	-1,660	334,742	169,743
32,780	-1,660	334,456	169,582
33,794	-1,538	334,231	169,593
34,809	-1,674	333,854	169,231
35,823	-1,656	333,546	169,079
36,838	-1,688	333,381	168,945
37,853	-1,632	332,933	168,767
38,867	-1,729	332,699	168,522
39,882	-1,658	332,475	168,475
40,896	-1,820	332,177	168,125
41,911	-1,779	332,060	168,097
42,926	-1,760	331,647	167,894
43,940	-1,821	331,354	167,661
44,955	-1,860	331,187	167,518
45,969	-1,982	330,795	167,166
46,984	-2,020	330,607	167,013
47,999	-2,252	330,294	166,577
49,013	-2,227	329,995	166,440
50,028	-2,270	329,674	166,215
51,042	-2,513	329,262	165,717
52,057	-2,396	328,958	165,682
53,071	-2,287	328,832	165,727
54,086	-2,310	328,566	165,552
55,101	-2,292	328,403	165,475
56,115	-2,076	328,097	165,549
57,130	-1,572	328,157	166,132
58,144	-1,578	327,971	166,015
59,159	-1,413	327,645	166,021
60,174	-1,466	327,453	165,849
61,188	-1,618	327,149	165,511
62,203	-1,640	326,942	165,366
63,217	-1,618	326,632	165,220
64,232	-1,499	326,282	165,161
65,247	-1,475	326,236	165,150
66,261	-1,541	325,948	164,915
67,276	-1,796	325,547	164,413
68,290	-1,890	325,265	164,152
69,305	-1,992	325,028	163,904
70,320	-1,827	324,690	163,902
71,334	-1,769	324,517	163,865
72,349	-1,545	324,241	163,960
73,363	-1,411	324,168	164,056
74,378	-1,474	323,913	163,843
75,393	-1,510	323,588	163,624
76,407	-1,614	323,324	163,361
77,422	-1,619	323,081	163,218
78,436	-1,591	323,025	163,205
79,451	-1,533	322,539	163,010
80,466	-1,712	322,346	162,700
81,480	-1,770	321,936	162,415
82,495	-2,015	321,711	162,018
83,509	-1,948	321,542	161,992
84,524	-1,867	321,109	161,848
85,539	-1,964	320,815	161,579
86,553	-1,947	320,663	161,507
87,568	-1,836	320,464	161,514
88,582	-1,956	320,326	161,299
89,597	-1,884	320,075	161,236
90,611	-1,755	319,869	161,260
91,626	-1,743	319,721	161,184
92,641	-1,709	319,509	161,099
93,655	-1,830	319,172	160,784
94,670	-1,734	318,990	160,782
95,684	-1,823	318,797	160,573
96,699	-1,729	318,423	160,473
97,714	-1,866	318,216	160,205
98,728	-1,856	317,897	160,041
99,743	-2,016	317,648	159,728
100,757	-1,851	317,368	159,752
101,772	-2,106	317,246	159,400
102,787	-2,035	317,044	159,361
103,801	-1,767	316,900	159,565
104,816	-1,765	316,777	159,490
105,830	-1,660	316,501	159,451
106,845	-1,474	316,200	159,486
107,860	-1,439	315,910	159,363
108,874	-1,575	315,800	159,146
109,889	-1,862	315,630	158,738
110,903	-1,823	315,317	158,607
111,918	-1,790	314,998	158,469
112,933	-1,672	314,802	158,483
113,947	-1,644	314,505	158,349
114,962	-1,677	314,503	158,299
115,976	-1,710	314,283	158,138
116,991	-1,728	313,914	157,919
118,006	-1,674	313,744	157,877
119,020	-1,693	313,688	157,815
120,035	-1,533	313,434	157,844
121,049	-1,558	313,249	157,710
122,064	-1,538	313,068	157,626
123,079	-1,654	312,807	157,358
124,093	-1,776	312,479	157,048
125,108	-1,841	312,195	156,822
126,122	-2,043	311,836	156,413
127,137	-2,256	311,547	156,029
128,151	-2,047	311,403	156,164
129,166	-2,062	311,197	156,031
130,181	-1,887	311,085	156,147
131,195	-1,767	310,717	156,075
132,210	-1,814	310,430	155,867
133,224	-1,609	310,285	155,996
134,239	-1,636	310,120	155,871
135,254	-1,665	310,095	155,814
136,268	-1,742	309,809	155,575
137,283	-2,024	309,395	155,056
138,297	-2,229	309,248	154,753
139,312	-1,969	309,012	154,895
140,327	-1,616	308,900	155,196
141,341	-1,442	308,677	155,253
142,356	-1,263	308,699	155,438
143,370	-1,350	308,503	155,234
144,385	-1,430	308,249	155,009
145,400	-1,485	307,993	154,808
146,414	-1,282	307,738	154,879
147,429	-1,038	307,475	154,988
148,443	-1,320	307,476	154,679
149,458	-1,330	307,316	154,574
150,473	-1,301	306,950	154,407
151,487	-1,420	306,724	154,156
152,502	-1,353	306,513	154,106
153,516	-1,371	306,293	153,963
154,531	-1,247	306,041	153,950
155,546	-1,398	305,939	153,729
156,560	-1,351	305,497	153,542
157,575	-1,646	305,469	153,208
158,589	-1,476	305,216	153,244
159,604	-1,389	304,981	153,202
160,619	-1,374	304,798	153,112
161,633	-1,383	304,564	152,972
162,648	-1,353	304,265	152,839
163,662	-1,287	304,168	152,845
164,677	-1,358	304,013	152,680
165,692	-1,277	303,866	152,676
166,706	-1,461	303,707	152,393
167,721	-1,478	303,514	152,265
168,735	-1,417	303,251	152,182
169,750	-1,273	303,175	152,278
170,764	-1,105	302,865	152,282
171,779	-1,022	302,819	152,331
172,794	-1,303	302,712	151,975
173,808	-1,369	302,271	151,672
174,823	-1,627	302,025	151,271
175,837	-1,740	301,533	150,896
176,852	-1,557	301,765	151,186
177,867	-1,249	301,533	151,370
178,881	-1,179	301,387	151,356
179,896	-1,291	301,311	151,189
180,910	-1,065	300,824	151,161
181,925	-1,308	300,820	150,898
182,940	-1,131	300,574	150,942
183,954	-1,110	300,339	150,832
184,969	-1,252	300,081	150,544
185,983	-1,260	300,007	150,486
186,998	-1,409	299,745	150,189
188,013	-1,312	299,515	150,159
189,027	-1,303	299,410	150,102
190,042	-1,241	299,133	150,014
191,056	-1,107	298,874	150,005
192,071	-1,034	298,771	150,014
193,086	-1,114	298,742	149,905
194,100	-0,977	298,443	149,880
195,115	-1,139	298,154	149,558
196,129	-1,093	297,899	149,464
197,144	-1,050	297,797	149,442
198,159	-0,998	297,565	149,364
199,173	-0,873	297,270	149,330
200,188	-1,008	297,268	149,179
201,202	-1,328	296,927	148,673
202,217	-1,766	296,532	148,023
203,232	-1,739	296,121	147,832
204,246	-1,371	296,126	148,190
205,261	-1,099	295,943	148,357
206,275	-1,163	295,849	148,232
207,290	-1,158	295,681	148,140
208,304	-1,221	295,543	147,995
209,319	-1,002	295,162	148,009
210,334	-1,289	295,207	147,732
211,348	-1,312	294,892	147,538
212,363	-1,209	294,802	147,583
213,377	-1,054	294,460	147,553
214,392	-1,124	294,275	147,377
215,407	-1,204	294,070	147,182
216,421	-1,518	293,648	146,646
217,436	-1,542	293,574	146,573
218,450	-1,409	293,575	146,692
219,465	-1,202	293,299	146,746
220,480	-1,214	293,265	146,704
221,494	-1,184	293,001	146,589
222,509	-1,306	292,588	146,248
223,523	-1,212	292,808	146,438
224,538	-1,015	292,510	146,470
225,553	-1,127	292,339	146,261
226,567	-1,047	292,235	146,275
227,582	-1,008	291,875	146,120
228,596	-0,875	291,795	146,197
229,611	-1,018	291,725	146,009
230,626	-0,801	291,259	145,976
231,640	-1,493	291,064	145,186
232,655	-1,845	290,607	144,600
233,669	-1,897	290,459	144,462
234,684	-2,067	290,333	144,220
235,699	-1,755	290,002	144,348
236,713	-1,722	290,072	144,403
237,728	-1,584	289,894	144,436
238,742	-1,318	289,626	144,549
239,757	-1,101	289,594	144,732
240,772	-1,109	289,410	144,620
241,786	-1,270	289,306	144,397
242,801	-1,328	288,937	144,144
243,815	-1,482	288,785	143,905
244,830	-1,206	288,573	144,056
245,844	-1,450	288,409	143,724
246,859	-1,503	288,142	143,526
247,874	-1,464	288,061	143,511
248,888	-1,507	287,876	143,364
249,903	-1,248	287,816	143,573
250,917	-1,201	287,657	143,526
251,932	-0,822	287,540	143,822
252,947	-0,006	287,520	144,589
253,961	0,082	287,407	144,604
254,976	0,809	287,643	145,413
255,990	2,692	288,202	147,506
257,005	3,058	288,168	147,830
258,020	3,983	288,523	148,893
259,034	4,233	288,388	149,053
260,049	4,232	288,169	148,926
261,063	4,055	287,886	148,596
262,078	4,236	287,875	148,751
263,093	4,873	287,802	149,314
264,107	4,763	287,676	149,129
265,122	4,800	287,609	149,117
266,136	4,982	287,347	149,143
267,151	4,945	287,072	148,951
268,166	4,770	286,892	148,677
269,180	4,586	286,721	148,398
270,195	4,670	286,450	148,326
271,209	4,620	286,269	148,170
272,224	4,623	286,189	148,118
273,239	4,510	285,742	147,766
274,253	4,521	285,806	147,797
275,268	5,014	285,718	148,209
276,282	4,930	285,600	148,054
277,297	4,825	285,304	147,787
278,312	5,004	285,146	147,863
279,326	4,883	284,907	147,611
280,341	4,616	284,689	147,230
281,355	4,627	284,508	147,134
282,370	4,580	284,403	147,022
283,384	4,323	284,185	146,652
284,399	4,582	283,982	146,780
285,414	4,821	283,752	146,875
286,428	4,500	283,568	146,463
287,443	4,403	283,274	146,206
288,457	4,275	283,085	145,974
289,472	4,446	282,814	145,983
290,487	4,243	282,809	145,776
291,501	4,313	282,416	145,626
292,516	4,086	282,244	145,310
293,530	4,242	282,029	145,333
294,545	4,251	282,082	145,356
295,560	4,515	281,817	145,456
296,574	4,164	281,693	145,048
297,589	4,358	281,547	145,142
298,603	4,661	281,455	145,367
299,618	4,889	281,195	145,434
300,633	4,530	281,088	145,029
301,647	4,376	280,831	144,738
302,662	4,522	280,701	144,796
303,676	4,391	280,362	144,485
304,691	4,211	280,112	144,175
305,706	3,960	279,883	143,810
306,720	3,977	279,637	143,686
307,735	4,049	279,585	143,714
308,749	4,240	279,599	143,886
309,764	4,077	279,381	143,609
310,779	4,001	279,139	143,401
311,793	3,886	278,793	143,103
312,808	4,159	278,589	143,240
313,822	4,226	278,485	143,236
314,837	3,964	278,292	142,881
315,852	3,976	277,958	142,708
316,866	4,001	277,962	142,720
317,881	4,063	277,774	142,669
318,895	4,101	277,627	142,615
319,910	3,933	277,332	142,296
320,925	3,824	277,089	142,058
321,939	4,025	276,978	142,174
322,954	4,059	276,920	142,162
323,968	4,190	276,756	142,186
324,983	4,223	276,691	142,171
325,997	4,351	276,438	142,147
327,012	4,206	276,467	142,015
328,027	4,193	276,245	141,877
329,041	4,255	276,006	141,798
330,056	4,315	275,865	141,768
331,070	4,161	275,556	141,455
332,085	4,315	275,269	141,436
333,100	4,101	275,280	141,233
334,114	4,242	275,009	141,211
335,129	3,994	274,807	140,867
336,143	4,314	274,756	141,122
337,158	4,551	274,674	141,283
338,173	4,475	274,441	141,081
339,187	4,274	274,067	140,693
340,202	4,265	274,049	140,663
341,216	4,378	273,898	140,677
342,231	4,296	273,659	140,467
343,246	4,312	273,548	140,411
344,260	4,139	273,466	140,199
345,275	4,370	273,338	140,332
346,289	4,572	273,138	140,400
347,304	4,679	272,977	140,402
348,319	4,281	272,768	139,920
349,333	4,191	272,535	139,707
350,348	4,756	272,326	140,099
351,362	4,801	272,103	140,013
352,377	4,525	272,158	139,778
353,392	4,586	271,987	139,734
354,406	4,497	271,988	139,641
355,421	191,557	1331,268	1409,295
356,435	154,745	1460,416	1409,416
