DTS Sentinel unit serial number:	SN410029Multiplexer serial number:	ORYXHardware model number:	OX2-SRSoftware version number:	ORYX F/W v4,00 Oryx Data Collector v3.7.2.0data status	okinstallation	B4 Nyhavnadifferential loss correction	single-endedforward channel	channel 2reverse channel	N/Adate	2023/12/19time	00:15:13forward acquisition time	300,00reverse acquisition time	0,00gamma	499,1914k internal	0,3122k external	0,3122temperature offset calibration	1,0000default loss term (dB/km)	0,3820temperature slope calibration	1,0000multiplexer offset coefficient	1,0000multiplexer slope coefficient	1,0000fibre end	0,00T internal ref (°C)	22,18T ext. ref 1 (°C)	6,93T ext. ref 2 (°C)	6,97length (m)	temperature (°C)	Stokes	anti-Stokes-744,400	799,637	-0,036	-0,075
-743,385	-120,786	-0,241	0,030
-742,371	69,060	0,136	-0,104
-741,356	-50,972	-0,192	0,067
-740,342	-16,531	0,164	-0,077
-739,327	173,090	-0,252	0,271
-738,312	64,494	-0,093	-0,069
-737,298	-18,875	-0,147	0,068
-736,283	-200,000	0,004	0,107
-735,269	-156,097	-0,296	-0,014
-734,254	290,595	0,041	-0,056
-733,239	-59,756	-0,345	-0,109
-732,225	-180,146	0,013	-0,000
-731,210	800,000	-0,053	0,111
-730,196	153,797	0,062	-0,063
-729,181	323,926	-0,064	0,091
-728,167	-27,140	0,076	-0,033
-727,152	-200,000	-0,001	-0,012
-726,137	75,207	-0,114	-0,089
-725,123	73,205	-0,107	-0,083
-724,108	-200,000	-0,004	-0,043
-723,094	-89,821	-0,048	-0,010
-722,079	430,933	-0,038	-0,061
-721,064	-130,711	-0,117	0,012
-720,050	-144,185	-0,063	-0,004
-719,035	800,000	-0,031	0,076
-718,021	-138,559	-0,092	-0,007
-717,006	-200,000	-0,023	-0,184
-715,991	50,641	-0,051	-0,036
-714,977	357,358	0,084	0,126
-713,962	0,447	-0,084	-0,044
-712,948	261,114	0,118	0,152
-711,933	-200,000	-0,007	0,057
-710,918	800,000	-0,069	-0,179
-709,904	380,364	-0,096	0,147
-708,889	48,469	-0,062	0,043
-707,875	-200,000	-0,003	0,018
-706,860	-103,487	-0,132	0,023
-705,845	93,708	0,088	-0,075
-704,831	24,813	-0,086	-0,053
-703,816	-200,000	-0,031	0,127
-702,802	42,701	-0,101	0,068
-701,787	-15,958	-0,066	0,031
-700,772	-0,876	-0,093	-0,049
-699,758	98,871	0,018	0,016
-698,743	-200,000	0,180	0,000
-697,729	-31,727	-0,069	-0,029
-696,714	191,461	0,058	-0,065
-695,699	108,527	-0,109	-0,097
-694,685	-46,349	-0,080	-0,029
-693,670	-200,000	0,003	-0,148
-692,656	77,844	-0,038	-0,030
-691,641	789,813	0,005	0,010
-690,627	-200,000	0,007	0,024
-689,612	800,000	0,066	0,142
-688,597	-107,700	-0,057	0,009
-687,583	-104,416	-0,189	0,032
-686,568	-124,336	-0,055	-0,006
-685,554	-200,000	0,008	-0,234
-684,539	-200,000	0,038	0,132
-683,524	210,938	-0,017	-0,020
-682,510	435,304	0,050	0,082
-681,495	-200,000	0,006	-0,048
-680,481	-105,728	0,078	0,013
-679,466	-12,746	-0,077	0,037
-678,451	322,404	-0,095	0,134
-677,437	-200,000	0,023	0,095
-676,422	49,892	-0,024	-0,017
-675,408	800,000	-0,058	-0,133
-674,393	61,192	0,081	-0,059
-673,378	-140,632	-0,124	0,009
-672,364	-85,908	-0,133	0,030
-671,349	53,679	-0,043	-0,031
-670,335	86,725	-0,077	0,064
-669,320	-200,000	0,019	0,194
-668,305	-200,000	0,036	0,118
-667,291	403,893	0,016	0,025
-666,276	-200,000	-0,002	-0,099
-665,262	-153,779	-0,039	-0,002
-664,247	100,850	0,005	0,004
-663,232	-72,650	0,026	0,007
-662,218	169,594	-0,052	-0,055
-661,203	490,317	0,072	-0,122
-660,189	152,213	-0,118	-0,120
-659,174	10,790	-0,069	0,039
-658,159	-77,404	-0,096	0,025
-657,145	-200,000	-0,022	-0,218
-656,130	-123,010	0,039	0,005
-655,116	59,518	0,034	0,025
-654,101	143,014	-0,087	0,086
-653,086	-103,832	0,079	0,014
-652,072	-200,000	-0,012	0,134
-651,057	98,507	-0,148	-0,127
-650,043	-200,000	0,003	0,111
-649,028	-128,458	0,120	0,013
-648,014	23,186	-0,137	-0,084
-646,999	238,804	0,035	0,043
-645,984	56,055	-0,066	0,047
-644,970	365,029	0,103	-0,154
-643,955	800,000	0,035	-0,108
-642,941	67,028	-0,075	0,057
-641,926	-72,522	0,163	-0,044
-640,911	125,680	-0,080	-0,075
-639,897	-200,000	-0,039	0,162
-638,882	27,996	0,134	0,084
-637,868	-150,283	-0,135	-0,008
-636,853	252,617	-0,058	0,074
-635,838	122,429	0,049	-0,046
-634,824	-20,433	-0,094	0,043
-633,809	-173,795	0,037	0,001
-632,795	-51,070	0,163	-0,056
-631,780	539,791	0,025	0,044
-630,765	-200,000	-0,025	0,122
-629,751	-200,000	0,081	-0,271
-628,736	-33,316	-0,066	-0,027
-627,722	382,678	-0,053	0,081
-626,707	60,494	0,076	-0,056
-625,692	-137,584	0,142	0,012
-624,678	-34,321	-0,186	-0,075
-623,663	-101,927	-0,031	-0,005
-622,649	-200,000	-0,010	-0,120
-621,634	-127,749	0,134	0,014
-620,619	95,666	-0,066	0,056
-619,605	37,929	-0,112	0,074
-618,590	-4,584	0,114	-0,058
-617,576	2,953	-0,010	-0,005
-616,561	-65,574	0,125	0,037
-615,546	-200,000	0,015	0,056
-614,532	169,545	-0,111	-0,117
-613,517	800,000	-0,022	-0,056
-612,503	-200,000	-0,015	0,100
-611,488	266,732	-0,031	-0,041
-610,474	-200,000	-0,013	-0,121
-609,459	-160,401	0,081	0,003
-608,444	-153,625	-0,174	-0,009
-607,430	191,481	0,046	0,052
-606,415	-120,195	-0,073	-0,009
-605,401	713,153	0,047	-0,092
-604,386	-200,000	-0,012	-0,086
-603,371	-98,346	0,070	-0,013
-602,357	-27,702	-0,070	-0,030
-601,342	-200,000	-0,013	-0,045
-600,328	-118,102	-0,091	-0,012
-599,313	800,000	-0,027	0,062
-598,298	43,984	0,103	-0,070
-597,284	800,000	-0,027	0,070
-596,269	352,979	0,057	0,084
-595,255	-200,000	0,042	0,144
-594,240	219,695	0,065	-0,077
-593,225	-200,000	-0,039	-0,135
-592,211	-22,627	-0,062	-0,028
-591,196	-200,000	-0,009	0,126
-590,182	-200,000	0,009	-0,087
-589,167	-41,753	-0,100	-0,038
-588,152	71,184	-0,064	0,049
-587,138	800,000	0,029	-0,068
-586,123	118,495	-0,045	-0,041
-585,109	-190,475	-0,115	0,001
-584,094	641,978	-0,038	-0,072
-583,079	-31,251	0,138	0,057
-582,065	193,663	0,010	0,011
-581,050	-51,754	-0,064	-0,022
-580,036	-200,000	-0,017	0,076
-579,021	-200,000	0,022	-0,093
-578,006	-200,000	0,012	-0,182
-576,992	-63,701	0,145	0,044
-575,977	-3,321	-0,068	-0,035
-574,963	2,887	0,036	0,019
-573,948	800,000	0,023	-0,049
-572,934	780,613	-0,077	-0,156
-571,919	-200,000	-0,003	-0,126
-570,904	-200,000	0,015	-0,087
-569,890	-200,000	0,065	0,241
-568,875	383,519	-0,043	0,066
-567,861	-4,412	0,135	-0,069
-566,846	178,498	-0,098	0,106
-565,831	363,805	0,067	0,100
-564,817	53,323	-0,085	-0,060
-563,802	568,896	0,052	-0,095
-562,788	-200,000	-0,018	-0,177
-561,773	-200,000	-0,008	-0,079
-560,758	739,401	-0,020	0,039
-559,744	-39,526	0,169	0,065
-558,729	210,410	0,067	-0,078
-557,715	-7,746	-0,077	0,038
-556,700	-129,816	-0,098	0,010
-555,685	36,719	0,023	-0,015
-554,671	-55,357	0,135	0,044
-553,656	-30,586	0,056	0,023
-552,642	-200,000	-0,005	-0,066
-551,627	-200,000	0,033	0,115
-550,612	-200,000	0,020	-0,067
-549,598	695,618	-0,082	-0,159
-548,583	-173,472	0,051	0,001
-547,569	18,157	0,029	0,017
-546,554	-45,495	0,035	-0,013
-545,539	-147,154	-0,131	0,008
-544,525	87,427	0,041	0,034
-543,510	-200,000	0,001	-0,030
-542,496	-200,000	-0,022	-0,118
-541,481	-3,584	0,032	-0,016
-540,466	-200,000	0,020	0,067
-539,452	32,517	-0,054	0,034
-538,437	-61,070	0,119	0,037
-537,423	108,144	0,109	0,096
-536,408	-197,065	0,156	-0,001
-535,393	-200,000	-0,006	0,023
-534,379	-171,578	-0,071	-0,002
-533,364	53,425	-0,031	-0,022
-532,350	202,264	0,126	0,144
-531,335	148,223	-0,043	0,043
-530,321	674,197	0,017	0,034
-529,306	800,000	-0,034	0,100
-528,291	632,182	0,065	0,122
-527,277	-55,219	0,093	-0,031
-526,262	-200,000	0,010	0,081
-525,248	163,665	-0,059	0,061
-524,233	-137,012	0,071	-0,006
-523,218	533,500	0,051	0,089
-522,204	77,352	-0,081	-0,064
-521,189	98,663	-0,103	-0,088
-520,175	-200,000	0,008	-0,070
-519,160	-200,000	0,006	-0,038
-518,145	-146,454	-0,138	0,009
-517,131	-70,939	-0,006	0,002
-516,116	577,728	-0,015	-0,027
-515,102	-150,875	0,051	-0,003
-514,087	31,085	0,135	-0,086
-513,072	-31,069	-0,131	-0,055
-512,058	-200,000	0,004	-0,117
-511,043	-200,000	-0,029	-0,108
-510,029	-18,132	0,093	0,043
-509,014	165,471	-0,039	0,041
-507,999	-200,000	-0,006	0,039
-506,985	-163,043	0,089	-0,003
-505,970	95,671	0,067	-0,057
-504,956	-200,000	0,031	-0,123
-503,941	473,710	0,047	0,079
-502,926	800,000	-0,026	-0,077
-501,912	135,337	0,075	0,072
-500,897	390,663	0,036	-0,055
-499,883	-200,000	-0,055	0,000
-498,868	-200,000	-0,035	-0,113
-497,853	800,000	-0,015	-0,042
-496,839	71,439	-0,060	-0,046
-495,824	-200,000	0,058	0,195
-494,810	226,876	-0,102	0,122
-493,795	95,942	0,036	0,030
-492,781	-200,000	-0,029	-0,168
-491,766	-74,407	-0,103	-0,027
-490,751	-200,000	-0,007	-0,038
-489,737	-68,456	0,047	0,013
-488,722	-104,678	-0,053	0,009
-487,708	440,546	-0,043	-0,070
-486,693	100,671	-0,066	-0,057
-485,678	800,000	0,017	-0,041
-484,664	-200,000	-0,020	-0,151
-483,649	130,135	0,033	-0,031
-482,635	29,941	0,033	-0,021
-481,620	-200,000	-0,001	-0,012
-480,605	51,018	0,044	0,031
-479,591	86,234	0,024	0,019
-478,576	-174,887	0,139	0,003
-477,562	800,000	-0,008	-0,019
-476,547	797,069	0,063	-0,129
-475,532	682,734	-0,019	0,036
-474,518	-200,000	-0,006	0,047
-473,503	-78,609	0,067	0,017
-472,489	800,000	-0,043	-0,111
-471,474	220,407	-0,060	-0,071
-470,459	4,866	-0,073	-0,039
-469,445	800,000	0,019	-0,051
-468,430	-200,000	0,020	-0,078
-467,416	800,000	-0,050	0,145
-466,401	-200,000	-0,005	0,054
-465,386	800,000	0,016	-0,034
-464,372	-44,663	-0,017	-0,006
-463,357	344,514	0,051	-0,074
-462,343	158,073	-0,019	-0,020
-461,328	370,332	-0,004	-0,007
-460,313	197,072	-0,053	-0,060
-459,299	-177,819	0,120	0,002
-458,284	-200,000	-0,042	0,168
-457,270	82,021	0,101	-0,080
-456,255	-200,000	-0,003	-0,066
-455,241	308,681	-0,096	0,132
-454,226	6,820	0,031	0,017
-453,211	800,000	-0,054	0,111
-452,197	540,800	-0,042	-0,073
-451,182	19,012	-0,065	0,038
-450,168	-126,212	0,170	0,018
-449,153	-14,461	-0,079	-0,037
-448,138	129,827	0,057	-0,054
-447,124	3,845	-0,025	0,014
-446,109	137,564	0,183	0,176
-445,095	-111,544	-0,030	-0,004
-444,080	107,434	0,047	-0,041
-443,065	-200,000	-0,009	-0,054
-442,051	800,000	0,010	-0,029
-441,036	-92,913	-0,077	0,016
-440,022	-200,000	-0,007	-0,039
-439,007	57,197	0,018	-0,013
-437,992	-200,000	-0,032	0,138
-436,978	-66,575	-0,072	0,021
-435,963	-200,000	0,027	0,104
-434,949	502,009	-0,009	0,016
-433,934	2,968	-0,053	-0,028
-432,919	-200,000	0,015	-0,106
-431,905	800,000	-0,019	0,058
-430,890	181,948	0,032	0,035
-429,876	-200,000	-0,000	-0,050
-428,861	-156,099	0,029	0,001
-427,846	57,734	-0,036	-0,026
-426,832	-200,000	0,002	0,012
-425,817	141,516	0,077	-0,075
-424,803	56,214	-0,116	-0,083
-423,788	137,382	0,054	0,052
-422,773	-200,000	-0,003	0,112
-421,759	-200,000	0,013	-0,124
-420,744	-45,832	0,086	0,031
-419,730	800,000	0,032	-0,087
-418,715	446,904	-0,089	-0,145
-417,701	51,851	-0,092	-0,064
-416,686	359,221	0,029	0,043
-415,671	133,476	0,061	0,058
-414,657	-60,677	0,072	0,022
-413,642	378,295	-0,042	0,064
-412,628	665,060	-0,025	-0,048
-411,613	-81,221	-0,220	-0,053
-410,598	-200,000	-0,014	0,071
-409,584	267,154	0,103	-0,133
-408,569	-200,000	-0,018	0,082
-407,555	192,527	0,077	0,085
-406,540	36,720	-0,034	-0,022
-405,525	800,000	0,017	0,052
-404,511	9,387	-0,070	0,039
-403,496	199,249	-0,070	0,079
-402,482	201,092	-0,049	-0,056
-401,467	-58,336	-0,099	-0,031
-400,452	76,656	0,054	0,042
-399,438	317,757	-0,046	-0,064
-398,423	-136,680	0,036	-0,003
-397,409	-200,000	-0,003	-0,069
-396,394	-112,783	0,100	-0,014
-395,379	191,952	0,079	0,088
-394,365	-200,000	0,005	-0,020
-393,350	59,008	-0,035	-0,025
-392,336	-16,158	-0,034	0,016
-391,321	197,441	0,036	0,041
-390,306	-146,912	-0,147	-0,009
-389,292	179,875	0,051	0,055
-388,277	-28,545	0,037	0,016
-387,263	274,013	-0,056	-0,073
-386,248	71,252	0,068	-0,052
-385,233	-99,072	0,044	-0,008
-384,219	-152,164	-0,116	0,006
-383,204	449,991	-0,072	-0,117
-382,190	671,633	0,058	-0,111
-381,175	800,000	-0,031	0,083
-380,160	703,465	-0,009	-0,017
-379,146	-200,000	0,013	0,043
-378,131	-200,000	-0,008	0,031
-377,117	-200,000	-0,008	0,034
-376,102	-131,178	-0,085	0,008
-375,088	254,824	-0,048	-0,061
-374,073	-146,576	-0,068	0,004
-373,058	108,768	0,036	0,031
-372,044	-200,000	-0,004	0,050
-371,029	75,335	0,073	-0,057
-370,015	-200,000	-0,021	0,189
-369,000	-46,287	-0,010	-0,003
-367,985	104,967	-0,058	-0,050
-366,971	-200,000	-0,024	0,087
-365,956	-73,962	-0,199	0,053
-364,942	-145,101	0,033	-0,002
-363,927	-133,499	0,066	-0,006
-362,912	-21,231	-0,051	0,023
-361,898	394,639	-0,012	-0,018
-360,883	-68,947	0,063	0,018
-359,869	416,674	-0,074	-0,117
-358,854	177,488	0,112	0,120
-357,839	-200,000	-0,017	-0,150
-356,825	-200,000	0,004	-0,018
-355,810	800,000	0,013	-0,036
-354,796	-121,880	0,093	-0,011
-353,781	-200,000	0,018	-0,127
-352,766	-200,000	0,009	0,117
-351,752	800,000	0,022	0,045
-350,737	-154,969	-0,005	0,000
-349,723	16,907	-0,022	0,013
-348,708	-186,396	-0,051	-0,001
-347,693	-138,289	-0,017	-0,001
-346,679	-200,000	0,028	-0,232
-345,664	-200,000	-0,012	-0,105
-344,650	239,890	0,111	0,136
-343,635	422,334	-0,061	0,096
-342,620	104,035	0,092	-0,080
-341,606	-38,073	0,079	0,031
-340,591	800,000	-0,020	-0,041
-339,577	-200,000	-0,018	-0,125
-338,562	-200,000	0,003	-0,066
-337,548	-200,000	-0,007	0,038
-336,533	223,866	-0,049	-0,058
-335,518	86,702	0,069	0,056
-334,504	-200,000	0,008	-0,052
-333,489	158,676	-0,120	0,122
-332,475	-38,767	-0,113	-0,043
-331,460	503,819	-0,030	-0,051
-330,445	-200,000	-0,005	-0,147
-329,431	47,345	0,053	0,036
-328,416	-200,000	-0,052	0,237
-327,402	-200,000	-0,001	0,077
-326,387	18,454	-0,050	0,029
-325,372	394,175	-0,045	0,069
-324,358	-76,931	-0,060	0,015
-323,343	150,541	0,007	0,007
-322,329	-123,109	0,057	-0,007
-321,314	-37,570	-0,115	0,045
-320,299	800,000	-0,046	0,132
-319,285	233,011	0,021	0,026
-318,270	-163,747	0,125	0,004
-317,256	-200,000	-0,007	0,064
-316,241	-32,354	-0,042	0,017
-315,226	-156,828	-0,045	0,002
-314,212	82,844	0,058	0,047
-313,197	528,649	-0,037	0,065
-312,183	-166,545	0,116	0,003
-311,168	-200,000	-0,011	-0,043
-310,153	-68,496	-0,052	-0,015
-309,139	-58,523	-0,123	-0,039
-308,124	206,922	-0,026	0,029
-307,110	-111,198	-0,077	0,011
-306,095	310,349	-0,073	0,100
-305,080	-200,000	0,028	0,132
-304,066	800,000	-0,063	0,131
-303,051	-200,000	0,022	-0,229
-302,037	-200,000	-0,014	0,116
-301,022	234,715	-0,065	0,079
-300,008	-200,000	0,001	0,032
-298,993	-200,000	-0,000	0,005
-297,978	-111,971	0,110	0,016
-296,964	640,015	0,048	-0,089
-295,949	-200,000	0,002	0,022
-294,935	271,226	0,015	-0,020
-293,920	-50,998	-0,074	0,025
-292,905	-116,122	0,070	0,009
-291,891	-110,323	0,095	0,014
-290,876	-81,644	-0,018	-0,004
-289,862	99,227	0,052	-0,044
-288,847	27,901	-0,093	0,057
-287,832	207,112	-0,096	0,110
-286,818	800,000	-0,048	-0,151
-285,803	-200,000	-0,013	-0,090
-284,789	-6,764	0,047	-0,023
-283,774	-200,000	0,034	0,134
-282,759	-141,515	0,053	-0,004
-281,745	-35,002	-0,059	-0,024
-280,730	468,466	0,055	-0,090
-279,716	800,000	-0,043	-0,110
-278,701	-89,235	0,073	-0,016
-277,686	800,000	-0,011	0,026
-276,672	-92,487	-0,055	0,011
-275,657	19,327	-0,041	-0,024
-274,643	-200,000	-0,009	-0,059
-273,628	-46,229	0,025	0,009
-272,613	343,243	0,047	-0,068
-271,599	-200,000	-0,021	0,119
-270,584	-11,028	-0,075	-0,036
-269,570	-13,246	0,075	0,036
-268,555	-200,000	-0,039	-0,127
-267,540	71,729	0,056	0,043
-266,526	97,715	0,102	0,086
-265,511	800,000	-0,009	0,027
-264,497	-10,399	0,059	-0,028
-263,482	-200,000	-0,011	0,139
-262,467	515,415	0,037	-0,063
-261,453	-200,000	-0,009	0,088
-260,438	-8,090	-0,100	-0,049
-259,424	-200,000	-0,006	-0,037
-258,409	-200,000	-0,003	-0,098
-257,395	-87,008	-0,026	-0,006
-256,380	800,000	0,014	0,040
-255,365	800,000	0,012	0,032
-254,351	78,738	-0,071	0,056
-253,336	-169,249	0,081	-0,002
-252,322	-200,000	0,003	-0,127
-251,307	48,009	-0,110	-0,075
-250,292	-200,000	0,004	0,087
-249,278	411,613	-0,024	0,037
-248,263	233,820	0,155	0,188
-247,249	679,515	-0,043	0,083
-246,234	-200,000	0,012	-0,053
-245,219	-153,619	-0,091	-0,005
-244,205	110,597	-0,027	0,024
-243,190	-200,000	-0,025	0,093
-242,176	-115,256	0,150	0,020
-241,161	-200,000	0,049	0,162
-240,146	-21,666	-0,085	0,038
-239,132	406,497	0,026	-0,040
-238,117	7,427	-0,102	-0,056
-237,103	800,000	0,058	-0,137
-236,088	-200,000	0,021	-0,148
-235,073	-200,000	0,014	0,055
-234,059	369,371	0,097	0,143
-233,044	-98,554	0,074	0,014
-232,030	-72,164	-0,039	0,011
-231,015	-141,181	-0,037	-0,003
-230,000	-200,000	0,006	0,099
-228,986	22,478	-0,112	-0,067
-227,971	379,963	-0,045	-0,067
-226,957	10,717	0,101	-0,056
-225,942	-85,751	0,106	0,024
-224,927	-131,555	-0,128	0,012
-223,913	-58,031	-0,071	-0,022
-222,898	-24,629	-0,059	-0,025
-221,884	79,684	-0,050	0,039
-220,869	-73,934	-0,059	0,015
-219,855	517,551	-0,085	0,145
-218,840	605,959	0,040	0,074
-217,825	547,674	0,074	-0,130
-216,811	-177,816	0,026	0,000
-215,796	-47,754	-0,091	-0,032
-214,782	-36,922	0,134	0,052
-213,767	441,426	-0,016	-0,025
-212,752	26,896	0,056	0,034
-211,738	409,278	0,013	0,020
-210,723	-200,000	-0,002	0,098
-209,709	42,932	0,083	-0,055
-208,694	-200,000	0,024	-0,080
-207,679	-104,300	0,209	0,035
-206,665	75,764	0,028	-0,022
-205,650	-200,000	0,013	0,059
-204,636	800,000	0,025	0,059
-203,621	154,046	0,047	0,047
-202,606	397,861	0,030	0,045
-201,592	-200,000	-0,009	-0,058
-200,577	-200,000	0,014	-0,103
-199,563	-178,384	-0,056	-0,001
-198,548	-79,626	0,046	0,011
-197,533	-200,000	-0,002	0,112
-196,519	696,094	0,036	-0,069
-195,504	737,061	-0,014	-0,027
-194,490	57,186	-0,082	0,058
-193,475	59,715	-0,058	-0,042
-192,460	744,719	-0,037	0,073
-191,446	49,639	0,055	-0,038
-190,431	-114,924	0,051	-0,007
-189,417	-200,000	-0,011	0,075
-188,402	-29,932	0,093	-0,038
-187,387	-66,652	-0,019	-0,005
-186,373	-200,000	-0,001	0,089
-185,358	-200,000	-0,029	-0,112
-184,344	-96,090	0,033	-0,006
-183,329	-52,245	-0,122	-0,041
-182,315	-200,000	-0,011	-0,038
-181,300	-200,000	-0,032	-0,104
-180,285	67,790	-0,101	-0,075
-179,271	320,819	-0,037	-0,052
-178,256	-200,000	0,013	-0,073
-177,242	-162,339	-0,083	0,003
-176,227	-138,040	0,065	-0,005
-175,212	41,079	0,157	0,103
-174,198	-45,950	-0,053	0,019
-173,183	-176,576	0,057	-0,001
-172,169	-49,568	-0,097	-0,033
-171,154	-200,000	-0,016	0,054
-170,139	31,666	-0,100	-0,063
-169,125	-111,782	0,108	0,016
-168,110	-200,000	0,033	0,112
-167,096	63,582	-0,124	0,091
-166,081	800,000	-0,035	0,090
-165,066	614,341	-0,061	0,113
-164,052	800,000	-0,024	0,053
-163,037	800,000	-0,016	-0,047
-162,023	-200,000	0,007	0,160
-161,008	56,427	0,134	0,095
-159,993	162,020	-0,035	-0,036
-158,979	-200,000	0,005	0,021
-157,964	-49,616	-0,124	0,043
-156,950	-84,535	0,051	-0,012
-155,935	0,031	0,108	0,056
-154,920	-200,000	0,013	0,257
-153,906	-166,002	0,121	0,004
-152,891	800,000	0,045	0,095
-151,877	31,641	0,104	0,065
-150,862	489,388	-0,027	0,045
-149,847	800,000	0,047	0,123
-148,833	-200,000	0,019	-0,127
-147,818	28,968	0,013	0,008
-146,804	762,816	0,045	0,090
-145,789	800,000	0,030	-0,089
-144,775	-200,000	-0,009	0,131
-143,760	-116,681	-0,041	0,005
-142,745	800,000	-0,017	0,044
-141,731	14,421	0,081	-0,046
-140,716	-5,646	0,104	0,052
-139,702	-200,000	-0,004	0,067
-138,687	-200,000	-0,003	0,104
-137,672	228,880	0,031	0,037
-136,658	78,733	-0,026	-0,020
-135,643	131,601	-0,085	-0,079
-134,629	-172,582	0,069	0,002
-133,614	-200,000	0,036	-0,148
-132,599	203,410	-0,037	0,042
-131,585	-200,000	-0,040	0,143
-130,570	67,331	-0,047	0,035
-129,556	-200,000	0,008	-0,071
-128,541	-200,000	-0,021	0,101
-127,526	94,016	-0,043	-0,035
-126,512	-135,808	-0,118	0,010
-125,497	-200,000	0,007	0,056
-124,483	-52,928	0,058	-0,019
-123,468	572,051	0,063	0,111
-122,453	43,842	-0,100	-0,067
-121,439	78,496	-0,040	0,031
-120,424	-124,444	0,164	0,018
-119,410	435,426	-0,039	-0,062
-118,395	-200,000	0,043	0,151
-117,380	375,355	0,060	0,089
-116,366	-200,000	-0,028	0,170
-115,351	800,000	-0,027	-0,066
-114,337	231,590	-0,022	-0,027
-113,322	-200,000	0,001	-0,173
-112,307	368,289	0,086	0,126
-111,293	-52,592	0,018	-0,006
-110,278	212,005	0,042	0,048
-109,264	-200,000	-0,007	-0,151
-108,249	-154,584	-0,023	0,001
-107,234	-200,000	-0,007	-0,161
-106,220	-40,542	-0,082	-0,031
-105,205	396,111	-0,056	-0,085
-104,191	-13,766	-0,090	-0,042
-103,176	-15,981	-0,082	0,038
-102,162	800,000	0,015	0,036
-101,147	337,548	-0,122	-0,173
-100,132	-200,000	0,035	-0,143
-99,118	483,720	-0,042	-0,070
-98,103	-69,141	-0,067	-0,019
-97,089	139,374	0,026	-0,025
-96,074	136,835	0,061	0,058
-95,059	-126,992	0,075	0,008
-94,045	-200,000	-0,005	-0,029
-93,030	702,098	0,091	-0,176
-92,016	-38,004	-0,036	0,014
-91,001	187,004	0,052	0,057
-89,986	-47,605	0,106	-0,037
-88,972	-140,980	-0,044	-0,003
-87,957	-80,167	0,048	0,012
-86,943	28,372	-0,048	0,029
-85,928	-200,000	-0,040	-0,151
-84,913	-1,823	-0,056	-0,029
-83,899	563,520	-0,047	0,083
-82,884	-200,000	0,008	0,094
-81,870	79,392	0,135	0,105
-80,855	800,000	0,035	0,111
-79,840	181,347	-0,015	0,016
-78,826	521,250	-0,056	0,095
-77,811	-200,000	-0,025	0,086
-76,797	-107,705	0,013	-0,002
-75,782	-28,974	0,102	0,042
-74,767	-10,256	-0,067	0,032
-73,753	417,651	-0,075	0,117
-72,738	-129,290	-0,047	-0,005
-71,724	-6,415	-0,090	0,044
-70,709	-200,000	-0,015	0,187
-69,694	429,695	0,011	-0,017
-68,680	-200,000	0,008	0,040
-67,665	125,463	0,093	-0,085
-66,651	549,163	-0,051	0,090
-65,636	-52,328	-0,093	-0,031
-64,622	800,000	0,021	-0,057
-63,607	-69,014	-0,042	-0,012
-62,592	67,709	0,098	-0,072
-61,578	-200,000	-0,003	0,020
-60,563	800,000	0,023	0,074
-59,549	382,226	0,043	0,065
-58,534	-142,908	-1,239	-0,086
-57,519	530,552	-0,866	-1,492
-56,505	-200,000	-0,884	-4,512
-55,490	45,927	0,504	-0,338
-54,476	800,000	5,039	11,623
-53,461	-200,000	13,753	252,333
-52,446	-200,000	690,937	2264,760
-51,432	605,550	1621,663	2943,980
-50,417	118,910	1633,140	1464,664
-49,403	74,216	1287,487	980,147
-48,388	37,837	1023,524	658,599
-47,373	24,168	981,457	586,581
-46,359	23,378	971,213	577,845
-45,344	22,391	966,853	572,004
-44,330	22,379	965,451	571,111
-43,315	22,213	964,000	569,690
-42,300	22,172	963,041	568,968
-41,286	22,156	962,072	568,319
-40,271	22,200	961,046	567,832
-39,257	22,222	960,087	567,315
-38,242	22,188	959,091	566,596
-37,227	22,204	958,222	566,112
-36,213	22,178	957,348	565,487
-35,198	22,171	956,536	564,963
-34,184	22,217	955,990	564,767
-33,169	22,188	954,757	563,923
-32,154	22,257	954,021	563,687
-31,140	22,259	953,144	563,156
-30,125	22,287	952,100	562,605
-29,111	22,245	951,556	562,125
-28,096	22,245	951,029	561,792
-27,082	22,228	950,213	561,235
-26,067	22,210	949,276	560,601
-25,052	22,205	948,815	560,290
-24,038	22,180	948,213	559,833
-23,023	22,235	947,332	559,466
-22,009	22,197	946,744	558,975
-20,994	22,320	945,981	558,894
-19,979	22,237	945,481	558,311
-18,965	22,197	944,983	557,868
-17,950	22,236	944,217	557,517
-16,936	22,161	943,446	556,802
-15,921	22,199	942,750	556,491
-14,906	22,131	942,174	555,911
-13,892	22,096	941,522	555,394
-12,877	22,082	940,990	555,013
-11,863	22,112	940,256	554,655
-10,848	22,048	939,708	554,104
-9,833	22,151	939,402	554,228
-8,819	22,103	938,815	553,707
-7,804	22,158	937,898	553,321
-6,790	22,125	937,327	552,857
-5,775	22,149	936,880	552,646
-4,760	22,134	936,101	552,120
-3,746	22,082	935,548	551,606
-2,731	21,964	934,969	550,870
-1,717	21,903	934,254	550,233
-0,702	21,924	933,548	549,863
0,313	21,738	932,934	549,745
1,327	24,230	930,579	556,143
2,342	31,906	808,522	503,998
3,356	26,524	508,376	307,696
4,371	1,645	372,668	193,964
5,386	-1,481	355,697	181,285
6,400	-2,390	349,635	177,084
7,415	-3,017	346,978	174,972
8,429	-2,969	345,641	174,340
9,444	-3,120	344,888	173,765
10,459	-2,938	343,985	173,510
11,473	-2,891	343,334	173,222
12,488	-2,977	342,848	172,859
13,502	-2,990	342,306	172,556
14,517	-2,965	341,735	172,282
15,531	-2,981	341,332	172,045
16,546	-2,792	340,768	171,967
17,561	-2,831	340,383	171,712
18,575	-2,897	340,064	171,458
19,590	-2,889	339,774	171,305
20,604	-2,716	339,216	171,211
21,619	-2,863	338,963	170,897
22,634	-2,736	338,652	170,873
23,648	-2,889	338,328	170,517
24,663	-2,931	338,009	170,291
25,677	-2,848	337,724	170,229
26,692	-2,807	337,230	170,012
27,707	-2,707	337,098	170,047
28,721	-2,822	336,801	169,748
29,736	-2,871	336,445	169,497
30,750	-2,915	336,161	169,288
31,765	-2,882	335,893	169,176
32,780	-2,814	335,458	169,021
33,794	-2,864	335,400	168,919
34,809	-2,916	335,115	168,700
35,823	-2,847	334,786	168,599
36,838	-2,891	334,595	168,436
37,853	-2,877	334,155	168,217
38,867	-2,834	333,906	168,125
39,882	-2,825	333,597	167,965
40,896	-2,904	333,446	167,784
41,911	-2,880	333,072	167,607
42,926	-2,945	332,938	167,451
43,940	-2,711	332,364	167,415
44,955	-2,907	332,376	167,182
45,969	-2,944	332,080	166,977
46,984	-2,960	331,682	166,743
47,999	-2,782	331,462	166,820
49,013	-2,849	331,361	166,678
50,028	-2,835	330,956	166,475
51,042	-3,031	330,729	166,124
52,057	-3,004	330,502	166,025
53,071	-2,986	330,345	165,952
54,086	-2,887	330,042	165,898
55,101	-2,839	329,744	165,787
56,115	-2,806	329,496	165,685
57,130	-2,707	329,140	165,603
58,144	-2,936	328,826	165,172
59,159	-2,768	328,548	165,208
60,174	-2,951	328,416	164,919
61,188	-2,786	328,170	164,967
62,203	-2,880	327,996	164,759
63,217	-2,752	327,603	164,691
64,232	-2,702	327,260	164,561
65,247	-3,004	327,071	164,111
66,261	-2,943	326,852	164,055
67,276	-2,973	326,524	163,842
68,290	-2,830	326,352	163,901
69,305	-2,851	326,046	163,709
70,320	-2,848	325,839	163,595
71,334	-2,859	325,570	163,433
72,349	-2,750	325,289	163,399
73,363	-2,678	324,967	163,302
74,378	-2,696	324,758	163,163
75,393	-2,902	324,441	162,760
76,407	-2,822	324,368	162,798
77,422	-2,896	324,083	162,558
78,436	-2,883	323,924	162,478
79,451	-2,907	323,642	162,296
80,466	-2,782	323,199	162,198
81,480	-2,788	323,055	162,104
82,495	-2,869	322,869	161,907
83,509	-2,827	322,634	161,821
84,524	-2,717	322,383	161,802
85,539	-2,879	322,038	161,436
86,553	-2,791	321,840	161,419
87,568	-2,757	321,569	161,306
88,582	-2,867	321,409	161,090
89,597	-2,803	321,144	161,014
90,611	-2,893	320,939	160,798
91,626	-2,820	320,773	160,781
92,641	-2,929	320,665	160,592
93,655	-2,913	320,250	160,388
94,670	-2,830	320,044	160,361
95,684	-2,726	319,642	160,260
96,699	-2,800	319,615	160,151
97,714	-2,838	319,289	159,931
98,728	-2,947	319,137	159,722
99,743	-2,785	318,823	159,727
100,757	-2,829	318,423	159,464
101,772	-2,834	318,344	159,405
102,787	-2,784	318,094	159,321
103,801	-2,936	317,853	159,020
104,816	-2,896	317,795	159,020
105,830	-2,718	317,475	159,039
106,845	-2,793	317,308	158,860
107,860	-2,801	316,954	158,660
108,874	-2,831	316,842	158,558
109,889	-2,870	316,490	158,325
110,903	-2,853	316,372	158,271
111,918	-2,775	316,009	158,159
112,933	-2,851	315,866	157,991
113,947	-2,770	315,567	157,915
114,962	-2,628	315,418	157,979
115,976	-2,757	315,103	157,668
116,991	-2,828	314,827	157,440
118,006	-2,852	314,833	157,403
119,020	-2,847	314,583	157,269
120,035	-2,710	314,418	157,320
121,049	-2,701	314,035	157,124
122,064	-2,656	313,803	157,042
123,079	-2,675	313,723	156,968
124,093	-2,875	313,448	156,602
125,108	-2,836	313,295	156,553
126,122	-2,905	313,051	156,344
127,137	-2,918	312,961	156,270
128,151	-2,678	312,588	156,326
129,166	-2,792	312,357	156,076
130,181	-2,715	312,213	156,072
131,195	-2,644	311,804	155,929
132,210	-2,988	311,684	155,490
133,224	-2,884	311,466	155,477
134,239	-2,671	311,084	155,499
135,254	-2,747	310,953	155,339
136,268	-2,875	310,659	155,043
137,283	-2,955	310,620	154,925
138,297	-2,774	310,360	154,972
139,312	-2,659	309,954	154,878
140,327	-2,816	309,857	154,650
141,341	-2,792	309,704	154,585
142,356	-2,722	309,344	154,465
143,370	-2,866	309,344	154,299
144,385	-2,795	308,975	154,176
145,400	-2,826	308,787	154,036
146,414	-2,887	308,592	153,861
147,429	-2,909	308,372	153,714
148,443	-2,758	308,175	153,762
149,458	-2,761	307,857	153,586
150,473	-2,688	307,665	153,552
151,487	-2,812	307,622	153,388
152,502	-2,910	307,444	153,182
153,516	-2,643	307,055	153,254
154,531	-2,755	306,760	152,976
155,546	-2,858	306,626	152,788
156,560	-2,780	306,358	152,723
157,575	-2,586	306,093	152,778
158,589	-2,765	305,930	152,497
159,604	-2,692	305,693	152,441
160,619	-2,631	305,550	152,420
161,633	-2,782	305,339	152,144
162,648	-2,719	305,226	152,140
163,662	-2,659	304,909	152,031
164,677	-2,796	304,894	151,868
165,692	-2,746	304,557	151,738
166,706	-2,593	304,342	151,776
167,721	-2,566	304,132	151,685
168,735	-2,812	304,047	151,375
169,750	-2,755	303,770	151,283
170,764	-2,778	303,655	151,188
171,779	-2,662	303,376	151,155
172,794	-2,792	303,241	150,940
173,808	-2,621	302,805	150,886
174,823	-2,736	302,711	150,708
175,837	-2,631	302,438	150,666
176,852	-2,853	302,432	150,422
177,867	-2,721	302,088	150,372
178,881	-2,530	301,872	150,447
179,896	-2,651	301,763	150,255
180,910	-2,819	301,547	149,963
181,925	-2,819	301,417	149,884
182,940	-2,670	301,138	149,885
183,954	-2,653	300,902	149,771
184,969	-2,677	300,841	149,703
185,983	-2,773	300,671	149,507
186,998	-2,487	300,449	149,675
188,013	-2,425	300,039	149,520
189,027	-2,700	299,877	149,146
190,042	-2,658	299,783	149,129
191,056	-2,617	299,561	149,048
192,071	-2,727	299,295	148,790
193,086	-2,904	299,120	148,510
194,100	-2,796	298,877	148,486
195,115	-2,623	298,731	148,575
196,129	-2,850	298,563	148,249
197,144	-2,651	298,248	148,280
198,159	-2,731	297,946	148,036
199,173	-2,593	297,890	148,135
200,188	-2,630	297,510	147,895
201,202	-2,760	297,465	147,728
202,217	-2,639	297,252	147,731
203,232	-2,777	297,075	147,491
204,246	-2,748	296,820	147,381
205,261	-2,589	296,553	147,395
206,275	-2,616	296,227	147,193
207,290	-2,722	296,245	147,082
208,304	-2,599	296,158	147,149
209,319	-2,626	295,786	146,924
210,334	-2,525	295,515	146,877
211,348	-2,562	295,395	146,767
212,363	-2,562	295,188	146,651
213,377	-2,595	294,956	146,490
214,392	-2,653	294,903	146,393
215,407	-2,720	294,593	146,159
216,421	-2,516	294,395	146,251
217,436	-2,703	294,227	145,968
218,450	-2,641	293,958	145,884
219,465	-2,653	293,755	145,758
220,480	-2,641	293,521	145,640
221,494	-2,710	293,589	145,593
222,509	-2,792	293,254	145,333
223,523	-2,609	293,139	145,444
224,538	-2,719	292,891	145,199
225,553	-2,696	292,752	145,140
226,567	-2,589	292,430	145,073
227,582	-2,679	292,383	144,948
228,596	-2,696	292,303	144,879
229,611	-2,698	292,034	144,730
230,626	-2,613	291,725	144,648
231,640	-2,695	291,575	144,480
232,655	-2,443	291,343	144,601
233,669	-2,608	291,156	144,332
234,684	-2,734	291,018	144,127
235,699	-2,567	290,864	144,202
236,713	-2,563	290,590	144,057
237,728	-2,655	290,468	143,893
238,742	-2,672	290,238	143,751
239,757	-2,776	290,093	143,564
240,772	-2,819	289,907	143,417
241,786	-2,860	289,680	143,251
242,801	-2,558	289,431	143,411
243,815	-2,715	289,327	143,193
244,830	-2,636	289,044	143,118
245,844	-2,546	288,872	143,107
246,859	-2,684	288,694	142,872
247,874	-2,790	288,413	142,617
248,888	-2,845	288,447	142,568
249,903	-2,703	288,048	142,496
250,917	-2,825	287,871	142,277
251,932	-2,861	287,761	142,175
252,947	-3,023	287,512	141,882
253,961	-3,533	287,096	141,170
254,976	-4,124	286,452	140,268
255,990	-4,184	286,399	140,172
257,005	-3,041	286,707	141,417
258,020	-1,135	287,482	143,635
259,034	0,708	288,041	145,689
260,049	1,231	288,055	146,189
261,063	1,683	287,871	146,522
262,078	1,724	287,957	146,592
263,093	2,051	287,867	146,849
264,107	2,387	287,691	147,071
265,122	2,582	287,605	147,203
266,136	2,652	287,338	147,120
267,151	2,759	287,196	147,138
268,166	2,562	286,975	146,822
269,180	2,651	286,764	146,786
270,195	2,497	286,630	146,557
271,209	2,444	286,641	146,498
272,224	2,682	286,148	146,462
273,239	2,524	285,901	146,170
274,253	2,375	285,873	146,000
275,268	2,514	285,582	145,971
276,282	2,373	285,312	145,686
277,297	2,305	285,287	145,595
278,312	2,405	285,185	145,626
279,326	2,625	284,877	145,665
280,341	2,544	284,766	145,518
281,355	2,301	284,487	145,131
282,370	2,309	284,343	145,052
283,384	2,368	284,144	144,994
284,399	2,436	283,992	144,969
285,414	2,421	283,801	144,843
286,428	2,411	283,512	144,674
287,443	2,357	283,395	144,550
288,457	2,285	283,162	144,350
289,472	2,326	283,001	144,294
290,487	2,249	282,823	144,117
291,501	2,295	282,532	143,999
292,516	2,203	282,369	143,816
293,530	2,244	282,146	143,729
294,545	2,143	282,249	143,673
295,560	2,359	281,800	143,635
296,574	2,132	281,798	143,408
297,589	2,093	281,574	143,244
298,603	2,045	281,387	143,090
299,618	2,144	281,083	143,017
300,633	2,278	281,123	143,150
301,647	2,343	280,907	143,089
302,662	2,521	280,659	143,117
303,676	2,513	280,536	143,034
304,691	2,500	280,320	142,899
305,706	2,649	280,250	142,990
306,720	2,693	279,929	142,855
307,735	2,564	279,803	142,657
308,749	2,457	279,601	142,441
309,764	2,450	279,457	142,349
310,779	2,478	279,248	142,255
311,793	2,452	278,956	142,070
312,808	2,235	278,782	141,766
313,822	2,387	278,682	141,844
314,837	2,511	278,499	141,853
315,852	2,462	278,340	141,714
316,866	2,453	278,156	141,600
317,881	2,491	277,925	141,505
318,895	2,453	277,702	141,344
319,910	2,426	277,573	141,240
320,925	2,382	277,451	141,124
321,939	2,527	277,279	141,159
322,954	2,637	276,947	141,079
323,968	2,662	277,052	141,144
324,983	2,556	276,704	140,855
325,997	2,405	276,615	140,658
327,012	2,592	276,457	140,738
328,027	2,768	276,180	140,747
329,041	2,522	276,037	140,435
330,056	2,624	275,948	140,470
331,070	2,621	275,795	140,377
332,085	2,630	275,551	140,249
333,100	2,755	275,350	140,250
334,114	2,438	275,249	139,894
335,129	2,473	274,933	139,753
336,143	2,526	274,824	139,734
337,158	2,474	274,692	139,606
338,173	2,622	274,398	139,581
339,187	2,591	274,203	139,440
340,202	2,565	274,201	139,404
341,216	2,648	273,744	139,235
342,231	2,472	273,699	139,038
343,246	2,638	273,550	139,101
344,260	2,493	273,298	138,829
345,275	2,591	273,226	138,869
346,289	2,608	273,214	138,867
347,304	2,710	272,853	138,763
348,319	2,623	272,679	138,583
349,333	2,543	272,480	138,397
350,348	2,595	272,342	138,362
351,362	2,536	272,176	138,212
352,377	2,713	272,050	138,295
353,392	2,662	271,930	138,176
354,406	2,587	271,685	137,971
355,421	191,829	1348,311	1430,432
356,435	154,864	1479,589	1430,583
