DTS Sentinel unit serial number:	SN410029Multiplexer serial number:	ORYXHardware model number:	OX2-SRSoftware version number:	ORYX F/W v4,00 Oryx Data Collector v3.7.2.0data status	okinstallation	B4 Nyhavnadifferential loss correction	single-endedforward channel	channel 2reverse channel	N/Adate	2023/12/19time	10:35:13forward acquisition time	300,00reverse acquisition time	0,00gamma	499,1914k internal	0,3127k external	0,3127temperature offset calibration	1,0000default loss term (dB/km)	0,3820temperature slope calibration	1,0000multiplexer offset coefficient	1,0000multiplexer slope coefficient	1,0000fibre end	0,00T internal ref (°C)	20,04T ext. ref 1 (°C)	4,72T ext. ref 2 (°C)	4,64length (m)	temperature (°C)	Stokes	anti-Stokes-744,400	304,606	0,071	-0,099
-743,385	30,841	-0,208	-0,132
-742,371	-200,000	-0,009	0,107
-741,356	252,926	-0,139	0,176
-740,342	-2,641	-0,089	-0,046
-739,327	-77,035	-0,289	0,074
-738,312	598,779	0,106	-0,197
-737,298	-80,223	-0,234	0,058
-736,283	251,218	-0,067	-0,085
-735,269	-53,839	-0,230	0,077
-734,254	800,000	0,026	-0,078
-733,239	-81,029	-0,426	-0,104
-732,225	-200,000	0,026	0,089
-731,210	334,831	0,107	0,154
-730,196	800,000	-0,054	-0,156
-729,181	-76,880	-0,077	0,020
-728,167	-12,222	0,050	-0,024
-727,152	338,502	0,018	0,026
-726,137	-4,169	0,088	-0,045
-725,123	-22,676	-0,145	0,065
-724,108	-90,118	-0,058	0,012
-723,094	-102,054	-0,073	0,013
-722,079	87,980	-0,106	-0,087
-721,064	38,698	0,167	-0,110
-720,050	236,184	-0,058	-0,071
-719,035	754,433	-0,027	-0,055
-718,021	145,950	-0,032	0,032
-717,006	169,903	-0,080	0,086
-715,991	-12,595	-0,118	-0,057
-714,977	-200,000	0,002	-0,033
-713,962	421,137	0,004	-0,007
-712,948	-43,501	0,094	0,035
-711,933	-200,000	0,004	-0,029
-710,918	-200,000	0,018	-0,084
-709,904	724,237	-0,066	-0,131
-708,889	800,000	0,046	-0,142
-707,875	316,815	-0,076	0,107
-706,860	-41,105	-0,012	0,004
-705,845	-52,559	-0,095	0,033
-704,831	215,294	0,124	0,146
-703,816	178,766	-0,063	-0,069
-702,802	800,000	0,047	-0,100
-701,787	800,000	0,031	0,071
-700,772	-33,505	-0,028	0,011
-699,758	695,035	-0,045	-0,089
-698,743	-122,686	0,120	-0,014
-697,729	316,659	0,086	0,121
-696,714	800,000	-0,031	-0,070
-695,699	63,588	-0,040	0,030
-694,685	-200,000	-0,001	-0,079
-693,670	800,000	-0,056	-0,146
-692,656	720,658	0,030	-0,059
-691,641	-144,512	-0,012	-0,001
-690,627	-200,000	-0,023	-0,104
-689,612	-40,057	-0,183	-0,070
-688,597	26,372	-0,034	-0,021
-687,583	399,554	-0,070	0,109
-686,568	-86,618	-0,090	0,020
-685,554	800,000	0,012	0,025
-684,539	-200,000	0,002	0,079
-683,524	-34,401	-0,043	0,018
-682,510	-63,106	-0,021	0,007
-681,495	-84,497	0,067	0,016
-680,481	-148,257	0,033	0,002
-679,466	-72,549	-0,111	-0,030
-678,451	-81,172	-0,077	0,019
-677,437	185,253	0,044	0,048
-676,422	-18,464	0,178	0,082
-675,408	-153,472	-0,089	0,004
-674,393	-200,000	-0,034	-0,115
-673,378	800,000	0,043	-0,119
-672,364	-83,839	-0,121	-0,028
-671,349	175,084	-0,097	-0,104
-670,335	109,531	-0,062	0,055
-669,320	148,156	-0,018	0,018
-668,305	-112,762	-0,083	0,012
-667,291	-62,475	-0,148	0,045
-666,276	-200,000	-0,001	0,166
-665,262	-200,000	-0,011	0,160
-664,247	-200,000	0,006	0,053
-663,232	800,000	-0,041	0,085
-662,218	-83,459	-0,075	0,018
-661,203	-116,134	-0,013	-0,002
-660,189	-175,751	0,053	0,001
-659,174	-167,145	-0,119	0,004
-658,159	-15,989	-0,110	-0,052
-657,145	-61,726	0,058	0,018
-656,130	800,000	0,034	-0,103
-655,116	94,045	0,105	0,089
-654,101	-142,392	-0,016	-0,001
-653,086	115,627	-0,023	0,021
-652,072	-82,894	0,137	0,033
-651,057	-200,000	-0,003	-0,112
-650,043	-200,000	0,018	-0,072
-649,028	-105,390	-0,141	-0,024
-648,014	800,000	0,028	0,068
-646,999	-163,027	0,072	-0,003
-645,984	-29,791	0,070	0,029
-644,970	392,582	0,071	-0,110
-643,955	-37,470	0,052	0,020
-642,941	-15,686	0,128	-0,061
-641,926	264,936	-0,057	0,074
-640,911	135,178	-0,086	0,083
-639,897	-22,374	0,087	-0,039
-638,882	-58,638	-0,081	0,026
-637,868	-200,000	-0,006	0,023
-636,853	-200,000	0,017	0,105
-635,838	800,000	-0,009	0,020
-634,824	-165,204	-0,136	-0,004
-633,809	-200,000	-0,003	-0,102
-632,795	-165,696	0,149	-0,005
-631,780	446,526	-0,073	-0,119
-630,765	-119,979	-0,180	-0,023
-629,751	51,202	0,078	-0,055
-628,736	52,899	0,047	0,033
-627,722	800,000	-0,045	-0,139
-626,707	-200,000	0,025	-0,114
-625,692	-129,683	-0,092	-0,009
-624,678	-200,000	-0,020	-0,121
-623,663	-92,174	0,076	-0,016
-622,649	93,707	-0,099	0,083
-621,634	-72,034	-0,084	0,023
-620,619	-200,000	-0,001	-0,034
-619,605	-200,000	-0,002	-0,034
-618,590	160,630	0,096	0,099
-617,576	72,399	0,085	0,065
-616,561	373,052	0,033	-0,050
-615,546	68,222	0,174	-0,132
-614,532	-133,758	-0,027	0,002
-613,517	2,562	0,061	0,033
-612,503	-115,789	-0,086	-0,012
-611,488	-122,045	-0,053	-0,006
-610,474	-200,000	-0,003	-0,038
-609,459	59,173	-0,113	-0,082
-608,444	-76,819	0,021	0,005
-607,430	34,207	-0,116	-0,075
-606,415	192,822	0,031	-0,035
-605,401	14,059	0,134	-0,077
-604,386	-36,735	0,155	0,061
-603,371	510,752	0,066	0,114
-602,357	9,481	-0,040	0,023
-601,342	-200,000	0,021	-0,086
-600,328	34,064	0,026	-0,016
-599,313	-200,000	0,026	-0,106
-598,298	6,595	-0,070	0,038
-597,284	800,000	0,053	0,111
-596,269	145,789	-0,083	0,082
-595,255	800,000	-0,016	-0,040
-594,240	-200,000	0,012	-0,050
-593,225	-87,680	0,068	-0,015
-592,211	36,895	-0,088	-0,058
-591,196	-200,000	0,025	-0,143
-590,182	131,362	-0,083	0,079
-589,167	-66,925	-0,077	0,022
-588,152	-200,000	0,050	0,179
-587,138	7,428	-0,179	-0,099
-586,123	24,143	-0,123	-0,075
-585,109	166,592	0,111	0,117
-584,094	77,986	-0,075	-0,059
-583,079	-200,000	-0,018	-0,080
-582,065	-191,723	-0,055	0,000
-581,050	-62,084	-0,071	-0,022
-580,036	633,565	0,056	0,106
-579,021	-180,878	-0,100	-0,001
-578,006	-200,000	0,014	-0,055
-576,992	-106,075	-0,006	0,001
-575,977	-200,000	-0,002	-0,103
-574,963	155,875	-0,080	-0,081
-573,948	41,282	-0,077	-0,052
-572,934	316,055	0,058	-0,081
-571,919	-63,948	-0,111	-0,033
-570,904	40,761	-0,102	-0,068
-569,890	-200,000	-0,000	-0,076
-568,875	-200,000	0,011	0,072
-567,861	104,155	0,059	0,051
-566,846	219,724	0,078	0,093
-565,831	-108,975	0,051	-0,008
-564,817	684,952	0,025	-0,048
-563,802	-72,594	-0,048	0,013
-562,788	94,271	0,009	0,007
-561,773	-40,686	0,067	0,026
-560,758	-200,000	-0,024	0,086
-559,744	-78,984	-0,105	0,026
-558,729	800,000	-0,081	0,218
-557,715	-200,000	0,022	-0,112
-556,700	-41,128	-0,077	-0,029
-555,685	800,000	-0,044	-0,095
-554,671	-76,086	0,162	-0,042
-553,656	-200,000	-0,019	0,175
-552,642	60,255	-0,022	0,016
-551,627	-79,990	0,099	-0,024
-550,612	85,012	-0,052	0,042
-549,598	-200,000	-0,001	-0,076
-548,583	70,841	-0,041	-0,032
-547,569	202,415	-0,047	-0,053
-546,554	800,000	-0,010	-0,022
-545,539	800,000	0,064	0,143
-544,525	504,633	-0,053	0,091
-543,510	29,698	0,031	-0,019
-542,496	800,000	0,047	0,108
-541,481	213,310	-0,062	0,072
-540,466	558,595	0,057	-0,102
-539,452	709,097	-0,065	-0,127
-538,437	-200,000	-0,017	0,064
-537,423	328,903	0,081	0,115
-536,408	-25,406	-0,021	0,009
-535,393	800,000	-0,008	-0,024
-534,379	55,052	-0,103	-0,074
-533,364	-200,000	0,014	-0,111
-532,350	-166,085	-0,051	-0,002
-531,335	-200,000	0,006	0,097
-530,321	122,442	-0,112	0,104
-529,306	-200,000	0,014	-0,046
-528,291	800,000	0,032	-0,074
-527,277	-200,000	-0,025	-0,139
-526,262	-200,000	0,004	0,057
-525,248	187,024	0,050	-0,055
-524,233	657,769	-0,025	0,048
-523,218	-200,000	-0,005	0,073
-522,204	-68,577	-0,052	0,015
-521,189	-144,290	-0,088	-0,006
-520,175	128,721	-0,062	-0,059
-519,160	676,169	0,016	-0,031
-518,145	75,581	-0,087	0,068
-517,131	54,629	0,054	0,039
-516,116	800,000	-0,049	0,132
-515,102	-200,000	0,010	-0,077
-514,087	381,992	0,035	0,053
-513,072	189,158	0,046	-0,051
-512,058	800,000	-0,028	0,076
-511,043	638,612	-0,040	-0,076
-510,029	-200,000	0,023	0,171
-509,014	-16,855	-0,073	0,034
-507,999	800,000	0,034	-0,094
-506,985	800,000	-0,055	-0,145
-505,970	-115,926	-0,110	0,015
-504,956	585,097	0,034	-0,062
-503,941	417,394	0,030	-0,047
-502,926	-140,052	0,056	-0,004
-501,912	149,123	0,052	-0,052
-500,897	-200,000	-0,013	0,219
-499,883	800,000	0,011	0,029
-498,868	15,374	-0,122	-0,071
-497,853	-200,000	0,013	0,077
-496,839	340,276	-0,026	0,037
-495,824	-49,581	0,044	0,015
-494,810	95,688	0,063	0,053
-493,795	-200,000	-0,006	-0,105
-492,781	265,019	0,042	0,055
-491,766	-45,708	-0,091	-0,033
-490,751	-34,608	-0,095	-0,038
-489,737	-200,000	0,006	-0,076
-488,722	-89,344	0,104	0,022
-487,708	218,673	0,125	-0,147
-486,693	-125,938	0,049	-0,005
-485,678	-86,998	-0,027	0,006
-484,664	108,049	-0,038	-0,033
-483,649	-114,039	-0,198	-0,028
-482,635	800,000	-0,074	-0,158
-481,620	-67,606	0,040	-0,011
-480,605	800,000	-0,005	-0,011
-479,591	800,000	0,065	-0,168
-478,576	70,808	-0,091	0,069
-477,562	-147,787	-0,083	0,005
-476,547	-200,000	-0,006	-0,087
-475,532	-200,000	-0,019	-0,119
-474,518	14,739	-0,107	0,062
-473,503	11,620	0,044	0,025
-472,489	393,234	0,070	-0,107
-471,474	-28,268	0,044	-0,019
-470,459	55,445	-0,126	0,090
-469,445	150,342	0,050	0,050
-468,430	-104,821	-0,103	-0,017
-467,416	183,615	0,073	-0,080
-466,401	352,796	-0,129	0,189
-465,386	-3,755	-0,069	0,035
-464,372	208,487	-0,077	-0,089
-463,357	-9,903	-0,049	-0,024
-462,343	193,372	0,048	-0,054
-461,328	185,755	0,064	0,070
-460,313	55,294	0,110	-0,078
-459,299	56,975	-0,115	0,083
-458,284	800,000	0,011	0,031
-457,270	-200,000	0,024	0,117
-456,255	800,000	-0,030	-0,079
-455,241	225,374	0,030	0,035
-454,226	218,275	-0,084	-0,099
-453,211	279,925	0,057	-0,076
-452,197	-200,000	0,014	-0,101
-451,182	-200,000	0,036	0,135
-450,168	-200,000	0,045	0,181
-449,153	800,000	0,027	0,082
-448,138	-133,402	-0,087	0,008
-447,124	-71,824	-0,053	-0,014
-446,109	363,185	0,073	-0,108
-445,095	-200,000	0,013	-0,044
-444,080	-6,885	0,049	0,024
-443,065	800,000	0,053	0,113
-442,051	-95,821	-0,077	-0,015
-441,036	-130,302	-0,060	0,006
-440,022	194,676	0,047	-0,053
-439,007	800,000	-0,060	-0,171
-437,992	50,812	0,021	-0,014
-436,978	-118,960	0,058	0,007
-435,963	256,994	0,019	0,024
-434,949	167,512	-0,011	-0,012
-433,934	32,188	0,045	0,028
-432,919	-50,826	-0,112	0,039
-431,905	23,431	0,117	-0,071
-430,890	41,126	0,074	-0,049
-429,876	800,000	0,039	0,113
-428,861	-200,000	0,042	0,165
-427,846	-64,967	0,061	-0,018
-426,832	5,564	-0,021	0,011
-425,817	-100,391	-0,106	-0,019
-424,803	800,000	0,027	-0,061
-423,788	186,318	0,105	0,115
-422,773	-7,608	0,096	-0,048
-421,759	19,691	0,122	0,072
-420,744	-200,000	0,003	0,083
-419,730	-64,127	-0,092	0,027
-418,715	169,912	-0,043	-0,046
-417,701	-200,000	0,004	-0,030
-416,686	-14,899	-0,069	-0,032
-415,671	25,880	-0,050	0,031
-414,657	-200,000	0,010	0,063
-413,642	-96,492	0,036	0,007
-412,628	-200,000	0,013	0,108
-411,613	-200,000	0,023	0,116
-410,598	-80,685	0,022	0,005
-409,584	-200,000	0,022	-0,080
-408,569	0,308	0,061	0,032
-407,555	476,947	-0,044	-0,073
-406,540	-200,000	0,008	0,121
-405,525	-200,000	0,012	-0,199
-404,511	43,555	-0,136	-0,091
-403,496	-200,000	0,005	-0,111
-402,482	10,037	0,145	-0,081
-401,467	-53,624	0,125	-0,042
-400,452	800,000	-0,028	0,060
-399,438	-65,553	-0,114	0,033
-398,423	-200,000	0,025	0,122
-397,409	-200,000	0,003	-0,156
-396,394	464,737	-0,056	-0,092
-395,379	178,257	-0,043	-0,046
-394,365	-103,521	-0,098	-0,017
-393,350	-200,000	-0,005	0,093
-392,336	85,383	-0,033	-0,027
-391,321	18,118	-0,077	0,045
-390,306	-89,411	0,098	0,021
-389,292	-192,150	-0,117	-0,001
-388,277	-109,814	0,129	0,020
-387,263	-12,308	0,134	-0,064
-386,248	-110,293	0,132	-0,020
-385,233	454,517	-0,056	0,091
-384,219	-7,081	0,034	0,017
-383,204	184,116	-0,071	-0,078
-382,190	220,212	-0,008	-0,009
-381,175	463,320	0,031	-0,052
-380,160	155,796	-0,061	0,062
-379,146	-58,448	0,081	0,026
-378,131	47,078	-0,115	0,079
-377,117	347,983	-0,040	0,058
-376,102	31,587	0,195	0,123
-375,088	682,875	0,038	-0,072
-374,073	31,622	0,041	-0,026
-373,058	-79,567	-0,102	0,025
-372,044	-200,000	0,008	0,113
-371,029	100,406	-0,197	0,168
-370,015	69,294	0,021	-0,016
-369,000	279,986	0,063	0,082
-367,985	-200,000	0,023	-0,107
-366,971	0,647	-0,160	-0,084
-365,956	-200,000	0,009	-0,043
-364,942	333,619	0,054	0,077
-363,927	635,610	0,039	0,073
-362,912	-6,243	-0,054	0,027
-361,898	59,465	-0,100	-0,072
-360,883	290,501	-0,079	0,105
-359,869	-61,626	0,070	0,021
-358,854	-200,000	0,016	-0,153
-357,839	-200,000	0,020	-0,128
-356,825	-200,000	0,012	0,048
-355,810	568,817	-0,051	0,091
-354,796	574,678	-0,034	0,061
-353,781	149,283	-0,065	-0,065
-352,766	758,883	0,052	-0,104
-351,752	-83,924	0,031	-0,007
-350,737	64,052	0,020	0,015
-349,723	111,700	0,073	0,064
-348,708	800,000	-0,042	0,089
-347,693	-108,459	-0,130	-0,020
-346,679	-93,449	-0,031	-0,006
-345,664	290,492	-0,069	0,092
-344,650	-200,000	0,006	0,060
-343,635	538,935	-0,012	-0,021
-342,620	-187,570	0,075	0,001
-341,606	-143,412	0,049	-0,003
-340,591	324,284	0,026	-0,037
-339,577	518,643	0,040	-0,069
-338,562	-200,000	-0,053	-0,187
-337,548	42,896	-0,066	-0,044
-336,533	-56,401	0,162	0,052
-335,518	-1,898	-0,097	0,050
-334,504	440,254	0,029	-0,046
-333,489	233,074	0,065	0,078
-332,475	-200,000	0,004	0,053
-331,460	85,027	0,068	-0,055
-330,445	-200,000	0,005	-0,057
-329,431	97,957	0,060	0,051
-328,416	-200,000	-0,013	-0,073
-327,402	645,940	-0,016	-0,030
-326,387	47,645	-0,127	-0,087
-325,372	800,000	0,033	0,082
-324,358	303,774	0,100	-0,136
-323,343	127,336	0,015	-0,014
-322,329	-200,000	-0,001	-0,032
-321,314	515,450	0,051	0,088
-320,299	800,000	-0,056	0,133
-319,285	-113,625	0,106	0,015
-318,270	-124,033	0,143	0,016
-317,256	230,440	-0,040	0,049
-316,241	-131,966	-0,067	0,006
-315,226	800,000	0,056	0,129
-314,212	73,578	0,061	0,047
-313,197	800,000	-0,029	0,063
-312,183	-200,000	0,014	0,116
-311,168	1,015	-0,098	0,051
-310,153	-128,743	0,047	0,005
-309,139	-127,055	-0,050	-0,005
-308,124	38,563	-0,084	0,055
-307,110	257,795	0,146	0,184
-306,095	-200,000	0,033	0,171
-305,080	129,595	-0,069	0,065
-304,066	288,498	0,028	-0,037
-303,051	264,353	-0,067	0,086
-302,037	456,163	0,015	0,025
-301,022	63,318	-0,041	-0,030
-300,008	-46,191	0,084	0,030
-298,993	60,412	0,151	-0,109
-297,978	355,854	0,091	0,132
-296,964	-137,690	0,073	-0,006
-295,949	-103,858	0,018	-0,003
-294,935	501,530	-0,022	-0,038
-293,920	-200,000	0,058	-0,256
-292,905	217,847	-0,093	-0,109
-291,891	-200,000	-0,021	-0,085
-290,876	800,000	0,015	0,035
-289,862	-200,000	-0,015	-0,097
-288,847	466,079	0,045	-0,074
-287,832	41,877	-0,110	-0,073
-286,818	191,284	-0,042	0,046
-285,803	39,711	0,032	0,021
-284,789	246,296	-0,042	-0,052
-283,774	25,077	0,091	-0,055
-282,759	-130,278	-0,031	0,003
-281,745	222,970	-0,066	-0,078
-280,730	-19,479	0,037	0,017
-279,716	729,942	0,051	0,101
-278,701	672,686	-0,063	0,120
-277,686	-200,000	0,023	0,135
-276,672	-200,000	-0,001	0,020
-275,657	20,245	0,035	0,021
-274,643	-200,000	0,034	-0,146
-273,628	427,711	0,066	-0,105
-272,613	198,954	0,095	-0,106
-271,599	286,842	0,074	-0,098
-270,584	-64,741	0,097	-0,029
-269,570	398,952	-0,036	0,055
-268,555	13,591	0,116	0,066
-267,540	800,000	-0,053	-0,128
-266,526	-120,718	-0,089	0,011
-265,511	-200,000	0,005	0,123
-264,497	-200,000	-0,010	0,112
-263,482	-84,686	0,107	-0,024
-262,467	-27,162	-0,049	-0,021
-261,453	-44,437	-0,126	-0,046
-260,438	-200,000	-0,022	0,108
-259,424	800,000	-0,028	-0,073
-258,409	-200,000	0,002	-0,079
-257,395	-37,502	-0,106	-0,041
-256,380	-12,828	0,133	-0,063
-255,365	-119,579	-0,032	-0,004
-254,351	29,134	-0,089	-0,055
-253,336	-100,744	0,123	0,022
-252,322	74,029	0,069	-0,053
-251,307	348,794	0,040	0,058
-250,292	35,373	0,075	0,048
-249,278	78,833	-0,045	0,035
-248,263	-200,000	0,003	0,022
-247,249	-200,000	-0,008	0,075
-246,234	-33,897	-0,005	-0,002
-245,219	513,172	-0,043	-0,073
-244,205	-200,000	0,003	-0,049
-243,190	189,451	-0,063	0,069
-242,176	229,317	0,034	0,040
-241,161	-200,000	0,002	0,049
-240,146	707,248	-0,075	0,145
-239,132	-58,595	0,043	-0,014
-238,117	-33,892	-0,034	-0,014
-237,103	79,813	-0,040	0,031
-236,088	-200,000	0,012	-0,068
-235,073	179,737	0,103	0,110
-234,059	800,000	-0,023	-0,060
-233,044	-200,000	0,015	0,067
-232,030	-200,000	-0,020	0,160
-231,015	-18,386	-0,052	0,023
-230,000	5,598	0,037	-0,020
-228,986	-59,510	-0,129	0,040
-227,971	-200,000	-0,016	0,115
-226,957	-57,952	0,157	0,050
-225,942	202,549	-0,017	-0,019
-224,927	-183,212	-0,091	0,001
-223,913	65,737	0,060	-0,044
-222,898	132,100	0,092	0,086
-221,884	-200,000	0,003	-0,011
-220,869	-107,346	0,088	0,014
-219,855	-200,000	0,008	-0,176
-218,840	-178,908	0,098	0,002
-217,825	-106,604	-0,011	0,002
-216,811	-138,944	-0,050	-0,004
-215,796	124,432	-0,080	-0,073
-214,782	-134,198	0,026	0,002
-213,767	-200,000	-0,014	0,133
-212,752	11,869	0,100	0,056
-211,738	39,943	-0,094	-0,061
-210,723	-200,000	0,003	0,021
-209,709	-128,891	0,113	0,011
-208,694	70,260	0,015	-0,012
-207,679	-200,000	-0,015	0,052
-206,665	88,574	-0,102	0,083
-205,650	29,764	0,073	-0,045
-204,636	224,791	-0,030	0,035
-203,621	800,000	0,008	-0,025
-202,606	-148,815	-0,148	-0,009
-201,592	-200,000	-0,004	-0,108
-200,577	-200,000	0,011	-0,085
-199,563	-200,000	0,007	-0,079
-198,548	-200,000	-0,007	0,176
-197,533	-73,957	-0,080	-0,021
-196,519	-163,296	0,030	-0,001
-195,504	-200,000	-0,012	0,048
-194,490	35,154	-0,118	0,075
-193,475	-53,606	0,013	-0,004
-192,460	-90,378	-0,061	0,013
-191,446	33,418	-0,200	0,126
-190,431	-200,000	0,014	0,114
-189,417	192,003	-0,077	0,084
-188,402	45,401	-0,076	0,051
-187,387	248,121	-0,051	-0,063
-186,373	-40,727	0,087	-0,033
-185,358	265,244	0,086	-0,110
-184,344	-4,424	0,134	0,067
-183,329	-73,100	0,053	-0,014
-182,315	255,584	-0,006	0,007
-181,300	647,207	0,003	-0,006
-180,285	581,424	0,032	-0,058
-179,271	-200,000	0,010	-0,113
-178,256	5,478	0,011	0,006
-177,242	-200,000	0,018	-0,152
-176,227	800,000	0,045	-0,097
-175,212	-58,966	0,192	0,060
-174,198	721,405	0,018	0,035
-173,183	45,023	0,089	-0,060
-172,169	-200,000	-0,002	0,014
-171,154	-100,558	-0,068	0,012
-170,139	-42,076	0,089	0,033
-169,125	197,264	0,031	0,034
-168,110	-104,936	0,105	0,017
-167,096	-200,000	-0,024	-0,124
-166,081	306,128	0,079	0,107
-165,066	-200,000	-0,001	-0,009
-164,052	-200,000	-0,006	-0,134
-163,037	800,000	0,030	0,080
-162,023	-200,000	0,044	0,155
-161,008	-189,671	-0,100	-0,001
-159,993	-127,808	0,215	-0,022
-158,979	-200,000	0,015	-0,109
-157,964	377,801	-0,095	-0,142
-156,950	507,337	0,067	-0,114
-155,935	-119,807	0,140	-0,017
-154,920	283,104	-0,044	0,057
-153,906	218,668	0,120	0,140
-152,891	-95,792	-0,184	0,035
-151,877	-10,392	0,010	0,005
-150,862	-200,000	-0,028	-0,119
-149,847	149,980	-0,040	-0,040
-148,833	-127,802	-0,144	0,015
-147,818	206,468	0,059	0,067
-146,804	800,000	0,051	0,154
-145,789	800,000	0,019	0,050
-144,775	612,795	0,013	0,024
-143,760	-65,771	-0,108	-0,031
-142,745	23,128	-0,117	0,069
-141,731	393,799	-0,009	-0,013
-140,716	85,653	0,101	0,081
-139,702	-200,000	-0,006	0,086
-138,687	-175,209	0,063	0,001
-137,672	-200,000	0,014	-0,084
-136,658	147,377	-0,085	-0,083
-135,643	-200,000	-0,000	-0,049
-134,629	-136,970	-0,095	-0,008
-133,614	348,869	0,039	0,056
-132,599	134,208	0,020	-0,019
-131,585	448,890	-0,038	0,061
-130,570	116,194	0,084	-0,075
-129,556	-200,000	0,006	-0,034
-128,541	-26,441	-0,013	0,005
-127,526	800,000	-0,024	-0,069
-126,512	443,828	0,054	0,086
-125,497	-200,000	0,018	0,124
-124,483	256,329	0,041	0,051
-123,468	-200,000	0,010	-0,134
-122,453	-200,000	0,007	-0,052
-121,439	-200,000	0,008	0,131
-120,424	56,563	-0,075	-0,053
-119,410	135,303	-0,080	0,075
-118,395	78,295	0,114	0,088
-117,380	-200,000	0,019	0,128
-116,366	-162,240	-0,047	0,002
-115,351	-200,000	-0,007	0,052
-114,337	13,029	0,044	0,025
-113,322	-72,267	0,051	-0,014
-112,307	800,000	0,020	0,056
-111,293	250,157	0,037	-0,046
-110,278	43,397	-0,034	-0,022
-109,264	-38,376	-0,102	0,039
-108,249	800,000	0,022	0,046
-107,234	68,009	0,071	-0,053
-106,220	523,087	-0,059	-0,102
-105,205	23,352	0,099	-0,059
-104,191	-164,657	-0,122	-0,004
-103,176	800,000	0,046	0,125
-102,162	41,192	0,071	-0,046
-101,147	0,954	-0,079	-0,041
-100,132	-22,348	0,103	0,045
-99,118	-126,825	-0,096	0,010
-98,103	-21,571	0,068	-0,030
-97,089	800,000	0,098	-0,231
-96,074	544,312	0,005	0,009
-95,059	800,000	0,039	0,118
-94,045	164,883	-0,110	0,113
-93,030	-95,385	-0,078	-0,015
-92,016	-55,131	0,053	-0,017
-91,001	800,000	0,021	0,061
-89,986	-76,734	-0,144	-0,036
-88,972	-24,678	0,146	-0,063
-87,957	-200,000	0,011	-0,086
-86,943	42,419	0,064	-0,042
-85,928	-20,519	-0,146	-0,065
-84,913	-200,000	0,026	-0,191
-83,899	-64,262	-0,045	0,013
-82,884	749,720	-0,016	0,031
-81,870	350,592	0,042	0,061
-80,855	-10,296	-0,088	-0,042
-79,840	-51,004	-0,040	0,014
-78,826	-64,122	0,051	-0,015
-77,811	78,689	-0,088	-0,069
-76,797	69,506	0,074	0,055
-75,782	711,043	-0,048	0,093
-74,767	272,068	0,075	0,097
-73,753	488,550	-0,115	0,191
-72,738	800,000	-0,028	0,062
-71,724	46,619	0,019	-0,013
-70,709	-131,293	0,107	0,010
-69,694	-200,000	0,011	-0,071
-68,680	-105,594	0,084	-0,014
-67,665	108,078	-0,061	-0,053
-66,651	337,507	0,061	-0,086
-65,636	326,720	-0,093	0,130
-64,622	126,939	0,142	0,130
-63,607	98,344	0,118	-0,098
-62,592	160,271	-0,096	0,097
-61,578	-120,532	-0,034	-0,004
-60,563	664,185	0,061	0,115
-59,549	62,923	-0,051	0,037
-58,534	-70,522	-1,599	-0,435
-57,519	800,000	-0,684	-1,399
-56,505	-200,000	-0,920	-4,352
-55,490	-121,114	0,661	-0,079
-54,476	800,000	4,966	11,816
-53,461	-200,000	15,145	263,011
-52,446	-200,000	697,856	2237,794
-51,432	584,741	1620,205	2896,598
-50,417	120,094	1627,062	1462,551
-49,403	81,103	1281,877	1001,977
-48,388	37,588	1021,554	655,473
-47,373	22,576	982,129	580,803
-46,359	21,657	971,100	571,242
-45,344	20,305	966,705	564,217
-44,330	20,313	965,561	563,553
-43,315	20,122	963,985	561,986
-42,300	20,100	963,088	561,370
-41,286	20,136	961,970	560,813
-40,271	20,117	961,039	560,187
-39,257	20,096	960,175	559,591
-38,242	20,150	959,264	559,213
-37,227	20,093	958,498	558,562
-36,213	20,052	957,625	557,898
-35,198	20,030	956,607	557,211
-34,184	20,140	955,977	557,176
-33,169	20,041	954,977	556,254
-32,154	20,100	953,989	555,846
-31,140	20,126	953,099	555,390
-30,125	20,131	952,506	555,037
-29,111	20,146	951,648	554,565
-28,096	20,130	951,075	554,157
-27,082	20,057	950,439	553,528
-26,067	20,079	949,417	552,984
-25,052	20,040	948,654	552,392
-24,038	20,037	948,065	552,018
-23,023	20,057	947,388	551,663
-22,009	20,143	946,614	551,467
-20,994	20,129	946,161	551,137
-19,979	20,067	945,620	550,600
-18,965	20,062	945,047	550,232
-17,950	20,035	944,520	549,816
-16,936	19,997	943,762	549,231
-15,921	20,058	942,872	548,885
-14,906	19,960	942,189	548,155
-13,892	19,958	941,686	547,834
-12,877	19,947	941,132	547,453
-11,863	19,890	940,412	546,832
-10,848	19,890	940,020	546,581
-9,833	20,059	939,426	546,752
-8,819	19,993	938,749	546,126
-7,804	19,984	938,117	545,708
-6,790	19,922	937,793	545,302
-5,775	19,935	937,152	544,950
-4,760	19,937	936,492	544,551
-3,746	19,978	935,724	544,212
-2,731	19,802	935,101	543,274
-1,717	19,772	934,282	542,680
-0,702	19,786	933,731	542,383
0,313	19,516	933,252	542,071
1,327	22,101	930,872	548,775
2,342	29,563	806,087	495,390
3,356	23,730	506,662	301,421
4,371	-0,526	373,977	191,554
5,386	-3,393	357,226	179,430
6,400	-4,385	351,342	175,259
7,415	-4,806	349,015	173,576
8,429	-4,732	347,538	172,914
9,444	-4,711	346,423	172,369
10,459	-4,729	345,798	172,021
11,473	-4,785	345,318	171,701
12,488	-4,709	344,623	171,431
13,502	-4,721	344,124	171,152
14,517	-4,689	343,577	170,903
15,531	-4,722	343,210	170,666
16,546	-4,514	342,733	170,659
17,561	-4,690	342,520	170,330
18,575	-4,481	341,999	170,302
19,590	-4,468	341,651	170,129
20,604	-4,586	341,240	169,771
21,619	-4,578	340,946	169,619
22,634	-4,728	340,736	169,324
23,648	-4,607	340,249	169,207
24,663	-4,628	339,951	169,020
25,677	-4,610	339,588	168,845
26,692	-4,532	339,337	168,797
27,707	-4,809	339,144	168,363
28,721	-4,556	338,716	168,430
29,736	-4,590	338,398	168,217
30,750	-4,603	338,028	168,002
31,765	-4,734	337,764	167,705
32,780	-4,455	337,593	167,929
33,794	-4,549	337,139	167,580
34,809	-4,704	337,000	167,315
35,823	-4,540	336,634	167,308
36,838	-4,529	336,325	167,152
37,853	-4,600	336,171	166,980
38,867	-4,511	335,918	166,941
39,882	-4,622	335,633	166,657
40,896	-4,478	335,307	166,646
41,911	-4,474	334,992	166,479
42,926	-4,503	334,651	166,262
43,940	-4,519	334,433	166,119
44,955	-4,689	334,193	165,790
45,969	-4,672	334,068	165,734
46,984	-4,573	333,757	165,678
47,999	-4,436	333,574	165,729
49,013	-4,517	333,250	165,461
50,028	-4,520	333,141	165,388
51,042	-4,559	332,777	165,148
52,057	-4,644	332,485	164,892
53,071	-4,588	332,216	164,808
54,086	-4,671	332,171	164,676
55,101	-4,640	331,763	164,494
56,115	-4,490	331,423	164,482
57,130	-4,671	331,223	164,162
58,144	-4,607	330,867	164,044
59,159	-4,724	330,588	163,758
60,174	-4,667	330,316	163,673
61,188	-4,626	330,264	163,679
62,203	-4,499	329,799	163,578
63,217	-4,578	329,534	163,343
64,232	-4,528	329,320	163,278
65,247	-4,651	328,996	162,964
66,261	-4,797	328,933	162,754
67,276	-4,585	328,464	162,747
68,290	-4,623	328,386	162,650
69,305	-4,572	328,142	162,572
70,320	-4,570	327,811	162,396
71,334	-4,616	327,531	162,191
72,349	-4,618	327,294	162,057
73,363	-4,542	326,951	161,958
74,378	-4,760	326,806	161,627
75,393	-4,543	326,455	161,682
76,407	-4,538	326,337	161,615
77,422	-4,609	326,000	161,355
78,436	-4,505	325,605	161,260
79,451	-4,680	325,567	161,033
80,466	-4,464	325,196	161,075
81,480	-4,540	324,924	160,841
82,495	-4,513	324,809	160,800
83,509	-4,328	324,560	160,868
84,524	-4,444	324,177	160,534
85,539	-4,415	324,056	160,494
86,553	-4,544	323,938	160,277
87,568	-4,417	323,586	160,230
88,582	-4,610	323,371	159,896
89,597	-4,593	323,161	159,795
90,611	-4,482	322,827	159,739
91,626	-4,587	322,658	159,525
92,641	-4,678	322,437	159,301
93,655	-4,484	322,133	159,351
94,670	-4,595	321,979	159,138
95,684	-4,500	321,507	158,995
96,699	-4,563	321,387	158,853
97,714	-4,553	321,187	158,750
98,728	-4,441	320,994	158,763
99,743	-4,472	320,818	158,628
100,757	-4,403	320,446	158,506
101,772	-4,449	320,223	158,331
102,787	-4,570	320,110	158,128
103,801	-4,516	319,670	157,956
104,816	-4,543	319,558	157,858
105,830	-4,654	319,308	157,599
106,845	-4,645	319,019	157,452
107,860	-4,558	318,864	157,456
108,874	-4,650	318,627	157,225
109,889	-4,471	318,251	157,220
110,903	-4,523	318,102	157,076
111,918	-4,486	317,803	156,954
112,933	-4,561	317,601	156,759
113,947	-4,759	317,560	156,510
114,962	-4,602	317,299	156,538
115,976	-4,440	317,005	156,554
116,991	-4,588	316,757	156,257
118,006	-4,502	316,562	156,240
119,020	-4,636	316,473	156,037
120,035	-4,442	316,204	156,100
121,049	-4,591	315,972	155,812
122,064	-4,460	315,779	155,844
123,079	-4,588	315,542	155,575
124,093	-4,579	315,261	155,432
125,108	-4,552	315,176	155,405
126,122	-4,401	314,855	155,396
127,137	-4,289	314,605	155,379
128,151	-4,427	314,360	155,096
129,166	-4,394	314,156	155,017
130,181	-4,279	313,867	154,983
131,195	-4,448	313,652	154,682
132,210	-4,446	313,358	154,526
133,224	-4,471	313,090	154,353
134,239	-4,592	313,089	154,210
135,254	-4,497	312,679	154,095
136,268	-4,518	312,500	153,971
137,283	-4,448	312,422	153,994
138,297	-4,414	312,095	153,854
139,312	-4,463	311,820	153,653
140,327	-4,505	311,631	153,502
141,341	-4,465	311,430	153,432
142,356	-4,528	311,073	153,175
143,370	-4,515	311,021	153,150
144,385	-4,452	310,742	153,065
145,400	-4,501	310,597	152,929
146,414	-4,535	310,300	152,733
147,429	-4,524	310,096	152,630
148,443	-4,356	309,754	152,625
149,458	-4,402	309,689	152,531
150,473	-4,565	309,349	152,179
151,487	-4,467	309,169	152,179
152,502	-4,435	309,040	152,136
153,516	-4,473	308,629	151,880
154,531	-4,624	308,527	151,659
155,546	-4,514	308,264	151,631
156,560	-4,407	308,049	151,624
157,575	-4,536	307,959	151,431
158,589	-4,419	307,622	151,374
159,604	-4,418	307,407	151,255
160,619	-4,420	307,310	151,192
161,633	-4,415	307,008	151,036
162,648	-4,538	306,891	150,836
163,662	-4,560	306,625	150,669
164,677	-4,587	306,417	150,526
165,692	-4,597	306,249	150,419
166,706	-4,428	305,991	150,455
167,721	-4,340	305,752	150,415
168,735	-4,299	305,733	150,435
169,750	-4,393	305,456	150,188
170,764	-4,622	305,285	149,853
171,779	-4,499	305,007	149,830
172,794	-4,426	304,872	149,826
173,808	-4,379	304,565	149,711
174,823	-4,619	304,593	149,462
175,837	-4,510	304,250	149,394
176,852	-4,454	303,943	149,288
177,867	-4,543	303,714	149,070
178,881	-4,341	303,449	149,135
179,896	-4,535	303,367	148,881
180,910	-4,488	303,167	148,818
181,925	-4,477	302,901	148,685
182,940	-4,518	302,728	148,545
183,954	-4,396	302,499	148,545
184,969	-4,503	302,377	148,362
185,983	-4,348	302,299	148,470
186,998	-4,351	301,992	148,303
188,013	-4,358	301,700	148,139
189,027	-4,317	301,417	148,029
190,042	-4,374	301,264	147,882
191,056	-4,461	301,030	147,665
192,071	-4,626	301,037	147,487
193,086	-4,447	300,655	147,469
194,100	-4,508	300,425	147,281
195,115	-4,422	300,210	147,250
196,129	-4,328	299,963	147,211
197,144	-4,423	299,846	147,044
198,159	-4,554	299,693	146,823
199,173	-4,403	299,276	146,759
200,188	-4,670	299,207	146,440
201,202	-4,632	298,895	146,313
202,217	-4,288	298,718	146,562
203,232	-4,521	298,612	146,261
204,246	-4,541	298,299	146,075
205,261	-4,304	298,097	146,202
206,275	-4,417	297,925	145,991
207,290	-4,513	297,827	145,832
208,304	-4,233	297,552	145,967
209,319	-4,395	297,356	145,695
210,334	-4,372	297,115	145,587
211,348	-4,628	296,973	145,247
212,363	-4,441	296,633	145,256
213,377	-4,442	296,563	145,207
214,392	-4,396	296,275	145,100
215,407	-4,342	296,097	145,053
216,421	-4,260	295,869	145,011
217,436	-4,484	295,807	144,744
218,450	-4,504	295,655	144,636
219,465	-4,518	295,470	144,518
220,480	-4,317	295,065	144,508
221,494	-4,403	294,937	144,347
222,509	-4,585	294,775	144,073
223,523	-4,420	294,583	144,131
224,538	-4,456	294,385	143,986
225,553	-4,440	294,198	143,897
226,567	-4,466	293,952	143,738
227,582	-4,488	293,991	143,722
228,596	-4,431	293,629	143,590
229,611	-4,545	293,498	143,399
230,626	-4,482	293,278	143,342
231,640	-4,406	292,983	143,260
232,655	-4,311	292,798	143,251
233,669	-4,278	292,632	143,190
234,684	-4,264	292,539	143,145
235,699	-4,535	292,273	142,734
236,713	-4,254	292,099	142,914
237,728	-4,368	291,946	142,715
238,742	-4,466	291,714	142,491
239,757	-4,430	291,371	142,346
240,772	-4,523	291,322	142,218
241,786	-4,427	291,083	142,183
242,801	-4,423	290,978	142,123
243,815	-4,347	290,654	142,027
244,830	-4,467	290,571	141,855
245,844	-4,568	290,412	141,666
246,859	-4,536	290,127	141,547
247,874	-4,613	289,933	141,363
248,888	-4,496	289,741	141,372
249,903	-4,532	289,543	141,227
250,917	-4,572	289,433	141,122
251,932	-4,648	289,141	140,893
252,947	-4,824	288,835	140,560
253,961	-5,373	288,501	139,851
254,976	-5,289	288,185	139,766
255,990	-5,046	288,129	139,963
257,005	-3,628	288,682	141,599
258,020	-1,335	289,483	144,215
259,034	-0,060	289,817	145,613
260,049	0,484	289,809	146,125
261,063	0,988	289,947	146,673
262,078	1,229	289,724	146,781
263,093	1,622	289,705	147,142
264,107	1,742	289,582	147,182
265,122	2,000	289,466	147,361
266,136	2,038	289,299	147,300
267,151	2,128	289,087	147,266
268,166	2,008	288,908	147,046
269,180	2,124	288,740	147,059
270,195	2,055	288,581	146,898
271,209	2,162	288,320	146,856
272,224	1,974	288,292	146,646
273,239	2,007	288,071	146,553
274,253	1,988	287,722	146,344
275,268	1,952	287,575	146,221
276,282	1,968	287,377	146,123
277,297	2,012	287,206	146,066
278,312	1,877	287,032	145,835
279,326	1,838	286,940	145,737
280,341	1,934	286,643	145,665
281,355	1,976	286,427	145,582
282,370	1,991	286,270	145,504
283,384	1,940	286,138	145,375
284,399	1,807	285,907	145,118
285,414	2,002	285,691	145,181
286,428	1,901	285,476	144,963
287,443	1,754	285,382	144,762
288,457	1,770	285,088	144,615
289,472	1,733	284,865	144,453
290,487	1,924	284,695	144,537
291,501	1,748	284,596	144,305
292,516	1,846	284,362	144,268
293,530	1,723	284,246	144,078
294,545	1,825	284,162	144,121
295,560	1,637	283,867	143,779
296,574	1,787	283,522	143,734
297,589	1,877	283,379	143,734
298,603	1,743	283,318	143,564
299,618	1,605	283,111	143,315
300,633	1,870	282,809	143,400
301,647	1,729	282,764	143,230
302,662	1,880	282,495	143,225
303,676	1,984	282,420	143,272
304,691	1,903	282,237	143,090
305,706	2,026	282,148	143,148
306,720	2,165	281,824	143,102
307,735	2,028	281,698	142,896
308,749	1,988	281,430	142,710
309,764	2,063	281,306	142,705
310,779	1,988	281,177	142,556
311,793	1,898	281,071	142,406
312,808	1,907	280,688	142,206
313,822	1,926	280,556	142,145
314,837	1,905	280,307	141,987
315,852	2,021	280,107	141,982
316,866	1,856	279,934	141,726
317,881	1,976	279,721	141,718
318,895	1,927	279,627	141,612
319,910	1,955	279,291	141,455
320,925	1,882	279,227	141,343
321,939	1,907	279,214	141,347
322,954	1,969	279,041	141,305
323,968	1,964	278,882	141,207
324,983	1,939	278,517	140,986
325,997	2,001	278,478	141,011
327,012	2,077	278,213	140,935
328,027	1,959	278,057	140,734
329,041	1,942	277,801	140,576
330,056	2,045	277,657	140,585
331,070	2,223	277,586	140,703
332,085	2,176	277,320	140,511
333,100	2,071	277,155	140,318
334,114	1,973	277,047	140,161
335,129	2,062	276,826	140,119
336,143	2,141	276,562	140,045
337,158	2,010	276,540	139,901
338,173	2,119	276,195	139,813
339,187	2,052	276,126	139,704
340,202	2,128	275,908	139,652
341,216	1,825	275,769	139,290
342,231	1,981	275,719	139,396
343,246	1,974	275,460	139,247
344,260	1,895	275,229	139,045
345,275	2,115	275,060	139,148
346,289	2,081	275,000	139,074
347,304	1,981	274,788	138,863
348,319	2,147	274,453	138,834
349,333	2,077	274,358	138,709
350,348	2,237	274,059	138,693
351,362	2,107	273,936	138,499
352,377	2,013	273,915	138,390
353,392	2,234	273,660	138,450
354,406	2,155	273,598	138,335
355,421	193,080	1347,576	1431,562
356,435	155,983	1478,501	1431,666
