DTS Sentinel unit serial number:	SN410029Multiplexer serial number:	ORYXHardware model number:	OX2-SRSoftware version number:	ORYX F/W v4,00 Oryx Data Collector v3.7.2.0data status	okinstallation	B4 Nyhavnadifferential loss correction	single-endedforward channel	channel 2reverse channel	N/Adate	2023/12/18time	21:05:13forward acquisition time	300,00reverse acquisition time	0,00gamma	499,1914k internal	0,3123k external	0,3123temperature offset calibration	1,0000default loss term (dB/km)	0,3820temperature slope calibration	1,0000multiplexer offset coefficient	1,0000multiplexer slope coefficient	1,0000fibre end	0,00T internal ref (°C)	21,84T ext. ref 1 (°C)	7,12T ext. ref 2 (°C)	7,11length (m)	temperature (°C)	Stokes	anti-Stokes-744,400	239,708	-0,037	0,046
-743,385	86,791	-0,240	0,197
-742,371	-78,037	0,080	0,020
-741,356	-63,011	-0,128	0,039
-740,342	57,946	0,134	0,097
-739,327	60,641	-0,165	0,122
-738,312	489,173	-0,042	-0,071
-737,298	-70,622	-0,112	-0,031
-736,283	-200,000	0,014	-0,095
-735,269	12,528	-0,233	0,134
-734,254	179,300	-0,046	-0,050
-733,239	-96,402	-0,360	-0,070
-732,225	309,442	0,109	-0,152
-731,210	705,349	0,054	0,107
-730,196	-3,666	-0,035	0,018
-729,181	-200,000	0,016	-0,099
-728,167	321,514	0,081	0,115
-727,152	-57,304	-0,087	0,028
-726,137	-200,000	0,000	-0,094
-725,123	667,662	-0,031	0,060
-724,108	800,000	-0,042	-0,112
-723,094	-132,167	-0,119	-0,011
-722,079	160,332	0,043	-0,045
-721,064	-113,104	0,109	-0,016
-720,050	-38,546	-0,129	0,051
-719,035	704,458	-0,050	-0,098
-718,021	166,187	-0,097	-0,103
-717,006	494,917	0,024	0,041
-715,991	-25,677	-0,120	0,052
-714,977	800,000	-0,066	-0,147
-713,962	-200,000	-0,046	-0,151
-712,948	-78,819	0,080	0,020
-711,933	800,000	-0,068	0,167
-710,918	800,000	-0,014	-0,034
-709,904	800,000	0,018	-0,041
-708,889	-61,034	-0,084	-0,026
-707,875	-36,798	-0,092	-0,036
-706,860	800,000	-0,035	-0,095
-705,845	124,969	0,010	0,010
-704,831	131,854	-0,094	0,090
-703,816	-85,708	-0,078	0,018
-702,802	-200,000	0,007	0,042
-701,787	711,018	-0,104	-0,207
-700,772	800,000	0,078	-0,173
-699,758	596,832	-0,022	-0,041
-698,743	318,402	-0,058	0,081
-697,729	462,371	-0,031	0,052
-696,714	344,968	-0,094	0,138
-695,699	800,000	0,013	-0,037
-694,685	473,606	0,069	-0,116
-693,670	-79,160	-0,087	-0,022
-692,656	-200,000	-0,002	-0,062
-691,641	-159,159	0,081	-0,003
-690,627	-200,000	-0,011	0,122
-689,612	-89,362	0,103	0,022
-688,597	-176,609	-0,047	-0,001
-687,583	729,229	-0,021	-0,042
-686,568	43,578	-0,070	0,047
-685,554	81,805	0,034	-0,027
-684,539	800,000	-0,029	-0,085
-683,524	-159,041	-0,052	-0,002
-682,510	204,793	0,041	0,047
-681,495	-200,000	0,008	-0,035
-680,481	409,767	-0,036	-0,057
-679,466	295,969	-0,062	-0,084
-678,451	-24,915	0,103	0,045
-677,437	503,592	0,012	0,021
-676,422	800,000	-0,049	-0,115
-675,408	95,160	0,084	0,071
-674,393	-161,386	-0,054	0,002
-673,378	800,000	-0,070	0,187
-672,364	36,809	0,049	0,032
-671,349	-200,000	0,002	-0,100
-670,335	-200,000	0,003	0,064
-669,320	210,886	-0,018	0,021
-668,305	-200,000	0,037	0,152
-667,291	-152,708	-0,166	0,009
-666,276	94,565	-0,087	-0,074
-665,262	214,159	0,009	0,011
-664,247	-200,000	0,019	-0,063
-663,232	-86,918	-0,016	-0,004
-662,218	-86,623	0,041	0,009
-661,203	-200,000	-0,004	-0,060
-660,189	146,338	0,080	-0,079
-659,174	-200,000	0,002	-0,278
-658,159	800,000	-0,043	-0,089
-657,145	-36,932	0,082	0,032
-656,130	-171,999	0,091	0,002
-655,116	449,495	-0,043	-0,071
-654,101	-131,933	0,030	-0,003
-653,086	21,901	0,093	0,056
-652,072	32,266	-0,057	0,037
-651,057	116,418	-0,090	-0,082
-650,043	165,285	0,087	-0,091
-649,028	385,823	0,034	-0,052
-648,014	784,875	-0,011	-0,022
-646,999	333,848	-0,010	-0,014
-645,984	-200,000	0,003	0,138
-644,970	-142,702	0,056	-0,004
-643,955	559,175	0,025	-0,045
-642,941	-200,000	-0,017	-0,068
-641,926	-200,000	-0,015	0,084
-640,911	-19,464	-0,042	0,019
-639,897	96,927	0,113	0,096
-638,882	42,602	0,063	-0,042
-637,868	312,082	-0,078	-0,108
-636,853	-200,000	-0,010	-0,171
-635,838	84,299	-0,049	0,040
-634,824	-200,000	0,010	0,037
-633,809	8,782	-0,096	0,053
-632,795	65,558	-0,083	0,063
-631,780	800,000	0,044	0,096
-630,765	277,949	-0,070	0,092
-629,751	39,659	-0,178	-0,119
-628,736	85,980	-0,108	-0,088
-627,722	-200,000	0,000	0,009
-626,707	-26,772	-0,068	-0,029
-625,692	-200,000	-0,028	0,193
-624,678	240,424	0,015	-0,018
-623,663	-103,166	-0,083	-0,014
-622,649	-68,141	-0,034	-0,010
-621,634	-4,380	0,086	0,044
-620,619	25,912	0,046	0,028
-619,605	136,051	0,067	-0,065
-618,590	-200,000	-0,016	-0,097
-617,576	-200,000	0,025	0,095
-616,561	-127,437	0,057	-0,006
-615,546	-200,000	-0,021	-0,196
-614,532	-141,105	-0,111	0,008
-613,517	-103,538	-0,066	0,011
-612,503	93,799	-0,105	0,088
-611,488	-102,138	0,043	0,008
-610,474	-99,572	0,029	-0,005
-609,459	-30,657	0,064	0,027
-608,444	-22,557	-0,097	0,043
-607,430	-91,039	-0,106	-0,022
-606,415	73,675	-0,041	-0,032
-605,401	371,817	0,014	0,021
-604,386	800,000	0,071	0,185
-603,371	-90,264	0,060	0,013
-602,357	-167,555	0,060	0,002
-601,342	-134,337	-0,098	-0,009
-600,328	-70,577	-0,076	0,021
-599,313	800,000	-0,028	-0,084
-598,298	17,614	0,058	0,034
-597,284	-200,000	0,011	-0,052
-596,269	-200,000	0,005	-0,139
-595,255	237,276	-0,022	0,027
-594,240	-200,000	0,005	0,047
-593,225	-178,705	0,151	-0,003
-592,211	70,023	-0,133	-0,101
-591,196	613,411	-0,081	-0,152
-590,182	98,756	0,094	-0,080
-589,167	247,867	0,082	0,103
-588,152	-0,885	0,105	-0,055
-587,138	-20,898	-0,225	-0,102
-586,123	11,287	0,165	-0,093
-585,109	299,902	0,063	0,086
-584,094	58,642	-0,105	-0,077
-583,079	800,000	-0,022	-0,049
-582,065	-144,485	-0,081	-0,005
-581,050	-98,348	-0,059	-0,011
-580,036	675,252	0,038	-0,074
-579,021	800,000	-0,044	-0,099
-578,006	33,442	-0,152	-0,097
-576,992	309,497	-0,023	0,032
-575,977	-200,000	0,021	0,119
-574,963	-66,172	-0,053	0,015
-573,948	-200,000	-0,001	-0,120
-572,934	800,000	0,044	-0,124
-571,919	-117,846	-0,123	0,016
-570,904	-200,000	-0,004	0,015
-569,890	-200,000	-0,013	-0,054
-568,875	-200,000	-0,001	0,016
-567,861	-80,542	-0,080	0,020
-566,846	-67,575	0,131	0,038
-565,831	767,350	-0,068	0,137
-564,817	314,067	-0,072	-0,100
-563,802	117,355	-0,098	-0,090
-562,788	-200,000	-0,021	-0,088
-561,773	-200,000	-0,024	0,096
-560,758	343,728	-0,032	0,047
-559,744	508,931	0,067	-0,116
-558,729	77,483	0,080	-0,063
-557,715	28,861	-0,068	0,043
-556,700	-52,937	0,095	-0,032
-555,685	29,213	-0,235	0,147
-554,671	-115,403	-0,092	-0,013
-553,656	181,573	0,044	-0,048
-552,642	-200,000	-0,041	-0,158
-551,627	-200,000	0,008	0,064
-550,612	-200,000	-0,007	0,049
-549,598	800,000	-0,030	-0,072
-548,583	441,134	-0,051	0,083
-547,569	237,826	0,100	-0,123
-546,554	-136,856	0,063	-0,005
-545,539	314,874	-0,038	0,052
-544,525	24,502	-0,040	-0,024
-543,510	-200,000	-0,001	0,013
-542,496	169,220	0,112	-0,118
-541,481	158,764	-0,128	-0,131
-540,466	99,668	-0,073	-0,063
-539,452	-152,965	-0,162	-0,008
-538,437	800,000	0,021	0,068
-537,423	-200,000	-0,013	0,194
-536,408	-39,759	0,098	-0,038
-535,393	245,925	-0,092	-0,115
-534,379	-200,000	-0,007	0,062
-533,364	-140,566	-0,126	0,010
-532,350	-200,000	0,028	0,112
-531,335	800,000	0,031	0,096
-530,321	-200,000	0,037	0,146
-529,306	-200,000	0,005	0,156
-528,291	680,989	-0,013	0,024
-527,277	-195,993	-0,044	0,000
-526,262	-10,442	-0,040	-0,020
-525,248	-200,000	0,016	0,070
-524,233	-100,212	-0,101	0,018
-523,218	-28,207	0,088	0,037
-522,204	-42,012	0,104	0,039
-521,189	-200,000	0,002	0,133
-520,175	-135,395	-0,128	0,011
-519,160	-200,000	-0,006	-0,132
-518,145	-200,000	0,016	0,056
-517,131	132,160	-0,062	0,059
-516,116	-42,977	-0,067	-0,025
-515,102	800,000	0,044	-0,107
-514,087	-96,688	-0,045	-0,009
-513,072	-140,269	0,058	-0,004
-512,058	145,450	0,058	-0,057
-511,043	535,019	0,032	-0,056
-510,029	-30,343	0,062	-0,026
-509,014	-103,577	-0,045	0,008
-507,999	800,000	-0,017	-0,046
-506,985	111,321	0,117	-0,104
-505,970	132,570	-0,031	0,029
-504,956	53,667	0,107	-0,076
-503,941	-200,000	0,008	-0,109
-502,926	-136,599	0,126	0,011
-501,912	151,822	-0,044	-0,044
-500,897	-56,887	-0,102	-0,033
-499,883	113,877	-0,068	-0,061
-498,868	30,613	-0,037	0,023
-497,853	-200,000	-0,026	-0,099
-496,839	-17,376	-0,093	-0,043
-495,824	766,943	-0,010	-0,021
-494,810	800,000	-0,014	0,029
-493,795	119,235	-0,120	-0,109
-492,781	-200,000	0,012	0,040
-491,766	-63,603	-0,034	-0,010
-490,751	-53,050	0,064	0,022
-489,737	297,555	0,063	0,086
-488,722	-200,000	0,020	-0,130
-487,708	413,446	-0,070	-0,110
-486,693	-42,379	-0,038	-0,014
-485,678	118,213	-0,089	0,081
-484,664	-200,000	0,039	-0,156
-483,649	34,111	0,158	-0,102
-482,635	-200,000	0,039	-0,209
-481,620	-82,669	0,038	0,009
-480,605	-200,000	0,014	-0,056
-479,591	800,000	0,043	-0,104
-478,576	2,101	-0,162	0,086
-477,562	-200,000	-0,096	0,000
-476,547	133,126	-0,058	-0,055
-475,532	-200,000	0,001	0,086
-474,518	32,740	0,067	0,043
-473,503	271,779	0,057	0,074
-472,489	800,000	0,029	0,084
-471,474	603,509	-0,043	0,079
-470,459	84,068	-0,018	-0,014
-469,445	294,355	-0,021	-0,029
-468,430	199,136	-0,085	-0,097
-467,416	-200,000	0,019	0,063
-466,401	-150,022	-0,121	0,007
-465,386	401,279	0,079	0,123
-464,372	800,000	-0,031	0,068
-463,357	-13,663	-0,209	-0,099
-462,343	186,126	0,010	-0,011
-461,328	-109,252	-0,067	-0,010
-460,313	107,659	-0,091	-0,080
-459,299	108,171	0,136	0,120
-458,284	-7,672	-0,061	-0,030
-457,270	800,000	-0,062	-0,127
-456,255	135,842	-0,060	-0,057
-455,241	132,998	-0,146	-0,139
-454,226	-77,152	-0,153	0,039
-453,211	174,780	-0,057	-0,061
-452,197	-200,000	-0,024	0,078
-451,182	-108,938	0,085	0,013
-450,168	-200,000	0,035	0,119
-449,153	88,321	-0,115	0,094
-448,138	-9,590	0,020	0,010
-447,124	-200,000	0,032	-0,107
-446,109	-200,000	0,016	-0,077
-445,095	-2,314	0,068	0,035
-444,080	655,275	0,029	0,056
-443,065	-130,766	-0,148	-0,014
-442,051	-76,520	-0,094	-0,024
-441,036	-103,092	0,031	-0,005
-440,022	-173,335	-0,139	0,003
-439,007	20,896	0,130	-0,077
-437,992	218,163	0,093	-0,110
-436,978	181,051	0,089	-0,096
-435,963	-153,339	0,145	-0,007
-434,949	-104,568	-0,064	-0,011
-433,934	-200,000	-0,012	-0,159
-432,919	78,435	0,017	-0,013
-431,905	75,546	-0,065	0,051
-430,890	42,463	-0,117	-0,078
-429,876	-73,213	-0,039	0,010
-428,861	-100,049	0,096	0,017
-427,846	-200,000	0,022	0,120
-426,832	-106,017	-0,109	-0,018
-425,817	-200,000	0,002	0,115
-424,803	266,843	-0,064	-0,082
-423,788	-200,000	-0,005	0,114
-422,773	-200,000	-0,038	-0,130
-421,759	800,000	0,049	0,104
-420,744	-64,776	-0,066	-0,020
-419,730	176,434	0,024	-0,026
-418,715	800,000	0,028	-0,059
-417,701	111,438	-0,094	0,083
-416,686	628,223	0,097	0,180
-415,671	-142,504	-0,085	0,006
-414,657	231,485	0,071	0,086
-413,642	800,000	-0,021	-0,062
-412,628	-11,503	-0,098	0,047
-411,613	800,000	-0,060	-0,172
-410,598	800,000	0,043	-0,116
-409,584	-200,000	0,040	-0,158
-408,569	99,154	0,072	-0,061
-407,555	248,834	0,123	0,153
-406,540	66,736	0,034	0,025
-405,525	-133,115	-0,032	-0,003
-404,511	-177,275	-0,035	0,001
-403,496	331,907	-0,068	0,097
-402,482	-63,938	0,177	0,053
-401,467	118,837	-0,164	0,149
-400,452	304,282	0,059	0,081
-399,438	17,912	0,077	0,045
-398,423	-54,260	0,132	0,044
-397,409	800,000	0,006	0,017
-396,394	-46,688	-0,060	-0,021
-395,379	-200,000	0,048	-0,155
-394,365	-200,000	-0,037	-0,163
-393,350	-46,942	0,168	-0,060
-392,336	224,403	-0,068	-0,081
-391,321	176,153	0,064	0,069
-390,306	-144,559	0,029	-0,002
-389,292	205,676	0,049	-0,056
-388,277	-37,109	0,063	-0,025
-387,263	800,000	-0,016	-0,047
-386,248	596,294	0,050	0,092
-385,233	-164,290	0,111	-0,004
-384,219	-56,753	-0,133	0,043
-383,204	800,000	0,019	0,042
-382,190	-26,768	0,151	0,065
-381,175	-200,000	0,028	0,125
-380,160	132,857	0,099	0,094
-379,146	195,252	0,103	0,115
-378,131	-151,956	0,164	-0,009
-377,117	-200,000	0,030	0,132
-376,102	-90,061	-0,099	-0,021
-375,088	-200,000	0,004	-0,053
-374,073	800,000	0,052	-0,110
-373,058	-200,000	0,011	-0,096
-372,044	-103,934	0,043	-0,007
-371,029	117,642	-0,026	0,023
-370,015	-200,000	-0,003	-0,075
-369,000	122,871	0,065	-0,059
-367,985	198,922	-0,056	-0,063
-366,971	-46,088	0,029	-0,011
-365,956	86,534	0,074	0,060
-364,942	169,867	0,062	0,065
-363,927	-200,000	-0,032	0,129
-362,912	2,493	0,079	0,042
-361,898	80,917	-0,045	-0,035
-360,883	-33,421	-0,098	0,040
-359,869	48,215	0,130	-0,089
-358,854	-200,000	0,011	0,090
-357,839	-103,533	0,018	0,003
-356,825	800,000	0,069	0,179
-355,810	-70,537	0,065	-0,018
-354,796	800,000	-0,045	0,123
-353,781	-73,853	0,025	0,007
-352,766	-126,102	0,055	-0,006
-351,752	-200,000	-0,005	-0,115
-350,737	78,302	0,013	-0,010
-349,723	-193,473	-0,102	0,001
-348,708	771,008	-0,026	-0,052
-347,693	475,282	-0,080	-0,133
-346,679	141,203	0,057	0,055
-345,664	-200,000	0,008	-0,083
-344,650	-23,547	0,027	-0,012
-343,635	800,000	0,053	0,111
-342,620	66,084	0,182	0,135
-341,606	-200,000	-0,008	-0,048
-340,591	217,683	0,028	-0,033
-339,577	652,628	-0,029	-0,054
-338,562	-200,000	0,012	-0,131
-337,548	800,000	0,040	-0,085
-336,533	64,384	0,104	0,077
-335,518	-200,000	0,015	-0,100
-334,504	-200,000	0,008	-0,111
-333,489	335,085	0,035	0,050
-332,475	-22,025	-0,138	-0,061
-331,460	98,473	0,130	-0,110
-330,445	359,624	0,027	-0,040
-329,431	127,834	-0,051	-0,048
-328,416	-200,000	-0,003	-0,059
-327,402	800,000	0,033	0,100
-326,387	-97,262	-0,139	0,026
-325,372	-200,000	0,017	-0,112
-324,358	-119,337	-0,218	0,027
-323,343	-200,000	0,039	0,131
-322,329	-157,843	0,162	0,007
-321,314	629,173	-0,063	0,117
-320,299	89,598	-0,095	-0,078
-319,285	-14,419	-0,146	-0,069
-318,270	76,167	0,051	-0,039
-317,256	96,878	-0,060	-0,050
-316,241	-101,531	0,105	0,018
-315,226	39,045	-0,074	-0,049
-314,212	-200,000	0,009	-0,037
-313,197	79,758	-0,024	0,019
-312,183	-133,893	0,043	-0,004
-311,168	-134,987	0,086	-0,007
-310,153	-2,366	0,012	-0,006
-309,139	95,813	-0,095	0,079
-308,124	800,000	0,011	0,025
-307,110	29,671	0,045	-0,028
-306,095	800,000	0,018	-0,040
-305,080	154,425	0,068	0,068
-304,066	-200,000	-0,018	-0,088
-303,051	-72,629	-0,076	-0,020
-302,037	-200,000	0,004	-0,023
-301,022	759,990	0,035	0,070
-300,008	-29,943	0,163	-0,068
-298,993	146,919	0,049	-0,048
-297,978	-55,037	-0,111	0,036
-296,964	-16,498	0,091	0,042
-295,949	234,440	-0,043	0,052
-294,935	208,723	-0,122	0,140
-293,920	370,802	-0,094	0,140
-292,905	-200,000	0,019	0,131
-291,891	800,000	0,030	0,081
-290,876	123,983	-0,037	-0,034
-289,862	65,373	-0,028	0,021
-288,847	-10,119	0,126	0,061
-287,832	-49,110	0,057	-0,020
-286,818	-148,055	0,076	0,005
-285,803	800,000	-0,022	-0,052
-284,789	513,769	-0,042	0,072
-283,774	-200,000	-0,014	0,173
-282,759	800,000	0,045	0,133
-281,745	-119,030	0,184	-0,023
-280,730	-200,000	0,009	-0,067
-279,716	130,989	0,040	-0,037
-278,701	-200,000	0,014	0,062
-277,686	52,327	-0,066	0,046
-276,672	246,214	-0,048	0,059
-275,657	113,912	0,082	0,073
-274,643	-113,544	0,048	0,007
-273,628	92,251	0,079	-0,065
-272,613	-30,666	-0,134	-0,055
-271,599	-4,495	0,066	-0,033
-270,584	-26,704	0,128	-0,055
-269,570	429,543	0,044	-0,070
-268,555	-200,000	0,030	-0,112
-267,540	355,206	-0,130	-0,190
-266,526	328,666	-0,084	-0,119
-265,511	115,241	0,062	0,055
-264,497	800,000	0,037	0,079
-263,482	-16,457	0,110	-0,051
-262,467	62,267	0,018	0,013
-261,453	800,000	0,026	-0,057
-260,438	800,000	-0,034	-0,108
-259,424	0,776	-0,023	0,012
-258,409	800,000	0,060	0,151
-257,395	67,170	-0,036	-0,027
-256,380	-47,393	0,074	-0,026
-255,365	249,619	0,073	0,091
-254,351	-200,000	-0,012	0,207
-253,336	18,893	0,095	-0,055
-252,322	9,066	-0,045	-0,025
-251,307	-143,543	-0,157	-0,011
-250,292	-200,000	0,023	-0,094
-249,278	114,998	0,051	-0,046
-248,263	-200,000	0,011	0,045
-247,249	-103,328	0,117	0,020
-246,234	-60,677	-0,017	0,005
-245,219	-200,000	0,003	0,041
-244,205	479,875	0,031	-0,052
-243,190	97,893	-0,093	0,078
-242,176	-102,361	0,100	-0,017
-241,161	155,678	0,086	0,087
-240,146	536,453	0,087	0,152
-239,132	-36,606	-0,059	0,023
-238,117	724,972	0,021	0,042
-237,103	-200,000	-0,002	-0,074
-236,088	-159,036	-0,050	0,002
-235,073	-78,214	0,228	0,057
-234,059	35,484	-0,058	-0,037
-233,044	501,402	0,093	0,157
-232,030	-45,674	-0,093	0,033
-231,015	-90,245	0,118	-0,025
-230,000	-200,000	-0,033	0,130
-228,986	-200,000	-0,011	0,117
-227,971	800,000	-0,006	0,014
-226,957	138,226	0,125	0,119
-225,942	7,823	0,119	-0,065
-224,927	-98,208	0,166	-0,031
-223,913	187,972	0,011	0,012
-222,898	-200,000	0,001	-0,028
-221,884	800,000	0,009	0,019
-220,869	-200,000	-0,003	0,032
-219,855	-71,625	0,214	0,058
-218,840	70,952	-0,102	0,077
-217,825	800,000	0,022	-0,051
-216,811	-59,830	-0,075	0,023
-215,796	91,258	-0,150	0,123
-214,782	-200,000	-0,010	0,035
-213,767	123,772	-0,107	0,098
-212,752	84,994	0,006	0,005
-211,738	483,192	-0,089	0,148
-210,723	800,000	0,065	-0,161
-209,709	-200,000	0,004	0,034
-208,694	625,331	-0,066	-0,123
-207,679	757,514	0,039	-0,078
-206,665	358,693	0,054	-0,079
-205,650	-134,706	0,125	-0,011
-204,636	-149,229	0,183	0,010
-203,621	-107,061	-0,071	-0,011
-202,606	201,767	0,102	-0,114
-201,592	-200,000	-0,005	0,067
-200,577	-200,000	0,013	-0,082
-199,563	81,244	-0,009	-0,007
-198,548	-40,676	-0,117	0,044
-197,533	-200,000	0,014	0,099
-196,519	-115,758	0,037	0,005
-195,504	800,000	0,031	-0,072
-194,490	-200,000	-0,016	-0,092
-193,475	159,920	-0,107	-0,108
-192,460	-93,137	0,077	0,016
-191,446	317,246	-0,032	0,045
-190,431	-20,610	-0,037	0,016
-189,417	-47,573	-0,122	0,043
-188,402	-79,344	-0,094	-0,023
-187,387	18,732	0,043	0,025
-186,373	-200,000	0,044	-0,163
-185,358	3,951	0,111	-0,059
-184,344	-72,968	-0,035	0,009
-183,329	-108,857	0,088	0,014
-182,315	-121,447	-0,056	0,007
-181,300	800,000	-0,030	0,079
-180,285	-200,000	-0,001	0,021
-179,271	28,726	-0,084	-0,052
-178,256	-0,310	-0,052	-0,027
-177,242	-200,000	0,007	-0,069
-176,227	800,000	0,073	0,218
-175,212	231,646	0,104	0,124
-174,198	800,000	0,011	-0,026
-173,183	-121,877	-0,038	-0,005
-172,169	-200,000	-0,018	-0,058
-171,154	8,422	-0,135	-0,074
-170,139	12,609	0,076	0,043
-169,125	-14,576	0,077	0,036
-168,110	324,686	-0,163	0,228
-167,096	-120,582	0,070	-0,009
-166,081	184,695	-0,031	0,033
-165,066	13,593	-0,085	-0,048
-164,052	355,844	-0,040	-0,059
-163,037	-200,000	0,019	0,064
-162,023	253,352	-0,043	-0,054
-161,008	-200,000	-0,014	0,116
-159,993	-70,631	-0,029	0,008
-158,979	-38,685	0,022	-0,008
-157,964	-88,191	0,083	0,018
-156,950	800,000	0,041	0,102
-155,935	-56,628	-0,076	0,024
-154,920	800,000	0,050	0,112
-153,906	800,000	0,068	0,206
-152,891	800,000	-0,020	0,046
-151,877	-200,000	0,023	-0,173
-150,862	314,282	0,091	-0,125
-149,847	800,000	-0,027	-0,073
-148,833	-161,214	-0,064	-0,002
-147,818	219,007	0,086	-0,100
-146,804	800,000	-0,042	0,131
-145,789	303,776	0,074	0,100
-144,775	602,594	-0,074	0,135
-143,760	-200,000	-0,001	0,052
-142,745	135,649	0,087	0,082
-141,731	420,404	0,042	0,066
-140,716	-74,328	-0,138	-0,036
-139,702	-200,000	0,007	-0,036
-138,687	96,150	-0,085	0,071
-137,672	169,272	-0,051	-0,054
-136,658	800,000	0,038	-0,082
-135,643	87,430	0,106	-0,086
-134,629	-200,000	-0,014	0,089
-133,614	-99,206	0,137	0,025
-132,599	800,000	-0,012	-0,030
-131,585	-59,972	-0,016	0,005
-130,570	800,000	0,015	0,048
-129,556	-200,000	-0,019	-0,106
-128,541	1,782	-0,074	0,039
-127,526	264,479	-0,040	0,051
-126,512	-88,976	0,166	-0,036
-125,497	-200,000	0,016	0,074
-124,483	110,033	0,085	-0,075
-123,468	-102,718	0,155	0,027
-122,453	281,200	-0,024	0,031
-121,439	-200,000	-0,047	-0,193
-120,424	279,320	0,038	0,050
-119,410	-122,780	0,103	-0,012
-118,395	-200,000	-0,011	-0,060
-117,380	-22,329	0,069	-0,030
-116,366	-200,000	0,016	0,055
-115,351	-68,975	-0,116	0,032
-114,337	-72,039	-0,133	0,036
-113,322	-116,549	-0,014	0,002
-112,307	800,000	0,024	0,055
-111,293	800,000	0,021	0,067
-110,278	11,326	0,113	0,063
-109,264	-165,904	-0,113	0,003
-108,249	-86,033	-0,101	0,023
-107,234	319,933	0,050	0,069
-106,220	243,512	-0,105	0,128
-105,205	-49,872	-0,087	-0,030
-104,191	212,219	-0,023	-0,026
-103,176	94,323	0,098	-0,081
-102,162	312,985	-0,055	-0,076
-101,147	67,132	0,076	0,057
-100,132	-54,898	-0,072	0,023
-99,118	128,089	0,032	-0,029
-98,103	800,000	-0,021	0,061
-97,089	-200,000	0,015	0,060
-96,074	702,396	0,040	0,078
-95,059	-200,000	0,030	0,139
-94,045	158,281	-0,019	0,019
-93,030	4,821	-0,142	0,075
-92,016	-26,976	-0,085	-0,036
-91,001	-23,605	0,063	-0,027
-89,986	-200,000	-0,002	-0,046
-88,972	-200,000	0,023	-0,089
-87,957	451,756	-0,041	0,066
-86,943	-200,000	-0,014	-0,106
-85,928	742,745	0,066	-0,130
-84,913	-30,123	-0,067	0,027
-83,899	26,872	-0,041	0,025
-82,884	158,661	0,069	0,070
-81,870	3,370	0,049	0,026
-80,855	86,652	0,109	0,087
-79,840	800,000	0,024	0,071
-78,826	68,454	-0,048	0,036
-77,811	-177,883	0,065	-0,001
-76,797	659,998	0,033	0,062
-75,782	619,732	-0,066	0,121
-74,767	542,317	0,054	0,093
-73,753	-200,000	0,002	0,193
-72,738	-200,000	0,024	0,096
-71,724	-122,687	-0,079	-0,009
-70,709	172,214	-0,046	0,048
-69,694	74,485	-0,059	0,045
-68,680	-200,000	0,008	-0,027
-67,665	351,581	-0,106	0,153
-66,651	43,928	0,051	0,034
-65,636	-200,000	0,004	0,088
-64,622	-158,662	-0,060	-0,002
-63,607	-77,677	-0,022	-0,005
-62,592	158,951	0,114	-0,115
-61,578	-200,000	-0,010	0,100
-60,563	164,041	0,099	0,101
-59,549	800,000	-0,038	0,093
-58,534	-157,199	-1,368	-0,059
-57,519	410,400	-0,946	-1,460
-56,505	-200,000	-0,749	-4,334
-55,490	-16,599	0,589	-0,269
-54,476	800,000	4,945	11,632
-53,461	-200,000	14,046	254,344
-52,446	-200,000	694,216	2263,121
-51,432	598,916	1624,476	2935,403
-50,417	117,640	1633,400	1458,367
-49,403	73,606	1287,126	977,079
-48,388	37,388	1023,583	656,893
-47,373	23,838	982,034	585,639
-46,359	23,179	971,287	577,046
-45,344	22,123	966,834	570,926
-44,330	22,019	965,559	569,813
-43,315	21,951	964,113	568,713
-42,300	21,867	963,123	567,834
-41,286	21,886	962,209	567,336
-40,271	21,894	961,157	566,719
-39,257	21,939	960,184	566,269
-38,242	21,866	959,246	565,455
-37,227	21,860	958,457	564,947
-36,213	21,807	957,553	564,223
-35,198	21,809	956,967	563,862
-34,184	21,874	956,059	563,515
-33,169	21,845	955,187	562,885
-32,154	21,891	954,229	562,445
-31,140	21,897	953,416	561,962
-30,125	21,880	952,692	561,459
-29,111	21,858	951,788	560,833
-28,096	21,850	950,974	560,305
-27,082	21,852	950,487	560,003
-26,067	21,832	949,714	559,462
-25,052	21,917	948,863	559,209
-24,038	21,921	948,175	558,796
-23,023	21,851	947,690	558,262
-22,009	21,836	947,120	557,855
-20,994	21,936	946,369	557,712
-19,979	21,911	945,628	557,173
-18,965	21,894	945,027	556,743
-17,950	21,922	944,301	556,382
-16,936	21,838	943,729	555,757
-15,921	21,853	942,923	555,308
-14,906	21,791	942,286	554,713
-13,892	21,685	941,785	554,058
-12,877	21,735	940,890	553,669
-11,863	21,780	940,369	553,483
-10,848	21,716	940,126	553,114
-9,833	21,831	939,588	553,141
-8,819	21,840	938,800	552,683
-7,804	21,768	938,368	552,180
-6,790	21,734	937,702	551,658
-5,775	21,810	937,076	551,509
-4,760	21,732	936,462	550,879
-3,746	21,733	935,746	550,438
-2,731	21,619	935,102	549,678
-1,717	21,512	934,444	548,932
-0,702	21,566	933,611	548,589
0,313	21,355	933,076	548,440
1,327	23,867	930,802	554,954
2,342	31,478	808,859	502,885
3,356	26,142	509,460	307,595
4,371	1,698	374,646	194,997
5,386	-1,214	357,555	182,501
6,400	-2,379	351,655	178,062
7,415	-2,868	349,187	176,208
8,429	-2,795	347,895	175,627
9,444	-2,716	346,790	175,149
10,459	-2,791	346,122	174,706
11,473	-2,661	345,333	174,448
12,488	-2,718	344,703	174,045
13,502	-2,812	344,304	173,716
14,517	-2,785	343,953	173,557
15,531	-2,610	343,335	173,436
16,546	-2,582	342,852	173,210
17,561	-2,650	342,381	172,876
18,575	-2,842	342,281	172,584
19,590	-2,620	341,846	172,611
20,604	-2,681	341,407	172,302
21,619	-2,727	341,028	172,040
22,634	-2,655	340,725	171,957
23,648	-2,603	340,302	171,790
24,663	-2,671	340,028	171,556
25,677	-2,560	339,814	171,562
26,692	-2,633	339,436	171,272
27,707	-2,671	339,158	171,071
28,721	-2,690	338,815	170,861
29,736	-2,690	338,539	170,707
30,750	-2,694	338,148	170,489
31,765	-2,780	337,990	170,295
32,780	-2,690	337,835	170,306
33,794	-2,707	337,514	170,109
34,809	-2,792	337,168	169,822
35,823	-2,615	336,778	169,815
36,838	-2,600	336,591	169,723
37,853	-2,728	336,226	169,375
38,867	-2,683	335,868	169,232
39,882	-2,715	335,762	169,127
40,896	-2,637	335,352	168,995
41,911	-2,717	335,206	168,813
42,926	-2,587	334,651	168,669
43,940	-2,633	334,588	168,570
44,955	-2,815	334,351	168,225
45,969	-2,692	334,149	168,250
46,984	-2,669	333,925	168,149
47,999	-2,741	333,560	167,868
49,013	-2,690	333,399	167,830
50,028	-2,780	333,164	167,593
51,042	-2,651	332,624	167,455
52,057	-2,784	332,411	167,181
53,071	-2,759	332,324	167,151
54,086	-2,654	332,066	167,126
55,101	-2,744	331,812	166,881
56,115	-2,789	331,552	166,683
57,130	-2,636	331,263	166,696
58,144	-2,738	331,095	166,482
59,159	-2,566	330,722	166,475
60,174	-2,765	330,465	166,105
61,188	-2,705	330,198	166,024
62,203	-2,571	329,940	166,031
63,217	-2,577	329,709	165,894
64,232	-2,697	329,430	165,602
65,247	-2,581	329,047	165,526
66,261	-2,596	328,825	165,383
67,276	-2,723	328,707	165,165
68,290	-2,602	328,368	165,117
69,305	-2,656	328,114	164,914
70,320	-2,705	328,075	164,824
71,334	-2,530	327,592	164,763
72,349	-2,638	327,428	164,544
73,363	-2,716	327,165	164,310
74,378	-2,666	326,782	164,159
75,393	-2,658	326,580	164,052
76,407	-2,608	326,312	163,959
77,422	-2,576	326,092	163,869
78,436	-2,559	325,886	163,770
79,451	-2,651	325,593	163,505
80,466	-2,636	325,314	163,369
81,480	-2,649	324,981	163,172
82,495	-2,638	324,852	163,105
83,509	-2,666	324,741	163,003
84,524	-2,457	324,409	163,054
85,539	-2,647	324,099	162,673
86,553	-2,739	323,985	162,499
87,568	-2,678	323,640	162,379
88,582	-2,709	323,428	162,224
89,597	-2,708	323,272	162,132
90,611	-2,509	322,884	162,143
91,626	-2,723	322,939	161,919
92,641	-2,520	322,426	161,873
93,655	-2,730	322,429	161,628
94,670	-2,544	322,106	161,656
95,684	-2,695	321,723	161,284
96,699	-2,675	321,451	161,155
97,714	-2,644	321,389	161,144
98,728	-2,718	321,218	160,962
99,743	-2,611	320,756	160,834
100,757	-2,613	320,545	160,711
101,772	-2,640	320,365	160,577
102,787	-2,620	320,139	160,471
103,801	-2,615	319,932	160,359
104,816	-2,497	319,432	160,223
105,830	-2,711	319,446	159,981
106,845	-2,660	319,153	159,876
107,860	-2,676	319,015	159,776
108,874	-2,578	318,805	159,762
109,889	-2,702	318,612	159,517
110,903	-2,761	318,211	159,238
111,918	-2,691	317,937	159,162
112,933	-2,637	317,905	159,190
113,947	-2,681	317,629	158,991
114,962	-2,745	317,469	158,827
115,976	-2,538	317,021	158,814
116,991	-2,602	316,962	158,700
118,006	-2,629	316,845	158,598
119,020	-2,546	316,689	158,595
120,035	-2,750	316,427	158,230
121,049	-2,753	316,244	158,120
122,064	-2,604	315,956	158,123
123,079	-2,484	315,711	158,116
124,093	-2,628	315,536	157,859
125,108	-2,713	315,202	157,587
126,122	-2,665	315,032	157,539
127,137	-2,687	314,798	157,385
128,151	-2,569	314,469	157,332
129,166	-2,547	314,359	157,287
130,181	-2,662	314,089	157,015
131,195	-2,610	313,839	156,932
132,210	-2,627	313,668	156,814
133,224	-2,626	313,325	156,629
134,239	-2,576	313,142	156,577
135,254	-2,589	312,825	156,391
136,268	-2,528	312,637	156,348
137,283	-2,604	312,408	156,139
138,297	-2,639	312,214	155,991
139,312	-2,758	311,980	155,733
140,327	-2,633	311,656	155,691
141,341	-2,641	311,669	155,674
142,356	-2,514	311,195	155,558
143,370	-2,719	311,246	155,353
144,385	-2,567	310,885	155,319
145,400	-2,472	310,617	155,273
146,414	-2,452	310,395	155,169
147,429	-2,635	310,282	154,905
148,443	-2,604	310,037	154,801
149,458	-2,739	309,922	154,588
150,473	-2,509	309,693	154,702
151,487	-2,426	309,266	154,562
152,502	-2,591	309,252	154,368
153,516	-2,482	308,875	154,280
154,531	-2,510	308,619	154,110
155,546	-2,582	308,567	153,995
156,560	-2,489	308,283	153,936
157,575	-2,485	308,021	153,796
158,589	-2,567	307,742	153,558
159,604	-2,653	307,741	153,453
160,619	-2,614	307,475	153,347
161,633	-2,505	307,257	153,339
162,648	-2,487	306,995	153,213
163,662	-2,598	306,937	153,054
164,677	-2,630	306,647	152,863
165,692	-2,507	306,449	152,880
166,706	-2,482	306,195	152,764
167,721	-2,459	305,969	152,662
168,735	-2,500	305,864	152,553
169,750	-2,619	305,633	152,302
170,764	-2,623	305,452	152,193
171,779	-2,672	305,373	152,090
172,794	-2,370	305,032	152,219
173,808	-2,386	304,797	152,072
174,823	-2,516	304,818	151,934
175,837	-2,568	304,410	151,664
176,852	-2,508	304,233	151,624
177,867	-2,561	304,038	151,459
178,881	-2,580	303,900	151,356
179,896	-2,431	303,643	151,368
180,910	-2,384	303,420	151,292
181,925	-2,476	303,170	151,059
182,940	-2,461	302,940	150,947
183,954	-2,513	302,857	150,839
184,969	-2,605	302,748	150,676
185,983	-2,636	302,615	150,565
186,998	-2,465	302,161	150,501
188,013	-2,375	302,088	150,543
189,027	-2,524	301,729	150,198
190,042	-2,495	301,505	150,103
191,056	-2,420	301,294	150,062
192,071	-2,503	301,258	149,945
193,086	-2,531	301,077	149,814
194,100	-2,456	300,750	149,713
195,115	-2,598	300,564	149,464
196,129	-2,412	300,337	149,526
197,144	-2,462	300,197	149,392
198,159	-2,570	299,965	149,154
199,173	-2,699	299,763	148,909
200,188	-2,532	299,382	148,876
201,202	-2,538	299,330	148,831
202,217	-2,410	298,991	148,779
203,232	-2,589	298,731	148,454
204,246	-2,453	298,559	148,494
205,261	-2,459	298,442	148,417
206,275	-2,360	298,229	148,397
207,290	-2,228	298,056	148,431
208,304	-2,402	297,831	148,129
209,319	-2,561	297,714	147,898
210,334	-2,370	297,518	147,980
211,348	-2,578	297,287	147,642
212,363	-2,526	297,011	147,544
213,377	-2,439	296,720	147,474
214,392	-2,430	296,659	147,440
215,407	-2,480	296,443	147,269
216,421	-2,502	296,088	147,057
217,436	-2,490	295,975	147,001
218,450	-2,545	295,843	146,867
219,465	-2,574	295,746	146,776
220,480	-2,572	295,591	146,689
221,494	-2,346	295,289	146,752
222,509	-2,369	295,120	146,631
223,523	-2,454	294,941	146,444
224,538	-2,637	294,761	146,160
225,553	-2,426	294,675	146,314
226,567	-2,384	294,302	146,158
227,582	-2,462	294,174	146,003
228,596	-2,512	293,993	145,851
229,611	-2,557	293,843	145,719
230,626	-2,563	293,575	145,567
231,640	-2,418	293,340	145,581
232,655	-2,482	293,209	145,440
233,669	-2,572	292,898	145,184
234,684	-2,532	292,827	145,174
235,699	-2,639	292,654	144,971
236,713	-2,608	292,419	144,872
237,728	-2,456	292,293	144,946
238,742	-2,360	291,873	144,820
239,757	-2,563	291,826	144,584
240,772	-2,432	291,727	144,651
241,786	-2,582	291,476	144,366
242,801	-2,700	291,298	144,149
243,815	-2,567	291,288	144,262
244,830	-2,558	290,864	144,048
245,844	-2,568	290,653	143,920
246,859	-2,407	290,537	144,008
247,874	-2,499	290,197	143,737
248,888	-2,406	290,041	143,738
249,903	-2,536	289,981	143,568
250,917	-2,582	289,808	143,424
251,932	-2,478	289,630	143,425
252,947	-2,673	289,320	143,069
253,961	-2,874	289,061	142,732
254,976	-2,828	288,658	142,565
255,990	-3,127	288,434	142,150
257,005	-2,626	288,756	142,785
258,020	-0,729	289,427	144,954
259,034	0,749	289,772	146,556
260,049	1,503	289,758	147,271
261,063	2,012	289,756	147,753
262,078	2,136	289,702	147,833
263,093	2,300	289,577	147,915
264,107	2,563	289,664	148,203
265,122	2,821	289,501	148,357
266,136	2,864	289,349	148,307
267,151	2,981	289,187	148,325
268,166	2,813	288,968	148,036
269,180	2,926	288,784	148,038
270,195	3,054	288,382	147,943
271,209	2,961	288,208	147,751
272,224	3,074	287,929	147,703
273,239	2,789	287,985	147,444
274,253	2,709	287,630	147,172
275,268	2,681	287,579	147,105
276,282	2,755	287,277	147,009
277,297	2,857	287,069	146,988
278,312	2,808	286,821	146,800
279,326	2,630	286,733	146,571
280,341	2,866	286,553	146,693
281,355	2,828	286,440	146,585
282,370	2,897	286,090	146,459
283,384	2,670	285,823	146,092
284,399	2,748	285,629	146,054
285,414	2,622	285,716	145,965
286,428	2,687	285,371	145,838
287,443	2,485	285,293	145,592
288,457	2,477	285,016	145,430
289,472	2,539	284,836	145,384
290,487	2,651	284,600	145,358
291,501	2,456	284,319	145,016
292,516	2,544	284,140	144,995
293,530	2,586	284,021	144,962
294,545	2,509	283,874	144,801
295,560	2,398	283,748	144,618
296,574	2,330	283,568	144,449
297,589	2,596	283,183	144,492
298,603	2,435	283,074	144,271
299,618	2,376	282,949	144,138
300,633	2,385	282,937	144,128
301,647	2,819	282,611	144,359
302,662	2,721	282,443	144,168
303,676	2,852	282,278	144,195
304,691	2,752	282,227	144,061
305,706	2,750	282,077	143,970
306,720	2,835	281,859	143,926
307,735	2,811	281,577	143,747
308,749	2,838	281,402	143,670
309,764	2,936	281,256	143,675
310,779	2,754	281,126	143,425
311,793	2,843	280,776	143,317
312,808	2,779	280,602	143,155
313,822	2,710	280,426	142,988
314,837	2,682	280,318	142,893
315,852	2,817	280,035	142,863
316,866	3,000	279,819	142,911
317,881	2,782	279,753	142,661
318,895	2,487	279,628	142,309
319,910	2,824	279,363	142,476
320,925	2,687	279,166	142,235
321,939	2,657	279,098	142,159
322,954	2,758	278,859	142,119
323,968	2,770	278,777	142,077
324,983	2,827	278,551	142,001
325,997	2,881	278,438	141,981
327,012	2,812	278,154	141,760
328,027	2,915	277,993	141,761
329,041	2,816	277,792	141,553
330,056	2,902	277,607	141,527
331,070	2,789	277,574	141,392
332,085	2,756	277,426	141,274
333,100	3,064	277,126	141,393
334,114	3,106	276,922	141,316
335,129	2,837	276,823	141,004
336,143	2,852	276,611	140,896
337,158	2,983	276,318	140,856
338,173	2,952	276,363	140,837
339,187	2,775	276,115	140,536
340,202	2,980	275,947	140,627
341,216	2,769	275,611	140,248
342,231	2,878	275,471	140,266
343,246	2,895	275,359	140,211
344,260	2,957	275,123	140,135
345,275	2,777	275,039	139,915
346,289	2,951	274,881	139,982
347,304	2,917	274,701	139,846
348,319	2,792	274,493	139,614
349,333	2,798	274,375	139,547
350,348	2,795	274,171	139,428
351,362	2,745	273,950	139,257
352,377	2,768	273,877	139,229
353,392	2,924	273,620	139,228
354,406	2,985	273,413	139,166
355,421	191,759	1348,844	1430,294
356,435	154,851	1479,970	1430,427
