DTS Sentinel unit serial number:	SN410029Multiplexer serial number:	ORYXHardware model number:	OX2-SRSoftware version number:	ORYX F/W v4,00 Oryx Data Collector v3.7.2.0data status	okinstallation	B4 Nyhavnadifferential loss correction	single-endedforward channel	channel 2reverse channel	N/Adate	2023/12/19time	10:05:13forward acquisition time	300,00reverse acquisition time	0,00gamma	499,1914k internal	0,3128k external	0,3128temperature offset calibration	1,0000default loss term (dB/km)	0,3820temperature slope calibration	1,0000multiplexer offset coefficient	1,0000multiplexer slope coefficient	1,0000fibre end	0,00T internal ref (°C)	20,23T ext. ref 1 (°C)	4,99T ext. ref 2 (°C)	4,95length (m)	temperature (°C)	Stokes	anti-Stokes-744,400	-200,000	-0,003	-0,062
-743,385	137,158	-0,159	0,155
-742,371	111,301	0,066	0,059
-741,356	-29,827	-0,159	0,067
-740,342	-123,404	0,030	-0,004
-739,327	800,000	-0,068	0,144
-738,312	-200,000	-0,014	-0,053
-737,298	-10,704	-0,213	0,105
-736,283	34,427	-0,203	-0,131
-735,269	-177,746	-0,148	0,003
-734,254	-200,000	0,018	-0,069
-733,239	-146,730	-0,343	0,022
-732,225	-36,084	0,111	0,044
-731,210	-15,638	0,123	-0,058
-730,196	-200,000	-0,006	0,028
-729,181	-21,700	-0,061	0,027
-728,167	316,693	0,083	0,117
-727,152	-200,000	0,013	-0,103
-726,137	800,000	-0,054	-0,135
-725,123	368,982	-0,105	-0,158
-724,108	156,245	-0,050	0,051
-723,094	800,000	-0,005	-0,011
-722,079	-200,000	-0,018	-0,061
-721,064	16,208	-0,063	-0,037
-720,050	540,849	0,028	-0,050
-719,035	274,844	0,060	-0,080
-718,021	-196,609	-0,140	0,001
-717,006	-200,000	0,015	-0,140
-715,991	-55,667	-0,132	-0,044
-714,977	-63,688	-0,169	0,051
-713,962	800,000	-0,024	-0,065
-712,948	-11,154	0,084	0,041
-711,933	103,967	-0,103	0,090
-710,918	305,263	-0,091	-0,126
-709,904	-120,819	0,024	0,003
-708,889	800,000	0,036	-0,104
-707,875	760,957	-0,009	-0,018
-706,860	-101,683	-0,064	0,011
-705,845	-200,000	-0,014	-0,133
-704,831	-200,000	0,012	-0,077
-703,816	414,398	0,007	0,012
-702,802	800,000	-0,014	-0,032
-701,787	-200,000	0,002	-0,102
-700,772	800,000	0,037	-0,103
-699,758	-59,184	-0,087	-0,028
-698,743	-140,366	0,096	0,007
-697,729	-200,000	-0,001	-0,013
-696,714	-4,063	0,164	0,084
-695,699	13,598	-0,035	0,020
-694,685	-71,490	-0,033	-0,009
-693,670	-49,738	0,060	-0,021
-692,656	-114,123	-0,106	-0,015
-691,641	-126,893	-0,079	0,009
-690,627	800,000	0,016	0,036
-689,612	-40,915	-0,140	0,053
-688,597	502,440	-0,065	0,112
-687,583	-16,721	-0,106	-0,049
-686,568	606,628	0,057	-0,106
-685,554	-10,272	-0,122	-0,060
-684,539	-29,233	-0,044	0,019
-683,524	529,294	0,054	-0,096
-682,510	-200,000	-0,019	-0,139
-681,495	-37,037	0,035	-0,014
-680,481	-120,052	-0,136	-0,017
-679,466	-97,354	0,059	0,011
-678,451	-51,546	-0,032	-0,011
-677,437	-123,185	0,044	-0,005
-676,422	82,863	0,078	0,063
-675,408	800,000	0,018	-0,047
-674,393	-200,000	0,010	0,137
-673,378	-42,403	0,115	0,043
-672,364	800,000	-0,030	-0,090
-671,349	670,580	-0,029	0,055
-670,335	800,000	-0,060	-0,159
-669,320	800,000	-0,021	0,047
-668,305	-200,000	-0,013	0,095
-667,291	800,000	0,052	-0,118
-666,276	-63,112	-0,177	-0,054
-665,262	800,000	-0,036	-0,103
-664,247	-23,328	-0,062	0,027
-663,232	-60,977	-0,100	-0,031
-662,218	-2,988	0,086	0,044
-661,203	-200,000	0,005	-0,147
-660,189	420,255	0,028	0,044
-659,174	15,162	-0,129	-0,075
-658,159	-83,255	0,093	0,022
-657,145	-55,355	-0,140	0,046
-656,130	69,623	-0,029	0,022
-655,116	-12,283	0,134	0,065
-654,101	-17,417	0,033	-0,015
-653,086	-5,609	-0,060	-0,031
-652,072	-200,000	0,008	-0,043
-651,057	54,139	-0,077	-0,055
-650,043	-200,000	-0,011	-0,068
-649,028	-200,000	0,059	0,000
-648,014	-200,000	-0,022	-0,099
-646,999	-57,409	0,088	0,028
-645,984	138,612	-0,078	0,076
-644,970	313,514	-0,081	0,113
-643,955	800,000	0,013	-0,031
-642,941	-77,431	-0,095	0,024
-641,926	-126,801	0,066	0,007
-640,911	-200,000	-0,017	-0,154
-639,897	-99,269	0,087	0,016
-638,882	362,682	0,045	0,068
-637,868	5,606	-0,053	0,029
-636,853	103,902	0,069	0,060
-635,838	-34,431	-0,120	-0,048
-634,824	-80,680	-0,100	-0,024
-633,809	800,000	0,034	0,089
-632,795	32,203	0,032	0,021
-631,780	-200,000	-0,010	-0,032
-630,765	-200,000	-0,039	-0,151
-629,751	-200,000	-0,017	-0,072
-628,736	-200,000	-0,029	-0,123
-627,722	-9,857	-0,030	0,015
-626,707	-200,000	-0,002	-0,018
-625,692	-89,813	-0,161	-0,035
-624,678	155,705	0,056	0,057
-623,663	-165,648	0,103	0,003
-622,649	-4,165	-0,208	-0,106
-621,634	486,262	-0,028	0,047
-620,619	80,617	-0,082	0,066
-619,605	-200,000	-0,032	0,144
-618,590	800,000	-0,035	0,076
-617,576	121,558	-0,105	0,097
-616,561	-87,311	-0,113	-0,025
-615,546	395,130	0,011	0,016
-614,532	800,000	-0,012	0,033
-613,517	-200,000	0,014	-0,150
-612,503	-99,034	0,118	-0,022
-611,488	800,000	-0,056	0,130
-610,474	-30,914	0,055	0,023
-609,459	205,281	0,093	0,107
-608,444	800,000	-0,041	0,116
-607,430	800,000	-0,034	0,073
-606,415	480,340	-0,070	-0,117
-605,401	458,504	-0,061	0,100
-604,386	223,081	0,041	0,049
-603,371	328,955	0,016	0,022
-602,357	-200,000	-0,010	-0,072
-601,342	-200,000	-0,020	-0,065
-600,328	800,000	-0,018	-0,052
-599,313	451,953	-0,116	-0,191
-598,298	-62,386	-0,114	-0,035
-597,284	-200,000	-0,015	0,075
-596,269	-200,000	-0,010	0,056
-595,255	-200,000	0,045	0,199
-594,240	373,930	0,045	-0,068
-593,225	208,297	-0,101	0,117
-592,211	800,000	0,038	-0,088
-591,196	-141,142	-0,109	0,008
-590,182	578,423	-0,031	-0,056
-589,167	-200,000	-0,055	0,247
-588,152	800,000	0,048	0,125
-587,138	193,224	-0,068	-0,077
-586,123	-200,000	-0,012	-0,074
-585,109	-118,234	-0,070	-0,009
-584,094	-200,000	0,019	0,116
-583,079	-40,859	0,090	0,034
-582,065	-144,108	0,063	-0,004
-581,050	-200,000	0,015	0,094
-580,036	255,281	0,019	-0,024
-579,021	-200,000	0,002	-0,062
-578,006	-137,910	0,041	-0,003
-576,992	-56,915	-0,025	-0,008
-575,977	-24,648	0,068	-0,030
-574,963	-200,000	0,023	-0,085
-573,948	447,651	-0,025	-0,040
-572,934	800,000	-0,016	-0,039
-571,919	-86,399	-0,102	0,023
-570,904	66,798	0,145	-0,109
-569,890	-200,000	0,019	-0,134
-568,875	-200,000	0,000	0,146
-567,861	-129,726	0,120	0,012
-566,846	-10,580	-0,096	-0,047
-565,831	483,486	-0,085	0,144
-564,817	545,198	0,032	0,056
-563,802	259,389	-0,068	0,087
-562,788	800,000	0,014	0,037
-561,773	-25,230	-0,140	-0,061
-560,758	355,214	-0,014	-0,021
-559,744	15,173	0,111	-0,064
-558,729	230,714	0,081	-0,098
-557,715	-115,802	-0,155	0,021
-556,700	-107,195	0,107	0,017
-555,685	-88,687	-0,106	-0,023
-554,671	-194,904	-0,136	-0,001
-553,656	778,230	0,068	-0,138
-552,642	-119,898	0,076	0,010
-551,627	375,886	-0,116	0,176
-550,612	-200,000	-0,126	-0,000
-549,598	-132,124	-0,150	0,014
-548,583	429,092	-0,048	-0,076
-547,569	-60,329	-0,118	-0,037
-546,554	-200,000	-0,018	0,181
-545,539	-4,909	0,182	-0,092
-544,525	-10,225	0,112	0,055
-543,510	-55,237	-0,178	-0,059
-542,496	76,342	-0,110	-0,086
-541,481	-200,000	-0,005	-0,150
-540,466	-17,562	-0,039	-0,018
-539,452	590,733	0,023	-0,041
-538,437	157,720	-0,056	0,057
-537,423	-200,000	-0,014	0,110
-536,408	264,959	-0,056	-0,072
-535,393	491,217	-0,071	-0,121
-534,379	-200,000	-0,007	0,132
-533,364	-80,764	-0,064	0,016
-532,350	-172,597	-0,062	0,001
-531,335	-105,839	0,100	0,017
-530,321	-200,000	-0,000	0,175
-529,306	170,414	-0,088	-0,093
-528,291	-19,781	-0,130	0,059
-527,277	-116,873	-0,166	-0,022
-526,262	-200,000	-0,011	-0,064
-525,248	48,233	-0,027	0,019
-524,233	-200,000	-0,018	0,115
-523,218	359,805	0,059	0,088
-522,204	800,000	0,054	0,136
-521,189	-158,763	0,109	-0,005
-520,175	-0,718	-0,129	-0,067
-519,160	28,994	-0,024	-0,015
-518,145	345,835	-0,020	-0,029
-517,131	-94,527	0,143	-0,028
-516,116	102,909	-0,054	0,046
-515,102	387,777	0,051	-0,078
-514,087	-5,908	0,050	-0,025
-513,072	-127,118	-0,129	-0,014
-512,058	-57,519	-0,099	-0,032
-511,043	90,006	0,095	0,078
-510,029	703,936	0,071	0,138
-509,014	-119,097	-0,051	0,007
-507,999	210,839	-0,054	-0,063
-506,985	-200,000	0,003	-0,088
-505,970	-200,000	0,001	0,008
-504,956	-146,386	0,058	0,004
-503,941	-200,000	0,033	-0,136
-502,926	-200,000	-0,014	0,076
-501,912	474,192	0,060	0,100
-500,897	56,782	0,118	0,085
-499,883	-200,000	0,022	-0,105
-498,868	211,713	-0,087	-0,101
-497,853	360,503	-0,027	0,039
-496,839	-200,000	-0,001	-0,134
-495,824	-200,000	-0,018	-0,131
-494,810	20,939	0,068	0,041
-493,795	-120,399	0,177	0,022
-492,781	61,342	-0,048	0,035
-491,766	4,028	-0,108	-0,058
-490,751	198,951	0,092	-0,104
-489,737	-146,636	-0,072	-0,005
-488,722	11,079	0,116	-0,065
-487,708	401,911	0,071	0,110
-486,693	-200,000	0,029	-0,096
-485,678	-200,000	-0,003	-0,103
-484,664	-120,123	-0,147	-0,018
-483,649	800,000	0,037	-0,092
-482,635	461,150	-0,027	-0,045
-481,620	800,000	0,048	-0,130
-480,605	-200,000	-0,035	0,124
-479,591	-200,000	0,002	0,055
-478,576	34,095	0,070	0,045
-477,562	-200,000	0,010	-0,095
-476,547	108,676	0,151	-0,132
-475,532	-200,000	-0,002	0,066
-474,518	-88,226	0,027	0,006
-473,503	197,863	0,030	0,033
-472,489	-106,649	-0,062	-0,010
-471,474	-86,229	-0,121	0,027
-470,459	800,000	-0,018	-0,044
-469,445	800,000	0,024	0,058
-468,430	-200,000	-0,000	-0,006
-467,416	699,180	0,082	-0,160
-466,401	-51,712	0,072	0,024
-465,386	-200,000	-0,014	-0,057
-464,372	800,000	-0,079	-0,166
-463,357	96,396	0,056	-0,047
-462,343	800,000	-0,040	0,085
-461,328	-135,260	0,052	-0,005
-460,313	-35,787	0,047	0,019
-459,299	-54,492	0,081	-0,027
-458,284	478,176	-0,051	-0,085
-457,270	131,311	-0,042	-0,040
-456,255	451,064	0,030	0,048
-455,241	800,000	0,044	0,111
-454,226	334,215	0,014	0,021
-453,211	-0,691	0,110	0,057
-452,197	-200,000	-0,029	-0,101
-451,182	20,840	0,075	0,045
-450,168	53,215	-0,059	0,042
-449,153	-132,415	0,082	-0,008
-448,138	-44,185	-0,077	-0,028
-447,124	-200,000	-0,030	0,101
-446,109	182,233	-0,059	0,064
-445,095	45,393	-0,037	0,025
-444,080	-40,225	0,106	-0,041
-443,065	-75,901	-0,107	-0,028
-442,051	-45,326	0,016	-0,006
-441,036	-61,247	0,058	0,018
-440,022	-97,372	-0,068	0,013
-439,007	800,000	0,041	0,119
-437,992	-200,000	-0,026	-0,151
-436,978	-11,043	0,046	0,022
-435,963	-25,797	-0,070	0,030
-434,949	-200,000	-0,007	-0,035
-433,934	-200,000	0,017	-0,106
-432,919	112,269	-0,032	-0,029
-431,905	28,273	0,042	-0,026
-430,890	674,141	0,050	-0,095
-429,876	800,000	0,034	0,105
-428,861	182,704	0,068	0,074
-427,846	71,715	0,062	0,047
-426,832	-11,269	-0,182	-0,088
-425,817	179,827	0,101	0,109
-424,803	-49,235	0,047	-0,016
-423,788	608,386	-0,045	0,084
-422,773	92,551	0,110	0,091
-421,759	518,280	-0,027	0,046
-420,744	242,518	-0,033	0,041
-419,730	-85,412	-0,120	-0,027
-418,715	-0,420	0,026	0,014
-417,701	-200,000	0,022	-0,089
-416,686	-137,615	0,086	0,007
-415,671	627,319	-0,045	-0,084
-414,657	-137,883	0,056	-0,005
-413,642	51,644	0,114	0,080
-412,628	-200,000	-0,007	-0,113
-411,613	800,000	-0,043	0,093
-410,598	-200,000	0,020	-0,079
-409,584	-200,000	-0,007	0,076
-408,569	-200,000	0,033	0,213
-407,555	-200,000	-0,022	0,155
-406,540	800,000	0,012	0,027
-405,525	-87,816	0,076	-0,017
-404,511	800,000	-0,024	0,073
-403,496	-200,000	-0,012	-0,089
-402,482	-86,171	-0,033	0,007
-401,467	-17,535	0,064	0,030
-400,452	282,063	0,033	-0,044
-399,438	-87,436	-0,073	0,016
-398,423	631,278	0,029	-0,055
-397,409	-200,000	-0,018	-0,072
-396,394	55,555	-0,068	-0,048
-395,379	-200,000	-0,012	-0,159
-394,365	252,948	-0,025	0,031
-393,350	256,492	-0,100	-0,126
-392,336	36,063	0,116	-0,075
-391,321	-3,734	-0,011	-0,005
-390,306	-200,000	0,003	0,021
-389,292	494,778	-0,070	-0,118
-388,277	45,023	0,004	0,002
-387,263	-81,254	0,085	-0,020
-386,248	616,354	0,056	0,103
-385,233	210,255	-0,040	-0,046
-384,219	39,042	0,056	0,037
-383,204	800,000	0,022	-0,059
-382,190	800,000	-0,062	-0,162
-381,175	-47,547	0,061	-0,022
-380,160	800,000	-0,034	-0,076
-379,146	800,000	-0,044	0,093
-378,131	-103,058	0,069	0,012
-377,117	22,909	-0,036	-0,022
-376,102	-102,192	0,044	-0,008
-375,088	-7,126	0,077	0,038
-374,073	181,613	-0,067	0,072
-373,058	-190,790	0,068	-0,001
-372,044	-67,940	0,120	0,034
-371,029	800,000	0,053	0,113
-370,015	-125,412	0,114	0,013
-369,000	246,335	-0,097	0,121
-367,985	8,775	-0,162	-0,089
-366,971	-200,000	0,021	-0,138
-365,956	76,411	0,048	-0,038
-364,942	-179,302	-0,032	-0,001
-363,927	11,824	0,023	0,013
-362,912	800,000	0,057	0,130
-361,898	259,289	-0,046	-0,058
-360,883	84,220	0,019	-0,015
-359,869	319,299	-0,096	-0,134
-358,854	-17,186	0,054	-0,025
-357,839	64,529	0,042	0,031
-356,825	50,882	-0,040	-0,027
-355,810	-200,000	-0,001	-0,097
-354,796	-87,594	-0,071	-0,016
-353,781	219,171	-0,017	0,020
-352,766	-200,000	-0,003	0,077
-351,752	-26,224	-0,023	-0,010
-350,737	800,000	0,017	0,037
-349,723	368,491	0,042	-0,062
-348,708	192,272	0,091	0,100
-347,693	-200,000	0,005	-0,073
-346,679	84,172	-0,138	0,110
-345,664	-200,000	-0,021	-0,085
-344,650	-200,000	0,022	-0,088
-343,635	-61,181	-0,025	-0,008
-342,620	772,663	0,042	0,084
-341,606	-60,157	0,068	-0,021
-340,591	-71,405	0,055	0,015
-339,577	385,560	0,056	0,084
-338,562	-110,504	-0,094	-0,014
-337,548	800,000	-0,021	-0,042
-336,533	59,781	0,127	0,091
-335,518	129,253	0,091	-0,085
-334,504	-44,900	0,115	0,042
-333,489	165,314	0,024	0,025
-332,475	-53,248	0,045	-0,015
-331,460	-58,715	0,036	0,011
-330,445	680,845	-0,020	-0,039
-329,431	382,004	0,044	0,067
-328,416	-200,000	-0,005	0,024
-327,402	537,671	0,045	-0,079
-326,387	585,673	-0,022	-0,041
-325,372	128,203	-0,100	-0,093
-324,358	-64,544	0,159	-0,047
-323,343	-200,000	0,010	-0,112
-322,329	300,928	0,043	0,059
-321,314	442,029	-0,079	0,127
-320,299	139,533	0,107	-0,104
-319,285	-200,000	-0,003	-0,015
-318,270	-17,927	-0,101	0,046
-317,256	800,000	-0,032	-0,070
-316,241	-170,925	0,006	0,000
-315,226	-66,842	-0,030	0,009
-314,212	132,862	0,041	0,039
-313,197	266,437	-0,027	0,034
-312,183	-200,000	0,025	0,165
-311,168	194,295	0,029	0,032
-310,153	93,038	0,091	-0,075
-309,139	151,820	-0,115	-0,114
-308,124	-200,000	0,038	0,145
-307,110	-200,000	0,037	0,139
-306,095	800,000	0,065	0,163
-305,080	-200,000	0,018	0,073
-304,066	-200,000	-0,001	-0,003
-303,051	443,030	-0,101	-0,162
-302,037	734,596	-0,041	-0,080
-301,022	-200,000	0,011	-0,055
-300,008	-74,194	0,093	0,024
-298,993	-120,704	0,115	0,014
-297,978	462,950	-0,029	0,048
-296,964	1,873	-0,088	0,046
-295,949	70,526	0,017	0,013
-294,935	670,664	0,026	0,049
-293,920	800,000	-0,011	0,035
-292,905	800,000	0,037	0,119
-291,891	455,274	0,095	0,155
-290,876	-200,000	-0,008	0,094
-289,862	38,219	0,050	0,033
-288,847	48,063	0,047	-0,032
-287,832	-26,179	-0,174	-0,074
-286,818	-12,210	-0,076	0,036
-285,803	-200,000	0,009	0,035
-284,789	-74,800	0,076	-0,020
-283,774	-177,032	-0,080	0,001
-282,759	800,000	-0,021	0,062
-281,745	110,007	-0,085	0,074
-280,730	-114,561	0,125	-0,017
-279,716	-200,000	-0,017	0,068
-278,701	212,644	-0,032	0,037
-277,686	-200,000	0,008	0,026
-276,672	-139,181	0,118	-0,009
-275,657	-40,590	0,209	-0,079
-274,643	39,202	0,040	-0,026
-273,628	-200,000	-0,016	-0,107
-272,613	419,430	0,078	-0,123
-271,599	716,743	-0,029	-0,057
-270,584	-124,551	-0,075	0,008
-269,570	-134,423	0,159	-0,014
-268,555	445,406	-0,056	0,090
-267,540	301,036	0,056	-0,075
-266,526	31,859	0,119	-0,075
-265,511	120,428	-0,074	0,067
-264,497	-102,274	-0,109	-0,019
-263,482	125,007	0,099	-0,091
-262,467	38,823	0,128	0,083
-261,453	226,116	-0,076	-0,091
-260,438	-200,000	0,016	-0,193
-259,424	-200,000	0,009	0,064
-258,409	299,714	-0,015	-0,020
-257,395	-200,000	-0,001	-0,123
-256,380	-200,000	-0,008	0,129
-255,365	29,896	0,047	-0,029
-254,351	30,310	0,072	0,045
-253,336	150,276	-0,046	0,046
-252,322	658,949	0,059	-0,111
-251,307	800,000	-0,070	-0,149
-250,292	800,000	0,044	-0,108
-249,278	205,080	-0,078	0,088
-248,263	-200,000	-0,005	0,070
-247,249	800,000	0,075	0,158
-246,234	23,082	0,070	-0,042
-245,219	-140,136	-0,058	-0,004
-244,205	-32,944	-0,077	-0,031
-243,190	290,839	0,060	-0,080
-242,176	161,629	-0,035	0,035
-241,161	800,000	0,024	0,055
-240,146	-39,899	-0,108	0,041
-239,132	-200,000	0,032	0,110
-238,117	-200,000	-0,019	-0,131
-237,103	648,670	-0,083	-0,155
-236,088	800,000	-0,025	0,055
-235,073	-11,443	-0,053	0,025
-234,059	800,000	0,051	-0,113
-233,044	210,103	-0,042	0,049
-232,030	393,486	0,054	0,083
-231,015	-200,000	-0,007	0,156
-230,000	-200,000	0,009	-0,103
-228,986	-200,000	0,002	-0,061
-227,971	-66,237	0,049	0,014
-226,957	-200,000	-0,015	0,107
-225,942	29,726	-0,079	0,049
-224,927	800,000	0,038	-0,098
-223,913	86,837	-0,038	-0,030
-222,898	28,672	-0,079	0,049
-221,884	-80,938	-0,072	-0,017
-220,869	-108,697	-0,085	0,013
-219,855	-10,585	0,031	0,015
-218,840	73,982	0,140	0,107
-217,825	377,454	0,066	0,098
-216,811	-200,000	0,022	-0,125
-215,796	-200,000	-0,047	-0,194
-214,782	800,000	0,039	0,091
-213,767	-200,000	0,043	-0,000
-212,752	551,411	0,010	0,018
-211,738	587,425	0,037	-0,067
-210,723	-44,326	0,021	0,008
-209,709	800,000	0,041	-0,095
-208,694	800,000	-0,029	-0,065
-207,679	217,536	0,036	-0,042
-206,665	626,388	-0,036	0,067
-205,650	117,223	0,151	-0,135
-204,636	-76,034	-0,020	0,005
-203,621	-144,327	0,026	0,002
-202,606	111,253	0,055	0,048
-201,592	800,000	0,031	0,074
-200,577	800,000	-0,005	0,013
-199,563	-34,044	0,195	-0,078
-198,548	11,101	0,074	-0,041
-197,533	800,000	0,019	-0,048
-196,519	-55,824	-0,039	-0,013
-195,504	-200,000	-0,011	-0,056
-194,490	115,762	-0,053	-0,047
-193,475	800,000	0,041	-0,101
-192,460	-193,861	0,078	0,000
-191,446	-26,454	0,037	0,016
-190,431	-200,000	0,020	0,152
-189,417	-200,000	-0,022	0,135
-188,402	-200,000	-0,025	0,087
-187,387	623,255	-0,060	-0,111
-186,373	-200,000	0,003	0,084
-185,358	-44,251	-0,090	0,033
-184,344	800,000	-0,012	0,036
-183,329	-200,000	0,046	0,208
-182,315	-200,000	0,058	0,188
-181,300	72,583	0,027	0,020
-180,285	16,114	-0,109	-0,063
-179,271	6,534	-0,042	-0,023
-178,256	360,161	-0,086	-0,125
-177,242	800,000	0,041	0,121
-176,227	96,745	0,017	-0,014
-175,212	800,000	-0,014	0,037
-174,198	285,882	0,018	-0,024
-173,183	-144,003	-0,101	0,007
-172,169	217,713	0,064	-0,075
-171,154	104,586	-0,137	-0,117
-170,139	-1,876	-0,062	0,031
-169,125	800,000	0,048	0,152
-168,110	800,000	0,014	0,030
-167,096	-200,000	-0,014	0,092
-166,081	800,000	0,029	0,059
-165,066	-93,287	-0,113	0,023
-164,052	41,983	0,044	-0,029
-163,037	-72,865	0,008	-0,002
-162,023	332,296	0,040	0,057
-161,008	-67,918	0,052	0,015
-159,993	-200,000	-0,008	-0,040
-158,979	-102,447	-0,115	0,020
-157,964	-200,000	-0,001	-0,161
-156,950	800,000	-0,027	-0,086
-155,935	594,288	0,036	-0,065
-154,920	-15,528	-0,157	0,073
-153,906	711,351	0,081	0,156
-152,891	765,933	-0,062	-0,123
-151,877	-200,000	0,001	-0,213
-150,862	-16,286	-0,125	-0,058
-149,847	33,585	0,064	0,040
-148,833	-200,000	0,016	-0,114
-147,818	135,792	0,090	0,085
-146,804	133,259	0,135	-0,127
-145,789	478,850	0,031	-0,052
-144,775	-200,000	-0,017	-0,194
-143,760	332,817	0,078	0,110
-142,745	-18,189	-0,151	-0,068
-141,731	27,027	-0,167	-0,102
-140,716	2,364	0,013	0,007
-139,702	-200,000	0,010	-0,067
-138,687	-99,592	0,058	-0,010
-137,672	-53,770	0,051	-0,017
-136,658	-85,779	0,082	0,018
-135,643	-200,000	-0,023	-0,245
-134,629	99,128	-0,050	-0,042
-133,614	-200,000	0,000	-0,008
-132,599	40,616	0,098	0,064
-131,585	119,526	-0,055	-0,050
-130,570	91,882	-0,051	-0,042
-129,556	800,000	-0,033	-0,082
-128,541	-200,000	0,025	-0,193
-127,526	-34,938	0,132	-0,052
-126,512	201,219	-0,052	-0,059
-125,497	90,265	0,028	-0,023
-124,483	800,000	0,023	0,074
-123,468	800,000	-0,079	0,169
-122,453	800,000	-0,034	-0,096
-121,439	216,386	-0,071	-0,082
-120,424	-123,531	-0,097	-0,011
-119,410	247,755	0,020	0,025
-118,395	-200,000	0,003	0,033
-117,380	81,628	0,042	0,033
-116,366	-30,410	-0,082	0,033
-115,351	-200,000	0,002	-0,095
-114,337	-200,000	-0,008	0,068
-113,322	65,650	0,137	0,101
-112,307	-14,596	0,006	-0,003
-111,293	39,478	-0,076	-0,049
-110,278	-140,722	0,130	0,010
-109,264	-77,288	0,119	0,030
-108,249	-200,000	0,026	-0,109
-107,234	420,763	0,127	-0,199
-106,220	36,126	-0,078	0,050
-105,205	800,000	-0,022	0,061
-104,191	-200,000	-0,004	-0,110
-103,176	-105,898	0,062	-0,010
-102,162	120,601	-0,075	0,067
-101,147	10,331	-0,101	-0,056
-100,132	48,629	-0,086	-0,058
-99,118	-75,968	-0,111	-0,028
-98,103	230,840	-0,090	0,108
-97,089	-200,000	0,018	0,126
-96,074	124,282	-0,094	-0,086
-95,059	510,339	-0,059	0,101
-94,045	-190,247	-0,070	0,001
-93,030	93,442	0,018	-0,015
-92,016	-129,971	-0,042	0,004
-91,001	1,431	0,049	0,026
-89,986	800,000	-0,057	-0,166
-88,972	-200,000	0,004	0,070
-87,957	787,563	-0,037	0,073
-86,943	800,000	-0,046	-0,134
-85,928	-64,051	-0,050	0,015
-84,913	596,078	-0,063	-0,113
-83,899	-200,000	0,030	-0,139
-82,884	-43,322	0,061	-0,022
-81,870	-200,000	-0,001	0,010
-80,855	-47,706	0,028	-0,010
-79,840	459,666	-0,108	-0,175
-78,826	-200,000	0,003	0,058
-77,811	110,681	0,073	-0,063
-76,797	-19,474	0,046	0,021
-75,782	-200,000	-0,029	0,113
-74,767	-92,481	0,055	0,011
-73,753	-66,738	0,161	0,046
-72,738	343,401	-0,039	-0,056
-71,724	-109,587	-0,050	0,008
-70,709	-200,000	0,000	-0,236
-69,694	49,825	-0,051	-0,035
-68,680	61,045	-0,038	-0,028
-67,665	-129,986	0,056	0,006
-66,651	196,848	0,078	-0,086
-65,636	-103,743	0,060	-0,010
-64,622	155,881	-0,033	-0,033
-63,607	-116,782	0,064	-0,008
-62,592	-200,000	-0,015	-0,082
-61,578	-11,696	0,084	0,040
-60,563	198,234	-0,004	0,005
-59,549	107,743	-0,085	-0,073
-58,534	-82,877	-1,534	-0,356
-57,519	800,000	-0,648	-1,420
-56,505	-200,000	-0,831	-4,375
-55,490	-143,406	0,552	0,038
-54,476	800,000	4,980	11,790
-53,461	-200,000	14,893	262,968
-52,446	-200,000	699,043	2249,806
-51,432	589,470	1622,262	2909,239
-50,417	120,095	1628,711	1463,889
-49,403	80,208	1282,652	998,907
-48,388	37,538	1021,417	655,147
-47,373	22,701	981,895	581,019
-46,359	21,784	970,936	571,502
-45,344	20,434	966,620	564,531
-44,330	20,461	965,314	563,834
-43,315	20,308	963,881	562,473
-42,300	20,275	962,828	561,731
-41,286	20,252	961,805	561,036
-40,271	20,338	960,723	560,662
-39,257	20,292	959,889	560,005
-38,242	20,287	959,082	559,496
-37,227	20,212	958,371	558,815
-36,213	20,253	957,438	558,382
-35,198	20,202	956,364	557,568
-34,184	20,255	955,739	557,352
-33,169	20,226	954,599	556,572
-32,154	20,252	953,816	556,179
-31,140	20,289	953,034	555,821
-30,125	20,282	952,140	555,254
-29,111	20,257	951,303	554,664
-28,096	20,331	950,498	554,410
-27,082	20,303	950,037	554,028
-26,067	20,314	949,120	553,508
-25,052	20,270	948,315	552,874
-24,038	20,263	947,760	552,506
-23,023	20,168	947,329	551,929
-22,009	20,300	946,424	551,802
-20,994	20,280	945,901	551,411
-19,979	20,305	945,227	551,077
-18,965	20,275	944,703	550,654
-17,950	20,286	944,090	550,310
-16,936	20,218	943,562	549,763
-15,921	20,197	942,804	549,231
-14,906	20,132	942,002	548,536
-13,892	20,173	941,361	548,271
-12,877	20,154	940,629	547,764
-11,863	20,126	940,101	547,346
-10,848	20,145	939,635	547,112
-9,833	20,252	939,258	547,210
-8,819	20,251	938,459	546,721
-7,804	20,124	937,948	545,998
-6,790	20,151	937,171	545,609
-5,775	20,198	936,674	545,446
-4,760	20,144	936,175	544,965
-3,746	20,182	935,529	544,687
-2,731	19,973	934,730	543,540
-1,717	19,979	934,074	543,156
-0,702	19,991	933,307	542,728
0,313	19,750	932,882	542,538
1,327	22,308	930,281	549,021
2,342	29,814	805,572	495,700
3,356	23,962	505,960	301,368
4,371	-0,503	372,385	190,748
5,386	-3,365	355,510	178,585
6,400	-4,417	349,931	174,498
7,415	-4,755	347,340	172,786
8,429	-4,524	345,839	172,299
9,444	-4,640	345,041	171,749
10,459	-4,467	344,312	171,575
11,473	-4,652	343,719	171,046
12,488	-4,588	343,262	170,879
13,502	-4,606	342,554	170,489
14,517	-4,507	342,090	170,361
15,531	-4,420	341,650	170,228
16,546	-4,411	341,417	170,108
17,561	-4,421	340,808	169,778
18,575	-4,293	340,605	169,811
19,590	-4,585	339,998	169,152
20,604	-4,545	339,855	169,113
21,619	-4,585	339,535	168,892
22,634	-4,457	339,045	168,781
23,648	-4,473	338,730	168,591
24,663	-4,494	338,398	168,387
25,677	-4,487	338,050	168,206
26,692	-4,442	337,884	168,161
27,707	-4,368	337,463	168,023
28,721	-4,470	337,082	167,700
29,736	-4,436	336,967	167,667
30,750	-4,468	336,478	167,372
31,765	-4,480	336,352	167,281
32,780	-4,392	335,925	167,155
33,794	-4,329	335,626	167,063
34,809	-4,441	335,431	166,822
35,823	-4,282	335,081	166,817
36,838	-4,563	334,818	166,347
37,853	-4,497	334,578	166,289
38,867	-4,549	334,272	166,063
39,882	-4,503	334,042	165,986
40,896	-4,299	333,699	166,035
41,911	-4,492	333,583	165,741
42,926	-4,355	333,191	165,688
43,940	-4,418	332,902	165,459
44,955	-4,443	332,716	165,323
45,969	-4,354	332,403	165,254
46,984	-4,402	332,195	165,080
47,999	-4,234	331,889	165,105
49,013	-4,188	331,638	165,018
50,028	-4,352	331,397	164,697
51,042	-4,162	331,093	164,747
52,057	-4,317	330,991	164,505
53,071	-4,420	330,770	164,264
54,086	-4,437	330,501	164,097
55,101	-4,343	330,139	164,009
56,115	-4,482	329,928	163,732
57,130	-4,508	329,645	163,547
58,144	-4,609	329,253	163,224
59,159	-4,533	329,105	163,222
60,174	-4,527	328,754	163,040
61,188	-4,479	328,604	163,005
62,203	-4,566	328,297	162,741
63,217	-4,545	328,153	162,678
64,232	-4,541	327,768	162,478
65,247	-4,529	327,406	162,297
66,261	-4,362	327,029	162,283
67,276	-4,360	326,896	162,205
68,290	-4,404	326,567	161,977
69,305	-4,362	326,442	161,948
70,320	-4,417	326,185	161,746
71,334	-4,319	325,857	161,677
72,349	-4,428	325,572	161,399
73,363	-4,675	325,393	161,022
74,378	-4,486	325,103	161,074
75,393	-4,417	324,846	161,010
76,407	-4,441	324,553	160,823
77,422	-4,329	324,465	160,889
78,436	-4,306	323,980	160,661
79,451	-4,442	323,897	160,453
80,466	-4,378	323,587	160,357
81,480	-4,384	323,340	160,214
82,495	-4,187	323,141	160,319
83,509	-4,520	322,899	159,816
84,524	-4,469	322,918	159,867
85,539	-4,479	322,427	159,599
86,553	-4,395	322,196	159,563
87,568	-4,417	321,918	159,387
88,582	-4,477	321,771	159,234
89,597	-4,274	321,465	159,292
90,611	-4,501	321,268	158,931
91,626	-4,290	321,025	159,027
92,641	-4,499	320,905	158,724
93,655	-4,402	320,552	158,642
94,670	-4,398	320,325	158,520
95,684	-4,470	320,182	158,356
96,699	-4,486	319,828	158,150
97,714	-4,390	319,550	158,102
98,728	-4,245	319,389	158,168
99,743	-4,322	319,098	157,925
100,757	-4,260	318,913	157,887
101,772	-4,447	318,740	157,583
102,787	-4,285	318,359	157,557
103,801	-4,552	318,263	157,205
104,816	-4,420	317,966	157,189
105,830	-4,322	317,680	157,140
106,845	-4,388	317,587	157,008
107,860	-4,438	317,327	156,812
108,874	-4,458	316,988	156,608
109,889	-4,381	316,754	156,562
110,903	-4,446	316,464	156,335
111,918	-4,345	316,242	156,320
112,933	-4,362	316,112	156,223
113,947	-4,394	315,917	156,078
114,962	-4,428	315,852	155,996
115,976	-4,336	315,550	155,931
116,991	-4,372	315,149	155,681
118,006	-4,492	314,998	155,464
119,020	-4,490	314,804	155,355
120,035	-4,467	314,775	155,353
121,049	-4,312	314,419	155,328
122,064	-4,423	314,162	155,070
123,079	-4,509	313,940	154,853
124,093	-4,424	313,758	154,841
125,108	-4,462	313,533	154,676
126,122	-4,357	313,336	154,677
127,137	-4,242	312,956	154,598
128,151	-4,282	312,816	154,472
129,166	-4,375	312,560	154,234
130,181	-4,286	312,363	154,217
131,195	-4,257	312,179	154,144
132,210	-4,287	311,671	153,847
133,224	-4,424	311,574	153,640
134,239	-4,377	311,470	153,625
135,254	-4,432	311,283	153,461
136,268	-4,426	311,036	153,332
137,283	-4,361	310,770	153,256
138,297	-4,278	310,408	153,151
139,312	-4,435	310,214	152,876
140,327	-4,274	309,941	152,898
141,341	-4,339	309,855	152,773
142,356	-4,466	309,560	152,480
143,370	-4,437	309,411	152,423
144,385	-4,236	309,029	152,434
145,400	-4,227	309,064	152,446
146,414	-4,434	308,843	152,106
147,429	-4,393	308,479	151,956
148,443	-4,463	308,420	151,840
149,458	-4,546	308,097	151,580
150,473	-4,324	308,038	151,771
151,487	-4,198	307,649	151,697
152,502	-4,442	307,448	151,330
153,516	-4,342	307,331	151,363
154,531	-4,475	307,088	151,090
155,546	-4,328	306,806	151,092
156,560	-4,324	306,553	150,958
157,575	-4,438	306,325	150,714
158,589	-4,243	306,109	150,798
159,604	-4,227	305,878	150,687
160,619	-4,464	305,767	150,372
161,633	-4,171	305,377	150,471
162,648	-4,503	305,528	150,187
163,662	-4,348	305,226	150,186
164,677	-4,215	304,933	150,166
165,692	-4,330	304,771	149,954
166,706	-4,281	304,581	149,898
167,721	-4,260	304,377	149,806
168,735	-4,288	304,169	149,661
169,750	-4,288	303,887	149,510
170,764	-4,462	303,814	149,280
171,779	-4,469	303,635	149,171
172,794	-4,324	303,352	149,169
173,808	-4,336	303,085	149,012
174,823	-4,260	302,971	149,021
175,837	-4,218	302,678	148,906
176,852	-4,368	302,566	148,683
177,867	-4,234	302,285	148,670
178,881	-4,354	302,108	148,447
179,896	-4,434	301,840	148,220
180,910	-4,327	301,764	148,280
181,925	-4,383	301,397	148,028
182,940	-4,417	301,260	147,912
183,954	-4,249	300,990	147,938
184,969	-4,211	300,846	147,894
185,983	-4,255	300,839	147,832
186,998	-4,257	300,578	147,688
188,013	-4,156	300,232	147,609
189,027	-4,124	299,982	147,504
190,042	-4,234	299,969	147,373
191,056	-4,380	299,604	147,033
192,071	-4,417	299,418	146,891
193,086	-4,427	299,299	146,809
194,100	-4,416	298,997	146,659
195,115	-4,259	298,835	146,725
196,129	-4,246	298,614	146,617
197,144	-4,336	298,329	146,372
198,159	-4,433	298,099	146,149
199,173	-4,505	298,010	146,019
200,188	-4,335	297,502	145,930
201,202	-4,252	297,353	145,926
202,217	-4,363	297,281	145,766
203,232	-4,307	297,194	145,768
204,246	-4,335	296,829	145,547
205,261	-4,313	296,534	145,411
206,275	-4,239	296,333	145,374
207,290	-4,200	296,235	145,352
208,304	-4,351	296,191	145,166
209,319	-4,276	295,982	145,126
210,334	-4,134	295,621	145,078
211,348	-4,238	295,531	144,916
212,363	-4,354	295,349	144,699
213,377	-4,434	295,128	144,498
214,392	-4,305	294,838	144,472
215,407	-4,240	294,775	144,492
216,421	-4,236	294,487	144,342
217,436	-4,229	294,159	144,176
218,450	-4,303	294,003	144,013
219,465	-4,433	293,886	143,813
220,480	-4,381	293,643	143,734
221,494	-4,424	293,686	143,699
222,509	-4,362	293,431	143,623
223,523	-4,347	293,120	143,472
224,538	-4,306	292,832	143,360
225,553	-4,325	292,802	143,314
226,567	-4,238	292,629	143,302
227,582	-4,374	292,342	143,014
228,596	-4,261	292,140	143,014
229,611	-4,312	292,137	142,950
230,626	-4,438	291,855	142,675
231,640	-4,139	291,561	142,812
232,655	-4,250	291,423	142,624
233,669	-4,302	291,215	142,458
234,684	-4,108	290,919	142,491
235,699	-4,187	290,868	142,375
236,713	-4,267	290,623	142,164
237,728	-4,332	290,472	142,014
238,742	-4,151	290,152	142,022
239,757	-4,472	290,057	141,649
240,772	-4,457	289,778	141,514
241,786	-4,520	289,678	141,392
242,801	-4,320	289,437	141,457
243,815	-4,281	289,301	141,416
244,830	-4,383	289,178	141,244
245,844	-4,403	288,946	141,098
246,859	-4,314	288,715	141,059
247,874	-4,447	288,484	140,804
248,888	-4,391	288,382	140,797
249,903	-4,342	288,136	140,712
250,917	-4,545	287,972	140,421
251,932	-4,514	287,784	140,347
252,947	-4,538	287,363	140,106
253,961	-4,994	287,025	139,488
254,976	-4,925	286,781	139,423
255,990	-4,768	286,763	139,554
257,005	-3,538	287,339	141,014
258,020	-1,354	287,952	143,420
259,034	0,037	288,504	145,032
260,049	0,546	288,325	145,422
261,063	0,963	288,192	145,745
262,078	1,319	288,243	146,104
263,093	1,562	288,157	146,282
264,107	1,779	288,055	146,427
265,122	1,991	287,970	146,575
266,136	2,128	287,686	146,550
267,151	2,213	287,583	146,567
268,166	2,231	287,388	146,472
269,180	2,281	287,155	146,387
270,195	2,229	287,020	146,256
271,209	2,054	287,006	146,067
272,224	2,231	286,820	146,130
273,239	2,102	286,541	145,851
274,253	2,104	286,205	145,669
275,268	1,990	286,021	145,452
276,282	2,124	285,800	145,455
277,297	1,783	285,770	145,100
278,312	1,984	285,486	145,135
279,326	1,977	285,287	145,015
280,341	1,922	285,221	144,916
281,355	1,918	285,016	144,795
282,370	2,064	284,783	144,803
283,384	2,125	284,346	144,626
284,399	1,867	284,467	144,429
285,414	1,769	284,218	144,196
286,428	1,785	283,933	144,054
287,443	1,886	283,779	144,059
288,457	1,986	283,630	144,066
289,472	1,939	283,425	143,903
290,487	1,712	283,273	143,599
291,501	1,788	282,985	143,512
292,516	1,863	282,846	143,500
293,530	1,909	282,668	143,439
294,545	1,746	282,557	143,216
295,560	1,735	282,263	143,044
296,574	1,866	281,994	143,020
297,589	1,802	281,772	142,833
298,603	1,624	281,734	142,634
299,618	1,929	281,613	142,847
300,633	1,766	281,456	142,601
301,647	1,888	281,187	142,567
302,662	1,915	281,021	142,496
303,676	1,884	280,929	142,407
304,691	2,022	280,691	142,403
305,706	2,148	280,482	142,403
306,720	1,982	280,318	142,151
307,735	2,054	280,158	142,124
308,749	1,931	280,059	141,947
309,764	2,099	279,832	141,976
310,779	1,925	279,761	141,765
311,793	2,140	279,409	141,775
312,808	2,032	279,133	141,521
313,822	1,853	279,044	141,297
314,837	2,043	278,790	141,332
315,852	2,033	278,910	141,371
316,866	2,033	278,549	141,176
317,881	1,976	278,359	141,014
318,895	1,965	278,265	140,943
319,910	1,931	277,970	140,749
320,925	2,135	277,745	140,812
321,939	1,936	277,627	140,556
322,954	1,991	277,609	140,585
323,968	1,824	277,410	140,317
324,983	1,999	277,116	140,317
325,997	1,962	276,949	140,186
327,012	2,002	276,746	140,108
328,027	2,294	276,589	140,286
329,041	2,073	276,415	139,981
330,056	2,190	276,234	139,984
331,070	2,037	276,058	139,742
332,085	2,171	275,836	139,741
333,100	2,273	275,658	139,731
334,114	2,144	275,472	139,506
335,129	2,016	275,384	139,332
336,143	2,135	275,074	139,272
337,158	1,954	275,086	139,099
338,173	2,057	274,900	139,088
339,187	1,938	274,684	138,857
340,202	2,103	274,500	138,902
341,216	2,191	274,218	138,828
342,231	2,028	274,046	138,579
343,246	2,098	273,880	138,547
344,260	2,129	273,838	138,541
345,275	2,220	273,682	138,533
346,289	2,089	273,444	138,281
347,304	2,135	273,264	138,219
348,319	2,121	273,139	138,132
349,333	2,110	273,029	138,054
350,348	2,054	272,781	137,865
351,362	1,923	272,721	137,703
352,377	2,118	272,447	137,730
353,392	2,201	272,149	137,642
354,406	2,214	272,024	137,578
355,421	191,352	1347,165	1425,290
356,435	154,475	1478,227	1425,393
