DTS Sentinel unit serial number:	SN410029Multiplexer serial number:	ORYXHardware model number:	OX2-SRSoftware version number:	ORYX F/W v4,00 Oryx Data Collector v3.7.2.0data status	okinstallation	B4 Nyhavnadifferential loss correction	single-endedforward channel	channel 2reverse channel	N/Adate	2023/12/19time	03:55:13forward acquisition time	300,00reverse acquisition time	0,00gamma	499,1914k internal	0,3126k external	0,3126temperature offset calibration	1,0000default loss term (dB/km)	0,3820temperature slope calibration	1,0000multiplexer offset coefficient	1,0000multiplexer slope coefficient	1,0000fibre end	0,00T internal ref (°C)	21,00T ext. ref 1 (°C)	5,81T ext. ref 2 (°C)	5,80length (m)	temperature (°C)	Stokes	anti-Stokes-744,400	-100,613	0,099	-0,018
-743,385	-74,169	-0,192	0,051
-742,371	53,355	-0,031	-0,022
-741,356	-27,276	-0,331	0,143
-740,342	-32,466	0,074	0,031
-739,327	104,046	-0,269	0,236
-738,312	-200,000	0,014	-0,098
-737,298	-6,880	-0,184	0,093
-736,283	-200,000	0,035	-0,178
-735,269	56,704	-0,181	0,131
-734,254	167,037	0,077	0,081
-733,239	-8,010	-0,354	-0,177
-732,225	35,129	0,099	-0,064
-731,210	87,350	-0,067	0,056
-730,196	800,000	0,011	0,024
-729,181	800,000	0,065	0,187
-728,167	100,403	-0,135	-0,116
-727,152	-200,000	-0,005	-0,022
-726,137	800,000	-0,082	-0,249
-725,123	396,315	-0,067	-0,104
-724,108	-200,000	-0,007	-0,227
-723,094	-23,178	-0,031	0,014
-722,079	-200,000	-0,018	-0,070
-721,064	-200,000	-0,020	-0,074
-720,050	-5,235	-0,050	-0,026
-719,035	-200,000	0,002	-0,019
-718,021	-124,854	-0,206	-0,023
-717,006	19,818	-0,128	-0,077
-715,991	-106,540	-0,206	0,034
-714,977	-48,306	-0,095	0,034
-713,962	800,000	0,074	-0,173
-712,948	800,000	-0,024	-0,067
-711,933	210,106	-0,061	-0,072
-710,918	-109,446	0,078	-0,012
-709,904	115,641	-0,035	-0,032
-708,889	-200,000	0,004	-0,049
-707,875	800,000	-0,056	-0,175
-706,860	-200,000	-0,016	-0,063
-705,845	316,220	0,066	0,093
-704,831	-133,979	0,081	0,007
-703,816	800,000	-0,036	-0,091
-702,802	-42,861	-0,109	-0,041
-701,787	-17,662	-0,004	0,002
-700,772	376,429	-0,072	-0,109
-699,758	-12,775	-0,133	0,064
-698,743	92,299	0,084	0,071
-697,729	-69,917	0,036	0,010
-696,714	310,683	0,019	-0,027
-695,699	-130,359	0,130	-0,013
-694,685	291,422	0,023	0,031
-693,670	800,000	-0,042	-0,137
-692,656	143,390	0,070	-0,070
-691,641	-19,961	0,049	0,022
-690,627	-200,000	-0,004	0,096
-689,612	-200,000	-0,036	0,000
-688,597	-16,210	-0,048	-0,023
-687,583	800,000	-0,016	-0,041
-686,568	800,000	0,032	-0,104
-685,554	347,664	-0,076	-0,111
-684,539	800,000	-0,006	-0,014
-683,524	-200,000	0,018	-0,104
-682,510	701,204	0,044	0,086
-681,495	800,000	-0,028	0,059
-680,481	800,000	0,040	-0,088
-679,466	577,927	-0,066	-0,121
-678,451	-200,000	-0,002	-0,010
-677,437	-200,000	0,008	0,079
-676,422	655,392	-0,040	0,077
-675,408	-41,038	-0,088	0,034
-674,393	785,406	-0,064	0,131
-673,378	800,000	0,025	-0,079
-672,364	-77,586	0,110	0,028
-671,349	157,591	-0,052	-0,053
-670,335	-125,499	0,035	-0,004
-669,320	-165,780	-0,089	0,003
-668,305	-200,000	0,002	0,067
-667,291	-22,319	-0,030	0,013
-666,276	800,000	-0,043	-0,095
-665,262	-86,224	-0,070	-0,016
-664,247	800,000	-0,049	-0,109
-663,232	-31,996	0,037	-0,015
-662,218	800,000	0,023	0,052
-661,203	314,676	-0,071	-0,099
-660,189	55,558	-0,038	-0,027
-659,174	101,204	-0,139	-0,120
-658,159	-200,000	0,019	-0,083
-657,145	60,755	-0,158	-0,116
-656,130	-159,604	0,109	-0,004
-655,116	-35,996	-0,084	0,034
-654,101	173,240	-0,088	-0,094
-653,086	455,707	0,063	0,103
-652,072	-134,695	0,122	0,011
-651,057	18,909	0,064	-0,038
-650,043	-35,591	-0,118	-0,047
-649,028	479,902	0,062	-0,105
-648,014	184,230	0,054	0,060
-646,999	-200,000	-0,001	0,197
-645,984	800,000	-0,072	0,152
-644,970	631,073	-0,054	0,101
-643,955	-200,000	0,003	-0,022
-642,941	-200,000	-0,010	-0,102
-641,926	-124,468	-0,193	-0,022
-640,911	31,201	-0,107	0,068
-639,897	-200,000	0,002	-0,084
-638,882	-69,700	0,131	0,037
-637,868	-200,000	0,006	-0,081
-636,853	-200,000	-0,009	-0,066
-635,838	69,776	0,057	-0,044
-634,824	-200,000	-0,008	-0,120
-633,809	800,000	0,005	-0,012
-632,795	171,248	-0,024	0,026
-631,780	-200,000	-0,001	0,071
-630,765	-200,000	0,020	0,072
-629,751	126,146	0,093	-0,087
-628,736	336,969	-0,054	-0,078
-627,722	-90,927	-0,135	-0,028
-626,707	379,180	-0,067	-0,103
-625,692	800,000	-0,022	0,062
-624,678	-200,000	-0,006	0,063
-623,663	311,682	0,031	-0,043
-622,649	-200,000	0,008	-0,089
-621,634	-139,352	-0,108	0,008
-620,619	800,000	-0,040	0,085
-619,605	188,492	0,031	0,034
-618,590	800,000	0,049	0,144
-617,576	-48,060	0,066	0,023
-616,561	800,000	-0,042	-0,117
-615,546	-29,195	-0,136	0,057
-614,532	606,561	0,058	-0,107
-613,517	-142,330	-0,302	-0,022
-612,503	340,249	-0,062	-0,090
-611,488	-138,520	0,116	0,009
-610,474	712,817	0,102	0,202
-609,459	-26,700	0,131	0,056
-608,444	800,000	0,068	-0,161
-607,430	205,941	0,023	0,027
-606,415	88,351	-0,043	0,035
-605,401	-200,000	0,035	0,129
-604,386	88,193	0,098	-0,080
-603,371	40,594	0,128	0,085
-602,357	800,000	-0,032	0,066
-601,342	-165,811	-0,027	-0,001
-600,328	165,888	-0,052	0,054
-599,313	99,641	-0,011	-0,009
-598,298	63,384	-0,129	0,095
-597,284	326,968	-0,062	-0,088
-596,269	-114,826	0,074	0,010
-595,255	154,893	0,117	0,119
-594,240	-40,292	0,092	0,035
-593,225	-20,751	-0,125	-0,057
-592,211	70,168	-0,081	0,062
-591,196	-27,199	0,091	-0,039
-590,182	-200,000	-0,044	0,160
-589,167	-134,865	-0,012	-0,001
-588,152	117,357	-0,072	0,065
-587,138	118,274	0,035	-0,032
-586,123	-59,851	0,039	0,012
-585,109	800,000	-0,031	-0,072
-584,094	194,432	0,056	0,063
-583,079	-96,072	0,068	0,013
-582,065	495,999	0,031	0,053
-581,050	171,091	0,037	0,039
-580,036	295,050	-0,037	-0,050
-579,021	89,409	-0,054	-0,044
-578,006	-31,694	-0,086	0,036
-576,992	13,503	0,055	-0,032
-575,977	-81,992	0,072	-0,017
-574,963	15,884	0,064	-0,037
-573,948	-200,000	-0,004	-0,083
-572,934	800,000	0,014	0,036
-571,919	800,000	-0,038	0,085
-570,904	800,000	0,012	-0,032
-569,890	133,273	-0,124	-0,119
-568,875	387,648	-0,055	0,084
-567,861	-200,000	-0,007	-0,093
-566,846	60,701	0,067	0,049
-565,831	49,684	0,072	-0,050
-564,817	-72,194	-0,038	0,010
-563,802	-24,524	-0,066	0,029
-562,788	57,733	0,104	0,075
-561,773	-200,000	-0,016	-0,077
-560,758	-11,629	-0,008	-0,004
-559,744	165,229	0,089	-0,093
-558,729	-160,287	0,148	-0,006
-557,715	-51,990	-0,049	-0,017
-556,700	800,000	-0,021	-0,049
-555,685	800,000	-0,047	-0,118
-554,671	-200,000	0,004	-0,119
-553,656	115,318	0,075	-0,068
-552,642	-31,651	-0,042	0,018
-551,627	-120,777	0,098	0,012
-550,612	286,411	-0,067	-0,089
-549,598	800,000	-0,026	0,059
-548,583	-200,000	-0,011	0,053
-547,569	-200,000	-0,005	0,042
-546,554	-98,670	0,050	0,009
-545,539	800,000	-0,027	-0,087
-544,525	196,662	0,141	0,158
-543,510	447,621	0,047	0,076
-542,496	48,798	0,134	-0,093
-541,481	313,332	-0,027	0,037
-540,466	800,000	-0,076	-0,163
-539,452	-138,668	0,137	-0,011
-538,437	88,215	0,052	-0,042
-537,423	30,798	0,149	0,094
-536,408	-200,000	-0,006	0,034
-535,393	-171,666	0,064	-0,002
-534,379	-15,198	-0,112	0,053
-533,364	-9,507	0,086	0,042
-532,350	2,199	0,153	0,082
-531,335	-87,695	0,076	-0,017
-530,321	-200,000	0,042	0,139
-529,306	-200,000	-0,008	0,107
-528,291	-11,537	-0,025	-0,012
-527,277	34,924	-0,177	-0,114
-526,262	-148,355	-0,045	-0,003
-525,248	60,794	0,105	-0,077
-524,233	12,104	0,076	-0,043
-523,218	-200,000	-0,039	0,153
-522,204	95,963	0,037	-0,032
-521,189	108,586	-0,111	-0,097
-520,175	28,931	-0,071	-0,044
-519,160	20,941	-0,087	0,052
-518,145	800,000	-0,068	-0,211
-517,131	-200,000	0,034	0,214
-516,116	800,000	0,027	0,072
-515,102	-29,834	0,063	0,027
-514,087	-65,282	-0,072	0,021
-513,072	47,393	-0,025	0,017
-512,058	-47,848	0,060	-0,021
-511,043	89,512	-0,100	0,082
-510,029	113,412	0,020	0,018
-509,014	-98,864	-0,113	0,021
-507,999	800,000	0,036	-0,088
-506,985	-200,000	-0,004	0,086
-505,970	63,490	-0,045	0,033
-504,956	-191,797	-0,141	-0,001
-503,941	-200,000	0,027	0,124
-502,926	203,463	0,052	0,060
-501,912	156,786	-0,067	0,068
-500,897	638,005	-0,030	-0,056
-499,883	-179,699	0,106	0,002
-498,868	617,217	-0,009	0,017
-497,853	277,208	0,046	-0,061
-496,839	44,099	-0,121	0,082
-495,824	529,215	0,063	0,110
-494,810	26,671	-0,046	0,028
-493,795	-200,000	-0,014	-0,118
-492,781	193,345	-0,028	0,032
-491,766	800,000	-0,019	-0,048
-490,751	-10,500	-0,133	0,065
-489,737	122,313	-0,105	-0,097
-488,722	33,279	-0,018	0,012
-487,708	-200,000	-0,030	0,103
-486,693	38,856	0,120	0,079
-485,678	-52,982	-0,037	0,012
-484,664	-200,000	0,008	-0,117
-483,649	-63,596	-0,112	-0,034
-482,635	22,125	0,055	0,033
-481,620	166,691	0,078	-0,082
-480,605	-161,904	0,110	-0,004
-479,591	182,534	0,035	-0,038
-478,576	800,000	0,052	-0,138
-477,562	-200,000	0,024	-0,137
-476,547	500,628	-0,056	0,096
-475,532	50,066	0,087	-0,061
-474,518	220,027	-0,058	-0,068
-473,503	800,000	-0,046	0,103
-472,489	-20,761	0,100	0,045
-471,474	58,139	0,087	-0,062
-470,459	-61,367	-0,111	-0,034
-469,445	-200,000	-0,023	-0,124
-468,430	210,736	-0,048	0,056
-467,416	-200,000	0,018	-0,062
-466,401	-200,000	0,016	0,078
-465,386	137,250	-0,059	0,056
-464,372	800,000	-0,037	-0,086
-463,357	410,257	0,040	0,062
-462,343	179,142	-0,023	-0,025
-461,328	156,550	-0,009	0,009
-460,313	800,000	0,019	-0,043
-459,299	-11,240	0,081	0,039
-458,284	-200,000	0,021	-0,109
-457,270	234,854	0,047	-0,057
-456,255	-2,157	0,066	0,034
-455,241	112,394	-0,035	-0,031
-454,226	103,945	-0,045	0,039
-453,211	14,223	-0,059	0,034
-452,197	-200,000	0,009	0,044
-451,182	-54,405	0,147	-0,049
-450,168	614,144	0,061	-0,113
-449,153	-200,000	0,004	-0,136
-448,138	800,000	0,070	-0,229
-447,124	800,000	-0,032	-0,100
-446,109	221,966	0,073	-0,087
-445,095	-159,286	0,092	-0,004
-444,080	-3,522	-0,085	0,043
-443,065	-94,050	0,031	0,006
-442,051	-1,589	0,072	0,037
-441,036	-75,673	-0,051	-0,013
-440,022	174,221	0,072	-0,077
-439,007	496,999	-0,031	-0,052
-437,992	-114,951	0,121	0,017
-436,978	305,891	0,035	0,049
-435,963	-200,000	0,003	-0,047
-434,949	-73,256	0,025	0,007
-433,934	193,472	-0,095	-0,106
-432,919	-200,000	-0,001	-0,116
-431,905	-125,760	0,091	0,010
-430,890	-129,129	-0,124	0,013
-429,876	51,057	0,116	-0,080
-428,861	800,000	-0,058	0,135
-427,846	-7,082	-0,103	0,051
-426,832	-200,000	-0,012	0,108
-425,817	800,000	-0,060	-0,131
-424,803	-200,000	-0,009	0,030
-423,788	-135,361	0,108	0,009
-422,773	33,808	-0,047	0,030
-421,759	74,291	-0,077	0,059
-420,744	800,000	0,047	0,111
-419,730	502,782	0,029	0,049
-418,715	2,468	0,076	0,040
-417,701	-16,293	-0,055	0,026
-416,686	238,727	0,124	0,152
-415,671	-114,825	0,034	0,005
-414,657	-200,000	-0,007	0,128
-413,642	115,665	0,060	0,054
-412,628	309,519	-0,048	-0,066
-411,613	133,756	-0,072	-0,068
-410,598	144,574	0,036	0,036
-409,584	697,042	-0,054	0,104
-408,569	-114,258	0,161	-0,023
-407,555	-47,707	0,016	0,006
-406,540	16,738	0,091	-0,053
-405,525	-7,598	0,059	0,029
-404,511	-99,119	-0,040	-0,007
-403,496	-200,000	0,010	-0,050
-402,482	7,887	0,054	0,030
-401,467	-74,919	-0,110	0,029
-400,452	75,149	0,075	0,058
-399,438	800,000	0,041	0,096
-398,423	-54,748	-0,083	-0,027
-397,409	-200,000	-0,004	0,117
-396,394	-200,000	-0,018	-0,100
-395,379	298,736	-0,011	0,014
-394,365	60,761	-0,020	0,014
-393,350	354,570	0,032	-0,046
-392,336	-156,696	0,101	-0,005
-391,321	-200,000	0,003	0,021
-390,306	-200,000	-0,034	0,170
-389,292	-200,000	-0,029	-0,110
-388,277	-54,498	-0,096	0,032
-387,263	-89,714	0,075	0,016
-386,248	51,848	-0,077	0,054
-385,233	-184,387	0,085	-0,001
-384,219	-200,000	0,035	0,142
-383,204	101,248	0,046	-0,039
-382,190	61,630	0,029	0,021
-381,175	557,168	0,054	-0,096
-380,160	83,390	-0,031	-0,025
-379,146	238,637	0,060	0,074
-378,131	-200,000	0,003	-0,015
-377,117	381,676	-0,024	-0,037
-376,102	-200,000	-0,008	-0,061
-375,088	482,954	0,046	0,077
-374,073	-200,000	-0,015	0,057
-373,058	127,136	-0,061	0,056
-372,044	-37,909	-0,045	0,017
-371,029	-42,118	0,153	0,057
-370,015	108,200	0,087	0,076
-369,000	-91,159	-0,057	0,012
-367,985	250,033	-0,120	-0,150
-366,971	-200,000	0,017	0,065
-365,956	-6,153	-0,055	-0,028
-364,942	144,605	0,048	-0,047
-363,927	-25,847	-0,111	-0,048
-362,912	-59,328	-0,099	-0,031
-361,898	133,673	-0,073	-0,070
-360,883	253,517	-0,093	-0,117
-359,869	-200,000	0,013	-0,100
-358,854	342,842	-0,029	-0,042
-357,839	50,694	-0,081	0,056
-356,825	111,550	0,120	0,106
-355,810	-200,000	0,035	0,179
-354,796	-43,434	-0,073	0,027
-353,781	-2,597	-0,141	0,072
-352,766	800,000	-0,056	0,156
-351,752	72,919	-0,008	0,006
-350,737	764,114	0,054	-0,108
-349,723	800,000	-0,005	0,017
-348,708	-37,461	-0,048	0,019
-347,693	23,684	-0,079	-0,048
-346,679	-74,437	-0,120	0,032
-345,664	-76,610	0,024	-0,006
-344,650	21,480	-0,108	-0,064
-343,635	250,007	0,112	-0,139
-342,620	-148,447	0,101	-0,006
-341,606	31,830	0,062	-0,039
-340,591	-112,224	0,067	-0,010
-339,577	239,987	0,097	-0,119
-338,562	125,290	0,082	0,076
-337,548	-62,127	-0,059	0,018
-336,533	-200,000	0,014	-0,054
-335,518	-0,073	-0,085	0,044
-334,504	450,949	0,044	0,072
-333,489	-74,495	0,053	0,014
-332,475	67,495	-0,086	-0,064
-331,460	-200,000	0,016	-0,061
-330,445	172,905	-0,049	0,051
-329,431	-82,243	-0,024	-0,006
-328,416	327,367	0,042	-0,059
-327,402	-200,000	-0,012	0,110
-326,387	519,980	0,029	-0,049
-325,372	800,000	-0,043	-0,099
-324,358	800,000	0,034	-0,075
-323,343	161,509	-0,102	0,105
-322,329	-108,529	0,128	-0,020
-321,314	102,955	0,087	0,074
-320,299	-140,253	0,057	-0,004
-319,285	-107,916	0,074	-0,012
-318,270	-101,803	-0,045	0,008
-317,256	-2,816	-0,129	-0,066
-316,241	-200,000	0,019	0,091
-315,226	19,614	-0,066	0,039
-314,212	752,552	-0,050	0,100
-313,197	225,588	0,003	-0,003
-312,183	-200,000	-0,013	0,045
-311,168	-161,985	-0,086	-0,003
-310,153	800,000	-0,053	-0,111
-309,139	75,504	0,061	0,047
-308,124	-48,847	-0,026	-0,009
-307,110	-123,795	0,069	0,008
-306,095	800,000	-0,031	0,081
-305,080	800,000	0,017	0,046
-304,066	-50,445	-0,141	-0,049
-303,051	-23,635	-0,137	-0,060
-302,037	-200,000	0,010	-0,046
-301,022	14,591	0,060	-0,034
-300,008	34,966	0,092	0,059
-298,993	592,848	0,023	0,042
-297,978	-89,938	0,088	0,019
-296,964	-106,153	0,047	0,008
-295,949	-114,842	-0,130	0,018
-294,935	-104,625	-0,079	0,013
-293,920	-200,000	0,012	-0,062
-292,905	68,326	0,044	-0,033
-291,891	156,786	-0,060	0,061
-290,876	244,316	0,079	0,097
-289,862	446,747	-0,075	0,121
-288,847	800,000	-0,011	-0,023
-287,832	-200,000	-0,010	-0,047
-286,818	800,000	-0,074	0,164
-285,803	-200,000	0,016	0,127
-284,789	-68,226	-0,080	0,022
-283,774	-53,629	-0,032	0,011
-282,759	371,904	-0,053	-0,079
-281,745	287,588	-0,061	-0,081
-280,730	591,920	-0,081	0,146
-279,716	-200,000	0,014	-0,075
-278,701	464,296	0,034	0,055
-277,686	-149,931	0,167	0,009
-276,672	49,978	0,066	-0,046
-275,657	4,405	0,090	-0,048
-274,643	189,344	-0,020	-0,022
-273,628	-37,164	-0,113	-0,044
-272,613	116,992	-0,073	0,065
-271,599	-83,300	0,134	-0,031
-270,584	-200,000	-0,010	0,033
-269,570	-35,694	0,072	0,028
-268,555	-200,000	0,014	-0,127
-267,540	156,714	-0,030	-0,030
-266,526	-200,000	-0,004	0,085
-265,511	-200,000	0,002	0,051
-264,497	-86,005	0,072	0,016
-263,482	270,441	0,097	-0,125
-262,467	118,235	0,080	0,072
-261,453	-154,369	-0,063	-0,003
-260,438	-57,218	-0,134	-0,043
-259,424	800,000	-0,021	-0,056
-258,409	430,228	-0,062	0,098
-257,395	140,781	-0,032	-0,031
-256,380	192,046	0,111	-0,123
-255,365	800,000	-0,025	-0,053
-254,351	800,000	-0,014	0,031
-253,336	-200,000	-0,002	-0,070
-252,322	668,873	-0,076	-0,144
-251,307	197,070	-0,100	-0,111
-250,292	-109,910	0,167	-0,025
-249,278	-96,065	0,062	-0,012
-248,263	-52,953	0,080	-0,027
-247,249	8,634	0,153	0,084
-246,234	112,321	0,054	-0,048
-245,219	344,829	-0,054	-0,078
-244,205	181,566	-0,035	-0,038
-243,190	800,000	-0,062	0,130
-242,176	-163,678	0,127	-0,004
-241,161	-155,875	0,156	-0,007
-240,146	-200,000	-0,011	0,096
-239,132	-154,289	0,128	-0,006
-238,117	-38,967	-0,128	-0,049
-237,103	800,000	-0,017	0,034
-236,088	-113,114	0,086	-0,012
-235,073	-78,444	0,093	-0,023
-234,059	-5,362	0,144	0,072
-233,044	-200,000	-0,018	0,076
-232,030	-200,000	-0,013	0,070
-231,015	440,252	-0,098	-0,157
-230,000	-200,000	-0,008	-0,144
-228,986	58,097	-0,096	-0,069
-227,971	-200,000	-0,001	-0,080
-226,957	-110,524	0,119	-0,018
-225,942	-200,000	0,003	0,023
-224,927	-163,414	-0,104	0,004
-223,913	360,725	0,077	-0,112
-222,898	156,397	-0,094	-0,095
-221,884	438,225	0,054	-0,087
-220,869	86,792	-0,226	0,182
-219,855	137,935	-0,085	-0,081
-218,840	266,552	0,024	-0,030
-217,825	-200,000	0,006	-0,040
-216,811	-200,000	-0,005	-0,054
-215,796	-90,269	-0,116	0,024
-214,782	-65,265	-0,120	-0,035
-213,767	-81,206	0,085	-0,020
-212,752	-200,000	0,000	-0,027
-211,738	-64,882	-0,038	-0,011
-210,723	-54,810	-0,215	-0,070
-209,709	-122,116	-0,134	0,016
-208,694	-200,000	0,027	-0,151
-207,679	-168,655	-0,125	0,003
-206,665	-109,738	0,036	-0,005
-205,650	-200,000	0,000	0,085
-204,636	88,358	0,060	-0,048
-203,621	256,224	0,063	0,078
-202,606	-200,000	0,000	-0,029
-201,592	94,689	0,118	0,098
-200,577	281,599	0,039	-0,051
-199,563	-200,000	0,026	0,100
-198,548	-200,000	0,001	0,029
-197,533	-200,000	0,022	0,081
-196,519	-200,000	-0,017	-0,129
-195,504	-41,650	-0,172	-0,064
-194,490	-146,970	-0,120	-0,007
-193,475	-200,000	0,022	-0,118
-192,460	-200,000	-0,003	0,129
-191,446	90,916	0,077	0,063
-190,431	-109,550	0,092	0,014
-189,417	-110,582	-0,161	-0,024
-188,402	194,547	0,062	-0,069
-187,387	-200,000	0,018	-0,153
-186,373	-200,000	-0,003	0,017
-185,358	50,732	0,095	0,065
-184,344	800,000	-0,015	-0,032
-183,329	-47,109	0,167	0,059
-182,315	-200,000	-0,014	-0,053
-181,300	-122,071	-0,163	0,019
-180,285	10,736	0,058	-0,032
-179,271	-200,000	-0,015	-0,159
-178,256	-200,000	-0,016	-0,143
-177,242	-200,000	0,030	-0,163
-176,227	77,826	-0,060	0,047
-175,212	800,000	-0,048	0,137
-174,198	209,578	0,082	-0,094
-173,183	396,605	0,117	-0,179
-172,169	20,711	-0,055	0,032
-171,154	216,329	0,030	0,035
-170,139	126,122	-0,069	0,064
-169,125	-24,545	-0,037	0,016
-168,110	3,395	0,095	0,050
-167,096	87,314	-0,118	-0,095
-166,081	-2,073	0,059	0,030
-165,066	152,269	-0,119	-0,118
-164,052	800,000	0,072	0,195
-163,037	800,000	0,038	0,095
-162,023	800,000	0,070	0,161
-161,008	-17,796	-0,046	-0,021
-159,993	96,135	-0,060	-0,050
-158,979	800,000	-0,019	0,054
-157,964	800,000	-0,068	0,143
-156,950	274,174	-0,039	0,050
-155,935	54,387	-0,043	-0,030
-154,920	195,181	-0,090	0,100
-153,906	798,447	0,072	0,146
-152,891	670,998	-0,013	0,024
-151,877	126,733	-0,078	-0,072
-150,862	-104,497	0,059	0,010
-149,847	181,282	-0,059	-0,063
-148,833	319,348	0,034	0,047
-147,818	-200,000	0,004	0,074
-146,804	-51,819	-0,118	-0,040
-145,789	488,286	0,060	-0,100
-144,775	-79,667	-0,082	-0,020
-143,760	-22,627	-0,128	0,056
-142,745	-68,261	-0,058	0,016
-141,731	83,846	0,079	0,063
-140,716	800,000	-0,017	0,051
-139,702	110,336	-0,016	0,014
-138,687	-200,000	-0,005	-0,092
-137,672	-33,442	-0,047	0,019
-136,658	19,351	0,060	-0,035
-135,643	-22,841	-0,191	-0,084
-134,629	384,407	0,035	-0,052
-133,614	25,810	0,092	0,056
-132,599	800,000	-0,015	-0,031
-131,585	800,000	-0,039	-0,087
-130,570	-11,894	-0,133	-0,063
-129,556	139,261	-0,172	0,164
-128,541	-200,000	0,037	0,118
-127,526	-159,510	-0,090	-0,004
-126,512	-200,000	0,000	0,088
-125,497	800,000	0,021	0,064
-124,483	662,999	-0,027	0,051
-123,468	-60,554	0,064	0,020
-122,453	321,554	-0,116	-0,160
-121,439	107,909	0,050	-0,044
-120,424	-200,000	-0,017	0,087
-119,410	-200,000	-0,044	-0,184
-118,395	194,766	0,095	-0,105
-117,380	420,708	0,045	-0,070
-116,366	-200,000	0,000	0,036
-115,351	381,880	0,014	0,021
-114,337	-118,771	-0,077	0,010
-113,322	149,166	-0,041	-0,040
-112,307	-200,000	0,000	-0,054
-111,293	200,182	0,083	-0,093
-110,278	-200,000	0,013	0,120
-109,264	291,740	-0,017	0,023
-108,249	760,477	-0,018	0,035
-107,234	473,963	-0,029	-0,047
-106,220	-68,830	-0,078	0,022
-105,205	67,865	0,032	-0,024
-104,191	284,949	-0,045	0,059
-103,176	-200,000	-0,011	-0,044
-102,162	-95,834	-0,099	-0,019
-101,147	-162,272	0,078	0,003
-100,132	-200,000	0,005	-0,056
-99,118	414,709	-0,019	-0,030
-98,103	159,263	-0,094	0,095
-97,089	-78,192	-0,181	0,045
-96,074	17,254	0,132	-0,076
-95,059	-48,390	0,054	-0,019
-94,045	-125,622	0,080	-0,009
-93,030	723,633	-0,021	-0,042
-92,016	360,626	-0,055	-0,080
-91,001	135,830	-0,114	-0,108
-89,986	800,000	0,031	0,065
-88,972	104,144	0,054	-0,046
-87,957	-21,595	0,060	0,026
-86,943	-200,000	0,037	0,199
-85,928	-200,000	0,020	-0,088
-84,913	800,000	-0,025	-0,066
-83,899	-104,382	0,066	-0,011
-82,884	11,901	0,137	0,076
-81,870	-66,862	-0,079	-0,022
-80,855	-85,982	0,129	0,029
-79,840	-200,000	0,000	0,033
-78,826	20,950	-0,100	0,059
-77,811	73,227	-0,012	0,009
-76,797	-34,240	0,071	0,028
-75,782	-122,992	-0,116	-0,013
-74,767	-40,268	0,162	0,061
-73,753	800,000	-0,026	0,078
-72,738	52,334	-0,094	-0,065
-71,724	-41,969	-0,165	0,061
-70,709	-200,000	0,012	-0,118
-69,694	-200,000	0,006	-0,048
-68,680	-122,380	-0,112	-0,013
-67,665	361,115	-0,046	0,067
-66,651	-200,000	0,005	0,098
-65,636	-90,912	-0,017	0,004
-64,622	-115,488	0,062	-0,008
-63,607	-176,606	-0,156	0,003
-62,592	678,643	-0,034	0,064
-61,578	-200,000	-0,001	0,099
-60,563	-200,000	0,004	0,060
-59,549	19,762	0,078	0,045
-58,534	-139,311	-1,546	-0,119
-57,519	718,811	-0,724	-1,401
-56,505	-200,000	-0,846	-4,390
-55,490	-31,138	0,556	-0,226
-54,476	800,000	5,066	11,753
-53,461	-200,000	14,493	261,800
-52,446	-200,000	696,216	2280,745
-51,432	604,711	1622,113	2940,200
-50,417	118,763	1630,116	1459,764
-49,403	76,699	1283,472	986,104
-48,388	37,436	1021,427	655,219
-47,373	23,294	980,721	582,652
-46,359	22,374	970,106	573,310
-45,344	21,231	965,811	567,018
-44,330	21,273	964,380	566,291
-43,315	21,057	962,877	564,684
-42,300	21,019	961,998	564,021
-41,286	21,091	960,839	563,553
-40,271	21,038	959,708	562,696
-39,257	21,044	958,918	562,231
-38,242	21,013	957,999	561,569
-37,227	21,040	957,131	561,124
-36,213	21,079	956,195	560,681
-35,198	20,956	955,365	559,774
-34,184	21,029	954,592	559,535
-33,169	21,069	953,524	559,015
-32,154	21,070	952,906	558,635
-31,140	21,079	951,923	558,064
-30,125	21,037	951,353	557,571
-29,111	21,072	950,506	557,165
-28,096	21,093	949,605	556,683
-27,082	20,989	949,091	556,026
-26,067	21,018	948,132	555,535
-25,052	21,049	947,367	555,164
-24,038	21,036	947,038	554,908
-23,023	21,009	946,310	554,375
-22,009	21,042	945,594	554,036
-20,994	21,067	944,937	553,711
-19,979	21,087	944,339	553,401
-18,965	21,009	943,992	552,928
-17,950	21,001	943,085	552,350
-16,936	21,019	942,376	551,968
-15,921	20,952	941,876	551,443
-14,906	20,960	941,123	551,003
-13,892	20,850	940,547	550,294
-12,877	20,912	939,852	550,063
-11,863	20,842	939,305	549,499
-10,848	20,917	938,707	549,364
-9,833	20,979	938,226	549,259
-8,819	20,978	937,606	548,871
-7,804	20,877	937,087	548,227
-6,790	20,904	936,438	547,910
-5,775	20,981	935,763	547,735
-4,760	20,877	935,293	547,112
-3,746	20,873	934,629	546,689
-2,731	20,794	933,771	545,914
-1,717	20,758	933,103	545,391
-0,702	20,775	932,423	545,025
0,313	20,513	931,864	544,696
1,327	22,893	929,703	550,861
2,342	30,285	806,588	497,910
3,356	24,668	507,383	303,613
4,371	0,538	373,460	192,756
5,386	-2,479	356,682	180,375
6,400	-3,469	350,831	176,204
7,415	-3,903	348,253	174,372
8,429	-3,747	346,701	173,766
9,444	-3,898	345,907	173,173
10,459	-3,839	345,181	172,864
11,473	-3,895	344,589	172,486
12,488	-3,888	344,088	172,228
13,502	-3,908	343,430	171,860
14,517	-3,888	342,988	171,646
15,531	-3,672	342,425	171,604
16,546	-3,836	341,983	171,175
17,561	-3,838	341,612	170,971
18,575	-3,783	341,191	170,810
19,590	-3,712	340,795	170,680
20,604	-3,630	340,475	170,601
21,619	-3,893	340,212	170,145
22,634	-3,783	339,797	170,052
23,648	-3,615	339,407	170,038
24,663	-3,801	339,036	169,619
25,677	-3,743	338,685	169,496
26,692	-3,754	338,543	169,397
27,707	-3,725	338,167	169,228
28,721	-3,749	337,914	169,058
29,736	-3,637	337,542	168,987
30,750	-3,824	337,259	168,612
31,765	-3,857	336,966	168,414
32,780	-3,777	336,676	168,345
33,794	-3,755	336,459	168,248
34,809	-3,752	336,220	168,117
35,823	-3,727	335,718	167,880
36,838	-3,733	335,419	167,708
37,853	-3,904	335,287	167,430
38,867	-3,726	334,902	167,428
39,882	-3,773	334,690	167,253
40,896	-3,715	334,373	167,147
41,911	-3,777	334,150	166,949
42,926	-3,780	333,884	166,798
43,940	-3,832	333,536	166,549
44,955	-3,755	333,334	166,522
45,969	-3,904	333,112	166,226
46,984	-3,825	332,848	166,169
47,999	-3,686	332,595	166,187
49,013	-3,695	332,298	166,013
50,028	-3,773	332,155	165,839
51,042	-3,641	331,750	165,772
52,057	-3,768	331,682	165,578
53,071	-3,772	331,322	165,380
54,086	-3,714	331,152	165,345
55,101	-3,750	330,839	165,133
56,115	-3,815	330,529	164,890
57,130	-3,790	330,230	164,755
58,144	-3,820	329,921	164,552
59,159	-3,770	329,583	164,425
60,174	-3,811	329,420	164,283
61,188	-3,697	329,181	164,278
62,203	-3,808	329,038	164,066
63,217	-3,704	328,596	163,950
64,232	-3,688	328,410	163,860
65,247	-3,741	328,173	163,668
66,261	-3,783	327,972	163,505
67,276	-3,565	327,564	163,531
68,290	-3,736	327,423	163,256
69,305	-3,799	327,093	163,005
70,320	-3,717	326,780	162,927
71,334	-3,667	326,600	162,879
72,349	-3,661	326,389	162,765
73,363	-3,722	326,054	162,516
74,378	-3,958	325,871	162,146
75,393	-3,739	325,420	162,152
76,407	-3,665	325,432	162,226
77,422	-3,635	325,162	162,110
78,436	-3,679	324,766	161,849
79,451	-3,620	324,384	161,710
80,466	-3,779	324,206	161,430
81,480	-3,682	323,907	161,374
82,495	-3,806	323,995	161,267
83,509	-3,843	323,698	161,062
84,524	-3,709	323,384	161,041
85,539	-3,645	323,166	160,989
86,553	-3,646	322,911	160,846
87,568	-3,740	322,591	160,569
88,582	-3,639	322,245	160,494
89,597	-3,653	322,095	160,389
90,611	-3,742	321,944	160,202
91,626	-3,795	321,612	159,964
92,641	-3,734	321,356	159,889
93,655	-3,722	321,190	159,806
94,670	-3,660	320,921	159,726
95,684	-3,708	320,740	159,569
96,699	-3,691	320,326	159,367
97,714	-3,543	320,145	159,424
98,728	-3,579	319,990	159,294
99,743	-3,661	319,744	159,068
100,757	-3,776	319,414	158,763
101,772	-3,665	319,268	158,798
102,787	-3,689	319,024	158,637
103,801	-3,721	318,692	158,423
104,816	-3,725	318,582	158,349
105,830	-3,668	318,407	158,311
106,845	-3,788	318,112	158,019
107,860	-3,711	317,860	157,964
108,874	-3,549	317,601	157,997
109,889	-3,735	317,371	157,666
110,903	-3,726	317,149	157,551
111,918	-3,625	316,973	157,560
112,933	-3,757	316,839	157,336
113,947	-3,594	316,382	157,271
114,962	-3,760	316,306	157,040
115,976	-3,752	316,014	156,889
116,991	-3,812	315,795	156,702
118,006	-3,743	315,619	156,675
119,020	-3,680	315,397	156,619
120,035	-3,602	315,166	156,574
121,049	-3,691	314,885	156,325
122,064	-3,602	314,683	156,306
123,079	-3,708	314,507	156,091
124,093	-3,593	314,216	156,056
125,108	-3,720	314,094	155,845
126,122	-3,692	313,838	155,735
127,137	-3,721	313,571	155,557
128,151	-3,720	313,434	155,477
129,166	-3,661	313,135	155,377
130,181	-3,723	313,150	155,304
131,195	-3,703	312,644	155,061
132,210	-3,641	312,344	154,965
133,224	-3,771	312,187	154,735
134,239	-3,674	312,055	154,758
135,254	-3,752	311,684	154,477
136,268	-3,712	311,549	154,439
137,283	-3,759	311,390	154,297
138,297	-3,680	311,168	154,257
139,312	-3,693	310,916	154,105
140,327	-3,769	310,636	153,872
141,341	-3,716	310,502	153,848
142,356	-3,656	310,304	153,799
143,370	-3,554	309,945	153,715
144,385	-3,476	309,557	153,591
145,400	-3,635	309,467	153,365
146,414	-3,598	309,289	153,302
147,429	-3,725	308,961	152,993
148,443	-3,674	308,832	152,968
149,458	-3,630	308,764	152,968
150,473	-3,627	308,444	152,798
151,487	-3,703	308,244	152,606
152,502	-3,628	308,092	152,596
153,516	-3,605	307,803	152,463
154,531	-3,671	307,600	152,280
155,546	-3,601	307,332	152,207
156,560	-3,612	307,057	152,046
157,575	-3,630	306,961	151,966
158,589	-3,878	306,714	151,572
159,604	-3,626	306,436	151,684
160,619	-3,690	306,281	151,526
161,633	-3,510	306,063	151,592
162,648	-3,642	305,931	151,377
163,662	-3,657	305,647	151,206
164,677	-3,588	305,487	151,185
165,692	-3,523	305,267	151,130
166,706	-3,542	305,116	151,022
167,721	-3,471	304,890	150,970
168,735	-3,576	304,691	150,750
169,750	-3,766	304,589	150,489
170,764	-3,755	304,241	150,315
171,779	-3,650	304,046	150,314
172,794	-3,594	303,810	150,242
173,808	-3,584	303,552	150,112
174,823	-3,619	303,386	149,980
175,837	-3,667	303,230	149,840
176,852	-3,558	302,903	149,777
177,867	-3,604	302,918	149,724
178,881	-3,690	302,700	149,514
179,896	-3,565	302,322	149,442
180,910	-3,528	302,201	149,408
181,925	-3,729	302,129	149,152
182,940	-3,788	301,926	148,978
183,954	-3,707	301,537	148,856
184,969	-3,680	301,512	148,857
185,983	-3,549	301,402	148,924
186,998	-3,550	300,993	148,707
188,013	-3,410	300,773	148,729
189,027	-3,635	300,617	148,409
190,042	-3,468	300,357	148,438
191,056	-3,730	300,268	148,113
192,071	-3,664	299,959	148,015
193,086	-3,518	299,587	147,967
194,100	-3,446	299,403	147,936
195,115	-3,551	299,328	147,778
196,129	-3,421	299,013	147,742
197,144	-3,520	298,781	147,514
198,159	-3,576	298,527	147,318
199,173	-3,601	298,496	147,265
200,188	-3,632	298,318	147,133
201,202	-3,684	298,111	146,965
202,217	-3,592	297,856	146,918
203,232	-3,565	297,612	146,813
204,246	-3,562	297,354	146,675
205,261	-3,586	297,134	146,530
206,275	-3,658	297,078	146,416
207,290	-3,627	296,790	146,292
208,304	-3,487	296,648	146,350
209,319	-3,670	296,384	146,023
210,334	-3,577	296,169	145,997
211,348	-3,732	296,035	145,763
212,363	-3,503	295,888	145,908
213,377	-3,479	295,648	145,800
214,392	-3,492	295,430	145,665
215,407	-3,483	295,112	145,505
216,421	-3,745	295,169	145,259
217,436	-3,598	294,901	145,260
218,450	-3,686	294,593	145,008
219,465	-3,631	294,426	144,968
220,480	-3,527	294,154	144,925
221,494	-3,728	294,147	144,708
222,509	-3,645	293,912	144,663
223,523	-3,556	293,610	144,589
224,538	-3,610	293,580	144,507
225,553	-3,496	293,189	144,415
226,567	-3,528	293,138	144,346
227,582	-3,492	293,007	144,304
228,596	-3,652	292,780	144,021
229,611	-3,429	292,625	144,153
230,626	-3,572	292,322	143,849
231,640	-3,541	292,067	143,741
232,655	-3,469	291,872	143,704
233,669	-3,435	291,674	143,626
234,684	-3,524	291,518	143,449
235,699	-3,364	291,270	143,472
236,713	-3,476	291,176	143,303
237,728	-3,601	291,124	143,141
238,742	-3,583	290,810	142,992
239,757	-3,703	290,577	142,747
240,772	-3,774	290,475	142,615
241,786	-3,620	290,232	142,633
242,801	-3,477	289,947	142,621
243,815	-3,555	289,866	142,492
244,830	-3,498	289,611	142,409
245,844	-3,389	289,449	142,423
246,859	-3,465	289,243	142,235
247,874	-3,733	289,192	141,936
248,888	-3,531	288,841	141,948
249,903	-3,617	288,788	141,825
250,917	-3,655	288,516	141,642
251,932	-3,721	288,240	141,430
252,947	-3,791	288,045	141,253
253,961	-4,129	287,711	140,749
254,976	-4,260	287,406	140,460
255,990	-4,085	287,286	140,559
257,005	-2,874	287,778	141,962
258,020	-0,730	288,512	144,395
259,034	0,427	288,706	145,603
260,049	1,109	288,645	146,221
261,063	1,396	288,783	146,557
262,078	1,620	288,639	146,688
263,093	1,841	288,541	146,840
264,107	2,271	288,538	147,241
265,122	2,247	288,389	147,130
266,136	2,497	288,085	147,203
267,151	2,443	288,073	147,131
268,166	2,362	287,801	146,901
269,180	2,610	287,605	147,027
270,195	2,445	287,479	146,790
271,209	2,353	287,246	146,570
272,224	2,446	287,202	146,624
273,239	2,399	286,783	146,351
274,253	2,293	286,736	146,213
275,268	2,443	286,375	146,160
276,282	2,108	286,310	145,792
277,297	2,200	286,003	145,710
278,312	2,446	285,816	145,838
279,326	2,271	285,779	145,639
280,341	2,146	285,523	145,376
281,355	2,397	285,262	145,470
282,370	2,240	285,016	145,181
283,384	2,248	284,947	145,141
284,399	2,288	284,770	145,075
285,414	1,939	284,598	144,643
286,428	2,336	284,380	144,898
287,443	2,124	284,248	144,615
288,457	2,140	284,045	144,514
289,472	2,137	283,750	144,348
290,487	2,020	283,538	144,117
291,501	2,075	283,410	144,090
292,516	2,146	283,158	144,017
293,530	2,136	283,005	143,916
294,545	2,090	282,953	143,834
295,560	2,061	282,758	143,695
296,574	1,944	282,522	143,451
297,589	2,110	282,150	143,406
298,603	1,869	282,059	143,120
299,618	2,145	281,949	143,311
300,633	2,149	281,814	143,234
301,647	2,115	281,717	143,140
302,662	2,268	281,429	143,125
303,676	2,445	281,279	143,203
304,691	2,296	281,126	142,972
305,706	2,191	281,057	142,825
306,720	2,341	280,728	142,786
307,735	2,213	280,602	142,589
308,749	2,226	280,470	142,522
309,764	2,240	280,179	142,374
310,779	2,268	280,082	142,338
311,793	2,209	279,805	142,129
312,808	2,371	279,460	142,093
313,822	2,169	279,431	141,877
314,837	2,143	279,310	141,779
315,852	2,300	279,107	141,809
316,866	2,187	278,836	141,554
317,881	2,342	278,683	141,607
318,895	2,282	278,502	141,448
319,910	2,325	278,261	141,352
320,925	2,314	278,122	141,259
321,939	2,211	278,083	141,131
322,954	2,266	277,967	141,110
323,968	2,322	277,649	140,989
324,983	2,316	277,354	140,820
325,997	2,338	277,275	140,788
327,012	2,346	277,081	140,684
328,027	2,251	276,991	140,538
329,041	2,430	276,754	140,571
330,056	2,343	276,676	140,438
331,070	2,420	276,349	140,331
332,085	2,452	276,226	140,286
333,100	2,456	276,065	140,195
334,114	2,440	275,823	140,044
335,129	2,286	275,729	139,843
336,143	2,480	275,477	139,881
337,158	2,321	275,337	139,651
338,173	2,354	275,152	139,575
339,187	2,413	275,037	139,559
340,202	2,390	274,959	139,486
341,216	2,480	274,644	139,396
342,231	2,393	274,345	139,152
343,246	2,238	274,352	139,001
344,260	2,409	274,127	139,031
345,275	2,533	273,923	139,029
346,289	2,408	273,801	138,840
347,304	2,344	273,599	138,667
348,319	2,384	273,441	138,611
349,333	2,229	273,155	138,312
350,348	2,409	273,089	138,431
351,362	2,257	272,853	138,161
352,377	2,529	272,761	138,349
353,392	2,293	272,626	138,053
354,406	2,485	272,450	138,126
355,421	191,570	1348,655	1428,485
356,435	154,663	1479,869	1428,610
