DTS Sentinel unit serial number:	SN410029Multiplexer serial number:	ORYXHardware model number:	OX2-SRSoftware version number:	ORYX F/W v4,00 Oryx Data Collector v3.7.2.0data status	okinstallation	B4 Nyhavnadifferential loss correction	single-endedforward channel	channel 2reverse channel	N/Adate	2023/12/16time	01:55:13forward acquisition time	300,00reverse acquisition time	0,00gamma	499,1914k internal	0,3129k external	0,3129temperature offset calibration	1,0000default loss term (dB/km)	0,3820temperature slope calibration	1,0000multiplexer offset coefficient	1,0000multiplexer slope coefficient	1,0000fibre end	0,00T internal ref (°C)	21,94T ext. ref 1 (°C)	7,17T ext. ref 2 (°C)	7,37length (m)	temperature (°C)	Stokes	anti-Stokes-744,400	800,000	0,050	-0,114
-743,385	-127,254	-0,235	0,025
-742,371	-107,200	0,060	0,010
-741,356	361,017	-0,217	0,325
-740,342	-200,000	0,044	0,204
-739,327	240,481	-0,123	0,153
-738,312	800,000	-0,052	-0,168
-737,298	1,801	-0,164	0,088
-736,283	-200,000	0,001	0,061
-735,269	-67,452	-0,240	0,070
-734,254	-123,016	-0,081	0,010
-733,239	-10,104	-0,357	-0,176
-732,225	-50,331	0,094	-0,033
-731,210	627,468	0,064	0,120
-730,196	139,225	0,027	-0,026
-729,181	85,922	-0,079	0,065
-728,167	-200,000	-0,032	-0,122
-727,152	-53,630	-0,095	0,032
-726,137	-200,000	-0,032	0,170
-725,123	-200,000	-0,001	-0,044
-724,108	800,000	0,033	-0,102
-723,094	-200,000	0,017	-0,093
-722,079	-18,875	-0,127	-0,058
-721,064	-200,000	-0,005	-0,097
-720,050	-200,000	0,037	-0,199
-719,035	13,342	0,083	-0,048
-718,021	34,863	-0,157	-0,102
-717,006	800,000	-0,030	-0,068
-715,991	-137,565	-0,143	-0,012
-714,977	800,000	0,081	-0,255
-713,962	-200,000	-0,023	-0,081
-712,948	185,919	-0,042	-0,046
-711,933	-200,000	0,004	0,039
-710,918	3,335	-0,061	0,033
-709,904	218,400	-0,103	-0,123
-708,889	55,295	0,085	-0,061
-707,875	800,000	0,006	0,019
-706,860	411,963	-0,043	0,068
-705,845	-200,000	0,013	0,068
-704,831	33,598	0,177	0,114
-703,816	-96,506	0,007	-0,001
-702,802	773,839	-0,023	-0,047
-701,787	-200,000	0,006	0,058
-700,772	83,520	0,122	0,098
-699,758	-200,000	0,021	0,072
-698,743	4,441	0,055	0,030
-697,729	-47,593	-0,059	0,021
-696,714	-161,986	-0,155	0,006
-695,699	-200,000	-0,003	0,103
-694,685	-200,000	-0,008	-0,129
-693,670	-118,496	-0,226	0,029
-692,656	442,809	0,068	0,110
-691,641	32,873	0,034	-0,022
-690,627	800,000	0,043	-0,094
-689,612	-95,801	-0,153	0,030
-688,597	-200,000	-0,011	0,106
-687,583	-200,000	-0,003	-0,064
-686,568	-200,000	-0,019	-0,070
-685,554	-5,100	-0,085	-0,043
-684,539	177,928	0,051	-0,055
-683,524	220,413	0,102	0,121
-682,510	800,000	-0,051	0,121
-681,495	287,344	-0,051	0,069
-680,481	800,000	-0,030	-0,080
-679,466	-2,090	-0,022	0,011
-678,451	800,000	0,020	0,042
-677,437	-65,122	0,073	-0,022
-676,422	-200,000	0,002	-0,064
-675,408	-13,634	-0,040	-0,019
-674,393	-123,723	-0,044	-0,005
-673,378	-200,000	0,001	0,050
-672,364	33,379	-0,099	0,063
-671,349	22,112	-0,096	0,058
-670,335	35,187	0,059	-0,038
-669,320	-72,199	-0,080	-0,022
-668,305	-63,282	-0,041	0,012
-667,291	800,000	-0,078	0,165
-666,276	-46,683	-0,164	-0,059
-665,262	-200,000	0,007	-0,125
-664,247	-200,000	-0,018	-0,178
-663,232	-200,000	-0,033	-0,163
-662,218	387,227	0,015	-0,022
-661,203	34,844	0,052	-0,033
-660,189	50,667	-0,136	-0,095
-659,174	268,759	-0,008	0,010
-658,159	174,470	-0,084	-0,090
-657,145	371,889	0,072	-0,109
-656,130	183,118	-0,084	-0,092
-655,116	-200,000	0,018	0,068
-654,101	800,000	0,015	-0,032
-653,086	11,502	0,041	-0,023
-652,072	98,079	0,054	-0,046
-651,057	354,558	-0,106	-0,156
-650,043	347,635	-0,060	-0,088
-649,028	555,421	-0,062	-0,112
-648,014	197,362	0,053	0,060
-646,999	29,375	0,127	-0,080
-645,984	-125,937	-0,102	0,011
-644,970	167,839	0,080	0,085
-643,955	243,195	-0,026	-0,032
-642,941	-105,921	-0,059	-0,010
-641,926	800,000	0,006	-0,014
-640,911	-105,420	-0,057	0,010
-639,897	-103,816	0,105	-0,018
-638,882	-200,000	-0,015	0,049
-637,868	-104,822	-0,170	0,029
-636,853	800,000	-0,029	-0,093
-635,838	-200,000	0,033	-0,128
-634,824	800,000	0,056	-0,152
-633,809	622,615	-0,028	-0,052
-632,795	-200,000	0,051	-0,168
-631,780	-200,000	0,011	-0,120
-630,765	208,630	-0,069	0,081
-629,751	740,972	-0,037	-0,075
-628,736	18,799	-0,156	-0,092
-627,722	-88,894	-0,019	-0,004
-626,707	90,925	-0,070	-0,058
-625,692	800,000	-0,063	0,160
-624,678	93,636	0,144	0,121
-623,663	-200,000	0,016	-0,059
-622,649	-0,089	-0,027	0,014
-621,634	-200,000	0,012	-0,119
-620,619	-200,000	0,024	0,196
-619,605	-200,000	0,005	0,059
-618,590	-103,686	-0,117	-0,020
-617,576	219,272	0,144	-0,171
-616,561	-99,359	-0,062	0,011
-615,546	381,932	-0,021	-0,031
-614,532	-38,496	-0,109	-0,042
-613,517	-162,029	-0,082	0,003
-612,503	253,928	0,035	0,044
-611,488	285,729	-0,088	0,117
-610,474	-37,965	-0,051	0,020
-609,459	-62,481	0,048	-0,015
-608,444	-159,854	0,033	-0,001
-607,430	-200,000	-0,004	0,046
-606,415	164,800	-0,050	-0,052
-605,401	226,999	0,073	0,088
-604,386	-200,000	-0,023	0,138
-603,371	-200,000	-0,014	0,089
-602,357	-84,522	0,152	-0,035
-601,342	-114,941	0,063	0,009
-600,328	772,205	-0,072	-0,146
-599,313	173,176	0,012	-0,013
-598,298	27,779	-0,185	-0,115
-597,284	-200,000	-0,012	-0,099
-596,269	-200,000	-0,034	-0,138
-595,255	-200,000	0,010	0,102
-594,240	-200,000	0,027	-0,093
-593,225	134,109	-0,096	0,092
-592,211	771,404	-0,050	-0,102
-591,196	187,601	0,018	0,020
-590,182	387,330	-0,061	0,094
-589,167	72,662	0,122	0,094
-588,152	73,458	-0,060	0,047
-587,138	800,000	0,038	0,115
-586,123	130,749	-0,008	-0,008
-585,109	539,443	0,019	-0,034
-584,094	-200,000	0,032	-0,127
-583,079	199,236	-0,125	0,141
-582,065	-82,916	-0,071	0,017
-581,050	-200,000	0,012	0,056
-580,036	66,002	0,056	-0,042
-579,021	679,704	-0,075	-0,145
-578,006	-200,000	0,011	-0,042
-576,992	736,516	0,057	0,113
-575,977	-122,070	0,073	0,009
-574,963	-28,449	-0,028	0,012
-573,948	-200,000	-0,005	-0,083
-572,934	32,296	0,026	0,016
-571,919	281,308	-0,058	-0,077
-570,904	-96,495	-0,013	-0,003
-569,890	-79,094	0,073	-0,018
-568,875	81,405	0,074	-0,059
-567,861	-108,665	0,115	-0,018
-566,846	50,203	0,136	-0,095
-565,831	-23,880	-0,119	-0,053
-564,817	-200,000	0,009	0,091
-563,802	38,690	-0,070	-0,046
-562,788	-26,501	-0,135	-0,058
-561,773	-178,084	-0,053	-0,001
-560,758	142,707	-0,082	0,080
-559,744	-87,096	-0,036	0,008
-558,729	-200,000	0,004	0,032
-557,715	800,000	-0,049	-0,109
-556,700	12,302	-0,199	-0,113
-555,685	-56,043	0,080	-0,026
-554,671	-121,149	0,066	-0,008
-553,656	-200,000	-0,018	-0,150
-552,642	-128,290	-0,020	-0,002
-551,627	96,427	0,120	0,102
-550,612	317,783	-0,084	0,118
-549,598	-200,000	-0,014	-0,146
-548,583	800,000	0,045	0,125
-547,569	800,000	-0,057	0,118
-546,554	234,442	0,043	-0,053
-545,539	562,071	0,055	0,099
-544,525	-0,423	-0,034	0,018
-543,510	-200,000	-0,030	0,100
-542,496	33,075	0,057	0,036
-541,481	22,961	-0,026	-0,016
-540,466	-147,817	0,155	-0,009
-539,452	-99,312	0,118	-0,022
-538,437	-126,497	0,089	-0,010
-537,423	28,289	-0,016	0,010
-536,408	379,940	0,084	-0,127
-535,393	62,677	0,043	0,031
-534,379	-149,946	-0,189	-0,011
-533,364	-88,126	-0,077	0,017
-532,350	304,463	0,037	-0,051
-531,335	121,948	-0,075	0,069
-530,321	-19,658	0,023	0,010
-529,306	-87,418	-0,141	-0,031
-528,291	113,684	0,040	-0,036
-527,277	-61,371	0,154	-0,048
-526,262	2,463	0,063	-0,033
-525,248	-1,193	0,150	0,078
-524,233	-200,000	0,027	0,093
-523,218	-200,000	-0,009	0,113
-522,204	-200,000	0,005	0,077
-521,189	78,656	0,024	-0,019
-520,175	3,463	-0,040	-0,021
-519,160	7,052	-0,094	-0,052
-518,145	-104,180	0,093	0,016
-517,131	-200,000	0,011	-0,078
-516,116	364,124	-0,032	-0,047
-515,102	800,000	-0,042	0,106
-514,087	-32,052	-0,066	-0,027
-513,072	-42,028	-0,071	-0,026
-512,058	800,000	-0,035	-0,094
-511,043	-200,000	-0,002	-0,007
-510,029	-29,437	-0,056	-0,024
-509,014	447,537	0,054	0,088
-507,999	146,711	0,050	0,050
-506,985	-108,079	-0,043	0,007
-505,970	-121,175	-0,180	-0,022
-504,956	565,558	0,011	-0,019
-503,941	800,000	-0,031	-0,085
-502,926	654,804	-0,049	0,093
-501,912	-126,014	0,071	0,008
-500,897	-100,496	0,069	0,012
-499,883	65,919	-0,116	-0,087
-498,868	28,474	0,041	-0,026
-497,853	511,825	0,028	-0,049
-496,839	332,765	-0,057	0,082
-495,824	-200,000	-0,021	0,076
-494,810	-122,718	-0,015	0,002
-493,795	420,970	0,062	0,099
-492,781	-61,373	-0,072	0,022
-491,766	58,690	0,082	-0,059
-490,751	232,180	-0,049	-0,059
-489,737	-54,582	-0,066	-0,022
-488,722	-35,839	0,170	0,067
-487,708	-68,417	-0,024	-0,007
-486,693	42,374	0,049	0,033
-485,678	117,309	-0,105	0,095
-484,664	-200,000	-0,003	-0,053
-483,649	800,000	0,070	-0,165
-482,635	800,000	-0,021	0,051
-481,620	-145,211	-0,060	0,004
-480,605	-200,000	0,001	-0,019
-479,591	-39,632	0,059	0,022
-478,576	230,694	0,037	-0,045
-477,562	99,193	-0,139	0,119
-476,547	-200,000	0,035	-0,172
-475,532	177,097	-0,091	0,098
-474,518	-11,184	-0,131	0,064
-473,503	-66,618	-0,030	-0,009
-472,489	191,490	0,023	-0,026
-471,474	-18,191	0,058	0,027
-470,459	548,111	0,027	0,047
-469,445	69,932	-0,023	-0,017
-468,430	419,090	0,040	0,063
-467,416	47,832	0,238	0,163
-466,401	800,000	0,039	0,110
-465,386	-200,000	-0,012	0,042
-464,372	-38,113	0,040	0,016
-463,357	-200,000	-0,053	-0,213
-462,343	489,409	-0,076	-0,129
-461,328	166,734	0,024	0,025
-460,313	-200,000	0,019	0,069
-459,299	16,601	0,166	0,096
-458,284	-200,000	-0,023	0,118
-457,270	-200,000	0,004	0,027
-456,255	69,015	-0,109	-0,083
-455,241	800,000	0,023	-0,054
-454,226	187,196	-0,065	0,072
-453,211	-140,507	0,035	-0,003
-452,197	164,991	-0,102	0,106
-451,182	-189,825	-0,063	0,001
-450,168	-83,595	-0,153	0,036
-449,153	-134,122	0,078	0,007
-448,138	-26,936	0,025	0,011
-447,124	133,191	-0,053	-0,050
-446,109	54,891	-0,079	0,056
-445,095	-7,175	-0,051	0,025
-444,080	258,309	-0,028	-0,035
-443,065	-200,000	0,048	0,200
-442,051	-16,872	0,037	0,017
-441,036	-5,861	-0,042	0,021
-440,022	800,000	0,015	0,036
-439,007	-24,115	0,090	-0,039
-437,992	-65,484	0,039	0,011
-436,978	-85,311	0,036	0,008
-435,963	133,249	-0,128	0,121
-434,949	332,819	-0,038	-0,054
-433,934	404,735	-0,095	-0,148
-432,919	800,000	0,030	-0,080
-431,905	-80,489	0,117	-0,028
-430,890	102,317	-0,026	0,023
-429,876	-110,002	-0,047	0,007
-428,861	78,009	0,148	-0,116
-427,846	-200,000	-0,016	0,064
-426,832	800,000	-0,060	0,146
-425,817	-41,003	-0,047	-0,018
-424,803	140,445	-0,079	0,076
-423,788	800,000	0,027	0,085
-422,773	800,000	-0,033	-0,076
-421,759	7,010	0,158	0,086
-420,744	-200,000	-0,027	-0,160
-419,730	-200,000	-0,003	-0,013
-418,715	-116,116	-0,057	0,008
-417,701	58,053	0,122	0,087
-416,686	350,798	-0,051	-0,074
-415,671	-41,949	0,028	-0,011
-414,657	136,687	-0,073	0,070
-413,642	-200,000	-0,006	0,086
-412,628	800,000	-0,041	0,115
-411,613	12,846	0,097	0,055
-410,598	-200,000	-0,019	0,093
-409,584	-200,000	0,023	-0,093
-408,569	-200,000	-0,009	0,090
-407,555	800,000	0,062	0,154
-406,540	800,000	0,011	0,031
-405,525	-134,317	-0,052	0,005
-404,511	329,112	-0,028	0,040
-403,496	800,000	-0,005	0,015
-402,482	800,000	-0,080	-0,192
-401,467	162,400	-0,037	0,038
-400,452	-200,000	0,009	0,034
-399,438	9,974	0,054	-0,030
-398,423	148,771	-0,045	-0,045
-397,409	52,962	-0,107	0,075
-396,394	216,255	-0,051	-0,059
-395,379	-200,000	0,000	-0,001
-394,365	-64,962	0,198	0,058
-393,350	206,542	-0,041	-0,047
-392,336	293,615	-0,034	0,046
-391,321	44,572	0,078	-0,053
-390,306	261,326	-0,118	-0,151
-389,292	183,959	-0,047	-0,051
-388,277	395,269	0,046	-0,071
-387,263	-200,000	0,016	0,075
-386,248	800,000	0,009	0,023
-385,233	476,122	0,005	-0,009
-384,219	-24,227	0,097	0,042
-383,204	800,000	0,026	-0,074
-382,190	-200,000	-0,003	0,097
-381,175	241,353	-0,070	-0,086
-380,160	67,329	0,060	-0,045
-379,146	800,000	-0,009	-0,026
-378,131	275,200	0,055	0,071
-377,117	29,902	-0,142	0,089
-376,102	-200,000	0,005	-0,055
-375,088	-5,628	0,077	0,038
-374,073	-200,000	-0,012	-0,097
-373,058	115,477	0,031	0,028
-372,044	84,568	-0,018	0,015
-371,029	129,285	0,104	-0,098
-370,015	-200,000	0,001	0,063
-369,000	6,228	0,110	-0,060
-367,985	129,213	-0,103	-0,097
-366,971	53,373	0,045	0,031
-365,956	527,154	0,046	0,079
-364,942	-101,294	-0,047	-0,008
-363,927	-103,758	0,042	0,007
-362,912	558,537	-0,057	0,102
-361,898	-81,937	-0,172	-0,041
-360,883	-200,000	-0,002	-0,084
-359,869	778,913	-0,045	-0,091
-358,854	26,862	0,104	0,063
-357,839	-55,784	0,098	-0,032
-356,825	237,921	0,066	-0,080
-355,810	-24,995	-0,061	-0,026
-354,796	50,232	-0,090	-0,062
-353,781	800,000	-0,003	-0,006
-352,766	283,551	-0,033	0,043
-351,752	38,145	-0,108	0,070
-350,737	800,000	0,047	0,136
-349,723	-200,000	-0,001	0,143
-348,708	-200,000	0,010	0,136
-347,693	-31,390	-0,117	-0,048
-346,679	674,319	-0,090	0,172
-345,664	-115,196	-0,141	0,019
-344,650	-70,830	0,078	-0,022
-343,635	-200,000	0,000	-0,107
-342,620	800,000	0,029	0,086
-341,606	-168,050	0,047	-0,001
-340,591	92,923	0,010	-0,008
-339,577	388,632	-0,028	0,042
-338,562	-66,581	-0,054	0,016
-337,548	-17,017	0,078	-0,036
-336,533	175,075	-0,023	-0,024
-335,518	-200,000	-0,001	0,008
-334,504	150,421	0,094	-0,093
-333,489	166,059	-0,091	0,094
-332,475	-43,643	-0,147	-0,054
-331,460	78,644	-0,069	-0,054
-330,445	-200,000	-0,007	0,096
-329,431	-200,000	-0,002	-0,169
-328,416	760,498	0,058	-0,116
-327,402	187,301	-0,073	-0,080
-326,387	-114,040	0,127	-0,018
-325,372	335,334	-0,075	0,107
-324,358	135,690	-0,048	-0,046
-323,343	800,000	0,048	0,138
-322,329	-200,000	0,001	0,085
-321,314	30,265	0,037	0,023
-320,299	-79,121	-0,062	0,015
-319,285	36,465	-0,060	0,039
-318,270	-32,407	-0,014	-0,006
-317,256	-144,385	0,131	-0,009
-316,241	115,383	0,097	-0,087
-315,226	-200,000	0,008	0,143
-314,212	800,000	0,023	0,070
-313,197	208,234	0,045	0,051
-312,183	-200,000	0,010	-0,070
-311,168	96,201	0,106	-0,089
-310,153	-200,000	-0,001	0,074
-309,139	800,000	-0,036	-0,074
-308,124	-46,156	0,019	0,007
-307,110	-200,000	-0,010	-0,082
-306,095	800,000	-0,051	0,136
-305,080	465,312	-0,065	-0,107
-304,066	120,432	-0,127	-0,116
-303,051	-33,667	-0,043	0,017
-302,037	21,344	0,075	0,044
-301,022	-79,882	0,066	-0,016
-300,008	207,179	0,042	0,048
-298,993	-150,527	-0,023	0,001
-297,978	-22,147	0,106	-0,047
-296,964	-200,000	0,003	0,045
-295,949	-200,000	-0,015	-0,122
-294,935	-129,519	-0,079	-0,008
-293,920	-200,000	-0,030	-0,115
-292,905	66,864	-0,016	-0,012
-291,891	-73,846	0,131	-0,035
-290,876	54,621	0,070	0,050
-289,862	411,836	-0,091	-0,142
-288,847	-200,000	-0,007	-0,038
-287,832	-42,263	0,103	-0,038
-286,818	-200,000	0,000	-0,006
-285,803	-22,026	0,178	0,079
-284,789	351,459	0,093	0,134
-283,774	-23,921	0,080	0,035
-282,759	33,091	-0,088	0,056
-281,745	329,310	0,044	0,062
-280,730	-94,658	0,072	-0,014
-279,716	-200,000	0,006	-0,110
-278,701	800,000	0,047	-0,138
-277,686	229,454	0,044	-0,053
-276,672	800,000	0,017	-0,038
-275,657	-68,055	0,043	0,012
-274,643	13,570	0,089	0,051
-273,628	-200,000	-0,036	-0,157
-272,613	91,070	0,019	-0,016
-271,599	800,000	-0,019	0,061
-270,584	800,000	-0,046	-0,129
-269,570	-148,403	0,182	0,011
-268,555	800,000	0,030	0,069
-267,540	237,887	0,133	-0,162
-266,526	800,000	-0,039	0,084
-265,511	68,875	0,023	-0,018
-264,497	-111,332	0,114	-0,017
-263,482	39,969	0,071	0,046
-262,467	800,000	0,039	0,086
-261,453	-123,687	0,066	-0,008
-260,438	-200,000	-0,013	0,068
-259,424	128,026	0,022	-0,020
-258,409	-98,583	0,114	-0,021
-257,395	-4,295	0,072	0,036
-256,380	-142,976	-0,038	-0,003
-255,365	-2,573	-0,086	0,044
-254,351	-200,000	-0,007	0,054
-253,336	-89,994	-0,076	-0,016
-252,322	-200,000	-0,008	-0,059
-251,307	800,000	0,057	0,159
-250,292	-200,000	-0,034	-0,141
-249,278	-200,000	-0,009	0,094
-248,263	800,000	0,018	0,046
-247,249	7,914	0,084	-0,046
-246,234	237,674	0,040	-0,049
-245,219	-100,772	-0,095	-0,017
-244,205	-3,449	0,138	-0,070
-243,190	800,000	-0,043	0,097
-242,176	-102,424	0,022	0,004
-241,161	66,397	0,140	-0,103
-240,146	-13,873	0,143	0,067
-239,132	-200,000	0,004	0,109
-238,117	18,642	-0,080	-0,047
-237,103	-200,000	-0,011	-0,115
-236,088	800,000	-0,039	0,101
-235,073	-200,000	0,005	0,120
-234,059	-200,000	-0,002	0,061
-233,044	-53,668	0,080	-0,027
-232,030	-117,716	-0,110	-0,014
-231,015	45,849	0,020	-0,013
-230,000	-200,000	-0,011	-0,205
-228,986	-25,327	0,051	-0,022
-227,971	169,278	0,036	0,038
-226,957	-53,295	-0,134	-0,044
-225,942	-91,316	-0,038	-0,008
-224,927	-115,484	-0,082	-0,011
-223,913	-200,000	0,022	0,075
-222,898	-12,988	-0,145	-0,068
-221,884	-70,309	-0,005	-0,001
-220,869	-21,813	0,057	0,025
-219,855	-54,675	0,035	0,011
-218,840	140,065	0,051	0,049
-217,825	-23,874	0,027	-0,012
-216,811	-200,000	-0,005	-0,032
-215,796	39,011	-0,083	-0,054
-214,782	800,000	0,053	-0,141
-213,767	-22,297	-0,091	0,040
-212,752	800,000	0,013	0,029
-211,738	-105,323	-0,114	-0,019
-210,723	-56,477	-0,094	-0,030
-209,709	-200,000	0,007	-0,108
-208,694	778,086	-0,068	-0,136
-207,679	174,657	-0,084	-0,089
-206,665	188,583	-0,052	-0,057
-205,650	-186,264	0,160	-0,002
-204,636	800,000	-0,018	-0,042
-203,621	-131,635	0,093	-0,009
-202,606	502,052	-0,076	0,129
-201,592	800,000	0,017	-0,044
-200,577	-200,000	-0,018	-0,059
-199,563	181,164	0,049	-0,052
-198,548	85,279	0,078	-0,062
-197,533	-59,650	0,111	0,034
-196,519	800,000	-0,045	0,120
-195,504	-40,949	-0,144	-0,054
-194,490	71,360	-0,036	0,027
-193,475	146,747	0,136	0,133
-192,460	4,211	-0,125	0,066
-191,446	-200,000	0,012	0,067
-190,431	164,746	0,164	0,169
-189,417	800,000	0,048	0,110
-188,402	608,379	-0,082	0,150
-187,387	409,017	-0,065	-0,100
-186,373	195,056	0,003	0,003
-185,358	-200,000	-0,003	-0,027
-184,344	-200,000	-0,003	-0,041
-183,329	-164,538	0,126	0,004
-182,315	800,000	-0,034	-0,102
-181,300	-87,011	0,110	0,024
-180,285	-120,241	-0,185	0,023
-179,271	684,475	0,046	-0,088
-178,256	321,803	-0,059	0,082
-177,242	210,083	-0,006	0,006
-176,227	13,184	-0,041	0,023
-175,212	-98,272	-0,087	-0,016
-174,198	-55,822	0,147	-0,047
-173,183	-200,000	0,012	-0,089
-172,169	-43,938	0,041	0,015
-171,154	-200,000	0,023	-0,148
-170,139	-172,691	-0,090	0,002
-169,125	-200,000	-0,019	0,094
-168,110	32,764	0,097	-0,061
-167,096	-97,175	0,075	-0,014
-166,081	329,559	0,028	-0,039
-165,066	800,000	-0,033	-0,095
-164,052	-139,115	-0,119	-0,009
-163,037	-9,636	-0,073	0,035
-162,023	171,736	0,075	-0,078
-161,008	800,000	0,033	0,070
-159,993	-131,827	0,087	0,008
-158,979	-77,878	-0,071	0,018
-157,964	800,000	-0,052	0,124
-156,950	-67,299	0,064	-0,018
-155,935	-69,058	0,096	-0,027
-154,920	503,990	0,055	0,094
-153,906	-200,000	-0,003	0,082
-152,891	800,000	-0,046	0,101
-151,877	96,766	0,092	-0,076
-150,862	4,720	-0,153	0,082
-149,847	504,210	-0,046	0,077
-148,833	724,313	-0,069	0,135
-147,818	800,000	0,031	-0,084
-146,804	-94,194	0,055	0,011
-145,789	800,000	0,034	-0,077
-144,775	737,111	-0,019	-0,036
-143,760	-200,000	-0,018	0,096
-142,745	800,000	-0,052	-0,111
-141,731	39,444	-0,046	-0,030
-140,716	616,481	-0,045	0,083
-139,702	-128,677	-0,058	0,006
-138,687	800,000	0,053	0,145
-137,672	-200,000	0,007	0,117
-136,658	472,637	0,003	-0,005
-135,643	-200,000	-0,024	-0,156
-134,629	800,000	0,028	0,074
-133,614	328,591	-0,074	0,103
-132,599	47,509	-0,033	0,022
-131,585	-116,210	0,297	0,040
-130,570	-53,771	-0,077	0,025
-129,556	249,832	-0,023	0,029
-128,541	-200,000	-0,024	-0,183
-127,526	-4,266	-0,127	-0,064
-126,512	173,150	0,056	0,059
-125,497	-81,652	0,051	0,012
-124,483	-200,000	-0,019	0,070
-123,468	16,787	0,032	-0,018
-122,453	492,395	-0,043	-0,071
-121,439	-200,000	-0,009	-0,032
-120,424	800,000	0,051	-0,151
-119,410	-78,984	0,085	-0,021
-118,395	-200,000	-0,028	0,205
-117,380	-36,701	0,180	0,070
-116,366	-78,220	-0,251	-0,062
-115,351	4,479	-0,022	-0,011
-114,337	383,618	0,044	-0,066
-113,322	-100,803	0,142	-0,025
-112,307	-200,000	0,018	0,100
-111,293	260,027	-0,056	-0,070
-110,278	12,614	0,078	-0,044
-109,264	800,000	0,030	0,064
-108,249	412,642	-0,012	-0,019
-107,234	440,816	0,029	-0,046
-106,220	-132,946	0,108	-0,010
-105,205	194,848	-0,061	0,068
-104,191	202,546	-0,032	-0,036
-103,176	-75,593	0,223	0,057
-102,162	-23,748	-0,088	-0,038
-101,147	-114,816	0,011	0,001
-100,132	251,368	-0,056	-0,069
-99,118	800,000	0,046	-0,110
-98,103	-200,000	0,008	-0,077
-97,089	800,000	-0,065	-0,149
-96,074	49,992	0,052	-0,036
-95,059	800,000	0,063	0,165
-94,045	371,219	0,074	-0,109
-93,030	800,000	-0,009	-0,022
-92,016	-109,268	-0,129	-0,020
-91,001	800,000	0,031	0,068
-89,986	89,072	-0,029	0,024
-88,972	-26,535	0,102	0,043
-87,957	800,000	-0,024	0,060
-86,943	-200,000	0,001	0,024
-85,928	551,283	0,039	-0,068
-84,913	-187,725	0,019	0,000
-83,899	-109,027	0,020	-0,003
-82,884	-200,000	0,019	0,091
-81,870	-110,783	0,144	0,021
-80,855	614,247	0,045	-0,083
-79,840	-4,015	0,042	-0,021
-78,826	800,000	-0,096	-0,253
-77,811	-100,507	-0,125	0,022
-76,797	691,138	-0,027	-0,052
-75,782	-9,217	0,146	0,070
-74,767	-161,273	0,084	0,003
-73,753	55,917	0,078	0,055
-72,738	-200,000	-0,020	0,126
-71,724	-50,009	0,024	0,008
-70,709	800,000	0,057	-0,121
-69,694	-74,553	-0,085	-0,022
-68,680	-105,616	0,123	0,020
-67,665	-27,022	0,036	-0,015
-66,651	662,011	0,022	0,040
-65,636	-200,000	-0,017	0,056
-64,622	617,500	-0,026	0,047
-63,607	510,110	0,014	-0,024
-62,592	-200,000	0,010	-0,100
-61,578	800,000	0,026	-0,079
-60,563	18,885	0,108	0,063
-59,549	-127,133	-0,084	0,009
-58,534	-149,127	-1,369	-0,078
-57,519	614,991	-0,769	-1,402
-56,505	-200,000	-0,888	-4,438
-55,490	-96,856	0,711	-0,134
-54,476	800,000	4,878	11,457
-53,461	-200,000	14,003	250,623
-52,446	-200,000	693,107	2236,140
-51,432	581,125	1621,611	2890,723
-50,417	117,652	1630,149	1453,116
-49,403	73,976	1284,596	975,042
-48,388	37,772	1021,522	655,789
-47,373	23,934	979,964	583,756
-46,359	23,219	969,396	575,104
-45,344	22,224	965,124	569,307
-44,330	22,150	963,550	568,116
-43,315	21,966	962,394	566,812
-42,300	22,032	961,068	566,224
-41,286	21,962	960,259	565,498
-40,271	21,993	959,270	564,993
-39,257	21,960	958,459	564,387
-38,242	21,966	957,333	563,720
-37,227	21,928	956,576	563,127
-36,213	21,902	955,551	562,420
-35,198	21,869	954,966	561,945
-34,184	21,955	954,171	561,733
-33,169	21,949	953,033	561,020
-32,154	21,991	952,350	560,731
-31,140	21,985	951,407	560,135
-30,125	22,054	950,621	559,871
-29,111	22,032	949,820	559,309
-28,096	21,922	949,200	558,569
-27,082	21,967	948,569	558,320
-26,067	22,021	947,676	557,944
-25,052	21,987	946,981	557,403
-24,038	21,991	946,360	557,029
-23,023	21,941	945,773	556,500
-22,009	22,006	944,854	556,146
-20,994	21,991	944,316	555,759
-19,979	22,015	943,758	555,486
-18,965	22,005	943,194	555,098
-17,950	21,946	942,622	554,552
-16,936	21,915	941,995	554,063
-15,921	21,912	941,042	553,470
-14,906	21,904	940,291	552,983
-13,892	21,903	939,934	552,746
-12,877	21,830	939,308	552,128
-11,863	21,843	938,610	551,736
-10,848	21,830	938,219	551,441
-9,833	21,951	937,583	551,429
-8,819	21,927	937,230	551,125
-7,804	21,858	936,310	550,343
-6,790	21,858	935,638	549,925
-5,775	21,913	935,060	549,737
-4,760	21,880	934,559	549,317
-3,746	21,831	933,935	548,773
-2,731	21,654	933,325	547,839
-1,717	21,624	932,576	547,283
-0,702	21,720	931,748	547,074
0,313	21,491	931,192	546,855
1,327	23,951	928,879	553,156
2,342	31,731	806,905	501,524
3,356	26,947	507,572	307,322
4,371	3,036	372,621	195,335
5,386	0,038	355,494	182,679
6,400	-1,639	349,258	177,446
7,415	-2,585	346,450	174,876
8,429	-2,751	344,785	173,823
9,444	-2,798	344,029	173,370
10,459	-2,785	343,376	173,041
11,473	-2,734	342,606	172,697
12,488	-2,389	342,137	172,852
13,502	-2,475	341,600	172,465
14,517	-2,553	341,077	172,093
15,531	-2,796	340,492	171,498
16,546	-2,756	340,047	171,306
17,561	-2,785	339,661	171,062
18,575	-2,635	339,256	171,018
19,590	-2,859	338,814	170,519
20,604	-2,712	338,495	170,514
21,619	-2,843	338,082	170,138
22,634	-2,874	337,672	169,881
23,648	-2,810	337,278	169,741
24,663	-2,716	337,088	169,740
25,677	-2,733	336,778	169,549
26,692	-2,807	336,622	169,370
27,707	-2,795	336,264	169,189
28,721	-2,783	335,997	169,054
29,736	-2,839	335,459	168,702
30,750	-2,814	335,177	168,574
31,765	-2,723	334,927	168,538
32,780	-2,849	334,610	168,220
33,794	-2,902	334,514	168,094
34,809	-2,890	334,283	167,977
35,823	-2,986	333,900	167,661
36,838	-2,998	333,601	167,481
37,853	-2,912	333,243	167,385
38,867	-2,646	332,837	167,470
39,882	-3,020	332,782	167,000
40,896	-2,839	332,488	167,045
41,911	-2,917	332,093	166,742
42,926	-2,937	331,870	166,592
43,940	-2,942	331,612	166,443
44,955	-2,987	331,329	166,234
45,969	-3,073	331,123	166,019
46,984	-3,063	330,810	165,858
47,999	-3,229	330,464	165,482
49,013	-3,327	330,315	165,281
50,028	-3,175	329,882	165,222
51,042	-3,315	329,507	164,861
52,057	-3,483	329,335	164,571
53,071	-3,305	329,078	164,629
54,086	-3,389	328,891	164,425
55,101	-3,277	328,529	164,356
56,115	-3,135	328,374	164,423
57,130	-2,893	328,258	164,624
58,144	-2,796	328,129	164,653
59,159	-2,813	327,809	164,459
60,174	-2,675	327,590	164,489
61,188	-2,675	327,344	164,351
62,203	-2,788	327,186	164,130
63,217	-2,815	326,803	163,893
64,232	-2,718	326,520	163,846
65,247	-2,633	326,419	163,875
66,261	-2,616	326,077	163,708
67,276	-2,975	325,788	163,147
68,290	-3,081	325,491	162,867
69,305	-2,921	325,064	162,816
70,320	-3,038	325,030	162,654
71,334	-2,848	324,631	162,651
72,349	-2,707	324,454	162,705
73,363	-2,552	324,399	162,834
74,378	-2,790	324,100	162,406
75,393	-2,651	323,769	162,379
76,407	-2,668	323,714	162,319
77,422	-2,708	323,276	162,041
78,436	-2,609	323,075	162,035
79,451	-2,631	322,681	161,799
80,466	-2,846	322,466	161,439
81,480	-2,962	322,192	161,159
82,495	-3,150	321,906	160,795
83,509	-2,893	321,714	160,968
84,524	-3,163	321,420	160,509
85,539	-3,232	321,257	160,338
86,553	-3,082	320,900	160,310
87,568	-3,124	320,730	160,164
88,582	-3,187	320,561	159,997
89,597	-3,032	320,124	159,934
90,611	-2,930	320,136	160,037
91,626	-2,860	319,884	159,974
92,641	-2,974	319,658	159,722
93,655	-3,007	319,345	159,515
94,670	-3,030	319,279	159,443
95,684	-2,942	318,996	159,383
96,699	-3,050	318,666	159,087
97,714	-2,964	318,400	159,033
98,728	-3,084	318,273	158,825
99,743	-3,226	318,050	158,546
100,757	-3,108	317,770	158,520
101,772	-3,050	317,417	158,392
102,787	-3,043	317,290	158,322
103,801	-2,965	316,987	158,242
104,816	-2,985	316,891	158,158
105,830	-2,929	316,649	158,084
106,845	-3,008	316,630	157,975
107,860	-2,821	316,097	157,897
108,874	-2,881	315,981	157,760
109,889	-2,887	315,734	157,616
110,903	-2,839	315,417	157,495
111,918	-2,934	315,234	157,288
112,933	-3,019	315,084	157,107
113,947	-2,807	314,633	157,096
114,962	-2,826	314,611	157,051
115,976	-2,750	314,315	156,971
116,991	-3,062	314,182	156,555
118,006	-2,977	313,878	156,481
119,020	-2,879	313,796	156,532
120,035	-2,846	313,666	156,488
121,049	-2,817	313,390	156,367
122,064	-2,898	313,239	156,191
123,079	-3,041	313,103	155,957
124,093	-2,763	312,709	156,043
125,108	-3,031	312,501	155,640
126,122	-3,159	312,044	155,263
127,137	-3,276	311,890	155,047
128,151	-3,098	311,497	155,027
129,166	-3,032	311,545	155,107
130,181	-3,050	311,327	154,966
131,195	-3,214	310,976	154,603
132,210	-3,081	310,870	154,678
133,224	-2,884	310,777	154,826
134,239	-2,806	310,538	154,776
135,254	-2,995	310,346	154,467
136,268	-2,894	309,982	154,378
137,283	-3,116	309,577	153,929
138,297	-3,296	309,473	153,674
139,312	-3,261	309,105	153,514
140,327	-3,011	309,137	153,779
141,341	-2,797	309,063	153,954
142,356	-2,600	308,792	154,013
143,370	-2,557	308,666	153,981
144,385	-2,478	308,389	153,911
145,400	-2,699	308,169	153,556
146,414	-2,636	307,937	153,494
147,429	-2,583	307,660	153,397
148,443	-2,640	307,514	153,251
149,458	-2,533	307,446	153,315
150,473	-2,625	307,134	153,050
151,487	-2,565	306,865	152,965
152,502	-2,641	306,693	152,786
153,516	-2,558	306,349	152,687
154,531	-2,506	306,192	152,649
155,546	-2,618	306,229	152,538
156,560	-2,781	305,826	152,154
157,575	-2,887	305,445	151,842
158,589	-2,750	305,337	151,917
159,604	-2,644	305,183	151,936
160,619	-2,589	304,809	151,793
161,633	-2,579	304,781	151,776
162,648	-2,512	304,492	151,688
163,662	-2,657	304,460	151,508
164,677	-2,593	304,073	151,369
165,692	-2,666	304,058	151,272
166,706	-2,535	303,756	151,243
167,721	-2,574	303,522	151,073
168,735	-2,656	303,485	150,957
169,750	-2,436	303,112	150,984
170,764	-2,541	303,075	150,844
171,779	-2,510	302,968	150,809
172,794	-2,644	302,660	150,505
173,808	-2,655	302,340	150,321
174,823	-3,065	302,031	149,734
175,837	-3,128	301,872	149,577
176,852	-2,728	301,712	149,894
177,867	-2,426	301,553	150,110
178,881	-2,557	301,471	149,923
179,896	-2,682	301,358	149,725
180,910	-2,541	301,042	149,699
181,925	-2,383	300,684	149,668
182,940	-2,334	300,662	149,694
183,954	-2,348	300,388	149,529
184,969	-2,500	300,066	149,202
185,983	-2,674	300,103	149,030
186,998	-2,548	299,840	149,014
188,013	-2,692	299,592	148,731
189,027	-2,424	299,322	148,856
190,042	-2,415	299,268	148,825
191,056	-2,477	299,043	148,637
192,071	-2,345	298,798	148,635
193,086	-2,404	298,793	148,559
194,100	-2,437	298,497	148,366
195,115	-2,452	298,156	148,168
196,129	-2,601	297,978	147,916
197,144	-2,570	297,778	147,835
198,159	-2,642	297,604	147,662
199,173	-2,441	297,395	147,749
200,188	-2,337	297,196	147,741
201,202	-2,456	296,835	147,429
202,217	-2,760	296,504	146,947
203,232	-2,947	296,311	146,650
204,246	-2,819	296,213	146,717
205,261	-2,489	296,133	146,995
206,275	-2,461	296,036	146,961
207,290	-2,464	295,721	146,789
208,304	-2,399	295,465	146,714
209,319	-2,457	295,321	146,571
210,334	-2,519	295,213	146,442
211,348	-2,550	295,002	146,294
212,363	-2,571	294,735	146,127
213,377	-2,588	294,563	146,012
214,392	-2,500	294,512	146,062
215,407	-2,626	294,032	145,685
216,421	-2,717	293,883	145,508
217,436	-2,767	293,681	145,345
218,450	-2,860	293,433	145,118
219,465	-2,570	293,240	145,296
220,480	-2,645	293,170	145,175
221,494	-2,647	293,074	145,112
222,509	-2,770	292,876	144,879
223,523	-2,522	292,626	144,988
224,538	-2,441	292,466	144,976
225,553	-2,656	292,290	144,663
226,567	-2,537	292,085	144,666
227,582	-2,561	291,902	144,539
228,596	-2,612	291,744	144,398
229,611	-2,373	291,685	144,591
230,626	-2,432	291,398	144,378
231,640	-2,617	290,982	143,977
232,655	-3,006	290,679	143,433
233,669	-2,978	290,385	143,303
234,684	-2,896	290,494	143,424
235,699	-2,967	290,362	143,277
236,713	-2,869	290,307	143,332
237,728	-2,712	289,824	143,235
238,742	-2,740	289,761	143,164
239,757	-2,598	289,557	143,189
240,772	-2,643	289,404	143,056
241,786	-2,695	289,265	142,924
242,801	-2,649	289,001	142,825
243,815	-2,885	288,907	142,536
244,830	-2,728	288,857	142,652
245,844	-2,896	288,515	142,307
246,859	-2,930	288,323	142,167
247,874	-2,908	288,173	142,101
248,888	-2,818	288,013	142,097
249,903	-2,598	287,760	142,173
250,917	-2,426	287,614	142,255
251,932	-2,355	287,610	142,309
252,947	-1,597	287,631	143,041
253,961	-2,245	286,988	142,082
254,976	-1,221	287,628	143,377
255,990	1,189	288,229	146,000
257,005	2,383	288,598	147,331
258,020	3,709	289,036	148,827
259,034	3,804	288,852	148,811
260,049	3,542	288,582	148,406
261,063	3,372	288,293	148,080
262,078	3,733	288,166	148,350
263,093	4,386	288,208	148,988
264,107	4,420	287,958	148,879
265,122	4,511	287,950	148,949
266,136	4,566	287,770	148,896
267,151	4,445	287,579	148,667
268,166	4,278	287,464	148,434
269,180	4,331	287,165	148,317
270,195	4,271	286,949	148,135
271,209	4,187	286,822	147,975
272,224	4,129	286,589	147,786
273,239	3,663	286,503	147,282
274,253	4,091	286,162	147,503
275,268	4,530	286,124	147,890
276,282	4,394	285,750	147,554
277,297	4,452	285,822	147,634
278,312	4,798	285,651	147,863
279,326	4,487	285,419	147,433
280,341	4,335	285,052	147,085
281,355	4,048	284,942	146,742
282,370	4,119	284,713	146,678
283,384	4,017	284,607	146,514
284,399	4,100	284,409	146,478
285,414	4,028	284,280	146,330
286,428	3,945	284,092	146,141
287,443	3,919	283,794	145,950
288,457	3,851	283,533	145,738
289,472	3,876	283,283	145,620
290,487	3,845	283,078	145,473
291,501	3,654	282,819	145,146
292,516	3,388	282,748	144,845
293,530	3,601	282,510	144,911
294,545	3,846	282,573	145,162
295,560	4,109	282,233	145,223
296,574	3,825	282,046	144,845
297,589	3,953	282,022	144,941
298,603	4,142	281,826	145,006
299,618	4,195	281,648	144,951
300,633	4,139	281,465	144,790
301,647	4,056	281,250	144,590
302,662	3,918	281,185	144,413
303,676	3,865	280,803	144,155
304,691	3,662	280,522	143,807
305,706	3,543	280,330	143,585
306,720	3,526	280,173	143,476
307,735	3,429	280,089	143,329
308,749	3,676	280,039	143,522
309,764	3,794	279,816	143,505
310,779	3,584	279,413	143,090
311,793	3,365	279,245	142,787
312,808	3,466	279,241	142,866
313,822	3,554	278,854	142,737
314,837	3,601	278,539	142,607
315,852	3,209	278,527	142,224
316,866	3,591	278,260	142,430
317,881	3,558	278,213	142,362
318,895	3,431	277,989	142,117
319,910	3,296	277,836	141,901
320,925	3,097	277,611	141,589
321,939	3,549	277,522	141,950
322,954	3,670	277,475	142,024
323,968	3,690	277,263	141,922
324,983	3,758	277,129	141,903
325,997	3,789	277,007	141,857
327,012	3,970	276,601	141,804
328,027	3,590	276,723	141,503
329,041	3,776	276,280	141,435
330,056	3,835	276,285	141,479
331,070	3,822	276,086	141,352
332,085	3,597	275,850	141,013
333,100	3,838	275,727	141,158
334,114	3,645	275,446	140,825
335,129	3,456	275,106	140,465
336,143	3,717	275,163	140,721
337,158	3,749	275,155	140,734
338,173	3,947	274,847	140,745
339,187	3,841	274,622	140,520
340,202	3,859	274,459	140,441
341,216	3,801	274,283	140,285
342,231	3,768	274,172	140,186
343,246	3,533	274,039	139,891
344,260	3,547	273,783	139,761
345,275	3,790	273,759	139,957
346,289	4,017	273,627	140,084
347,304	4,070	273,329	139,968
348,319	3,993	273,077	139,756
349,333	3,898	273,020	139,627
350,348	4,150	272,833	139,748
351,362	4,151	272,797	139,718
352,377	4,065	272,520	139,486
353,392	4,161	272,384	139,491
354,406	4,214	272,225	139,444
355,421	191,227	1332,016	1408,387
356,435	154,463	1461,231	1408,493
