DTS Sentinel unit serial number:	SN410029Multiplexer serial number:	ORYXHardware model number:	OX2-SRSoftware version number:	ORYX F/W v4,00 Oryx Data Collector v3.7.2.0data status	okinstallation	B4 Nyhavnadifferential loss correction	single-endedforward channel	channel 2reverse channel	N/Adate	2023/12/19time	00:30:13forward acquisition time	300,00reverse acquisition time	0,00gamma	499,1914k internal	0,3123k external	0,3123temperature offset calibration	1,0000default loss term (dB/km)	0,3820temperature slope calibration	1,0000multiplexer offset coefficient	1,0000multiplexer slope coefficient	1,0000fibre end	0,00T internal ref (°C)	22,12T ext. ref 1 (°C)	6,63T ext. ref 2 (°C)	6,64length (m)	temperature (°C)	Stokes	anti-Stokes-744,400	196,864	0,063	-0,072
-743,385	149,586	-0,122	0,123
-742,371	-147,284	0,091	0,006
-741,356	199,308	-0,194	0,222
-740,342	-200,000	-0,007	0,048
-739,327	15,948	-0,225	0,132
-738,312	-200,000	-0,017	-0,079
-737,298	-83,313	-0,169	0,040
-736,283	-200,000	-0,006	-0,058
-735,269	161,684	-0,164	0,172
-734,254	334,858	-0,015	-0,021
-733,239	4,442	-0,313	-0,170
-732,225	-107,134	-0,044	-0,007
-731,210	800,000	0,023	-0,050
-730,196	800,000	0,036	-0,084
-729,181	-57,117	0,130	-0,042
-728,167	27,401	0,033	-0,020
-727,152	-200,000	-0,006	-0,028
-726,137	-200,000	-0,026	-0,168
-725,123	-200,000	0,052	-0,180
-724,108	800,000	0,042	-0,097
-723,094	-85,742	-0,155	0,036
-722,079	-200,000	-0,036	0,140
-721,064	800,000	-0,025	0,068
-720,050	800,000	0,014	-0,044
-719,035	800,000	0,085	0,185
-718,021	132,999	0,052	0,050
-717,006	259,355	-0,076	-0,098
-715,991	-200,000	0,042	-0,218
-714,977	416,125	-0,040	-0,063
-713,962	-200,000	0,013	-0,071
-712,948	-56,963	0,057	0,019
-711,933	-200,000	-0,001	0,028
-710,918	800,000	0,066	-0,159
-709,904	-113,258	-0,190	0,027
-708,889	249,964	0,071	-0,090
-707,875	43,146	-0,091	-0,062
-706,860	-59,880	0,060	-0,019
-705,845	32,208	0,067	-0,043
-704,831	800,000	-0,071	0,190
-703,816	259,246	-0,059	-0,075
-702,802	-193,603	0,032	0,000
-701,787	-79,959	-0,046	0,012
-700,772	-200,000	0,012	0,063
-699,758	160,579	-0,081	-0,084
-698,743	-104,599	-0,054	0,009
-697,729	-12,580	-0,105	0,051
-696,714	-143,732	0,029	0,002
-695,699	-38,179	-0,130	0,051
-694,685	-200,000	-0,014	0,096
-693,670	-200,000	0,000	-0,042
-692,656	47,349	0,116	-0,080
-691,641	-81,511	-0,058	0,014
-690,627	136,780	0,082	0,079
-689,612	-19,292	0,087	-0,040
-688,597	-200,000	-0,147	0,000
-687,583	-11,484	0,083	-0,040
-686,568	800,000	0,037	-0,112
-685,554	94,920	-0,053	-0,045
-684,539	223,956	-0,066	-0,079
-683,524	-60,483	0,170	0,053
-682,510	315,148	0,047	0,065
-681,495	-54,523	-0,132	-0,044
-680,481	190,825	0,091	-0,102
-679,466	-200,000	-0,013	-0,131
-678,451	230,104	-0,038	-0,047
-677,437	800,000	0,083	-0,208
-676,422	-200,000	0,006	0,052
-675,408	-136,861	0,046	0,004
-674,393	16,695	0,030	0,018
-673,378	-88,047	-0,073	-0,016
-672,364	13,333	-0,121	-0,070
-671,349	-46,588	-0,082	-0,030
-670,335	-91,581	0,126	0,026
-669,320	-125,805	-0,080	-0,009
-668,305	-200,000	0,029	0,096
-667,291	252,554	-0,056	-0,071
-666,276	219,009	-0,076	-0,090
-665,262	-114,287	-0,086	-0,012
-664,247	257,283	-0,024	-0,031
-663,232	-49,044	-0,071	-0,025
-662,218	-200,000	0,040	0,144
-661,203	-31,934	0,036	-0,015
-660,189	67,845	-0,095	0,072
-659,174	-131,958	-0,119	0,011
-658,159	518,684	0,041	-0,071
-657,145	-200,000	-0,013	-0,057
-656,130	-127,836	0,033	0,003
-655,116	143,285	0,077	-0,076
-654,101	140,191	-0,072	0,071
-653,086	-109,334	-0,036	0,006
-652,072	-100,123	0,108	0,020
-651,057	11,619	-0,140	-0,080
-650,043	129,398	0,165	-0,156
-649,028	104,913	-0,029	0,025
-648,014	-184,334	-0,089	0,001
-646,999	231,417	0,084	-0,102
-645,984	800,000	0,037	-0,080
-644,970	-77,158	0,086	0,022
-643,955	-130,906	-0,089	0,009
-642,941	-52,922	-0,066	0,023
-641,926	800,000	-0,054	0,140
-640,911	-200,000	0,016	0,111
-639,897	-65,316	0,082	-0,024
-638,882	-149,137	0,152	-0,009
-637,868	655,062	-0,033	0,063
-636,853	-200,000	-0,007	0,030
-635,838	-200,000	-0,025	-0,160
-634,824	20,941	0,052	-0,031
-633,809	-200,000	0,014	0,047
-632,795	-200,000	-0,005	0,058
-631,780	-200,000	0,017	0,077
-630,765	54,575	-0,101	-0,072
-629,751	800,000	-0,057	-0,144
-628,736	-72,125	0,011	0,003
-627,722	796,484	-0,034	-0,070
-626,707	-200,000	0,017	-0,081
-625,692	-200,000	0,038	0,139
-624,678	-104,945	-0,043	-0,007
-623,663	-9,078	-0,044	0,022
-622,649	-200,000	0,024	-0,101
-621,634	129,409	-0,065	0,061
-620,619	-200,000	-0,001	-0,102
-619,605	-200,000	0,028	-0,106
-618,590	-200,000	0,017	0,113
-617,576	800,000	0,028	-0,062
-616,561	233,835	-0,017	-0,020
-615,546	358,816	-0,017	0,025
-614,532	211,381	-0,104	-0,121
-613,517	12,124	-0,091	-0,052
-612,503	-120,089	-0,105	0,013
-611,488	-200,000	-0,057	0,219
-610,474	800,000	-0,063	0,148
-609,459	-73,189	-0,078	-0,021
-608,444	144,725	-0,055	0,054
-607,430	25,012	0,107	0,066
-606,415	-84,926	-0,184	-0,042
-605,401	37,975	0,032	0,021
-604,386	148,418	-0,042	0,043
-603,371	48,916	0,021	0,015
-602,357	29,145	0,038	0,024
-601,342	800,000	-0,023	0,070
-600,328	-200,000	-0,011	-0,041
-599,313	-71,281	-0,098	0,027
-598,298	37,305	0,017	0,011
-597,284	800,000	0,031	0,069
-596,269	403,794	-0,066	0,104
-595,255	-29,044	-0,033	0,014
-594,240	-191,025	-0,236	-0,002
-593,225	321,227	-0,031	-0,043
-592,211	-200,000	-0,045	-0,199
-591,196	-200,000	0,027	-0,124
-590,182	-19,406	-0,101	-0,046
-589,167	-45,207	0,097	0,036
-588,152	800,000	-0,029	-0,077
-587,138	-200,000	0,019	-0,092
-586,123	365,584	-0,081	-0,121
-585,109	-190,748	0,110	0,001
-584,094	-200,000	0,011	0,060
-583,079	800,000	0,028	-0,067
-582,065	-200,000	-0,034	0,127
-581,050	14,012	0,046	0,026
-580,036	-15,902	-0,018	-0,009
-579,021	16,569	0,146	-0,085
-578,006	121,877	0,039	-0,036
-576,992	165,369	-0,075	-0,079
-575,977	-200,000	0,014	0,065
-574,963	-101,943	0,071	-0,013
-573,948	-32,964	-0,035	-0,014
-572,934	-68,201	0,020	0,006
-571,919	-200,000	-0,001	-0,171
-570,904	800,000	-0,065	0,143
-569,890	-50,445	0,102	-0,035
-568,875	-200,000	0,026	0,088
-567,861	-171,499	0,093	0,002
-566,846	-200,000	0,025	0,122
-565,831	68,848	-0,088	-0,067
-564,817	-42,087	0,041	-0,015
-563,802	118,205	0,079	-0,072
-562,788	646,234	-0,015	-0,028
-561,773	800,000	-0,039	0,117
-560,758	-200,000	-0,006	0,034
-559,744	147,663	-0,030	-0,030
-558,729	205,715	0,034	0,039
-557,715	-163,364	-0,063	-0,002
-556,700	-7,509	-0,031	-0,016
-555,685	800,000	-0,059	0,132
-554,671	-200,000	-0,008	-0,141
-553,656	370,046	-0,045	-0,067
-552,642	-200,000	0,005	0,182
-551,627	237,821	0,064	0,078
-550,612	-200,000	-0,000	0,095
-549,598	9,527	0,047	-0,026
-548,583	800,000	0,031	0,081
-547,569	32,517	0,152	0,097
-546,554	-200,000	-0,015	0,062
-545,539	79,355	-0,052	-0,041
-544,525	-200,000	-0,034	0,156
-543,510	584,248	0,027	-0,049
-542,496	-175,128	-0,055	-0,001
-541,481	-122,683	-0,085	-0,010
-540,466	146,490	-0,048	-0,048
-539,452	-47,256	0,144	0,052
-538,437	-121,921	0,022	-0,003
-537,423	550,140	-0,033	0,058
-536,408	-200,000	0,002	0,128
-535,393	255,133	-0,019	-0,025
-534,379	0,437	-0,113	0,060
-533,364	268,583	0,033	-0,042
-532,350	-34,809	-0,078	0,032
-531,335	667,144	-0,063	0,122
-530,321	-64,839	-0,168	0,050
-529,306	800,000	-0,022	0,059
-528,291	-200,000	-0,051	-0,172
-527,277	-200,000	0,039	-0,149
-526,262	-200,000	-0,013	0,051
-525,248	-200,000	0,008	0,077
-524,233	800,000	0,054	0,132
-523,218	-67,708	-0,044	-0,013
-522,204	800,000	-0,050	-0,121
-521,189	-1,126	0,066	0,034
-520,175	18,686	0,108	-0,064
-519,160	-200,000	-0,018	-0,079
-518,145	170,315	-0,083	0,088
-517,131	36,091	0,032	0,020
-516,116	-200,000	-0,015	-0,098
-515,102	5,315	0,040	0,022
-514,087	308,695	-0,046	-0,064
-513,072	-135,716	-0,047	-0,004
-512,058	-37,972	-0,063	0,025
-511,043	-95,412	0,053	-0,010
-510,029	-81,546	0,111	-0,027
-509,014	800,000	0,014	-0,041
-507,999	97,315	0,088	-0,075
-506,985	124,425	0,051	-0,048
-505,970	-26,258	-0,046	-0,020
-504,956	-71,655	0,017	-0,005
-503,941	127,189	0,024	-0,022
-502,926	386,050	-0,043	-0,065
-501,912	8,157	0,030	0,017
-500,897	94,561	0,033	-0,027
-499,883	307,884	-0,077	0,106
-498,868	800,000	-0,032	-0,089
-497,853	-200,000	0,016	-0,051
-496,839	75,175	0,060	0,047
-495,824	800,000	0,053	-0,158
-494,810	340,934	-0,025	-0,036
-493,795	-200,000	0,011	0,063
-492,781	-89,709	-0,118	-0,025
-491,766	-85,691	-0,049	-0,011
-490,751	800,000	0,028	0,061
-489,737	-118,781	0,081	0,010
-488,722	-200,000	0,037	-0,147
-487,708	50,115	0,090	-0,063
-486,693	465,945	-0,069	0,114
-485,678	-162,778	-0,060	0,002
-484,664	-200,000	-0,023	-0,085
-483,649	-200,000	0,004	0,169
-482,635	-44,800	-0,021	-0,008
-481,620	-43,934	0,186	-0,069
-480,605	-200,000	0,008	-0,056
-479,591	-200,000	-0,000	-0,002
-478,576	65,524	0,167	-0,125
-477,562	-59,882	0,101	0,032
-476,547	-13,286	-0,105	0,050
-475,532	-108,913	0,177	0,028
-474,518	-49,436	0,208	0,073
-473,503	60,274	0,071	0,052
-472,489	-199,946	0,080	0,000
-471,474	-41,793	-0,071	0,027
-470,459	-25,071	-0,042	0,018
-469,445	398,839	0,025	0,038
-468,430	224,040	-0,089	0,106
-467,416	800,000	0,074	-0,216
-466,401	-148,456	0,039	0,002
-465,386	495,174	-0,054	0,093
-464,372	6,855	0,086	0,047
-463,357	184,473	0,092	0,101
-462,343	-200,000	-0,031	-0,141
-461,328	-200,000	0,017	0,096
-460,313	-200,000	-0,014	-0,088
-459,299	480,488	-0,055	-0,092
-458,284	800,000	-0,045	0,110
-457,270	-200,000	0,010	0,077
-456,255	34,601	-0,050	0,032
-455,241	-3,248	-0,080	0,041
-454,226	42,631	0,058	-0,039
-453,211	-200,000	0,003	-0,052
-452,197	32,458	0,123	-0,078
-451,182	-200,000	-0,002	0,053
-450,168	17,079	-0,017	-0,010
-449,153	-32,308	0,125	0,051
-448,138	-41,544	-0,083	-0,031
-447,124	260,348	-0,028	0,036
-446,109	-148,830	0,037	-0,002
-445,095	-15,397	-0,065	0,031
-444,080	639,541	-0,035	0,066
-443,065	-15,782	-0,111	-0,052
-442,051	-61,938	0,115	-0,035
-441,036	243,190	-0,089	-0,111
-440,022	284,340	0,075	0,100
-439,007	-200,000	0,009	-0,137
-437,992	-129,296	-0,088	-0,009
-436,978	-118,374	0,179	-0,023
-435,963	229,755	-0,064	0,077
-434,949	14,494	0,025	-0,014
-433,934	-190,995	0,038	0,000
-432,919	-162,403	-0,064	-0,002
-431,905	-65,315	-0,051	-0,015
-430,890	-27,887	-0,021	0,009
-429,876	-31,432	-0,060	-0,025
-428,861	16,418	0,086	-0,050
-427,846	-140,143	-0,097	-0,007
-426,832	211,629	-0,052	-0,060
-425,817	45,710	0,099	0,067
-424,803	-200,000	-0,002	-0,010
-423,788	800,000	0,052	0,123
-422,773	-84,188	-0,093	0,022
-421,759	3,087	0,076	0,041
-420,744	277,845	0,043	-0,056
-419,730	-200,000	-0,004	-0,032
-418,715	171,434	-0,024	0,026
-417,701	559,474	-0,090	-0,161
-416,686	6,623	-0,054	0,029
-415,671	800,000	0,063	0,136
-414,657	409,860	-0,053	0,083
-413,642	-49,746	-0,152	-0,053
-412,628	137,707	-0,063	0,061
-411,613	-16,814	0,040	0,018
-410,598	-37,364	-0,048	-0,019
-409,584	-200,000	-0,006	-0,074
-408,569	346,668	0,081	0,118
-407,555	-200,000	0,009	-0,130
-406,540	277,359	-0,037	-0,049
-405,525	33,025	0,058	0,037
-404,511	497,519	-0,030	-0,052
-403,496	-79,886	0,067	0,016
-402,482	177,298	-0,039	-0,042
-401,467	-200,000	-0,036	0,127
-400,452	800,000	-0,049	0,118
-399,438	75,900	0,063	-0,049
-398,423	574,173	-0,019	0,033
-397,409	-200,000	-0,001	-0,111
-396,394	71,034	0,092	-0,070
-395,379	451,376	0,038	0,062
-394,365	379,956	0,135	0,204
-393,350	355,594	-0,056	0,082
-392,336	100,524	-0,069	0,059
-391,321	-117,637	0,042	-0,006
-390,306	-200,000	-0,023	0,074
-389,292	-200,000	0,015	-0,115
-388,277	-200,000	0,037	-0,174
-387,263	-106,374	0,260	0,042
-386,248	765,754	-0,018	-0,037
-385,233	60,612	-0,056	0,041
-384,219	-69,503	-0,080	0,022
-383,204	47,874	0,085	-0,058
-382,190	-108,826	-0,167	-0,026
-381,175	-95,132	0,020	-0,004
-380,160	-200,000	-0,023	0,108
-379,146	92,294	0,080	0,066
-378,131	800,000	0,076	0,197
-377,117	94,365	-0,030	-0,025
-376,102	77,671	-0,094	0,074
-375,088	-123,854	-0,111	0,013
-374,073	-181,863	-0,128	-0,002
-373,058	693,007	-0,020	0,039
-372,044	-80,466	0,102	0,025
-371,029	-133,772	-0,062	0,006
-370,015	679,044	0,036	0,068
-369,000	270,438	-0,061	-0,079
-367,985	-179,474	-0,033	0,001
-366,971	334,242	-0,078	0,111
-365,956	-200,000	-0,018	0,071
-364,942	800,000	0,083	0,187
-363,927	-19,426	-0,057	-0,026
-362,912	-82,976	0,051	-0,012
-361,898	-125,478	-0,100	-0,011
-360,883	-154,978	-0,074	-0,003
-359,869	-18,007	0,130	-0,060
-358,854	-200,000	-0,021	0,077
-357,839	240,903	-0,021	0,026
-356,825	-200,000	-0,005	0,051
-355,810	-200,000	0,003	0,137
-354,796	-178,336	0,054	-0,001
-353,781	-74,378	-0,094	0,025
-352,766	370,855	0,035	-0,052
-351,752	117,751	0,068	-0,062
-350,737	298,316	0,080	-0,108
-349,723	-24,333	0,089	-0,039
-348,708	800,000	0,021	0,060
-347,693	-96,670	-0,040	0,008
-346,679	800,000	0,059	-0,130
-345,664	449,224	0,030	-0,048
-344,650	58,627	0,043	0,031
-343,635	-91,974	0,175	0,036
-342,620	-200,000	-0,015	0,127
-341,606	37,630	0,140	0,091
-340,591	800,000	-0,004	0,013
-339,577	384,381	0,067	-0,102
-338,562	-200,000	0,003	-0,012
-337,548	800,000	0,035	0,081
-336,533	-115,287	0,031	-0,004
-335,518	105,464	-0,107	0,093
-334,504	-21,759	-0,101	0,045
-333,489	7,577	0,094	0,052
-332,475	242,765	-0,006	0,007
-331,460	-109,962	-0,102	-0,015
-330,445	-200,000	0,002	-0,030
-329,431	800,000	-0,034	-0,072
-328,416	-200,000	-0,025	0,106
-327,402	405,485	0,036	0,056
-326,387	-89,720	-0,101	-0,022
-325,372	186,765	-0,037	-0,041
-324,358	-92,997	-0,090	0,018
-323,343	-129,215	0,013	0,001
-322,329	302,063	-0,074	0,100
-321,314	-200,000	0,010	0,141
-320,299	800,000	0,030	0,068
-319,285	-68,359	0,040	0,011
-318,270	286,974	-0,075	-0,099
-317,256	-4,086	0,091	0,046
-316,241	-106,321	0,181	-0,029
-315,226	49,533	-0,120	-0,083
-314,212	-95,555	-0,029	-0,006
-313,197	496,013	-0,014	-0,024
-312,183	381,253	-0,075	-0,113
-311,168	800,000	-0,068	-0,165
-310,153	-62,590	-0,136	0,041
-309,139	-14,197	0,075	-0,035
-308,124	-91,937	-0,177	0,036
-307,110	73,554	0,026	0,020
-306,095	-91,417	-0,086	-0,018
-305,080	50,093	0,077	0,053
-304,066	-200,000	-0,003	-0,068
-303,051	3,954	-0,078	-0,042
-302,037	-7,850	-0,088	0,043
-301,022	-82,632	-0,049	-0,011
-300,008	800,000	-0,043	0,093
-298,993	800,000	0,055	-0,114
-297,978	113,216	0,134	0,119
-296,964	144,671	0,077	-0,076
-295,949	167,807	0,036	-0,038
-294,935	279,805	-0,093	-0,122
-293,920	-200,000	-0,018	0,085
-292,905	241,705	0,063	0,077
-291,891	-16,551	-0,058	0,027
-290,876	17,569	-0,041	0,024
-289,862	-200,000	0,027	0,133
-288,847	800,000	-0,041	0,116
-287,832	141,271	-0,061	0,059
-286,818	-200,000	-0,008	-0,100
-285,803	250,628	0,098	-0,122
-284,789	232,511	0,046	0,056
-283,774	-200,000	0,010	0,109
-282,759	63,097	-0,074	-0,054
-281,745	120,349	-0,113	-0,103
-280,730	-200,000	-0,015	-0,110
-279,716	-39,599	0,064	0,025
-278,701	-8,472	0,079	0,039
-277,686	-60,035	-0,060	-0,019
-276,672	-200,000	0,013	0,071
-275,657	-5,082	-0,036	0,018
-274,643	-7,477	0,113	0,056
-273,628	-43,383	-0,075	0,027
-272,613	-200,000	0,042	-0,151
-271,599	800,000	0,059	0,148
-270,584	9,614	0,148	0,082
-269,570	-49,546	-0,071	-0,025
-268,555	-200,000	0,016	0,074
-267,540	140,890	-0,054	0,053
-266,526	275,534	-0,044	0,058
-265,511	127,005	0,058	-0,054
-264,497	-200,000	-0,010	-0,122
-263,482	-200,000	0,009	0,039
-262,467	162,304	-0,065	0,066
-261,453	178,171	-0,067	0,072
-260,438	-200,000	0,013	-0,079
-259,424	6,283	0,067	-0,036
-258,409	671,777	0,045	-0,086
-257,395	-90,984	0,039	0,008
-256,380	800,000	-0,055	-0,133
-255,365	-200,000	0,019	0,093
-254,351	800,000	0,049	0,152
-253,336	626,451	0,037	-0,068
-252,322	-36,759	-0,149	0,058
-251,307	-200,000	-0,021	-0,082
-250,292	211,297	0,009	0,010
-249,278	-200,000	-0,047	0,175
-248,263	-73,769	-0,092	-0,024
-247,249	-146,491	0,092	-0,006
-246,234	241,973	-0,038	-0,046
-245,219	-153,254	-0,171	-0,009
-244,205	-200,000	-0,003	0,036
-243,190	-130,626	0,193	0,019
-242,176	-165,046	0,119	-0,004
-241,161	-66,617	-0,085	-0,024
-240,146	-93,249	-0,157	0,032
-239,132	321,152	-0,044	-0,061
-238,117	800,000	0,030	-0,074
-237,103	-200,000	-0,003	-0,031
-236,088	86,069	0,075	-0,061
-235,073	-200,000	-0,006	0,060
-234,059	75,319	0,064	-0,049
-233,044	404,152	-0,064	-0,099
-232,030	-103,179	0,130	0,022
-231,015	800,000	-0,025	-0,070
-230,000	-200,000	0,008	-0,125
-228,986	-135,353	0,052	-0,004
-227,971	-41,737	-0,017	0,006
-226,957	800,000	-0,046	-0,119
-225,942	-35,723	0,065	-0,026
-224,927	156,658	-0,049	-0,050
-223,913	-154,471	-0,023	-0,001
-222,898	134,107	-0,041	0,039
-221,884	-95,413	0,074	-0,014
-220,869	-200,000	-0,003	-0,054
-219,855	173,884	0,062	-0,066
-218,840	-119,282	0,179	-0,022
-217,825	369,891	0,029	-0,042
-216,811	104,204	0,075	-0,065
-215,796	289,597	-0,101	-0,134
-214,782	79,201	0,062	-0,049
-213,767	-129,524	0,040	0,004
-212,752	-11,992	0,074	0,035
-211,738	-7,509	-0,053	-0,026
-210,723	-27,661	0,133	0,056
-209,709	92,291	-0,067	-0,055
-208,694	329,707	-0,066	-0,093
-207,679	327,519	0,009	-0,013
-206,665	181,714	0,027	0,029
-205,650	10,492	-0,040	0,022
-204,636	577,626	0,034	0,061
-203,621	350,024	-0,048	-0,069
-202,606	157,286	0,078	0,079
-201,592	524,639	0,038	-0,066
-200,577	800,000	0,051	-0,121
-199,563	547,683	-0,034	-0,060
-198,548	-167,119	0,106	0,003
-197,533	-23,716	-0,049	0,021
-196,519	-200,000	-0,018	0,144
-195,504	-200,000	0,021	0,081
-194,490	-200,000	0,001	-0,003
-193,475	-134,230	0,089	-0,008
-192,460	-200,000	0,009	0,038
-191,446	-128,266	0,100	0,010
-190,431	-114,680	0,148	0,020
-189,417	183,564	0,053	0,057
-188,402	-200,000	0,013	-0,057
-187,387	-136,631	-0,163	0,014
-186,373	-87,880	0,082	0,018
-185,358	345,030	0,023	0,033
-184,344	17,341	-0,050	-0,029
-183,329	36,120	0,021	0,013
-182,315	-200,000	-0,030	-0,172
-181,300	-66,666	-0,057	0,016
-180,285	-128,853	-0,127	-0,013
-179,271	459,189	0,020	-0,033
-178,256	-111,413	0,058	-0,008
-177,242	-200,000	-0,035	-0,118
-176,227	-7,708	0,147	0,072
-175,212	-157,221	-0,097	0,004
-174,198	-200,000	-0,020	0,078
-173,183	-146,956	-0,100	0,006
-172,169	313,392	-0,057	0,079
-171,154	248,846	-0,124	-0,153
-170,139	630,917	0,036	-0,066
-169,125	800,000	0,034	-0,081
-168,110	-137,817	0,099	0,008
-167,096	-200,000	-0,001	0,011
-166,081	800,000	-0,025	-0,078
-165,066	30,461	0,042	-0,026
-164,052	800,000	0,013	0,039
-163,037	187,701	-0,075	-0,082
-162,023	800,000	0,053	0,117
-161,008	-200,000	0,000	0,003
-159,993	-200,000	0,036	-0,135
-158,979	18,017	0,079	-0,046
-157,964	241,007	-0,106	-0,129
-156,950	240,687	0,066	-0,080
-155,935	800,000	-0,037	-0,107
-154,920	800,000	0,029	-0,068
-153,906	222,250	0,059	0,069
-152,891	308,329	0,009	0,012
-151,877	553,811	0,070	0,123
-150,862	-117,265	-0,099	-0,013
-149,847	-0,178	0,041	-0,021
-148,833	800,000	-0,058	-0,140
-147,818	-181,088	0,157	0,002
-146,804	230,199	0,042	-0,050
-145,789	173,813	0,046	-0,048
-144,775	536,623	0,058	-0,100
-143,760	800,000	-0,016	-0,035
-142,745	37,091	-0,102	-0,066
-141,731	194,966	-0,124	0,137
-140,716	-45,619	0,130	-0,047
-139,702	69,460	0,144	-0,108
-138,687	-200,000	0,002	0,086
-137,672	-54,330	-0,137	0,045
-136,658	94,327	0,053	-0,044
-135,643	-200,000	0,008	-0,067
-134,629	506,549	-0,065	-0,110
-133,614	6,003	0,119	-0,064
-132,599	-107,660	0,041	0,006
-131,585	347,244	0,021	0,031
-130,570	353,589	-0,039	0,057
-129,556	-122,929	-0,141	-0,016
-128,541	576,139	-0,079	-0,141
-127,526	133,335	0,025	0,023
-126,512	294,678	0,024	0,031
-125,497	-200,000	-0,011	0,166
-124,483	800,000	-0,007	0,023
-123,468	800,000	0,043	0,107
-122,453	-200,000	0,006	-0,054
-121,439	-127,604	-0,108	-0,011
-120,424	-200,000	0,023	0,085
-119,410	-200,000	-0,008	0,032
-118,395	800,000	0,046	0,107
-117,380	357,082	0,062	0,090
-116,366	-200,000	0,002	0,078
-115,351	-133,312	0,022	-0,002
-114,337	-200,000	0,009	0,088
-113,322	-12,721	0,059	-0,028
-112,307	180,487	-0,044	0,047
-111,293	-84,517	0,153	0,035
-110,278	271,174	-0,045	0,058
-109,264	800,000	0,016	0,049
-108,249	-28,928	-0,130	-0,054
-107,234	-200,000	-0,018	-0,074
-106,220	215,799	-0,077	-0,090
-105,205	-49,256	0,105	-0,036
-104,191	-157,081	0,144	-0,006
-103,176	-32,038	0,087	-0,035
-102,162	-200,000	-0,005	-0,020
-101,147	-77,446	-0,095	-0,024
-100,132	543,413	0,045	0,078
-99,118	356,955	-0,034	0,050
-98,103	-124,862	0,095	0,011
-97,089	-29,607	0,089	-0,037
-96,074	173,119	-0,073	0,077
-95,059	117,022	0,053	-0,047
-94,045	372,955	0,079	0,116
-93,030	-200,000	-0,011	0,063
-92,016	-22,017	0,061	0,027
-91,001	29,272	0,008	-0,005
-89,986	-200,000	0,014	0,069
-88,972	307,367	-0,025	0,034
-87,957	-200,000	0,019	0,112
-86,943	-49,626	-0,051	0,018
-85,928	17,107	-0,079	0,046
-84,913	-65,303	0,082	-0,024
-83,899	800,000	0,036	0,089
-82,884	677,539	-0,048	-0,091
-81,870	390,156	-0,023	0,035
-80,855	95,603	0,073	0,061
-79,840	66,922	-0,069	-0,051
-78,826	-200,000	-0,009	0,065
-77,811	148,626	-0,076	-0,075
-76,797	112,299	-0,043	-0,038
-75,782	-31,342	-0,164	0,067
-74,767	800,000	0,047	-0,097
-73,753	800,000	0,046	-0,116
-72,738	174,141	0,040	0,042
-71,724	-71,128	-0,069	-0,019
-70,709	-68,906	-0,057	-0,016
-69,694	800,000	0,009	-0,021
-68,680	352,731	0,067	-0,096
-67,665	94,864	0,031	0,026
-66,651	-107,724	0,161	0,025
-65,636	42,500	0,090	0,059
-64,622	-58,254	-0,192	-0,060
-63,607	-200,000	0,030	-0,117
-62,592	-68,797	-0,068	-0,019
-61,578	800,000	-0,089	-0,182
-60,563	-200,000	0,007	-0,028
-59,549	-66,451	-0,033	-0,010
-58,534	-150,075	-1,300	-0,072
-57,519	627,276	-0,825	-1,518
-56,505	-200,000	-0,781	-4,269
-55,490	-53,322	0,698	-0,231
-54,476	800,000	4,908	11,761
-53,461	-200,000	13,723	252,637
-52,446	-200,000	691,986	2263,698
-51,432	603,425	1622,661	2941,166
-50,417	118,439	1633,234	1462,219
-49,403	73,974	1287,302	978,837
-48,388	37,767	1023,366	658,134
-47,373	24,143	981,603	586,473
-46,359	23,343	971,228	577,628
-45,344	22,408	966,859	571,951
-44,330	22,370	965,277	570,869
-43,315	22,225	963,946	569,585
-42,300	22,140	963,218	568,858
-41,286	22,181	962,089	568,299
-40,271	22,067	961,145	567,350
-39,257	22,099	960,060	566,790
-38,242	22,142	959,058	566,315
-37,227	22,095	958,482	565,801
-36,213	22,081	957,580	565,201
-35,198	22,103	956,663	564,709
-34,184	22,211	955,946	564,613
-33,169	22,146	955,053	563,852
-32,154	22,188	954,265	563,500
-31,140	22,175	953,246	562,833
-30,125	22,198	952,449	562,414
-29,111	22,159	951,675	561,811
-28,096	22,194	950,961	561,481
-27,082	22,173	950,267	560,978
-26,067	22,159	949,481	560,447
-25,052	22,141	948,894	560,023
-24,038	22,181	948,103	559,662
-23,023	22,129	947,494	559,115
-22,009	22,241	946,726	558,997
-20,994	22,183	946,226	558,493
-19,979	22,204	945,664	558,207
-18,965	22,131	944,985	557,550
-17,950	22,196	944,234	557,291
-16,936	22,106	943,608	556,615
-15,921	22,068	943,077	556,157
-14,906	22,124	942,219	555,809
-13,892	22,023	941,732	555,178
-12,877	22,099	940,792	554,843
-11,863	21,948	940,553	554,201
-10,848	21,975	939,872	553,862
-9,833	22,149	939,493	554,170
-8,819	22,156	938,655	553,675
-7,804	22,053	938,352	553,148
-6,790	22,050	937,452	552,586
-5,775	22,030	936,974	552,218
-4,760	22,113	936,305	552,066
-3,746	22,068	935,682	551,534
-2,731	21,904	935,182	550,700
-1,717	21,856	934,304	550,010
-0,702	21,874	933,610	549,636
0,313	21,674	932,928	549,435
1,327	24,133	930,450	555,652
2,342	31,619	808,535	503,133
3,356	26,091	508,899	307,210
4,371	1,413	373,561	194,092
5,386	-1,526	356,640	181,675
6,400	-2,814	350,583	177,017
7,415	-3,090	347,995	175,364
8,429	-2,996	346,550	174,732
9,444	-3,065	345,762	174,237
10,459	-2,927	344,988	173,996
11,473	-2,822	344,203	173,708
12,488	-3,081	343,848	173,207
13,502	-3,113	343,201	172,827
14,517	-2,993	342,795	172,750
15,531	-3,021	342,375	172,490
16,546	-2,938	341,887	172,326
17,561	-2,860	341,438	172,176
18,575	-2,733	340,913	172,046
19,590	-3,040	340,750	171,588
20,604	-2,809	340,388	171,660
21,619	-3,010	339,953	171,191
22,634	-2,763	339,485	171,229
23,648	-2,955	339,269	170,879
24,663	-2,838	338,890	170,810
25,677	-2,750	338,542	170,723
26,692	-2,813	338,185	170,454
27,707	-2,783	337,968	170,364
28,721	-2,855	337,728	170,144
29,736	-2,846	337,427	169,988
30,750	-2,888	337,227	169,824
31,765	-2,963	336,832	169,523
32,780	-2,778	336,459	169,533
33,794	-2,932	336,282	169,251
34,809	-2,899	335,811	169,038
35,823	-2,823	335,563	168,985
36,838	-3,027	335,420	168,663
37,853	-2,976	335,195	168,593
38,867	-2,860	334,946	168,587
39,882	-2,937	334,633	168,325
40,896	-2,806	334,327	168,307
41,911	-2,918	334,102	168,050
42,926	-2,881	333,802	167,926
43,940	-2,872	333,470	167,754
44,955	-2,917	333,193	167,550
45,969	-2,898	332,864	167,390
46,984	-2,803	332,565	167,334
47,999	-3,014	332,509	167,050
49,013	-2,821	332,160	167,079
50,028	-2,909	332,018	166,893
51,042	-2,857	331,813	166,833
52,057	-2,870	331,464	166,629
53,071	-2,879	331,216	166,479
54,086	-3,029	330,954	166,162
55,101	-2,860	330,733	166,228
56,115	-2,775	330,346	166,115
57,130	-2,833	330,146	165,934
58,144	-2,801	329,749	165,756
59,159	-2,865	329,633	165,610
60,174	-2,938	329,293	165,342
61,188	-2,750	329,054	165,420
62,203	-2,835	328,796	165,180
63,217	-2,784	328,487	165,068
64,232	-2,769	328,392	165,022
65,247	-2,801	327,983	164,765
66,261	-2,855	327,731	164,564
67,276	-2,848	327,473	164,428
68,290	-2,934	327,206	164,181
69,305	-2,855	326,961	164,133
70,320	-3,087	326,935	163,845
71,334	-2,745	326,500	163,996
72,349	-2,803	326,212	163,771
73,363	-2,823	325,944	163,600
74,378	-2,804	325,711	163,489
75,393	-2,968	325,542	163,207
76,407	-2,829	325,213	163,182
77,422	-2,869	325,134	163,083
78,436	-2,913	324,779	162,842
79,451	-2,855	324,519	162,762
80,466	-2,851	324,131	162,557
81,480	-2,769	323,965	162,550
82,495	-2,879	323,743	162,303
83,509	-2,642	323,380	162,368
84,524	-2,737	323,395	162,256
85,539	-2,674	322,941	162,083
86,553	-2,700	322,728	161,934
87,568	-2,817	322,490	161,670
88,582	-2,820	322,397	161,607
89,597	-2,813	321,867	161,334
90,611	-2,846	321,826	161,262
91,626	-2,729	321,644	161,286
92,641	-2,718	321,435	161,179
93,655	-2,786	321,141	160,942
94,670	-2,907	320,951	160,700
95,684	-2,929	320,752	160,561
96,699	-2,803	320,357	160,488
97,714	-2,908	320,250	160,305
98,728	-2,899	320,027	160,188
99,743	-2,862	319,753	160,078
100,757	-2,745	319,466	160,048
101,772	-2,770	319,186	159,865
102,787	-2,810	319,021	159,725
103,801	-2,840	318,708	159,521
104,816	-2,905	318,613	159,389
105,830	-2,928	318,296	159,191
106,845	-2,818	318,049	159,173
107,860	-2,978	317,845	158,883
108,874	-2,830	317,586	158,899
109,889	-2,863	317,471	158,792
110,903	-2,802	317,180	158,698
111,918	-2,961	317,013	158,429
112,933	-2,790	316,664	158,425
113,947	-2,817	316,467	158,283
114,962	-2,928	316,355	158,094
115,976	-3,011	316,196	157,910
116,991	-2,829	315,737	157,863
118,006	-2,854	315,642	157,775
119,020	-2,895	315,445	157,618
120,035	-2,805	315,259	157,607
121,049	-2,751	314,957	157,501
122,064	-2,860	314,979	157,381
123,079	-2,750	314,592	157,292
124,093	-2,755	314,284	157,118
125,108	-2,719	314,162	157,081
126,122	-2,767	313,760	156,815
127,137	-2,870	313,731	156,676
128,151	-2,761	313,442	156,634
129,166	-2,673	313,036	156,511
130,181	-2,594	312,876	156,502
131,195	-2,782	312,629	156,165
132,210	-2,898	312,479	155,952
133,224	-2,861	312,209	155,843
134,239	-2,853	312,021	155,743
135,254	-2,924	311,767	155,527
136,268	-2,855	311,648	155,527
137,283	-2,800	311,448	155,471
138,297	-2,874	311,109	155,210
139,312	-2,894	310,958	155,100
140,327	-2,814	310,581	154,983
141,341	-2,711	310,441	155,008
142,356	-2,748	310,286	154,878
143,370	-2,806	310,136	154,728
144,385	-2,705	309,782	154,644
145,400	-2,835	309,599	154,401
146,414	-2,739	309,459	154,420
147,429	-2,803	309,081	154,149
148,443	-2,924	309,001	153,968
149,458	-2,737	308,808	154,055
150,473	-2,805	308,612	153,872
151,487	-2,863	308,419	153,702
152,502	-2,824	308,163	153,601
153,516	-2,770	307,943	153,534
154,531	-2,833	307,682	153,325
155,546	-2,802	307,507	153,256
156,560	-2,863	307,126	152,989
157,575	-2,763	306,790	152,912
158,589	-2,930	306,787	152,723
159,604	-2,738	306,638	152,835
160,619	-2,819	306,564	152,701
161,633	-2,612	306,121	152,682
162,648	-2,747	306,149	152,541
163,662	-2,590	305,723	152,478
164,677	-2,688	305,521	152,263
165,692	-2,735	305,325	152,102
166,706	-2,710	305,298	152,101
167,721	-2,756	305,012	151,898
168,735	-2,527	304,742	151,987
169,750	-2,707	304,626	151,729
170,764	-2,850	304,347	151,428
171,779	-2,794	304,117	151,358
172,794	-2,717	304,026	151,380
173,808	-2,805	303,802	151,163
174,823	-2,718	303,543	151,111
175,837	-2,745	303,359	150,978
176,852	-2,804	303,216	150,832
177,867	-2,692	302,907	150,781
178,881	-2,764	302,800	150,640
179,896	-2,926	302,587	150,354
180,910	-2,680	302,307	150,453
181,925	-2,690	302,097	150,326
182,940	-2,757	301,999	150,195
183,954	-2,726	301,823	150,125
184,969	-2,860	301,612	149,870
185,983	-2,542	301,332	150,042
186,998	-2,542	301,172	149,950
188,013	-2,672	300,886	149,662
189,027	-2,629	300,869	149,684
190,042	-2,690	300,536	149,443
191,056	-2,673	300,351	149,355
192,071	-2,579	300,037	149,280
193,086	-2,696	299,738	149,000
194,100	-2,896	299,604	148,716
195,115	-2,862	299,583	148,727
196,129	-2,644	299,200	148,745
197,144	-2,812	299,007	148,465
198,159	-2,837	298,711	148,280
199,173	-2,667	298,600	148,383
200,188	-2,747	298,422	148,201
201,202	-2,744	298,155	148,058
202,217	-2,930	298,037	147,798
203,232	-2,642	297,654	147,886
204,246	-2,853	297,497	147,582
205,261	-2,813	297,445	147,583
206,275	-2,834	297,217	147,436
207,290	-2,693	297,095	147,504
208,304	-2,513	296,840	147,546
209,319	-2,673	296,592	147,248
210,334	-2,687	296,346	147,098
211,348	-2,615	296,185	147,078
212,363	-2,500	295,920	147,049
213,377	-2,585	295,925	146,953
214,392	-2,666	295,669	146,732
215,407	-2,520	295,288	146,676
216,421	-2,675	295,276	146,501
217,436	-2,743	294,950	146,259
218,450	-2,831	294,699	146,033
219,465	-2,710	294,400	145,993
220,480	-2,725	294,350	145,940
221,494	-2,713	294,212	145,870
222,509	-2,833	294,132	145,698
223,523	-2,652	293,797	145,700
224,538	-2,829	293,595	145,411
225,553	-2,726	293,330	145,368
226,567	-2,590	293,236	145,444
227,582	-2,616	292,964	145,271
228,596	-2,636	292,919	145,215
229,611	-2,697	292,766	145,066
230,626	-2,654	292,502	144,965
231,640	-2,619	292,164	144,818
232,655	-2,821	292,169	144,609
233,669	-2,724	291,946	144,581
234,684	-2,541	291,628	144,591
235,699	-2,550	291,653	144,582
236,713	-2,719	291,273	144,214
237,728	-2,774	291,178	144,100
238,742	-2,767	290,946	143,980
239,757	-2,722	290,683	143,881
240,772	-2,751	290,524	143,761
241,786	-2,693	290,314	143,701
242,801	-2,746	290,252	143,605
243,815	-2,718	290,067	143,528
244,830	-2,831	289,892	143,319
245,844	-2,741	289,586	143,242
246,859	-2,841	289,298	142,989
247,874	-2,880	289,096	142,839
248,888	-2,771	288,916	142,843
249,903	-2,886	288,824	142,673
250,917	-2,920	288,742	142,587
251,932	-2,792	288,383	142,521
252,947	-3,037	288,191	142,176
253,961	-3,638	287,633	141,304
254,976	-4,244	287,217	140,500
255,990	-4,168	287,051	140,479
257,005	-3,061	287,548	141,784
258,020	-0,894	288,208	144,202
259,034	0,596	288,725	145,898
260,049	1,274	288,685	146,523
261,063	1,588	288,606	146,775
262,078	1,923	288,537	147,052
263,093	2,203	288,459	147,270
264,107	2,409	288,333	147,393
265,122	2,558	288,415	147,565
266,136	2,573	288,079	147,395
267,151	2,692	288,037	147,476
268,166	2,831	287,759	147,454
269,180	2,550	287,709	147,143
270,195	2,665	287,261	147,012
271,209	2,632	287,264	146,969
272,224	2,747	287,054	146,960
273,239	2,473	286,899	146,604
274,253	2,530	286,513	146,448
275,268	2,378	286,445	146,253
276,282	2,387	286,180	146,113
277,297	2,497	285,846	146,036
278,312	2,547	285,795	146,045
279,326	2,396	285,770	145,874
280,341	2,592	285,414	145,868
281,355	2,505	285,253	145,689
282,370	2,539	284,989	145,573
283,384	2,399	284,926	145,395
284,399	2,313	284,723	145,196
285,414	2,288	284,595	145,093
286,428	2,516	284,315	145,155
287,443	2,409	284,090	144,926
288,457	2,393	283,887	144,794
289,472	2,409	283,749	144,726
290,487	2,412	283,494	144,585
291,501	2,345	283,345	144,433
292,516	2,459	283,030	144,367
293,530	2,335	282,985	144,214
294,545	2,237	282,891	144,061
295,560	2,415	282,611	144,074
296,574	2,294	282,526	143,903
297,589	2,243	282,267	143,710
298,603	2,326	282,019	143,649
299,618	2,244	281,925	143,511
300,633	2,547	281,621	143,629
301,647	2,454	281,395	143,414
302,662	2,536	281,422	143,492
303,676	2,483	281,293	143,363
304,691	2,743	281,049	143,471
305,706	2,463	280,830	143,083
306,720	2,706	280,718	143,242
307,735	2,661	280,454	143,052
308,749	2,488	280,363	142,830
309,764	2,517	280,170	142,747
310,779	2,455	279,999	142,589
311,793	2,396	279,752	142,395
312,808	2,504	279,510	142,360
313,822	2,616	279,393	142,393
314,837	2,406	279,220	142,096
315,852	2,538	279,033	142,111
316,866	2,414	278,783	141,856
317,881	2,522	278,662	141,882
318,895	2,331	278,618	141,668
319,910	2,426	278,270	141,568
320,925	2,271	278,054	141,301
321,939	2,355	278,032	141,355
322,954	2,591	277,819	141,454
323,968	2,558	277,686	141,343
324,983	2,532	277,494	141,208
325,997	2,568	277,356	141,158
327,012	2,545	277,082	140,985
328,027	2,498	277,017	140,896
329,041	2,650	276,831	140,929
330,056	2,553	276,690	140,756
331,070	2,688	276,435	140,738
332,085	2,617	276,197	140,539
333,100	2,576	276,109	140,444
334,114	2,623	275,798	140,316
335,129	2,680	275,554	140,232
336,143	2,603	275,585	140,164
337,158	2,761	275,299	140,151
338,173	2,664	275,202	140,001
339,187	2,502	275,112	139,794
340,202	2,606	274,782	139,709
341,216	2,669	274,522	139,622
342,231	2,444	274,571	139,428
343,246	2,394	274,507	139,337
344,260	2,660	274,280	139,454
345,275	2,527	274,054	139,204
346,289	2,566	273,844	139,121
347,304	2,804	273,654	139,229
348,319	2,798	273,264	139,013
349,333	2,686	273,216	138,874
350,348	2,605	273,074	138,716
351,362	2,612	272,828	138,585
352,377	2,746	272,656	138,607
353,392	2,632	272,658	138,492
354,406	2,760	272,298	138,413
355,421	191,906	1347,743	1429,807
356,435	154,949	1478,875	1429,944
