DTS Sentinel unit serial number:	SN410029Multiplexer serial number:	ORYXHardware model number:	OX2-SRSoftware version number:	ORYX F/W v4,00 Oryx Data Collector v3.7.2.0data status	okinstallation	B4 Nyhavnadifferential loss correction	single-endedforward channel	channel 2reverse channel	N/Adate	2023/12/18time	22:40:13forward acquisition time	300,00reverse acquisition time	0,00gamma	499,1914k internal	0,3124k external	0,3124temperature offset calibration	1,0000default loss term (dB/km)	0,3820temperature slope calibration	1,0000multiplexer offset coefficient	1,0000multiplexer slope coefficient	1,0000fibre end	0,00T internal ref (°C)	21,90T ext. ref 1 (°C)	7,36T ext. ref 2 (°C)	7,45length (m)	temperature (°C)	Stokes	anti-Stokes-744,400	-159,072	0,100	-0,004
-743,385	41,289	-0,226	0,152
-742,371	92,879	0,043	-0,036
-741,356	146,630	-0,207	0,207
-740,342	81,193	0,058	-0,047
-739,327	-112,591	-0,245	0,036
-738,312	800,000	0,084	-0,202
-737,298	-168,622	-0,162	0,005
-736,283	800,000	-0,007	0,018
-735,269	195,583	-0,182	0,206
-734,254	-200,000	-0,058	0,249
-733,239	-127,415	-0,395	-0,042
-732,225	-108,277	-0,068	-0,011
-731,210	-84,835	-0,064	-0,015
-730,196	-200,000	0,004	0,089
-729,181	555,230	0,026	-0,047
-728,167	-200,000	0,022	0,110
-727,152	-200,000	0,012	0,128
-726,137	800,000	-0,038	0,084
-725,123	-35,384	-0,120	0,048
-724,108	800,000	-0,056	-0,165
-723,094	540,567	-0,117	-0,208
-722,079	239,888	0,072	-0,090
-721,064	246,625	0,056	-0,071
-720,050	27,176	-0,093	0,058
-719,035	-45,768	0,051	-0,019
-718,021	5,063	-0,164	-0,089
-717,006	-123,413	0,059	-0,007
-715,991	-90,001	-0,173	-0,037
-714,977	57,331	-0,034	0,024
-713,962	800,000	0,024	0,069
-712,948	-200,000	-0,009	-0,052
-711,933	-94,796	-0,081	0,016
-710,918	257,559	-0,036	0,046
-709,904	-89,591	0,041	0,009
-708,889	-107,022	-0,012	-0,002
-707,875	800,000	0,040	-0,087
-706,860	-200,000	0,032	-0,116
-705,845	-38,748	0,081	0,032
-704,831	684,337	0,034	0,066
-703,816	453,164	-0,051	0,084
-702,802	-200,000	-0,011	0,094
-701,787	275,897	0,039	0,052
-700,772	-200,000	0,036	-0,126
-699,758	-157,579	0,024	-0,001
-698,743	800,000	0,020	-0,048
-697,729	-200,000	0,029	0,104
-696,714	-55,847	0,180	-0,060
-695,699	-200,000	-0,002	0,084
-694,685	-125,956	-0,143	-0,016
-693,670	507,540	-0,042	-0,073
-692,656	221,782	0,029	0,035
-691,641	-200,000	0,007	-0,044
-690,627	-41,698	0,192	-0,073
-689,612	-200,000	-0,012	-0,044
-688,597	-200,000	0,001	0,008
-687,583	229,496	-0,032	-0,038
-686,568	800,000	-0,043	-0,109
-685,554	-59,363	-0,076	0,024
-684,539	-15,107	-0,130	0,062
-683,524	174,749	0,057	-0,061
-682,510	-62,682	-0,032	0,010
-681,495	-74,739	0,132	-0,035
-680,481	-200,000	-0,001	0,103
-679,466	-200,000	0,001	-0,076
-678,451	129,091	-0,051	-0,048
-677,437	18,221	-0,103	-0,061
-676,422	193,058	0,056	0,063
-675,408	-200,000	0,003	0,094
-674,393	105,582	-0,044	-0,038
-673,378	55,338	-0,113	0,081
-672,364	79,527	-0,120	-0,095
-671,349	-56,133	-0,045	-0,015
-670,335	180,202	-0,056	0,061
-669,320	-132,253	0,088	-0,008
-668,305	800,000	0,039	0,085
-667,291	141,290	-0,018	0,017
-666,276	-200,000	0,018	-0,121
-665,262	-200,000	-0,004	-0,017
-664,247	-200,000	0,024	-0,171
-663,232	800,000	0,022	-0,068
-662,218	167,354	-0,009	-0,010
-661,203	-200,000	0,003	0,098
-660,189	154,631	-0,043	0,044
-659,174	-166,288	-0,139	0,004
-658,159	-18,108	-0,256	-0,119
-657,145	-30,056	0,055	0,023
-656,130	-200,000	-0,015	-0,059
-655,116	-200,000	0,003	-0,024
-654,101	359,571	-0,055	-0,082
-653,086	-200,000	0,005	-0,068
-652,072	-178,392	-0,068	0,001
-651,057	408,893	0,114	-0,180
-650,043	800,000	-0,028	-0,059
-649,028	800,000	-0,048	-0,120
-648,014	399,431	0,062	0,097
-646,999	-200,000	-0,023	-0,100
-645,984	-53,295	-0,046	-0,015
-644,970	-145,299	-0,109	-0,007
-643,955	402,807	-0,042	0,065
-642,941	-182,376	0,020	0,000
-641,926	-8,235	-0,046	-0,023
-640,911	-200,000	0,007	-0,081
-639,897	-200,000	-0,016	0,056
-638,882	-137,954	0,109	-0,009
-637,868	-200,000	-0,018	-0,091
-636,853	-200,000	0,037	-0,189
-635,838	-155,452	0,107	0,005
-634,824	50,427	-0,093	-0,065
-633,809	-13,018	0,093	-0,045
-632,795	564,180	0,054	-0,097
-631,780	800,000	0,038	-0,094
-630,765	32,774	-0,155	-0,099
-629,751	-81,468	-0,067	-0,016
-628,736	-145,697	-0,100	-0,007
-627,722	428,034	-0,067	0,107
-626,707	-200,000	-0,013	0,075
-625,692	76,346	-0,057	0,044
-624,678	-200,000	-0,014	-0,119
-623,663	-7,584	0,075	0,037
-622,649	-200,000	0,044	-0,154
-621,634	196,052	-0,061	-0,068
-620,619	-102,057	-0,120	-0,021
-619,605	58,758	0,021	0,015
-618,590	-50,946	0,030	-0,010
-617,576	-86,966	-0,057	0,013
-616,561	54,260	-0,091	-0,065
-615,546	-99,358	0,023	-0,004
-614,532	800,000	0,052	-0,147
-613,517	-0,153	0,125	-0,066
-612,503	-200,000	0,041	-0,152
-611,488	800,000	0,045	0,123
-610,474	-78,980	0,099	0,025
-609,459	800,000	-0,038	0,107
-608,444	-154,586	-0,063	-0,003
-607,430	-200,000	-0,043	-0,147
-606,415	186,872	-0,046	-0,051
-605,401	100,292	0,153	-0,131
-604,386	91,084	0,009	-0,007
-603,371	800,000	0,039	-0,088
-602,357	-128,826	-0,026	-0,003
-601,342	192,345	-0,112	-0,125
-600,328	800,000	-0,022	0,053
-599,313	-200,000	0,009	-0,287
-598,298	-200,000	0,014	-0,045
-597,284	-200,000	0,017	0,071
-596,269	800,000	-0,045	-0,127
-595,255	-153,343	0,018	-0,001
-594,240	-200,000	0,004	0,138
-593,225	59,953	-0,067	0,049
-592,211	-136,659	0,109	0,009
-591,196	800,000	0,078	-0,227
-590,182	800,000	0,032	0,102
-589,167	-110,002	0,096	-0,015
-588,152	619,611	0,060	0,112
-587,138	800,000	-0,009	-0,022
-586,123	219,531	0,060	-0,071
-585,109	800,000	-0,097	-0,257
-584,094	151,673	-0,126	-0,127
-583,079	-7,816	-0,092	0,046
-582,065	64,647	-0,044	0,033
-581,050	-51,117	0,044	0,015
-580,036	17,086	-0,102	-0,060
-579,021	-17,009	-0,009	-0,004
-578,006	378,614	-0,029	-0,044
-576,992	-170,832	0,129	0,003
-575,977	-31,986	-0,075	-0,031
-574,963	446,317	0,047	0,077
-573,948	-78,957	0,171	0,043
-572,934	145,946	-0,081	-0,081
-571,919	-82,230	-0,120	-0,029
-570,904	85,903	0,097	0,079
-569,890	-39,048	0,068	0,026
-568,875	-200,000	0,008	-0,032
-567,861	-87,387	0,094	0,021
-566,846	-200,000	-0,018	-0,123
-565,831	135,693	0,022	0,021
-564,817	-32,290	0,064	-0,026
-563,802	502,467	-0,038	-0,065
-562,788	-200,000	0,005	0,089
-561,773	244,284	0,038	-0,048
-560,758	50,521	-0,093	0,065
-559,744	45,520	-0,049	0,034
-558,729	52,181	0,081	-0,057
-557,715	-74,216	-0,101	0,027
-556,700	-200,000	-0,056	-0,191
-555,685	-186,998	-0,136	-0,001
-554,671	163,331	0,035	0,036
-553,656	-22,180	-0,117	0,052
-552,642	-200,000	-0,027	0,146
-551,627	-200,000	0,003	-0,109
-550,612	107,677	-0,094	-0,083
-549,598	493,652	0,036	-0,061
-548,583	-29,507	-0,074	0,031
-547,569	333,842	0,020	0,029
-546,554	-200,000	0,011	0,067
-545,539	-200,000	-0,046	0,171
-544,525	-95,381	0,022	0,004
-543,510	800,000	-0,036	-0,085
-542,496	607,566	0,048	-0,089
-541,481	-200,000	-0,045	-0,240
-540,466	-200,000	0,020	0,108
-539,452	-200,000	-0,008	0,119
-538,437	-54,022	0,077	0,026
-537,423	369,208	0,059	-0,088
-536,408	581,470	-0,019	-0,035
-535,393	-84,634	-0,162	-0,038
-534,379	-200,000	-0,010	-0,056
-533,364	12,628	0,147	0,084
-532,350	800,000	0,030	-0,066
-531,335	125,415	0,037	-0,035
-530,321	-200,000	0,017	0,057
-529,306	-25,694	0,020	-0,009
-528,291	800,000	-0,046	-0,136
-527,277	101,361	-0,065	-0,056
-526,262	-132,655	0,055	0,005
-525,248	492,373	0,045	-0,077
-524,233	-19,059	0,060	-0,027
-523,218	-59,753	0,073	-0,023
-522,204	16,889	0,103	-0,060
-521,189	32,182	-0,057	-0,036
-520,175	-200,000	0,014	0,051
-519,160	-22,327	-0,108	0,048
-518,145	-200,000	-0,007	-0,045
-517,131	-200,000	-0,008	-0,062
-516,116	-19,352	0,007	-0,003
-515,102	9,911	-0,111	0,062
-514,087	106,707	0,046	-0,041
-513,072	737,329	-0,071	-0,141
-512,058	-190,027	-0,144	0,001
-511,043	170,861	-0,042	0,045
-510,029	-155,446	-0,031	-0,001
-509,014	-51,192	-0,015	-0,005
-507,999	296,617	-0,120	0,163
-506,985	362,548	-0,030	0,045
-505,970	-200,000	-0,002	-0,085
-504,956	-200,000	-0,031	-0,150
-503,941	-132,724	0,173	0,016
-502,926	-200,000	0,013	0,172
-501,912	800,000	-0,045	0,126
-500,897	800,000	0,059	0,134
-499,883	40,287	-0,037	-0,024
-498,868	800,000	-0,024	-0,071
-497,853	-42,890	-0,079	0,029
-496,839	-105,349	0,161	-0,027
-495,824	-99,482	0,042	-0,008
-494,810	135,896	-0,024	-0,023
-493,795	-200,000	0,004	-0,051
-492,781	-103,505	0,088	0,015
-491,766	123,731	-0,101	-0,094
-490,751	468,479	0,035	-0,058
-489,737	227,384	0,075	-0,090
-488,722	96,140	-0,088	-0,074
-487,708	-200,000	-0,004	-0,185
-486,693	80,545	-0,079	0,063
-485,678	-40,609	-0,055	-0,021
-484,664	185,782	0,060	0,066
-483,649	-79,857	-0,173	0,043
-482,635	-110,689	-0,172	-0,026
-481,620	-105,996	-0,067	-0,011
-480,605	462,918	0,056	-0,093
-479,591	734,036	0,059	-0,118
-478,576	-174,810	0,151	-0,003
-477,562	800,000	-0,021	-0,067
-476,547	-200,000	-0,018	0,069
-475,532	-64,013	-0,136	-0,041
-474,518	800,000	-0,033	0,075
-473,503	470,243	0,033	0,055
-472,489	-7,750	-0,046	-0,023
-471,474	800,000	-0,037	0,119
-470,459	-56,538	-0,080	0,026
-469,445	-88,170	-0,028	0,006
-468,430	96,794	0,122	0,103
-467,416	-7,242	0,027	-0,014
-466,401	-200,000	0,025	0,093
-465,386	772,086	-0,080	0,161
-464,372	414,063	0,042	0,066
-463,357	-200,000	0,030	-0,103
-462,343	800,000	-0,013	0,036
-461,328	55,304	-0,038	0,027
-460,313	-23,606	0,142	0,062
-459,299	-60,506	0,166	0,052
-458,284	518,657	-0,033	-0,058
-457,270	80,875	-0,080	0,064
-456,255	-200,000	-0,008	0,068
-455,241	22,831	-0,130	-0,078
-454,226	-200,000	0,009	0,066
-453,211	-200,000	0,028	0,130
-452,197	-16,344	-0,104	-0,048
-451,182	-200,000	0,000	-0,056
-450,168	-200,000	0,005	0,135
-449,153	751,781	0,067	-0,134
-448,138	13,667	-0,063	0,036
-447,124	87,396	0,057	-0,046
-446,109	-78,462	-0,063	-0,016
-445,095	800,000	0,042	0,115
-444,080	-200,000	-0,010	-0,100
-443,065	65,276	-0,018	-0,013
-442,051	315,307	0,128	0,179
-441,036	365,110	-0,058	-0,087
-440,022	-95,015	0,098	0,019
-439,007	277,477	0,052	0,069
-437,992	119,669	-0,093	0,085
-436,978	-114,884	0,047	-0,007
-435,963	-122,308	0,012	-0,001
-434,949	800,000	0,009	0,021
-433,934	800,000	-0,020	-0,048
-432,919	-47,579	-0,100	0,036
-431,905	81,651	-0,136	0,108
-430,890	-26,127	0,028	0,012
-429,876	800,000	0,006	-0,019
-428,861	-83,283	0,086	-0,020
-427,846	29,961	0,112	-0,070
-426,832	80,349	-0,031	0,025
-425,817	-150,573	-0,054	-0,003
-424,803	-173,000	-0,152	-0,003
-423,788	-49,377	-0,096	0,034
-422,773	-74,125	-0,071	0,019
-421,759	-3,470	-0,035	0,018
-420,744	800,000	0,017	0,037
-419,730	430,475	-0,067	-0,107
-418,715	800,000	0,053	0,146
-417,701	157,970	0,093	-0,095
-416,686	-4,506	0,106	-0,054
-415,671	-5,260	0,097	0,049
-414,657	86,365	-0,063	0,051
-413,642	-200,000	0,011	0,052
-412,628	800,000	-0,020	0,048
-411,613	800,000	-0,030	-0,085
-410,598	250,927	-0,027	0,033
-409,584	-200,000	0,028	0,125
-408,569	-200,000	-0,044	0,152
-407,555	-88,560	-0,090	0,020
-406,540	-31,684	0,132	-0,054
-405,525	424,180	-0,101	-0,161
-404,511	313,144	-0,061	-0,085
-403,496	77,624	0,153	0,120
-402,482	768,033	0,048	0,096
-401,467	-200,000	0,008	0,106
-400,452	-138,811	0,050	0,004
-399,438	-200,000	0,024	0,097
-398,423	-200,000	-0,002	0,022
-397,409	508,071	0,088	-0,151
-396,394	-59,697	0,065	-0,020
-395,379	-24,044	-0,031	-0,014
-394,365	80,925	0,066	-0,053
-393,350	540,294	0,054	0,095
-392,336	800,000	-0,045	-0,113
-391,321	-44,438	0,063	-0,023
-390,306	250,554	0,057	-0,071
-389,292	-0,563	0,060	0,031
-388,277	220,126	-0,061	0,072
-387,263	694,392	0,065	-0,126
-386,248	-21,134	0,037	0,017
-385,233	327,598	-0,084	-0,119
-384,219	10,454	-0,097	0,054
-383,204	535,999	-0,036	0,063
-382,190	416,075	-0,047	-0,073
-381,175	800,000	0,041	0,102
-380,160	-200,000	-0,026	0,106
-379,146	-2,399	-0,015	0,008
-378,131	465,644	-0,044	0,072
-377,117	-119,215	0,057	0,007
-376,102	800,000	-0,056	-0,121
-375,088	-200,000	-0,027	-0,098
-374,073	-148,286	-0,069	-0,004
-373,058	800,000	0,020	-0,061
-372,044	177,711	0,191	0,205
-371,029	115,983	0,121	0,109
-370,015	800,000	-0,046	0,135
-369,000	210,333	-0,106	0,122
-367,985	159,736	-0,135	0,138
-366,971	-200,000	-0,022	-0,090
-365,956	-52,778	0,095	0,032
-364,942	-58,203	0,047	0,015
-363,927	781,830	0,022	-0,045
-362,912	432,665	0,024	-0,038
-361,898	-138,258	0,061	-0,005
-360,883	232,902	-0,043	0,052
-359,869	-75,421	0,130	0,034
-358,854	800,000	-0,040	0,101
-357,839	-200,000	-0,009	0,089
-356,825	169,507	0,032	-0,034
-355,810	-200,000	-0,031	-0,103
-354,796	-200,000	-0,005	-0,036
-353,781	-117,896	-0,054	0,007
-352,766	111,121	-0,050	-0,044
-351,752	-9,090	-0,130	-0,064
-350,737	238,494	-0,061	0,075
-349,723	215,739	0,044	0,051
-348,708	149,824	0,078	0,078
-347,693	-200,000	-0,003	0,039
-346,679	-35,758	-0,038	-0,015
-345,664	-38,309	0,077	-0,030
-344,650	-151,925	0,118	-0,006
-343,635	-200,000	-0,013	-0,182
-342,620	-200,000	-0,001	0,032
-341,606	365,467	-0,082	0,121
-340,591	-200,000	-0,042	0,000
-339,577	-130,410	0,048	0,005
-338,562	-200,000	0,012	-0,050
-337,548	292,315	0,027	0,037
-336,533	-68,402	0,127	-0,036
-335,518	84,760	-0,110	0,088
-334,504	21,992	0,077	-0,046
-333,489	-200,000	-0,034	0,200
-332,475	-98,196	-0,124	-0,023
-331,460	593,360	-0,049	-0,089
-330,445	800,000	-0,031	-0,067
-329,431	-197,741	0,157	-0,001
-328,416	-47,526	0,024	-0,008
-327,402	-200,000	0,003	0,033
-326,387	146,833	-0,029	0,028
-325,372	5,089	-0,124	0,067
-324,358	-10,425	-0,153	-0,074
-323,343	800,000	0,024	0,067
-322,329	-126,686	0,166	-0,018
-321,314	-11,040	0,081	0,039
-320,299	-200,000	0,001	0,087
-319,285	-200,000	0,003	-0,030
-318,270	249,363	-0,077	0,096
-317,256	56,463	-0,075	-0,054
-316,241	783,402	-0,070	-0,141
-315,226	-64,025	0,122	0,036
-314,212	-68,597	-0,056	0,016
-313,197	135,427	-0,077	-0,073
-312,183	62,503	-0,121	0,089
-311,168	-111,069	-0,017	0,003
-310,153	-105,152	-0,154	-0,026
-309,139	76,981	0,032	0,025
-308,124	411,159	-0,016	-0,025
-307,110	-200,000	0,014	0,074
-306,095	108,190	0,025	-0,022
-305,080	247,882	0,032	-0,039
-304,066	800,000	-0,011	0,028
-303,051	-3,255	-0,068	0,035
-302,037	50,337	0,092	0,064
-301,022	-102,365	0,118	0,021
-300,008	-4,607	-0,052	0,026
-298,993	3,557	-0,048	0,026
-297,978	800,000	-0,051	0,109
-296,964	251,512	-0,055	-0,069
-295,949	113,192	0,079	-0,071
-294,935	-99,095	-0,024	-0,004
-293,920	-200,000	0,001	-0,059
-292,905	120,183	0,085	-0,078
-291,891	21,639	0,074	-0,044
-290,876	-109,141	-0,042	-0,007
-289,862	800,000	0,038	-0,099
-288,847	241,998	0,050	0,061
-287,832	-105,706	-0,135	0,022
-286,818	345,945	0,081	-0,117
-285,803	56,191	0,059	0,042
-284,789	-200,000	0,003	-0,018
-283,774	2,155	-0,063	0,033
-282,759	40,518	0,080	0,052
-281,745	800,000	-0,055	0,135
-280,730	800,000	-0,010	-0,029
-279,716	800,000	-0,020	-0,053
-278,701	390,935	-0,026	0,039
-277,686	125,029	0,063	-0,058
-276,672	-12,265	0,124	0,059
-275,657	392,295	-0,018	0,027
-274,643	-109,868	-0,045	0,007
-273,628	150,636	0,048	0,048
-272,613	800,000	0,053	0,143
-271,599	-200,000	0,029	0,109
-270,584	43,469	-0,045	-0,030
-269,570	-200,000	-0,004	0,036
-268,555	-96,072	-0,100	0,019
-267,540	-200,000	0,032	-0,128
-266,526	-200,000	-0,036	-0,135
-265,511	800,000	0,040	-0,111
-264,497	-45,995	-0,130	0,047
-263,482	-200,000	0,007	0,127
-262,467	-160,635	-0,070	0,003
-261,453	353,067	0,073	0,106
-260,438	-44,878	-0,068	0,024
-259,424	81,521	-0,058	0,046
-258,409	800,000	-0,053	-0,128
-257,395	-1,566	0,060	0,031
-256,380	800,000	-0,019	-0,059
-255,365	-200,000	0,004	0,113
-254,351	101,082	0,024	-0,020
-253,336	-200,000	-0,010	0,072
-252,322	7,289	0,037	-0,020
-251,307	35,174	0,074	0,047
-250,292	90,410	0,053	-0,043
-249,278	-106,389	0,179	0,029
-248,263	-200,000	0,004	0,073
-247,249	13,352	-0,132	0,074
-246,234	-200,000	0,005	0,073
-245,219	-51,814	-0,127	-0,043
-244,205	-200,000	-0,017	-0,120
-243,190	-143,367	0,123	0,008
-242,176	167,325	-0,039	-0,040
-241,161	127,144	0,138	0,128
-240,146	-200,000	-0,000	-0,122
-239,132	88,228	0,159	0,129
-238,117	78,572	-0,076	-0,059
-237,103	-200,000	-0,019	-0,111
-236,088	146,708	0,128	0,125
-235,073	236,666	-0,088	0,107
-234,059	-75,878	-0,129	0,033
-233,044	195,674	-0,046	0,051
-232,030	-200,000	-0,003	0,055
-231,015	20,532	-0,141	-0,083
-230,000	800,000	0,054	-0,144
-228,986	-200,000	0,014	-0,105
-227,971	-55,284	0,077	0,025
-226,957	-200,000	0,029	0,107
-225,942	-112,404	0,022	0,003
-224,927	29,648	0,060	-0,037
-223,913	-0,756	-0,120	-0,062
-222,898	-15,943	-0,077	-0,036
-221,884	-200,000	0,004	0,066
-220,869	501,412	-0,037	0,063
-219,855	691,859	-0,030	-0,057
-218,840	800,000	0,031	0,076
-217,825	37,499	0,111	0,072
-216,811	-3,520	0,063	0,032
-215,796	-200,000	-0,018	0,093
-214,782	800,000	-0,028	0,062
-213,767	9,204	-0,056	0,031
-212,752	-181,625	0,137	-0,002
-211,738	-200,000	-0,013	0,159
-210,723	-200,000	-0,002	0,074
-209,709	350,189	-0,014	-0,020
-208,694	558,123	-0,060	-0,107
-207,679	-200,000	-0,001	-0,078
-206,665	-200,000	-0,001	0,064
-205,650	245,416	0,093	-0,115
-204,636	-200,000	0,023	0,075
-203,621	702,914	0,099	0,191
-202,606	109,614	-0,098	0,086
-201,592	51,479	-0,088	-0,061
-200,577	-103,504	0,085	0,014
-199,563	-83,733	0,121	-0,028
-198,548	-125,110	0,024	-0,003
-197,533	700,094	0,023	0,045
-196,519	270,782	0,113	0,145
-195,504	-200,000	0,035	-0,149
-194,490	-112,077	0,102	0,015
-193,475	747,383	-0,049	-0,096
-192,460	-2,143	0,099	0,051
-191,446	609,078	-0,046	0,084
-190,431	-200,000	0,005	0,106
-189,417	-28,017	0,086	0,036
-188,402	196,517	-0,032	-0,036
-187,387	-200,000	-0,000	-0,048
-186,373	-52,811	0,035	-0,012
-185,358	95,793	0,107	0,089
-184,344	-132,447	0,027	-0,003
-183,329	-200,000	-0,019	-0,076
-182,315	214,832	0,082	0,095
-181,300	-106,572	0,062	0,010
-180,285	33,111	-0,060	0,038
-179,271	-200,000	0,014	-0,107
-178,256	-200,000	-0,004	-0,017
-177,242	-16,173	-0,107	0,050
-176,227	160,390	0,115	-0,117
-175,212	-200,000	0,001	0,027
-174,198	592,935	-0,016	-0,029
-173,183	-29,168	0,041	0,017
-172,169	175,308	-0,065	-0,069
-171,154	345,759	-0,039	-0,055
-170,139	-200,000	0,005	-0,035
-169,125	-200,000	0,003	0,091
-168,110	-40,795	0,133	0,050
-167,096	291,719	-0,051	-0,068
-166,081	-200,000	0,003	-0,092
-165,066	-92,756	-0,093	0,019
-164,052	-200,000	0,010	-0,098
-163,037	-25,270	0,023	0,010
-162,023	278,394	-0,076	-0,099
-161,008	1,446	0,177	0,092
-159,993	-28,048	0,103	-0,043
-158,979	250,106	-0,020	0,024
-157,964	-73,973	-0,140	0,037
-156,950	-200,000	0,025	0,144
-155,935	-200,000	0,005	-0,129
-154,920	461,704	0,038	-0,063
-153,906	12,820	0,154	0,086
-152,891	800,000	-0,081	0,227
-151,877	800,000	0,038	0,082
-150,862	-37,149	-0,016	0,006
-149,847	-136,285	-0,083	-0,007
-148,833	-91,712	0,119	0,024
-147,818	120,278	-0,101	0,091
-146,804	-152,161	-0,092	-0,005
-145,789	581,467	-0,050	-0,089
-144,775	800,000	0,035	-0,102
-143,760	56,234	-0,124	-0,088
-142,745	-68,311	0,117	-0,033
-141,731	147,300	-0,037	0,036
-140,716	52,169	0,106	0,073
-139,702	-200,000	0,008	0,100
-138,687	-148,925	0,138	0,008
-137,672	-49,955	-0,124	0,043
-136,658	337,168	-0,068	0,096
-135,643	800,000	0,006	0,013
-134,629	9,162	-0,010	-0,006
-133,614	-200,000	0,039	-0,138
-132,599	27,938	0,128	-0,078
-131,585	-200,000	0,007	0,077
-130,570	-104,097	0,121	0,020
-129,556	800,000	-0,041	0,101
-128,541	112,944	-0,118	0,104
-127,526	89,028	-0,041	-0,033
-126,512	753,194	0,081	-0,160
-125,497	108,205	0,150	0,130
-124,483	373,750	0,082	0,121
-123,468	178,739	-0,031	0,033
-122,453	455,588	0,070	0,113
-121,439	-13,455	0,066	-0,031
-120,424	-200,000	-0,046	-0,159
-119,410	125,105	0,087	-0,080
-118,395	593,276	0,028	-0,051
-117,380	52,634	-0,046	-0,032
-116,366	-33,196	-0,061	-0,025
-115,351	-82,405	0,039	-0,009
-114,337	16,716	0,109	0,063
-113,322	800,000	-0,028	0,064
-112,307	599,154	0,065	0,119
-111,293	-88,795	-0,125	0,027
-110,278	100,136	-0,047	-0,040
-109,264	-146,835	0,067	0,004
-108,249	800,000	-0,038	-0,103
-107,234	-200,000	0,003	-0,097
-106,220	-76,784	0,080	-0,020
-105,205	800,000	-0,063	0,171
-104,191	800,000	-0,033	-0,096
-103,176	39,446	0,125	0,081
-102,162	-200,000	-0,011	-0,194
-101,147	113,530	0,070	-0,062
-100,132	185,879	0,069	0,075
-99,118	4,453	0,049	-0,026
-98,103	722,480	-0,031	-0,061
-97,089	-200,000	-0,007	0,144
-96,074	409,136	-0,029	0,045
-95,059	800,000	-0,044	0,119
-94,045	-74,039	0,045	0,012
-93,030	162,861	0,050	0,051
-92,016	69,411	-0,071	-0,053
-91,001	-200,000	-0,007	0,128
-89,986	-200,000	0,006	0,113
-88,972	-93,025	0,087	-0,017
-87,957	-162,477	-0,048	0,002
-86,943	-200,000	-0,082	0,000
-85,928	-200,000	0,012	0,046
-84,913	-19,186	0,025	0,011
-83,899	410,694	-0,070	-0,108
-82,884	800,000	0,009	-0,023
-81,870	103,955	-0,050	0,043
-80,855	-24,607	-0,017	0,007
-79,840	800,000	-0,018	0,038
-78,826	800,000	-0,083	-0,217
-77,811	163,661	0,027	-0,028
-76,797	208,667	0,063	-0,072
-75,782	529,866	-0,047	0,081
-74,767	-200,000	0,026	0,106
-73,753	-200,000	0,012	0,113
-72,738	-10,247	0,013	0,006
-71,724	192,934	-0,121	-0,133
-70,709	-29,764	-0,113	-0,046
-69,694	748,389	0,063	-0,124
-68,680	-94,878	0,030	-0,006
-67,665	-129,731	0,117	-0,012
-66,651	58,331	0,021	0,015
-65,636	800,000	0,023	-0,062
-64,622	373,193	0,091	-0,134
-63,607	-200,000	-0,032	-0,162
-62,592	-200,000	-0,014	-0,118
-61,578	339,036	-0,031	0,043
-60,563	660,368	0,029	-0,054
-59,549	-200,000	-0,031	0,118
-58,534	-112,804	-1,360	-0,194
-57,519	571,995	-0,760	-1,348
-56,505	-200,000	-0,827	-4,303
-55,490	-37,773	0,570	-0,219
-54,476	800,000	4,897	11,657
-53,461	-200,000	14,121	252,480
-52,446	-200,000	694,069	2259,465
-51,432	599,222	1623,902	2934,396
-50,417	117,575	1632,808	1457,251
-49,403	73,572	1286,782	976,495
-48,388	37,452	1023,065	656,656
-47,373	23,960	981,349	585,523
-46,359	23,129	971,083	576,651
-45,344	22,171	966,501	570,779
-44,330	22,076	965,198	569,676
-43,315	21,947	963,738	568,371
-42,300	21,951	962,701	567,752
-41,286	21,928	961,847	567,149
-40,271	21,957	960,694	566,541
-39,257	21,960	959,578	565,871
-38,242	21,901	958,925	565,272
-37,227	21,885	958,112	564,718
-36,213	21,928	956,963	564,159
-35,198	21,874	956,158	563,486
-34,184	21,924	955,612	563,303
-33,169	21,898	954,699	562,661
-32,154	21,964	953,785	562,311
-31,140	21,951	953,050	561,814
-30,125	21,947	952,233	561,296
-29,111	21,918	951,442	560,714
-28,096	21,954	950,632	560,330
-27,082	21,899	950,058	559,796
-26,067	21,907	949,108	559,237
-25,052	21,947	948,519	558,996
-24,038	22,021	947,641	558,696
-23,023	21,951	947,047	558,096
-22,009	21,976	946,499	557,833
-20,994	21,965	945,760	557,340
-19,979	21,930	945,221	556,890
-18,965	21,965	944,646	556,639
-17,950	21,927	943,980	556,102
-16,936	21,841	943,271	555,391
-15,921	21,910	942,557	555,166
-14,906	21,795	941,838	554,355
-13,892	21,871	941,295	554,255
-12,877	21,828	940,756	553,780
-11,863	21,726	940,097	553,045
-10,848	21,763	939,520	552,802
-9,833	22,004	938,893	553,174
-8,819	21,896	938,649	552,668
-7,804	21,834	937,682	551,879
-6,790	21,822	937,328	551,612
-5,775	21,882	936,460	551,270
-4,760	21,882	935,744	550,824
-3,746	21,800	935,456	550,376
-2,731	21,716	934,630	549,600
-1,717	21,687	933,861	549,035
-0,702	21,666	933,108	548,506
0,313	21,488	932,584	548,465
1,327	23,920	930,263	554,691
2,342	31,538	808,674	502,838
3,356	26,525	509,244	308,061
4,371	2,395	374,177	195,613
5,386	-0,528	357,219	183,138
6,400	-1,875	351,176	178,396
7,415	-2,723	348,189	175,844
8,429	-2,750	346,692	175,041
9,444	-2,936	345,889	174,397
10,459	-2,959	345,146	173,980
11,473	-2,817	344,429	173,772
12,488	-2,967	343,958	173,341
13,502	-2,942	343,435	173,092
14,517	-2,969	342,945	172,797
15,531	-2,866	342,422	172,641
16,546	-2,719	341,807	172,488
17,561	-2,867	341,407	172,096
18,575	-2,895	341,173	171,930
19,590	-2,903	340,575	171,604
20,604	-2,853	340,523	171,621
21,619	-2,946	340,008	171,237
22,634	-2,755	339,656	171,268
23,648	-2,791	339,347	171,054
24,663	-2,882	338,960	170,739
25,677	-2,800	338,729	170,702
26,692	-2,814	338,452	170,531
27,707	-2,841	338,093	170,304
28,721	-2,814	337,772	170,158
29,736	-2,837	337,541	170,001
30,750	-2,865	337,008	169,684
31,765	-2,941	336,964	169,560
32,780	-2,764	336,525	169,528
33,794	-2,809	336,348	169,372
34,809	-2,750	335,952	169,225
35,823	-2,886	335,878	169,016
36,838	-2,791	335,503	168,922
37,853	-2,741	335,163	168,793
38,867	-2,728	334,958	168,690
39,882	-2,792	334,651	168,447
40,896	-2,737	334,408	168,373
41,911	-2,711	334,105	168,234
42,926	-2,846	333,892	167,958
43,940	-2,858	333,673	167,818
44,955	-2,844	333,395	167,680
45,969	-2,942	333,129	167,419
46,984	-2,939	332,888	167,286
47,999	-2,941	332,719	167,184
49,013	-2,830	332,232	167,052
50,028	-2,824	331,928	166,890
51,042	-2,960	331,854	166,683
52,057	-2,877	331,490	166,579
53,071	-3,018	331,173	166,245
54,086	-2,826	330,908	166,316
55,101	-2,837	330,782	166,225
56,115	-2,838	330,567	166,101
57,130	-2,725	330,091	165,975
58,144	-2,806	329,951	165,798
59,159	-2,776	329,586	165,633
60,174	-2,729	329,413	165,585
61,188	-2,871	329,233	165,320
62,203	-2,847	328,869	165,149
63,217	-2,737	328,494	165,070
64,232	-2,799	328,319	164,897
65,247	-2,828	328,148	164,764
66,261	-2,765	327,806	164,648
67,276	-2,695	327,415	164,516
68,290	-2,849	327,325	164,284
69,305	-2,747	327,054	164,247
70,320	-2,730	326,850	164,149
71,334	-2,713	326,569	164,013
72,349	-2,724	326,409	163,905
73,363	-2,882	326,266	163,642
74,378	-2,839	325,807	163,446
75,393	-2,716	325,586	163,458
76,407	-2,897	325,338	163,116
77,422	-2,641	325,150	163,293
78,436	-2,641	324,823	163,114
79,451	-2,721	324,539	162,868
80,466	-2,822	324,312	162,627
81,480	-2,869	324,023	162,415
82,495	-2,863	323,831	162,312
83,509	-2,800	323,675	162,289
84,524	-2,781	323,355	162,134
85,539	-2,690	323,008	162,047
86,553	-2,662	322,796	161,957
87,568	-2,765	322,463	161,662
88,582	-2,922	322,307	161,396
89,597	-2,718	322,048	161,477
90,611	-2,734	321,869	161,356
91,626	-2,758	321,687	161,223
92,641	-2,786	321,515	161,091
93,655	-2,696	321,155	160,996
94,670	-2,871	320,994	160,709
95,684	-2,766	320,709	160,667
96,699	-2,885	320,523	160,429
97,714	-2,773	320,343	160,446
98,728	-2,791	320,074	160,279
99,743	-2,969	319,952	160,008
100,757	-2,877	319,553	159,895
101,772	-2,821	319,454	159,893
102,787	-2,855	319,222	159,725
103,801	-2,775	318,879	159,626
104,816	-2,969	318,745	159,333
105,830	-2,708	318,538	159,500
106,845	-2,705	318,197	159,318
107,860	-2,822	318,019	159,088
108,874	-2,668	317,735	159,099
109,889	-2,772	317,455	158,831
110,903	-2,835	317,176	158,609
111,918	-2,798	317,088	158,591
112,933	-2,742	316,900	158,543
113,947	-2,720	316,536	158,371
114,962	-2,878	316,546	158,191
115,976	-2,841	316,196	158,043
116,991	-2,717	315,926	158,028
118,006	-2,760	315,741	157,874
119,020	-2,672	315,568	157,869
120,035	-2,796	315,415	157,645
121,049	-2,669	315,268	157,693
122,064	-2,700	314,982	157,503
123,079	-2,776	314,682	157,258
124,093	-2,928	314,557	157,018
125,108	-2,992	314,308	156,810
126,122	-2,867	314,207	156,880
127,137	-2,907	313,836	156,639
128,151	-2,752	313,515	156,630
129,166	-2,792	313,182	156,406
130,181	-2,779	313,080	156,356
131,195	-2,775	312,861	156,237
132,210	-2,770	312,664	156,129
133,224	-2,747	312,343	155,980
134,239	-2,773	312,323	155,929
135,254	-2,648	311,936	155,854
136,268	-2,727	311,685	155,631
137,283	-2,642	311,466	155,598
138,297	-2,671	311,208	155,424
139,312	-2,760	310,986	155,205
140,327	-2,850	310,883	155,045
141,341	-2,761	310,659	155,014
142,356	-2,822	310,583	154,897
143,370	-2,696	310,213	154,832
144,385	-2,663	309,935	154,714
145,400	-2,556	309,783	154,737
146,414	-2,613	309,436	154,491
147,429	-2,820	309,437	154,259
148,443	-2,797	309,252	154,177
149,458	-2,816	308,947	153,992
150,473	-2,658	308,622	153,982
151,487	-2,779	308,371	153,715
152,502	-2,573	308,182	153,823
153,516	-2,584	308,074	153,745
154,531	-2,648	307,801	153,528
155,546	-2,634	307,545	153,401
156,560	-2,718	307,459	153,256
157,575	-2,723	307,229	153,123
158,589	-2,883	307,028	152,842
159,604	-2,671	306,669	152,871
160,619	-2,664	306,459	152,759
161,633	-2,773	306,282	152,544
162,648	-2,730	306,095	152,482
163,662	-2,654	305,958	152,480
164,677	-2,753	305,674	152,222
165,692	-2,737	305,581	152,179
166,706	-2,622	305,314	152,151
167,721	-2,656	305,086	151,988
168,735	-2,663	304,894	151,872
169,750	-2,700	304,697	151,723
170,764	-2,551	304,632	151,830
171,779	-2,698	304,328	151,514
172,794	-2,615	304,194	151,519
173,808	-2,711	304,021	151,320
174,823	-2,936	303,816	150,972
175,837	-2,708	303,536	151,055
176,852	-2,631	303,162	150,934
177,867	-2,632	303,148	150,914
178,881	-2,649	302,984	150,801
179,896	-2,609	302,660	150,667
180,910	-2,702	302,493	150,475
181,925	-2,653	302,316	150,424
182,940	-2,715	301,930	150,155
183,954	-2,574	301,814	150,228
184,969	-2,600	301,745	150,154
185,983	-2,591	301,591	150,073
186,998	-2,524	301,261	149,963
188,013	-2,661	301,215	149,788
189,027	-2,607	300,865	149,656
190,042	-2,476	300,521	149,605
191,056	-2,547	300,505	149,510
192,071	-2,580	300,345	149,384
193,086	-2,674	300,050	149,128
194,100	-2,595	299,804	149,073
195,115	-2,515	299,680	149,079
196,129	-2,733	299,419	148,715
197,144	-2,684	299,186	148,636
198,159	-2,527	298,967	148,673
199,173	-2,734	298,785	148,360
200,188	-2,586	298,445	148,327
201,202	-2,528	298,269	148,285
202,217	-2,588	298,058	148,107
203,232	-2,788	297,878	147,802
204,246	-2,594	297,608	147,850
205,261	-2,586	297,517	147,800
206,275	-2,627	297,194	147,585
207,290	-2,590	297,070	147,548
208,304	-2,624	296,928	147,430
209,319	-2,526	296,752	147,427
210,334	-2,627	296,605	147,240
211,348	-2,685	296,331	147,033
212,363	-2,572	296,143	147,039
213,377	-2,596	296,103	146,982
214,392	-2,616	295,836	146,817
215,407	-2,523	295,462	146,711
216,421	-2,544	295,402	146,647
217,436	-2,695	295,165	146,366
218,450	-2,768	294,987	146,192
219,465	-2,514	294,889	146,383
220,480	-2,525	294,574	146,203
221,494	-2,557	294,367	146,055
222,509	-2,660	294,336	145,924
223,523	-2,505	294,014	145,905
224,538	-2,497	293,774	145,781
225,553	-2,510	293,667	145,703
226,567	-2,504	293,455	145,590
227,582	-2,613	293,311	145,398
228,596	-2,669	293,133	145,241
229,611	-2,489	292,776	145,230
230,626	-2,563	292,755	145,133
231,640	-2,706	292,538	144,871
232,655	-2,716	292,180	144,671
233,669	-2,676	291,944	144,581
234,684	-2,673	291,902	144,550
235,699	-2,820	291,865	144,373
236,713	-2,556	291,392	144,387
237,728	-2,670	291,201	144,167
238,742	-2,555	291,014	144,175
239,757	-2,645	290,955	144,044
240,772	-2,617	290,792	143,978
241,786	-2,540	290,417	143,855
242,801	-2,591	290,449	143,808
243,815	-2,741	290,427	143,637
244,830	-2,519	289,996	143,629
245,844	-2,678	289,766	143,347
246,859	-2,703	289,666	143,259
247,874	-2,712	289,408	143,111
248,888	-2,686	289,160	143,000
249,903	-2,484	288,928	143,070
250,917	-2,514	288,911	143,020
251,932	-2,529	288,733	142,904
252,947	-2,451	288,395	142,800
253,961	-2,393	288,319	142,806
254,976	-1,877	288,337	143,303
255,990	-2,002	288,036	143,020
257,005	-2,395	287,890	142,554
258,020	-0,715	288,617	144,535
259,034	0,742	288,807	146,033
260,049	1,488	288,813	146,748
261,063	1,754	288,867	147,020
262,078	2,163	288,752	147,346
263,093	2,396	288,555	147,458
264,107	2,617	288,511	147,637
265,122	2,901	288,385	147,834
266,136	2,658	288,355	147,571
267,151	2,901	288,083	147,653
268,166	2,706	287,953	147,384
269,180	2,713	287,754	147,277
270,195	2,781	287,498	147,198
271,209	2,850	287,337	147,169
272,224	2,749	287,127	146,951
273,239	2,707	286,944	146,804
274,253	2,778	286,714	146,742
275,268	2,516	286,626	146,431
276,282	2,598	286,246	146,303
277,297	2,509	286,237	146,199
278,312	2,607	286,010	146,164
279,326	2,633	285,697	146,016
280,341	2,726	285,647	146,066
281,355	2,783	285,402	145,983
282,370	2,703	285,267	145,825
283,384	2,499	285,070	145,516
284,399	2,629	284,701	145,439
285,414	2,459	284,640	145,232
286,428	2,524	284,425	145,172
287,443	2,557	284,196	145,073
288,457	2,495	284,163	144,985
289,472	2,522	283,915	144,871
290,487	2,553	283,667	144,761
291,501	2,349	283,457	144,447
292,516	2,363	283,229	144,331
293,530	2,405	283,143	144,314
294,545	2,274	283,066	144,138
295,560	2,232	282,957	144,029
296,574	2,434	282,440	143,945
297,589	2,308	282,501	143,844
298,603	2,441	282,161	143,784
299,618	2,578	281,928	143,782
300,633	2,426	281,930	143,626
301,647	2,452	281,676	143,509
302,662	2,534	281,452	143,459
303,676	2,660	281,297	143,486
304,691	2,586	281,266	143,388
305,706	2,906	280,979	143,529
306,720	2,690	280,978	143,313
307,735	2,775	280,696	143,236
308,749	2,832	280,480	143,166
309,764	2,664	280,282	142,895
310,779	2,717	280,051	142,814
311,793	2,714	279,885	142,714
312,808	2,633	279,741	142,552
313,822	2,424	279,564	142,253
314,837	2,526	279,342	142,223
315,852	2,707	279,215	142,316
316,866	2,662	279,059	142,181
317,881	2,562	278,826	141,956
318,895	2,371	278,542	141,621
319,910	2,688	278,297	141,779
320,925	2,553	278,229	141,606
321,939	2,700	278,088	141,658
322,954	2,491	277,970	141,391
323,968	2,752	277,660	141,463
324,983	2,750	277,600	141,418
325,997	2,652	277,460	141,244
327,012	2,872	277,121	141,262
328,027	2,762	277,173	141,174
329,041	2,592	276,992	140,912
330,056	2,665	276,794	140,867
331,070	2,794	276,554	140,851
332,085	2,619	276,389	140,593
333,100	2,746	276,130	140,565
334,114	2,729	276,029	140,486
335,129	2,804	275,701	140,375
336,143	2,943	275,589	140,433
337,158	2,766	275,435	140,179
338,173	2,708	275,291	140,041
339,187	2,669	275,143	139,916
340,202	2,822	274,904	139,924
341,216	2,689	274,758	139,715
342,231	2,812	274,541	139,705
343,246	2,671	274,516	139,551
344,260	2,673	274,331	139,446
345,275	2,859	274,069	139,470
346,289	2,637	274,017	139,229
347,304	2,849	273,636	139,216
348,319	2,774	273,535	139,083
349,333	2,784	273,399	139,012
350,348	2,755	273,140	138,840
351,362	2,774	272,969	138,758
352,377	2,837	272,893	138,764
353,392	2,769	272,747	138,616
354,406	2,768	272,565	138,511
355,421	191,366	1350,676	1430,667
356,435	154,479	1482,136	1430,796
