DTS Sentinel unit serial number:	SN410029Multiplexer serial number:	ORYXHardware model number:	OX2-SRSoftware version number:	ORYX F/W v4,00 Oryx Data Collector v3.7.2.0data status	okinstallation	B4 Nyhavnadifferential loss correction	single-endedforward channel	channel 2reverse channel	N/Adate	2023/12/18time	18:45:13forward acquisition time	300,00reverse acquisition time	0,00gamma	499,1914k internal	0,3124k external	0,3124temperature offset calibration	1,0000default loss term (dB/km)	0,3820temperature slope calibration	1,0000multiplexer offset coefficient	1,0000multiplexer slope coefficient	1,0000fibre end	0,00T internal ref (°C)	21,94T ext. ref 1 (°C)	6,97T ext. ref 2 (°C)	6,95length (m)	temperature (°C)	Stokes	anti-Stokes-744,400	-200,000	0,022	-0,257
-743,385	16,751	-0,159	0,094
-742,371	800,000	0,051	-0,159
-741,356	122,246	-0,169	0,157
-740,342	-90,256	-0,148	-0,032
-739,327	-66,273	-0,257	0,076
-738,312	800,000	-0,065	-0,136
-737,298	-89,927	-0,196	-0,042
-736,283	40,626	0,122	-0,082
-735,269	130,166	-0,200	0,190
-734,254	77,552	-0,015	-0,012
-733,239	-120,027	-0,360	-0,045
-732,225	106,357	0,068	0,060
-731,210	43,836	-0,024	-0,016
-730,196	-200,000	-0,014	-0,059
-729,181	-200,000	0,030	-0,148
-728,167	-200,000	0,007	-0,245
-727,152	-123,994	-0,107	0,012
-726,137	-104,232	0,071	-0,012
-725,123	-79,318	0,127	-0,032
-724,108	-1,466	-0,036	0,019
-723,094	800,000	-0,060	-0,138
-722,079	228,609	-0,051	-0,062
-721,064	-200,000	-0,007	0,054
-720,050	6,016	-0,126	0,069
-719,035	800,000	0,011	0,022
-718,021	-200,000	-0,031	-0,214
-717,006	-22,519	-0,147	0,066
-715,991	74,380	-0,047	0,037
-714,977	104,479	0,072	-0,063
-713,962	-81,206	-0,128	0,031
-712,948	231,410	-0,061	-0,075
-711,933	682,028	0,076	-0,149
-710,918	68,444	-0,067	0,051
-709,904	800,000	-0,026	-0,086
-708,889	117,155	-0,088	0,081
-707,875	186,200	-0,042	0,046
-706,860	181,771	-0,052	0,057
-705,845	144,874	0,095	-0,095
-704,831	800,000	-0,015	-0,039
-703,816	-109,484	0,009	0,001
-702,802	-200,000	-0,004	-0,115
-701,787	48,941	-0,057	-0,040
-700,772	-200,000	-0,027	-0,136
-699,758	243,274	0,004	-0,005
-698,743	800,000	-0,044	-0,091
-697,729	-84,210	0,108	-0,025
-696,714	228,845	0,043	0,053
-695,699	80,479	-0,092	0,073
-694,685	26,584	-0,120	-0,075
-693,670	-39,630	-0,073	-0,028
-692,656	258,236	0,021	-0,027
-691,641	-83,640	0,040	-0,010
-690,627	-200,000	-0,012	-0,153
-689,612	-86,094	-0,058	0,013
-688,597	-62,951	-0,155	-0,047
-687,583	572,300	-0,056	-0,103
-686,568	-119,316	0,129	0,016
-685,554	55,385	-0,093	0,067
-684,539	-96,844	0,033	0,006
-683,524	800,000	-0,040	0,104
-682,510	-200,000	0,001	0,066
-681,495	42,041	-0,124	-0,083
-680,481	-200,000	-0,016	0,067
-679,466	417,486	-0,057	-0,090
-678,451	-200,000	-0,021	-0,072
-677,437	189,278	-0,055	-0,061
-676,422	-200,000	0,004	0,042
-675,408	162,934	-0,035	-0,036
-674,393	98,450	-0,092	0,079
-673,378	753,519	-0,049	0,098
-672,364	-113,628	-0,049	-0,007
-671,349	-200,000	0,001	-0,058
-670,335	-95,370	0,094	-0,019
-669,320	440,618	0,044	0,072
-668,305	82,503	0,064	-0,052
-667,291	-48,413	-0,057	-0,020
-666,276	-200,000	-0,008	-0,093
-665,262	719,303	-0,016	-0,032
-664,247	645,429	-0,044	-0,084
-663,232	-200,000	0,006	-0,052
-662,218	800,000	-0,032	-0,077
-661,203	-200,000	-0,018	0,094
-660,189	770,573	-0,066	0,133
-659,174	23,595	-0,032	-0,019
-658,159	467,869	-0,171	-0,286
-657,145	-76,006	-0,088	-0,023
-656,130	788,936	0,008	-0,017
-655,116	12,153	-0,133	-0,076
-654,101	-200,000	-0,014	-0,146
-653,086	-200,000	-0,006	-0,048
-652,072	-77,725	-0,057	-0,015
-651,057	-91,470	-0,141	0,030
-650,043	-11,418	-0,032	-0,016
-649,028	-200,000	-0,004	-0,037
-648,014	800,000	0,032	0,083
-646,999	-200,000	0,001	0,149
-645,984	-44,465	0,041	0,015
-644,970	163,479	0,089	-0,093
-643,955	-200,000	-0,040	-0,145
-642,941	-200,000	-0,012	-0,099
-641,926	285,372	-0,012	-0,016
-640,911	-200,000	-0,018	0,083
-639,897	686,053	-0,039	0,076
-638,882	650,054	-0,031	-0,060
-637,868	-8,566	0,110	-0,055
-636,853	-84,326	-0,068	-0,016
-635,838	-200,000	-0,002	-0,089
-634,824	-159,278	-0,121	0,005
-633,809	-3,449	-0,052	-0,027
-632,795	-63,884	0,110	0,033
-631,780	3,981	0,033	0,018
-630,765	319,504	-0,088	-0,124
-629,751	-200,000	-0,023	-0,171
-628,736	-200,000	-0,038	-0,176
-627,722	-200,000	0,004	-0,032
-626,707	687,876	-0,048	0,094
-625,692	-200,000	0,013	0,124
-624,678	40,568	0,072	0,048
-623,663	-101,367	0,021	0,004
-622,649	-86,031	-0,022	0,005
-621,634	800,000	-0,057	-0,126
-620,619	-24,434	-0,095	-0,042
-619,605	800,000	-0,047	0,143
-618,590	-52,610	0,107	-0,037
-617,576	314,530	0,040	-0,057
-616,561	-98,862	-0,027	-0,005
-615,546	-20,946	0,127	-0,057
-614,532	-20,588	-0,108	-0,049
-613,517	420,035	-0,075	-0,120
-612,503	39,641	-0,024	-0,016
-611,488	-98,616	-0,043	0,008
-610,474	103,652	0,064	0,055
-609,459	-131,312	-0,167	0,016
-608,444	-90,199	-0,039	-0,008
-607,430	-32,454	-0,096	-0,040
-606,415	-103,314	-0,104	-0,018
-605,401	94,002	-0,038	0,032
-604,386	800,000	0,055	0,156
-603,371	800,000	0,015	-0,045
-602,357	-68,539	0,036	-0,010
-601,342	-154,941	-0,134	0,006
-600,328	114,453	-0,050	0,045
-599,313	230,887	-0,017	0,021
-598,298	-154,211	-0,138	0,007
-597,284	184,340	0,029	0,032
-596,269	-1,660	0,046	0,024
-595,255	297,266	0,055	-0,075
-594,240	-124,600	-0,102	-0,012
-593,225	-200,000	-0,001	-0,022
-592,211	650,258	-0,029	0,056
-591,196	17,814	0,098	0,057
-590,182	135,583	0,044	0,042
-589,167	-200,000	0,018	0,102
-588,152	149,128	0,096	0,096
-587,138	127,035	0,042	0,039
-586,123	-200,000	-0,003	0,013
-585,109	211,059	-0,101	-0,118
-584,094	374,131	0,074	-0,111
-583,079	-200,000	0,016	0,070
-582,065	-200,000	0,023	-0,097
-581,050	-23,506	0,057	0,025
-580,036	294,964	-0,079	-0,107
-579,021	38,763	0,042	-0,028
-578,006	479,100	0,041	-0,070
-576,992	-109,991	0,050	0,008
-575,977	266,530	-0,038	-0,049
-574,963	-200,000	0,013	0,165
-573,948	577,743	0,034	0,061
-572,934	-200,000	0,009	-0,153
-571,919	243,684	-0,062	-0,078
-570,904	-17,737	-0,095	-0,044
-569,890	-200,000	0,018	-0,116
-568,875	-200,000	0,012	-0,139
-567,861	-200,000	0,026	0,126
-566,846	-200,000	-0,043	0,150
-565,831	84,733	-0,036	0,029
-564,817	800,000	0,014	-0,029
-563,802	-72,008	-0,087	-0,024
-562,788	708,063	-0,008	-0,016
-561,773	-200,000	0,000	-0,070
-560,758	-200,000	0,016	0,158
-559,744	800,000	-0,034	0,081
-558,729	613,747	-0,021	-0,038
-557,715	85,388	0,032	-0,026
-556,700	-100,386	-0,127	0,023
-555,685	-57,559	-0,064	-0,021
-554,671	23,381	0,181	-0,110
-553,656	166,184	0,055	0,057
-552,642	165,446	-0,035	0,037
-551,627	-200,000	-0,018	-0,208
-550,612	266,824	0,060	-0,078
-549,598	-92,256	-0,064	-0,013
-548,583	-200,000	0,002	0,042
-547,569	714,421	0,029	-0,058
-546,554	239,494	-0,024	0,030
-545,539	-19,917	0,166	-0,075
-544,525	300,416	0,089	-0,121
-543,510	-200,000	0,011	-0,140
-542,496	800,000	0,010	0,022
-541,481	221,972	0,013	0,015
-540,466	-19,774	-0,034	-0,015
-539,452	-34,183	-0,089	-0,036
-538,437	-155,069	0,092	0,004
-537,423	602,816	0,040	0,073
-536,408	209,231	0,088	0,102
-535,393	17,459	-0,036	-0,021
-534,379	301,695	0,073	0,100
-533,364	-200,000	-0,008	-0,075
-532,350	128,017	0,142	-0,133
-531,335	-7,309	0,097	0,048
-530,321	-200,000	0,021	0,224
-529,306	-122,964	-0,122	0,014
-528,291	-200,000	0,050	0,000
-527,277	65,153	0,019	-0,014
-526,262	290,785	-0,005	0,006
-525,248	-200,000	0,004	-0,034
-524,233	-200,000	-0,000	-0,021
-523,218	-8,586	0,037	-0,018
-522,204	-174,994	-0,072	0,001
-521,189	29,896	-0,015	-0,009
-520,175	-101,488	0,091	0,016
-519,160	211,902	0,082	-0,096
-518,145	131,422	-0,051	0,048
-517,131	-200,000	0,009	0,106
-516,116	166,379	-0,062	0,065
-515,102	635,405	0,038	-0,071
-514,087	-71,001	-0,073	-0,020
-513,072	324,824	-0,073	-0,103
-512,058	37,016	0,174	0,113
-511,043	138,050	-0,055	0,053
-510,029	-200,000	-0,007	0,038
-509,014	49,340	-0,020	0,014
-507,999	-4,056	-0,078	0,040
-506,985	-200,000	0,009	0,097
-505,970	-45,122	-0,040	-0,015
-504,956	800,000	-0,022	-0,065
-503,941	348,224	0,058	0,084
-502,926	-74,732	-0,122	0,032
-501,912	331,985	0,047	-0,068
-500,897	42,118	0,058	0,039
-499,883	67,472	-0,030	-0,023
-498,868	-200,000	-0,012	0,133
-497,853	67,864	-0,102	-0,077
-496,839	-154,977	-0,045	0,002
-495,824	-29,922	0,256	0,107
-494,810	-200,000	0,020	-0,114
-493,795	-200,000	0,002	-0,028
-492,781	50,893	-0,047	-0,033
-491,766	800,000	0,031	-0,083
-490,751	-200,000	0,006	-0,127
-489,737	5,341	0,088	0,048
-488,722	355,805	0,016	0,024
-487,708	35,610	0,076	0,049
-486,693	-81,453	0,072	0,017
-485,678	-34,620	-0,093	-0,038
-484,664	-126,325	-0,079	0,009
-483,649	-198,636	-0,199	0,001
-482,635	230,739	-0,034	0,041
-481,620	-8,576	0,057	-0,028
-480,605	38,116	-0,053	-0,035
-479,591	-82,538	0,054	0,013
-478,576	-73,068	-0,041	0,011
-477,562	621,708	-0,011	-0,020
-476,547	10,811	0,090	-0,050
-475,532	-200,000	0,001	-0,112
-474,518	-200,000	0,001	0,020
-473,503	581,482	-0,051	0,092
-472,489	328,429	0,053	-0,076
-471,474	-139,866	0,031	0,002
-470,459	800,000	-0,034	-0,085
-469,445	262,162	-0,034	-0,043
-468,430	102,916	0,064	-0,055
-467,416	800,000	0,032	-0,084
-466,401	324,643	0,036	-0,051
-465,386	-40,676	-0,074	-0,028
-464,372	20,508	-0,112	0,067
-463,357	-127,163	-0,049	0,005
-462,343	-91,388	-0,044	0,009
-461,328	-122,147	-0,065	0,008
-460,313	-156,702	0,096	0,004
-459,299	-200,000	0,003	0,020
-458,284	-76,671	0,075	0,019
-457,270	-200,000	-0,017	0,087
-456,255	-200,000	0,031	-0,169
-455,241	162,416	0,059	-0,061
-454,226	-124,461	0,036	-0,004
-453,211	-200,000	-0,004	0,037
-452,197	-182,148	0,118	0,002
-451,182	111,912	0,052	0,047
-450,168	-200,000	0,010	0,050
-449,153	-0,352	-0,030	-0,016
-448,138	-200,000	-0,002	-0,016
-447,124	-200,000	-0,003	-0,077
-446,109	-200,000	0,027	0,097
-445,095	5,691	-0,103	0,056
-444,080	4,850	0,112	-0,061
-443,065	800,000	0,040	0,129
-442,051	-200,000	0,021	0,119
-441,036	800,000	0,013	0,040
-440,022	18,039	0,013	-0,007
-439,007	-200,000	-0,001	-0,055
-437,992	-106,228	-0,053	-0,009
-436,978	-3,839	-0,075	-0,038
-435,963	84,361	-0,031	-0,025
-434,949	68,068	0,027	0,020
-433,934	38,549	-0,068	0,045
-432,919	-102,596	-0,122	-0,021
-431,905	258,842	-0,052	0,066
-430,890	130,681	0,036	0,034
-429,876	282,537	0,031	-0,041
-428,861	29,009	0,063	-0,039
-427,846	-200,000	0,019	-0,117
-426,832	8,284	0,009	-0,005
-425,817	23,266	-0,077	-0,046
-424,803	-157,229	0,019	-0,001
-423,788	800,000	0,029	-0,063
-422,773	-43,406	0,096	0,036
-421,759	-200,000	-0,001	0,008
-420,744	-17,979	0,095	-0,044
-419,730	435,468	-0,079	-0,127
-418,715	646,878	-0,058	0,110
-417,701	147,185	-0,042	-0,042
-416,686	-200,000	0,016	0,131
-415,671	800,000	0,064	0,142
-414,657	-200,000	0,030	0,160
-413,642	96,244	-0,011	0,009
-412,628	239,434	0,064	-0,078
-411,613	181,304	0,021	-0,023
-410,598	-200,000	-0,005	-0,173
-409,584	51,507	0,078	0,055
-408,569	-200,000	-0,018	-0,103
-407,555	-10,293	-0,091	0,044
-406,540	27,449	0,071	0,044
-405,525	460,403	0,062	0,103
-404,511	-129,053	-0,087	-0,009
-403,496	343,532	0,062	0,090
-402,482	729,170	-0,032	0,063
-401,467	-200,000	-0,029	0,158
-400,452	122,605	0,089	-0,082
-399,438	-165,446	-0,105	0,003
-398,423	-200,000	-0,009	-0,081
-397,409	177,794	0,059	-0,063
-396,394	800,000	0,023	0,069
-395,379	354,998	0,077	-0,113
-394,365	63,839	-0,044	0,033
-393,350	-52,150	0,139	-0,047
-392,336	-142,116	-0,025	-0,002
-391,321	-193,577	-0,067	0,000
-390,306	800,000	-0,099	-0,204
-389,292	-200,000	0,010	-0,121
-388,277	-200,000	-0,001	-0,104
-387,263	800,000	0,044	-0,090
-386,248	-200,000	0,030	0,197
-385,233	-200,000	0,026	0,109
-384,219	64,581	0,050	-0,037
-383,204	-200,000	0,008	-0,124
-382,190	671,666	-0,012	-0,023
-381,175	-151,704	0,056	0,003
-380,160	422,129	-0,013	0,021
-379,146	172,898	0,074	0,078
-378,131	-200,000	-0,003	0,119
-377,117	-52,884	0,049	0,017
-376,102	291,190	0,121	-0,162
-375,088	272,482	0,067	-0,087
-374,073	-70,264	-0,086	-0,024
-373,058	800,000	0,085	0,190
-372,044	27,514	0,044	-0,027
-371,029	-4,912	-0,082	-0,041
-370,015	-200,000	-0,007	0,044
-369,000	-19,497	-0,116	0,052
-367,985	-40,130	-0,123	-0,047
-366,971	-65,878	-0,139	-0,040
-365,956	800,000	0,018	0,048
-364,942	800,000	-0,015	0,046
-363,927	661,024	0,067	0,128
-362,912	-30,435	0,028	-0,011
-361,898	205,102	0,120	-0,136
-360,883	52,622	0,087	-0,061
-359,869	800,000	0,014	0,034
-358,854	-58,517	0,036	-0,011
-357,839	138,153	0,037	0,035
-356,825	-200,000	-0,001	0,048
-355,810	-39,458	-0,049	0,019
-354,796	-138,952	-0,157	-0,012
-353,781	800,000	-0,035	-0,111
-352,766	800,000	-0,046	0,128
-351,752	800,000	0,051	0,160
-350,737	-200,000	0,003	0,074
-349,723	-200,000	0,036	0,185
-348,708	-168,776	-0,057	-0,002
-347,693	192,583	-0,073	-0,081
-346,679	-200,000	-0,040	0,133
-345,664	65,945	0,074	-0,055
-344,650	5,738	-0,080	-0,043
-343,635	800,000	0,036	0,110
-342,620	60,495	-0,090	-0,066
-341,606	217,312	0,062	0,073
-340,591	343,877	-0,069	0,100
-339,577	-200,000	-0,024	-0,207
-338,562	-133,709	-0,034	0,003
-337,548	-200,000	0,002	-0,088
-336,533	507,821	0,029	-0,050
-335,518	-53,254	0,087	-0,029
-334,504	141,786	0,037	0,036
-333,489	-200,000	0,005	0,030
-332,475	-200,000	-0,016	-0,069
-331,460	29,303	-0,046	-0,028
-330,445	22,685	0,126	0,076
-329,431	-200,000	-0,003	0,143
-328,416	-200,000	0,000	0,023
-327,402	-37,573	-0,058	0,022
-326,387	-23,338	-0,104	0,046
-325,372	0,709	-0,120	-0,063
-324,358	30,297	0,079	-0,049
-323,343	290,379	0,052	-0,069
-322,329	800,000	-0,023	0,055
-321,314	3,994	0,050	0,027
-320,299	-80,862	0,020	-0,005
-319,285	-200,000	-0,025	0,108
-318,270	141,776	-0,125	-0,121
-317,256	-110,873	-0,092	0,014
-316,241	-46,756	-0,049	-0,017
-315,226	-11,142	0,081	-0,039
-314,212	-200,000	0,011	0,068
-313,197	800,000	-0,080	0,171
-312,183	361,256	0,074	0,109
-311,168	-79,770	0,112	-0,027
-310,153	526,127	0,025	-0,044
-309,139	179,563	0,058	0,062
-308,124	-200,000	0,010	-0,049
-307,110	800,000	0,013	0,031
-306,095	191,076	0,026	0,028
-305,080	-194,146	-0,007	0,000
-304,066	800,000	-0,023	0,072
-303,051	-179,505	-0,113	0,002
-302,037	-33,928	-0,070	-0,028
-301,022	186,801	-0,058	-0,063
-300,008	-194,341	0,098	-0,001
-298,993	203,567	0,077	0,088
-297,978	-9,034	0,051	-0,025
-296,964	128,645	-0,058	-0,054
-295,949	-200,000	0,018	-0,157
-294,935	148,816	-0,077	0,077
-293,920	-200,000	0,023	0,152
-292,905	-115,819	-0,076	-0,010
-291,891	-200,000	-0,003	0,224
-290,876	-122,272	-0,211	0,025
-289,862	800,000	-0,027	0,070
-288,847	334,587	0,091	-0,129
-287,832	800,000	0,034	-0,103
-286,818	-149,593	0,063	0,004
-285,803	-129,841	-0,010	-0,001
-284,789	-71,747	-0,066	0,018
-283,774	-56,544	0,073	0,024
-282,759	4,806	-0,044	0,024
-281,745	65,066	0,063	0,047
-280,730	40,961	-0,108	-0,071
-279,716	39,866	-0,110	-0,072
-278,701	55,420	0,036	-0,025
-277,686	-51,940	0,124	0,042
-276,672	800,000	0,046	0,127
-275,657	-200,000	-0,011	0,043
-274,643	-0,545	-0,141	-0,073
-273,628	199,226	0,026	-0,030
-272,613	37,323	0,031	0,020
-271,599	-56,117	-0,103	-0,033
-270,584	58,309	-0,128	0,092
-269,570	-10,079	0,161	0,078
-268,555	-14,442	-0,081	0,038
-267,540	155,260	0,024	0,024
-266,526	318,711	-0,045	-0,063
-265,511	-200,000	-0,015	-0,152
-264,497	41,440	0,060	-0,040
-263,482	316,420	0,039	-0,054
-262,467	800,000	-0,039	0,121
-261,453	-90,926	0,047	-0,010
-260,438	-97,309	-0,120	-0,023
-259,424	-125,278	-0,133	-0,015
-258,409	-72,265	0,108	0,029
-257,395	292,561	0,062	0,083
-256,380	108,494	-0,088	0,077
-255,365	-200,000	-0,009	0,070
-254,351	800,000	-0,013	0,029
-253,336	-100,122	0,007	-0,001
-252,322	111,580	-0,099	-0,088
-251,307	228,543	0,057	0,068
-250,292	49,590	0,039	0,027
-249,278	52,571	0,016	-0,011
-248,263	-149,222	0,078	0,004
-247,249	-200,000	-0,026	0,267
-246,234	272,581	0,085	-0,110
-245,219	-112,494	-0,100	-0,014
-244,205	280,091	-0,008	-0,011
-243,190	24,207	0,093	0,056
-242,176	-98,118	-0,101	0,019
-241,161	-55,604	0,088	0,029
-240,146	-28,370	0,048	-0,020
-239,132	800,000	0,040	-0,104
-238,117	320,488	0,047	0,066
-237,103	8,007	0,048	-0,026
-236,088	-200,000	0,002	-0,212
-235,073	-59,959	0,047	0,014
-234,059	159,858	0,074	-0,076
-233,044	295,170	0,068	-0,091
-232,030	446,705	0,029	0,047
-231,015	800,000	0,036	0,101
-230,000	-34,347	-0,143	-0,057
-228,986	800,000	0,056	0,115
-227,971	470,436	-0,034	0,056
-226,957	-200,000	0,042	0,234
-225,942	-200,000	-0,023	0,089
-224,927	-200,000	0,002	-0,011
-223,913	205,821	-0,075	-0,085
-222,898	-200,000	0,022	-0,082
-221,884	446,755	0,050	-0,080
-220,869	-79,319	0,037	-0,009
-219,855	-14,583	-0,042	0,020
-218,840	800,000	0,040	0,090
-217,825	-200,000	-0,044	0,180
-216,811	404,159	-0,054	-0,084
-215,796	73,871	-0,038	0,029
-214,782	-92,147	-0,039	0,008
-213,767	-158,831	0,102	-0,004
-212,752	-200,000	0,023	-0,115
-211,738	800,000	-0,014	0,042
-210,723	-45,010	-0,196	-0,071
-209,709	-61,099	-0,075	0,023
-208,694	778,887	0,030	0,060
-207,679	-104,183	0,040	-0,007
-206,665	116,845	0,093	0,083
-205,650	-68,130	0,133	-0,038
-204,636	416,275	-0,081	0,127
-203,621	-124,054	0,031	0,003
-202,606	39,446	-0,072	0,047
-201,592	-200,000	0,008	-0,164
-200,577	-200,000	-0,034	-0,128
-199,563	-63,658	0,098	-0,029
-198,548	190,123	0,055	-0,060
-197,533	-56,916	-0,036	-0,012
-196,519	-94,946	0,056	0,011
-195,504	-200,000	-0,010	-0,048
-194,490	89,602	0,071	-0,058
-193,475	-21,572	-0,050	-0,022
-192,460	-189,020	0,079	-0,001
-191,446	-8,187	0,031	0,015
-190,431	-200,000	0,006	0,072
-189,417	-48,333	-0,057	-0,020
-188,402	0,407	0,090	-0,047
-187,387	-200,000	0,030	-0,098
-186,373	10,769	-0,121	-0,067
-185,358	-200,000	-0,013	-0,043
-184,344	-1,468	-0,076	0,039
-183,329	475,917	0,047	0,077
-182,315	162,651	-0,081	0,083
-181,300	20,809	-0,105	0,062
-180,285	-200,000	-0,008	-0,043
-179,271	759,416	-0,033	-0,065
-178,256	-61,306	0,046	-0,014
-177,242	187,686	0,075	0,082
-176,227	596,190	0,028	-0,051
-175,212	800,000	-0,003	0,008
-174,198	71,951	-0,085	0,064
-173,183	-200,000	0,013	-0,064
-172,169	170,026	-0,062	0,065
-171,154	10,369	-0,160	-0,089
-170,139	-69,052	0,098	0,027
-169,125	-58,198	0,165	0,052
-168,110	450,441	-0,089	-0,143
-167,096	-200,000	0,004	-0,092
-166,081	800,000	0,012	-0,031
-165,066	-200,000	0,003	-0,069
-164,052	-200,000	-0,006	0,027
-163,037	-63,442	0,049	0,015
-162,023	-17,829	0,151	0,069
-161,008	-200,000	0,000	0,014
-159,993	67,444	-0,113	0,084
-158,979	-90,224	-0,028	-0,006
-157,964	-15,918	-0,066	-0,030
-156,950	800,000	0,011	0,023
-155,935	792,511	0,007	-0,014
-154,920	800,000	0,032	0,078
-153,906	-103,419	-0,079	0,013
-152,891	-99,535	0,100	0,018
-151,877	276,839	0,112	-0,146
-150,862	19,073	-0,025	0,015
-149,847	-200,000	0,008	-0,063
-148,833	155,239	-0,063	-0,063
-147,818	35,570	-0,117	-0,075
-146,804	-80,579	-0,094	-0,023
-145,789	27,184	-0,201	0,122
-144,775	216,609	0,068	0,079
-143,760	423,780	-0,041	-0,065
-142,745	800,000	-0,017	-0,037
-141,731	-189,649	-0,162	-0,001
-140,716	1,042	0,064	-0,033
-139,702	-200,000	0,007	0,079
-138,687	-60,185	0,095	-0,029
-137,672	-200,000	0,016	-0,156
-136,658	-91,831	0,050	-0,010
-135,643	382,092	0,023	0,034
-134,629	146,252	-0,045	-0,044
-133,614	-200,000	0,014	-0,068
-132,599	-61,138	0,061	-0,019
-131,585	387,847	-0,033	-0,050
-130,570	76,391	0,110	-0,085
-129,556	77,507	-0,107	-0,083
-128,541	156,118	-0,033	0,033
-127,526	-54,273	-0,196	-0,064
-126,512	-76,337	-0,060	0,015
-125,497	-200,000	-0,015	0,067
-124,483	800,000	0,035	-0,103
-123,468	105,038	-0,044	0,038
-122,453	800,000	-0,023	-0,049
-121,439	23,521	-0,096	-0,057
-120,424	-12,329	0,035	0,017
-119,410	-200,000	-0,025	0,097
-118,395	10,140	0,167	0,092
-117,380	800,000	-0,067	0,175
-116,366	-200,000	0,007	0,107
-115,351	-200,000	0,006	-0,029
-114,337	-157,027	0,028	0,001
-113,322	-115,087	-0,061	-0,008
-112,307	140,318	0,066	0,063
-111,293	800,000	0,040	0,082
-110,278	0,566	-0,064	0,033
-109,264	-16,178	-0,086	0,039
-108,249	315,114	-0,079	-0,109
-107,234	116,883	0,037	-0,033
-106,220	-200,000	-0,045	-0,156
-105,205	-10,586	0,131	-0,063
-104,191	800,000	-0,036	-0,082
-103,176	-200,000	-0,023	-0,087
-102,162	800,000	0,043	-0,136
-101,147	747,717	0,078	-0,154
-100,132	115,805	-0,074	-0,065
-99,118	93,435	0,051	-0,042
-98,103	492,500	0,054	0,090
-97,089	800,000	0,031	-0,067
-96,074	13,074	0,054	0,030
-95,059	800,000	-0,042	-0,107
-94,045	559,961	0,038	0,068
-93,030	-123,535	-0,102	0,012
-92,016	-200,000	-0,021	-0,214
-91,001	-67,568	0,093	-0,026
-89,986	576,819	-0,016	-0,029
-88,972	-200,000	0,008	-0,028
-87,957	-200,000	-0,050	0,000
-86,943	-106,257	-0,052	0,008
-85,928	-97,830	-0,042	0,008
-84,913	800,000	0,061	0,154
-83,899	-60,942	0,063	0,019
-82,884	-163,699	-0,030	-0,001
-81,870	668,025	-0,051	-0,096
-80,855	25,329	0,034	0,020
-79,840	-66,899	-0,080	0,023
-78,826	-200,000	0,018	-0,084
-77,811	-200,000	-0,007	-0,065
-76,797	-200,000	0,005	-0,145
-75,782	2,913	0,102	-0,054
-74,767	190,069	0,075	0,082
-73,753	497,566	0,063	0,105
-72,738	-63,148	-0,038	0,011
-71,724	82,034	-0,097	-0,076
-70,709	800,000	-0,028	-0,070
-69,694	175,180	-0,035	0,037
-68,680	26,101	-0,042	-0,025
-67,665	0,148	0,191	-0,099
-66,651	-89,086	0,013	0,003
-65,636	41,780	0,007	-0,005
-64,622	-131,799	-0,102	-0,010
-63,607	800,000	-0,021	-0,047
-62,592	532,011	-0,053	-0,092
-61,578	-200,000	-0,027	0,138
-60,563	-117,264	0,060	-0,008
-59,549	429,532	0,014	0,022
-58,534	-126,704	-1,332	-0,141
-57,519	481,750	-0,824	-1,362
-56,505	-200,000	-0,849	-4,382
-55,490	48,150	0,519	-0,351
-54,476	800,000	4,922	11,699
-53,461	-200,000	14,000	254,116
-52,446	-200,000	693,399	2263,639
-51,432	600,887	1623,808	2937,889
-50,417	117,942	1633,172	1459,554
-49,403	73,565	1287,320	977,027
-48,388	37,472	1023,395	657,038
-47,373	23,975	981,818	585,944
-46,359	23,236	971,298	577,221
-45,344	22,153	967,003	571,108
-44,330	22,171	965,484	570,246
-43,315	22,010	964,073	568,864
-42,300	22,052	962,810	568,232
-41,286	21,968	962,142	567,542
-40,271	22,005	961,096	567,024
-39,257	22,004	960,184	566,459
-38,242	21,898	959,222	565,525
-37,227	21,939	958,468	565,193
-36,213	21,945	957,516	564,628
-35,198	21,903	956,678	563,977
-34,184	21,962	956,148	563,832
-33,169	21,947	955,146	563,172
-32,154	22,056	954,099	562,882
-31,140	22,029	953,167	562,221
-30,125	22,056	952,448	561,862
-29,111	21,972	951,681	561,118
-28,096	21,957	951,149	560,734
-27,082	21,984	950,171	560,221
-26,067	21,964	949,553	559,770
-25,052	21,974	948,837	559,358
-24,038	21,934	948,246	558,862
-23,023	21,997	947,628	558,674
-22,009	22,011	946,812	558,219
-20,994	21,973	946,260	557,747
-19,979	22,025	945,689	557,556
-18,965	22,009	945,064	557,113
-17,950	21,966	944,342	556,530
-16,936	21,927	943,727	556,020
-15,921	21,903	943,058	555,528
-14,906	21,843	942,482	554,976
-13,892	21,866	941,753	554,597
-12,877	21,948	940,957	554,366
-11,863	21,831	940,446	553,672
-10,848	21,830	939,979	553,373
-9,833	21,904	939,377	553,228
-8,819	21,850	938,899	552,757
-7,804	21,857	938,232	552,364
-6,790	21,877	937,266	551,836
-5,775	21,884	937,088	551,733
-4,760	21,881	936,195	551,173
-3,746	21,821	935,763	550,708
-2,731	21,744	935,090	550,046
-1,717	21,658	934,162	549,210
-0,702	21,698	933,579	548,971
0,313	21,540	932,976	548,946
1,327	23,974	930,460	555,065
2,342	31,483	808,927	502,924
3,356	26,132	509,740	307,736
4,371	1,612	374,781	194,951
5,386	-1,287	357,830	182,545
6,400	-2,373	351,927	178,201
7,415	-2,412	349,375	176,846
8,429	-2,147	348,110	176,507
9,444	-2,197	347,072	175,906
10,459	-2,176	346,445	175,598
11,473	-1,962	345,696	175,458
12,488	-2,214	345,248	174,914
13,502	-2,265	344,716	174,569
14,517	-2,121	344,262	174,494
15,531	-2,052	343,907	174,381
16,546	-1,771	343,357	174,418
17,561	-1,788	342,967	174,184
18,575	-1,762	342,577	174,001
19,590	-1,839	342,242	173,726
20,604	-1,708	341,804	173,642
21,619	-1,946	341,461	173,172
22,634	-1,804	340,983	173,080
23,648	-1,846	340,800	172,923
24,663	-1,825	340,422	172,741
25,677	-1,855	340,171	172,563
26,692	-1,997	339,921	172,254
27,707	-1,815	339,438	172,208
28,721	-1,868	339,083	171,950
29,736	-1,964	338,876	171,717
30,750	-1,825	338,505	171,676
31,765	-1,840	338,340	171,560
32,780	-1,784	338,027	171,450
33,794	-1,807	337,771	171,278
34,809	-1,824	337,364	171,038
35,823	-1,793	337,225	170,988
36,838	-1,880	336,853	170,683
37,853	-1,791	336,623	170,654
38,867	-1,843	336,242	170,386
39,882	-1,846	336,100	170,295
40,896	-1,888	335,916	170,139
41,911	-1,815	335,502	169,997
42,926	-1,790	335,257	169,887
43,940	-1,708	335,001	169,837
44,955	-1,972	334,615	169,322
45,969	-1,996	334,476	169,209
46,984	-1,823	334,252	169,279
47,999	-1,800	333,939	169,132
49,013	-1,914	333,668	168,849
50,028	-1,887	333,400	168,729
51,042	-1,870	333,167	168,616
52,057	-1,937	332,832	168,355
53,071	-1,882	332,592	168,281
54,086	-1,964	332,317	168,034
55,101	-1,912	332,216	168,027
56,115	-1,954	331,894	167,800
57,130	-1,840	331,490	167,711
58,144	-1,938	331,136	167,405
59,159	-1,903	331,023	167,374
60,174	-1,975	330,826	167,178
61,188	-1,959	330,402	166,966
62,203	-1,903	330,232	166,929
63,217	-1,975	330,093	166,762
64,232	-1,915	329,657	166,595
65,247	-2,002	329,566	166,436
66,261	-1,873	329,173	166,369
67,276	-1,823	328,926	166,285
68,290	-1,816	328,638	166,133
69,305	-1,983	328,467	165,843
70,320	-1,794	328,241	165,927
71,334	-1,930	328,050	165,663
72,349	-1,859	327,655	165,528
73,363	-1,912	327,355	165,303
74,378	-1,973	327,308	165,196
75,393	-1,929	326,871	165,009
76,407	-1,943	326,885	164,986
77,422	-1,840	326,393	164,838
78,436	-1,866	326,169	164,681
79,451	-1,912	325,967	164,514
80,466	-1,923	325,557	164,280
81,480	-1,884	325,516	164,288
82,495	-1,854	325,417	164,256
83,509	-1,993	325,138	163,947
84,524	-1,744	324,707	163,990
85,539	-1,909	324,496	163,687
86,553	-1,906	324,228	163,540
87,568	-1,933	324,123	163,443
88,582	-1,784	323,775	163,417
89,597	-1,977	323,527	163,065
90,611	-2,023	323,321	162,895
91,626	-1,824	323,173	163,025
92,641	-1,912	323,049	162,852
93,655	-1,819	322,547	162,687
94,670	-1,826	322,366	162,574
95,684	-1,925	322,185	162,359
96,699	-1,778	321,773	162,298
97,714	-1,718	321,507	162,215
98,728	-1,821	321,433	162,050
99,743	-1,828	321,140	161,880
100,757	-1,839	321,090	161,829
101,772	-1,694	320,657	161,754
102,787	-1,871	320,520	161,478
103,801	-1,776	320,221	161,416
104,816	-1,961	320,036	161,106
105,830	-1,977	319,935	161,024
106,845	-1,806	319,520	160,987
107,860	-1,917	319,314	160,748
108,874	-1,838	318,944	160,633
109,889	-1,895	318,908	160,539
110,903	-1,757	318,495	160,467
111,918	-1,887	318,391	160,259
112,933	-1,833	318,131	160,172
113,947	-1,842	317,916	160,040
114,962	-1,952	317,651	159,773
115,976	-1,944	317,521	159,702
116,991	-1,868	317,281	159,650
118,006	-1,928	317,152	159,505
119,020	-1,681	316,768	159,565
120,035	-1,883	316,689	159,293
121,049	-2,050	316,473	158,989
122,064	-1,942	316,270	158,990
123,079	-1,796	316,024	159,009
124,093	-1,855	315,674	158,756
125,108	-1,865	315,545	158,665
126,122	-1,936	315,308	158,456
127,137	-1,872	314,938	158,325
128,151	-1,994	314,864	158,142
129,166	-2,038	314,636	157,966
130,181	-1,811	314,230	157,992
131,195	-1,862	314,072	157,844
132,210	-1,963	314,020	157,695
133,224	-1,829	313,579	157,603
134,239	-1,987	313,444	157,352
135,254	-1,826	313,210	157,393
136,268	-1,846	312,911	157,207
137,283	-1,790	312,776	157,185
138,297	-1,973	312,506	156,840
139,312	-2,046	312,376	156,683
140,327	-1,795	312,110	156,803
141,341	-1,719	311,952	156,790
142,356	-1,819	311,669	156,528
143,370	-1,825	311,450	156,398
144,385	-1,893	311,301	156,237
145,400	-1,696	310,979	156,270
146,414	-1,730	310,853	156,157
147,429	-1,715	310,567	156,015
148,443	-1,789	310,294	155,786
149,458	-1,774	310,139	155,710
150,473	-1,923	309,972	155,455
151,487	-1,880	309,779	155,389
152,502	-1,676	309,538	155,469
153,516	-1,899	309,407	155,155
154,531	-1,872	308,925	154,929
155,546	-1,828	308,875	154,936
156,560	-1,942	308,755	154,742
157,575	-1,866	308,438	154,650
158,589	-1,938	308,183	154,432
159,604	-1,677	307,901	154,550
160,619	-1,787	307,843	154,392
161,633	-1,659	307,623	154,402
162,648	-1,855	307,475	154,109
163,662	-1,730	307,248	154,112
164,677	-1,768	306,893	153,881
165,692	-1,762	306,729	153,790
166,706	-1,763	306,626	153,724
167,721	-1,650	306,358	153,693
168,735	-1,732	306,250	153,541
169,750	-1,803	306,059	153,357
170,764	-1,968	305,761	153,023
171,779	-1,862	305,637	153,058
172,794	-1,934	305,463	152,882
173,808	-1,720	305,135	152,926
174,823	-1,872	304,965	152,670
175,837	-1,817	304,665	152,563
176,852	-1,837	304,518	152,455
177,867	-1,971	304,430	152,258
178,881	-2,037	304,102	152,013
179,896	-1,774	303,890	152,165
180,910	-1,795	303,570	151,969
181,925	-1,902	303,489	151,804
182,940	-1,756	303,225	151,810
183,954	-1,844	303,175	151,681
184,969	-1,764	302,904	151,613
185,983	-1,704	302,656	151,538
186,998	-1,635	302,554	151,544
188,013	-1,658	302,122	151,290
189,027	-1,710	302,118	151,221
190,042	-1,849	301,890	150,951
191,056	-1,806	301,755	150,915
192,071	-1,759	301,531	150,838
193,086	-1,969	301,117	150,402
194,100	-1,913	301,069	150,422
195,115	-1,812	300,816	150,385
196,129	-1,593	300,719	150,546
197,144	-1,725	300,459	150,268
198,159	-1,782	300,046	149,990
199,173	-1,930	299,972	149,790
200,188	-1,993	299,680	149,567
201,202	-1,951	299,411	149,462
202,217	-1,757	299,312	149,596
203,232	-1,991	299,176	149,277
204,246	-1,877	298,953	149,269
205,261	-1,814	298,788	149,236
206,275	-1,791	298,574	149,139
207,290	-1,658	298,370	149,158
208,304	-1,878	298,385	148,930
209,319	-1,848	297,977	148,743
210,334	-1,845	297,783	148,637
211,348	-1,846	297,533	148,498
212,363	-1,659	297,285	148,548
213,377	-1,692	297,022	148,371
214,392	-1,861	296,893	148,124
215,407	-1,847	296,904	148,129
216,421	-1,744	296,435	147,986
217,436	-1,771	296,234	147,845
218,450	-1,896	296,145	147,662
219,465	-1,747	295,941	147,697
220,480	-1,807	295,826	147,566
221,494	-1,682	295,537	147,534
222,509	-1,745	295,415	147,396
223,523	-1,829	295,219	147,202
224,538	-1,878	295,128	147,095
225,553	-1,736	294,787	147,052
226,567	-1,585	294,459	147,027
227,582	-1,677	294,397	146,891
228,596	-1,827	294,314	146,688
229,611	-1,736	294,068	146,642
230,626	-1,754	293,841	146,497
231,640	-1,725	293,707	146,447
232,655	-1,904	293,497	146,151
233,669	-1,883	293,254	146,038
234,684	-1,777	293,039	146,023
235,699	-1,714	292,858	145,982
236,713	-1,731	292,650	145,848
237,728	-1,803	292,383	145,631
238,742	-1,793	292,267	145,570
239,757	-1,941	292,110	145,333
240,772	-1,984	291,876	145,162
241,786	-1,980	291,626	145,029
242,801	-1,855	291,430	145,041
243,815	-1,977	291,496	144,941
244,830	-1,844	291,095	144,859
245,844	-1,786	290,948	144,829
246,859	-2,050	290,782	144,475
247,874	-1,904	290,543	144,487
248,888	-1,797	290,351	144,483
249,903	-1,917	290,088	144,222
250,917	-1,861	289,984	144,212
251,932	-1,984	289,744	143,960
252,947	-2,524	289,574	143,335
253,961	-2,951	288,963	142,604
254,976	-3,537	288,456	141,771
255,990	-3,618	288,281	141,593
257,005	-2,351	288,691	143,015
258,020	0,010	289,505	145,709
259,034	1,610	289,968	147,490
260,049	2,154	289,864	147,955
261,063	2,459	289,945	148,280
262,078	2,859	289,789	148,576
263,093	2,978	289,795	148,682
264,107	3,202	289,636	148,805
265,122	3,277	289,478	148,784
266,136	3,312	289,396	148,762
267,151	3,378	289,201	148,713
268,166	3,378	288,982	148,586
269,180	3,399	288,870	148,536
270,195	3,244	288,676	148,273
271,209	3,343	288,398	148,213
272,224	3,244	288,187	147,995
273,239	3,191	287,956	147,813
274,253	3,373	287,666	147,826
275,268	3,008	287,606	147,430
276,282	2,978	287,347	147,255
277,297	3,172	287,068	147,286
278,312	3,127	287,116	147,254
279,326	3,231	286,935	147,248
280,341	3,087	286,700	146,976
281,355	3,280	286,429	147,009
282,370	2,968	286,426	146,695
283,384	3,061	286,136	146,622
284,399	3,155	285,823	146,540
285,414	2,988	285,725	146,316
286,428	3,090	285,421	146,245
287,443	3,091	285,240	146,140
288,457	2,987	285,133	145,973
289,472	3,008	284,964	145,893
290,487	2,887	284,676	145,617
291,501	2,823	284,471	145,438
292,516	2,878	284,382	145,432
293,530	2,771	284,253	145,252
294,545	2,918	284,007	145,252
295,560	2,926	283,884	145,184
296,574	2,851	283,690	145,001
297,589	2,759	283,343	144,724
298,603	2,869	283,256	144,770
299,618	2,800	283,045	144,584
300,633	2,871	282,903	144,566
301,647	3,084	282,644	144,622
302,662	2,946	282,673	144,494
303,676	3,038	282,452	144,455
304,691	3,209	282,375	144,564
305,706	3,392	282,074	144,570
306,720	3,273	281,978	144,396
307,735	3,184	281,702	144,157
308,749	3,254	281,597	144,157
309,764	3,342	281,409	144,130
310,779	3,292	281,255	143,992
311,793	3,211	280,920	143,732
312,808	3,168	280,736	143,585
313,822	2,994	280,569	143,323
314,837	3,138	280,267	143,291
315,852	3,121	280,283	143,270
316,866	3,214	280,137	143,269
317,881	3,175	279,847	143,072
318,895	3,112	279,636	142,893
319,910	3,118	279,534	142,834
320,925	2,974	279,298	142,566
321,939	3,171	279,191	142,682
322,954	3,124	279,051	142,554
323,968	3,172	279,023	142,572
324,983	3,193	278,739	142,434
325,997	3,272	278,572	142,409
327,012	3,171	278,441	142,235
328,027	3,377	278,125	142,252
329,041	3,282	278,020	142,098
330,056	3,445	277,725	142,085
331,070	3,389	277,566	141,940
332,085	3,206	277,383	141,664
333,100	3,241	277,314	141,649
334,114	3,038	277,109	141,343
335,129	3,324	276,781	141,427
336,143	3,391	276,596	141,382
337,158	3,242	276,531	141,199
338,173	3,251	276,345	141,100
339,187	3,055	276,314	140,890
340,202	3,246	276,067	140,928
341,216	3,208	275,862	140,776
342,231	3,161	275,674	140,624
343,246	3,192	275,526	140,565
344,260	3,255	275,421	140,557
345,275	3,389	275,289	140,599
346,289	3,469	274,996	140,511
347,304	3,419	274,766	140,334
348,319	3,221	274,654	140,084
349,333	3,136	274,467	139,898
350,348	3,325	274,173	139,909
351,362	3,356	274,183	139,930
352,377	3,122	273,983	139,601
353,392	3,513	273,571	139,735
354,406	3,211	273,575	139,450
355,421	191,376	1351,064	1431,337
356,435	154,520	1482,438	1431,474
