DTS Sentinel unit serial number:	SN410029Multiplexer serial number:	ORYXHardware model number:	OX2-SRSoftware version number:	ORYX F/W v4,00 Oryx Data Collector v3.7.2.0data status	okinstallation	B4 Nyhavnadifferential loss correction	single-endedforward channel	channel 2reverse channel	N/Adate	2023/12/19time	02:55:13forward acquisition time	300,00reverse acquisition time	0,00gamma	499,1914k internal	0,3125k external	0,3125temperature offset calibration	1,0000default loss term (dB/km)	0,3820temperature slope calibration	1,0000multiplexer offset coefficient	1,0000multiplexer slope coefficient	1,0000fibre end	0,00T internal ref (°C)	21,21T ext. ref 1 (°C)	6,01T ext. ref 2 (°C)	5,99length (m)	temperature (°C)	Stokes	anti-Stokes-744,400	153,314	0,111	-0,113
-743,385	306,815	-0,094	0,130
-742,371	-200,000	0,008	-0,107
-741,356	41,935	-0,230	0,155
-740,342	390,361	-0,013	0,019
-739,327	320,728	-0,108	0,154
-738,312	-200,000	0,007	-0,064
-737,298	-113,178	-0,298	-0,043
-736,283	68,388	-0,073	-0,056
-735,269	281,054	-0,071	0,095
-734,254	-200,000	0,010	-0,047
-733,239	-88,890	-0,433	-0,095
-732,225	-23,482	0,145	-0,065
-731,210	-25,167	-0,082	-0,036
-730,196	-152,855	0,027	-0,001
-729,181	-159,364	0,089	-0,004
-728,167	-58,318	0,043	-0,014
-727,152	-200,000	0,015	0,068
-726,137	-155,190	-0,088	-0,004
-725,123	250,183	0,017	0,022
-724,108	356,337	0,075	0,112
-723,094	66,473	-0,066	0,050
-722,079	-49,064	-0,067	-0,024
-721,064	-200,000	0,002	0,008
-720,050	800,000	-0,007	0,016
-719,035	-151,399	0,136	-0,007
-718,021	284,003	-0,071	-0,095
-717,006	-47,198	-0,182	-0,066
-715,991	256,826	-0,026	0,034
-714,977	-57,024	-0,107	-0,035
-713,962	-93,043	-0,109	0,022
-712,948	-49,460	-0,127	0,045
-711,933	172,267	-0,064	0,068
-710,918	129,417	-0,079	-0,075
-709,904	-6,471	0,018	0,009
-708,889	101,915	-0,059	-0,051
-707,875	-200,000	-0,008	0,041
-706,860	-131,259	0,094	-0,009
-705,845	-200,000	0,018	-0,124
-704,831	106,842	-0,031	0,027
-703,816	800,000	-0,063	0,171
-702,802	133,803	-0,086	0,083
-701,787	800,000	-0,018	0,056
-700,772	-41,861	-0,004	0,001
-699,758	-124,516	-0,131	0,015
-698,743	-200,000	-0,005	0,054
-697,729	456,462	-0,019	-0,031
-696,714	-2,533	-0,131	0,068
-695,699	185,319	-0,037	-0,041
-694,685	-85,128	-0,053	-0,012
-693,670	-200,000	-0,010	-0,135
-692,656	43,144	-0,142	-0,096
-691,641	-200,000	-0,010	-0,055
-690,627	198,194	0,076	-0,086
-689,612	-79,245	0,050	-0,013
-688,597	800,000	-0,019	-0,043
-687,583	395,073	-0,037	-0,057
-686,568	60,657	-0,147	-0,108
-685,554	205,708	0,064	-0,074
-684,539	164,576	0,053	-0,056
-683,524	67,986	-0,146	-0,111
-682,510	-200,000	-0,036	0,174
-681,495	-9,221	0,068	-0,034
-680,481	475,462	-0,047	-0,078
-679,466	-179,231	0,038	-0,001
-678,451	177,092	0,037	-0,040
-677,437	-64,226	0,055	-0,016
-676,422	-109,452	0,072	-0,011
-675,408	100,816	-0,134	0,115
-674,393	800,000	0,044	0,108
-673,378	-200,000	0,016	0,052
-672,364	-200,000	-0,012	-0,104
-671,349	220,414	-0,101	0,121
-670,335	736,133	0,021	-0,042
-669,320	800,000	0,012	0,035
-668,305	164,741	0,102	0,107
-667,291	45,773	0,159	-0,109
-666,276	428,303	0,009	0,014
-665,262	-200,000	-0,034	-0,157
-664,247	20,807	0,038	0,023
-663,232	800,000	-0,018	0,045
-662,218	558,627	0,048	-0,087
-661,203	338,223	0,078	0,113
-660,189	-130,961	-0,126	-0,012
-659,174	-200,000	0,000	-0,080
-658,159	-70,806	-0,111	-0,031
-657,145	-200,000	-0,002	-0,011
-656,130	367,284	-0,054	0,081
-655,116	24,304	-0,057	-0,035
-654,101	380,324	0,078	0,119
-653,086	483,085	0,042	0,072
-652,072	-200,000	-0,001	0,108
-651,057	-81,638	-0,114	-0,028
-650,043	-9,162	-0,097	-0,048
-649,028	4,414	-0,061	0,033
-648,014	44,509	-0,120	-0,082
-646,999	-200,000	0,009	-0,129
-645,984	-70,205	0,061	0,017
-644,970	-59,665	-0,087	0,028
-643,955	11,239	0,055	-0,031
-642,941	-200,000	-0,047	-0,202
-641,926	-200,000	-0,020	-0,110
-640,911	38,726	-0,080	-0,053
-639,897	26,380	0,061	-0,038
-638,882	800,000	-0,018	-0,048
-637,868	-200,000	-0,027	0,205
-636,853	-200,000	-0,006	-0,040
-635,838	-110,688	-0,049	0,007
-634,824	359,979	0,032	0,048
-633,809	-82,571	0,132	0,031
-632,795	286,800	0,104	0,139
-631,780	-94,267	-0,024	-0,005
-630,765	800,000	0,020	-0,044
-629,751	-3,000	-0,099	-0,051
-628,736	19,997	-0,151	-0,090
-627,722	353,320	0,013	0,020
-626,707	-200,000	-0,013	0,098
-625,692	-87,495	0,026	-0,006
-624,678	55,483	-0,068	0,049
-623,663	162,116	0,065	0,068
-622,649	-200,000	0,020	-0,094
-621,634	-200,000	-0,007	-0,057
-620,619	800,000	-0,021	-0,055
-619,605	30,918	-0,051	0,032
-618,590	289,947	-0,012	-0,016
-617,576	-11,767	0,114	-0,055
-616,561	-166,438	0,047	0,001
-615,546	167,481	-0,035	-0,037
-614,532	-40,756	-0,015	-0,006
-613,517	310,916	-0,023	0,032
-612,503	26,026	-0,063	0,039
-611,488	11,196	0,029	-0,016
-610,474	-77,858	-0,060	0,015
-609,459	-200,000	-0,002	0,061
-608,444	254,241	-0,028	-0,035
-607,430	487,387	-0,015	-0,026
-606,415	-146,017	0,088	-0,006
-605,401	-200,000	0,039	-0,152
-604,386	3,107	0,073	-0,039
-603,371	151,593	-0,083	0,083
-602,357	291,237	0,073	-0,098
-601,342	94,343	-0,035	0,029
-600,328	50,395	-0,065	0,046
-599,313	453,783	0,036	-0,059
-598,298	800,000	-0,028	-0,070
-597,284	-63,211	0,051	-0,016
-596,269	261,109	-0,014	0,018
-595,255	-200,000	0,006	0,057
-594,240	-200,000	0,029	-0,159
-593,225	-200,000	-0,033	-0,147
-592,211	78,953	-0,065	-0,052
-591,196	-110,519	0,059	0,009
-590,182	283,833	-0,020	0,026
-589,167	-114,484	-0,026	-0,004
-588,152	-46,622	0,091	-0,033
-587,138	-162,630	-0,050	0,002
-586,123	-200,000	0,028	-0,100
-585,109	83,110	0,066	0,053
-584,094	119,050	-0,063	0,057
-583,079	49,444	0,078	0,054
-582,065	-200,000	0,018	0,130
-581,050	-118,218	0,106	0,014
-580,036	257,477	-0,043	0,055
-579,021	-200,000	0,007	0,128
-578,006	-200,000	0,003	0,034
-576,992	686,935	-0,047	-0,092
-575,977	174,318	0,099	-0,106
-574,963	-9,922	0,069	-0,034
-573,948	-90,947	0,131	-0,028
-572,934	-200,000	0,003	-0,071
-571,919	-94,519	-0,061	-0,012
-570,904	800,000	-0,047	-0,109
-569,890	488,127	-0,026	-0,043
-568,875	95,145	0,145	0,122
-567,861	-99,765	0,031	0,006
-566,846	800,000	0,071	0,189
-565,831	360,164	-0,016	-0,024
-564,817	-145,533	-0,052	0,003
-563,802	-200,000	0,003	-0,059
-562,788	-200,000	0,037	-0,165
-561,773	-200,000	0,025	0,094
-560,758	90,950	0,182	-0,151
-559,744	-69,350	0,101	-0,028
-558,729	-114,702	0,121	0,017
-557,715	655,915	0,020	-0,037
-556,700	-95,873	-0,094	-0,018
-555,685	-127,295	-0,112	-0,012
-554,671	44,811	-0,021	-0,014
-553,656	-1,987	0,122	-0,063
-552,642	-153,226	0,105	0,005
-551,627	-200,000	0,018	0,179
-550,612	44,218	-0,055	-0,037
-549,598	53,056	-0,030	0,021
-548,583	-200,000	-0,022	-0,101
-547,569	-47,422	-0,056	0,020
-546,554	800,000	0,033	0,099
-545,539	48,107	0,126	0,087
-544,525	213,987	0,014	0,016
-543,510	-7,485	0,043	0,022
-542,496	187,346	0,015	0,016
-541,481	-92,410	-0,012	-0,002
-540,466	-200,000	0,021	-0,070
-539,452	-155,862	-0,090	-0,004
-538,437	3,575	-0,055	0,030
-537,423	-200,000	0,021	-0,098
-536,408	13,942	0,070	-0,040
-535,393	88,817	-0,173	-0,142
-534,379	432,493	-0,042	-0,067
-533,364	585,681	0,106	-0,194
-532,350	-200,000	-0,002	-0,042
-531,335	800,000	0,095	-0,197
-530,321	1,943	0,167	-0,088
-529,306	-200,000	-0,041	-0,135
-528,291	-113,769	-0,249	0,035
-527,277	285,047	-0,051	0,069
-526,262	-200,000	0,014	0,055
-525,248	800,000	0,071	0,195
-524,233	-53,838	0,081	-0,027
-523,218	90,406	0,080	0,066
-522,204	800,000	-0,029	-0,071
-521,189	761,168	0,046	-0,092
-520,175	24,467	-0,220	-0,134
-519,160	-13,827	-0,075	-0,036
-518,145	62,777	0,149	-0,110
-517,131	-200,000	-0,020	-0,105
-516,116	531,597	0,044	-0,077
-515,102	221,921	-0,085	0,101
-514,087	37,416	-0,032	-0,021
-513,072	-130,653	0,094	-0,009
-512,058	-145,110	0,079	-0,005
-511,043	-200,000	-0,025	0,098
-510,029	800,000	-0,033	0,088
-509,014	-200,000	-0,002	-0,029
-507,999	-105,924	0,080	0,013
-506,985	-12,809	0,013	0,006
-505,970	-200,000	-0,018	0,062
-504,956	73,576	-0,050	-0,038
-503,941	295,223	0,079	-0,107
-502,926	800,000	0,016	-0,035
-501,912	-102,087	0,190	-0,033
-500,897	16,933	0,079	-0,046
-499,883	-200,000	-0,007	0,057
-498,868	-96,705	-0,119	-0,023
-497,853	-200,000	-0,060	-0,226
-496,839	-200,000	-0,024	0,083
-495,824	89,076	0,057	0,047
-494,810	122,102	-0,061	-0,056
-493,795	-52,237	0,193	0,066
-492,781	291,804	-0,061	-0,082
-491,766	-168,807	-0,025	0,001
-490,751	-87,282	-0,085	0,019
-489,737	184,714	0,037	0,040
-488,722	-200,000	-0,006	-0,075
-487,708	404,732	0,071	0,110
-486,693	800,000	-0,014	0,032
-485,678	-4,740	-0,110	-0,056
-484,664	114,909	-0,038	-0,034
-483,649	178,893	-0,068	-0,073
-482,635	797,661	-0,031	-0,062
-481,620	8,539	-0,045	0,025
-480,605	-157,543	0,091	-0,004
-479,591	-200,000	0,002	-0,123
-478,576	-200,000	0,000	-0,002
-477,562	-33,121	-0,210	-0,085
-476,547	-200,000	-0,008	-0,030
-475,532	800,000	0,020	-0,043
-474,518	-200,000	0,008	-0,211
-473,503	-80,531	0,164	0,040
-472,489	800,000	0,037	-0,082
-471,474	101,283	-0,061	-0,052
-470,459	-131,079	-0,102	-0,010
-469,445	-156,229	-0,034	0,002
-468,430	-176,654	0,098	-0,002
-467,416	-200,000	0,043	0,166
-466,401	-124,830	0,186	-0,021
-465,386	800,000	-0,005	0,015
-464,372	-19,945	0,092	0,042
-463,357	198,815	-0,080	0,090
-462,343	-200,000	-0,008	0,034
-461,328	-80,698	-0,033	-0,008
-460,313	25,076	-0,017	-0,010
-459,299	-200,000	0,023	0,093
-458,284	-200,000	-0,039	0,000
-457,270	-138,583	-0,088	-0,007
-456,255	-200,000	0,038	-0,145
-455,241	-200,000	-0,004	-0,019
-454,226	20,581	0,164	0,097
-453,211	50,911	-0,032	0,022
-452,197	-59,028	-0,134	0,042
-451,182	137,409	0,066	0,063
-450,168	-83,546	-0,068	0,016
-449,153	-142,806	-0,121	0,009
-448,138	-65,846	-0,107	0,031
-447,124	-200,000	-0,011	-0,052
-446,109	-200,000	0,021	0,115
-445,095	0,932	0,127	0,067
-444,080	773,085	0,033	-0,066
-443,065	800,000	0,045	0,128
-442,051	-55,006	0,090	0,030
-441,036	-200,000	0,017	-0,055
-440,022	800,000	0,034	-0,080
-439,007	528,424	-0,017	-0,029
-437,992	482,292	0,092	-0,154
-436,978	800,000	-0,049	-0,101
-435,963	800,000	0,019	0,051
-434,949	240,676	0,053	0,065
-433,934	-0,332	0,025	0,013
-432,919	-12,108	-0,089	-0,042
-431,905	386,412	0,040	-0,062
-430,890	359,158	0,077	0,114
-429,876	-200,000	0,016	0,116
-428,861	279,104	0,022	0,029
-427,846	-200,000	0,003	0,018
-426,832	79,804	-0,082	0,065
-425,817	307,819	-0,045	0,061
-424,803	209,188	-0,041	0,047
-423,788	-64,658	-0,067	0,020
-422,773	-131,492	0,251	0,024
-421,759	-200,000	-0,015	0,150
-420,744	-26,865	-0,031	0,013
-419,730	-200,000	-0,002	0,008
-418,715	84,199	-0,045	0,036
-417,701	-200,000	0,013	0,110
-416,686	800,000	0,054	-0,128
-415,671	-200,000	-0,027	0,126
-414,657	158,392	0,088	-0,089
-413,642	17,554	-0,054	-0,031
-412,628	-200,000	-0,028	-0,090
-411,613	135,548	-0,065	-0,062
-410,598	-58,190	-0,115	-0,037
-409,584	67,526	-0,082	0,061
-408,569	302,115	-0,012	0,017
-407,555	140,226	-0,091	0,089
-406,540	-61,271	-0,070	0,021
-405,525	299,940	0,093	-0,126
-404,511	-23,782	-0,096	0,042
-403,496	-200,000	0,023	-0,100
-402,482	800,000	0,022	-0,050
-401,467	-0,070	-0,110	-0,057
-400,452	-200,000	0,012	0,091
-399,438	107,714	0,127	0,111
-398,423	114,900	0,042	0,037
-397,409	800,000	0,058	-0,166
-396,394	385,334	-0,034	-0,052
-395,379	236,616	-0,122	-0,148
-394,365	126,494	0,140	0,130
-393,350	-36,757	-0,044	-0,017
-392,336	800,000	0,019	-0,041
-391,321	239,702	0,020	-0,024
-390,306	251,672	0,066	-0,082
-389,292	800,000	-0,053	0,113
-388,277	-122,471	-0,073	-0,009
-387,263	-25,148	0,104	0,045
-386,248	220,604	0,056	0,067
-385,233	-151,805	-0,040	-0,002
-384,219	324,252	0,054	0,076
-383,204	150,767	0,114	-0,114
-382,190	-58,664	-0,127	-0,040
-381,175	800,000	-0,058	0,144
-380,160	-200,000	-0,030	0,110
-379,146	489,562	-0,070	0,118
-378,131	131,841	0,138	0,131
-377,117	153,932	-0,071	0,071
-376,102	-200,000	-0,022	0,082
-375,088	-108,386	-0,076	-0,012
-374,073	-200,000	-0,005	0,092
-373,058	56,306	-0,119	0,085
-372,044	-16,338	0,118	0,055
-371,029	-35,432	-0,060	0,024
-370,015	91,541	0,075	0,062
-369,000	-200,000	-0,000	0,100
-367,985	-200,000	-0,019	0,086
-366,971	225,601	0,109	-0,130
-365,956	-50,238	-0,130	-0,045
-364,942	-174,163	0,099	0,002
-363,927	-200,000	0,010	0,140
-362,912	76,431	0,070	0,054
-361,898	-40,567	-0,039	-0,015
-360,883	201,011	0,071	0,080
-359,869	436,381	0,011	-0,018
-358,854	185,986	0,035	-0,038
-357,839	70,152	-0,024	-0,018
-356,825	222,411	-0,047	0,056
-355,810	-17,622	0,045	-0,021
-354,796	186,118	0,013	0,015
-353,781	20,431	-0,081	-0,048
-352,766	57,662	0,027	-0,019
-351,752	737,468	0,042	0,084
-350,737	98,967	0,120	0,102
-349,723	800,000	0,007	-0,021
-348,708	-200,000	0,018	0,072
-347,693	-146,219	-0,099	0,006
-346,679	-73,475	-0,100	0,027
-345,664	-200,000	0,012	0,056
-344,650	-200,000	0,018	0,078
-343,635	215,237	-0,049	-0,057
-342,620	-50,101	-0,077	-0,027
-341,606	-6,203	0,065	-0,033
-340,591	-166,598	-0,169	-0,005
-339,577	-154,770	-0,128	0,006
-338,562	800,000	-0,046	-0,124
-337,548	567,873	-0,016	-0,029
-336,533	-200,000	-0,008	-0,141
-335,518	410,549	0,060	0,094
-334,504	-147,581	0,064	0,004
-333,489	-200,000	-0,023	0,134
-332,475	-129,911	0,155	0,015
-331,460	-200,000	0,001	-0,043
-330,445	229,207	-0,044	0,052
-329,431	-200,000	0,023	0,088
-328,416	43,527	-0,069	-0,046
-327,402	497,191	0,038	-0,064
-326,387	179,902	-0,110	0,119
-325,372	40,537	-0,131	-0,086
-324,358	18,477	-0,039	0,023
-323,343	162,649	0,019	0,020
-322,329	800,000	-0,021	-0,066
-321,314	-200,000	-0,035	0,177
-320,299	137,893	0,052	-0,050
-319,285	433,335	-0,021	0,034
-318,270	800,000	0,016	-0,036
-317,256	-43,909	-0,131	-0,048
-316,241	800,000	0,010	-0,029
-315,226	65,572	-0,060	-0,044
-314,212	800,000	0,052	0,141
-313,197	800,000	0,005	0,011
-312,183	-200,000	-0,059	0,278
-311,168	111,390	0,101	-0,089
-310,153	39,466	-0,107	-0,070
-309,139	146,144	0,063	-0,062
-308,124	-200,000	-0,023	0,110
-307,110	-200,000	-0,045	0,163
-306,095	717,095	-0,035	0,069
-305,080	-200,000	0,004	-0,064
-304,066	800,000	-0,032	-0,079
-303,051	-145,244	-0,054	0,004
-302,037	-200,000	-0,008	-0,041
-301,022	800,000	-0,017	0,053
-300,008	-85,764	0,178	0,040
-298,993	-55,388	-0,080	-0,026
-297,978	-19,962	0,109	0,049
-296,964	-140,705	-0,079	-0,006
-295,949	-38,996	0,096	-0,037
-294,935	800,000	-0,051	0,106
-293,920	-1,344	0,242	-0,125
-292,905	376,207	-0,035	-0,052
-291,891	-112,107	0,106	0,015
-290,876	567,272	0,031	-0,055
-289,862	-36,677	-0,141	-0,055
-288,847	-32,971	-0,082	0,033
-287,832	-200,000	0,027	0,123
-286,818	168,881	0,076	-0,079
-285,803	-200,000	-0,022	0,077
-284,789	12,332	0,087	-0,049
-283,774	-36,031	-0,077	-0,030
-282,759	91,297	-0,028	-0,023
-281,745	-156,031	0,003	0,000
-280,730	800,000	-0,020	-0,061
-279,716	-14,932	-0,061	-0,028
-278,701	-200,000	0,024	-0,076
-277,686	166,168	0,051	0,053
-276,672	-200,000	-0,012	0,146
-275,657	40,555	-0,010	-0,006
-274,643	800,000	0,094	-0,277
-273,628	186,928	0,044	-0,048
-272,613	342,015	-0,061	-0,088
-271,599	800,000	-0,044	0,128
-270,584	800,000	-0,016	0,045
-269,570	-108,967	-0,027	0,004
-268,555	-60,714	0,014	-0,004
-267,540	800,000	-0,058	-0,121
-266,526	800,000	-0,042	-0,135
-265,511	19,936	0,091	0,053
-264,497	523,965	0,017	0,029
-263,482	-200,000	-0,011	0,060
-262,467	64,876	0,005	-0,004
-261,453	-200,000	0,019	-0,094
-260,438	-22,868	-0,062	-0,027
-259,424	-71,605	-0,105	-0,029
-258,409	165,545	-0,153	-0,158
-257,395	-55,712	0,047	0,015
-256,380	376,164	0,051	-0,076
-255,365	-200,000	0,013	0,088
-254,351	-19,840	-0,199	0,089
-253,336	-200,000	-0,011	0,074
-252,322	-25,682	-0,172	-0,074
-251,307	-147,840	0,085	0,005
-250,292	800,000	-0,040	-0,097
-249,278	379,760	0,087	-0,131
-248,263	55,739	-0,097	0,069
-247,249	800,000	-0,023	0,062
-246,234	-155,505	-0,020	0,001
-245,219	-116,469	-0,152	0,020
-244,205	-39,715	-0,135	-0,051
-243,190	79,009	0,048	0,037
-242,176	134,698	0,079	-0,075
-241,161	160,925	0,066	-0,067
-240,146	800,000	0,044	-0,129
-239,132	15,926	-0,071	-0,041
-238,117	794,052	-0,048	0,096
-237,103	337,796	-0,062	0,088
-236,088	11,252	0,084	0,047
-235,073	-200,000	-0,010	-0,079
-234,059	639,059	-0,050	0,093
-233,044	41,022	-0,132	0,087
-232,030	-200,000	0,001	0,025
-231,015	800,000	-0,069	-0,154
-230,000	391,810	0,082	0,124
-228,986	17,582	0,150	0,087
-227,971	110,574	-0,041	-0,036
-226,957	800,000	0,015	-0,033
-225,942	347,383	0,062	0,090
-224,927	218,518	-0,023	0,027
-223,913	800,000	-0,060	-0,146
-222,898	800,000	-0,057	-0,136
-221,884	-35,836	0,063	-0,025
-220,869	-141,585	-0,109	0,008
-219,855	800,000	-0,026	-0,074
-218,840	-24,340	0,054	-0,024
-217,825	123,603	-0,130	-0,119
-216,811	395,372	0,068	-0,104
-215,796	800,000	-0,059	-0,145
-214,782	-87,977	0,032	-0,007
-213,767	688,240	0,025	0,048
-212,752	198,020	0,063	0,071
-211,738	122,769	-0,154	0,141
-210,723	-191,224	0,115	-0,001
-209,709	327,724	0,049	0,068
-208,694	-3,353	0,040	-0,020
-207,679	76,454	-0,091	-0,070
-206,665	29,710	-0,037	0,023
-205,650	800,000	0,040	0,082
-204,636	208,424	0,074	-0,085
-203,621	-83,876	-0,017	-0,004
-202,606	34,253	0,133	0,085
-201,592	604,542	0,010	0,018
-200,577	99,643	-0,062	0,053
-199,563	800,000	-0,032	-0,070
-198,548	151,398	0,041	0,041
-197,533	-200,000	-0,013	0,153
-196,519	152,669	0,053	0,053
-195,504	112,494	0,047	0,041
-194,490	98,555	-0,082	-0,069
-193,475	800,000	-0,022	-0,067
-192,460	307,088	-0,070	0,095
-191,446	450,192	0,028	-0,045
-190,431	554,893	-0,049	0,086
-189,417	44,730	0,081	-0,054
-188,402	164,787	0,093	0,096
-187,387	145,364	-0,103	0,100
-186,373	-62,684	-0,083	-0,025
-185,358	693,170	0,014	0,026
-184,344	352,688	0,104	0,151
-183,329	-200,000	0,011	0,103
-182,315	800,000	0,006	-0,016
-181,300	111,645	0,085	0,075
-180,285	800,000	0,034	-0,076
-179,271	350,798	0,013	0,019
-178,256	371,843	-0,045	0,067
-177,242	165,593	0,059	0,061
-176,227	800,000	0,023	-0,054
-175,212	-52,265	0,030	0,010
-174,198	443,078	0,063	-0,102
-173,183	-119,000	-0,018	0,002
-172,169	-11,154	0,094	0,045
-171,154	-200,000	-0,006	0,033
-170,139	800,000	0,044	0,105
-169,125	96,600	0,009	0,007
-168,110	146,379	0,053	0,052
-167,096	104,373	0,102	0,087
-166,081	179,084	-0,024	0,026
-165,066	-200,000	0,009	-0,079
-164,052	242,830	-0,099	-0,121
-163,037	493,631	-0,021	-0,035
-162,023	66,868	0,012	0,009
-161,008	-123,531	0,103	-0,012
-159,993	156,945	-0,074	0,074
-158,979	-200,000	0,010	0,069
-157,964	11,278	-0,151	0,084
-156,950	800,000	-0,017	-0,043
-155,935	-98,470	-0,117	0,022
-154,920	31,496	0,122	0,076
-153,906	533,114	0,084	0,145
-152,891	-200,000	-0,021	0,148
-151,877	-200,000	-0,012	-0,039
-150,862	-200,000	0,044	-0,172
-149,847	-84,217	-0,094	0,021
-148,833	-144,465	-0,072	0,005
-147,818	-200,000	-0,002	0,039
-146,804	0,902	-0,177	-0,092
-145,789	23,211	0,092	0,055
-144,775	-132,355	-0,041	-0,004
-143,760	87,810	-0,087	0,070
-142,745	63,280	-0,152	-0,111
-141,731	-200,000	-0,015	-0,079
-140,716	-200,000	0,002	0,143
-139,702	114,598	0,065	-0,057
-138,687	123,958	-0,103	-0,094
-137,672	-67,289	-0,125	0,036
-136,658	-200,000	-0,110	0,000
-135,643	800,000	-0,069	-0,177
-134,629	351,352	-0,080	-0,116
-133,614	50,480	0,076	-0,052
-132,599	-200,000	-0,023	0,112
-131,585	788,311	0,014	0,027
-130,570	-56,610	-0,069	-0,022
-129,556	-200,000	0,028	0,097
-128,541	-27,313	-0,062	0,026
-127,526	44,564	-0,071	0,047
-126,512	2,536	0,094	0,049
-125,497	-58,419	0,096	-0,030
-124,483	126,294	0,036	0,033
-123,468	-83,259	0,200	0,046
-122,453	69,782	-0,092	-0,069
-121,439	-4,615	-0,040	0,020
-120,424	-0,051	0,072	0,037
-119,410	-30,994	0,043	0,017
-118,395	-164,055	0,051	-0,002
-117,380	-200,000	0,004	0,154
-116,366	260,220	-0,020	-0,025
-115,351	800,000	-0,057	-0,121
-114,337	-129,133	0,040	0,004
-113,322	800,000	0,007	-0,019
-112,307	650,460	-0,021	0,039
-111,293	-145,619	0,084	-0,005
-110,278	465,678	-0,028	-0,045
-109,264	800,000	-0,034	0,073
-108,249	503,863	-0,048	-0,081
-107,234	75,934	0,009	-0,007
-106,220	-200,000	-0,015	0,106
-105,205	-126,746	0,114	-0,012
-104,191	93,435	0,031	0,026
-103,176	-200,000	-0,003	-0,016
-102,162	-200,000	0,004	0,079
-101,147	214,936	-0,024	-0,028
-100,132	-200,000	0,027	-0,124
-99,118	101,392	0,053	-0,044
-98,103	-200,000	-0,015	-0,122
-97,089	-89,412	0,100	0,021
-96,074	800,000	0,054	-0,149
-95,059	-15,702	0,151	-0,070
-94,045	274,074	-0,016	-0,021
-93,030	-200,000	0,007	-0,032
-92,016	800,000	-0,028	-0,079
-91,001	-200,000	0,022	0,073
-89,986	-118,384	0,041	-0,005
-88,972	800,000	-0,043	0,112
-87,957	-115,007	0,132	0,018
-86,943	-58,146	0,041	-0,013
-85,928	-200,000	-0,000	-0,041
-84,913	-200,000	0,008	-0,073
-83,899	-36,698	-0,041	-0,016
-82,884	31,680	-0,043	0,027
-81,870	141,208	0,030	-0,028
-80,855	119,759	0,065	0,059
-79,840	-9,442	0,025	-0,012
-78,826	-58,472	-0,048	0,015
-77,811	-200,000	0,015	0,055
-76,797	-155,569	0,100	-0,005
-75,782	-68,121	-0,099	0,028
-74,767	-29,425	0,089	0,037
-73,753	-126,349	0,148	-0,016
-72,738	314,463	0,030	0,041
-71,724	-200,000	0,024	-0,087
-70,709	-200,000	0,010	-0,064
-69,694	800,000	-0,047	-0,101
-68,680	72,583	0,127	-0,096
-67,665	-26,706	-0,120	-0,051
-66,651	-70,960	-0,087	0,024
-65,636	371,861	-0,092	0,136
-64,622	727,293	0,026	0,050
-63,607	356,578	0,029	-0,042
-62,592	85,649	0,057	0,045
-61,578	-75,536	0,031	-0,008
-60,563	533,723	-0,027	0,047
-59,549	-51,378	0,018	0,006
-58,534	-116,757	-1,467	-0,193
-57,519	692,603	-0,758	-1,447
-56,505	-200,000	-0,907	-4,315
-55,490	-12,311	0,548	-0,259
-54,476	800,000	4,960	11,605
-53,461	-200,000	14,531	262,166
-52,446	-200,000	696,348	2280,089
-51,432	603,381	1623,059	2940,186
-50,417	117,637	1631,909	1456,417
-49,403	74,954	1285,587	980,957
-48,388	37,142	1022,946	655,377
-47,373	23,386	982,084	583,927
-46,359	22,596	971,255	574,874
-45,344	21,534	966,658	568,662
-44,330	21,401	965,536	567,546
-43,315	21,257	963,913	566,098
-42,300	21,262	963,002	565,556
-41,286	21,255	962,025	564,938
-40,271	21,253	960,623	564,088
-39,257	21,190	960,012	563,501
-38,242	21,264	958,963	563,103
-37,227	21,216	958,355	562,567
-36,213	21,255	957,170	561,977
-35,198	21,159	956,380	561,181
-34,184	21,254	955,722	561,079
-33,169	21,194	954,816	560,331
-32,154	21,300	953,881	560,100
-31,140	21,304	952,952	559,546
-30,125	21,317	952,266	559,162
-29,111	21,279	951,451	558,540
-28,096	21,245	950,824	558,041
-27,082	21,266	950,064	557,640
-26,067	21,241	949,287	557,081
-25,052	21,218	948,586	556,574
-24,038	21,273	948,035	556,405
-23,023	21,274	947,149	555,865
-22,009	21,334	946,599	555,714
-20,994	21,243	945,989	555,044
-19,979	21,234	945,560	554,740
-18,965	21,288	944,934	554,523
-17,950	21,215	944,316	553,905
-16,936	21,196	943,453	553,315
-15,921	21,161	942,803	552,801
-14,906	21,101	942,154	552,209
-13,892	21,123	941,508	551,877
-12,877	21,134	940,878	551,521
-11,863	21,090	940,353	551,051
-10,848	21,108	939,638	550,669
-9,833	21,224	939,276	550,804
-8,819	21,231	938,664	550,445
-7,804	21,160	937,946	549,775
-6,790	21,108	937,445	549,295
-5,775	21,183	936,682	549,065
-4,760	21,205	936,025	548,729
-3,746	21,091	935,548	548,064
-2,731	20,993	934,722	547,252
-1,717	20,948	934,127	546,738
-0,702	20,964	933,347	546,309
0,313	20,760	932,706	546,116
1,327	23,297	930,372	552,678
2,342	30,790	807,603	500,039
3,356	25,299	508,208	305,271
4,371	0,656	373,821	193,147
5,386	-2,221	356,967	180,888
6,400	-3,233	350,967	176,606
7,415	-3,699	348,500	174,789
8,429	-3,761	347,300	174,098
9,444	-3,779	346,140	173,480
10,459	-3,639	345,603	173,362
11,473	-3,656	344,887	172,967
12,488	-3,728	344,379	172,611
13,502	-3,669	343,738	172,345
14,517	-3,518	343,367	172,322
15,531	-3,483	342,888	172,108
16,546	-3,470	342,375	171,850
17,561	-3,595	341,986	171,492
18,575	-3,434	341,662	171,504
19,590	-3,532	341,124	171,103
20,604	-3,442	340,875	171,069
21,619	-3,586	340,558	170,725
22,634	-3,507	340,091	170,568
23,648	-3,554	339,775	170,340
24,663	-3,408	339,381	170,298
25,677	-3,522	339,169	170,043
26,692	-3,478	338,800	169,894
27,707	-3,564	338,696	169,727
28,721	-3,558	338,248	169,494
29,736	-3,476	338,074	169,487
30,750	-3,639	337,764	169,128
31,765	-3,477	337,361	169,098
32,780	-3,463	336,966	168,902
33,794	-3,394	336,945	168,955
34,809	-3,480	336,493	168,616
35,823	-3,588	336,327	168,392
36,838	-3,522	335,939	168,259
37,853	-3,507	335,663	168,123
38,867	-3,557	335,364	167,900
39,882	-3,644	335,160	167,683
40,896	-3,492	334,826	167,676
41,911	-3,539	334,506	167,446
42,926	-3,473	334,263	167,386
43,940	-3,456	334,077	167,297
44,955	-3,399	333,619	167,118
45,969	-3,548	333,609	166,927
46,984	-3,355	333,276	166,967
47,999	-3,408	333,172	166,839
49,013	-3,446	332,797	166,593
50,028	-3,459	332,603	166,466
51,042	-3,361	332,224	166,373
52,057	-3,465	332,041	166,149
53,071	-3,426	331,808	166,062
54,086	-3,366	331,573	165,998
55,101	-3,309	331,199	165,861
56,115	-3,271	330,976	165,777
57,130	-3,561	330,803	165,346
58,144	-3,541	330,324	165,114
59,159	-3,402	330,048	165,120
60,174	-3,474	329,829	164,913
61,188	-3,622	329,566	164,600
62,203	-3,428	329,392	164,718
63,217	-3,547	328,985	164,366
64,232	-3,385	328,831	164,457
65,247	-3,548	328,592	164,139
66,261	-3,493	328,242	164,011
67,276	-3,499	328,068	163,902
68,290	-3,468	327,795	163,787
69,305	-3,613	327,635	163,530
70,320	-3,479	327,283	163,490
71,334	-3,446	327,109	163,425
72,349	-3,271	326,693	163,399
73,363	-3,569	326,566	162,986
74,378	-3,532	326,309	162,886
75,393	-3,484	326,023	162,781
76,407	-3,533	325,850	162,626
77,422	-3,481	325,454	162,472
78,436	-3,444	325,254	162,399
79,451	-3,446	324,878	162,194
80,466	-3,608	324,664	161,893
81,480	-3,443	324,557	162,008
82,495	-3,439	324,198	161,820
83,509	-3,343	323,963	161,794
84,524	-3,315	323,774	161,717
85,539	-3,414	323,618	161,515
86,553	-3,407	323,343	161,370
87,568	-3,486	323,031	161,113
88,582	-3,535	322,804	160,932
89,597	-3,535	322,659	160,845
90,611	-3,300	322,324	160,923
91,626	-3,499	322,132	160,593
92,641	-3,368	321,850	160,582
93,655	-3,395	321,642	160,435
94,670	-3,437	321,379	160,242
95,684	-3,419	321,058	160,089
96,699	-3,512	321,102	159,994
97,714	-3,363	320,680	159,933
98,728	-3,368	320,520	159,833
99,743	-3,420	320,354	159,679
100,757	-3,461	320,056	159,471
101,772	-3,486	319,739	159,272
102,787	-3,577	319,530	159,054
103,801	-3,493	319,363	159,049
104,816	-3,560	319,227	158,893
105,830	-3,495	318,858	158,767
106,845	-3,375	318,571	158,740
107,860	-3,517	318,533	158,552
108,874	-3,357	318,106	158,499
109,889	-3,564	317,894	158,155
110,903	-3,546	317,614	158,021
111,918	-3,497	317,442	157,974
112,933	-3,547	317,147	157,760
113,947	-3,472	317,027	157,767
114,962	-3,370	316,584	157,643
115,976	-3,406	316,542	157,569
116,991	-3,429	316,271	157,396
118,006	-3,565	316,098	157,149
119,020	-3,443	316,022	157,228
120,035	-3,473	315,666	157,005
121,049	-3,431	315,457	156,933
122,064	-3,493	315,384	156,814
123,079	-3,475	314,991	156,625
124,093	-3,469	314,882	156,563
125,108	-3,406	314,652	156,503
126,122	-3,445	314,298	156,271
127,137	-3,290	314,305	156,427
128,151	-3,367	313,933	156,145
129,166	-3,472	313,650	155,878
130,181	-3,462	313,469	155,785
131,195	-3,524	313,198	155,570
132,210	-3,557	313,058	155,451
133,224	-3,557	312,823	155,320
134,239	-3,570	312,530	155,147
135,254	-3,211	312,169	155,336
136,268	-3,475	311,957	154,936
137,283	-3,225	311,806	155,114
138,297	-3,364	311,668	154,882
139,312	-3,561	311,365	154,510
140,327	-3,428	311,166	154,538
141,341	-3,412	310,878	154,398
142,356	-3,460	310,810	154,300
143,370	-3,484	310,431	154,073
144,385	-3,451	310,253	154,006
145,400	-3,316	310,034	154,026
146,414	-3,444	309,787	153,754
147,429	-3,617	309,649	153,490
148,443	-3,416	309,452	153,589
149,458	-3,397	309,178	153,460
150,473	-3,338	308,962	153,402
151,487	-3,496	308,733	153,108
152,502	-3,294	308,485	153,183
153,516	-3,143	308,226	153,200
154,531	-3,351	308,050	152,880
155,546	-3,496	307,808	152,595
156,560	-3,364	307,761	152,696
157,575	-3,177	307,405	152,702
158,589	-3,329	307,049	152,352
159,604	-3,452	306,897	152,134
160,619	-3,300	306,733	152,198
161,633	-3,436	306,484	151,920
162,648	-3,350	306,339	151,924
163,662	-3,491	306,262	151,726
164,677	-3,428	306,003	151,649
165,692	-3,289	305,697	151,629
166,706	-3,379	305,522	151,434
167,721	-3,279	305,330	151,429
168,735	-3,371	305,236	151,274
169,750	-3,239	304,945	151,253
170,764	-3,488	304,882	150,950
171,779	-3,329	304,722	151,022
172,794	-3,439	304,552	150,810
173,808	-3,471	304,263	150,621
174,823	-3,351	303,910	150,557
175,837	-3,297	303,784	150,537
176,852	-3,403	303,558	150,302
177,867	-3,330	303,506	150,337
178,881	-3,496	303,216	150,010
179,896	-3,539	303,009	149,851
180,910	-3,379	302,781	149,889
181,925	-3,421	302,507	149,696
182,940	-3,385	302,325	149,630
183,954	-3,439	302,077	149,438
184,969	-3,346	301,940	149,452
185,983	-3,263	301,666	149,388
186,998	-3,318	301,576	149,274
188,013	-3,251	301,219	149,153
189,027	-3,178	300,997	149,104
190,042	-3,362	300,909	148,860
191,056	-3,444	300,662	148,640
192,071	-3,330	300,407	148,617
193,086	-3,482	300,349	148,420
194,100	-3,490	300,090	148,271
195,115	-3,376	299,881	148,271
196,129	-3,160	299,600	148,338
197,144	-3,290	299,333	148,060
198,159	-3,461	299,186	147,801
199,173	-3,174	298,839	147,907
200,188	-3,368	298,719	147,638
201,202	-3,315	298,663	147,651
202,217	-3,283	298,266	147,474
203,232	-3,331	298,080	147,320
204,246	-3,345	297,804	147,156
205,261	-3,354	297,690	147,078
206,275	-3,360	297,567	146,998
207,290	-3,464	297,550	146,872
208,304	-3,287	297,239	146,883
209,319	-3,379	296,983	146,651
210,334	-3,379	296,697	146,497
211,348	-3,175	296,497	146,590
212,363	-3,276	296,360	146,407
213,377	-3,398	296,177	146,183
214,392	-3,261	295,902	146,170
215,407	-3,299	295,726	146,032
216,421	-3,361	295,460	145,827
217,436	-3,428	295,469	145,751
218,450	-3,490	295,120	145,504
219,465	-3,483	294,975	145,426
220,480	-3,240	294,762	145,550
221,494	-3,357	294,475	145,279
222,509	-3,404	294,449	145,206
223,523	-3,242	294,264	145,263
224,538	-3,250	293,932	145,079
225,553	-3,504	293,800	144,749
226,567	-3,331	293,601	144,809
227,582	-3,307	293,336	144,689
228,596	-3,323	293,275	144,631
229,611	-3,345	293,113	144,516
230,626	-3,184	292,812	144,514
231,640	-3,267	292,700	144,364
232,655	-3,263	292,495	144,254
233,669	-3,349	292,247	144,033
234,684	-3,306	292,040	143,961
235,699	-3,115	291,974	144,104
236,713	-3,089	291,773	144,018
237,728	-3,326	291,508	143,640
238,742	-3,270	291,223	143,543
239,757	-3,488	291,161	143,285
240,772	-3,323	290,750	143,232
241,786	-3,319	290,707	143,202
242,801	-3,326	290,660	143,159
243,815	-3,285	290,329	143,024
244,830	-3,405	290,104	142,782
245,844	-3,363	289,988	142,753
246,859	-3,227	289,706	142,735
247,874	-3,418	289,541	142,455
248,888	-3,434	289,351	142,333
249,903	-3,443	289,348	142,310
250,917	-3,355	288,966	142,194
251,932	-3,478	288,828	141,994
252,947	-3,673	288,538	141,649
253,961	-4,262	288,082	140,840
254,976	-4,710	287,651	140,181
255,990	-4,603	287,517	140,208
257,005	-3,212	288,031	141,797
258,020	-0,869	288,815	144,451
259,034	0,648	289,246	146,131
260,049	1,150	289,132	146,548
261,063	1,464	289,197	146,874
262,078	1,665	289,321	147,119
263,093	2,108	288,990	147,368
264,107	2,296	288,911	147,497
265,122	2,371	288,812	147,505
266,136	2,486	288,612	147,502
267,151	2,509	288,433	147,420
268,166	2,657	288,235	147,448
269,180	2,529	288,070	147,228
270,195	2,424	287,949	147,050
271,209	2,517	287,670	146,985
272,224	2,424	287,528	146,809
273,239	2,419	287,286	146,667
274,253	2,282	287,120	146,439
275,268	2,308	286,808	146,292
276,282	2,364	286,653	146,253
277,297	2,337	286,486	146,129
278,312	2,361	286,305	146,047
279,326	2,340	286,102	145,910
280,341	2,319	286,027	145,838
281,355	2,329	285,839	145,739
282,370	2,118	285,677	145,442
283,384	2,203	285,402	145,370
284,399	2,213	285,192	145,259
285,414	2,209	285,031	145,160
286,428	2,297	284,762	145,094
287,443	2,416	284,600	145,113
288,457	2,210	284,452	144,828
289,472	2,274	284,241	144,768
290,487	2,242	284,063	144,635
291,501	2,214	283,854	144,488
292,516	2,206	283,579	144,328
293,530	2,164	283,502	144,236
294,545	2,129	283,324	144,099
295,560	2,109	283,249	144,029
296,574	2,108	282,918	143,848
297,589	2,083	282,748	143,724
298,603	2,214	282,516	143,718
299,618	2,237	282,268	143,600
300,633	2,164	282,307	143,538
301,647	2,250	282,173	143,538
302,662	2,300	281,957	143,463
303,676	2,354	281,803	143,422
304,691	2,459	281,593	143,402
305,706	2,270	281,486	143,157
306,720	2,446	281,215	143,172
307,735	2,567	281,024	143,175
308,749	2,508	280,901	143,045
309,764	2,392	280,790	142,866
310,779	2,589	280,444	142,862
311,793	2,336	280,299	142,539
312,808	2,421	280,047	142,478
313,822	2,315	279,956	142,319
314,837	2,341	279,647	142,174
315,852	2,386	279,653	142,206
316,866	2,378	279,410	142,063
317,881	2,468	279,226	142,040
318,895	2,437	279,017	141,892
319,910	2,386	278,734	141,689
320,925	2,299	278,539	141,495
321,939	2,351	278,548	141,536
322,954	2,340	278,350	141,413
323,968	2,381	278,149	141,336
324,983	2,417	277,933	141,247
325,997	2,482	277,764	141,209
327,012	2,354	277,664	141,027
328,027	2,453	277,412	140,978
329,041	2,387	277,295	140,844
330,056	2,480	277,051	140,794
331,070	2,503	276,851	140,701
332,085	2,526	276,727	140,647
333,100	2,574	276,461	140,544
334,114	2,504	276,291	140,380
335,129	2,341	276,143	140,142
336,143	2,361	276,183	140,168
337,158	2,408	275,952	140,082
338,173	2,456	275,709	139,990
339,187	2,507	275,396	139,866
340,202	2,471	275,137	139,688
341,216	2,363	275,095	139,555
342,231	2,583	274,974	139,683
343,246	2,550	274,649	139,476
344,260	2,603	274,686	139,531
345,275	2,502	274,500	139,331
346,289	2,571	274,284	139,272
347,304	2,348	274,127	138,976
348,319	2,553	273,877	139,024
349,333	2,582	273,666	138,931
350,348	2,569	273,538	138,842
351,362	2,452	273,445	138,675
352,377	2,502	273,264	138,618
353,392	2,607	273,043	138,589
354,406	2,547	272,793	138,394
355,421	191,903	1350,330	1431,752
356,435	154,947	1481,705	1431,887
