DTS Sentinel unit serial number:	SN410029Multiplexer serial number:	ORYXHardware model number:	OX2-SRSoftware version number:	ORYX F/W v4,00 Oryx Data Collector v3.7.2.0data status	okinstallation	B4 Nyhavnadifferential loss correction	single-endedforward channel	channel 2reverse channel	N/Adate	2023/12/18time	15:10:13forward acquisition time	300,00reverse acquisition time	0,00gamma	499,1914k internal	0,3181k external	0,3181temperature offset calibration	1,0000default loss term (dB/km)	0,3820temperature slope calibration	1,0000multiplexer offset coefficient	1,0000multiplexer slope coefficient	1,0000fibre end	0,00T internal ref (°C)	12,19T ext. ref 1 (°C)	7,05T ext. ref 2 (°C)	7,15length (m)	temperature (°C)	Stokes	anti-Stokes-744,400	-200,000	0,000	0,147
-743,385	-142,496	-0,351	-0,025
-742,371	-58,254	0,108	-0,034
-741,356	-83,620	-0,237	-0,055
-740,342	6,566	0,186	0,101
-739,327	-96,204	-0,357	-0,069
-738,312	-146,983	0,180	-0,011
-737,298	-42,961	-0,316	-0,117
-736,283	231,968	-0,012	-0,015
-735,269	-103,593	-0,218	-0,037
-734,254	10,732	0,063	0,035
-733,239	12,567	-0,433	-0,244
-732,225	211,847	0,160	0,185
-731,210	800,000	0,054	-0,111
-730,196	697,581	0,017	0,033
-729,181	800,000	0,026	-0,053
-728,167	-1,473	-0,016	0,008
-727,152	800,000	-0,009	0,023
-726,137	-88,041	-0,149	-0,032
-725,123	-200,000	-0,009	0,049
-724,108	58,875	-0,115	-0,083
-723,094	800,000	-0,038	-0,092
-722,079	207,104	-0,113	-0,129
-721,064	-200,000	0,001	0,026
-720,050	-26,793	0,067	0,029
-719,035	-200,000	-0,004	0,015
-718,021	90,807	0,032	0,026
-717,006	-129,875	-0,047	-0,005
-715,991	62,237	-0,054	-0,039
-714,977	276,592	0,031	0,040
-713,962	-200,000	0,007	-0,122
-712,948	-14,593	-0,098	0,046
-711,933	14,202	0,101	0,057
-710,918	-123,159	0,043	0,005
-709,904	-45,693	0,052	0,019
-708,889	800,000	0,025	-0,069
-707,875	444,899	-0,077	-0,125
-706,860	611,282	0,086	0,157
-705,845	678,340	-0,070	0,134
-704,831	-152,896	-0,023	0,001
-703,816	-103,226	-0,012	0,002
-702,802	800,000	-0,007	0,017
-701,787	25,111	-0,149	0,090
-700,772	800,000	0,009	-0,022
-699,758	-200,000	-0,001	-0,083
-698,743	-62,532	-0,153	0,046
-697,729	800,000	-0,017	-0,048
-696,714	30,126	-0,013	-0,008
-695,699	-200,000	0,036	-0,148
-694,685	-36,504	0,057	-0,022
-693,670	69,477	-0,100	0,075
-692,656	-21,487	0,132	0,058
-691,641	-32,682	-0,047	0,019
-690,627	-42,464	0,088	0,033
-689,612	80,575	-0,073	-0,058
-688,597	-200,000	-0,008	-0,083
-687,583	800,000	-0,078	-0,159
-686,568	800,000	0,039	0,124
-685,554	61,948	-0,067	0,048
-684,539	42,296	0,082	-0,054
-683,524	-42,370	0,034	-0,013
-682,510	-200,000	-0,020	0,073
-681,495	39,195	-0,082	0,054
-680,481	123,007	0,067	-0,062
-679,466	-200,000	-0,063	0,000
-678,451	-41,684	-0,125	-0,047
-677,437	581,296	0,044	-0,079
-676,422	-200,000	0,019	0,072
-675,408	17,483	0,077	0,044
-674,393	800,000	-0,012	-0,031
-673,378	27,986	-0,100	0,061
-672,364	108,397	0,008	0,007
-671,349	104,951	-0,114	-0,098
-670,335	78,915	-0,012	-0,009
-669,320	-68,647	0,127	-0,036
-668,305	-129,850	0,119	0,012
-667,291	138,237	-0,073	-0,070
-666,276	-88,612	-0,116	-0,025
-665,262	800,000	-0,006	-0,017
-664,247	-200,000	-0,009	-0,112
-663,232	-200,000	-0,018	0,071
-662,218	503,369	-0,030	-0,050
-661,203	132,141	-0,037	0,035
-660,189	-81,342	-0,018	0,004
-659,174	-46,729	-0,172	-0,061
-658,159	-200,000	0,003	-0,057
-657,145	-40,064	-0,125	0,047
-656,130	800,000	-0,005	0,012
-655,116	-200,000	0,000	-0,104
-654,101	800,000	0,024	-0,073
-653,086	-200,000	0,008	-0,058
-652,072	-145,519	-0,082	0,005
-651,057	62,867	0,011	0,008
-650,043	-76,186	-0,135	-0,035
-649,028	-150,885	-0,124	-0,007
-648,014	-70,411	0,098	0,027
-646,999	-200,000	-0,030	0,096
-645,984	58,034	0,065	0,046
-644,970	175,458	0,075	-0,080
-643,955	80,459	-0,049	-0,038
-642,941	-200,000	-0,026	0,090
-641,926	22,518	0,063	0,037
-640,911	254,225	-0,054	-0,067
-639,897	109,452	0,024	-0,021
-638,882	-200,000	-0,001	0,024
-637,868	-200,000	0,023	-0,216
-636,853	4,372	-0,060	-0,032
-635,838	-102,993	-0,137	-0,023
-634,824	263,607	0,119	-0,152
-633,809	-70,042	0,033	0,009
-632,795	610,499	0,042	0,076
-631,780	282,229	0,044	-0,058
-630,765	-59,411	-0,036	0,011
-629,751	-200,000	0,022	-0,123
-628,736	800,000	0,075	-0,163
-627,722	-20,484	-0,005	-0,002
-626,707	-41,807	-0,061	0,023
-625,692	-200,000	0,009	-0,052
-624,678	24,408	-0,114	-0,068
-623,663	220,881	0,131	0,154
-622,649	131,457	-0,109	-0,102
-621,634	12,384	-0,093	0,052
-620,619	-200,000	-0,026	-0,163
-619,605	-59,141	0,027	-0,008
-618,590	-200,000	0,009	0,112
-617,576	-200,000	-0,028	-0,104
-616,561	-86,657	0,090	0,020
-615,546	800,000	-0,049	-0,106
-614,532	-42,755	-0,072	0,026
-613,517	-61,826	-0,081	0,024
-612,503	800,000	0,009	0,020
-611,488	800,000	0,022	0,047
-610,474	658,911	0,058	-0,109
-609,459	313,469	-0,029	0,040
-608,444	-28,106	-0,152	-0,064
-607,430	-200,000	-0,012	0,067
-606,415	-122,235	-0,115	0,014
-605,401	525,756	0,101	-0,173
-604,386	76,095	0,089	-0,068
-603,371	-200,000	0,018	-0,064
-602,357	-200,000	-0,048	-0,165
-601,342	125,264	0,044	-0,040
-600,328	-31,545	-0,079	0,032
-599,313	4,397	-0,079	0,042
-598,298	-200,000	0,027	0,111
-597,284	501,894	-0,020	0,034
-596,269	-45,478	0,063	-0,022
-595,255	-145,237	0,106	0,007
-594,240	-142,574	-0,030	-0,002
-593,225	13,552	0,134	0,076
-592,211	-200,000	-0,001	-0,055
-591,196	214,884	0,065	0,076
-590,182	69,762	0,099	0,074
-589,167	-200,000	0,019	0,070
-588,152	-89,004	-0,118	0,025
-587,138	-29,242	-0,096	-0,040
-586,123	-200,000	-0,001	-0,086
-585,109	6,924	-0,057	-0,031
-584,094	101,636	0,126	0,107
-583,079	800,000	0,022	-0,059
-582,065	-165,325	-0,123	0,004
-581,050	14,863	0,059	0,033
-580,036	115,209	-0,051	-0,045
-579,021	-99,056	-0,092	-0,017
-578,006	-83,921	-0,030	-0,007
-576,992	284,497	-0,084	0,110
-575,977	24,958	0,089	0,054
-574,963	472,916	-0,023	-0,039
-573,948	-200,000	-0,003	0,025
-572,934	-200,000	-0,007	0,032
-571,919	378,309	0,081	0,121
-570,904	-24,270	-0,079	-0,034
-569,890	-79,263	0,101	-0,025
-568,875	800,000	0,052	-0,110
-567,861	268,047	-0,087	0,111
-566,846	-55,892	0,135	0,044
-565,831	-170,238	-0,239	0,006
-564,817	14,719	0,065	0,037
-563,802	-200,000	-0,012	0,127
-562,788	-58,376	-0,086	-0,027
-561,773	268,994	0,033	-0,042
-560,758	176,794	0,088	-0,094
-559,744	38,244	-0,101	-0,065
-558,729	-169,492	-0,118	-0,003
-557,715	-118,556	-0,080	0,010
-556,700	304,156	-0,094	-0,127
-555,685	-170,260	-0,113	-0,003
-554,671	103,815	-0,073	0,063
-553,656	153,168	0,064	0,064
-552,642	-200,000	0,001	0,100
-551,627	-87,449	-0,060	-0,013
-550,612	-64,825	0,156	0,046
-549,598	-200,000	0,022	0,101
-548,583	219,576	-0,043	-0,050
-547,569	-183,267	-0,064	-0,001
-546,554	123,156	0,076	-0,069
-545,539	-200,000	0,000	-0,041
-544,525	-52,521	-0,063	0,021
-543,510	-24,737	-0,188	-0,081
-542,496	800,000	-0,013	-0,034
-541,481	800,000	0,028	-0,070
-540,466	-200,000	-0,005	-0,049
-539,452	-160,565	0,044	0,002
-538,437	-2,263	-0,051	-0,026
-537,423	-200,000	-0,002	0,154
-536,408	31,701	0,171	0,107
-535,393	109,984	0,038	-0,033
-534,379	-200,000	0,009	-0,034
-533,364	157,093	0,012	-0,012
-532,350	216,282	0,018	-0,021
-531,335	-200,000	0,019	0,162
-530,321	188,174	-0,107	0,116
-529,306	123,407	0,030	0,027
-528,291	800,000	0,012	0,027
-527,277	-62,413	-0,145	0,043
-526,262	247,295	0,073	0,090
-525,248	-200,000	-0,005	-0,137
-524,233	550,332	0,130	0,226
-523,218	59,092	-0,077	-0,055
-522,204	-130,126	0,078	-0,008
-521,189	-200,000	0,007	-0,038
-520,175	100,575	-0,109	-0,092
-519,160	-52,737	0,046	-0,015
-518,145	-200,000	-0,009	0,067
-517,131	-200,000	-0,009	-0,053
-516,116	800,000	-0,011	0,028
-515,102	99,016	0,038	-0,031
-514,087	235,885	0,036	0,043
-513,072	800,000	-0,058	-0,149
-512,058	66,450	0,151	-0,111
-511,043	222,048	0,047	0,055
-510,029	176,053	0,080	0,084
-509,014	800,000	-0,008	-0,020
-507,999	-56,505	-0,154	-0,049
-506,985	800,000	0,023	-0,051
-505,970	-200,000	-0,018	0,131
-504,956	-54,814	-0,014	0,005
-503,941	151,623	0,070	-0,069
-502,926	67,763	-0,071	-0,052
-501,912	-200,000	0,014	0,079
-500,897	800,000	-0,079	0,234
-499,883	800,000	-0,015	-0,041
-498,868	-200,000	-0,009	-0,192
-497,853	-200,000	-0,014	-0,077
-496,839	525,919	0,040	-0,069
-495,824	299,712	0,115	0,153
-494,810	232,912	-0,036	0,043
-493,795	420,046	-0,039	-0,061
-492,781	-200,000	-0,005	-0,030
-491,766	-38,246	-0,056	-0,021
-490,751	77,339	-0,072	-0,055
-489,737	-111,496	-0,109	0,016
-488,722	-51,816	-0,082	0,027
-487,708	-118,651	0,270	-0,034
-486,693	-122,334	-0,111	0,013
-485,678	-200,000	-0,001	0,019
-484,664	45,618	-0,059	-0,039
-483,649	200,045	-0,026	0,029
-482,635	-134,833	-0,084	0,007
-481,620	230,563	0,128	0,153
-480,605	440,610	-0,017	0,027
-479,591	487,924	-0,052	-0,086
-478,576	-200,000	-0,014	-0,069
-477,562	-200,000	-0,041	-0,166
-476,547	83,253	-0,023	0,018
-475,532	-159,023	0,093	0,004
-474,518	1,274	0,078	-0,040
-473,503	-69,784	-0,049	0,013
-472,489	107,305	0,095	0,082
-471,474	800,000	-0,017	0,053
-470,459	267,137	-0,037	-0,047
-469,445	-200,000	0,007	-0,114
-468,430	-158,628	-0,154	-0,006
-467,416	-70,767	0,119	0,032
-466,401	169,758	0,105	0,109
-465,386	0,112	-0,061	-0,031
-464,372	-200,000	-0,021	-0,087
-463,357	-120,630	-0,076	-0,009
-462,343	-200,000	0,023	-0,080
-461,328	186,675	-0,044	-0,047
-460,313	-68,388	-0,087	0,024
-459,299	385,696	0,022	0,033
-458,284	-21,619	0,024	0,010
-457,270	87,901	-0,127	0,102
-456,255	344,790	0,079	-0,113
-455,241	453,134	-0,015	0,025
-454,226	-3,359	-0,058	-0,029
-453,211	100,777	0,029	-0,025
-452,197	-140,963	0,192	-0,014
-451,182	223,620	0,078	0,092
-450,168	170,715	-0,108	0,112
-449,153	165,976	-0,065	-0,066
-448,138	-107,778	-0,096	0,015
-447,124	128,489	0,108	0,099
-446,109	-135,727	0,040	-0,003
-445,095	396,676	0,029	-0,043
-444,080	-200,000	-0,013	-0,086
-443,065	127,357	-0,097	0,089
-442,051	66,326	0,095	-0,070
-441,036	-153,998	0,059	-0,003
-440,022	62,046	-0,108	-0,078
-439,007	-123,635	0,066	-0,007
-437,992	105,026	-0,070	0,060
-436,978	308,184	0,024	0,033
-435,963	-25,613	0,057	-0,024
-434,949	-14,141	-0,021	0,010
-433,934	800,000	-0,007	-0,023
-432,919	-109,619	-0,098	0,015
-431,905	281,678	-0,042	-0,055
-430,890	527,026	0,070	0,119
-429,876	-111,284	0,070	0,010
-428,861	-89,679	-0,030	0,006
-427,846	-18,761	0,080	-0,036
-426,832	251,123	-0,042	-0,052
-425,817	-23,465	0,095	-0,041
-424,803	-165,493	0,130	-0,004
-423,788	-200,000	-0,003	-0,050
-422,773	235,793	0,066	-0,079
-421,759	45,268	-0,041	0,028
-420,744	85,698	0,048	0,038
-419,730	-200,000	0,001	0,011
-418,715	522,091	0,026	-0,044
-417,701	100,691	-0,094	-0,079
-416,686	-200,000	-0,009	0,029
-415,671	-78,147	0,085	-0,021
-414,657	-200,000	-0,031	0,104
-413,642	800,000	0,025	0,056
-412,628	9,883	-0,126	-0,069
-411,613	-200,000	-0,008	-0,113
-410,598	514,626	0,026	0,043
-409,584	355,087	-0,023	0,033
-408,569	-123,130	-0,139	0,016
-407,555	-3,660	0,081	0,041
-406,540	-200,000	-0,049	0,169
-405,525	24,683	-0,061	0,037
-404,511	85,267	0,072	-0,057
-403,496	311,988	-0,027	-0,037
-402,482	434,417	0,033	-0,052
-401,467	436,342	0,058	-0,092
-400,452	-200,000	0,009	0,048
-399,438	-90,422	0,059	-0,012
-398,423	800,000	-0,056	-0,135
-397,409	394,175	-0,064	0,097
-396,394	-200,000	0,007	0,056
-395,379	-85,312	0,040	0,009
-394,365	232,801	0,060	0,071
-393,350	-176,848	0,068	-0,001
-392,336	-91,896	0,013	0,003
-391,321	19,843	0,160	-0,093
-390,306	800,000	0,041	-0,101
-389,292	-200,000	0,017	0,060
-388,277	-104,935	-0,061	-0,010
-387,263	-41,389	0,070	0,026
-386,248	-138,177	0,188	0,015
-385,233	-200,000	0,004	0,050
-384,219	606,799	0,061	0,111
-383,204	384,720	-0,081	-0,121
-382,190	-38,974	-0,030	-0,011
-381,175	67,421	-0,038	-0,028
-380,160	194,093	0,052	-0,057
-379,146	394,746	0,032	-0,048
-378,131	-118,782	0,068	0,008
-377,117	535,372	0,027	0,047
-376,102	35,137	-0,109	0,069
-375,088	42,120	0,081	-0,053
-374,073	22,177	0,125	0,073
-373,058	58,608	0,078	-0,055
-372,044	97,913	-0,104	0,086
-371,029	13,502	0,152	-0,085
-370,015	23,005	0,073	0,043
-369,000	-117,195	-0,124	0,016
-367,985	800,000	-0,074	-0,156
-366,971	73,769	0,111	-0,084
-365,956	554,992	0,005	0,008
-364,942	-122,012	-0,024	0,003
-363,927	-40,903	-0,082	-0,030
-362,912	-200,000	0,015	-0,099
-361,898	7,286	-0,176	-0,095
-360,883	800,000	0,049	-0,103
-359,869	800,000	-0,045	-0,128
-358,854	103,882	-0,085	-0,072
-357,839	-122,994	0,097	-0,011
-356,825	-197,717	0,085	-0,000
-355,810	-200,000	0,034	-0,140
-354,796	800,000	0,027	-0,068
-353,781	252,240	-0,046	0,057
-352,766	-78,154	-0,054	-0,013
-351,752	800,000	-0,051	0,108
-350,737	800,000	0,029	0,068
-349,723	211,043	-0,031	0,035
-348,708	779,223	0,044	0,086
-347,693	15,769	0,118	0,067
-346,679	-63,718	-0,140	0,041
-345,664	33,659	-0,050	-0,031
-344,650	228,340	0,120	0,141
-343,635	262,314	0,045	0,057
-342,620	-200,000	0,011	0,134
-341,606	24,071	0,059	0,035
-340,591	-197,606	0,059	-0,000
-339,577	-200,000	-0,004	0,018
-338,562	800,000	0,082	-0,171
-337,548	800,000	-0,028	-0,061
-336,533	-200,000	0,009	0,041
-335,518	739,940	-0,059	0,114
-334,504	-200,000	-0,003	-0,035
-333,489	735,981	0,067	0,130
-332,475	-200,000	0,006	-0,061
-331,460	-142,215	-0,228	0,016
-330,445	-129,292	0,063	0,006
-329,431	290,380	0,055	-0,073
-328,416	135,059	0,068	0,063
-327,402	777,087	0,075	-0,148
-326,387	-154,212	-0,126	0,006
-325,372	26,164	-0,042	-0,025
-324,358	185,990	-0,109	0,117
-323,343	661,728	-0,063	-0,117
-322,329	93,798	0,026	0,022
-321,314	-101,731	-0,184	0,032
-320,299	538,993	0,082	0,141
-319,285	70,113	0,041	0,030
-318,270	800,000	0,061	-0,137
-317,256	395,971	-0,064	-0,097
-316,241	800,000	-0,045	0,098
-315,226	207,544	0,047	0,053
-314,212	-200,000	0,023	0,096
-313,197	65,325	-0,071	0,052
-312,183	-8,636	-0,026	0,012
-311,168	-49,520	-0,094	0,032
-310,153	800,000	0,043	-0,108
-309,139	-200,000	0,032	-0,108
-308,124	800,000	0,017	0,052
-307,110	414,241	0,081	0,124
-306,095	6,621	0,185	0,099
-305,080	-108,520	-0,140	0,021
-304,066	-200,000	-0,012	-0,056
-303,051	149,165	-0,175	-0,171
-302,037	215,268	0,087	0,099
-301,022	4,749	0,058	-0,030
-300,008	-155,118	0,067	0,003
-298,993	-200,000	0,028	0,148
-297,978	111,344	-0,089	-0,077
-296,964	-200,000	0,009	-0,103
-295,949	542,610	0,044	-0,076
-294,935	-61,275	-0,045	-0,014
-293,920	-200,000	-0,053	-0,171
-292,905	352,366	-0,004	-0,006
-291,891	-200,000	-0,009	0,144
-290,876	80,679	0,103	0,080
-289,862	-32,658	-0,053	0,021
-288,847	-200,000	0,002	-0,032
-287,832	-200,000	0,016	0,105
-286,818	78,923	0,039	0,030
-285,803	800,000	-0,016	-0,045
-284,789	800,000	0,005	-0,014
-283,774	253,420	0,049	0,061
-282,759	200,892	0,017	-0,018
-281,745	-143,202	0,115	-0,008
-280,730	-19,943	-0,248	-0,110
-279,716	-200,000	0,021	-0,147
-278,701	414,916	0,145	-0,223
-277,686	-200,000	0,010	0,109
-276,672	216,581	-0,107	0,123
-275,657	800,000	-0,034	0,076
-274,643	-200,000	-0,014	-0,071
-273,628	-200,000	-0,014	0,073
-272,613	-200,000	0,006	-0,028
-271,599	608,836	0,020	-0,037
-270,584	-13,295	-0,102	0,047
-269,570	-200,000	0,022	-0,102
-268,555	-200,000	0,007	-0,078
-267,540	800,000	0,024	-0,074
-266,526	-200,000	-0,033	0,140
-265,511	-61,204	-0,096	0,029
-264,497	-194,782	-0,086	-0,000
-263,482	-90,031	0,137	0,028
-262,467	-200,000	0,003	0,019
-261,453	14,035	0,074	0,042
-260,438	-35,077	-0,133	-0,052
-259,424	-164,463	-0,089	-0,003
-258,409	50,387	-0,104	-0,071
-257,395	-78,475	-0,034	0,008
-256,380	-18,453	0,137	0,061
-255,365	-5,815	-0,100	-0,049
-254,351	800,000	-0,002	-0,004
-253,336	-97,326	0,175	0,032
-252,322	63,886	-0,073	0,053
-251,307	15,275	0,113	-0,063
-250,292	800,000	-0,050	-0,137
-249,278	779,356	-0,054	0,107
-248,263	562,825	0,066	0,116
-247,249	800,000	-0,020	0,053
-246,234	-55,187	0,066	0,021
-245,219	49,157	-0,045	-0,030
-244,205	800,000	0,026	0,065
-243,190	800,000	0,027	0,053
-242,176	-42,996	0,037	0,013
-241,161	800,000	0,011	0,024
-240,146	-33,561	-0,095	0,037
-239,132	-200,000	0,011	0,125
-238,117	-200,000	-0,003	0,015
-237,103	-200,000	-0,005	0,101
-236,088	376,858	0,042	-0,062
-235,073	118,463	0,106	0,094
-234,059	-119,754	0,147	-0,018
-233,044	28,859	0,107	0,065
-232,030	-200,000	0,000	0,054
-231,015	800,000	-0,055	-0,113
-230,000	800,000	-0,042	-0,115
-228,986	-125,414	-0,107	-0,012
-227,971	203,725	0,076	0,085
-226,957	-100,237	0,088	-0,015
-225,942	103,033	-0,063	0,053
-224,927	-54,284	-0,131	0,042
-223,913	800,000	-0,022	-0,044
-222,898	108,775	-0,072	-0,062
-221,884	-84,401	0,105	-0,024
-220,869	-82,177	-0,027	-0,006
-219,855	-69,397	0,065	-0,018
-218,840	800,000	0,038	0,084
-217,825	800,000	0,053	-0,124
-216,811	-122,491	-0,099	-0,011
-215,796	434,468	0,048	-0,075
-214,782	20,123	0,066	-0,038
-213,767	-200,000	-0,023	-0,170
-212,752	210,996	0,011	0,012
-211,738	246,462	0,123	0,149
-210,723	800,000	-0,040	0,085
-209,709	800,000	0,034	-0,101
-208,694	-50,794	-0,072	0,024
-207,679	800,000	-0,043	-0,111
-206,665	611,861	0,022	-0,039
-205,650	-200,000	0,022	0,070
-204,636	-200,000	-0,006	0,093
-203,621	-200,000	0,043	0,169
-202,606	800,000	0,050	0,105
-201,592	369,046	-0,051	-0,074
-200,577	348,017	0,034	0,048
-199,563	-135,605	-0,145	0,012
-198,548	800,000	0,041	0,103
-197,533	-34,953	0,083	0,032
-196,519	-200,000	0,006	0,095
-195,504	-200,000	-0,028	0,092
-194,490	-200,000	-0,016	-0,116
-193,475	-107,417	0,055	0,008
-192,460	-14,550	-0,144	0,066
-191,446	-19,783	0,158	0,069
-190,431	-93,712	0,182	-0,036
-189,417	-65,289	-0,088	0,025
-188,402	-200,000	0,002	0,055
-187,387	132,239	0,065	-0,060
-186,373	-200,000	-0,007	0,052
-185,358	20,581	0,078	0,045
-184,344	-200,000	-0,003	0,093
-183,329	800,000	0,039	0,101
-182,315	34,049	0,071	0,044
-181,300	800,000	-0,031	-0,088
-180,285	41,162	-0,025	0,016
-179,271	800,000	-0,006	0,018
-178,256	-39,004	0,136	-0,051
-177,242	-35,346	-0,058	-0,023
-176,227	800,000	0,066	0,130
-175,212	-200,000	0,034	0,130
-174,198	522,028	-0,056	0,095
-173,183	-200,000	0,015	-0,068
-172,169	-200,000	0,025	-0,226
-171,154	-200,000	0,012	-0,116
-170,139	-5,202	0,131	-0,064
-169,125	-200,000	0,026	-0,090
-168,110	800,000	-0,035	0,085
-167,096	86,428	-0,117	0,092
-166,081	-47,031	-0,061	0,021
-165,066	800,000	0,016	0,038
-164,052	226,787	-0,029	0,034
-163,037	-117,755	-0,081	0,010
-162,023	800,000	0,067	0,186
-161,008	-33,156	-0,081	-0,032
-159,993	412,485	-0,075	-0,114
-158,979	2,537	-0,180	-0,093
-157,964	657,946	-0,048	-0,089
-156,950	-122,356	0,099	0,011
-155,935	-79,462	0,016	0,004
-154,920	-108,894	-0,138	0,021
-153,906	115,779	-0,018	0,016
-152,891	-84,407	-0,019	-0,004
-151,877	800,000	0,011	0,029
-150,862	-39,469	0,167	-0,062
-149,847	800,000	0,036	-0,072
-148,833	-38,407	0,144	0,054
-147,818	-71,608	-0,045	-0,012
-146,804	-28,547	0,025	0,010
-145,789	613,605	0,067	0,120
-144,775	248,097	-0,081	0,099
-143,760	296,869	0,061	0,081
-142,745	-92,517	0,077	0,015
-141,731	-170,582	-0,046	-0,001
-140,716	347,406	0,107	0,151
-139,702	-200,000	-0,000	0,062
-138,687	-39,469	0,046	0,017
-137,672	-200,000	-0,024	-0,114
-136,658	625,284	0,016	0,030
-135,643	-200,000	-0,001	-0,097
-134,629	578,452	-0,041	-0,072
-133,614	800,000	-0,057	0,134
-132,599	305,567	-0,051	0,068
-131,585	800,000	-0,064	-0,129
-130,570	-200,000	0,027	0,114
-129,556	133,759	-0,118	-0,109
-128,541	-200,000	0,009	0,130
-127,526	-200,000	-0,006	0,079
-126,512	243,875	0,020	0,024
-125,497	-200,000	-0,008	-0,107
-124,483	-104,671	0,136	-0,022
-123,468	-9,616	-0,074	0,035
-122,453	74,411	-0,084	-0,063
-121,439	403,439	-0,053	-0,080
-120,424	-163,124	-0,110	-0,004
-119,410	530,337	0,074	0,125
-118,395	-135,964	0,132	0,011
-117,380	800,000	0,030	0,091
-116,366	-5,275	0,092	0,045
-115,351	-150,692	0,058	0,003
-114,337	-141,009	-0,080	0,006
-113,322	81,454	-0,031	0,024
-112,307	-28,238	0,075	-0,031
-111,293	-200,000	-0,106	0,000
-110,278	-200,000	0,004	0,094
-109,264	-200,000	-0,012	0,075
-108,249	800,000	-0,004	-0,010
-107,234	-200,000	0,009	-0,052
-106,220	800,000	0,053	-0,117
-105,205	165,476	0,031	0,031
-104,191	452,448	0,019	0,031
-103,176	-200,000	-0,002	0,019
-102,162	-200,000	-0,009	-0,072
-101,147	184,367	0,071	-0,075
-100,132	800,000	-0,070	-0,171
-99,118	-160,460	0,126	0,005
-98,103	657,400	-0,054	0,100
-97,089	-200,000	0,036	-0,171
-96,074	800,000	0,012	-0,023
-95,059	-75,836	0,103	0,026
-94,045	25,087	0,122	0,072
-93,030	-146,790	-0,226	0,014
-92,016	-19,581	0,050	0,022
-91,001	-92,115	0,106	0,021
-89,986	301,942	0,098	0,130
-88,972	-200,000	-0,021	0,108
-87,957	-200,000	0,002	0,058
-86,943	299,918	0,053	0,070
-85,928	800,000	-0,034	-0,077
-84,913	-118,466	0,110	0,014
-83,899	310,810	-0,051	0,068
-82,884	-94,824	-0,027	-0,005
-81,870	-97,877	0,099	-0,018
-80,855	-6,764	-0,042	0,020
-79,840	103,500	-0,078	0,065
-78,826	-146,375	-0,057	0,004
-77,811	21,211	-0,022	-0,013
-76,797	361,949	-0,055	0,079
-75,782	800,000	0,053	0,122
-74,767	800,000	0,075	-0,158
-73,753	-146,189	0,050	0,003
-72,738	110,949	-0,048	0,042
-71,724	-200,000	0,006	-0,057
-70,709	800,000	-0,092	-0,206
-69,694	-102,013	-0,138	0,024
-68,680	79,478	0,140	0,107
-67,665	-86,461	-0,029	0,006
-66,651	-200,000	0,013	-0,160
-65,636	451,061	-0,061	-0,097
-64,622	800,000	-0,032	0,069
-63,607	51,952	-0,135	0,092
-62,592	280,886	0,042	0,054
-61,578	290,871	0,113	0,146
-60,563	49,136	0,045	0,030
-59,549	11,896	-0,073	-0,040
-58,534	5,709	-2,213	-1,163
-57,519	-200,000	-0,186	-0,772
-56,505	-200,000	-1,281	-5,076
-55,490	103,057	0,776	0,648
-54,476	800,000	5,271	11,948
-53,461	-200,000	18,741	301,281
-52,446	800,000	737,571	2252,311
-51,432	543,800	1647,091	2812,119
-50,417	104,884	1627,442	1366,764
-49,403	69,738	1279,091	938,190
-48,388	27,764	1022,683	612,237
-47,373	17,906	985,545	557,745
-46,359	15,776	973,167	543,800
-45,344	12,561	969,255	531,162
-44,330	12,873	967,977	531,454
-43,315	12,363	965,883	528,634
-42,300	12,251	964,720	527,614
-41,286	12,194	963,970	526,997
-40,271	12,207	962,924	526,446
-39,257	12,267	962,022	526,125
-38,242	12,207	961,280	525,504
-37,227	12,236	960,361	525,075
-36,213	12,237	959,249	524,451
-35,198	12,130	958,600	523,731
-34,184	12,202	958,025	523,626
-33,169	12,216	956,737	522,946
-32,154	12,265	955,967	522,663
-31,140	12,292	955,101	522,255
-30,125	12,251	954,192	521,607
-29,111	12,208	953,518	521,079
-28,096	12,278	952,838	520,912
-27,082	12,237	952,356	520,497
-26,067	12,253	951,508	520,062
-25,052	12,258	950,742	519,639
-24,038	12,186	949,929	518,944
-23,023	12,185	949,495	518,686
-22,009	12,291	948,781	518,612
-20,994	12,225	948,441	518,195
-19,979	12,216	947,661	517,720
-18,965	12,212	946,977	517,313
-17,950	12,199	946,436	516,955
-16,936	12,160	945,748	516,436
-15,921	12,172	944,939	516,012
-14,906	12,103	944,309	515,429
-13,892	12,077	943,650	514,967
-12,877	12,063	943,044	514,571
-11,863	12,047	942,393	514,146
-10,848	12,118	941,803	514,028
-9,833	12,228	941,570	514,227
-8,819	12,260	940,661	513,809
-7,804	12,173	940,098	513,206
-6,790	12,081	939,573	512,610
-5,775	12,202	939,260	512,801
-4,760	12,200	938,365	512,285
-3,746	12,161	937,786	511,827
-2,731	12,009	937,052	510,930
-1,717	11,975	936,364	510,427
-0,702	11,952	935,686	509,965
0,313	11,859	935,133	510,142
1,327	15,256	933,691	519,925
2,342	24,365	804,744	472,470
3,356	21,350	509,474	293,995
4,371	1,408	384,308	196,060
5,386	-0,377	368,304	185,656
6,400	-0,606	362,686	182,527
7,415	-0,390	360,444	181,645
8,429	-0,358	358,991	180,936
9,444	-0,272	358,039	180,544
10,459	-0,185	357,396	180,308
11,473	-0,233	356,501	179,784
12,488	-0,198	356,106	179,611
13,502	-0,156	355,457	179,317
14,517	-0,093	355,187	179,241
15,531	0,258	354,647	179,373
16,546	0,362	354,547	179,431
17,561	0,262	353,961	178,999
18,575	0,306	353,630	178,869
19,590	0,417	353,092	178,712
20,604	0,387	352,632	178,428
21,619	0,322	352,344	178,189
22,634	0,392	351,945	178,054
23,648	0,411	351,545	177,859
24,663	0,450	351,219	177,724
25,677	0,473	350,932	177,590
26,692	0,453	350,687	177,427
27,707	0,480	350,312	177,253
28,721	0,454	349,952	177,025
29,736	0,333	349,680	176,729
30,750	0,394	349,302	176,594
31,765	0,323	349,196	176,441
32,780	0,407	348,866	176,357
33,794	0,467	348,549	176,252
34,809	0,490	348,217	176,095
35,823	0,310	348,025	175,771
36,838	0,377	347,549	175,594
37,853	0,303	347,192	175,310
38,867	0,395	347,035	175,324
39,882	0,432	346,685	175,174
40,896	0,492	346,357	175,063
41,911	0,459	346,256	174,958
42,926	0,480	345,956	174,816
43,940	0,451	345,618	174,595
44,955	0,445	345,215	174,369
45,969	0,466	345,018	174,278
46,984	0,457	344,724	174,104
47,999	0,268	344,566	173,790
49,013	0,127	344,347	173,499
50,028	0,282	343,875	173,426
51,042	0,124	343,556	173,067
52,057	0,164	343,300	172,969
53,071	0,216	343,129	172,928
54,086	0,257	342,895	172,840
55,101	0,298	342,588	172,719
56,115	0,282	342,325	172,551
57,130	0,439	342,109	172,609
58,144	0,148	341,925	172,165
59,159	0,498	341,487	172,331
60,174	0,378	341,149	172,007
61,188	0,368	341,068	171,940
62,203	0,347	340,785	171,757
63,217	0,425	340,464	171,671
64,232	0,471	340,284	171,617
65,247	0,155	339,958	171,075
66,261	0,374	339,665	171,163
67,276	0,395	339,454	171,066
68,290	0,251	339,196	170,756
69,305	0,023	338,876	170,319
70,320	0,333	338,689	170,564
71,334	0,237	338,414	170,300
72,349	0,390	338,191	170,347
73,363	0,403	337,829	170,164
74,378	0,423	337,383	169,948
75,393	0,296	337,401	169,798
76,407	0,329	337,220	169,728
77,422	0,445	336,917	169,692
78,436	0,432	336,605	169,505
79,451	0,315	336,262	169,186
80,466	0,422	336,054	169,186
81,480	0,379	335,812	169,001
82,495	0,461	335,644	168,994
83,509	0,507	335,222	168,818
84,524	0,511	334,953	168,672
85,539	0,467	334,872	168,567
86,553	0,367	334,612	168,308
87,568	0,372	334,418	168,202
88,582	0,366	334,098	168,018
89,597	0,436	333,879	167,972
90,611	0,409	333,592	167,782
91,626	0,481	333,477	167,790
92,641	0,463	333,122	167,576
93,655	0,367	332,873	167,329
94,670	0,293	332,731	167,161
95,684	0,368	332,433	167,079
96,699	0,410	332,264	167,026
97,714	0,476	332,076	166,991
98,728	0,494	331,693	166,802
99,743	0,431	331,457	166,600
100,757	0,394	331,325	166,477
101,772	0,434	330,819	166,252
102,787	0,339	330,713	166,079
103,801	0,536	330,473	166,161
104,816	0,368	330,342	165,894
105,830	0,503	330,129	165,922
106,845	0,306	329,884	165,567
107,860	0,465	329,609	165,590
108,874	0,356	329,304	165,301
109,889	0,300	329,020	165,082
110,903	0,221	328,972	164,957
111,918	0,186	328,520	164,676
112,933	0,386	328,269	164,756
113,947	0,319	328,188	164,627
114,962	0,367	328,021	164,581
115,976	0,341	327,792	164,423
116,991	0,443	327,444	164,346
118,006	0,537	327,167	164,295
119,020	0,350	327,045	164,015
120,035	0,312	327,077	163,974
121,049	0,365	326,607	163,782
122,064	0,362	326,429	163,675
123,079	0,353	326,097	163,484
124,093	0,388	325,834	163,376
125,108	0,279	325,760	163,206
126,122	0,305	325,261	162,969
127,137	0,125	325,268	162,763
128,151	0,147	325,041	162,658
129,166	0,269	324,861	162,686
130,181	0,404	324,384	162,579
131,195	0,208	324,233	162,276
132,210	0,339	324,085	162,330
133,224	0,356	323,759	162,170
134,239	0,330	323,510	162,002
135,254	0,389	323,238	161,916
136,268	0,319	322,988	161,700
137,283	0,164	322,829	161,439
138,297	0,329	322,510	161,444
139,312	0,153	322,224	161,097
140,327	0,284	322,071	161,147
141,341	0,406	321,961	161,208
142,356	0,270	321,751	160,942
143,370	0,400	321,397	160,891
144,385	0,427	321,326	160,870
145,400	0,481	321,034	160,767
146,414	0,332	320,993	160,573
147,429	0,499	320,646	160,564
148,443	0,369	320,343	160,259
149,458	0,257	320,171	160,038
150,473	0,403	319,839	160,014
151,487	0,341	319,617	159,823
152,502	0,490	319,443	159,880
153,516	0,318	319,407	159,665
154,531	0,369	319,136	159,569
155,546	0,455	318,782	159,469
156,560	0,461	318,532	159,337
157,575	0,276	318,374	159,047
158,589	0,362	318,061	158,968
159,604	0,430	317,863	158,926
160,619	0,546	317,669	158,938
161,633	0,611	317,413	158,864
162,648	0,492	317,358	158,697
163,662	0,382	317,164	158,470
164,677	0,426	316,857	158,349
165,692	0,382	316,817	158,268
166,706	0,367	316,611	158,135
167,721	0,493	316,156	158,026
168,735	0,400	316,020	157,846
169,750	0,348	315,898	157,717
170,764	0,409	315,780	157,708
171,779	0,358	315,492	157,497
172,794	0,427	315,235	157,427
173,808	0,417	315,114	157,341
174,823	0,156	314,896	156,945
175,837	0,043	314,584	156,657
176,852	0,298	314,218	156,728
177,867	0,355	314,177	156,753
178,881	0,503	313,911	156,761
179,896	0,286	314,001	156,565
180,910	0,420	313,671	156,526
181,925	0,241	313,468	156,224
182,940	0,413	313,188	156,250
183,954	0,403	312,806	156,035
184,969	0,451	312,743	156,040
185,983	0,351	312,628	155,865
186,998	0,416	312,490	155,850
188,013	0,422	312,173	155,684
189,027	0,310	311,983	155,459
190,042	0,270	311,751	155,288
191,056	0,184	311,480	155,050
192,071	0,147	311,281	154,899
193,086	0,170	310,966	154,752
194,100	0,249	310,871	154,773
195,115	0,402	310,611	154,787
196,129	0,367	310,355	154,610
197,144	0,371	309,980	154,413
198,159	0,299	309,761	154,216
199,173	0,265	309,678	154,127
200,188	0,136	309,295	153,790
201,202	0,080	309,057	153,600
202,217	0,305	308,912	153,745
203,232	0,306	308,677	153,615
204,246	0,300	308,508	153,511
205,261	0,300	308,488	153,488
206,275	0,254	308,351	153,359
207,290	0,535	308,092	153,503
208,304	0,457	307,864	153,296
209,319	0,580	307,551	153,252
210,334	0,386	307,445	152,988
211,348	0,371	307,166	152,821
212,363	0,382	307,046	152,759
213,377	0,497	306,643	152,661
214,392	0,495	306,575	152,611
215,407	0,302	306,534	152,381
216,421	0,482	306,149	152,359
217,436	0,571	305,963	152,344
218,450	0,310	305,771	151,969
219,465	0,387	305,581	151,940
220,480	0,348	305,454	151,824
221,494	0,254	305,347	151,661
222,509	0,271	304,953	151,469
223,523	0,379	304,764	151,472
224,538	0,241	304,710	151,291
225,553	0,334	304,348	151,192
226,567	0,422	304,167	151,177
227,582	0,422	304,025	151,093
228,596	0,419	303,874	151,001
229,611	0,230	303,607	150,665
230,626	0,109	303,506	150,480
231,640	0,294	303,276	150,539
232,655	0,363	302,950	150,433
233,669	0,239	302,794	150,218
234,684	0,177	302,768	150,128
235,699	0,412	302,494	150,215
236,713	0,106	302,332	149,815
237,728	0,349	302,090	149,925
238,742	0,314	301,864	149,764
239,757	0,300	301,593	149,603
240,772	0,223	301,382	149,407
241,786	0,250	301,345	149,403
242,801	0,208	301,062	149,207
243,815	0,256	300,924	149,173
244,830	0,222	300,698	149,014
245,844	0,098	300,452	148,756
246,859	-0,014	300,269	148,541
247,874	0,059	299,906	148,421
248,888	0,137	299,650	148,358
249,903	0,128	299,628	148,325
250,917	0,254	299,479	148,362
251,932	0,009	299,093	147,915
252,947	-0,373	298,960	147,459
253,961	-1,125	298,341	146,398
254,976	-0,174	298,435	147,370
255,990	0,997	298,813	148,701
257,005	1,719	299,161	149,574
258,020	3,125	299,473	151,107
259,034	3,569	299,486	151,538
260,049	3,876	299,339	151,754
261,063	3,963	299,285	151,799
262,078	4,055	299,048	151,756
263,093	4,493	298,854	152,076
264,107	4,561	298,832	152,117
265,122	4,668	298,769	152,177
266,136	4,881	298,475	152,223
267,151	4,909	298,351	152,174
268,166	4,735	298,182	151,903
269,180	4,814	297,888	151,817
270,195	4,631	297,827	151,593
271,209	4,511	297,622	151,358
272,224	4,603	297,261	151,251
273,239	4,184	297,150	150,771
274,253	4,206	296,887	150,645
275,268	4,372	296,726	150,713
276,282	4,544	296,426	150,714
277,297	4,589	296,215	150,638
278,312	4,718	296,138	150,711
279,326	4,643	296,146	150,628
280,341	4,596	295,716	150,351
281,355	4,390	295,563	150,059
282,370	4,362	295,248	149,858
283,384	4,368	295,159	149,806
284,399	4,498	294,876	149,775
285,414	4,487	294,657	149,640
286,428	4,644	294,567	149,733
287,443	4,174	294,258	149,107
288,457	4,149	294,103	148,992
289,472	4,206	294,046	149,005
290,487	4,263	293,617	148,829
291,501	4,361	293,500	148,851
292,516	4,239	293,404	148,671
293,530	4,130	293,152	148,425
294,545	4,215	292,987	148,410
295,560	4,126	292,710	148,171
296,574	3,848	292,580	147,825
297,589	3,710	292,370	147,573
298,603	3,785	292,164	147,527
299,618	4,012	291,945	147,622
300,633	3,963	291,882	147,530
301,647	4,104	291,605	147,511
302,662	4,222	291,542	147,580
303,676	4,219	291,349	147,466
304,691	4,288	291,120	147,403
305,706	4,295	290,937	147,304
306,720	4,561	290,888	147,520
307,735	4,437	290,728	147,307
308,749	4,604	290,468	147,321
309,764	4,350	290,336	146,999
310,779	4,316	290,092	146,830
311,793	4,222	289,803	146,582
312,808	4,447	289,568	146,663
313,822	4,461	289,482	146,620
314,837	4,378	289,302	146,437
315,852	4,419	288,963	146,291
316,866	4,211	288,847	146,022
317,881	4,499	288,549	146,131
318,895	4,523	288,398	146,064
319,910	4,288	288,384	145,822
320,925	4,280	288,036	145,625
321,939	4,202	287,971	145,506
322,954	4,481	287,741	145,640
323,968	4,365	287,640	145,467
324,983	4,316	287,590	145,382
325,997	4,492	287,388	145,432
327,012	4,383	287,189	145,217
328,027	4,621	286,969	145,316
329,041	4,471	286,918	145,137
330,056	4,516	286,458	144,933
331,070	4,548	286,336	144,889
332,085	4,514	286,301	144,826
333,100	4,628	286,017	144,776
334,114	4,449	285,745	144,458
335,129	4,385	285,709	144,367
336,143	4,280	285,531	144,166
337,158	4,678	285,426	144,473
338,173	4,431	285,148	144,087
339,187	4,441	284,899	143,958
340,202	4,350	284,785	143,803
341,216	4,214	284,684	143,613
342,231	4,298	284,466	143,568
343,246	4,258	284,240	143,404
344,260	4,416	284,038	143,436
345,275	4,532	283,959	143,491
346,289	4,737	283,806	143,591
347,304	4,755	283,551	143,466
348,319	4,449	283,375	143,081
349,333	4,541	283,195	143,063
350,348	4,655	283,053	143,084
351,362	4,666	282,733	142,919
352,377	4,496	282,720	142,743
353,392	4,366	282,438	142,468
354,406	4,401	282,296	142,416
355,421	195,306	1345,664	1412,750
356,435	158,140	1475,179	1412,714
