DTS Sentinel unit serial number:	SN410029Multiplexer serial number:	ORYXHardware model number:	OX2-SRSoftware version number:	ORYX F/W v4,00 Oryx Data Collector v3.7.2.0data status	okinstallation	B4 Nyhavnadifferential loss correction	single-endedforward channel	channel 2reverse channel	N/Adate	2023/12/19time	00:20:13forward acquisition time	300,00reverse acquisition time	0,00gamma	499,1914k internal	0,3123k external	0,3123temperature offset calibration	1,0000default loss term (dB/km)	0,3820temperature slope calibration	1,0000multiplexer offset coefficient	1,0000multiplexer slope coefficient	1,0000fibre end	0,00T internal ref (°C)	22,17T ext. ref 1 (°C)	6,78T ext. ref 2 (°C)	6,80length (m)	temperature (°C)	Stokes	anti-Stokes-744,400	800,000	-0,033	-0,107
-743,385	87,091	-0,196	0,162
-742,371	-200,000	-0,009	-0,132
-741,356	132,654	-0,151	0,145
-740,342	-126,006	0,087	0,010
-739,327	-59,798	-0,227	0,072
-738,312	-115,550	0,191	-0,026
-737,298	-61,818	-0,236	0,073
-736,283	-179,366	0,060	-0,001
-735,269	32,480	-0,211	0,136
-734,254	284,651	0,096	-0,129
-733,239	-78,309	-0,491	-0,125
-732,225	60,943	0,073	0,054
-731,210	800,000	0,050	0,131
-730,196	-85,395	0,144	0,033
-729,181	-136,330	-0,145	-0,012
-728,167	-200,000	-0,009	0,054
-727,152	800,000	-0,022	-0,071
-726,137	3,436	0,095	-0,052
-725,123	-200,000	0,009	-0,103
-724,108	364,934	-0,070	-0,105
-723,094	-200,000	0,001	-0,073
-722,079	-200,000	0,024	-0,090
-721,064	-115,212	-0,085	-0,012
-720,050	-200,000	-0,009	-0,093
-719,035	-200,000	0,010	-0,040
-718,021	-53,323	-0,062	0,021
-717,006	168,248	-0,072	0,077
-715,991	-52,124	-0,147	-0,050
-714,977	115,095	-0,090	-0,082
-713,962	235,651	0,076	-0,094
-712,948	198,506	0,055	-0,062
-711,933	655,850	0,078	0,150
-710,918	-104,326	-0,163	-0,028
-709,904	-200,000	0,034	-0,136
-708,889	209,699	0,075	0,088
-707,875	157,668	0,098	0,101
-706,860	80,147	-0,074	0,059
-705,845	-200,000	-0,019	0,174
-704,831	-172,798	-0,090	0,002
-703,816	-0,220	0,069	-0,037
-702,802	96,863	-0,035	0,029
-701,787	-200,000	-0,003	-0,055
-700,772	800,000	0,033	-0,088
-699,758	-200,000	-0,017	0,060
-698,743	143,869	0,119	0,118
-697,729	25,865	-0,090	-0,055
-696,714	-200,000	0,012	-0,045
-695,699	-10,228	-0,079	0,039
-694,685	685,861	-0,022	-0,043
-693,670	800,000	-0,024	-0,058
-692,656	-200,000	-0,010	-0,104
-691,641	-200,000	-0,018	-0,094
-690,627	-6,568	0,061	0,031
-689,612	62,154	-0,192	-0,142
-688,597	79,447	-0,029	0,023
-687,583	-121,448	-0,023	-0,003
-686,568	-60,641	-0,039	-0,012
-685,554	-73,686	-0,146	-0,039
-684,539	236,565	0,021	0,026
-683,524	26,963	0,019	-0,012
-682,510	-150,027	-0,034	-0,002
-681,495	28,000	-0,113	0,071
-680,481	10,707	-0,086	0,049
-679,466	216,116	-0,027	0,032
-678,451	800,000	0,029	0,095
-677,437	-200,000	0,005	0,081
-676,422	-167,995	-0,039	-0,001
-675,408	-200,000	0,008	-0,068
-674,393	221,930	-0,079	0,094
-673,378	58,866	-0,090	-0,065
-672,364	2,497	-0,108	-0,058
-671,349	300,090	-0,072	-0,099
-670,335	145,414	0,101	-0,101
-669,320	5,519	-0,052	0,028
-668,305	20,308	-0,041	-0,024
-667,291	-82,206	-0,059	0,014
-666,276	477,132	0,034	-0,058
-665,262	133,657	-0,079	-0,076
-664,247	150,849	-0,100	-0,102
-663,232	-200,000	0,006	-0,037
-662,218	-69,196	-0,039	-0,011
-661,203	-81,631	0,095	-0,023
-660,189	97,277	-0,047	0,040
-659,174	-103,609	-0,128	-0,022
-658,159	185,935	0,041	-0,045
-657,145	-200,000	-0,026	-0,085
-656,130	-200,000	-0,023	-0,101
-655,116	283,717	-0,032	-0,043
-654,101	-112,539	0,091	0,013
-653,086	25,638	-0,048	-0,030
-652,072	123,638	-0,082	-0,077
-651,057	800,000	0,042	-0,088
-650,043	-34,085	-0,060	-0,025
-649,028	-200,000	0,021	-0,070
-648,014	608,529	0,030	-0,056
-646,999	-11,919	-0,105	-0,051
-645,984	366,566	-0,030	-0,045
-644,970	579,181	0,024	0,044
-643,955	-7,045	-0,169	-0,085
-642,941	-59,331	-0,087	-0,028
-641,926	-74,180	0,041	-0,011
-640,911	384,896	0,086	-0,132
-639,897	185,018	0,065	-0,072
-638,882	779,345	-0,028	0,058
-637,868	-200,000	-0,118	0,000
-636,853	-180,187	-0,121	0,002
-635,838	505,978	-0,027	-0,047
-634,824	474,228	-0,083	0,140
-633,809	184,993	-0,072	0,079
-632,795	-65,378	0,067	0,020
-631,780	234,858	-0,056	-0,068
-630,765	-200,000	0,003	-0,081
-629,751	800,000	0,013	-0,030
-628,736	8,954	0,110	-0,061
-627,722	-200,000	0,023	-0,091
-626,707	-200,000	-0,018	0,074
-625,692	-9,120	0,067	-0,033
-624,678	100,564	0,090	0,077
-623,663	-158,196	-0,106	0,005
-622,649	-200,000	0,007	0,046
-621,634	-200,000	0,039	0,207
-620,619	-200,000	-0,019	0,084
-619,605	-121,128	-0,168	0,021
-618,590	714,925	-0,080	0,158
-617,576	257,941	-0,064	0,082
-616,561	-200,000	-0,001	0,010
-615,546	-168,260	-0,111	0,003
-614,532	-200,000	-0,004	-0,034
-613,517	586,906	0,046	-0,084
-612,503	231,051	0,066	0,081
-611,488	-200,000	0,003	0,084
-610,474	-200,000	-0,014	-0,048
-609,459	545,961	-0,052	0,092
-608,444	324,090	0,053	-0,076
-607,430	89,182	0,051	-0,042
-606,415	96,155	-0,059	-0,050
-605,401	142,020	0,118	-0,116
-604,386	800,000	0,015	0,031
-603,371	-41,751	0,047	-0,018
-602,357	-200,000	0,003	0,072
-601,342	-200,000	0,001	0,069
-600,328	-200,000	0,014	-0,082
-599,313	-200,000	0,004	-0,124
-598,298	732,757	0,051	-0,101
-597,284	-131,919	0,099	-0,009
-596,269	-155,090	-0,021	0,001
-595,255	-65,182	-0,215	-0,064
-594,240	40,677	0,047	-0,032
-593,225	61,636	-0,114	-0,084
-592,211	-30,720	-0,210	0,087
-591,196	800,000	0,056	0,142
-590,182	140,278	-0,122	0,119
-589,167	-47,470	0,083	0,030
-588,152	267,760	0,081	0,105
-587,138	-200,000	-0,022	0,078
-586,123	-37,854	-0,147	-0,058
-585,109	109,196	-0,057	-0,050
-584,094	-36,880	0,061	0,024
-583,079	198,088	0,075	-0,085
-582,065	93,056	-0,106	0,088
-581,050	800,000	0,031	0,094
-580,036	-200,000	-0,013	0,098
-579,021	-167,261	-0,132	0,004
-578,006	489,791	0,066	-0,112
-576,992	-85,204	0,185	-0,042
-575,977	-200,000	0,015	-0,121
-574,963	-156,188	-0,092	-0,004
-573,948	-200,000	0,004	0,041
-572,934	-200,000	0,008	-0,077
-571,919	-49,852	-0,078	0,027
-570,904	-134,897	-0,214	-0,019
-569,890	474,331	0,039	-0,065
-568,875	523,205	-0,025	-0,043
-567,861	558,351	0,083	0,149
-566,846	800,000	0,011	0,027
-565,831	800,000	0,015	0,041
-564,817	308,932	-0,038	0,052
-563,802	430,229	0,043	-0,070
-562,788	800,000	0,017	-0,047
-561,773	48,142	0,087	0,060
-560,758	-200,000	0,018	0,083
-559,744	-112,458	-0,086	0,013
-558,729	21,553	0,160	-0,096
-557,715	-200,000	-0,012	-0,122
-556,700	-200,000	-0,017	-0,116
-555,685	800,000	-0,011	0,036
-554,671	29,075	0,098	-0,061
-553,656	-200,000	0,006	-0,045
-552,642	-111,192	-0,105	-0,016
-551,627	-44,833	-0,056	-0,020
-550,612	174,238	0,052	-0,056
-549,598	240,316	0,089	0,110
-548,583	63,604	0,062	0,046
-547,569	54,321	-0,090	-0,064
-546,554	-200,000	0,014	-0,083
-545,539	17,716	0,015	-0,009
-544,525	196,282	0,128	0,144
-543,510	-200,000	0,050	0,173
-542,496	758,537	-0,032	0,065
-541,481	-200,000	0,034	-0,263
-540,466	-93,989	0,062	-0,013
-539,452	-114,392	-0,116	0,016
-538,437	439,151	0,096	0,156
-537,423	-59,964	-0,108	-0,034
-536,408	-200,000	-0,007	-0,061
-535,393	-169,554	0,033	0,001
-534,379	-200,000	0,034	0,115
-533,364	800,000	0,022	-0,053
-532,350	-200,000	-0,005	0,108
-531,335	-200,000	-0,017	0,145
-530,321	-200,000	-0,001	0,127
-529,306	487,687	-0,038	0,064
-528,291	-172,481	-0,095	-0,002
-527,277	367,823	-0,057	0,085
-526,262	120,699	0,015	0,014
-525,248	-200,000	0,017	-0,112
-524,233	-200,000	0,027	0,094
-523,218	402,783	0,055	0,086
-522,204	-200,000	-0,018	0,078
-521,189	55,746	-0,053	-0,038
-520,175	800,000	0,013	-0,029
-519,160	-200,000	0,019	0,151
-518,145	68,286	-0,094	0,071
-517,131	-200,000	0,003	-0,065
-516,116	-82,829	0,132	-0,031
-515,102	-200,000	-0,003	-0,113
-514,087	800,000	0,063	-0,136
-513,072	-200,000	0,006	-0,111
-512,058	430,698	-0,042	0,067
-511,043	800,000	0,023	0,059
-510,029	-200,000	-0,028	0,127
-509,014	392,894	0,086	0,132
-507,999	98,592	-0,099	0,084
-506,985	-101,608	-0,037	-0,007
-505,970	130,735	0,024	-0,023
-504,956	-30,941	-0,109	0,045
-503,941	-200,000	0,016	0,148
-502,926	-29,056	-0,078	-0,033
-501,912	-200,000	-0,003	0,046
-500,897	-9,478	-0,039	0,019
-499,883	-200,000	-0,001	-0,041
-498,868	-74,365	-0,101	-0,027
-497,853	47,415	-0,074	-0,051
-496,839	16,564	0,139	0,081
-495,824	800,000	-0,061	0,170
-494,810	277,476	0,042	0,055
-493,795	-154,543	-0,096	-0,005
-492,781	-66,750	0,079	0,023
-491,766	-200,000	-0,000	-0,056
-490,751	-200,000	0,021	-0,089
-489,737	-200,000	-0,015	-0,056
-488,722	64,419	0,026	-0,019
-487,708	800,000	0,095	0,218
-486,693	253,845	0,040	0,051
-485,678	-200,000	0,012	0,064
-484,664	705,592	0,041	-0,080
-483,649	-200,000	0,017	-0,096
-482,635	-11,833	-0,136	0,066
-481,620	439,983	-0,062	0,101
-480,605	-95,906	0,138	0,027
-479,591	-187,284	0,087	0,001
-478,576	734,210	0,058	0,116
-477,562	-200,000	0,016	-0,077
-476,547	37,477	-0,075	0,049
-475,532	334,071	0,033	0,048
-474,518	-175,793	0,118	0,002
-473,503	800,000	-0,029	0,062
-472,489	-94,207	0,063	0,013
-471,474	-159,233	-0,103	0,004
-470,459	-94,041	-0,061	-0,012
-469,445	-145,238	0,090	0,006
-468,430	-10,388	-0,147	-0,072
-467,416	-200,000	0,021	-0,072
-466,401	-141,667	-0,068	0,005
-465,386	33,250	0,070	-0,044
-464,372	243,617	-0,088	-0,109
-463,357	175,863	-0,123	-0,132
-462,343	307,859	-0,023	-0,032
-461,328	-200,000	-0,010	-0,091
-460,313	800,000	0,010	0,028
-459,299	318,992	-0,008	0,012
-458,284	-200,000	0,010	0,107
-457,270	108,363	-0,067	0,059
-456,255	-200,000	-0,023	-0,086
-455,241	-200,000	0,007	-0,048
-454,226	276,728	0,099	0,130
-453,211	800,000	-0,008	0,022
-452,197	-88,820	0,058	0,013
-451,182	-173,382	-0,016	-0,000
-450,168	71,289	0,115	0,088
-449,153	800,000	0,047	-0,116
-448,138	-73,539	-0,126	0,034
-447,124	-9,708	0,038	-0,019
-446,109	230,305	0,041	0,049
-445,095	-200,000	-0,009	0,118
-444,080	-200,000	-0,004	0,028
-443,065	15,556	0,116	0,067
-442,051	56,253	-0,050	-0,035
-441,036	-92,066	-0,007	0,001
-440,022	-79,432	-0,187	-0,046
-439,007	800,000	-0,037	-0,082
-437,992	235,776	0,025	0,030
-436,978	205,875	0,076	-0,087
-435,963	9,661	-0,077	-0,043
-434,949	383,962	0,072	0,110
-433,934	312,822	-0,088	0,122
-432,919	-200,000	0,006	-0,059
-431,905	204,634	-0,023	0,026
-430,890	293,333	0,064	0,086
-429,876	46,905	-0,045	-0,031
-428,861	396,199	0,014	0,021
-427,846	-200,000	0,004	0,016
-426,832	-200,000	-0,018	-0,062
-425,817	-92,555	-0,065	-0,013
-424,803	-200,000	-0,011	0,110
-423,788	-125,393	0,193	0,021
-422,773	-200,000	-0,001	-0,031
-421,759	385,765	-0,031	-0,047
-420,744	9,715	-0,058	0,032
-419,730	-140,350	-0,060	0,005
-418,715	261,457	-0,044	-0,056
-417,701	-118,946	-0,072	0,009
-416,686	654,061	-0,041	0,078
-415,671	-77,183	0,051	-0,013
-414,657	110,397	0,066	0,059
-413,642	120,764	0,017	0,015
-412,628	92,058	0,043	0,036
-411,613	85,295	-0,016	-0,013
-410,598	-200,000	-0,031	-0,121
-409,584	-143,788	0,122	0,008
-408,569	-200,000	0,003	0,039
-407,555	88,448	0,080	-0,066
-406,540	800,000	-0,027	0,066
-405,525	-200,000	0,002	-0,087
-404,511	-200,000	0,010	-0,077
-403,496	485,763	0,045	-0,075
-402,482	82,916	0,076	-0,061
-401,467	201,472	0,049	-0,055
-400,452	-200,000	0,023	-0,090
-399,438	800,000	0,012	0,026
-398,423	800,000	-0,027	0,073
-397,409	-200,000	-0,001	-0,117
-396,394	42,280	-0,046	0,031
-395,379	783,282	-0,047	0,095
-394,365	148,407	0,014	-0,014
-393,350	543,149	-0,033	0,058
-392,336	-153,016	0,087	0,004
-391,321	584,722	-0,067	-0,122
-390,306	61,122	-0,073	-0,053
-389,292	-74,040	-0,089	-0,023
-388,277	-129,974	-0,077	0,008
-387,263	66,858	-0,068	-0,051
-386,248	-200,000	0,003	0,164
-385,233	355,910	0,056	0,082
-384,219	-200,000	0,041	0,200
-383,204	-189,168	-0,088	-0,001
-382,190	159,278	-0,104	-0,106
-381,175	124,929	0,053	0,049
-380,160	-137,336	-0,096	-0,008
-379,146	-69,765	-0,071	0,020
-378,131	155,793	0,087	0,088
-377,117	800,000	-0,021	0,049
-376,102	-200,000	-0,001	-0,053
-375,088	800,000	0,039	-0,081
-374,073	503,177	0,037	-0,064
-373,058	164,697	0,086	-0,089
-372,044	800,000	-0,016	-0,046
-371,029	800,000	-0,039	-0,082
-370,015	-101,237	0,018	-0,003
-369,000	283,738	-0,042	-0,056
-367,985	-200,000	-0,002	-0,111
-366,971	192,619	-0,061	-0,067
-365,956	-200,000	-0,006	-0,054
-364,942	2,227	-0,071	0,037
-363,927	-64,969	0,135	0,040
-362,912	-106,521	0,125	0,020
-361,898	-33,496	-0,044	-0,018
-360,883	-168,556	0,059	-0,002
-359,869	2,549	-0,186	-0,099
-358,854	-200,000	0,005	-0,041
-357,839	62,251	0,152	0,111
-356,825	-200,000	0,004	0,025
-355,810	-128,423	0,091	0,009
-354,796	-122,476	-0,054	0,006
-353,781	-150,768	0,139	0,008
-352,766	232,900	0,015	-0,019
-351,752	37,442	0,099	-0,064
-350,737	-200,000	0,009	0,059
-349,723	-51,001	0,041	0,014
-348,708	-200,000	0,007	0,080
-347,693	800,000	-0,040	0,084
-346,679	-200,000	0,005	0,031
-345,664	-200,000	0,014	-0,054
-344,650	324,094	0,099	-0,139
-343,635	-92,087	0,064	-0,013
-342,620	569,503	-0,102	0,184
-341,606	800,000	0,030	0,081
-340,591	-200,000	-0,026	-0,105
-339,577	-38,751	-0,099	-0,038
-338,562	-200,000	-0,012	-0,102
-337,548	-200,000	-0,001	0,051
-336,533	212,961	-0,020	-0,023
-335,518	-200,000	-0,012	0,077
-334,504	800,000	0,055	0,130
-333,489	462,135	-0,062	0,102
-332,475	404,110	0,025	-0,039
-331,460	800,000	-0,049	-0,105
-330,445	-6,300	-0,073	0,036
-329,431	95,560	0,120	0,100
-328,416	800,000	-0,011	0,023
-327,402	85,969	-0,021	0,017
-326,387	-200,000	-0,006	-0,064
-325,372	-39,388	-0,070	0,027
-324,358	-200,000	-0,010	0,051
-323,343	235,029	0,163	-0,198
-322,329	526,431	-0,024	-0,041
-321,314	376,705	0,037	-0,056
-320,299	9,210	-0,113	0,063
-319,285	10,393	-0,225	0,125
-318,270	800,000	-0,040	-0,092
-317,256	800,000	-0,031	-0,091
-316,241	184,598	0,082	-0,089
-315,226	-110,302	-0,118	0,018
-314,212	28,415	0,040	-0,025
-313,197	761,567	0,045	-0,090
-312,183	800,000	-0,045	-0,145
-311,168	-67,120	0,052	-0,015
-310,153	169,374	-0,041	-0,043
-309,139	800,000	0,053	-0,163
-308,124	615,864	0,049	-0,090
-307,110	-139,363	0,092	0,007
-306,095	660,149	0,027	-0,052
-305,080	-200,000	0,006	0,030
-304,066	222,779	0,071	0,084
-303,051	-200,000	0,004	-0,016
-302,037	-107,730	0,040	-0,006
-301,022	324,565	0,038	0,054
-300,008	-190,651	-0,157	0,001
-298,993	800,000	0,014	0,035
-297,978	81,274	0,058	0,046
-296,964	-200,000	-0,017	-0,111
-295,949	-172,047	0,116	-0,003
-294,935	3,898	0,076	-0,041
-293,920	-7,979	-0,046	0,023
-292,905	159,382	0,044	-0,045
-291,891	-200,000	-0,059	0,197
-290,876	125,665	0,061	0,056
-289,862	402,306	0,055	-0,085
-288,847	-39,375	-0,155	0,059
-287,832	-62,766	0,086	-0,026
-286,818	80,565	0,032	-0,025
-285,803	-200,000	-0,014	-0,130
-284,789	-43,467	0,067	0,025
-283,774	-200,000	-0,025	0,094
-282,759	-164,482	0,046	0,001
-281,745	-200,000	-0,008	0,066
-280,730	-127,968	-0,101	-0,010
-279,716	412,766	0,043	0,067
-278,701	-79,048	-0,082	-0,020
-277,686	-28,245	-0,028	0,012
-276,672	711,293	0,081	0,158
-275,657	-74,196	-0,104	0,027
-274,643	-79,972	0,041	-0,010
-273,628	65,674	-0,102	-0,076
-272,613	800,000	-0,030	-0,093
-271,599	222,972	0,065	-0,076
-270,584	-200,000	-0,008	0,072
-269,570	-22,751	0,109	-0,048
-268,555	296,338	0,045	0,061
-267,540	-79,283	0,081	0,020
-266,526	492,777	0,011	0,019
-265,511	-200,000	-0,025	-0,162
-264,497	588,731	0,027	-0,048
-263,482	58,393	0,068	0,049
-262,467	160,474	-0,021	-0,022
-261,453	276,822	0,035	-0,045
-260,438	800,000	-0,035	0,092
-259,424	85,129	0,032	0,026
-258,409	253,807	-0,107	0,134
-257,395	-200,000	0,002	-0,072
-256,380	-200,000	-0,044	0,211
-255,365	44,858	-0,075	-0,050
-254,351	-142,813	0,043	0,003
-253,336	-82,964	0,089	-0,021
-252,322	517,803	-0,052	-0,089
-251,307	271,971	-0,060	-0,077
-250,292	-200,000	-0,005	-0,063
-249,278	800,000	-0,018	0,052
-248,263	-200,000	-0,010	0,039
-247,249	-94,065	-0,005	-0,001
-246,234	-24,385	0,066	-0,029
-245,219	-95,493	0,030	0,006
-244,205	398,610	-0,050	-0,076
-243,190	-72,694	-0,103	0,027
-242,176	-26,756	0,017	0,007
-241,161	-58,355	0,098	-0,031
-240,146	-200,000	-0,042	0,143
-239,132	-71,705	0,118	0,032
-238,117	235,394	0,047	0,057
-237,103	402,140	-0,046	-0,070
-236,088	687,316	0,066	0,126
-235,073	163,936	0,043	0,044
-234,059	111,960	0,161	0,142
-233,044	-200,000	-0,024	0,102
-232,030	-200,000	0,027	-0,175
-231,015	416,923	0,052	0,081
-230,000	772,146	-0,023	-0,046
-228,986	-200,000	0,005	-0,066
-227,971	-90,424	0,180	0,038
-226,957	-200,000	-0,031	0,111
-225,942	132,910	0,095	-0,090
-224,927	-13,772	0,004	0,002
-223,913	-108,553	-0,064	0,010
-222,898	800,000	0,017	0,034
-221,884	-22,736	-0,022	-0,010
-220,869	-145,120	0,069	-0,005
-219,855	243,006	0,013	0,016
-218,840	197,858	-0,110	-0,122
-217,825	-4,193	0,072	-0,036
-216,811	-34,964	-0,124	-0,049
-215,796	323,014	-0,104	-0,145
-214,782	-200,000	-0,004	-0,032
-213,767	-200,000	-0,008	-0,110
-212,752	583,125	0,024	-0,043
-211,738	17,458	-0,115	0,066
-210,723	800,000	-0,016	0,036
-209,709	-200,000	0,024	-0,092
-208,694	-200,000	0,014	-0,132
-207,679	-200,000	0,055	-0,206
-206,665	12,351	0,127	0,071
-205,650	-125,859	0,094	-0,010
-204,636	712,971	0,048	0,093
-203,621	103,416	-0,127	0,109
-202,606	-200,000	0,013	-0,143
-201,592	274,703	-0,120	-0,155
-200,577	-35,018	-0,028	0,011
-199,563	-56,536	-0,084	0,027
-198,548	-100,854	0,076	-0,014
-197,533	186,255	-0,026	0,028
-196,519	161,735	-0,031	0,031
-195,504	-200,000	-0,027	-0,133
-194,490	-100,001	0,029	-0,005
-193,475	47,767	-0,053	-0,036
-192,460	-26,708	0,116	-0,049
-191,446	-24,767	0,005	-0,002
-190,431	544,780	-0,078	0,136
-189,417	-200,000	-0,002	0,029
-188,402	-200,000	0,047	-0,158
-187,387	-135,303	0,042	-0,004
-186,373	-200,000	-0,006	0,063
-185,358	800,000	-0,034	-0,105
-184,344	-136,156	0,041	0,003
-183,329	-109,841	0,059	-0,009
-182,315	-200,000	-0,015	-0,055
-181,300	800,000	-0,021	0,048
-180,285	-200,000	-0,002	0,067
-179,271	63,343	-0,164	-0,120
-178,256	800,000	0,020	0,064
-177,242	-57,123	0,096	0,031
-176,227	-96,087	0,064	0,012
-175,212	776,755	0,011	-0,022
-174,198	-28,132	0,175	0,073
-173,183	800,000	0,039	-0,103
-172,169	800,000	-0,037	-0,115
-171,154	-78,623	-0,066	0,016
-170,139	-200,000	-0,010	0,062
-169,125	800,000	0,044	0,107
-168,110	75,514	0,036	0,027
-167,096	800,000	-0,071	0,147
-166,081	-200,000	0,021	0,136
-165,066	-107,937	-0,042	0,007
-164,052	38,817	-0,052	-0,034
-163,037	-200,000	0,001	0,042
-162,023	216,586	0,092	-0,107
-161,008	800,000	-0,042	-0,108
-159,993	-165,565	-0,105	0,003
-158,979	-200,000	0,019	-0,093
-157,964	-116,618	-0,058	-0,008
-156,950	-145,941	-0,117	0,007
-155,935	-145,016	0,010	-0,001
-154,920	234,757	0,045	0,055
-153,906	-116,149	0,180	0,024
-152,891	274,597	0,118	-0,153
-151,877	-200,000	0,007	-0,065
-150,862	628,081	-0,039	-0,072
-149,847	-200,000	-0,018	-0,062
-148,833	134,968	0,032	-0,030
-147,818	109,047	-0,079	-0,069
-146,804	660,458	0,038	-0,072
-145,789	-200,000	-0,016	0,096
-144,775	282,224	-0,034	0,045
-143,760	91,160	0,027	0,022
-142,745	-200,000	0,004	-0,054
-141,731	729,900	-0,021	-0,040
-140,716	-200,000	-0,002	0,039
-139,702	66,330	0,044	0,032
-138,687	-200,000	0,011	0,144
-137,672	-200,000	-0,013	-0,109
-136,658	-125,536	-0,100	0,011
-135,643	-200,000	-0,039	0,127
-134,629	187,034	-0,078	-0,085
-133,614	-200,000	0,011	0,044
-132,599	-107,576	0,094	0,015
-131,585	72,644	-0,066	0,050
-130,570	-128,032	-0,100	0,010
-129,556	45,405	0,096	-0,065
-128,541	-200,000	-0,032	0,137
-127,526	-200,000	-0,040	-0,148
-126,512	-151,841	0,103	0,005
-125,497	-119,260	-0,001	0,000
-124,483	212,410	0,049	-0,056
-123,468	79,088	0,070	0,055
-122,453	-37,110	-0,073	0,028
-121,439	166,277	-0,038	-0,039
-120,424	800,000	0,052	-0,164
-119,410	-200,000	0,008	0,048
-118,395	-200,000	0,041	-0,135
-117,380	32,463	0,074	0,046
-116,366	164,757	0,055	0,056
-115,351	-200,000	-0,037	0,152
-114,337	-200,000	0,036	-0,124
-113,322	-200,000	-0,004	-0,087
-112,307	-79,400	0,091	0,022
-111,293	800,000	0,053	0,137
-110,278	84,343	-0,084	0,067
-109,264	113,675	0,045	0,040
-108,249	86,713	-0,124	0,099
-107,234	167,955	-0,122	-0,127
-106,220	96,450	-0,044	0,036
-105,205	589,037	0,071	-0,127
-104,191	-51,857	0,100	-0,033
-103,176	-180,214	0,014	-0,000
-102,162	304,650	0,032	-0,043
-101,147	-163,928	0,081	-0,003
-100,132	-124,670	-0,120	0,013
-99,118	319,012	0,012	0,016
-98,103	-19,687	-0,027	0,012
-97,089	-36,937	-0,142	0,055
-96,074	306,792	0,054	-0,073
-95,059	-200,000	0,000	-0,003
-94,045	198,155	-0,091	-0,102
-93,030	-28,939	-0,132	0,055
-92,016	137,314	0,110	0,105
-91,001	800,000	0,060	-0,130
-89,986	-30,699	0,210	-0,086
-88,972	-45,454	0,054	-0,019
-87,957	50,136	0,147	-0,100
-86,943	-200,000	0,026	0,121
-85,928	-200,000	0,097	0,000
-84,913	-200,000	-0,027	0,104
-83,899	50,196	0,040	-0,027
-82,884	523,297	0,025	0,044
-81,870	457,169	0,013	0,022
-80,855	-134,401	-0,146	-0,013
-79,840	23,737	-0,097	-0,058
-78,826	800,000	-0,021	-0,063
-77,811	133,048	-0,138	-0,129
-76,797	800,000	-0,049	-0,127
-75,782	228,944	0,106	-0,126
-74,767	704,806	-0,035	0,068
-73,753	-200,000	-0,004	0,098
-72,738	-200,000	0,007	0,039
-71,724	-200,000	-0,024	-0,087
-70,709	225,815	-0,038	-0,045
-69,694	-200,000	0,013	-0,156
-68,680	-42,906	-0,158	-0,058
-67,665	-200,000	0,007	-0,047
-66,651	8,269	0,116	-0,063
-65,636	58,357	-0,060	-0,043
-64,622	443,338	0,057	0,090
-63,607	-200,000	0,001	-0,018
-62,592	143,808	-0,046	0,045
-61,578	-48,512	0,040	-0,014
-60,563	131,117	0,067	0,063
-59,549	800,000	0,025	0,074
-58,534	-181,346	-1,355	-0,019
-57,519	443,429	-0,885	-1,413
-56,505	-200,000	-0,802	-4,378
-55,490	-39,907	0,602	-0,227
-54,476	800,000	4,923	11,718
-53,461	-200,000	13,678	252,161
-52,446	-200,000	691,177	2264,206
-51,432	605,364	1621,934	2943,672
-50,417	118,825	1633,247	1464,132
-49,403	74,228	1287,284	979,895
-48,388	37,861	1023,372	658,482
-47,373	24,208	981,518	586,660
-46,359	23,430	970,991	577,796
-45,344	22,443	966,791	572,049
-44,330	22,361	965,394	570,933
-43,315	22,190	963,905	569,473
-42,300	22,230	962,794	568,922
-41,286	22,164	961,956	568,191
-40,271	22,186	961,158	567,768
-39,257	22,172	959,940	566,980
-38,242	22,136	959,214	566,411
-37,227	22,218	958,362	566,153
-36,213	22,148	957,383	565,326
-35,198	22,152	956,513	564,801
-34,184	22,247	955,888	564,717
-33,169	22,081	954,922	563,588
-32,154	22,245	953,840	563,456
-31,140	22,248	953,124	563,021
-30,125	22,201	952,471	562,460
-29,111	22,156	951,565	561,760
-28,096	22,240	950,937	561,635
-27,082	22,224	950,164	561,105
-26,067	22,222	949,364	560,605
-25,052	22,288	948,551	560,315
-24,038	22,252	947,920	559,805
-23,023	22,200	947,372	559,291
-22,009	22,199	946,733	558,890
-20,994	22,295	945,911	558,688
-19,979	22,233	945,418	558,179
-18,965	22,211	944,867	557,760
-17,950	22,224	944,321	557,457
-16,936	22,166	943,574	556,809
-15,921	22,205	942,763	556,432
-14,906	22,125	942,244	555,848
-13,892	22,106	941,461	555,304
-12,877	22,083	940,832	554,839
-11,863	22,042	940,132	554,272
-10,848	22,098	939,742	554,200
-9,833	22,161	939,292	554,111
-8,819	22,161	938,509	553,627
-7,804	22,086	938,084	553,118
-6,790	22,094	937,437	552,740
-5,775	22,084	936,793	552,306
-4,760	22,169	936,050	552,115
-3,746	22,069	935,567	551,494
-2,731	21,910	935,113	550,699
-1,717	21,944	934,072	550,173
-0,702	21,975	933,449	549,883
0,313	21,756	932,817	549,648
1,327	24,207	930,555	555,971
2,342	32,022	808,206	504,038
3,356	26,632	508,297	307,785
4,371	1,576	372,890	193,961
5,386	-1,420	355,661	181,314
6,400	-2,539	349,658	176,889
7,415	-3,031	347,140	175,011
8,429	-2,863	345,884	174,563
9,444	-2,850	344,785	174,008
10,459	-2,819	344,077	173,671
11,473	-2,713	343,437	173,458
12,488	-3,019	342,884	172,802
13,502	-3,156	342,465	172,413
14,517	-2,878	341,861	172,422
15,531	-2,796	341,286	172,213
16,546	-2,964	341,053	171,882
17,561	-2,879	340,771	171,825
18,575	-2,681	340,193	171,750
19,590	-2,805	339,872	171,427
20,604	-2,882	339,596	171,182
21,619	-2,716	338,995	171,059
22,634	-2,812	338,782	170,824
23,648	-2,883	338,413	170,539
24,663	-2,769	338,057	170,478
25,677	-2,809	337,695	170,234
26,692	-2,786	337,604	170,199
27,707	-2,907	337,343	169,912
28,721	-2,780	336,936	169,840
29,736	-2,809	336,533	169,588
30,750	-2,808	336,272	169,441
31,765	-2,708	335,940	169,375
32,780	-2,773	335,708	169,168
33,794	-2,741	335,424	169,047
34,809	-2,784	335,199	168,869
35,823	-2,870	334,880	168,593
36,838	-2,788	334,578	168,521
37,853	-2,778	334,205	168,330
38,867	-2,767	333,913	168,180
39,882	-2,842	333,812	168,028
40,896	-2,849	333,470	167,833
41,911	-2,817	333,410	167,825
42,926	-2,761	332,979	167,657
43,940	-2,863	332,748	167,409
44,955	-2,814	332,339	167,244
45,969	-2,969	332,221	166,992
46,984	-2,874	332,096	167,023
47,999	-2,719	331,667	166,969
49,013	-2,789	331,483	166,782
50,028	-2,949	331,214	166,450
51,042	-2,898	331,015	166,393
52,057	-2,894	330,597	166,173
53,071	-2,881	330,507	166,128
54,086	-2,901	330,248	165,960
55,101	-2,730	329,817	165,922
56,115	-2,925	329,638	165,596
57,130	-2,740	329,343	165,643
58,144	-2,675	328,999	165,528
59,159	-2,845	328,711	165,177
60,174	-2,878	328,499	165,018
61,188	-2,973	328,302	164,798
62,203	-2,775	327,940	164,825
63,217	-2,995	327,829	164,506
64,232	-2,850	327,549	164,514
65,247	-2,888	327,286	164,325
66,261	-2,876	326,930	164,144
67,276	-2,756	326,590	164,094
68,290	-2,847	326,550	163,958
69,305	-2,821	326,262	163,827
70,320	-2,744	326,040	163,787
71,334	-2,916	325,785	163,452
72,349	-2,717	325,364	163,449
73,363	-2,732	325,049	163,258
74,378	-2,769	324,893	163,124
75,393	-2,860	324,545	162,834
76,407	-2,972	324,518	162,682
77,422	-2,752	324,298	162,802
78,436	-2,784	324,004	162,604
79,451	-2,919	323,699	162,286
80,466	-2,670	323,342	162,369
81,480	-2,892	323,193	162,034
82,495	-2,703	322,844	162,053
83,509	-2,831	322,769	161,859
84,524	-2,653	322,349	161,831
85,539	-2,770	322,321	161,674
86,553	-2,735	321,968	161,520
87,568	-2,911	321,755	161,205
88,582	-2,884	321,586	161,135
89,597	-2,928	321,317	160,939
90,611	-2,911	321,165	160,866
91,626	-2,956	320,951	160,696
92,641	-2,864	320,669	160,641
93,655	-2,884	320,440	160,490
94,670	-2,845	320,105	160,351
95,684	-2,791	319,834	160,260
96,699	-2,700	319,607	160,231
97,714	-2,855	319,709	160,099
98,728	-2,753	319,226	159,955
99,743	-2,914	318,979	159,640
100,757	-2,821	318,890	159,683
101,772	-2,732	318,556	159,598
102,787	-2,675	318,200	159,468
103,801	-2,751	317,978	159,260
104,816	-2,821	317,867	159,114
105,830	-2,713	317,573	159,070
106,845	-2,877	317,453	158,818
107,860	-2,886	317,201	158,668
108,874	-2,944	316,955	158,468
109,889	-2,805	316,684	158,469
110,903	-2,798	316,468	158,353
111,918	-2,927	316,254	158,093
112,933	-2,737	316,022	158,168
113,947	-2,788	315,799	157,987
114,962	-2,774	315,617	157,898
115,976	-2,781	315,373	157,754
116,991	-2,753	315,082	157,624
118,006	-2,789	314,772	157,417
119,020	-2,734	314,731	157,440
120,035	-2,744	314,644	157,372
121,049	-2,656	314,461	157,362
122,064	-2,817	314,074	156,981
123,079	-2,731	313,893	156,968
124,093	-2,808	313,594	156,723
125,108	-2,856	313,404	156,563
126,122	-2,821	313,222	156,495
127,137	-2,740	312,902	156,408
128,151	-2,782	312,684	156,240
129,166	-2,718	312,554	156,230
130,181	-2,783	312,208	155,974
131,195	-2,885	312,011	155,753
132,210	-2,626	311,726	155,872
133,224	-2,816	311,608	155,597
134,239	-2,830	311,402	155,465
135,254	-2,738	311,141	155,419
136,268	-2,836	310,894	155,178
137,283	-2,771	310,712	155,142
138,297	-2,843	310,473	154,932
139,312	-2,647	310,050	154,915
140,327	-2,808	310,042	154,726
141,341	-2,649	309,743	154,732
142,356	-2,710	309,595	154,580
143,370	-2,747	309,435	154,447
144,385	-2,726	309,097	154,286
145,400	-2,596	308,863	154,292
146,414	-2,755	308,740	154,050
147,429	-2,698	308,622	154,037
148,443	-2,871	308,254	153,658
149,458	-2,791	308,036	153,620
150,473	-2,679	307,876	153,644
151,487	-2,869	307,683	153,335
152,502	-2,739	307,381	153,306
153,516	-2,764	307,268	153,210
154,531	-2,824	307,037	153,019
155,546	-2,644	306,755	153,052
156,560	-2,776	306,626	152,837
157,575	-2,726	306,335	152,730
158,589	-2,712	305,954	152,541
159,604	-2,584	305,756	152,562
160,619	-2,715	305,736	152,403
161,633	-2,638	305,488	152,345
162,648	-2,516	305,310	152,370
163,662	-2,712	305,248	152,121
164,677	-2,789	304,975	151,892
165,692	-2,732	304,757	151,829
166,706	-2,582	304,413	151,800
167,721	-2,735	304,298	151,570
168,735	-2,643	304,081	151,544
169,750	-2,815	304,000	151,312
170,764	-2,719	303,697	151,246
171,779	-2,682	303,507	151,177
172,794	-2,670	303,377	151,111
173,808	-2,688	303,157	150,969
174,823	-2,699	303,007	150,869
175,837	-2,783	302,674	150,605
176,852	-2,753	302,461	150,516
177,867	-2,776	302,377	150,437
178,881	-2,726	302,075	150,325
179,896	-2,795	301,971	150,188
180,910	-2,682	301,698	150,155
181,925	-2,674	301,361	149,982
182,940	-2,732	301,298	149,878
183,954	-2,722	301,060	149,757
184,969	-2,748	300,884	149,630
185,983	-2,478	300,669	149,784
186,998	-2,465	300,481	149,691
188,013	-2,595	300,226	149,418
189,027	-2,590	300,173	149,383
190,042	-2,658	299,884	149,157
191,056	-2,438	299,489	149,170
192,071	-2,787	299,438	148,777
193,086	-2,671	299,240	148,784
194,100	-2,722	299,094	148,646
195,115	-2,617	298,732	148,559
196,129	-2,499	298,628	148,613
197,144	-2,653	298,297	148,280
198,159	-2,687	298,118	148,144
199,173	-2,739	297,987	148,012
200,188	-2,714	297,676	147,870
201,202	-2,664	297,419	147,779
202,217	-2,709	297,391	147,707
203,232	-2,510	297,185	147,792
204,246	-2,720	296,993	147,473
205,261	-2,678	296,789	147,399
206,275	-2,661	296,505	147,263
207,290	-2,611	296,367	147,231
208,304	-2,737	296,191	147,004
209,319	-2,607	295,864	146,959
210,334	-2,453	295,743	147,041
211,348	-2,682	295,533	146,694
212,363	-2,608	295,401	146,689
213,377	-2,594	295,091	146,536
214,392	-2,717	294,947	146,329
215,407	-2,675	294,744	146,256
216,421	-2,604	294,339	146,113
217,436	-2,712	294,269	145,959
218,450	-2,786	294,107	145,791
219,465	-2,698	294,023	145,823
220,480	-2,577	293,815	145,829
221,494	-2,672	293,606	145,617
222,509	-2,447	293,288	145,669
223,523	-2,658	293,263	145,434
224,538	-2,655	293,066	145,327
225,553	-2,408	292,775	145,415
226,567	-2,604	292,654	145,148
227,582	-2,515	292,418	145,106
228,596	-2,728	292,359	144,852
229,611	-2,454	292,183	145,024
230,626	-2,747	291,895	144,578
231,640	-2,525	291,688	144,681
232,655	-2,522	291,499	144,578
233,669	-2,707	291,300	144,284
234,684	-2,721	291,220	144,218
235,699	-2,590	291,016	144,233
236,713	-2,627	290,728	144,041
237,728	-2,393	290,462	144,125
238,742	-2,652	290,377	143,816
239,757	-2,646	290,156	143,700
240,772	-2,681	289,929	143,540
241,786	-2,760	289,740	143,357
242,801	-2,688	289,614	143,353
243,815	-2,551	289,383	143,359
244,830	-2,686	289,187	143,117
245,844	-2,682	288,956	142,994
246,859	-2,630	288,752	142,931
247,874	-2,546	288,580	142,915
248,888	-2,784	288,391	142,577
249,903	-2,668	288,244	142,605
250,917	-2,714	287,993	142,424
251,932	-2,549	287,774	142,462
252,947	-2,852	287,507	142,024
253,961	-3,517	287,110	141,170
254,976	-4,154	286,749	140,363
255,990	-4,073	286,482	140,298
257,005	-3,258	286,828	141,245
258,020	-0,961	287,634	143,857
259,034	0,572	288,136	145,583
260,049	1,221	288,124	146,193
261,063	1,676	288,042	146,579
262,078	1,909	288,038	146,790
263,093	2,293	287,845	147,050
264,107	2,420	287,783	147,128
265,122	2,626	287,733	147,289
266,136	2,535	287,409	147,021
267,151	2,627	287,386	147,085
268,166	2,838	287,096	147,127
269,180	2,631	287,058	146,895
270,195	2,805	286,724	146,878
271,209	2,752	286,585	146,743
272,224	2,542	286,400	146,434
273,239	2,558	286,143	146,305
274,253	2,498	285,897	146,108
275,268	2,505	285,743	146,023
276,282	2,466	285,635	145,918
277,297	2,572	285,302	145,836
278,312	2,588	285,118	145,744
279,326	2,542	285,049	145,652
280,341	2,475	284,930	145,514
281,355	2,452	284,643	145,333
282,370	2,528	284,556	145,348
283,384	2,388	284,328	145,085
284,399	2,275	284,191	144,894
285,414	2,498	283,981	144,987
286,428	2,476	283,609	144,763
287,443	2,281	283,589	144,554
288,457	2,249	283,392	144,410
289,472	2,477	283,152	144,492
290,487	2,306	282,838	144,156
291,501	2,351	282,648	144,089
292,516	2,277	282,568	143,966
293,530	2,320	282,415	143,915
294,545	2,275	282,208	143,755
295,560	2,232	281,914	143,552
296,574	2,237	281,772	143,471
297,589	2,221	281,680	143,396
298,603	2,203	281,419	143,234
299,618	2,378	281,326	143,339
300,633	2,274	281,142	143,134
301,647	2,293	280,990	143,062
302,662	2,490	280,733	143,103
303,676	2,533	280,673	143,101
304,691	2,495	280,420	142,923
305,706	2,585	280,272	142,920
306,720	2,634	280,171	142,901
307,735	2,499	279,968	142,658
308,749	2,597	279,808	142,656
309,764	2,497	279,526	142,405
310,779	2,411	279,437	142,267
311,793	2,453	279,195	142,170
312,808	2,527	278,992	142,124
313,822	2,383	278,810	141,884
314,837	2,570	278,549	141,913
315,852	2,612	278,493	141,911
316,866	2,416	278,389	141,663
317,881	2,562	278,149	141,664
318,895	2,317	277,893	141,293
319,910	2,503	277,696	141,353
320,925	2,512	277,547	141,273
321,939	2,491	277,479	141,206
322,954	2,403	277,382	141,062
323,968	2,587	277,077	141,065
324,983	2,551	276,894	140,926
325,997	2,592	276,721	140,863
327,012	2,652	276,477	140,782
328,027	2,512	276,408	140,605
329,041	2,551	276,228	140,538
330,056	2,652	276,055	140,529
331,070	2,438	275,822	140,202
332,085	2,643	275,620	140,275
333,100	2,599	275,431	140,125
334,114	2,706	275,253	140,121
335,129	2,651	275,068	139,964
336,143	2,497	274,888	139,718
337,158	2,631	274,872	139,820
338,173	2,571	274,641	139,635
339,187	2,581	274,369	139,494
340,202	2,659	274,207	139,470
341,216	2,563	274,134	139,334
342,231	2,491	273,996	139,185
343,246	2,529	273,810	139,113
344,260	2,882	273,389	139,208
345,275	2,618	273,473	138,998
346,289	2,549	273,353	138,862
347,304	2,656	273,014	138,774
348,319	2,789	272,834	138,792
349,333	2,681	272,579	138,552
350,348	2,653	272,543	138,496
351,362	2,661	272,351	138,393
352,377	2,554	272,324	138,270
353,392	2,642	272,016	138,180
354,406	2,704	271,863	138,147
355,421	192,078	1348,836	1431,594
356,435	155,075	1480,152	1431,730
