DTS Sentinel unit serial number:	SN410029Multiplexer serial number:	ORYXHardware model number:	OX2-SRSoftware version number:	ORYX F/W v4,00 Oryx Data Collector v3.7.2.0data status	okinstallation	B4 Nyhavnadifferential loss correction	single-endedforward channel	channel 2reverse channel	N/Adate	2023/12/16time	02:30:13forward acquisition time	300,00reverse acquisition time	0,00gamma	499,1914k internal	0,3128k external	0,3128temperature offset calibration	1,0000default loss term (dB/km)	0,3820temperature slope calibration	1,0000multiplexer offset coefficient	1,0000multiplexer slope coefficient	1,0000fibre end	0,00T internal ref (°C)	21,95T ext. ref 1 (°C)	7,07T ext. ref 2 (°C)	7,26length (m)	temperature (°C)	Stokes	anti-Stokes-744,400	-41,778	-0,006	-0,002
-743,385	-110,159	-0,341	0,052
-742,371	345,795	-0,014	0,020
-741,356	-200,000	-0,125	-0,000
-740,342	-53,508	0,069	-0,023
-739,327	47,936	-0,193	0,134
-738,312	788,976	0,051	0,106
-737,298	38,292	-0,261	0,172
-736,283	-137,540	0,101	-0,008
-735,269	-77,658	-0,114	0,029
-734,254	690,250	0,060	-0,117
-733,239	-2,895	-0,339	-0,175
-732,225	-200,000	0,014	-0,088
-731,210	-200,000	0,013	0,153
-730,196	-200,000	-0,018	-0,083
-729,181	440,402	-0,034	0,055
-728,167	272,306	-0,014	-0,019
-727,152	-200,000	0,020	-0,082
-726,137	83,425	-0,076	0,061
-725,123	133,709	-0,118	-0,113
-724,108	113,944	0,046	-0,041
-723,094	89,459	-0,113	-0,094
-722,079	741,231	0,030	-0,060
-721,064	643,892	-0,016	0,030
-720,050	-200,000	0,014	0,048
-719,035	23,514	-0,127	-0,078
-718,021	800,000	-0,053	-0,144
-717,006	-7,019	-0,120	0,060
-715,991	561,738	-0,076	-0,138
-714,977	-6,243	-0,140	-0,071
-713,962	50,932	-0,084	-0,059
-712,948	-2,654	-0,032	0,016
-711,933	-200,000	0,008	0,033
-710,918	-113,878	-0,087	0,012
-709,904	7,011	-0,058	0,032
-708,889	19,674	0,049	0,029
-707,875	464,719	-0,011	0,019
-706,860	453,111	-0,055	-0,090
-705,845	-55,517	0,128	-0,043
-704,831	-178,821	0,003	0,000
-703,816	201,774	0,047	-0,053
-702,802	-26,188	-0,057	-0,025
-701,787	-200,000	0,014	0,084
-700,772	800,000	-0,014	0,037
-699,758	519,446	-0,027	-0,047
-698,743	800,000	0,041	0,111
-697,729	-200,000	-0,038	-0,131
-696,714	-119,458	0,021	0,003
-695,699	429,630	-0,040	-0,065
-694,685	800,000	0,057	-0,122
-693,670	-200,000	0,050	-0,167
-692,656	-200,000	-0,006	-0,104
-691,641	-200,000	0,001	-0,119
-690,627	-190,424	0,061	0,000
-689,612	393,607	-0,041	-0,063
-688,597	46,126	-0,058	-0,040
-687,583	-76,435	-0,115	-0,030
-686,568	-134,985	0,087	-0,008
-685,554	-200,000	-0,011	-0,114
-684,539	114,891	0,072	0,065
-683,524	800,000	0,021	-0,053
-682,510	-49,017	-0,038	0,013
-681,495	-23,366	-0,087	-0,039
-680,481	-17,467	0,072	0,033
-679,466	800,000	0,022	-0,057
-678,451	-200,000	-0,025	-0,144
-677,437	-172,238	0,087	-0,002
-676,422	-110,737	-0,171	0,026
-675,408	-38,727	-0,101	0,039
-674,393	398,638	-0,068	-0,106
-673,378	56,751	0,016	0,012
-672,364	-112,494	-0,208	0,031
-671,349	138,362	-0,071	-0,069
-670,335	-13,000	-0,066	0,032
-669,320	53,681	-0,099	0,071
-668,305	68,074	0,038	-0,029
-667,291	165,500	-0,048	-0,050
-666,276	-200,000	-0,014	-0,095
-665,262	42,677	-0,023	-0,016
-664,247	216,609	-0,025	-0,030
-663,232	-200,000	0,004	-0,187
-662,218	526,659	-0,020	-0,035
-661,203	40,408	0,027	0,018
-660,189	-128,362	-0,021	-0,002
-659,174	800,000	0,034	-0,099
-658,159	-200,000	-0,012	-0,052
-657,145	19,365	-0,051	-0,030
-656,130	-47,563	-0,050	-0,018
-655,116	800,000	-0,014	0,029
-654,101	-200,000	0,039	-0,131
-653,086	-200,000	0,017	-0,160
-652,072	201,501	0,060	-0,069
-651,057	-200,000	0,011	0,064
-650,043	-200,000	-0,024	-0,093
-649,028	33,989	0,060	0,039
-648,014	204,204	0,015	0,018
-646,999	122,597	-0,062	-0,058
-645,984	-69,785	0,011	-0,003
-644,970	-200,000	-0,013	0,065
-643,955	-106,662	-0,131	-0,021
-642,941	261,986	0,043	-0,055
-641,926	-15,078	-0,119	0,056
-640,911	-200,000	-0,005	-0,096
-639,897	-200,000	0,016	0,096
-638,882	-200,000	-0,001	0,027
-637,868	-62,237	0,029	0,009
-636,853	-59,604	-0,100	-0,032
-635,838	141,221	-0,066	0,065
-634,824	71,099	-0,017	-0,013
-633,809	-81,781	0,141	0,034
-632,795	209,492	0,103	-0,120
-631,780	228,092	0,058	-0,070
-630,765	454,599	0,017	0,029
-629,751	-200,000	0,015	0,105
-628,736	800,000	0,022	0,064
-627,722	347,276	0,070	-0,103
-626,707	800,000	0,039	-0,090
-625,692	793,158	0,046	-0,095
-624,678	237,619	-0,031	-0,039
-623,663	-150,116	0,075	-0,004
-622,649	360,015	0,035	0,052
-621,634	-200,000	-0,029	-0,135
-620,619	-200,000	0,009	-0,059
-619,605	-25,878	0,132	0,057
-618,590	-200,000	-0,004	0,045
-617,576	-200,000	0,015	0,159
-616,561	-200,000	-0,013	0,078
-615,546	213,052	0,125	-0,147
-614,532	-115,735	-0,077	-0,011
-613,517	-200,000	-0,005	-0,150
-612,503	679,099	0,019	0,037
-611,488	800,000	0,022	0,053
-610,474	800,000	0,008	0,025
-609,459	800,000	0,016	0,052
-608,444	-164,049	0,135	0,005
-607,430	-68,585	-0,140	0,040
-606,415	-99,889	-0,048	-0,009
-605,401	330,235	0,100	-0,142
-604,386	670,143	0,047	0,091
-603,371	-200,000	-0,011	0,079
-602,357	-149,625	0,121	0,007
-601,342	165,722	0,035	-0,037
-600,328	-200,000	-0,024	-0,154
-599,313	44,112	-0,064	0,043
-598,298	-200,000	-0,030	-0,130
-597,284	-17,883	-0,060	0,028
-596,269	177,129	-0,074	0,080
-595,255	800,000	0,042	0,113
-594,240	800,000	0,018	-0,042
-593,225	800,000	-0,013	0,040
-592,211	72,173	-0,162	-0,124
-591,196	800,000	0,060	-0,130
-590,182	777,500	-0,019	-0,039
-589,167	-200,000	-0,035	0,122
-588,152	-23,530	0,101	0,045
-587,138	421,601	-0,026	0,041
-586,123	-164,791	-0,039	-0,001
-585,109	-200,000	0,048	-0,169
-584,094	121,075	0,062	-0,057
-583,079	-81,049	-0,125	-0,030
-582,065	-200,000	0,009	-0,065
-581,050	166,409	0,019	-0,020
-580,036	-131,152	-0,105	0,010
-579,021	-134,772	-0,051	-0,004
-578,006	-34,599	-0,135	-0,054
-576,992	-200,000	-0,021	0,086
-575,977	119,977	0,112	0,103
-574,963	225,605	-0,067	0,081
-573,948	1,964	-0,086	0,046
-572,934	-200,000	-0,008	0,049
-571,919	-144,985	0,135	0,009
-570,904	-88,874	-0,045	0,010
-569,890	119,801	0,029	0,026
-568,875	6,423	-0,044	0,024
-567,861	-116,309	-0,037	0,005
-566,846	121,601	-0,037	-0,034
-565,831	440,030	-0,016	-0,027
-564,817	145,419	-0,028	-0,028
-563,802	108,631	0,048	-0,043
-562,788	-200,000	0,000	0,073
-561,773	175,177	-0,028	0,030
-560,758	44,428	0,114	0,077
-559,744	58,170	0,131	-0,095
-558,729	90,886	-0,042	0,035
-557,715	-200,000	-0,008	-0,257
-556,700	48,596	-0,114	-0,079
-555,685	180,875	-0,151	-0,164
-554,671	239,052	0,050	-0,062
-553,656	92,903	0,128	0,107
-552,642	215,349	0,079	0,093
-551,627	-87,138	0,122	-0,027
-550,612	-191,395	0,022	0,000
-549,598	-52,250	-0,146	-0,050
-548,583	261,627	-0,027	-0,034
-547,569	131,922	0,023	-0,022
-546,554	-200,000	-0,028	0,091
-545,539	-24,986	-0,067	-0,029
-544,525	144,390	0,027	-0,027
-543,510	-200,000	-0,003	0,012
-542,496	-16,573	-0,086	0,040
-541,481	-149,060	-0,036	0,002
-540,466	-200,000	0,015	-0,150
-539,452	214,303	0,052	-0,061
-538,437	429,044	-0,093	0,149
-537,423	26,513	-0,086	-0,053
-536,408	16,442	-0,064	0,037
-535,393	800,000	-0,064	-0,144
-534,379	800,000	-0,040	-0,102
-533,364	428,860	-0,051	-0,081
-532,350	-48,679	-0,085	-0,030
-531,335	-68,232	0,060	0,017
-530,321	68,419	0,030	-0,023
-529,306	-60,121	-0,087	-0,027
-528,291	207,593	-0,110	-0,127
-527,277	57,791	0,032	0,023
-526,262	15,155	0,047	0,027
-525,248	18,382	0,061	0,036
-524,233	60,688	0,070	0,051
-523,218	53,827	0,022	0,015
-522,204	800,000	-0,035	0,103
-521,189	13,800	-0,150	-0,086
-520,175	361,991	-0,032	-0,047
-519,160	3,923	-0,079	0,042
-518,145	283,816	0,075	0,100
-517,131	9,661	0,134	0,075
-516,116	-200,000	0,002	0,024
-515,102	-200,000	0,015	0,053
-514,087	800,000	-0,023	-0,062
-513,072	361,957	-0,052	-0,077
-512,058	-52,740	-0,174	-0,059
-511,043	636,926	0,023	0,044
-510,029	-18,839	0,089	0,041
-509,014	800,000	0,030	-0,077
-507,999	-141,258	-0,123	0,009
-506,985	64,207	0,019	0,014
-505,970	-143,956	-0,126	-0,009
-504,956	800,000	0,013	-0,037
-503,941	94,304	0,085	-0,071
-502,926	800,000	-0,024	0,054
-501,912	-146,151	-0,128	-0,008
-500,897	-143,009	-0,068	0,005
-499,883	175,925	-0,051	0,054
-498,868	-200,000	0,001	0,078
-497,853	-102,608	0,094	0,016
-496,839	-69,855	0,093	-0,026
-495,824	444,892	0,058	0,093
-494,810	-93,128	0,135	0,027
-493,795	666,164	0,030	-0,058
-492,781	662,442	-0,039	0,075
-491,766	-162,404	0,047	0,002
-490,751	-73,543	0,103	-0,028
-489,737	641,329	-0,026	-0,049
-488,722	-200,000	-0,001	0,065
-487,708	800,000	-0,045	0,095
-486,693	-200,000	-0,002	0,056
-485,678	-58,357	0,088	-0,028
-484,664	60,486	-0,076	0,055
-483,649	61,970	-0,072	0,053
-482,635	23,888	0,076	-0,046
-481,620	452,322	0,033	0,054
-480,605	196,472	-0,006	-0,007
-479,591	106,732	-0,011	0,009
-478,576	128,452	0,072	0,068
-477,562	341,128	0,052	-0,075
-476,547	317,802	0,019	0,027
-475,532	164,671	0,105	-0,109
-474,518	-8,772	-0,049	-0,024
-473,503	44,153	-0,090	0,061
-472,489	-200,000	-0,005	-0,066
-471,474	-38,893	0,078	0,030
-470,459	-121,966	-0,055	0,007
-469,445	118,922	-0,050	-0,045
-468,430	-82,800	0,178	0,042
-467,416	-93,612	-0,170	-0,034
-466,401	0,536	0,055	-0,029
-465,386	-200,000	-0,041	0,143
-464,372	307,171	0,047	0,065
-463,357	-200,000	-0,013	0,056
-462,343	487,934	-0,032	-0,054
-461,328	98,246	0,045	-0,038
-460,313	-94,740	0,079	0,016
-459,299	293,855	0,051	-0,068
-458,284	3,734	0,120	-0,064
-457,270	-123,916	-0,017	-0,002
-456,255	5,223	0,031	0,017
-455,241	22,425	-0,093	0,056
-454,226	-200,000	-0,007	-0,024
-453,211	410,660	-0,057	-0,090
-452,197	-200,000	0,004	-0,074
-451,182	32,507	-0,034	0,022
-450,168	-200,000	-0,001	-0,057
-449,153	-152,590	-0,066	-0,003
-448,138	-200,000	-0,005	0,054
-447,124	431,027	-0,070	-0,113
-446,109	595,053	0,034	-0,063
-445,095	162,255	0,056	0,057
-444,080	51,459	-0,119	-0,083
-443,065	-36,694	0,023	-0,009
-442,051	39,648	-0,029	0,019
-441,036	622,696	-0,037	0,069
-440,022	147,230	0,075	-0,074
-439,007	-200,000	0,006	-0,098
-437,992	-130,693	-0,153	0,015
-436,978	478,591	0,057	0,096
-435,963	720,558	0,049	-0,096
-434,949	410,575	-0,026	0,040
-433,934	800,000	-0,025	-0,080
-432,919	-200,000	0,000	0,044
-431,905	60,999	-0,055	0,040
-430,890	58,549	0,070	0,051
-429,876	-200,000	0,053	0,181
-428,861	800,000	-0,050	0,142
-427,846	-5,107	-0,129	0,065
-426,832	121,040	-0,055	0,051
-425,817	800,000	0,061	-0,173
-424,803	244,865	0,070	-0,086
-423,788	263,424	-0,033	0,042
-422,773	-200,000	0,005	0,148
-421,759	-34,345	-0,096	-0,039
-420,744	-127,331	-0,081	0,009
-419,730	614,887	-0,050	0,093
-418,715	108,822	0,042	0,037
-417,701	229,940	0,049	-0,059
-416,686	97,241	-0,023	0,019
-415,671	-108,710	-0,122	-0,019
-414,657	-37,483	-0,107	0,042
-413,642	470,928	-0,024	0,040
-412,628	-7,366	0,090	-0,045
-411,613	-200,000	-0,005	-0,091
-410,598	-44,088	0,024	-0,009
-409,584	-42,673	-0,078	0,029
-408,569	7,612	-0,039	-0,022
-407,555	311,543	0,024	0,034
-406,540	-43,709	0,048	0,018
-405,525	43,577	-0,122	0,082
-404,511	-23,006	0,006	-0,003
-403,496	-200,000	-0,000	-0,065
-402,482	-21,323	-0,015	0,007
-401,467	84,650	0,021	-0,017
-400,452	-158,319	0,107	0,004
-399,438	-28,286	0,141	0,059
-398,423	-70,021	0,067	-0,019
-397,409	-23,318	-0,098	-0,043
-396,394	800,000	0,023	-0,074
-395,379	9,583	-0,109	-0,060
-394,365	36,201	-0,050	-0,033
-393,350	-167,750	0,086	-0,002
-392,336	-43,067	-0,068	-0,025
-391,321	-200,000	-0,032	0,136
-390,306	-38,463	-0,091	0,035
-389,292	334,721	-0,055	-0,078
-388,277	7,638	-0,045	-0,025
-387,263	98,915	-0,097	-0,082
-386,248	184,127	0,054	0,058
-385,233	725,635	0,062	0,121
-384,219	800,000	-0,012	-0,039
-383,204	800,000	-0,025	0,062
-382,190	-32,154	0,014	0,006
-381,175	699,225	0,045	0,088
-380,160	-116,832	0,069	-0,009
-379,146	103,263	0,090	0,078
-378,131	-108,451	0,092	-0,014
-377,117	-200,000	-0,011	-0,128
-376,102	-88,361	-0,045	-0,010
-375,088	506,573	-0,033	-0,057
-374,073	133,113	0,013	-0,013
-373,058	265,763	0,060	0,076
-372,044	-112,575	-0,175	0,025
-371,029	427,680	-0,084	0,133
-370,015	-43,315	0,118	0,044
-369,000	-63,578	-0,079	-0,024
-367,985	-143,855	0,082	0,006
-366,971	-200,000	-0,089	-0,000
-365,956	-200,000	0,011	0,051
-364,942	693,430	0,055	0,106
-363,927	199,438	-0,016	0,018
-362,912	39,315	-0,038	-0,025
-361,898	800,000	0,025	-0,075
-360,883	800,000	-0,047	-0,096
-359,869	-15,704	0,069	-0,032
-358,854	800,000	0,017	-0,052
-357,839	-44,265	0,036	-0,013
-356,825	722,841	0,023	0,046
-355,810	-23,074	-0,087	0,038
-354,796	800,000	0,041	0,125
-353,781	-122,709	-0,090	-0,011
-352,766	-7,806	-0,065	-0,032
-351,752	800,000	-0,028	0,082
-350,737	-63,155	0,074	-0,022
-349,723	-200,000	-0,003	-0,056
-348,708	-11,845	-0,080	0,038
-347,693	800,000	0,025	0,055
-346,679	39,245	-0,113	-0,074
-345,664	-200,000	-0,039	-0,132
-344,650	-200,000	-0,012	-0,066
-343,635	-101,070	0,074	0,013
-342,620	-200,000	-0,003	0,081
-341,606	-150,364	-0,073	0,004
-340,591	-130,329	0,064	0,006
-339,577	-192,592	-0,074	-0,000
-338,562	-200,000	-0,007	0,090
-337,548	555,731	0,024	-0,042
-336,533	800,000	-0,008	-0,024
-335,518	-200,000	0,009	0,107
-334,504	-50,897	0,082	0,028
-333,489	-200,000	0,012	0,095
-332,475	22,819	-0,097	0,058
-331,460	57,696	0,077	0,055
-330,445	-200,000	0,011	0,044
-329,431	-200,000	-0,019	-0,130
-328,416	171,780	-0,092	-0,097
-327,402	322,046	-0,020	0,027
-326,387	-200,000	-0,008	0,029
-325,372	110,524	0,060	-0,053
-324,358	379,247	-0,060	0,090
-323,343	76,457	-0,094	-0,073
-322,329	274,198	0,031	-0,041
-321,314	62,847	-0,046	0,034
-320,299	800,000	-0,031	0,083
-319,285	68,825	-0,063	-0,047
-318,270	800,000	-0,030	-0,073
-317,256	-64,507	-0,215	-0,063
-316,241	108,136	-0,078	-0,068
-315,226	-129,683	0,148	0,015
-314,212	800,000	0,015	-0,039
-313,197	-49,264	0,036	0,013
-312,183	-7,484	0,058	0,028
-311,168	-30,341	-0,114	0,047
-310,153	-200,000	-0,007	-0,037
-309,139	-18,972	0,085	-0,039
-308,124	800,000	-0,070	0,151
-307,110	-173,502	0,108	-0,002
-306,095	45,189	0,113	0,076
-305,080	-63,609	0,108	0,032
-304,066	-62,591	-0,117	-0,035
-303,051	186,162	-0,040	-0,044
-302,037	153,957	0,069	-0,070
-301,022	-200,000	0,025	0,112
-300,008	4,503	0,063	0,034
-298,993	155,314	-0,051	-0,052
-297,978	-52,993	0,042	0,014
-296,964	219,696	0,017	-0,019
-295,949	-23,378	0,072	-0,031
-294,935	-200,000	0,032	-0,149
-293,920	800,000	0,022	-0,068
-292,905	342,923	0,050	0,071
-291,891	271,661	0,049	0,063
-290,876	-8,262	-0,073	-0,036
-289,862	-160,899	-0,143	0,005
-288,847	-200,000	0,004	0,040
-287,832	165,801	-0,045	0,046
-286,818	-81,437	0,090	0,021
-285,803	42,014	0,058	0,038
-284,789	-200,000	0,015	-0,049
-283,774	29,547	-0,101	0,063
-282,759	-200,000	0,028	-0,097
-281,745	-200,000	-0,003	-0,077
-280,730	217,432	-0,079	-0,092
-279,716	-49,040	0,038	0,013
-278,701	800,000	-0,032	0,069
-277,686	-78,317	-0,117	0,029
-276,672	-112,715	0,042	0,006
-275,657	-7,112	-0,094	0,046
-274,643	196,238	-0,064	-0,071
-273,628	114,391	0,126	-0,112
-272,613	-200,000	-0,042	-0,146
-271,599	-15,649	0,180	0,083
-270,584	317,703	0,063	-0,087
-269,570	40,670	0,052	-0,034
-268,555	97,659	0,127	0,107
-267,540	18,742	-0,098	-0,057
-266,526	800,000	0,031	-0,078
-265,511	410,062	0,034	-0,053
-264,497	45,364	0,090	0,061
-263,482	288,204	-0,038	-0,050
-262,467	800,000	0,028	-0,073
-261,453	-200,000	-0,016	0,091
-260,438	-117,260	0,062	-0,008
-259,424	615,961	-0,020	0,036
-258,409	338,957	-0,052	-0,075
-257,395	138,054	0,095	0,091
-256,380	576,002	-0,007	-0,013
-255,365	-200,000	-0,006	0,068
-254,351	365,493	0,110	0,162
-253,336	629,082	0,034	0,062
-252,322	309,283	-0,063	0,086
-251,307	73,860	-0,024	-0,018
-250,292	-200,000	0,018	0,064
-249,278	225,459	-0,047	0,055
-248,263	90,154	0,106	0,087
-247,249	582,344	-0,024	-0,044
-246,234	-103,581	0,114	-0,019
-245,219	-200,000	0,000	-0,058
-244,205	-103,393	0,127	-0,022
-243,190	231,633	0,024	-0,028
-242,176	-200,000	-0,005	-0,038
-241,161	-34,466	0,124	0,049
-240,146	-200,000	0,015	-0,070
-239,132	800,000	0,070	-0,150
-238,117	108,729	-0,085	-0,074
-237,103	514,952	-0,058	0,100
-236,088	-200,000	-0,005	-0,033
-235,073	170,948	0,111	-0,117
-234,059	56,792	0,083	0,059
-233,044	-20,654	-0,070	0,031
-232,030	16,412	0,040	-0,023
-231,015	222,675	0,089	-0,105
-230,000	-200,000	-0,035	-0,193
-228,986	-148,484	0,114	-0,007
-227,971	-30,663	0,059	0,024
-226,957	367,319	-0,048	0,071
-225,942	-200,000	-0,002	0,083
-224,927	638,598	0,054	0,100
-223,913	-103,333	0,054	0,009
-222,898	800,000	0,016	-0,040
-221,884	-200,000	-0,024	-0,097
-220,869	646,992	0,013	-0,025
-219,855	72,402	0,102	0,077
-218,840	-200,000	-0,012	0,088
-217,825	-200,000	0,003	0,158
-216,811	31,853	-0,138	-0,087
-215,796	-29,901	-0,188	-0,078
-214,782	-86,335	0,023	0,005
-213,767	-200,000	-0,028	0,105
-212,752	302,933	-0,011	0,015
-211,738	186,952	-0,068	-0,074
-210,723	-96,768	0,076	-0,014
-209,709	135,749	-0,057	-0,054
-208,694	-200,000	-0,012	0,145
-207,679	59,941	-0,047	-0,034
-206,665	-66,727	0,043	-0,012
-205,650	-131,369	0,111	-0,011
-204,636	-35,675	0,062	0,024
-203,621	269,453	0,097	-0,125
-202,606	83,639	0,069	-0,054
-201,592	140,082	-0,029	-0,028
-200,577	-60,870	0,064	0,019
-199,563	-200,000	0,017	0,068
-198,548	800,000	0,033	0,090
-197,533	25,921	-0,153	0,093
-196,519	643,441	-0,039	0,074
-195,504	-200,000	0,016	0,096
-194,490	-200,000	-0,004	0,042
-193,475	-71,479	0,106	0,029
-192,460	39,621	-0,094	0,061
-191,446	-89,190	0,133	0,028
-190,431	252,302	0,046	-0,058
-189,417	-10,379	-0,103	-0,050
-188,402	272,591	0,056	0,072
-187,387	208,408	0,067	-0,077
-186,373	83,690	0,042	0,034
-185,358	-200,000	-0,011	-0,038
-184,344	319,086	0,051	-0,071
-183,329	-200,000	-0,010	-0,052
-182,315	377,695	-0,011	0,017
-181,300	800,000	-0,010	0,029
-180,285	-115,761	-0,080	0,011
-179,271	-62,663	-0,120	-0,036
-178,256	-200,000	0,003	0,027
-177,242	-73,435	0,109	-0,029
-176,227	-200,000	0,008	0,203
-175,212	332,344	0,125	0,176
-174,198	96,015	-0,033	-0,027
-173,183	800,000	-0,045	0,107
-172,169	-200,000	-0,008	-0,100
-171,154	-200,000	0,011	-0,045
-170,139	559,009	0,060	0,105
-169,125	800,000	0,031	-0,084
-168,110	139,844	-0,058	-0,056
-167,096	-200,000	0,017	-0,142
-166,081	99,033	0,083	-0,070
-165,066	423,326	-0,030	-0,048
-164,052	-200,000	-0,029	0,127
-163,037	-179,463	-0,163	-0,003
-162,023	94,015	0,088	0,072
-161,008	75,832	-0,026	-0,020
-159,993	-127,585	0,045	-0,005
-158,979	-200,000	-0,005	-0,031
-157,964	-26,623	-0,051	0,022
-156,950	135,037	-0,045	0,042
-155,935	112,093	-0,046	0,040
-154,920	273,714	0,156	0,202
-153,906	149,253	-0,114	-0,113
-152,891	-200,000	0,008	-0,185
-151,877	142,855	0,015	-0,015
-150,862	-200,000	-0,048	-0,204
-149,847	243,879	-0,058	0,072
-148,833	-200,000	-0,021	0,103
-147,818	-162,473	0,122	-0,004
-146,804	-200,000	0,012	0,117
-145,789	333,430	-0,086	0,121
-144,775	434,004	0,024	-0,038
-143,760	121,357	-0,049	-0,044
-142,745	-123,317	-0,056	-0,006
-141,731	34,916	0,146	0,093
-140,716	-200,000	-0,017	-0,073
-139,702	-37,673	0,013	-0,005
-138,687	234,290	0,050	-0,060
-137,672	92,832	-0,035	0,028
-136,658	-174,953	0,117	-0,002
-135,643	-200,000	-0,011	0,149
-134,629	-105,078	-0,069	-0,011
-133,614	-200,000	0,034	0,170
-132,599	-108,462	0,141	-0,022
-131,585	689,593	-0,040	0,076
-130,570	142,831	-0,053	0,051
-129,556	-134,872	0,117	-0,010
-128,541	38,811	-0,071	0,046
-127,526	271,561	0,009	0,012
-126,512	166,358	-0,108	0,112
-125,497	371,636	0,020	0,029
-124,483	-200,000	-0,008	0,112
-123,468	9,323	0,038	0,021
-122,453	-200,000	0,020	0,157
-121,439	591,721	-0,066	0,119
-120,424	800,000	-0,060	-0,138
-119,410	129,586	0,058	0,053
-118,395	-200,000	-0,002	-0,039
-117,380	-86,118	-0,148	0,033
-116,366	128,886	0,034	-0,032
-115,351	-200,000	-0,037	-0,123
-114,337	-200,000	-0,005	-0,175
-113,322	128,069	0,070	-0,065
-112,307	210,180	0,045	0,051
-111,293	-200,000	-0,034	0,136
-110,278	800,000	-0,044	0,113
-109,264	800,000	-0,034	0,071
-108,249	745,092	0,030	-0,060
-107,234	-76,669	-0,085	0,022
-106,220	-200,000	0,041	-0,154
-105,205	57,909	-0,055	-0,039
-104,191	7,689	-0,097	-0,052
-103,176	72,416	0,091	-0,069
-102,162	78,147	-0,067	-0,052
-101,147	20,675	-0,022	-0,013
-100,132	-200,000	0,002	0,058
-99,118	50,644	-0,100	-0,068
-98,103	800,000	0,040	0,088
-97,089	-200,000	0,041	-0,161
-96,074	30,372	-0,052	0,032
-95,059	-127,162	-0,100	-0,010
-94,045	800,000	-0,004	-0,010
-93,030	-71,007	-0,211	-0,057
-92,016	5,194	-0,064	0,034
-91,001	-200,000	-0,068	0,227
-89,986	-200,000	0,002	-0,022
-88,972	-200,000	0,002	-0,088
-87,957	542,623	-0,086	-0,150
-86,943	-200,000	-0,004	0,042
-85,928	-200,000	-0,016	-0,103
-84,913	81,937	-0,064	-0,050
-83,899	-15,056	-0,028	-0,013
-82,884	202,720	-0,020	0,022
-81,870	113,397	-0,084	-0,074
-80,855	179,198	-0,012	-0,013
-79,840	154,004	-0,056	-0,056
-78,826	-46,159	0,094	-0,033
-77,811	59,482	-0,061	-0,044
-76,797	800,000	0,036	0,080
-75,782	-200,000	-0,015	0,139
-74,767	-82,424	0,022	-0,005
-73,753	-15,381	-0,069	0,032
-72,738	-78,978	-0,070	-0,017
-71,724	-178,227	-0,075	-0,001
-70,709	-200,000	-0,022	-0,079
-69,694	142,355	0,088	-0,085
-68,680	-200,000	-0,007	-0,050
-67,665	215,752	0,104	0,120
-66,651	27,684	0,119	0,072
-65,636	5,403	0,031	0,016
-64,622	605,351	-0,082	-0,148
-63,607	9,962	-0,123	-0,067
-62,592	97,805	0,022	-0,019
-61,578	-200,000	-0,035	-0,116
-60,563	800,000	0,008	-0,022
-59,549	-149,952	0,028	0,002
-58,534	-109,171	-1,434	-0,219
-57,519	731,623	-0,762	-1,483
-56,505	-200,000	-0,876	-4,373
-55,490	-91,078	0,587	-0,121
-54,476	800,000	4,768	11,391
-53,461	-200,000	14,032	252,502
-52,446	-200,000	693,723	2240,813
-51,432	581,455	1622,056	2892,890
-50,417	117,697	1630,793	1454,270
-49,403	73,863	1285,207	975,292
-48,388	37,734	1021,879	656,055
-47,373	23,942	980,218	584,079
-46,359	23,208	969,770	575,431
-45,344	22,178	965,325	569,418
-44,330	22,190	963,850	568,563
-43,315	22,015	962,458	567,152
-42,300	22,000	961,432	566,476
-41,286	21,962	960,589	565,834
-40,271	21,962	959,599	565,228
-39,257	21,971	958,630	564,665
-38,242	21,933	957,745	563,995
-37,227	21,976	956,778	563,543
-36,213	21,934	956,020	562,938
-35,198	21,885	955,169	562,257
-34,184	21,918	954,667	562,047
-33,169	21,963	953,468	561,463
-32,154	21,999	952,614	561,052
-31,140	22,061	951,491	560,569
-30,125	22,058	950,821	560,143
-29,111	21,993	950,148	559,516
-28,096	22,025	949,463	559,191
-27,082	21,955	948,840	558,578
-26,067	21,956	948,161	558,159
-25,052	22,012	947,116	557,701
-24,038	21,995	946,616	557,332
-23,023	21,996	945,981	556,939
-22,009	22,021	945,364	556,633
-20,994	21,989	944,722	556,130
-19,979	21,977	944,215	555,771
-18,965	21,931	943,632	555,259
-17,950	21,985	942,935	554,998
-16,936	21,980	942,148	554,499
-15,921	21,945	941,350	553,896
-14,906	21,908	940,696	553,370
-13,892	21,878	940,156	552,937
-12,877	21,843	939,528	552,434
-11,863	21,816	938,832	551,918
-10,848	21,848	938,447	551,771
-9,833	21,977	937,918	551,845
-8,819	21,957	937,309	551,403
-7,804	21,881	936,611	550,729
-6,790	21,912	936,078	550,493
-5,775	21,872	935,543	550,031
-4,760	21,877	934,647	549,496
-3,746	21,811	934,229	549,021
-2,731	21,725	933,695	548,416
-1,717	21,673	932,919	547,774
-0,702	21,702	932,205	547,423
0,313	21,498	931,479	547,183
1,327	24,077	929,079	553,807
2,342	31,858	806,962	502,028
3,356	26,791	507,469	307,070
4,371	2,855	372,396	195,034
5,386	-0,291	355,465	182,309
6,400	-1,788	349,131	177,246
7,415	-2,587	346,242	174,812
8,429	-2,683	344,736	173,922
9,444	-2,734	343,906	173,427
10,459	-2,744	343,202	173,045
11,473	-2,758	342,577	172,698
12,488	-2,458	342,101	172,796
13,502	-2,339	341,537	172,635
14,517	-2,565	341,150	172,159
15,531	-2,767	340,451	171,555
16,546	-2,772	340,185	171,399
17,561	-2,727	339,671	171,177
18,575	-2,667	339,229	171,009
19,590	-2,880	338,876	170,567
20,604	-2,516	338,443	170,758
21,619	-2,859	338,109	170,176
22,634	-2,709	337,771	170,165
23,648	-2,699	337,318	169,933
24,663	-2,665	337,090	169,842
25,677	-2,790	336,827	169,550
26,692	-2,630	336,516	169,564
27,707	-2,707	336,242	169,321
28,721	-2,848	335,909	168,975
29,736	-2,692	335,365	168,867
30,750	-2,739	335,288	168,759
31,765	-2,925	335,075	168,422
32,780	-2,932	334,723	168,223
33,794	-2,767	334,455	168,262
34,809	-2,668	334,046	168,156
35,823	-2,710	333,803	167,970
36,838	-2,730	333,384	167,721
37,853	-2,918	333,293	167,445
38,867	-2,735	332,967	167,476
39,882	-2,901	332,774	167,174
40,896	-2,970	332,513	166,950
41,911	-2,896	332,133	166,828
42,926	-2,994	331,893	166,581
43,940	-2,772	331,504	166,624
44,955	-2,966	331,334	166,302
45,969	-3,012	331,089	166,112
46,984	-2,991	330,718	165,935
47,999	-3,246	330,344	165,444
49,013	-3,221	330,011	165,290
50,028	-3,272	329,931	165,178
51,042	-3,325	329,604	164,939
52,057	-3,276	329,328	164,842
53,071	-3,277	328,966	164,645
54,086	-3,269	328,633	164,472
55,101	-3,129	328,553	164,576
56,115	-3,137	328,419	164,484
57,130	-2,937	328,335	164,653
58,144	-2,603	328,074	164,883
59,159	-2,802	327,883	164,549
60,174	-2,670	327,523	164,502
61,188	-2,680	327,417	164,423
62,203	-2,639	327,059	164,275
63,217	-2,720	326,848	164,063
64,232	-2,733	326,619	163,919
65,247	-2,618	326,362	163,904
66,261	-2,662	325,938	163,627
67,276	-2,791	325,667	163,333
68,290	-2,868	325,260	163,028
69,305	-2,980	325,089	162,803
70,320	-2,833	324,869	162,842
71,334	-2,813	324,724	162,777
72,349	-2,652	324,443	162,801
73,363	-2,647	324,261	162,701
74,378	-2,541	324,094	162,719
75,393	-2,680	323,661	162,334
76,407	-2,679	323,523	162,251
77,422	-2,810	323,401	162,030
78,436	-2,672	323,031	161,983
79,451	-2,694	322,684	161,770
80,466	-2,850	322,397	161,441
81,480	-2,848	322,001	161,229
82,495	-3,033	321,990	161,006
83,509	-2,937	321,791	160,998
84,524	-2,934	321,321	160,751
85,539	-3,081	321,169	160,500
86,553	-3,056	320,839	160,348
87,568	-3,070	320,667	160,232
88,582	-2,999	320,586	160,256
89,597	-3,003	320,234	160,060
90,611	-2,979	320,070	159,991
91,626	-2,769	319,852	160,097
92,641	-2,831	319,606	159,892
93,655	-3,004	319,260	159,516
94,670	-2,833	318,980	159,549
95,684	-3,012	319,147	159,423
96,699	-3,095	318,720	159,104
97,714	-2,964	318,413	159,079
98,728	-2,911	318,185	159,009
99,743	-3,005	317,873	158,737
100,757	-3,000	317,521	158,552
101,772	-3,066	317,465	158,438
102,787	-2,960	317,094	158,354
103,801	-2,896	317,126	158,425
104,816	-2,837	316,845	158,335
105,830	-2,854	316,575	158,167
106,845	-2,668	316,254	158,194
107,860	-2,790	316,213	158,027
108,874	-2,896	315,973	157,779
109,889	-2,926	315,639	157,565
110,903	-2,894	315,487	157,509
111,918	-2,970	315,103	157,223
112,933	-2,790	314,888	157,295
113,947	-2,888	314,718	157,090
114,962	-2,901	314,507	156,958
115,976	-2,922	314,310	156,822
116,991	-2,958	314,034	156,632
118,006	-2,850	313,777	156,605
119,020	-2,811	313,643	156,567
120,035	-2,658	313,522	156,655
121,049	-2,869	313,442	156,377
122,064	-2,811	313,231	156,319
123,079	-2,903	312,933	156,059
124,093	-2,938	312,659	155,870
125,108	-3,004	312,260	155,588
126,122	-3,178	312,102	155,309
127,137	-3,339	311,834	154,991
128,151	-3,207	311,651	155,027
129,166	-2,882	311,392	155,228
130,181	-3,092	311,207	154,900
131,195	-3,010	310,865	154,803
132,210	-2,864	310,648	154,836
133,224	-2,881	310,676	154,818
134,239	-2,762	310,402	154,793
135,254	-2,742	310,138	154,669
136,268	-2,934	309,972	154,369
137,283	-3,098	309,672	154,034
138,297	-3,043	309,240	153,863
139,312	-3,255	309,242	153,627
140,327	-2,829	308,960	153,922
141,341	-2,583	308,832	154,102
142,356	-2,503	308,677	154,095
143,370	-2,560	308,637	154,001
144,385	-2,485	308,326	153,911
145,400	-2,518	308,082	153,741
146,414	-2,495	307,903	153,663
147,429	-2,479	307,679	153,554
148,443	-2,469	307,441	153,431
149,458	-2,706	307,336	153,118
150,473	-2,557	307,057	153,120
151,487	-2,599	306,838	152,954
152,502	-2,414	306,619	153,024
153,516	-2,500	306,316	152,770
154,531	-2,450	306,115	152,708
155,546	-2,567	305,983	152,507
156,560	-2,632	305,738	152,304
157,575	-2,752	305,491	152,042
158,589	-2,534	305,260	152,139
159,604	-2,685	305,245	151,962
160,619	-2,591	304,984	151,916
161,633	-2,487	304,639	151,838
162,648	-2,411	304,256	151,713
163,662	-2,413	304,231	151,684
164,677	-2,736	304,210	151,326
165,692	-2,717	303,941	151,199
166,706	-2,559	303,856	151,306
167,721	-2,622	303,470	151,035
168,735	-2,541	303,260	151,001
169,750	-2,441	303,148	151,035
170,764	-2,364	303,052	151,053
171,779	-2,190	302,883	151,133
172,794	-2,366	302,574	150,785
173,808	-2,407	302,266	150,576
174,823	-2,968	302,076	149,893
175,837	-3,227	301,844	149,499
176,852	-2,671	301,785	150,026
177,867	-2,590	301,532	149,970
178,881	-2,415	301,388	150,064
179,896	-2,393	301,211	149,984
180,910	-2,336	301,001	149,925
181,925	-2,346	300,665	149,734
182,940	-2,296	300,639	149,759
183,954	-2,397	300,412	149,529
184,969	-2,394	300,145	149,386
185,983	-2,589	300,009	149,107
186,998	-2,582	299,855	149,024
188,013	-2,758	299,623	148,717
189,027	-2,407	299,372	148,935
190,042	-2,341	299,130	148,868
191,056	-2,169	298,781	148,855
192,071	-2,343	298,861	148,705
193,086	-2,402	298,721	148,563
194,100	-2,339	298,401	148,455
195,115	-2,429	298,131	148,216
196,129	-2,332	297,940	148,206
197,144	-2,322	297,655	148,061
198,159	-2,469	297,410	147,777
199,173	-2,472	297,292	147,703
200,188	-2,252	297,077	147,804
201,202	-2,467	296,788	147,431
202,217	-2,899	296,558	146,870
203,232	-3,063	296,332	146,580
204,246	-2,760	296,208	146,810
205,261	-2,535	296,100	146,969
206,275	-2,375	295,978	147,055
207,290	-2,299	295,632	146,947
208,304	-2,319	295,292	146,745
209,319	-2,476	295,252	146,555
210,334	-2,427	295,046	146,488
211,348	-2,495	295,005	146,387
212,363	-2,342	294,585	146,318
213,377	-2,313	294,416	146,249
214,392	-2,494	294,274	145,987
215,407	-2,670	294,190	145,756
216,421	-2,696	293,834	145,541
217,436	-2,739	293,527	145,333
218,450	-2,702	293,402	145,295
219,465	-2,689	293,214	145,202
220,480	-2,734	293,297	145,185
221,494	-2,503	292,861	145,185
222,509	-2,763	292,660	144,816
223,523	-2,525	292,596	145,006
224,538	-2,366	292,398	145,052
225,553	-2,513	292,288	144,840
226,567	-2,501	292,037	144,714
227,582	-2,385	292,005	144,799
228,596	-2,403	291,631	144,583
229,611	-2,353	291,553	144,582
230,626	-2,413	291,306	144,387
231,640	-2,725	291,017	143,925
232,655	-2,727	290,618	143,712
233,669	-2,971	290,414	143,359
234,684	-2,919	290,272	143,327
235,699	-2,838	290,209	143,364
236,713	-3,004	290,074	143,121
237,728	-2,825	289,898	143,196
238,742	-2,614	289,695	143,290
239,757	-2,678	289,547	143,141
240,772	-2,602	289,382	143,121
241,786	-2,522	289,221	143,107
242,801	-2,766	289,053	142,773
243,815	-2,653	288,792	142,741
244,830	-2,599	288,638	142,705
245,844	-2,829	288,396	142,349
246,859	-2,780	288,220	142,297
247,874	-2,606	287,965	142,328
248,888	-2,762	287,892	142,127
249,903	-2,511	287,745	142,285
250,917	-2,594	287,578	142,109
251,932	-2,303	287,602	142,391
252,947	-1,874	287,654	142,819
253,961	-2,169	286,931	142,163
254,976	-1,433	287,605	143,197
255,990	1,631	288,447	146,575
257,005	2,782	288,811	147,863
258,020	3,826	289,005	148,961
259,034	3,848	288,741	148,834
260,049	3,656	288,600	148,563
261,063	3,441	288,297	148,185
262,078	3,613	288,264	148,321
263,093	4,291	288,149	148,904
264,107	4,479	287,980	148,985
265,122	4,478	287,864	148,911
266,136	4,526	287,903	148,964
267,151	4,445	287,511	148,669
268,166	4,192	287,335	148,321
269,180	4,281	287,163	148,305
270,195	4,443	286,876	148,299
271,209	4,176	286,902	148,043
272,224	4,190	286,512	147,842
273,239	3,771	286,254	147,293
274,253	4,191	286,077	147,592
275,268	4,402	286,068	147,776
276,282	4,389	285,739	147,581
277,297	4,413	285,885	147,666
278,312	4,770	285,795	147,948
279,326	4,637	285,325	147,564
280,341	4,368	285,060	147,157
281,355	4,234	284,833	146,899
282,370	4,122	284,653	146,687
283,384	4,338	284,395	146,747
284,399	4,343	284,199	146,637
285,414	4,272	284,018	146,462
286,428	4,248	283,955	146,394
287,443	4,003	283,625	145,980
288,457	3,906	283,458	145,788
289,472	3,761	283,352	145,583
290,487	3,854	283,166	145,562
291,501	3,778	282,905	145,344
292,516	3,505	282,576	144,904
293,530	3,565	282,404	144,859
294,545	3,949	282,513	145,265
295,560	4,126	282,211	145,264
296,574	3,946	281,882	144,912
297,589	4,050	281,862	144,987
298,603	4,518	281,750	145,357
299,618	4,392	281,707	145,203
300,633	3,942	281,555	144,688
301,647	3,897	281,333	144,519
302,662	4,161	281,051	144,609
303,676	3,911	280,746	144,205
304,691	3,540	280,573	143,755
305,706	3,420	280,316	143,499
306,720	3,558	280,066	143,487
307,735	3,591	279,939	143,440
308,749	3,664	279,939	143,495
309,764	4,029	279,638	143,669
310,779	3,836	279,461	143,386
311,793	3,530	279,241	142,974
312,808	3,631	279,104	142,985
313,822	3,647	278,921	142,893
314,837	3,542	278,674	142,657
315,852	3,436	278,572	142,493
316,866	3,592	278,244	142,457
317,881	3,452	278,213	142,299
318,895	3,534	278,026	142,267
319,910	3,423	277,738	142,004
320,925	3,328	277,548	141,807
321,939	3,543	277,483	141,960
322,954	3,673	277,415	142,033
323,968	3,667	277,286	141,948
324,983	3,672	276,952	141,769
325,997	3,694	276,821	141,710
327,012	3,805	276,684	141,729
328,027	3,569	276,508	141,409
329,041	3,850	276,265	141,531
330,056	3,911	276,057	141,467
331,070	3,888	275,947	141,377
332,085	3,654	275,622	140,983
333,100	3,730	275,619	141,039
334,114	3,900	275,339	141,039
335,129	3,519	275,079	140,544
336,143	3,738	275,089	140,738
337,158	4,136	274,953	141,020
338,173	3,933	274,764	140,724
339,187	3,720	274,704	140,486
340,202	3,859	274,542	140,518
341,216	3,916	274,238	140,403
342,231	3,866	274,078	140,262
343,246	3,607	273,976	139,961
344,260	3,576	273,767	139,814
345,275	3,879	273,623	140,004
346,289	4,074	273,595	140,155
347,304	4,094	273,408	140,064
348,319	3,988	273,023	139,758
349,333	3,950	272,920	139,658
350,348	4,096	272,710	139,671
351,362	4,352	272,542	139,805
352,377	4,066	272,482	139,502
353,392	4,249	272,235	139,529
354,406	4,168	272,239	139,445
355,421	192,173	1330,617	1410,337
356,435	155,280	1459,639	1410,446
