DTS Sentinel unit serial number:	SN410029Multiplexer serial number:	ORYXHardware model number:	OX2-SRSoftware version number:	ORYX F/W v4,00 Oryx Data Collector v3.7.2.0data status	okinstallation	B4 Nyhavnadifferential loss correction	single-endedforward channel	channel 2reverse channel	N/Adate	2023/12/16time	06:35:13forward acquisition time	300,00reverse acquisition time	0,00gamma	499,1914k internal	0,3127k external	0,3127temperature offset calibration	1,0000default loss term (dB/km)	0,3820temperature slope calibration	1,0000multiplexer offset coefficient	1,0000multiplexer slope coefficient	1,0000fibre end	0,00T internal ref (°C)	22,30T ext. ref 1 (°C)	7,56T ext. ref 2 (°C)	7,73length (m)	temperature (°C)	Stokes	anti-Stokes-744,400	800,000	0,033	-0,106
-743,385	115,931	-0,128	0,117
-742,371	247,249	0,067	0,085
-741,356	-102,626	-0,304	0,053
-740,342	-200,000	0,007	-0,132
-739,327	-169,355	-0,270	0,007
-738,312	-109,256	0,052	-0,008
-737,298	-5,548	-0,324	0,165
-736,283	-200,000	0,004	0,017
-735,269	-12,019	-0,229	0,111
-734,254	-200,000	0,002	0,063
-733,239	-57,379	-0,446	-0,145
-732,225	800,000	0,041	-0,120
-731,210	-200,000	-0,007	-0,034
-730,196	247,112	-0,062	0,078
-729,181	-200,000	-0,004	0,025
-728,167	-200,000	0,028	-0,109
-727,152	322,372	0,028	0,040
-726,137	-200,000	-0,006	-0,039
-725,123	-13,333	-0,021	-0,010
-724,108	269,801	0,020	0,026
-723,094	800,000	-0,035	-0,083
-722,079	53,454	0,077	-0,055
-721,064	-198,946	-0,192	-0,001
-720,050	67,365	-0,057	-0,043
-719,035	-43,657	-0,082	0,031
-718,021	-174,898	0,030	-0,001
-717,006	-132,061	-0,138	0,013
-715,991	-106,429	-0,201	-0,033
-714,977	-59,353	-0,113	0,036
-713,962	-200,000	-0,026	-0,129
-712,948	800,000	-0,050	0,122
-711,933	800,000	0,043	-0,119
-710,918	-127,131	-0,061	0,007
-709,904	-176,666	0,068	-0,001
-708,889	-31,568	-0,165	-0,069
-707,875	-21,821	-0,069	-0,031
-706,860	486,334	-0,070	-0,119
-705,845	-200,000	-0,017	-0,091
-704,831	84,842	-0,050	0,041
-703,816	450,305	-0,057	0,094
-702,802	307,299	-0,050	0,070
-701,787	-10,669	-0,069	-0,034
-700,772	9,498	-0,118	-0,066
-699,758	-37,323	0,041	-0,016
-698,743	-188,087	0,139	-0,001
-697,729	-54,422	-0,044	-0,015
-696,714	-200,000	-0,019	-0,123
-695,699	800,000	0,078	-0,168
-694,685	-65,504	-0,100	0,030
-693,670	-200,000	-0,000	-0,123
-692,656	800,000	-0,043	-0,124
-691,641	-200,000	0,028	0,117
-690,627	333,782	0,056	0,081
-689,612	-200,000	0,003	0,013
-688,597	-200,000	-0,010	-0,055
-687,583	204,503	-0,048	-0,055
-686,568	-108,301	-0,169	-0,027
-685,554	682,809	-0,035	-0,068
-684,539	-200,000	0,010	0,048
-683,524	80,364	0,171	-0,137
-682,510	45,410	-0,080	0,055
-681,495	-110,177	-0,131	0,020
-680,481	-63,620	-0,035	0,010
-679,466	-200,000	-0,019	-0,121
-678,451	-4,763	0,133	-0,068
-677,437	-200,000	0,002	-0,064
-676,422	71,995	0,040	0,031
-675,408	-200,000	0,004	0,088
-674,393	723,672	0,064	0,127
-673,378	14,113	-0,110	-0,063
-672,364	218,297	0,044	0,052
-671,349	354,451	-0,016	0,023
-670,335	-200,000	0,003	-0,190
-669,320	-200,000	-0,009	0,035
-668,305	-200,000	0,016	0,055
-667,291	800,000	0,013	0,028
-666,276	-58,345	-0,059	-0,019
-665,262	403,348	0,062	-0,096
-664,247	-200,000	0,007	-0,042
-663,232	-200,000	-0,003	-0,147
-662,218	-200,000	-0,004	-0,023
-661,203	0,491	-0,031	0,016
-660,189	105,163	-0,110	0,096
-659,174	98,360	0,058	0,050
-658,159	65,912	-0,083	0,063
-657,145	468,333	-0,053	-0,089
-656,130	287,432	0,023	0,031
-655,116	-115,696	-0,075	0,010
-654,101	-200,000	-0,002	0,060
-653,086	-77,045	0,053	0,014
-652,072	800,000	-0,014	0,040
-651,057	-200,000	0,023	-0,223
-650,043	59,225	-0,063	0,046
-649,028	-58,869	-0,134	0,043
-648,014	-150,540	-0,039	0,002
-646,999	-200,000	0,006	0,065
-645,984	-200,000	0,005	0,086
-644,970	80,497	0,078	-0,062
-643,955	80,564	-0,062	0,050
-642,941	-84,101	-0,167	0,039
-641,926	-93,571	0,051	-0,010
-640,911	-200,000	-0,009	-0,071
-639,897	46,095	0,096	-0,066
-638,882	173,354	-0,052	-0,055
-637,868	669,000	-0,019	-0,037
-636,853	800,000	0,037	-0,077
-635,838	-200,000	-0,002	-0,052
-634,824	344,309	-0,047	-0,068
-633,809	538,028	0,013	0,022
-632,795	800,000	-0,036	0,104
-631,780	-33,013	0,025	-0,010
-630,765	-56,485	-0,116	-0,038
-629,751	-116,790	-0,074	-0,010
-628,736	-200,000	-0,024	0,085
-627,722	465,056	-0,032	0,053
-626,707	-49,553	0,005	-0,002
-625,692	-36,509	-0,076	-0,030
-624,678	121,056	0,086	-0,079
-623,663	-145,791	-0,038	0,002
-622,649	283,395	-0,062	-0,083
-621,634	90,459	-0,118	-0,098
-620,619	193,460	0,018	-0,021
-619,605	797,303	-0,023	-0,047
-618,590	676,998	0,046	0,090
-617,576	-200,000	-0,015	0,126
-616,561	-200,000	-0,012	-0,052
-615,546	-200,000	0,005	0,058
-614,532	-200,000	0,014	-0,173
-613,517	-50,186	0,032	-0,011
-612,503	155,826	-0,011	0,011
-611,488	167,966	0,090	0,095
-610,474	-200,000	-0,028	0,117
-609,459	-200,000	-0,021	0,170
-608,444	-42,762	0,029	-0,011
-607,430	-200,000	-0,005	0,038
-606,415	251,681	0,076	0,096
-605,401	382,565	0,061	-0,094
-604,386	187,376	0,049	-0,054
-603,371	800,000	-0,057	0,165
-602,357	54,692	-0,103	0,073
-601,342	82,262	0,110	-0,088
-600,328	800,000	-0,025	-0,056
-599,313	-200,000	0,003	-0,149
-598,298	-200,000	0,006	-0,119
-597,284	267,823	-0,091	0,118
-596,269	-144,045	-0,033	-0,002
-595,255	8,006	0,016	-0,009
-594,240	-171,125	-0,142	0,003
-593,225	800,000	0,053	-0,139
-592,211	411,265	-0,047	-0,074
-591,196	168,278	0,015	-0,016
-590,182	-200,000	0,013	0,054
-589,167	58,698	0,128	0,093
-588,152	-47,022	-0,034	-0,012
-587,138	448,429	-0,012	0,020
-586,123	1,875	-0,087	-0,046
-585,109	-200,000	-0,019	-0,133
-584,094	-200,000	-0,024	-0,133
-583,079	641,148	0,068	-0,129
-582,065	-200,000	0,012	0,044
-581,050	800,000	0,030	-0,082
-580,036	-200,000	-0,008	0,107
-579,021	355,389	0,010	0,015
-578,006	-200,000	0,007	0,094
-576,992	478,947	0,055	-0,092
-575,977	89,102	0,114	-0,094
-574,963	97,894	0,102	0,087
-573,948	45,376	0,041	-0,028
-572,934	-92,344	-0,079	0,016
-571,919	5,012	-0,102	-0,055
-570,904	800,000	0,019	-0,049
-569,890	-1,217	0,059	-0,031
-568,875	473,367	-0,027	0,046
-567,861	483,467	0,067	-0,114
-566,846	-126,891	0,122	-0,013
-565,831	-58,104	0,049	0,016
-564,817	800,000	-0,029	0,079
-563,802	-200,000	0,011	0,126
-562,788	132,694	-0,041	0,039
-561,773	140,732	-0,013	0,013
-560,758	490,885	-0,020	-0,034
-559,744	-200,000	-0,009	-0,033
-558,729	-86,888	0,114	0,026
-557,715	800,000	0,012	-0,039
-556,700	-152,679	-0,079	0,004
-555,685	-200,000	0,024	0,127
-554,671	262,288	-0,040	-0,052
-553,656	270,129	0,046	0,059
-552,642	41,247	0,043	0,029
-551,627	205,858	-0,018	-0,021
-550,612	-93,962	-0,007	-0,001
-549,598	800,000	-0,029	-0,093
-548,583	191,796	-0,185	-0,206
-547,569	137,430	0,095	-0,092
-546,554	-200,000	-0,016	0,101
-545,539	146,578	0,077	-0,077
-544,525	724,891	-0,020	-0,039
-543,510	-78,936	-0,048	0,012
-542,496	-200,000	0,018	-0,062
-541,481	513,431	0,031	0,053
-540,466	111,591	0,080	0,071
-539,452	800,000	-0,015	0,033
-538,437	221,663	0,044	0,053
-537,423	200,272	0,086	0,098
-536,408	-3,951	-0,107	0,054
-535,393	85,118	-0,006	-0,005
-534,379	-106,805	0,037	0,006
-533,364	-156,068	-0,030	-0,001
-532,350	40,597	0,080	0,053
-531,335	-40,378	0,092	0,035
-530,321	26,605	-0,067	-0,042
-529,306	-170,568	-0,067	-0,002
-528,291	115,423	-0,062	-0,056
-527,277	-200,000	-0,025	-0,112
-526,262	-22,724	-0,074	0,033
-525,248	308,360	-0,118	0,162
-524,233	800,000	0,018	0,040
-523,218	-81,980	-0,097	-0,023
-522,204	-34,412	0,058	0,024
-521,189	-31,723	-0,150	-0,062
-520,175	-200,000	-0,000	0,052
-519,160	-132,371	-0,139	0,013
-518,145	800,000	-0,054	-0,173
-517,131	-127,598	0,043	-0,004
-516,116	-200,000	0,010	0,079
-515,102	-138,808	0,168	0,013
-514,087	-200,000	-0,001	0,012
-513,072	-200,000	0,004	-0,114
-512,058	-9,890	-0,052	-0,025
-511,043	201,907	0,075	-0,086
-510,029	783,056	0,050	0,102
-509,014	-36,002	-0,053	0,021
-507,999	265,305	-0,106	-0,137
-506,985	-53,344	-0,063	-0,021
-505,970	-36,026	-0,027	-0,011
-504,956	677,820	-0,027	-0,053
-503,941	403,357	0,053	0,082
-502,926	103,551	-0,014	0,012
-501,912	155,268	0,039	0,040
-500,897	-35,819	0,100	-0,040
-499,883	800,000	-0,039	0,080
-498,868	-81,396	-0,106	-0,026
-497,853	-134,446	0,080	0,007
-496,839	-134,391	-0,115	0,010
-495,824	411,965	0,052	0,082
-494,810	800,000	0,040	0,089
-493,795	-21,245	-0,103	0,046
-492,781	800,000	-0,049	0,108
-491,766	149,984	-0,173	-0,173
-490,751	-38,273	-0,164	-0,064
-489,737	619,907	0,042	0,078
-488,722	-101,811	0,110	0,019
-487,708	800,000	0,042	-0,110
-486,693	26,761	0,142	-0,088
-485,678	325,459	-0,043	0,061
-484,664	-34,660	-0,055	-0,022
-483,649	768,068	0,061	0,122
-482,635	-143,231	0,149	0,010
-481,620	-51,808	0,128	0,044
-480,605	-200,000	-0,021	0,182
-479,591	60,118	0,031	0,023
-478,576	64,542	0,035	-0,026
-477,562	-3,644	0,118	-0,060
-476,547	107,269	-0,101	-0,089
-475,532	68,161	0,147	-0,111
-474,518	-71,331	0,112	0,031
-473,503	-200,000	-0,003	0,032
-472,489	800,000	-0,010	0,021
-471,474	4,176	0,081	0,044
-470,459	-44,366	-0,203	0,074
-469,445	-200,000	0,004	-0,086
-468,430	236,152	0,063	-0,077
-467,416	-124,731	-0,072	0,008
-466,401	3,072	0,046	0,025
-465,386	-132,677	-0,081	0,008
-464,372	-200,000	-0,001	-0,015
-463,357	-200,000	0,013	0,055
-462,343	758,829	0,046	0,092
-461,328	557,183	0,034	0,060
-460,313	-121,458	-0,133	0,016
-459,299	800,000	0,006	0,019
-458,284	438,134	0,070	-0,113
-457,270	12,790	-0,135	-0,076
-456,255	-200,000	0,008	0,041
-455,241	-136,246	-0,064	-0,005
-454,226	203,854	0,016	-0,018
-453,211	-98,158	0,196	-0,037
-452,197	-200,000	-0,001	-0,191
-451,182	800,000	0,018	0,039
-450,168	-200,000	0,006	-0,067
-449,153	800,000	-0,018	-0,036
-448,138	357,991	0,034	0,050
-447,124	-25,784	-0,074	0,032
-446,109	67,388	-0,075	-0,056
-445,095	-200,000	0,022	0,123
-444,080	-46,362	0,164	0,059
-443,065	800,000	-0,009	0,026
-442,051	200,373	0,018	0,021
-441,036	-103,380	0,077	-0,013
-440,022	-200,000	-0,028	0,111
-439,007	-52,870	0,150	0,051
-437,992	-18,952	-0,088	0,040
-436,978	64,486	0,133	0,098
-435,963	-82,457	0,036	0,009
-434,949	-143,889	-0,085	-0,006
-433,934	334,555	0,011	-0,016
-432,919	-45,608	0,166	0,060
-431,905	800,000	-0,009	0,028
-430,890	-85,242	-0,080	-0,018
-429,876	-200,000	0,045	0,148
-428,861	800,000	0,038	0,088
-427,846	798,088	0,038	-0,077
-426,832	336,762	-0,054	-0,077
-425,817	800,000	-0,045	-0,102
-424,803	-200,000	-0,023	0,079
-423,788	-134,592	-0,079	-0,007
-422,773	-23,224	-0,080	0,035
-421,759	779,446	0,038	-0,077
-420,744	166,461	0,088	0,091
-419,730	79,927	-0,085	0,067
-418,715	30,299	0,065	-0,041
-417,701	11,705	0,010	0,006
-416,686	-200,000	0,007	0,080
-415,671	800,000	-0,057	-0,117
-414,657	-80,036	0,068	-0,017
-413,642	-133,408	0,075	0,007
-412,628	-200,000	-0,031	-0,143
-411,613	-121,378	-0,010	-0,001
-410,598	800,000	-0,023	-0,063
-409,584	-200,000	0,018	-0,077
-408,569	-143,426	-0,106	0,007
-407,555	13,502	0,024	-0,014
-406,540	64,455	0,075	0,055
-405,525	-77,603	-0,075	0,019
-404,511	332,325	-0,161	-0,229
-403,496	800,000	0,060	-0,157
-402,482	-200,000	0,013	-0,187
-401,467	-159,441	0,151	0,006
-400,452	29,691	0,007	-0,004
-399,438	-6,522	-0,062	0,031
-398,423	448,753	0,033	-0,054
-397,409	272,858	-0,037	0,048
-396,394	172,384	0,052	-0,055
-395,379	-200,000	0,006	0,090
-394,365	-62,824	-0,023	-0,007
-393,350	-200,000	0,046	0,163
-392,336	-200,000	0,014	0,053
-391,321	76,000	-0,016	-0,012
-390,306	-200,000	-0,052	-0,230
-389,292	-200,000	0,031	-0,136
-388,277	230,899	-0,026	-0,032
-387,263	53,082	0,000	-0,000
-386,248	-200,000	0,011	0,114
-385,233	-200,000	-0,008	0,073
-384,219	-200,000	-0,017	0,061
-383,204	40,800	0,121	-0,080
-382,190	-146,285	-0,070	0,004
-381,175	65,819	-0,136	-0,101
-380,160	-59,385	0,038	-0,012
-379,146	-200,000	0,012	0,047
-378,131	219,069	0,020	-0,024
-377,117	-4,247	0,022	-0,011
-376,102	634,847	0,051	-0,096
-375,088	-200,000	-0,021	-0,135
-374,073	8,555	-0,063	-0,035
-373,058	-192,854	0,139	0,001
-372,044	800,000	0,043	0,135
-371,029	-52,286	0,126	0,043
-370,015	62,743	0,134	0,098
-369,000	800,000	-0,032	-0,068
-367,985	419,312	0,023	-0,037
-366,971	720,607	-0,043	0,084
-365,956	800,000	0,029	-0,082
-364,942	-200,000	-0,011	-0,051
-363,927	30,650	0,039	-0,025
-362,912	491,888	-0,074	0,124
-361,898	44,024	0,050	0,034
-360,883	-200,000	-0,012	0,084
-359,869	800,000	-0,038	0,078
-358,854	-92,720	0,078	0,016
-357,839	11,437	0,040	0,022
-356,825	10,701	0,049	0,028
-355,810	-200,000	-0,012	-0,072
-354,796	-200,000	0,001	0,024
-353,781	-110,712	-0,052	-0,008
-352,766	38,478	0,062	-0,040
-351,752	-200,000	0,010	-0,141
-350,737	-25,304	-0,028	-0,012
-349,723	-200,000	0,001	0,101
-348,708	302,720	0,088	0,120
-347,693	-142,353	-0,114	0,008
-346,679	493,393	0,035	-0,059
-345,664	-166,855	0,069	-0,002
-344,650	-200,000	-0,020	0,069
-343,635	-30,719	0,139	0,057
-342,620	181,998	-0,034	0,036
-341,606	316,534	0,071	-0,098
-340,591	640,702	-0,054	-0,102
-339,577	-70,229	0,026	0,007
-338,562	-200,000	0,032	-0,128
-337,548	679,661	0,032	-0,061
-336,533	-200,000	-0,011	0,068
-335,518	110,055	0,086	0,076
-334,504	-69,020	0,018	0,005
-333,489	-200,000	0,012	0,066
-332,475	-35,644	-0,050	0,020
-331,460	-51,178	-0,188	-0,064
-330,445	-93,598	0,067	0,014
-329,431	731,387	0,063	0,124
-328,416	-26,145	0,100	0,043
-327,402	-200,000	0,007	0,085
-326,387	26,880	0,054	-0,033
-325,372	-13,437	-0,071	-0,034
-324,358	-200,000	0,007	0,116
-323,343	-200,000	-0,012	-0,065
-322,329	45,961	0,071	-0,048
-321,314	800,000	0,031	0,081
-320,299	111,915	-0,083	-0,074
-319,285	-101,235	0,079	-0,014
-318,270	800,000	-0,033	-0,081
-317,256	-19,518	0,034	0,015
-316,241	800,000	0,018	0,040
-315,226	-68,321	-0,160	-0,045
-314,212	-17,312	-0,109	0,050
-313,197	-200,000	0,004	0,026
-312,183	19,660	-0,014	-0,008
-311,168	446,769	-0,078	-0,127
-310,153	128,335	-0,036	0,034
-309,139	633,456	-0,057	-0,106
-308,124	-200,000	0,016	0,122
-307,110	-200,000	0,000	0,021
-306,095	-200,000	0,045	0,188
-305,080	800,000	0,033	-0,086
-304,066	-57,974	-0,060	0,019
-303,051	266,572	0,046	-0,058
-302,037	8,124	0,092	-0,051
-301,022	4,971	-0,018	-0,010
-300,008	-200,000	-0,019	0,062
-298,993	800,000	-0,056	-0,146
-297,978	349,573	0,039	0,056
-296,964	800,000	-0,033	0,075
-295,949	161,201	0,044	0,045
-294,935	-185,099	-0,165	0,002
-293,920	800,000	0,022	0,065
-292,905	546,484	0,041	-0,072
-291,891	-29,610	0,158	-0,066
-290,876	800,000	0,050	0,144
-289,862	115,164	0,082	-0,073
-288,847	-4,682	-0,102	0,051
-287,832	509,647	-0,068	0,116
-286,818	800,000	-0,092	0,189
-285,803	491,099	-0,038	0,064
-284,789	173,285	-0,064	0,067
-283,774	800,000	0,068	0,196
-282,759	734,058	0,058	-0,114
-281,745	-200,000	0,009	0,078
-280,730	595,059	0,045	0,081
-279,716	46,096	0,077	0,052
-278,701	456,430	-0,051	-0,083
-277,686	-159,137	0,084	0,003
-276,672	-200,000	0,020	0,115
-275,657	800,000	-0,030	-0,067
-274,643	800,000	-0,065	-0,195
-273,628	800,000	-0,041	0,109
-272,613	800,000	0,037	0,088
-271,599	-21,973	0,066	0,029
-270,584	473,601	-0,032	-0,053
-269,570	82,757	0,069	0,055
-268,555	-200,000	0,008	0,098
-267,540	-95,692	-0,117	0,023
-266,526	-31,307	-0,064	-0,026
-265,511	-55,166	0,042	0,014
-264,497	-191,626	0,076	-0,001
-263,482	-200,000	0,011	-0,104
-262,467	-200,000	0,024	-0,121
-261,453	-44,009	0,121	0,044
-260,438	33,627	-0,052	0,033
-259,424	328,958	0,130	-0,183
-258,409	-117,982	0,085	0,011
-257,395	-46,223	-0,106	-0,038
-256,380	800,000	-0,054	0,127
-255,365	239,771	-0,073	-0,089
-254,351	-200,000	-0,004	-0,045
-253,336	-48,587	-0,070	-0,024
-252,322	-200,000	-0,019	-0,111
-251,307	200,755	0,114	-0,128
-250,292	206,765	-0,066	-0,075
-249,278	-92,030	0,116	0,024
-248,263	284,369	0,052	0,068
-247,249	-54,669	-0,084	0,028
-246,234	-200,000	-0,001	-0,094
-245,219	-81,560	0,035	0,008
-244,205	-9,666	-0,020	-0,009
-243,190	-64,429	-0,086	0,025
-242,176	-70,747	0,131	0,036
-241,161	-55,952	0,051	-0,017
-240,146	20,574	0,074	-0,043
-239,132	-94,764	-0,034	-0,007
-238,117	-106,644	-0,014	-0,002
-237,103	-87,105	0,064	-0,014
-236,088	-39,850	-0,076	0,029
-235,073	-200,000	-0,006	-0,100
-234,059	-200,000	0,018	0,154
-233,044	-200,000	0,014	-0,062
-232,030	-200,000	0,009	-0,078
-231,015	404,247	0,013	0,020
-230,000	-92,590	-0,165	-0,033
-228,986	800,000	0,022	0,057
-227,971	452,929	-0,010	-0,016
-226,957	-122,557	-0,040	0,005
-225,942	6,564	-0,031	-0,017
-224,927	-200,000	0,000	0,023
-223,913	625,737	-0,034	-0,063
-222,898	-94,926	-0,054	-0,011
-221,884	4,644	-0,056	-0,030
-220,869	157,297	0,021	-0,021
-219,855	43,376	-0,050	-0,034
-218,840	800,000	0,028	0,075
-217,825	-200,000	-0,004	-0,021
-216,811	279,000	-0,003	-0,004
-215,796	67,001	-0,134	0,100
-214,782	375,058	0,097	-0,144
-213,767	-166,714	-0,095	-0,003
-212,752	-200,000	-0,015	-0,062
-211,738	-200,000	-0,008	0,033
-210,723	-200,000	0,009	0,081
-209,709	-2,544	0,120	0,061
-208,694	26,050	-0,082	0,050
-207,679	800,000	-0,029	-0,080
-206,665	46,414	-0,068	0,046
-205,650	6,055	0,082	0,044
-204,636	190,083	-0,057	0,062
-203,621	-200,000	-0,009	0,146
-202,606	148,518	-0,049	0,049
-201,592	180,015	-0,054	-0,057
-200,577	10,928	0,055	0,030
-199,563	-31,763	-0,054	0,022
-198,548	144,443	0,088	0,085
-197,533	201,054	0,071	-0,079
-196,519	110,344	0,132	-0,115
-195,504	-200,000	0,006	-0,092
-194,490	800,000	-0,068	0,166
-193,475	264,197	0,073	-0,093
-192,460	800,000	-0,021	-0,064
-191,446	-72,008	0,092	0,025
-190,431	594,480	0,060	0,108
-189,417	-200,000	0,034	0,158
-188,402	-112,669	-0,170	-0,024
-187,387	-200,000	0,008	-0,049
-186,373	772,640	-0,061	-0,122
-185,358	-200,000	0,001	-0,038
-184,344	363,150	0,023	0,033
-183,329	800,000	-0,001	0,003
-182,315	-200,000	0,006	0,168
-181,300	-142,813	-0,105	0,007
-180,285	48,628	-0,128	-0,087
-179,271	53,793	0,027	0,019
-178,256	30,819	0,108	0,067
-177,242	-200,000	-0,015	-0,054
-176,227	360,622	-0,052	-0,076
-175,212	-51,054	0,066	-0,022
-174,198	145,717	-0,039	-0,038
-173,183	-121,891	-0,099	-0,012
-172,169	210,823	-0,064	-0,073
-171,154	177,454	0,112	0,118
-170,139	74,892	-0,051	-0,039
-169,125	89,766	-0,055	-0,045
-168,110	285,582	-0,027	-0,036
-167,096	-99,625	-0,141	-0,026
-166,081	20,563	-0,015	0,009
-165,066	130,771	-0,043	0,040
-164,052	52,632	-0,117	-0,081
-163,037	-164,423	0,053	-0,002
-162,023	800,000	-0,012	0,029
-161,008	43,395	-0,048	0,032
-159,993	380,281	0,077	-0,115
-158,979	-200,000	-0,013	0,058
-157,964	800,000	-0,076	0,172
-156,950	61,358	0,072	-0,052
-155,935	163,960	0,012	-0,013
-154,920	-200,000	0,014	0,121
-153,906	333,028	0,017	-0,024
-152,891	-200,000	-0,008	0,059
-151,877	108,599	0,040	0,035
-150,862	-68,088	-0,121	-0,034
-149,847	-200,000	-0,017	0,133
-148,833	-72,604	-0,026	0,007
-147,818	-200,000	-0,018	-0,156
-146,804	379,859	-0,017	-0,025
-145,789	107,926	0,058	0,050
-144,775	790,619	0,067	0,135
-143,760	800,000	-0,057	-0,131
-142,745	-105,984	0,018	-0,003
-141,731	-200,000	0,010	-0,060
-140,716	-91,321	0,033	-0,007
-139,702	-21,110	0,049	0,022
-138,687	-132,277	0,053	-0,005
-137,672	-68,839	0,135	0,038
-136,658	-81,297	-0,120	-0,029
-135,643	-28,132	-0,175	-0,073
-134,629	-200,000	-0,019	-0,107
-133,614	-200,000	-0,007	0,043
-132,599	-11,738	0,124	-0,059
-131,585	29,966	0,033	-0,020
-130,570	-200,000	0,014	-0,150
-129,556	800,000	-0,034	-0,102
-128,541	-123,500	-0,087	-0,010
-127,526	176,431	0,070	-0,074
-126,512	-17,375	-0,036	-0,016
-125,497	641,019	-0,024	0,045
-124,483	56,687	0,118	-0,083
-123,468	323,422	-0,062	0,087
-122,453	21,342	0,043	0,026
-121,439	800,000	-0,046	-0,137
-120,424	270,809	0,043	-0,055
-119,410	-200,000	-0,004	-0,099
-118,395	-6,084	-0,016	-0,008
-117,380	-200,000	-0,000	-0,058
-116,366	-24,363	-0,109	0,047
-115,351	-200,000	0,008	0,058
-114,337	800,000	-0,044	0,101
-113,322	-80,546	-0,071	0,017
-112,307	138,113	0,053	0,051
-111,293	-200,000	-0,004	-0,100
-110,278	210,462	-0,041	0,047
-109,264	164,551	0,051	-0,053
-108,249	-45,105	-0,088	-0,032
-107,234	-200,000	0,005	-0,119
-106,220	-141,186	0,041	-0,003
-105,205	-200,000	0,009	-0,050
-104,191	-17,098	-0,024	-0,011
-103,176	-115,636	-0,013	0,002
-102,162	-200,000	-0,005	0,045
-101,147	0,888	0,114	0,059
-100,132	-200,000	-0,006	-0,240
-99,118	800,000	0,024	-0,070
-98,103	-200,000	0,008	-0,055
-97,089	-122,419	0,091	0,011
-96,074	-200,000	-0,013	-0,046
-95,059	-91,959	-0,031	0,006
-94,045	-200,000	-0,002	-0,048
-93,030	800,000	-0,007	-0,022
-92,016	-10,459	-0,138	0,066
-91,001	-95,474	-0,054	0,010
-89,986	-30,648	0,123	-0,050
-88,972	140,540	0,077	0,073
-87,957	-200,000	0,011	0,103
-86,943	202,491	-0,105	0,118
-85,928	-53,697	-0,042	-0,014
-84,913	800,000	-0,037	-0,110
-83,899	112,478	0,038	0,034
-82,884	-119,128	0,069	-0,009
-81,870	-200,000	0,003	-0,031
-80,855	800,000	0,029	-0,076
-79,840	-119,347	-0,016	0,002
-78,826	-120,196	-0,112	-0,014
-77,811	741,911	-0,034	-0,066
-76,797	266,471	-0,042	-0,054
-75,782	89,260	-0,125	0,101
-74,767	800,000	-0,011	0,036
-73,753	684,116	0,033	0,062
-72,738	-18,202	-0,028	-0,013
-71,724	-132,174	0,066	0,006
-70,709	38,043	-0,046	0,030
-69,694	-16,030	-0,115	-0,053
-68,680	173,710	0,056	0,058
-67,665	65,425	-0,029	0,021
-66,651	-200,000	-0,021	0,107
-65,636	74,414	0,008	-0,006
-64,622	-109,940	-0,074	-0,011
-63,607	-200,000	-0,039	-0,171
-62,592	16,289	0,096	-0,055
-61,578	-169,077	-0,057	0,002
-60,563	-120,726	0,117	-0,014
-59,549	-98,365	0,090	-0,017
-58,534	-151,942	-1,403	-0,073
-57,519	507,521	-0,918	-1,549
-56,505	-200,000	-0,792	-4,263
-55,490	-68,880	0,638	-0,177
-54,476	800,000	4,843	11,440
-53,461	-200,000	13,788	251,231
-52,446	-200,000	689,491	2247,386
-51,432	590,615	1619,996	2907,518
-50,417	119,185	1631,736	1462,350
-49,403	74,194	1286,602	977,809
-48,388	38,229	1022,424	658,161
-47,373	24,364	980,467	585,693
-46,359	23,520	970,179	576,763
-45,344	22,494	965,961	570,892
-44,330	22,449	964,537	569,881
-43,315	22,365	962,949	568,648
-42,300	22,339	961,791	567,853
-41,286	22,311	960,945	567,243
-40,271	22,357	959,854	566,724
-39,257	22,311	959,087	566,102
-38,242	22,315	958,095	565,506
-37,227	22,330	957,206	565,007
-36,213	22,291	956,395	564,379
-35,198	22,235	955,612	563,714
-34,184	22,306	955,072	563,602
-33,169	22,275	953,936	562,809
-32,154	22,365	952,989	562,520
-31,140	22,339	952,197	561,946
-30,125	22,391	951,260	561,537
-29,111	22,337	950,638	560,974
-28,096	22,350	949,969	560,598
-27,082	22,304	949,312	560,042
-26,067	22,359	948,385	559,649
-25,052	22,325	947,707	559,116
-24,038	22,277	947,157	558,618
-23,023	22,283	946,455	558,202
-22,009	22,397	945,663	558,074
-20,994	22,365	945,072	557,601
-19,979	22,363	944,433	557,195
-18,965	22,365	943,991	556,920
-17,950	22,378	943,291	556,527
-16,936	22,347	942,408	555,885
-15,921	22,272	941,890	555,318
-14,906	22,257	941,153	554,815
-13,892	22,239	940,395	554,290
-12,877	22,295	939,876	554,140
-11,863	22,152	939,485	553,432
-10,848	22,235	938,742	553,236
-9,833	22,300	938,350	553,187
-8,819	22,298	937,733	552,797
-7,804	22,245	937,037	552,197
-6,790	22,203	936,448	551,696
-5,775	22,253	935,742	551,414
-4,760	22,278	935,178	551,138
-3,746	22,224	934,550	550,579
-2,731	22,088	934,019	549,814
-1,717	22,049	933,250	549,218
-0,702	22,062	932,501	548,796
0,313	21,860	931,793	548,572
1,327	24,362	929,574	555,060
2,342	32,195	807,725	503,470
3,356	27,438	508,035	308,552
4,371	3,327	372,522	195,727
5,386	0,211	355,573	183,000
6,400	-1,418	349,451	177,875
7,415	-2,276	346,622	175,395
8,429	-2,261	344,948	174,551
9,444	-2,339	344,218	174,074
10,459	-2,184	343,495	173,875
11,473	-2,244	342,810	173,443
12,488	-1,958	342,324	173,518
13,502	-1,869	342,025	173,455
14,517	-2,030	341,344	172,906
15,531	-2,218	340,824	172,406
16,546	-2,240	340,200	172,050
17,561	-2,382	339,936	171,735
18,575	-2,122	339,425	171,765
19,590	-2,324	339,016	171,307
20,604	-2,192	338,859	171,367
21,619	-2,163	338,308	171,106
22,634	-2,194	337,996	170,897
23,648	-2,338	337,653	170,542
24,663	-2,302	337,498	170,490
25,677	-2,137	337,078	170,454
26,692	-2,103	336,730	170,301
27,707	-2,238	336,486	170,007
28,721	-2,337	336,161	169,714
29,736	-2,392	335,795	169,450
30,750	-2,283	335,458	169,391
31,765	-2,336	335,286	169,228
32,780	-2,171	334,842	169,178
33,794	-2,316	334,765	168,957
34,809	-2,119	334,310	168,939
35,823	-2,439	334,299	168,551
36,838	-2,196	333,724	168,524
37,853	-2,198	333,522	168,405
38,867	-2,248	333,215	168,178
39,882	-2,216	332,981	168,081
40,896	-2,320	332,699	167,805
41,911	-2,391	332,267	167,491
42,926	-2,388	331,971	167,331
43,940	-2,390	331,905	167,281
44,955	-2,330	331,424	167,091
45,969	-2,398	331,271	166,922
46,984	-2,602	330,968	166,522
47,999	-2,604	330,586	166,313
49,013	-2,814	330,516	166,025
50,028	-2,864	330,169	165,779
51,042	-2,997	329,858	165,458
52,057	-3,028	329,505	165,231
53,071	-3,007	329,364	165,169
54,086	-2,836	329,041	165,185
55,101	-2,758	328,844	165,159
56,115	-2,644	328,612	165,157
57,130	-2,376	328,565	165,421
58,144	-2,061	328,271	165,612
59,159	-2,143	328,173	165,456
60,174	-2,056	327,902	165,402
61,188	-2,207	327,698	165,115
62,203	-2,215	327,406	164,944
63,217	-2,286	327,105	164,698
64,232	-2,093	326,906	164,800
65,247	-2,005	326,617	164,738
66,261	-2,140	326,360	164,443
67,276	-2,227	325,882	164,089
68,290	-2,537	325,696	163,635
69,305	-2,510	325,449	163,527
70,320	-2,450	325,173	163,441
71,334	-2,251	324,976	163,549
72,349	-2,102	324,797	163,610
73,363	-2,027	324,660	163,609
74,378	-2,107	324,259	163,303
75,393	-2,204	324,061	163,082
76,407	-2,251	323,852	162,910
77,422	-2,078	323,524	162,922
78,436	-2,173	323,230	162,654
79,451	-2,127	322,899	162,524
80,466	-2,282	322,676	162,226
81,480	-2,229	322,379	162,121
82,495	-2,475	322,094	161,692
83,509	-2,398	321,963	161,697
84,524	-2,324	321,565	161,563
85,539	-2,432	321,269	161,282
86,553	-2,533	321,191	161,118
87,568	-2,547	320,837	160,910
88,582	-2,559	320,723	160,826
89,597	-2,538	320,384	160,664
90,611	-2,493	320,238	160,626
91,626	-2,166	320,189	160,945
92,641	-2,200	319,761	160,679
93,655	-2,320	319,631	160,468
94,670	-2,425	319,220	160,132
95,684	-2,396	318,973	160,025
96,699	-2,449	318,895	159,915
97,714	-2,465	318,641	159,756
98,728	-2,657	318,473	159,449
99,743	-2,548	318,213	159,422
100,757	-2,465	317,861	159,321
101,772	-2,558	317,724	159,138
102,787	-2,494	317,355	159,009
103,801	-2,390	317,339	159,099
104,816	-2,405	317,042	158,920
105,830	-2,175	316,891	159,079
106,845	-2,223	316,645	158,889
107,860	-2,306	316,394	158,659
108,874	-2,381	316,019	158,376
109,889	-2,314	316,069	158,459
110,903	-2,422	315,713	158,150
111,918	-2,229	315,331	158,153
112,933	-2,406	315,204	157,884
113,947	-2,159	314,960	158,014
114,962	-2,150	314,750	157,904
115,976	-2,312	314,592	157,637
116,991	-2,077	314,158	157,657
118,006	-2,224	313,999	157,406
119,020	-2,428	314,006	157,177
120,035	-2,221	313,811	157,287
121,049	-2,222	313,466	157,098
122,064	-2,294	313,489	157,019
123,079	-2,420	313,142	156,696
124,093	-2,307	312,758	156,612
125,108	-2,515	312,454	156,223
126,122	-2,390	312,212	156,221
127,137	-2,779	312,089	155,733
128,151	-2,592	311,853	155,800
129,166	-2,534	311,679	155,760
130,181	-2,578	311,380	155,550
131,195	-2,613	311,110	155,364
132,210	-2,414	310,948	155,481
133,224	-2,107	310,776	155,705
134,239	-2,281	310,612	155,425
135,254	-2,205	310,352	155,361
136,268	-2,335	310,163	155,116
137,283	-2,503	309,824	154,755
138,297	-2,674	309,628	154,463
139,312	-2,664	309,348	154,320
140,327	-2,335	309,219	154,588
141,341	-2,214	309,123	154,653
142,356	-2,021	309,149	154,856
143,370	-1,846	308,716	154,809
144,385	-1,975	308,540	154,572
145,400	-2,023	308,338	154,406
146,414	-2,039	308,090	154,252
147,429	-1,981	307,900	154,204
148,443	-2,029	307,745	154,062
149,458	-1,914	307,497	154,045
150,473	-1,797	307,181	153,994
151,487	-1,939	307,020	153,751
152,502	-1,983	306,736	153,550
153,516	-1,998	306,573	153,439
154,531	-1,881	306,337	153,429
155,546	-1,944	306,162	153,262
156,560	-2,099	306,038	153,026
157,575	-1,985	305,608	152,915
158,589	-2,268	305,523	152,565
159,604	-2,092	305,271	152,609
160,619	-1,884	305,142	152,745
161,633	-1,905	304,889	152,584
162,648	-2,015	304,751	152,387
163,662	-1,969	304,557	152,324
164,677	-2,165	304,350	152,005
165,692	-2,019	304,234	152,083
166,706	-1,956	304,084	152,060
167,721	-2,106	303,761	151,731
168,735	-2,149	303,574	151,580
169,750	-2,150	303,523	151,539
170,764	-1,899	303,265	151,655
171,779	-1,941	303,152	151,542
172,794	-1,927	302,857	151,395
173,808	-1,940	302,630	151,255
174,823	-2,403	302,245	150,574
175,837	-2,584	302,032	150,270
176,852	-2,146	301,973	150,675
177,867	-2,141	301,780	150,571
178,881	-1,926	301,600	150,688
179,896	-1,791	301,450	150,737
180,910	-1,846	301,276	150,581
181,925	-1,793	301,032	150,499
182,940	-1,776	300,765	150,369
183,954	-1,688	300,585	150,355
184,969	-1,866	300,452	150,094
185,983	-1,984	300,103	149,787
186,998	-2,039	299,951	149,642
188,013	-1,907	299,734	149,654
189,027	-1,868	299,536	149,581
190,042	-1,853	299,504	149,568
191,056	-1,910	299,269	149,379
192,071	-1,777	299,082	149,407
193,086	-1,797	298,960	149,312
194,100	-1,748	298,665	149,201
195,115	-1,727	298,382	149,068
196,129	-1,824	298,108	148,820
197,144	-1,756	297,898	148,771
198,159	-1,823	297,683	148,582
199,173	-1,856	297,550	148,469
200,188	-1,720	297,349	148,493
201,202	-2,002	297,154	148,098
202,217	-2,389	296,633	147,437
203,232	-2,432	296,436	147,283
204,246	-2,112	296,310	147,528
205,261	-1,878	296,374	147,781
206,275	-1,864	296,150	147,670
207,290	-1,819	295,925	147,590
208,304	-1,940	295,775	147,381
209,319	-1,761	295,603	147,461
210,334	-1,850	295,305	147,210
211,348	-1,824	295,011	147,077
212,363	-1,901	295,029	146,996
213,377	-1,731	294,792	147,034
214,392	-1,741	294,407	146,819
215,407	-2,074	294,349	146,445
216,421	-2,018	293,923	146,276
217,436	-2,159	293,931	146,127
218,450	-2,193	293,648	145,939
219,465	-2,037	293,598	146,057
220,480	-1,939	293,379	146,032
221,494	-1,952	293,067	145,850
222,509	-2,184	293,095	145,622
223,523	-2,011	292,802	145,634
224,538	-1,926	292,668	145,639
225,553	-1,847	292,399	145,570
226,567	-1,853	292,379	145,541
227,582	-1,906	292,273	145,423
228,596	-1,887	291,923	145,254
229,611	-1,805	291,903	145,312
230,626	-1,889	291,710	145,120
231,640	-2,117	291,179	144,620
232,655	-2,335	290,885	144,246
233,669	-2,493	290,561	143,919
234,684	-2,453	290,487	143,908
235,699	-2,406	290,358	143,877
236,713	-2,172	290,233	144,031
237,728	-2,277	290,176	143,888
238,742	-2,126	289,979	143,925
239,757	-1,933	289,759	143,991
240,772	-1,822	289,481	143,949
241,786	-2,147	289,378	143,568
242,801	-2,360	289,278	143,298
243,815	-2,187	289,010	143,321
244,830	-2,172	288,803	143,220
245,844	-2,119	288,564	143,140
246,859	-2,124	288,404	143,043
247,874	-2,071	288,160	142,961
248,888	-2,175	287,953	142,744
249,903	-2,062	288,047	142,888
250,917	-1,973	287,642	142,761
251,932	-1,802	287,667	142,926
252,947	-1,100	287,736	143,627
253,961	-1,704	287,317	142,821
254,976	-0,912	287,818	143,824
255,990	1,788	288,515	146,780
257,005	2,553	288,709	147,607
258,020	4,067	288,912	149,165
259,034	4,033	288,947	149,137
260,049	3,999	288,614	148,919
261,063	3,999	288,184	148,684
262,078	4,082	288,306	148,814
263,093	4,511	288,471	149,301
264,107	4,532	288,256	149,196
265,122	4,611	288,020	149,137
266,136	4,816	287,924	149,272
267,151	4,770	287,567	149,029
268,166	4,582	287,478	148,789
269,180	4,655	287,208	148,705
270,195	4,701	286,958	148,607
271,209	4,657	286,837	148,489
272,224	4,547	286,521	148,207
273,239	4,325	286,444	147,941
274,253	4,384	286,224	147,870
275,268	4,815	286,145	148,230
276,282	4,723	285,884	147,992
277,297	4,476	285,853	147,727
278,312	4,869	285,643	147,981
279,326	4,846	285,390	147,815
280,341	4,518	285,313	147,449
281,355	4,535	285,112	147,348
282,370	4,311	284,860	146,991
283,384	4,303	284,668	146,872
284,399	4,530	284,397	146,934
285,414	4,418	284,227	146,727
286,428	4,395	284,094	146,624
287,443	4,119	283,783	146,188
288,457	4,088	283,444	145,971
289,472	4,149	283,397	145,991
290,487	4,083	283,267	145,850
291,501	3,805	283,070	145,471
292,516	3,782	282,737	145,265
293,530	3,924	282,550	145,291
294,545	4,093	282,523	145,424
295,560	4,328	282,515	145,628
296,574	3,917	282,140	145,034
297,589	4,204	281,941	145,189
298,603	4,500	281,913	145,441
299,618	4,439	281,713	145,267
300,633	4,169	281,583	144,933
301,647	4,225	281,341	144,849
302,662	4,412	281,131	144,904
303,676	4,368	280,937	144,749
304,691	3,987	280,525	144,166
305,706	3,808	280,368	143,906
306,720	3,983	280,332	144,038
307,735	3,748	280,074	143,673
308,749	4,063	280,042	143,938
309,764	4,143	279,881	143,918
310,779	3,914	279,631	143,562
311,793	3,854	279,350	143,350
312,808	3,839	279,087	143,187
313,822	3,901	278,933	143,154
314,837	3,769	278,785	142,941
315,852	3,561	278,642	142,662
316,866	3,741	278,372	142,679
317,881	3,959	278,262	142,812
318,895	3,818	278,012	142,540
319,910	3,699	277,737	142,277
320,925	3,609	277,563	142,091
321,939	3,682	277,592	142,161
322,954	3,975	277,593	142,420
323,968	3,979	277,252	142,236
324,983	4,145	277,059	142,278
325,997	4,305	277,089	142,428
327,012	4,027	276,934	142,079
328,027	4,184	276,679	142,080
329,041	4,085	276,607	141,940
330,056	4,137	276,278	141,806
331,070	4,191	276,163	141,783
332,085	4,070	275,852	141,501
333,100	4,177	275,624	141,469
334,114	4,026	275,394	141,200
335,129	3,800	275,201	140,881
336,143	3,982	275,291	141,082
337,158	4,212	275,147	141,206
338,173	4,232	274,875	141,072
339,187	4,105	274,602	140,804
340,202	4,155	274,443	140,755
341,216	4,182	274,394	140,742
342,231	4,011	274,126	140,436
343,246	4,047	274,004	140,393
344,260	4,009	273,740	140,212
345,275	4,300	273,648	140,417
346,289	4,545	273,579	140,592
347,304	4,445	273,439	140,416
348,319	4,290	273,093	140,085
349,333	4,076	272,999	139,830
350,348	4,178	272,962	139,892
351,362	4,447	272,707	139,992
352,377	4,394	272,534	139,843
353,392	4,264	272,283	139,584
354,406	4,516	272,147	139,730
355,421	192,418	1330,773	1411,468
356,435	155,484	1459,837	1411,592
