DTS Sentinel unit serial number:	SN410029Multiplexer serial number:	ORYXHardware model number:	OX2-SRSoftware version number:	ORYX F/W v4,00 Oryx Data Collector v3.7.2.0data status	okinstallation	B4 Nyhavnadifferential loss correction	single-endedforward channel	channel 2reverse channel	N/Adate	2023/12/19time	01:15:13forward acquisition time	300,00reverse acquisition time	0,00gamma	499,1914k internal	0,3123k external	0,3123temperature offset calibration	1,0000default loss term (dB/km)	0,3820temperature slope calibration	1,0000multiplexer offset coefficient	1,0000multiplexer slope coefficient	1,0000fibre end	0,00T internal ref (°C)	21,77T ext. ref 1 (°C)	6,03T ext. ref 2 (°C)	5,98length (m)	temperature (°C)	Stokes	anti-Stokes-744,400	-52,020	0,080	-0,027
-743,385	-29,179	-0,351	0,149
-742,371	3,435	-0,052	-0,028
-741,356	70,331	-0,172	0,132
-740,342	549,096	0,076	0,136
-739,327	-65,204	-0,233	0,070
-738,312	52,951	0,125	-0,089
-737,298	-126,440	-0,332	0,036
-736,283	800,000	0,036	-0,083
-735,269	-153,039	-0,134	-0,007
-734,254	800,000	0,023	-0,058
-733,239	-176,224	-0,516	-0,010
-732,225	-51,878	0,235	0,081
-731,210	175,452	0,040	0,043
-730,196	676,843	0,025	-0,048
-729,181	-7,415	-0,068	0,034
-728,167	34,678	0,032	0,021
-727,152	-200,000	-0,001	-0,102
-726,137	-108,449	-0,099	0,016
-725,123	-200,000	0,011	-0,048
-724,108	614,987	-0,068	-0,128
-723,094	800,000	-0,023	-0,059
-722,079	126,667	0,005	-0,005
-721,064	93,757	-0,066	-0,055
-720,050	170,581	0,039	-0,041
-719,035	488,594	0,084	-0,143
-718,021	109,084	-0,161	-0,144
-717,006	342,207	-0,051	-0,074
-715,991	-200,000	-0,006	-0,205
-714,977	-200,000	0,010	-0,178
-713,962	18,110	-0,071	-0,042
-712,948	-200,000	-0,013	-0,117
-711,933	157,349	-0,024	0,024
-710,918	-40,337	-0,118	-0,045
-709,904	-200,000	0,006	-0,105
-708,889	800,000	-0,059	-0,149
-707,875	-25,617	-0,069	-0,030
-706,860	791,531	0,020	0,041
-705,845	137,645	0,077	-0,075
-704,831	-88,344	0,111	-0,025
-703,816	800,000	0,008	-0,022
-702,802	208,947	-0,120	-0,140
-701,787	800,000	-0,011	-0,027
-700,772	-53,462	-0,041	-0,014
-699,758	-107,758	0,070	-0,011
-698,743	-132,992	-0,107	0,010
-697,729	-114,255	-0,080	0,011
-696,714	-200,000	-0,001	-0,097
-695,699	-200,000	0,008	-0,029
-694,685	675,407	-0,054	-0,104
-693,670	800,000	-0,049	-0,131
-692,656	187,602	-0,004	-0,004
-691,641	-29,220	-0,014	0,006
-690,627	48,429	0,160	-0,111
-689,612	148,131	0,054	0,054
-688,597	94,142	-0,042	-0,036
-687,583	502,585	-0,036	-0,061
-686,568	-200,000	0,036	-0,171
-685,554	-15,667	-0,085	-0,040
-684,539	-200,000	0,017	-0,127
-683,524	-129,390	0,066	-0,007
-682,510	-200,000	-0,011	-0,124
-681,495	20,637	-0,078	0,047
-680,481	800,000	0,052	-0,155
-679,466	54,158	0,064	-0,046
-678,451	-90,812	-0,055	0,012
-677,437	800,000	-0,041	0,090
-676,422	800,000	-0,050	0,116
-675,408	444,947	0,053	0,087
-674,393	800,000	-0,038	-0,095
-673,378	-154,052	-0,091	-0,005
-672,364	-200,000	0,003	-0,178
-671,349	800,000	-0,013	-0,043
-670,335	-200,000	0,003	0,085
-669,320	-101,530	0,101	-0,018
-668,305	800,000	-0,031	0,064
-667,291	16,610	-0,042	-0,025
-666,276	176,337	-0,051	-0,055
-665,262	603,860	-0,040	-0,075
-664,247	-83,858	0,187	-0,044
-663,232	-200,000	0,004	0,050
-662,218	245,406	-0,038	-0,047
-661,203	800,000	0,033	0,078
-660,189	800,000	0,013	-0,029
-659,174	237,662	-0,054	-0,066
-658,159	-156,151	-0,139	-0,006
-657,145	-109,375	-0,174	0,027
-656,130	800,000	0,024	0,054
-655,116	26,641	0,212	0,132
-654,101	258,690	0,057	0,074
-653,086	-200,000	-0,025	0,143
-652,072	80,849	-0,113	0,091
-651,057	232,560	-0,050	-0,061
-650,043	-23,745	0,076	-0,034
-649,028	-27,321	0,086	0,037
-648,014	181,738	0,130	-0,142
-646,999	800,000	0,059	0,130
-645,984	800,000	0,054	0,134
-644,970	134,498	-0,086	-0,083
-643,955	-109,043	-0,168	-0,026
-642,941	332,850	-0,024	-0,035
-641,926	425,438	-0,129	-0,207
-640,911	3,017	0,140	0,075
-639,897	52,848	0,024	-0,017
-638,882	309,221	0,011	-0,015
-637,868	-200,000	0,005	0,022
-636,853	800,000	0,032	-0,088
-635,838	800,000	0,013	-0,037
-634,824	-27,153	-0,212	0,091
-633,809	357,150	0,053	0,079
-632,795	-200,000	-0,005	0,135
-631,780	16,916	0,127	-0,075
-630,765	-200,000	0,029	-0,206
-629,751	769,374	-0,049	-0,099
-628,736	349,999	-0,097	-0,142
-627,722	191,078	-0,066	-0,074
-626,707	800,000	-0,019	-0,044
-625,692	800,000	-0,045	0,141
-624,678	-38,686	0,124	-0,048
-623,663	766,183	-0,039	-0,079
-622,649	800,000	-0,031	-0,065
-621,634	-200,000	0,020	-0,129
-620,619	138,449	-0,079	-0,077
-619,605	800,000	0,045	-0,114
-618,590	800,000	-0,029	0,060
-617,576	-200,000	-0,002	0,124
-616,561	63,148	-0,020	0,015
-615,546	-200,000	-0,013	-0,042
-614,532	728,317	-0,045	0,089
-613,517	-53,589	-0,212	-0,071
-612,503	-17,796	0,056	-0,026
-611,488	-140,850	0,077	0,006
-610,474	37,303	0,102	0,067
-609,459	-60,815	0,108	0,034
-608,444	-200,000	-0,076	0,000
-607,430	10,279	-0,119	0,067
-606,415	-109,594	-0,056	0,009
-605,401	-102,724	-0,019	0,003
-604,386	-121,804	0,157	-0,019
-603,371	-54,846	0,054	0,018
-602,357	-31,187	-0,089	0,037
-601,342	-94,758	0,101	-0,020
-600,328	-200,000	-0,010	0,079
-599,313	-86,569	-0,079	0,018
-598,298	-79,606	-0,133	-0,033
-597,284	158,031	0,142	0,146
-596,269	148,069	0,063	-0,063
-595,255	-97,802	-0,073	0,014
-594,240	-18,042	0,149	0,069
-593,225	-200,000	-0,014	-0,064
-592,211	-200,000	-0,012	-0,076
-591,196	-118,576	0,042	0,005
-590,182	-53,835	0,028	0,009
-589,167	-200,000	0,000	0,101
-588,152	114,337	-0,030	0,027
-587,138	-52,885	-0,087	-0,029
-586,123	98,392	0,098	0,084
-585,109	-86,440	0,072	-0,016
-584,094	291,862	-0,047	0,063
-583,079	-200,000	-0,005	0,060
-582,065	-98,413	0,126	-0,024
-581,050	-200,000	-0,005	-0,102
-580,036	-121,206	-0,185	-0,023
-579,021	-88,369	-0,096	-0,021
-578,006	-200,000	0,003	0,106
-576,992	-200,000	0,014	0,092
-575,977	800,000	0,034	0,089
-574,963	-146,757	0,123	0,008
-573,948	800,000	-0,041	0,125
-572,934	435,814	-0,018	-0,029
-571,919	-77,856	-0,051	-0,013
-570,904	107,729	0,036	-0,032
-569,890	-200,000	0,003	-0,069
-568,875	-200,000	-0,008	-0,041
-567,861	93,833	-0,029	0,024
-566,846	-200,000	0,012	0,118
-565,831	-6,119	-0,039	-0,020
-564,817	18,730	-0,035	0,021
-563,802	1,470	-0,151	0,080
-562,788	-86,015	-0,066	-0,015
-561,773	-200,000	-0,003	0,009
-560,758	800,000	-0,050	-0,134
-559,744	213,155	-0,100	0,117
-558,729	121,734	0,028	0,026
-557,715	-37,595	0,017	0,007
-556,700	-23,726	0,076	0,033
-555,685	-200,000	0,017	-0,082
-554,671	77,613	0,033	0,026
-553,656	3,478	0,106	0,057
-552,642	279,914	0,068	0,090
-551,627	-200,000	0,017	-0,124
-550,612	58,368	0,105	-0,076
-549,598	53,462	-0,178	-0,126
-548,583	-92,357	-0,061	-0,013
-547,569	20,507	-0,127	-0,076
-546,554	-148,205	0,093	0,006
-545,539	766,082	0,023	0,047
-544,525	-63,496	-0,070	0,021
-543,510	-122,523	0,087	-0,010
-542,496	-36,211	-0,094	0,037
-541,481	-127,141	-0,151	0,016
-540,466	-200,000	0,014	-0,112
-539,452	57,330	0,077	-0,056
-538,437	324,188	-0,097	0,137
-537,423	264,794	0,046	-0,059
-536,408	800,000	0,024	-0,065
-535,393	-200,000	-0,001	0,059
-534,379	260,842	-0,047	-0,060
-533,364	800,000	0,030	0,082
-532,350	800,000	0,049	-0,128
-531,335	-200,000	-0,005	-0,107
-530,321	-157,363	-0,093	0,004
-529,306	800,000	-0,026	-0,057
-528,291	-200,000	-0,013	-0,116
-527,277	-151,277	-0,111	0,006
-526,262	-59,538	-0,088	-0,028
-525,248	717,205	0,074	0,146
-524,233	-200,000	0,007	0,118
-523,218	129,898	-0,068	0,064
-522,204	800,000	-0,037	-0,080
-521,189	-146,847	0,086	0,005
-520,175	800,000	-0,018	0,048
-519,160	-200,000	0,024	-0,106
-518,145	-114,995	-0,197	-0,027
-517,131	-200,000	-0,028	0,094
-516,116	-200,000	0,017	0,124
-515,102	184,871	0,057	0,063
-514,087	574,966	0,069	0,124
-513,072	121,810	-0,161	-0,149
-512,058	12,526	-0,075	0,042
-511,043	95,371	0,011	-0,010
-510,029	-31,915	0,087	-0,036
-509,014	-200,000	-0,025	-0,091
-507,999	-39,897	0,038	-0,014
-506,985	-200,000	-0,017	-0,055
-505,970	278,633	0,053	0,070
-504,956	372,725	0,084	0,127
-503,941	208,785	-0,058	0,067
-502,926	-200,000	0,003	-0,126
-501,912	-160,698	0,034	-0,001
-500,897	-104,628	-0,070	0,012
-499,883	746,007	-0,022	-0,044
-498,868	-49,719	-0,117	-0,041
-497,853	-38,097	-0,058	0,023
-496,839	-200,000	0,020	-0,108
-495,824	82,415	-0,118	-0,094
-494,810	-22,856	0,080	-0,036
-493,795	-200,000	0,039	-0,129
-492,781	-48,888	-0,091	-0,032
-491,766	400,821	-0,022	-0,035
-490,751	-92,974	-0,061	0,012
-489,737	-128,339	0,083	0,009
-488,722	-200,000	0,008	-0,068
-487,708	280,295	0,069	-0,091
-486,693	-7,070	0,122	0,061
-485,678	-200,000	-0,018	0,147
-484,664	800,000	-0,012	-0,032
-483,649	-200,000	-0,028	-0,118
-482,635	-200,000	0,023	0,079
-481,620	130,750	0,076	-0,072
-480,605	336,470	-0,015	-0,021
-479,591	-7,694	0,091	-0,045
-478,576	-200,000	-0,030	-0,129
-477,562	800,000	-0,035	-0,085
-476,547	233,556	-0,141	-0,171
-475,532	-145,571	0,054	0,004
-474,518	-78,651	-0,009	-0,002
-473,503	244,430	0,094	-0,116
-472,489	-54,643	0,123	0,041
-471,474	86,360	0,047	-0,039
-470,459	-79,441	-0,096	-0,024
-469,445	344,065	-0,047	-0,069
-468,430	-14,573	-0,081	0,038
-467,416	-61,425	0,044	0,014
-466,401	-138,420	0,042	-0,003
-465,386	-200,000	0,010	0,071
-464,372	275,859	-0,098	0,129
-463,357	600,845	0,028	0,051
-462,343	-101,412	-0,085	-0,015
-461,328	-117,361	0,054	-0,007
-460,313	-24,729	-0,061	0,027
-459,299	-48,571	0,118	0,042
-458,284	800,000	-0,005	0,011
-457,270	99,244	-0,101	0,086
-456,255	-200,000	0,013	0,065
-455,241	-200,000	-0,024	0,136
-454,226	-65,521	-0,127	-0,037
-453,211	126,571	0,133	0,124
-452,197	754,444	0,075	0,149
-451,182	449,676	0,014	-0,023
-450,168	456,302	0,032	0,052
-449,153	157,165	-0,015	-0,016
-448,138	-114,019	-0,065	-0,009
-447,124	800,000	0,025	-0,075
-446,109	726,029	0,048	0,096
-445,095	-200,000	0,007	-0,040
-444,080	255,768	-0,080	-0,102
-443,065	-200,000	0,011	-0,039
-442,051	220,537	-0,071	0,083
-441,036	-146,915	0,093	0,006
-440,022	-49,157	-0,045	-0,016
-439,007	800,000	-0,027	0,086
-437,992	303,357	-0,035	-0,047
-436,978	-121,126	-0,145	-0,018
-435,963	292,658	-0,013	-0,017
-434,949	800,000	-0,064	-0,154
-433,934	800,000	0,030	0,069
-432,919	800,000	-0,040	-0,094
-431,905	42,657	-0,081	-0,054
-430,890	8,461	0,111	0,062
-429,876	402,742	-0,018	0,027
-428,861	-30,022	-0,098	0,041
-427,846	78,623	0,104	-0,082
-426,832	-1,975	0,040	-0,020
-425,817	157,196	-0,096	-0,097
-424,803	72,251	-0,088	-0,068
-423,788	67,129	0,014	-0,010
-422,773	800,000	0,015	0,032
-421,759	-17,558	-0,021	-0,010
-420,744	800,000	0,039	-0,098
-419,730	694,773	0,046	-0,090
-418,715	-200,000	-0,015	0,131
-417,701	800,000	-0,020	0,042
-416,686	-104,555	0,062	0,010
-415,671	-109,272	-0,024	0,004
-414,657	148,128	-0,058	0,057
-413,642	-80,945	0,036	-0,009
-412,628	137,135	0,099	-0,095
-411,613	341,231	0,035	-0,050
-410,598	275,005	-0,107	-0,140
-409,584	-80,446	-0,175	0,043
-408,569	200,079	0,051	0,058
-407,555	-181,044	-0,075	-0,001
-406,540	269,718	0,077	0,100
-405,525	-39,810	-0,097	0,037
-404,511	800,000	-0,070	-0,163
-403,496	38,269	-0,118	-0,077
-402,482	87,841	-0,046	-0,038
-401,467	800,000	-0,033	0,081
-400,452	71,082	0,143	-0,109
-399,438	378,535	0,032	-0,048
-398,423	-200,000	0,000	-0,102
-397,409	-76,440	-0,247	-0,063
-396,394	-200,000	-0,008	0,088
-395,379	-152,864	-0,087	-0,004
-394,365	49,278	0,050	0,035
-393,350	-92,348	0,118	0,024
-392,336	-200,000	-0,015	-0,119
-391,321	337,322	-0,040	-0,057
-390,306	800,000	0,034	-0,084
-389,292	-11,884	-0,088	-0,042
-388,277	-138,177	0,114	0,009
-387,263	-200,000	0,018	0,146
-386,248	334,154	0,118	-0,169
-385,233	-200,000	0,024	-0,132
-384,219	-200,000	0,000	0,021
-383,204	-200,000	0,024	0,122
-382,190	800,000	0,026	-0,058
-381,175	-200,000	0,029	0,097
-380,160	-200,000	0,007	-0,024
-379,146	279,692	0,074	-0,097
-378,131	-92,155	0,042	-0,009
-377,117	164,765	0,069	0,072
-376,102	-65,225	-0,025	0,007
-375,088	203,164	0,124	-0,141
-374,073	-49,504	0,148	-0,052
-373,058	800,000	0,033	-0,089
-372,044	800,000	-0,031	0,075
-371,029	-200,000	0,029	0,125
-370,015	220,906	0,013	-0,015
-369,000	189,528	-0,039	-0,043
-367,985	800,000	0,007	0,020
-366,971	351,711	0,010	0,014
-365,956	-129,423	-0,076	0,008
-364,942	-5,761	-0,028	0,014
-363,927	410,279	-0,006	0,009
-362,912	-105,618	-0,055	-0,009
-361,898	332,722	0,061	0,087
-360,883	-68,368	-0,018	0,005
-359,869	249,390	0,028	-0,035
-358,854	-200,000	-0,009	0,036
-357,839	-121,272	0,119	0,014
-356,825	-200,000	-0,011	0,084
-355,810	-117,497	-0,064	0,008
-354,796	27,581	0,059	-0,036
-353,781	800,000	-0,036	0,109
-352,766	318,862	0,081	-0,113
-351,752	-78,135	-0,090	0,023
-350,737	25,690	0,188	-0,115
-349,723	-0,515	-0,034	0,018
-348,708	-110,112	-0,142	0,022
-347,693	-200,000	-0,009	0,059
-346,679	328,317	0,077	0,109
-345,664	283,434	0,086	0,114
-344,650	-48,684	-0,131	0,046
-343,635	800,000	0,019	0,053
-342,620	726,838	-0,066	0,131
-341,606	329,430	-0,045	0,063
-340,591	-97,130	-0,060	0,011
-339,577	57,888	0,138	0,099
-338,562	-200,000	-0,002	-0,044
-337,548	-200,000	0,000	-0,045
-336,533	62,966	0,006	0,004
-335,518	216,346	0,049	0,057
-334,504	628,740	-0,025	0,046
-333,489	-97,443	0,143	0,027
-332,475	550,753	-0,031	0,054
-331,460	-200,000	0,025	-0,137
-330,445	165,595	0,097	-0,101
-329,431	166,872	0,118	0,123
-328,416	67,842	0,079	0,059
-327,402	134,274	0,092	-0,087
-326,387	-200,000	0,045	-0,194
-325,372	271,983	-0,052	0,067
-324,358	63,726	-0,082	-0,060
-323,343	-115,739	-0,123	-0,017
-322,329	57,372	0,120	-0,086
-321,314	181,399	-0,096	-0,104
-320,299	62,313	-0,035	-0,025
-319,285	800,000	-0,038	0,116
-318,270	-129,860	0,120	-0,012
-317,256	-28,533	0,056	-0,024
-316,241	-22,961	0,055	0,024
-315,226	-200,000	-0,007	-0,072
-314,212	800,000	0,015	-0,041
-313,197	106,081	0,189	0,164
-312,183	-178,894	0,114	-0,002
-311,168	-72,219	-0,176	-0,048
-310,153	-78,338	-0,085	0,021
-309,139	531,909	0,078	0,137
-308,124	111,940	0,117	0,104
-307,110	800,000	-0,045	0,105
-306,095	-200,000	-0,009	0,110
-305,080	241,770	-0,064	0,078
-304,066	109,593	0,054	-0,047
-303,051	431,486	0,047	0,075
-302,037	-200,000	0,040	-0,141
-301,022	103,196	0,114	0,098
-300,008	800,000	0,044	0,111
-298,993	-200,000	-0,008	0,112
-297,978	-72,306	-0,033	0,009
-296,964	-146,508	-0,095	-0,006
-295,949	-35,267	0,154	0,061
-294,935	-122,859	-0,107	0,013
-293,920	-200,000	0,018	-0,076
-292,905	224,403	-0,109	-0,129
-291,891	-200,000	0,019	0,095
-290,876	-14,951	-0,102	0,047
-289,862	-14,566	0,147	0,069
-288,847	37,803	-0,170	0,110
-287,832	-81,207	0,035	0,008
-286,818	-200,000	-0,014	-0,088
-285,803	149,434	0,024	-0,024
-284,789	-142,917	-0,045	0,003
-283,774	644,139	-0,011	0,020
-282,759	-200,000	-0,007	0,090
-281,745	159,462	0,023	0,023
-280,730	-200,000	-0,047	-0,175
-279,716	-200,000	-0,019	-0,113
-278,701	-200,000	0,005	-0,060
-277,686	-168,251	0,043	0,001
-276,672	85,546	-0,024	0,019
-275,657	597,307	-0,070	0,128
-274,643	-23,875	-0,067	-0,029
-273,628	-200,000	-0,006	-0,023
-272,613	800,000	-0,010	-0,031
-271,599	138,733	0,014	0,013
-270,584	39,100	0,016	0,010
-269,570	800,000	-0,015	0,040
-268,555	18,261	0,065	0,038
-267,540	-200,000	0,006	-0,063
-266,526	-72,842	-0,119	-0,032
-265,511	800,000	0,065	0,165
-264,497	-169,740	0,079	0,002
-263,482	16,069	0,058	-0,033
-262,467	-200,000	-0,002	0,144
-261,453	-200,000	0,029	-0,109
-260,438	36,036	-0,140	-0,090
-259,424	-200,000	-0,017	-0,099
-258,409	-161,520	-0,099	0,004
-257,395	33,431	0,198	0,126
-256,380	654,188	0,031	0,058
-255,365	311,930	-0,102	0,140
-254,351	-200,000	0,013	-0,055
-253,336	-27,671	-0,108	0,045
-252,322	-64,622	-0,121	-0,036
-251,307	-140,316	0,086	0,006
-250,292	368,267	0,078	0,116
-249,278	800,000	0,040	0,090
-248,263	54,387	-0,066	-0,046
-247,249	-186,872	-0,055	-0,001
-246,234	1,066	-0,053	0,028
-245,219	-200,000	0,018	-0,116
-244,205	-97,663	-0,214	0,040
-243,190	-28,213	0,166	-0,070
-242,176	596,534	-0,034	0,062
-241,161	-200,000	-0,002	0,045
-240,146	800,000	-0,033	-0,076
-239,132	800,000	-0,025	-0,057
-238,117	-200,000	0,057	-0,201
-237,103	533,750	0,018	0,031
-236,088	46,867	0,120	-0,081
-235,073	-100,119	0,118	0,021
-234,059	-59,186	0,078	0,024
-233,044	341,646	-0,080	0,114
-232,030	25,061	-0,072	0,043
-231,015	-200,000	-0,007	-0,076
-230,000	316,464	0,085	-0,117
-228,986	-130,078	0,101	-0,010
-227,971	-200,000	-0,035	-0,220
-226,957	-31,777	-0,072	-0,029
-225,942	-200,000	-0,015	0,139
-224,927	800,000	-0,031	0,062
-223,913	-103,312	0,025	0,004
-222,898	-200,000	-0,019	-0,064
-221,884	205,908	-0,100	-0,113
-220,869	-200,000	0,017	0,120
-219,855	58,000	-0,064	-0,045
-218,840	800,000	0,035	0,072
-217,825	-200,000	0,027	0,095
-216,811	-200,000	0,010	-0,085
-215,796	-48,244	-0,064	0,022
-214,782	800,000	-0,039	-0,100
-213,767	-200,000	0,016	-0,083
-212,752	178,895	0,056	-0,059
-211,738	-200,000	0,017	0,119
-210,723	-92,545	0,206	-0,042
-209,709	-200,000	0,035	0,124
-208,694	-7,352	-0,090	-0,044
-207,679	49,045	0,095	0,065
-206,665	4,665	0,104	0,055
-205,650	504,097	-0,029	0,049
-204,636	-200,000	-0,010	0,080
-203,621	517,145	0,059	0,102
-202,606	800,000	-0,026	-0,068
-201,592	-131,097	-0,053	0,005
-200,577	312,864	0,018	-0,025
-199,563	-66,008	0,036	-0,010
-198,548	800,000	0,033	0,079
-197,533	-45,532	0,156	0,056
-196,519	208,787	0,097	-0,110
-195,504	-200,000	0,001	0,016
-194,490	-20,214	-0,104	0,047
-193,475	67,513	0,089	-0,066
-192,460	643,742	0,069	-0,129
-191,446	-85,576	-0,039	0,009
-190,431	-200,000	0,007	0,030
-189,417	439,982	-0,010	0,016
-188,402	-200,000	0,010	0,039
-187,387	-100,905	-0,046	-0,008
-186,373	-200,000	-0,019	-0,102
-185,358	-24,339	0,045	-0,019
-184,344	541,465	0,025	0,044
-183,329	-191,223	-0,047	-0,000
-182,315	-137,196	0,119	-0,010
-181,300	224,465	0,028	-0,033
-180,285	-53,866	-0,076	-0,025
-179,271	393,350	0,014	0,021
-178,256	151,334	0,028	-0,028
-177,242	800,000	-0,018	-0,037
-176,227	-200,000	-0,003	-0,014
-175,212	-84,455	-0,096	0,022
-174,198	98,584	0,174	0,147
-173,183	-46,874	0,035	-0,013
-172,169	267,791	0,016	-0,020
-171,154	800,000	-0,096	0,200
-170,139	-200,000	-0,012	0,083
-169,125	800,000	0,035	0,094
-168,110	-200,000	0,009	0,046
-167,096	-53,007	0,061	0,020
-166,081	697,134	-0,070	0,134
-165,066	800,000	-0,052	-0,121
-164,052	59,697	0,066	-0,048
-163,037	800,000	-0,013	0,042
-162,023	-147,775	-0,137	-0,008
-161,008	-22,989	0,109	0,047
-159,993	-48,582	-0,057	-0,020
-158,979	-74,676	-0,135	-0,035
-157,964	-45,713	-0,068	-0,024
-156,950	633,309	0,016	-0,031
-155,935	325,739	0,040	-0,056
-154,920	-200,000	0,028	0,095
-153,906	55,969	0,105	0,074
-152,891	9,830	0,048	0,026
-151,877	-200,000	-0,019	-0,131
-150,862	183,770	-0,060	-0,065
-149,847	48,751	-0,011	-0,008
-148,833	-173,501	0,142	-0,003
-147,818	354,000	0,039	-0,056
-146,804	-29,240	-0,070	0,029
-145,789	138,772	-0,026	0,025
-144,775	213,828	-0,040	-0,046
-143,760	241,429	-0,038	-0,047
-142,745	-57,255	0,063	0,020
-141,731	-200,000	0,010	0,036
-140,716	147,190	0,080	-0,078
-139,702	-130,280	0,130	0,013
-138,687	-200,000	0,022	0,087
-137,672	-200,000	0,007	-0,040
-136,658	-63,031	-0,114	-0,034
-135,643	-130,948	-0,133	-0,013
-134,629	800,000	0,024	-0,062
-133,614	-200,000	0,013	0,062
-132,599	208,427	0,087	0,099
-131,585	-200,000	-0,001	0,112
-130,570	177,661	0,071	-0,075
-129,556	68,508	-0,061	-0,045
-128,541	406,704	-0,059	-0,090
-127,526	267,262	0,024	-0,031
-126,512	-160,573	-0,039	0,001
-125,497	800,000	0,016	-0,036
-124,483	121,518	-0,096	0,087
-123,468	800,000	-0,018	-0,043
-122,453	-200,000	0,012	-0,097
-121,439	-200,000	-0,003	-0,080
-120,424	-154,707	-0,039	-0,002
-119,410	800,000	-0,050	-0,137
-118,395	80,363	0,114	0,089
-117,380	-200,000	-0,047	-0,170
-116,366	-142,076	0,073	0,005
-115,351	205,426	0,049	-0,056
-114,337	115,164	-0,126	-0,112
-113,322	147,157	-0,027	-0,026
-112,307	626,624	-0,077	0,142
-111,293	-88,913	0,123	-0,026
-110,278	74,806	-0,019	0,015
-109,264	161,468	-0,065	-0,066
-108,249	-200,000	0,003	0,085
-107,234	749,270	0,053	0,105
-106,220	50,627	-0,012	0,008
-105,205	-200,000	0,016	-0,094
-104,191	-0,033	-0,101	-0,052
-103,176	737,276	0,030	-0,059
-102,162	-182,058	-0,090	-0,001
-101,147	-200,000	-0,036	-0,177
-100,132	76,942	-0,087	0,067
-99,118	-200,000	-0,014	0,145
-98,103	-200,000	-0,004	0,054
-97,089	14,103	-0,174	0,098
-96,074	800,000	0,048	0,121
-95,059	-200,000	0,016	0,107
-94,045	-53,534	-0,022	0,007
-93,030	-84,761	-0,125	-0,028
-92,016	143,729	-0,077	-0,074
-91,001	-200,000	0,004	0,037
-89,986	-148,798	0,177	-0,010
-88,972	65,101	0,082	0,060
-87,957	-25,399	-0,016	-0,007
-86,943	800,000	-0,008	0,024
-85,928	52,193	-0,065	0,045
-84,913	21,391	-0,115	-0,067
-83,899	-200,000	0,022	-0,101
-82,884	-200,000	-0,006	0,082
-81,870	-200,000	0,006	0,080
-80,855	153,481	-0,051	0,051
-79,840	603,629	0,059	0,106
-78,826	-25,501	-0,022	0,010
-77,811	105,162	0,019	0,016
-76,797	-78,193	-0,156	-0,039
-75,782	687,759	0,016	0,030
-74,767	444,382	-0,086	0,137
-73,753	-4,779	0,115	0,058
-72,738	-40,279	0,162	-0,061
-71,724	-151,974	0,006	0,000
-70,709	68,680	-0,123	-0,092
-69,694	800,000	-0,034	-0,069
-68,680	89,710	0,040	0,033
-67,665	-200,000	-0,014	0,071
-66,651	-200,000	0,012	0,086
-65,636	-200,000	0,000	0,011
-64,622	209,467	0,038	0,043
-63,607	-200,000	-0,009	-0,088
-62,592	-52,773	-0,114	-0,038
-61,578	-200,000	-0,004	-0,151
-60,563	287,240	0,053	-0,070
-59,549	95,404	0,069	0,057
-58,534	-117,327	-1,286	-0,167
-57,519	381,116	-0,924	-1,381
-56,505	-200,000	-0,760	-4,355
-55,490	-17,867	0,665	-0,301
-54,476	800,000	4,949	11,776
-53,461	-200,000	14,165	255,833
-52,446	-200,000	696,174	2267,174
-51,432	598,155	1625,638	2936,379
-50,417	117,381	1633,351	1457,259
-49,403	74,066	1287,118	979,050
-48,388	37,364	1023,891	657,086
-47,373	23,816	982,527	585,927
-46,359	23,058	972,021	577,152
-45,344	22,046	967,513	571,143
-44,330	21,991	965,996	570,044
-43,315	21,926	964,549	568,956
-42,300	21,863	963,598	568,167
-41,286	21,880	962,400	567,495
-40,271	21,802	961,732	566,825
-39,257	21,833	960,707	566,299
-38,242	21,780	959,836	565,590
-37,227	21,784	958,861	565,006
-36,213	21,762	958,117	564,476
-35,198	21,794	956,923	563,852
-34,184	21,861	956,426	563,754
-33,169	21,762	955,667	562,965
-32,154	21,864	954,499	562,584
-31,140	21,803	953,875	561,997
-30,125	21,840	953,044	561,603
-29,111	21,811	952,207	560,993
-28,096	21,801	951,612	560,589
-27,082	21,787	950,894	560,098
-26,067	21,846	949,859	559,658
-25,052	21,807	949,293	559,175
-24,038	21,840	948,636	558,873
-23,023	21,850	947,953	558,480
-22,009	21,799	947,458	558,001
-20,994	21,826	946,826	557,694
-19,979	21,863	946,029	557,322
-18,965	21,829	945,264	556,740
-17,950	21,822	944,894	556,478
-16,936	21,764	944,074	555,787
-15,921	21,737	943,502	555,344
-14,906	21,673	942,848	554,731
-13,892	21,687	942,156	554,348
-12,877	21,708	941,409	553,952
-11,863	21,635	941,020	553,470
-10,848	21,694	940,390	553,265
-9,833	21,772	939,847	553,170
-8,819	21,721	939,343	552,692
-7,804	21,671	938,605	552,075
-6,790	21,645	937,916	551,566
-5,775	21,734	937,565	551,620
-4,760	21,666	936,828	550,951
-3,746	21,668	936,252	550,596
-2,731	21,531	935,519	549,709
-1,717	21,510	934,737	549,161
-0,702	21,488	934,113	548,703
0,313	21,351	933,432	548,702
1,327	23,809	931,027	554,969
2,342	31,492	808,500	502,759
3,356	25,778	509,149	306,820
4,371	0,764	374,637	193,812
5,386	-2,046	357,647	181,544
6,400	-3,107	351,645	177,194
7,415	-3,478	349,255	175,528
8,429	-3,220	348,008	175,195
9,444	-3,343	347,247	174,650
10,459	-3,197	346,603	174,485
11,473	-3,372	345,891	173,901
12,488	-3,409	345,280	173,535
13,502	-3,583	344,667	173,004
14,517	-3,199	344,095	173,157
15,531	-3,208	343,831	172,999
16,546	-2,970	343,189	172,942
17,561	-2,991	342,875	172,743
18,575	-2,991	342,611	172,595
19,590	-3,232	342,145	172,061
20,604	-3,068	341,854	172,091
21,619	-3,245	341,662	171,772
22,634	-3,125	341,108	171,619
23,648	-3,105	340,634	171,388
24,663	-3,047	340,488	171,368
25,677	-3,030	340,113	171,184
26,692	-3,009	339,728	170,999
27,707	-3,055	339,579	170,855
28,721	-3,097	339,130	170,566
29,736	-3,207	338,955	170,333
30,750	-3,035	338,615	170,348
31,765	-3,051	338,259	170,135
32,780	-3,064	337,893	169,921
33,794	-3,083	337,897	169,885
34,809	-3,172	337,521	169,577
35,823	-3,176	337,199	169,396
36,838	-3,091	336,910	169,335
37,853	-3,214	336,645	169,043
38,867	-3,149	336,422	168,992
39,882	-3,182	336,033	168,743
40,896	-3,091	335,895	168,764
41,911	-3,052	335,390	168,540
42,926	-3,104	335,210	168,375
43,940	-3,079	335,009	168,288
44,955	-3,103	334,730	168,105
45,969	-3,127	334,465	167,930
46,984	-3,185	334,237	167,733
47,999	-2,914	333,913	167,867
49,013	-2,937	333,615	167,675
50,028	-2,983	333,390	167,495
51,042	-3,205	333,069	167,065
52,057	-3,163	332,928	167,026
53,071	-3,202	332,599	166,802
54,086	-2,966	332,283	166,898
55,101	-3,165	332,201	166,616
56,115	-3,093	331,857	166,509
57,130	-3,022	331,529	166,411
58,144	-3,250	331,415	166,079
59,159	-3,197	330,965	165,899
60,174	-3,170	330,642	165,754
61,188	-3,203	330,455	165,607
62,203	-3,182	330,076	165,427
63,217	-3,271	329,987	165,267
64,232	-3,121	329,731	165,294
65,247	-3,304	329,324	164,868
66,261	-3,200	329,136	164,876
67,276	-3,136	328,867	164,799
68,290	-3,074	328,650	164,746
69,305	-3,225	328,525	164,498
70,320	-3,122	328,291	164,482
71,334	-2,988	327,913	164,429
72,349	-3,002	327,498	164,190
73,363	-3,134	327,404	163,981
74,378	-3,212	327,228	163,790
75,393	-3,182	326,900	163,645
76,407	-3,165	326,521	163,460
77,422	-3,166	326,388	163,377
78,436	-3,212	326,255	163,245
79,451	-3,003	325,753	163,213
80,466	-3,039	325,524	163,043
81,480	-3,058	325,392	162,941
82,495	-3,060	325,089	162,772
83,509	-3,201	325,069	162,591
84,524	-2,973	324,650	162,620
85,539	-2,906	324,213	162,461
86,553	-3,230	324,192	162,077
87,568	-3,120	324,031	162,105
88,582	-2,977	323,576	162,020
89,597	-3,059	323,389	161,822
90,611	-3,126	323,274	161,675
91,626	-3,140	322,916	161,466
92,641	-3,128	322,711	161,363
93,655	-3,004	322,570	161,414
94,670	-3,152	322,313	161,109
95,684	-3,026	321,992	161,073
96,699	-3,253	321,837	160,730
97,714	-3,099	321,593	160,764
98,728	-3,097	321,343	160,626
99,743	-3,029	321,074	160,553
100,757	-2,927	320,812	160,519
101,772	-2,995	320,512	160,280
102,787	-3,123	320,352	160,046
103,801	-3,052	320,111	159,989
104,816	-3,122	319,946	159,815
105,830	-3,038	319,608	159,724
106,845	-3,047	319,489	159,640
107,860	-3,111	319,244	159,434
108,874	-3,099	318,890	159,256
109,889	-3,153	318,739	159,108
110,903	-3,114	318,437	158,985
111,918	-2,989	318,241	159,009
112,933	-2,956	318,023	158,922
113,947	-3,020	317,744	158,699
114,962	-3,066	317,610	158,568
115,976	-3,265	317,404	158,235
116,991	-3,131	317,219	158,275
118,006	-3,086	316,828	158,113
119,020	-3,006	316,764	158,155
120,035	-3,129	316,636	157,944
121,049	-3,064	316,428	157,895
122,064	-3,144	316,218	157,690
123,079	-3,089	315,828	157,540
124,093	-2,908	315,622	157,619
125,108	-3,053	315,375	157,326
126,122	-3,029	315,161	157,231
127,137	-2,945	314,913	157,183
128,151	-3,150	314,887	156,935
129,166	-3,026	314,507	156,866
130,181	-3,116	314,285	156,644
131,195	-3,172	314,031	156,444
132,210	-3,167	313,953	156,396
133,224	-3,221	313,587	156,142
134,239	-3,079	313,300	156,138
135,254	-3,105	313,122	156,007
136,268	-2,942	312,834	156,023
137,283	-2,960	312,600	155,874
138,297	-3,038	312,427	155,691
139,312	-3,001	312,168	155,586
140,327	-2,999	311,843	155,414
141,341	-3,099	311,686	155,214
142,356	-3,254	311,535	154,960
143,370	-2,981	311,198	155,069
144,385	-2,971	311,076	155,005
145,400	-2,997	310,896	154,874
146,414	-3,077	310,666	154,661
147,429	-3,104	310,366	154,469
148,443	-3,074	310,182	154,396
149,458	-2,965	310,140	154,476
150,473	-3,026	309,830	154,243
151,487	-3,056	309,504	154,035
152,502	-2,944	309,395	154,086
153,516	-2,923	309,159	153,977
154,531	-3,062	308,893	153,685
155,546	-3,137	308,697	153,494
156,560	-2,914	308,333	153,533
157,575	-3,028	308,239	153,354
158,589	-2,974	308,003	153,279
159,604	-2,966	307,860	153,203
160,619	-2,926	307,655	153,129
161,633	-2,994	307,566	153,000
162,648	-2,971	307,303	152,879
163,662	-3,023	307,021	152,671
164,677	-2,906	306,819	152,679
165,692	-3,056	306,620	152,410
166,706	-2,886	306,528	152,528
167,721	-2,909	306,270	152,362
168,735	-2,930	306,092	152,238
169,750	-2,821	305,799	152,192
170,764	-3,095	305,620	151,805
171,779	-2,853	305,357	151,912
172,794	-2,980	305,330	151,752
173,808	-3,118	305,183	151,522
174,823	-3,087	304,799	151,352
175,837	-2,837	304,554	151,474
176,852	-3,053	304,379	151,151
177,867	-3,158	304,266	150,973
178,881	-3,072	303,983	150,907
179,896	-2,989	303,859	150,918
180,910	-3,054	303,594	150,706
181,925	-3,061	303,376	150,577
182,940	-2,838	303,004	150,608
183,954	-3,013	302,895	150,361
184,969	-2,854	302,821	150,475
185,983	-2,831	302,609	150,379
186,998	-2,890	302,327	150,165
188,013	-2,892	302,172	150,072
189,027	-2,989	302,024	149,887
190,042	-3,053	301,721	149,658
191,056	-3,011	301,546	149,600
192,071	-3,150	301,392	149,368
193,086	-3,110	300,952	149,177
194,100	-3,162	300,846	149,059
195,115	-2,864	300,660	149,256
196,129	-2,898	300,387	149,074
197,144	-2,908	300,190	148,952
198,159	-3,044	299,939	148,676
199,173	-2,912	299,705	148,681
200,188	-3,096	299,566	148,412
201,202	-3,152	299,307	148,214
202,217	-2,803	299,133	148,468
203,232	-2,904	298,981	148,277
204,246	-3,103	298,746	147,945
205,261	-2,941	298,685	148,067
206,275	-3,053	298,416	147,806
207,290	-3,057	298,250	147,707
208,304	-2,929	297,978	147,689
209,319	-3,060	297,965	147,536
210,334	-2,845	297,542	147,531
211,348	-2,865	297,356	147,405
212,363	-2,768	297,220	147,422
213,377	-2,882	297,038	147,204
214,392	-2,955	296,882	147,040
215,407	-2,989	296,529	146,818
216,421	-2,986	296,451	146,769
217,436	-2,827	296,034	146,709
218,450	-2,962	295,940	146,514
219,465	-3,205	295,767	146,172
220,480	-3,089	295,593	146,190
221,494	-2,969	295,465	146,233
222,509	-2,901	295,317	146,215
223,523	-2,905	295,003	146,043
224,538	-3,025	294,746	145,782
225,553	-3,032	294,634	145,707
226,567	-3,066	294,525	145,606
227,582	-2,919	294,313	145,635
228,596	-2,964	294,083	145,463
229,611	-2,926	293,988	145,441
230,626	-3,042	293,738	145,189
231,640	-2,716	293,516	145,390
232,655	-2,799	293,181	145,129
233,669	-2,840	293,105	145,037
234,684	-2,918	292,840	144,816
235,699	-2,896	292,782	144,797
236,713	-2,968	292,709	144,676
237,728	-2,921	292,289	144,503
238,742	-3,015	292,072	144,289
239,757	-3,071	291,919	144,146
240,772	-3,032	291,608	144,018
241,786	-3,085	291,582	143,940
242,801	-3,145	291,492	143,823
243,815	-3,033	291,260	143,806
244,830	-2,977	291,016	143,728
245,844	-3,047	290,835	143,557
246,859	-3,102	290,556	143,352
247,874	-3,027	290,251	143,263
248,888	-3,102	290,284	143,193
249,903	-3,084	290,087	143,101
250,917	-3,171	289,818	142,869
251,932	-3,086	289,451	142,759
252,947	-3,515	289,168	142,188
253,961	-4,119	288,727	141,370
254,976	-4,362	288,403	140,962
255,990	-4,363	288,328	140,911
257,005	-3,247	288,754	142,195
258,020	-0,973	289,561	144,800
259,034	0,637	289,920	146,539
260,049	1,158	289,925	147,036
261,063	1,442	289,943	147,309
262,078	1,774	289,694	147,493
263,093	2,044	289,635	147,713
264,107	2,324	289,706	148,009
265,122	2,647	289,520	148,214
266,136	2,506	289,401	148,003
267,151	2,414	289,209	147,803
268,166	2,519	289,035	147,803
269,180	2,503	288,804	147,656
270,195	2,527	288,528	147,524
271,209	2,596	288,409	147,517
272,224	2,577	288,216	147,387
273,239	2,363	288,064	147,090
274,253	2,468	287,807	147,047
275,268	2,419	287,627	146,894
276,282	2,426	287,352	146,747
277,297	2,332	287,265	146,599
278,312	2,496	287,146	146,683
279,326	2,456	286,947	146,531
280,341	2,294	286,807	146,290
281,355	2,409	286,516	146,239
282,370	2,468	286,276	146,160
283,384	2,605	285,985	146,129
284,399	2,254	285,933	145,754
285,414	2,277	285,761	145,675
286,428	2,381	285,492	145,625
287,443	2,235	285,338	145,393
288,457	2,261	285,088	145,277
289,472	2,281	284,929	145,202
290,487	2,131	284,777	144,969
291,501	2,170	284,560	144,882
292,516	2,320	284,271	144,866
293,530	2,163	284,286	144,710
294,545	2,165	284,086	144,597
295,560	2,270	283,790	144,534
296,574	2,247	283,706	144,457
297,589	2,108	283,374	144,143
298,603	2,061	283,169	143,981
299,618	2,220	282,945	144,005
300,633	2,339	283,014	144,140
301,647	2,349	282,760	144,007
302,662	2,362	282,622	143,937
303,676	2,218	282,650	143,802
304,691	2,332	282,419	143,779
305,706	2,441	282,112	143,713
306,720	2,389	281,947	143,567
307,735	2,585	281,688	143,607
308,749	2,472	281,432	143,357
309,764	2,382	281,364	143,225
310,779	2,278	281,212	143,038
311,793	2,199	281,097	142,892
312,808	2,331	280,682	142,792
313,822	2,387	280,530	142,755
314,837	2,470	280,466	142,787
315,852	2,451	280,314	142,679
316,866	2,451	280,065	142,539
317,881	2,420	279,843	142,385
318,895	2,238	279,782	142,171
319,910	2,395	279,513	142,168
320,925	2,274	279,293	141,931
321,939	2,297	279,280	141,933
322,954	2,598	278,939	142,028
323,968	2,475	278,858	141,859
324,983	2,581	278,618	141,823
325,997	2,455	278,404	141,585
327,012	2,505	278,342	141,586
328,027	2,559	278,096	141,500
329,041	2,539	277,949	141,393
330,056	2,309	277,910	141,147
331,070	2,581	277,624	141,241
332,085	2,497	277,456	141,066
333,100	2,366	277,420	140,913
334,114	2,523	277,116	140,892
335,129	2,552	276,908	140,801
336,143	2,469	276,665	140,587
337,158	2,654	276,461	140,642
338,173	2,597	276,366	140,528
339,187	2,531	276,263	140,403
340,202	2,397	276,067	140,167
341,216	2,373	275,852	140,023
342,231	2,634	275,589	140,118
343,246	2,686	275,378	140,045
344,260	2,534	275,375	139,891
345,275	2,704	275,090	139,890
346,289	2,506	275,052	139,677
347,304	2,742	274,793	139,749
348,319	2,590	274,590	139,495
349,333	2,616	274,246	139,331
350,348	2,696	274,211	139,374
351,362	2,544	274,201	139,217
352,377	2,418	274,020	138,998
353,392	2,467	273,826	138,932
354,406	2,501	273,628	138,850
355,421	191,063	1349,863	1429,241
356,435	154,260	1481,085	1429,366
