DTS Sentinel unit serial number:	SN410029Multiplexer serial number:	ORYXHardware model number:	OX2-SRSoftware version number:	ORYX F/W v4,00 Oryx Data Collector v3.7.2.0data status	okinstallation	B4 Nyhavnadifferential loss correction	single-endedforward channel	channel 2reverse channel	N/Adate	2023/12/16time	08:30:13forward acquisition time	300,00reverse acquisition time	0,00gamma	499,1914k internal	0,3127k external	0,3127temperature offset calibration	1,0000default loss term (dB/km)	0,3820temperature slope calibration	1,0000multiplexer offset coefficient	1,0000multiplexer slope coefficient	1,0000fibre end	0,00T internal ref (°C)	22,57T ext. ref 1 (°C)	8,48T ext. ref 2 (°C)	8,62length (m)	temperature (°C)	Stokes	anti-Stokes-744,400	-200,000	-0,004	-0,061
-743,385	-60,120	-0,275	0,087
-742,371	193,119	-0,075	-0,084
-741,356	-135,675	-0,096	-0,008
-740,342	579,901	-0,070	0,127
-739,327	28,078	-0,206	0,129
-738,312	263,138	-0,022	-0,028
-737,298	71,364	-0,188	0,145
-736,283	800,000	0,090	0,232
-735,269	148,277	-0,177	0,178
-734,254	70,022	-0,072	-0,055
-733,239	-9,503	-0,322	-0,159
-732,225	169,937	-0,012	0,013
-731,210	82,193	-0,079	0,064
-730,196	54,416	-0,115	-0,082
-729,181	-139,954	-0,027	0,002
-728,167	468,297	0,019	-0,031
-727,152	68,846	-0,040	-0,031
-726,137	670,406	-0,027	0,052
-725,123	-80,129	-0,127	0,032
-724,108	-200,000	-0,014	-0,175
-723,094	-200,000	-0,017	-0,067
-722,079	-84,553	0,030	-0,007
-721,064	-91,020	0,061	-0,013
-720,050	800,000	0,027	-0,073
-719,035	367,087	0,057	-0,086
-718,021	-86,572	-0,072	-0,016
-717,006	800,000	-0,046	-0,107
-715,991	800,000	-0,092	-0,201
-714,977	-200,000	0,020	-0,112
-713,962	73,876	0,071	-0,055
-712,948	65,086	-0,093	0,070
-711,933	800,000	0,047	-0,113
-710,918	-143,854	-0,105	-0,007
-709,904	297,009	-0,019	0,025
-708,889	-57,445	-0,071	-0,023
-707,875	508,978	0,097	-0,167
-706,860	-200,000	0,020	-0,131
-705,845	-200,000	-0,010	-0,040
-704,831	469,113	-0,033	0,055
-703,816	-200,000	-0,008	-0,053
-702,802	-62,522	0,040	0,012
-701,787	-157,953	0,218	0,009
-700,772	-155,183	-0,057	0,003
-699,758	180,397	0,123	-0,134
-698,743	800,000	0,027	0,058
-697,729	800,000	0,062	-0,148
-696,714	-200,000	-0,020	0,071
-695,699	45,406	-0,077	-0,052
-694,685	-200,000	-0,015	-0,130
-693,670	800,000	-0,026	-0,077
-692,656	800,000	0,025	0,078
-691,641	-200,000	0,017	0,178
-690,627	241,511	-0,022	0,027
-689,612	354,359	-0,082	0,122
-688,597	-88,418	-0,115	0,025
-687,583	284,277	0,064	-0,086
-686,568	-49,013	-0,174	0,062
-685,554	285,872	-0,027	-0,037
-684,539	-200,000	0,004	-0,031
-683,524	800,000	-0,035	0,109
-682,510	-200,000	-0,010	-0,056
-681,495	385,425	-0,076	-0,117
-680,481	-200,000	-0,001	0,006
-679,466	800,000	-0,082	-0,215
-678,451	-200,000	-0,017	-0,075
-677,437	800,000	0,040	-0,119
-676,422	25,312	0,043	-0,027
-675,408	9,982	-0,016	0,009
-674,393	-141,580	0,070	-0,005
-673,378	-200,000	-0,000	-0,033
-672,364	-200,000	-0,006	0,035
-671,349	-175,846	-0,027	0,001
-670,335	143,190	0,061	-0,060
-669,320	93,546	-0,056	0,047
-668,305	-105,959	-0,053	0,009
-667,291	800,000	-0,027	-0,073
-666,276	311,732	0,048	-0,067
-665,262	104,894	-0,019	-0,017
-664,247	-200,000	0,017	-0,146
-663,232	800,000	-0,028	-0,061
-662,218	745,072	0,028	-0,057
-661,203	26,088	-0,082	0,051
-660,189	-200,000	-0,003	0,072
-659,174	800,000	0,012	-0,030
-658,159	800,000	-0,023	-0,059
-657,145	26,462	0,048	-0,030
-656,130	-200,000	0,029	-0,097
-655,116	-152,044	0,020	-0,001
-654,101	368,218	0,055	-0,083
-653,086	260,120	0,015	-0,020
-652,072	-200,000	0,022	-0,189
-651,057	-110,061	-0,141	0,022
-650,043	-144,025	-0,047	0,003
-649,028	-104,322	0,100	-0,017
-648,014	-62,771	-0,140	0,043
-646,999	-38,762	0,009	-0,004
-645,984	89,457	0,035	-0,029
-644,970	303,051	-0,092	0,126
-643,955	38,600	-0,123	-0,081
-642,941	50,581	-0,081	-0,057
-641,926	-147,555	-0,153	0,009
-640,911	-200,000	-0,008	0,079
-639,897	-72,813	0,127	0,034
-638,882	137,688	-0,043	-0,042
-637,868	-118,729	0,050	0,006
-636,853	145,024	-0,075	-0,074
-635,838	-20,996	-0,209	-0,094
-634,824	774,358	-0,033	0,067
-633,809	800,000	0,048	0,132
-632,795	-51,884	-0,037	-0,013
-631,780	-200,000	-0,003	0,036
-630,765	282,513	-0,051	-0,068
-629,751	73,417	0,023	-0,018
-628,736	-200,000	-0,012	-0,091
-627,722	-200,000	-0,001	-0,072
-626,707	-200,000	-0,036	0,171
-625,692	556,500	-0,017	0,031
-624,678	-200,000	0,031	-0,117
-623,663	71,263	-0,066	0,051
-622,649	16,055	-0,147	-0,085
-621,634	-163,698	0,085	0,003
-620,619	81,223	-0,064	-0,052
-619,605	78,153	-0,088	-0,069
-618,590	730,161	0,020	0,041
-617,576	22,436	0,021	0,013
-616,561	-200,000	0,015	0,063
-615,546	-119,234	-0,074	0,009
-614,532	542,247	-0,080	-0,142
-613,517	552,058	0,007	-0,012
-612,503	800,000	0,034	0,097
-611,488	8,544	0,192	0,107
-610,474	-116,220	0,117	0,016
-609,459	800,000	0,017	-0,052
-608,444	547,740	0,053	0,094
-607,430	384,859	-0,124	0,190
-606,415	-200,000	-0,015	-0,081
-605,401	800,000	0,017	0,045
-604,386	89,043	-0,059	0,049
-603,371	-17,291	0,108	-0,050
-602,357	15,409	-0,046	0,027
-601,342	203,868	0,025	0,029
-600,328	470,546	-0,088	-0,146
-599,313	260,471	0,057	-0,073
-598,298	64,473	-0,043	0,032
-597,284	-200,000	-0,008	0,026
-596,269	9,764	0,079	-0,044
-595,255	297,545	-0,086	0,117
-594,240	-11,039	-0,132	0,064
-593,225	800,000	-0,050	-0,146
-592,211	-5,168	-0,062	0,031
-591,196	-79,578	-0,095	0,024
-590,182	-100,509	0,015	0,003
-589,167	800,000	0,017	0,038
-588,152	599,185	0,028	-0,051
-587,138	-79,260	-0,110	-0,027
-586,123	-200,000	0,050	-0,183
-585,109	344,729	-0,066	-0,096
-584,094	-16,962	0,057	0,027
-583,079	-200,000	-0,017	0,101
-582,065	800,000	0,016	0,040
-581,050	-200,000	0,006	0,117
-580,036	-200,000	0,019	-0,093
-579,021	-200,000	0,017	-0,097
-578,006	-166,587	-0,083	-0,002
-576,992	-200,000	0,003	-0,028
-575,977	-53,362	0,066	-0,022
-574,963	-200,000	0,015	-0,164
-573,948	800,000	0,025	-0,059
-572,934	-168,652	0,208	0,006
-571,919	67,290	0,021	-0,016
-570,904	800,000	-0,003	0,008
-569,890	-47,077	-0,079	-0,028
-568,875	107,346	0,060	-0,053
-567,861	616,876	-0,031	0,057
-566,846	-1,349	-0,012	0,006
-565,831	-17,783	0,033	-0,015
-564,817	0,616	-0,121	-0,064
-563,802	279,849	-0,099	-0,131
-562,788	-177,279	0,048	0,001
-561,773	249,100	-0,012	0,016
-560,758	-1,545	0,087	0,045
-559,744	158,909	-0,110	0,113
-558,729	-200,000	-0,018	0,065
-557,715	-200,000	0,013	-0,054
-556,700	-200,000	0,004	0,082
-555,685	-200,000	0,003	0,127
-554,671	33,809	-0,019	0,012
-553,656	-200,000	0,034	0,205
-552,642	400,171	0,075	0,117
-551,627	56,684	-0,024	0,017
-550,612	91,790	0,035	0,029
-549,598	344,662	-0,048	0,070
-548,583	-13,117	-0,074	-0,035
-547,569	-52,279	0,090	-0,031
-546,554	-131,651	0,091	0,009
-545,539	620,956	0,082	0,152
-544,525	238,036	-0,105	0,129
-543,510	-200,000	0,003	-0,019
-542,496	-108,787	0,146	0,023
-541,481	800,000	-0,013	0,042
-540,466	-200,000	0,004	-0,044
-539,452	59,517	-0,063	-0,046
-538,437	1,682	0,077	0,041
-537,423	660,840	0,023	-0,044
-536,408	348,924	-0,054	-0,079
-535,393	11,941	-0,125	0,071
-534,379	-200,000	-0,007	-0,024
-533,364	-200,000	-0,015	0,119
-532,350	11,061	0,077	0,043
-531,335	101,449	-0,041	0,036
-530,321	120,999	0,051	0,047
-529,306	800,000	-0,054	0,130
-528,291	-200,000	-0,003	0,012
-527,277	12,756	-0,042	0,024
-526,262	559,389	0,007	-0,012
-525,248	-200,000	0,001	0,048
-524,233	-16,126	0,009	-0,004
-523,218	42,114	0,043	0,029
-522,204	-97,496	0,112	-0,021
-521,189	-46,842	0,056	-0,020
-520,175	-200,000	-0,013	-0,081
-519,160	-200,000	-0,035	-0,115
-518,145	182,514	0,056	-0,061
-517,131	-200,000	-0,034	0,146
-516,116	-16,763	-0,111	0,052
-515,102	-200,000	0,016	-0,125
-514,087	-19,690	0,083	0,038
-513,072	-4,341	-0,098	-0,050
-512,058	2,909	0,074	-0,039
-511,043	310,132	0,069	-0,095
-510,029	159,309	0,070	-0,072
-509,014	-103,137	0,056	0,010
-507,999	104,443	0,128	-0,111
-506,985	-200,000	0,001	0,033
-505,970	-37,942	-0,032	-0,013
-504,956	-121,249	0,059	-0,007
-503,941	800,000	-0,042	-0,127
-502,926	-96,439	0,089	-0,017
-501,912	12,466	-0,053	-0,030
-500,897	-40,814	-0,081	-0,031
-499,883	-34,443	-0,107	-0,043
-498,868	41,586	0,106	0,071
-497,853	173,596	-0,062	-0,066
-496,839	133,303	0,043	-0,041
-495,824	30,719	-0,025	-0,016
-494,810	64,860	0,077	0,057
-493,795	280,290	-0,060	0,079
-492,781	-80,382	0,063	-0,015
-491,766	245,077	0,038	0,047
-490,751	473,351	0,043	0,071
-489,737	45,859	-0,116	-0,079
-488,722	526,411	0,001	-0,002
-487,708	-129,054	-0,068	0,007
-486,693	540,811	-0,022	0,039
-485,678	261,186	-0,064	0,082
-484,664	800,000	0,026	0,056
-483,649	28,709	-0,034	0,021
-482,635	-200,000	0,005	0,139
-481,620	235,590	0,077	-0,094
-480,605	-170,280	0,081	-0,002
-479,591	78,822	0,077	-0,060
-478,576	12,540	0,042	0,024
-477,562	10,510	0,111	0,062
-476,547	800,000	0,040	-0,100
-475,532	354,758	-0,049	-0,072
-474,518	-3,005	0,093	-0,048
-473,503	4,150	0,011	-0,006
-472,489	-200,000	0,045	0,169
-471,474	800,000	-0,040	0,101
-470,459	-129,875	0,092	-0,009
-469,445	-161,143	-0,009	-0,000
-468,430	800,000	-0,037	-0,076
-467,416	753,293	0,040	0,079
-466,401	-200,000	-0,001	-0,065
-465,386	-200,000	-0,010	0,052
-464,372	279,671	-0,092	0,121
-463,357	356,418	-0,070	-0,103
-462,343	800,000	0,024	-0,054
-461,328	800,000	-0,046	-0,106
-460,313	-200,000	-0,005	0,046
-459,299	800,000	0,060	0,127
-458,284	-16,597	-0,060	0,028
-457,270	-93,397	-0,034	-0,007
-456,255	130,728	-0,051	-0,048
-455,241	22,041	-0,079	0,047
-454,226	-93,086	0,012	-0,002
-453,211	710,323	0,018	-0,035
-452,197	-200,000	0,006	0,064
-451,182	-64,663	-0,032	-0,009
-450,168	-5,051	-0,103	0,052
-449,153	-105,299	0,016	0,003
-448,138	187,396	0,108	-0,119
-447,124	-54,676	0,105	0,035
-446,109	774,246	0,037	0,074
-445,095	-190,055	0,013	-0,000
-444,080	-40,612	0,014	0,005
-443,065	-200,000	0,010	0,042
-442,051	651,067	-0,047	0,090
-441,036	11,186	-0,052	-0,029
-440,022	-49,657	-0,178	-0,062
-439,007	173,241	0,116	-0,123
-437,992	-7,938	0,112	-0,056
-436,978	-89,457	0,044	-0,009
-435,963	-36,043	-0,215	-0,085
-434,949	-126,591	0,066	-0,007
-433,934	-147,046	-0,075	0,005
-432,919	30,904	-0,081	0,051
-431,905	213,554	-0,046	0,054
-430,890	-90,319	0,104	0,022
-429,876	-10,558	0,049	-0,024
-428,861	258,876	-0,094	0,120
-427,846	347,524	-0,022	-0,032
-426,832	800,000	0,009	-0,027
-425,817	-200,000	0,036	-0,139
-424,803	-43,984	0,071	0,026
-423,788	-32,452	-0,047	-0,019
-422,773	-101,670	-0,133	0,023
-421,759	425,800	-0,085	0,135
-420,744	-116,566	-0,040	0,005
-419,730	27,761	-0,113	0,070
-418,715	170,105	-0,055	-0,058
-417,701	-40,336	0,074	-0,028
-416,686	-200,000	-0,009	0,070
-415,671	-200,000	0,002	0,029
-414,657	112,033	0,116	-0,103
-413,642	456,863	-0,052	0,085
-412,628	250,086	-0,027	-0,034
-411,613	-14,976	-0,034	-0,016
-410,598	95,927	-0,025	0,021
-409,584	44,472	-0,118	0,080
-408,569	184,445	0,056	0,061
-407,555	-30,380	0,199	0,082
-406,540	512,665	-0,021	0,036
-405,525	98,719	0,075	0,064
-404,511	-10,728	0,046	-0,022
-403,496	800,000	0,009	0,024
-402,482	-20,268	-0,182	0,082
-401,467	800,000	0,015	0,037
-400,452	275,083	0,005	0,007
-399,438	-200,000	-0,003	0,060
-398,423	16,586	0,082	-0,048
-397,409	68,891	0,058	-0,044
-396,394	800,000	0,025	0,077
-395,379	148,723	-0,054	-0,054
-394,365	23,911	-0,052	0,031
-393,350	800,000	0,013	0,036
-392,336	-29,212	0,100	0,042
-391,321	-200,000	-0,039	-0,143
-390,306	709,137	-0,034	-0,067
-389,292	-200,000	-0,050	-0,166
-388,277	278,068	0,064	-0,084
-387,263	347,081	-0,050	-0,072
-386,248	-61,331	-0,050	0,015
-385,233	686,110	-0,050	0,096
-384,219	512,371	0,018	0,031
-383,204	-200,000	-0,015	-0,183
-382,190	-200,000	0,031	-0,160
-381,175	-200,000	0,014	-0,135
-380,160	800,000	0,030	0,089
-379,146	-200,000	0,010	0,133
-378,131	-200,000	0,006	0,091
-377,117	-158,966	-0,151	-0,006
-376,102	213,856	-0,066	-0,077
-375,088	800,000	0,039	-0,105
-374,073	174,354	-0,097	0,103
-373,058	-143,072	0,116	0,008
-372,044	30,150	-0,130	0,081
-371,029	800,000	0,010	0,021
-370,015	188,914	-0,073	-0,080
-369,000	278,029	0,006	0,008
-367,985	-200,000	-0,035	-0,151
-366,971	278,296	-0,048	0,063
-365,956	-124,932	0,153	0,017
-364,942	406,020	0,028	0,043
-363,927	-200,000	0,032	0,201
-362,912	-200,000	0,017	-0,056
-361,898	551,983	-0,077	-0,137
-360,883	-200,000	-0,007	0,056
-359,869	800,000	0,027	-0,075
-358,854	-116,284	-0,198	0,027
-357,839	257,137	-0,033	-0,041
-356,825	800,000	-0,019	0,053
-355,810	256,137	-0,067	0,085
-354,796	-12,258	0,053	0,025
-353,781	-122,032	-0,071	0,008
-352,766	-200,000	-0,003	-0,044
-351,752	-200,000	-0,035	-0,140
-350,737	-200,000	-0,005	-0,086
-349,723	-200,000	0,001	0,159
-348,708	-156,850	0,078	0,003
-347,693	-200,000	-0,003	-0,018
-346,679	-0,720	-0,070	0,036
-345,664	800,000	-0,016	0,035
-344,650	-200,000	0,006	0,102
-343,635	-200,000	-0,014	-0,081
-342,620	44,307	-0,050	0,033
-341,606	527,057	0,017	0,030
-340,591	56,431	0,095	0,068
-339,577	-65,576	-0,051	-0,015
-338,562	-138,712	-0,089	0,007
-337,548	281,390	-0,033	-0,044
-336,533	127,301	-0,018	-0,016
-335,518	360,642	0,007	-0,011
-334,504	544,015	0,031	0,055
-333,489	670,480	0,048	-0,092
-332,475	-137,551	0,132	0,011
-331,460	-68,052	0,077	-0,022
-330,445	800,000	-0,032	-0,092
-329,431	-200,000	-0,000	0,084
-328,416	19,089	-0,029	0,017
-327,402	444,216	0,069	0,111
-326,387	800,000	-0,020	0,043
-325,372	800,000	-0,062	0,129
-324,358	-5,606	0,040	0,020
-323,343	-123,483	-0,118	-0,014
-322,329	-105,736	0,112	0,018
-321,314	-200,000	0,017	-0,058
-320,299	-200,000	0,002	0,093
-319,285	41,893	-0,085	0,057
-318,270	47,263	-0,092	-0,063
-317,256	37,575	-0,043	0,028
-316,241	-22,364	0,123	-0,055
-315,226	544,433	-0,050	-0,087
-314,212	5,356	-0,098	-0,053
-313,197	-164,582	-0,043	0,001
-312,183	445,730	0,068	0,110
-311,168	-200,000	-0,002	0,037
-310,153	800,000	0,057	0,154
-309,139	-46,088	-0,051	-0,018
-308,124	205,284	0,033	0,038
-307,110	800,000	-0,044	-0,094
-306,095	-53,707	-0,023	0,008
-305,080	442,376	-0,038	0,061
-304,066	800,000	-0,021	-0,048
-303,051	-200,000	0,035	-0,140
-302,037	800,000	0,023	0,059
-301,022	-43,245	0,104	-0,038
-300,008	-39,459	-0,117	-0,045
-298,993	800,000	0,017	-0,047
-297,978	622,394	-0,026	-0,048
-296,964	291,710	0,062	0,083
-295,949	-150,937	0,034	0,002
-294,935	-64,855	-0,165	-0,049
-293,920	-200,000	-0,009	-0,076
-292,905	346,984	0,080	-0,115
-291,891	-36,520	0,134	0,052
-290,876	274,898	-0,099	0,128
-289,862	-86,716	-0,071	0,016
-288,847	37,316	0,111	0,072
-287,832	-53,075	0,055	0,018
-286,818	-168,165	0,074	0,002
-285,803	-93,712	0,052	-0,010
-284,789	800,000	0,050	-0,121
-283,774	-200,000	-0,005	-0,153
-282,759	800,000	-0,025	0,053
-281,745	-200,000	-0,019	-0,061
-280,730	-43,386	-0,065	-0,024
-279,716	-136,337	0,136	-0,011
-278,701	-200,000	-0,019	-0,081
-277,686	597,714	0,014	0,026
-276,672	60,145	-0,039	-0,028
-275,657	200,313	0,034	-0,039
-274,643	25,979	-0,057	-0,034
-273,628	4,885	-0,045	-0,024
-272,613	-20,828	0,120	-0,054
-271,599	-29,085	0,015	-0,006
-270,584	-104,054	-0,063	0,011
-269,570	-187,511	-0,011	0,000
-268,555	486,055	-0,027	-0,045
-267,540	155,239	0,115	-0,115
-266,526	61,954	0,093	-0,068
-265,511	212,135	-0,062	-0,072
-264,497	-200,000	0,026	0,102
-263,482	709,151	-0,020	0,039
-262,467	-90,230	0,044	-0,009
-261,453	353,180	-0,002	-0,002
-260,438	167,974	-0,085	-0,088
-259,424	-83,381	-0,174	0,040
-258,409	-200,000	-0,004	-0,025
-257,395	-126,626	-0,105	-0,011
-256,380	800,000	0,020	-0,050
-255,365	354,902	-0,044	0,065
-254,351	-107,285	0,046	-0,007
-253,336	0,651	0,055	0,029
-252,322	-200,000	-0,011	-0,060
-251,307	13,369	-0,008	0,004
-250,292	-107,025	0,059	-0,009
-249,278	-52,977	-0,016	0,005
-248,263	315,342	0,053	-0,073
-247,249	255,973	0,012	0,015
-246,234	-13,934	0,121	0,057
-245,219	-200,000	0,004	-0,047
-244,205	-110,345	-0,091	-0,014
-243,190	-157,706	0,126	0,005
-242,176	29,503	0,153	0,094
-241,161	-11,017	0,096	0,046
-240,146	-200,000	-0,002	0,027
-239,132	-200,000	0,004	-0,108
-238,117	-72,048	0,150	-0,040
-237,103	-200,000	-0,039	-0,202
-236,088	464,919	-0,063	-0,103
-235,073	-127,757	0,083	0,009
-234,059	226,323	0,122	0,145
-233,044	-135,039	-0,040	-0,003
-232,030	387,117	0,035	-0,052
-231,015	6,544	0,055	-0,030
-230,000	41,221	-0,078	0,051
-228,986	-200,000	0,001	-0,130
-227,971	-200,000	0,039	-0,181
-226,957	800,000	-0,038	-0,090
-225,942	485,630	-0,078	0,130
-224,927	400,889	-0,046	0,070
-223,913	669,117	-0,065	-0,124
-222,898	500,941	-0,069	-0,116
-221,884	-19,037	0,058	0,026
-220,869	258,920	0,031	-0,038
-219,855	125,048	0,078	0,072
-218,840	-24,345	-0,106	-0,046
-217,825	50,135	0,086	-0,059
-216,811	-30,781	0,020	0,008
-215,796	800,000	-0,026	-0,061
-214,782	48,803	0,105	0,072
-213,767	800,000	0,023	0,053
-212,752	442,277	0,023	0,037
-211,738	79,615	-0,104	0,082
-210,723	200,784	-0,019	0,021
-209,709	-200,000	-0,023	-0,085
-208,694	-200,000	0,005	-0,060
-207,679	-200,000	0,022	0,123
-206,665	96,527	0,043	0,036
-205,650	-200,000	0,002	0,152
-204,636	94,795	0,104	0,086
-203,621	646,141	-0,075	0,141
-202,606	-19,130	-0,034	0,015
-201,592	236,713	0,112	0,135
-200,577	-84,396	0,060	-0,014
-199,563	-200,000	-0,022	-0,105
-198,548	-200,000	0,026	0,168
-197,533	-123,837	0,030	0,003
-196,519	800,000	-0,061	-0,141
-195,504	451,256	0,016	0,026
-194,490	414,256	-0,025	-0,038
-193,475	347,448	0,107	-0,153
-192,460	47,167	-0,058	0,039
-191,446	18,468	0,036	0,021
-190,431	-118,376	0,142	0,018
-189,417	-200,000	0,011	0,065
-188,402	241,855	0,048	-0,059
-187,387	659,123	-0,039	-0,073
-186,373	637,568	0,083	-0,154
-185,358	-200,000	0,008	-0,103
-184,344	397,816	0,056	0,085
-183,329	-200,000	0,026	0,107
-182,315	800,000	-0,018	-0,044
-181,300	213,279	-0,074	0,085
-180,285	623,017	0,094	-0,174
-179,271	-183,999	0,045	0,001
-178,256	800,000	0,061	-0,138
-177,242	800,000	-0,029	-0,063
-176,227	39,500	0,167	0,109
-175,212	29,732	-0,137	0,085
-174,198	169,671	-0,048	0,050
-173,183	800,000	0,019	-0,054
-172,169	-200,000	-0,017	0,096
-171,154	-162,179	-0,051	0,002
-170,139	-200,000	0,019	0,071
-169,125	261,033	0,076	0,096
-168,110	-89,563	0,103	-0,022
-167,096	800,000	0,027	0,064
-166,081	-200,000	0,003	0,052
-165,066	-200,000	-0,017	0,081
-164,052	109,600	-0,070	-0,061
-163,037	-200,000	-0,021	-0,118
-162,023	283,448	-0,067	0,087
-161,008	-155,864	0,017	-0,001
-159,993	-105,907	0,029	0,005
-158,979	717,938	-0,037	0,071
-157,964	-94,321	-0,104	-0,020
-156,950	35,098	0,049	-0,031
-155,935	800,000	0,032	-0,069
-154,920	-200,000	0,001	0,031
-153,906	-121,692	0,121	-0,014
-152,891	24,960	0,036	-0,021
-151,877	-200,000	0,016	-0,162
-150,862	800,000	-0,035	-0,110
-149,847	800,000	0,034	0,076
-148,833	-98,981	0,108	-0,020
-147,818	800,000	0,060	0,151
-146,804	95,947	0,069	0,057
-145,789	129,259	0,040	-0,037
-144,775	-111,694	0,110	-0,016
-143,760	-15,548	0,054	-0,025
-142,745	-132,446	0,228	-0,021
-141,731	-121,287	-0,011	0,001
-140,716	-23,132	-0,058	-0,025
-139,702	53,045	0,071	0,049
-138,687	-200,000	0,005	0,038
-137,672	88,267	-0,132	0,107
-136,658	44,659	0,042	-0,028
-135,643	800,000	-0,044	0,101
-134,629	-33,852	0,109	0,043
-133,614	-132,464	-0,060	0,005
-132,599	491,580	0,068	0,114
-131,585	-200,000	0,014	0,199
-130,570	148,851	0,133	-0,131
-129,556	-200,000	-0,038	-0,161
-128,541	-200,000	-0,008	0,069
-127,526	113,601	-0,070	-0,062
-126,512	19,431	0,062	0,036
-125,497	529,356	-0,059	0,101
-124,483	-46,154	0,076	0,027
-123,468	-115,338	0,095	-0,013
-122,453	-200,000	-0,005	-0,104
-121,439	442,295	-0,057	-0,091
-120,424	-68,650	-0,070	0,019
-119,410	-159,696	0,057	0,002
-118,395	800,000	0,050	0,107
-117,380	-200,000	-0,053	0,189
-116,366	-29,326	-0,034	0,014
-115,351	646,898	0,032	-0,059
-114,337	-145,633	-0,062	0,004
-113,322	-162,769	0,025	-0,001
-112,307	800,000	-0,036	0,099
-111,293	371,525	-0,049	0,073
-110,278	-200,000	-0,001	0,076
-109,264	-23,130	0,045	0,020
-108,249	-127,858	0,088	0,009
-107,234	298,904	-0,051	-0,069
-106,220	-127,322	0,169	0,018
-105,205	35,669	0,145	0,092
-104,191	-200,000	0,016	-0,065
-103,176	42,475	-0,096	-0,064
-102,162	-200,000	0,017	-0,104
-101,147	69,685	0,081	0,061
-100,132	-140,242	0,212	0,016
-99,118	-137,372	-0,124	0,010
-98,103	205,357	-0,096	0,108
-97,089	-6,248	-0,187	-0,092
-96,074	223,186	0,096	-0,112
-95,059	-125,821	0,062	-0,007
-94,045	289,992	0,044	-0,058
-93,030	38,630	0,098	0,063
-92,016	-200,000	0,003	0,119
-91,001	14,293	0,120	0,068
-89,986	800,000	0,063	0,128
-88,972	41,775	0,089	-0,058
-87,957	-200,000	0,019	-0,074
-86,943	50,365	0,036	-0,025
-85,928	129,003	-0,158	-0,146
-84,913	130,430	-0,149	-0,138
-83,899	-124,348	-0,058	0,006
-82,884	-167,797	0,104	0,003
-81,870	-200,000	0,003	0,104
-80,855	800,000	-0,026	-0,076
-79,840	-200,000	-0,010	-0,101
-78,826	800,000	-0,045	-0,111
-77,811	-200,000	-0,006	0,043
-76,797	743,624	-0,021	-0,042
-75,782	-200,000	-0,004	-0,022
-74,767	-22,505	-0,078	-0,034
-73,753	-200,000	0,012	0,042
-72,738	-103,855	0,091	-0,015
-71,724	71,790	0,120	0,090
-70,709	-10,326	-0,080	0,038
-69,694	800,000	0,041	-0,087
-68,680	135,218	0,018	-0,017
-67,665	-33,540	0,081	0,032
-66,651	201,118	0,077	0,086
-65,636	302,389	-0,045	-0,061
-64,622	337,487	-0,068	-0,095
-63,607	60,872	-0,087	-0,062
-62,592	61,253	-0,031	0,022
-61,578	432,185	-0,017	0,027
-60,563	-17,787	0,179	0,081
-59,549	-200,000	-0,003	0,093
-58,534	-179,263	-1,271	0,020
-57,519	510,311	-0,908	-1,536
-56,505	-200,000	-0,786	-4,279
-55,490	-5,464	0,476	-0,236
-54,476	800,000	4,777	11,576
-53,461	-200,000	13,474	250,833
-52,446	-200,000	687,009	2256,524
-51,432	599,155	1618,180	2921,237
-50,417	120,534	1632,034	1469,263
-49,403	74,710	1286,943	980,324
-48,388	38,574	1022,589	659,550
-47,373	24,514	980,607	586,373
-46,359	23,798	970,128	577,742
-45,344	22,779	966,036	571,961
-44,330	22,752	964,255	570,798
-43,315	22,675	962,931	569,741
-42,300	22,637	961,993	569,038
-41,286	22,605	961,054	568,358
-40,271	22,635	960,166	567,908
-39,257	22,608	959,218	567,238
-38,242	22,594	958,136	566,528
-37,227	22,571	957,445	566,023
-36,213	22,566	956,490	565,421
-35,198	22,525	955,820	564,869
-34,184	22,565	955,125	564,566
-33,169	22,560	954,158	563,956
-32,154	22,596	953,221	563,495
-31,140	22,531	952,333	562,738
-30,125	22,634	951,635	562,636
-29,111	22,645	950,777	562,140
-28,096	22,674	949,965	561,732
-27,082	22,610	949,456	561,204
-26,067	22,640	948,471	560,694
-25,052	22,585	947,990	560,212
-24,038	22,661	947,141	559,930
-23,023	22,610	946,627	559,442
-22,009	22,686	946,044	559,317
-20,994	22,664	945,369	558,825
-19,979	22,671	944,702	558,430
-18,965	22,681	944,068	558,067
-17,950	22,612	943,439	557,454
-16,936	22,539	942,706	556,765
-15,921	22,541	942,038	556,355
-14,906	22,483	941,526	555,848
-13,892	22,432	940,891	555,287
-12,877	22,480	940,154	554,982
-11,863	22,461	939,453	554,487
-10,848	22,441	939,155	554,226
-9,833	22,611	938,422	554,311
-8,819	22,564	937,905	553,835
-7,804	22,556	937,054	553,284
-6,790	22,466	936,637	552,730
-5,775	22,538	935,986	552,554
-4,760	22,508	935,441	552,114
-3,746	22,512	934,808	551,730
-2,731	22,337	934,225	550,814
-1,717	22,356	933,439	550,389
-0,702	22,390	932,613	549,987
0,313	22,151	932,020	549,718
1,327	24,610	929,620	555,958
2,342	32,432	808,449	504,647
3,356	28,025	508,656	309,984
4,371	4,164	372,969	197,067
5,386	1,263	355,874	184,473
6,400	-0,210	349,523	179,395
7,415	-1,379	346,792	176,582
8,429	-1,520	345,086	175,531
9,444	-1,576	344,331	175,065
10,459	-1,481	343,538	174,758
11,473	-1,576	342,939	174,326
12,488	-1,157	342,590	174,627
13,502	-1,165	342,063	174,333
14,517	-1,384	341,407	173,725
15,531	-1,748	340,834	172,992
16,546	-1,615	340,391	172,908
17,561	-1,648	339,820	172,564
18,575	-1,652	339,475	172,369
19,590	-1,691	339,132	172,133
20,604	-1,570	338,685	172,033
21,619	-1,634	338,344	171,769
22,634	-1,713	338,080	171,528
23,648	-1,797	337,688	171,216
24,663	-1,837	337,335	170,976
25,677	-1,705	337,157	171,023
26,692	-1,843	336,803	170,668
27,707	-1,679	336,385	170,631
28,721	-1,826	336,129	170,316
29,736	-1,782	335,769	170,170
30,750	-1,810	335,619	170,046
31,765	-1,803	335,291	169,872
32,780	-1,829	334,906	169,633
33,794	-1,741	334,751	169,640
34,809	-1,805	334,386	169,366
35,823	-1,705	334,107	169,325
36,838	-1,811	333,875	169,071
37,853	-1,767	333,568	168,950
38,867	-1,848	333,321	168,717
39,882	-1,880	332,927	168,467
40,896	-1,830	332,830	168,460
41,911	-1,783	332,395	168,279
42,926	-1,893	332,129	168,003
43,940	-1,862	331,847	167,881
44,955	-1,881	331,654	167,747
45,969	-1,989	331,538	167,550
46,984	-2,143	331,119	167,148
47,999	-2,379	330,734	166,672
49,013	-2,338	330,344	166,507
50,028	-2,403	330,181	166,336
51,042	-2,494	329,727	165,989
52,057	-2,554	329,625	165,856
53,071	-2,597	329,396	165,677
54,086	-2,451	329,044	165,650
55,101	-2,280	328,917	165,764
56,115	-2,098	328,704	165,847
57,130	-1,744	328,739	166,249
58,144	-1,563	328,259	166,195
59,159	-1,694	328,235	166,020
60,174	-1,503	327,865	166,034
61,188	-1,562	327,777	165,907
62,203	-1,756	327,423	165,495
63,217	-1,634	327,089	165,449
64,232	-1,720	327,044	165,315
65,247	-1,588	326,775	165,313
66,261	-1,548	326,369	165,136
67,276	-1,803	325,940	164,620
68,290	-2,181	325,747	164,087
69,305	-2,059	325,401	164,033
70,320	-2,177	325,259	163,816
71,334	-1,802	325,004	164,090
72,349	-1,529	324,967	164,360
73,363	-1,482	324,581	164,203
74,378	-1,733	324,410	163,824
75,393	-1,590	324,044	163,782
76,407	-1,604	323,931	163,695
77,422	-1,514	323,622	163,623
78,436	-1,459	323,211	163,463
79,451	-1,361	323,006	163,452
80,466	-1,707	322,682	162,891
81,480	-1,826	322,414	162,610
82,495	-2,034	322,233	162,276
83,509	-1,855	322,009	162,346
84,524	-1,970	321,732	162,065
85,539	-2,155	321,621	161,791
86,553	-2,126	321,192	161,593
87,568	-2,059	321,007	161,559
88,582	-2,021	320,713	161,438
89,597	-1,895	320,528	161,469
90,611	-1,850	320,360	161,419
91,626	-1,724	320,113	161,417
92,641	-1,614	319,996	161,465
93,655	-1,681	319,516	161,135
94,670	-1,828	319,372	160,887
95,684	-1,931	319,260	160,705
96,699	-1,833	318,993	160,663
97,714	-1,876	318,722	160,465
98,728	-2,097	318,604	160,150
99,743	-2,049	318,219	159,995
100,757	-2,043	317,960	159,857
101,772	-2,016	317,762	159,773
102,787	-2,041	317,582	159,641
103,801	-1,916	317,326	159,633
104,816	-1,807	317,200	159,674
105,830	-1,718	316,982	159,647
106,845	-1,805	316,745	159,418
107,860	-1,663	316,485	159,427
108,874	-1,623	316,165	159,294
109,889	-1,789	316,144	159,091
110,903	-1,990	315,802	158,687
111,918	-1,826	315,515	158,705
112,933	-1,882	315,480	158,613
113,947	-1,614	315,016	158,654
114,962	-1,562	314,764	158,569
115,976	-1,656	314,810	158,478
116,991	-1,676	314,513	158,292
118,006	-1,783	314,235	158,023
119,020	-1,780	314,164	157,977
120,035	-1,721	314,033	157,960
121,049	-1,567	313,711	157,948
122,064	-1,637	313,572	157,790
123,079	-1,659	313,218	157,574
124,093	-1,649	312,963	157,443
125,108	-1,859	312,758	157,101
126,122	-2,126	312,300	156,573
127,137	-2,246	312,182	156,373
128,151	-2,065	311,871	156,395
129,166	-2,028	311,833	156,402
130,181	-2,076	311,543	156,191
131,195	-2,115	311,222	155,975
132,210	-2,025	311,178	156,034
133,224	-1,747	310,971	156,211
134,239	-1,746	310,648	156,036
135,254	-1,686	310,507	156,014
136,268	-1,805	310,107	155,674
137,283	-1,930	309,862	155,406
138,297	-2,127	309,566	155,035
139,312	-2,188	309,422	154,885
140,327	-1,709	309,298	155,314
141,341	-1,587	309,296	155,427
142,356	-1,478	309,173	155,466
143,370	-1,362	308,909	155,441
144,385	-1,309	308,683	155,369
145,400	-1,403	308,410	155,120
146,414	-1,449	308,254	154,979
147,429	-1,420	308,234	154,986
148,443	-1,260	307,886	154,964
149,458	-1,352	307,763	154,792
150,473	-1,314	307,446	154,658
151,487	-1,362	307,129	154,435
152,502	-1,487	307,097	154,275
153,516	-1,436	306,739	154,135
154,531	-1,438	306,652	154,075
155,546	-1,401	306,313	153,929
156,560	-1,602	306,032	153,565
157,575	-1,646	305,841	153,410
158,589	-1,457	305,659	153,501
159,604	-1,201	305,330	153,588
160,619	-1,445	305,178	153,245
161,633	-1,495	304,968	153,074
162,648	-1,501	304,863	153,001
163,662	-1,555	304,714	152,857
164,677	-1,592	304,510	152,703
165,692	-1,308	304,289	152,871
166,706	-1,496	304,095	152,567
167,721	-1,506	303,844	152,417
168,735	-1,373	303,674	152,455
169,750	-1,563	303,798	152,308
170,764	-1,182	303,461	152,518
171,779	-1,152	303,176	152,391
172,794	-1,280	303,129	152,222
173,808	-1,441	302,793	151,875
174,823	-1,882	302,328	151,176
175,837	-1,981	302,106	150,950
176,852	-1,492	302,071	151,420
177,867	-1,225	301,982	151,636
178,881	-1,265	301,878	151,529
179,896	-1,189	301,668	151,488
180,910	-1,214	301,295	151,261
181,925	-1,218	301,139	151,166
182,940	-1,276	300,940	150,993
183,954	-1,393	300,990	150,885
184,969	-1,375	300,658	150,724
185,983	-1,447	300,327	150,471
186,998	-1,285	300,125	150,521
188,013	-1,387	299,804	150,243
189,027	-1,192	299,729	150,390
190,042	-1,111	299,439	150,313
191,056	-1,130	299,294	150,208
192,071	-1,043	299,158	150,214
193,086	-0,988	299,086	150,220
194,100	-1,192	298,870	149,892
195,115	-1,226	298,586	149,702
196,129	-1,378	298,401	149,442
197,144	-1,181	298,155	149,504
198,159	-1,136	298,046	149,481
199,173	-1,079	297,762	149,384
200,188	-1,019	297,715	149,407
201,202	-1,301	297,234	148,869
202,217	-1,773	296,821	148,175
203,232	-1,727	296,623	148,109
204,246	-1,554	296,682	148,299
205,261	-1,255	296,464	148,476
206,275	-1,133	296,391	148,549
207,290	-1,034	295,989	148,433
208,304	-1,191	295,927	148,232
209,319	-1,061	295,693	148,231
210,334	-1,259	295,569	147,958
211,348	-1,238	295,297	147,830
212,363	-1,152	295,128	147,818
213,377	-1,119	294,854	147,700
214,392	-1,125	294,721	147,614
215,407	-1,515	294,534	147,119
216,421	-1,511	294,207	146,947
217,436	-1,607	293,968	146,719
218,450	-1,573	293,893	146,703
219,465	-1,371	293,750	146,818
220,480	-1,264	293,673	146,873
221,494	-1,303	293,372	146,670
222,509	-1,427	293,235	146,466
223,523	-1,229	293,009	146,536
224,538	-1,286	292,934	146,429
225,553	-1,093	292,652	146,465
226,567	-1,080	292,477	146,378
227,582	-0,992	292,264	146,345
228,596	-1,070	292,247	146,247
229,611	-1,170	292,117	146,070
230,626	-1,185	291,945	145,956
231,640	-1,547	291,444	145,337
232,655	-2,020	290,970	144,622
233,669	-1,886	290,742	144,628
234,684	-1,956	290,697	144,524
235,699	-1,733	290,524	144,644
236,713	-1,701	290,367	144,585
237,728	-1,447	290,145	144,709
238,742	-1,376	290,125	144,756
239,757	-1,307	289,913	144,705
240,772	-1,239	289,843	144,723
241,786	-1,416	289,647	144,439
242,801	-1,465	289,262	144,187
243,815	-1,404	289,045	144,125
244,830	-1,422	289,043	144,094
245,844	-1,635	288,703	143,704
246,859	-1,429	288,512	143,796
247,874	-1,568	288,410	143,598
248,888	-1,415	288,208	143,634
249,903	-1,041	288,086	143,922
250,917	-1,161	288,141	143,821
251,932	-0,987	287,898	143,855
252,947	-0,445	287,979	144,409
253,961	-0,208	287,821	144,546
254,976	0,619	288,247	145,549
255,990	2,377	288,660	147,450
257,005	2,979	288,667	148,024
258,020	3,792	288,804	148,869
259,034	4,343	288,918	149,448
260,049	4,125	288,528	149,022
261,063	3,938	288,321	148,722
262,078	4,178	288,220	148,888
263,093	4,789	288,388	149,551
264,107	4,769	288,105	149,372
265,122	4,812	287,985	149,338
266,136	4,986	287,818	149,406
267,151	4,933	287,627	149,243
268,166	4,705	287,515	148,951
269,180	4,684	287,005	148,654
270,195	4,604	286,915	148,518
271,209	4,781	286,753	148,591
272,224	4,603	286,579	148,316
273,239	4,458	286,321	148,031
274,253	4,568	286,061	147,988
275,268	4,823	286,152	148,266
276,282	4,981	285,802	148,223
277,297	4,789	285,720	147,983
278,312	4,941	285,633	148,071
279,326	4,785	285,424	147,799
280,341	4,555	285,115	147,407
281,355	4,700	284,786	147,362
282,370	4,541	284,719	147,163
283,384	4,471	284,445	146,942
284,399	4,623	284,291	146,993
285,414	4,553	284,144	146,838
286,428	4,560	283,970	146,742
287,443	4,324	283,600	146,314
288,457	4,123	283,527	146,072
289,472	4,226	283,317	146,048
290,487	4,321	283,224	146,078
291,501	4,169	282,932	145,770
292,516	4,091	282,518	145,469
293,530	4,068	282,557	145,455
294,545	4,403	282,382	145,668
295,560	4,408	282,182	145,557
296,574	4,120	282,000	145,179
297,589	4,240	281,888	145,222
298,603	4,861	281,683	145,687
299,618	4,699	281,648	145,504
300,633	4,492	281,396	145,166
301,647	4,550	281,155	145,083
302,662	4,526	281,053	144,995
303,676	4,333	280,787	144,664
304,691	4,241	280,475	144,404
305,706	4,159	280,190	144,168
306,720	3,857	280,177	143,865
307,735	3,949	279,964	143,829
308,749	4,238	279,896	144,052
309,764	4,363	279,792	144,102
310,779	3,997	279,535	143,615
311,793	3,885	279,345	143,400
312,808	4,059	278,996	143,371
313,822	4,117	278,811	143,317
314,837	4,057	278,685	143,183
315,852	3,816	278,463	142,832
316,866	3,835	278,310	142,758
317,881	3,963	278,399	142,910
318,895	4,003	278,114	142,789
319,910	3,873	277,663	142,424
320,925	3,790	277,497	142,249
321,939	3,903	277,500	142,343
322,954	4,139	277,366	142,480
323,968	4,263	277,203	142,498
324,983	4,274	277,106	142,445
325,997	4,283	276,910	142,340
327,012	4,580	276,640	142,463
328,027	4,383	276,575	142,235
329,041	4,099	276,261	141,799
330,056	4,324	276,165	141,944
331,070	4,280	275,990	141,802
332,085	4,131	275,649	141,477
333,100	4,307	275,367	141,481
334,114	4,198	275,356	141,363
335,129	4,117	275,087	141,138
336,143	4,329	275,092	141,322
337,158	4,464	275,038	141,405
338,173	4,334	274,790	141,146
339,187	4,314	274,623	141,030
340,202	4,256	274,425	140,862
341,216	4,452	274,220	140,923
342,231	4,277	274,049	140,664
343,246	3,977	273,971	140,337
344,260	4,111	273,734	140,325
345,275	4,499	273,585	140,590
346,289	4,487	273,638	140,594
347,304	4,680	273,212	140,537
348,319	4,480	273,045	140,257
349,333	4,354	272,910	140,061
350,348	4,448	272,947	140,153
351,362	4,604	272,606	140,107
352,377	4,396	272,444	139,823
353,392	4,493	272,277	139,812
354,406	4,493	272,242	139,782
355,421	191,164	1331,153	1408,031
356,435	154,418	1460,267	1408,155
