DTS Sentinel unit serial number:	SN410029Multiplexer serial number:	ORYXHardware model number:	OX2-SRSoftware version number:	ORYX F/W v4,00 Oryx Data Collector v3.7.2.0data status	okinstallation	B4 Nyhavnadifferential loss correction	single-endedforward channel	channel 2reverse channel	N/Adate	2023/12/19time	10:15:13forward acquisition time	300,00reverse acquisition time	0,00gamma	499,1914k internal	0,3128k external	0,3128temperature offset calibration	1,0000default loss term (dB/km)	0,3820temperature slope calibration	1,0000multiplexer offset coefficient	1,0000multiplexer slope coefficient	1,0000fibre end	0,00T internal ref (°C)	20,16T ext. ref 1 (°C)	4,96T ext. ref 2 (°C)	4,90length (m)	temperature (°C)	Stokes	anti-Stokes-744,400	800,000	-0,020	0,056
-743,385	-57,361	-0,274	0,089
-742,371	-105,988	0,083	0,014
-741,356	79,723	-0,209	0,167
-740,342	-200,000	0,003	0,021
-739,327	-149,633	-0,244	-0,014
-738,312	800,000	0,068	-0,189
-737,298	78,337	-0,157	0,125
-736,283	-77,869	0,108	-0,028
-735,269	-47,692	-0,137	0,049
-734,254	356,451	0,046	0,068
-733,239	36,248	-0,438	-0,287
-732,225	-120,828	0,178	0,022
-731,210	-56,380	0,080	0,026
-730,196	-173,688	0,030	0,001
-729,181	-200,000	0,011	0,047
-728,167	-200,000	0,015	-0,149
-727,152	-80,368	-0,075	-0,018
-726,137	800,000	-0,020	-0,050
-725,123	-32,236	-0,223	0,092
-724,108	-97,001	0,035	-0,007
-723,094	-32,171	-0,223	-0,092
-722,079	-92,061	-0,084	0,017
-721,064	43,780	0,039	-0,026
-720,050	-200,000	0,010	-0,130
-719,035	-89,214	-0,103	-0,022
-718,021	767,587	-0,059	0,120
-717,006	318,508	0,033	-0,047
-715,991	0,357	-0,088	-0,046
-714,977	-200,000	-0,004	-0,105
-713,962	28,011	0,084	-0,053
-712,948	800,000	-0,039	-0,110
-711,933	-54,965	-0,076	-0,025
-710,918	-60,367	-0,057	-0,018
-709,904	-130,222	-0,159	-0,016
-708,889	464,089	0,043	-0,071
-707,875	40,766	-0,096	0,065
-706,860	65,797	0,054	0,040
-705,845	-200,000	-0,003	0,169
-704,831	-78,713	-0,047	0,012
-703,816	161,473	0,026	-0,027
-702,802	41,364	-0,084	-0,056
-701,787	30,151	0,192	-0,121
-700,772	556,954	0,038	-0,067
-699,758	608,838	0,010	0,019
-698,743	256,201	0,027	-0,034
-697,729	800,000	0,041	0,085
-696,714	800,000	0,016	-0,043
-695,699	273,245	-0,044	-0,057
-694,685	-200,000	0,010	0,039
-693,670	602,679	-0,058	-0,108
-692,656	-200,000	0,005	-0,077
-691,641	297,264	-0,029	0,040
-690,627	800,000	0,064	0,174
-689,612	14,807	-0,054	-0,031
-688,597	97,861	-0,047	-0,040
-687,583	136,903	-0,076	-0,074
-686,568	-145,495	0,053	-0,004
-685,554	208,904	-0,059	-0,068
-684,539	-200,000	0,000	0,007
-683,524	-32,164	0,044	0,018
-682,510	471,607	0,064	0,107
-681,495	-200,000	-0,009	0,040
-680,481	-93,526	-0,040	0,008
-679,466	800,000	-0,021	-0,046
-678,451	800,000	-0,042	0,119
-677,437	157,208	0,018	0,018
-676,422	-200,000	-0,018	-0,083
-675,408	-111,542	0,070	0,010
-674,393	-39,472	0,126	0,049
-673,378	-100,548	-0,119	0,022
-672,364	250,495	-0,107	-0,135
-671,349	25,542	-0,027	0,016
-670,335	-91,731	-0,155	0,032
-669,320	297,046	-0,040	0,054
-668,305	28,189	0,014	0,009
-667,291	800,000	-0,070	-0,204
-666,276	-4,362	0,083	-0,043
-665,262	52,428	-0,202	-0,143
-664,247	377,232	0,011	-0,016
-663,232	307,278	-0,050	0,069
-662,218	-34,426	-0,110	-0,044
-661,203	-5,509	-0,069	-0,035
-660,189	800,000	-0,037	-0,094
-659,174	122,806	-0,055	-0,051
-658,159	800,000	0,010	0,024
-657,145	128,819	0,041	-0,039
-656,130	26,591	0,046	-0,029
-655,116	-200,000	-0,014	0,063
-654,101	800,000	0,059	0,134
-653,086	-15,799	-0,029	-0,014
-652,072	-200,000	0,019	-0,091
-651,057	-27,904	-0,066	-0,028
-650,043	445,892	-0,075	-0,123
-649,028	97,302	0,054	0,046
-648,014	-41,609	0,128	-0,049
-646,999	800,000	0,060	-0,136
-645,984	-85,562	-0,257	0,059
-644,970	-84,520	0,099	0,023
-643,955	-150,541	-0,086	-0,005
-642,941	-200,000	-0,031	-0,160
-641,926	800,000	-0,022	-0,064
-640,911	762,452	-0,019	0,038
-639,897	-138,337	0,054	-0,004
-638,882	-179,658	-0,145	-0,002
-637,868	89,987	-0,043	-0,036
-636,853	-16,317	0,085	-0,040
-635,838	539,059	0,031	0,054
-634,824	-200,000	0,013	-0,126
-633,809	800,000	0,062	0,174
-632,795	35,956	-0,044	0,029
-631,780	47,184	0,023	-0,016
-630,765	-200,000	-0,010	0,056
-629,751	-34,876	-0,010	-0,004
-628,736	21,494	-0,190	-0,114
-627,722	770,147	0,011	-0,023
-626,707	-200,000	0,011	-0,102
-625,692	49,535	-0,074	0,051
-624,678	21,548	-0,108	-0,065
-623,663	305,890	0,006	-0,009
-622,649	-200,000	-0,036	-0,230
-621,634	-200,000	-0,029	0,094
-620,619	89,647	-0,048	-0,039
-619,605	800,000	0,018	0,044
-618,590	-85,935	0,028	0,006
-617,576	-200,000	-0,016	0,098
-616,561	43,989	-0,039	-0,026
-615,546	53,209	-0,128	-0,091
-614,532	243,099	-0,041	-0,050
-613,517	30,057	0,071	-0,045
-612,503	800,000	-0,032	-0,073
-611,488	-200,000	0,018	0,075
-610,474	-40,149	-0,109	-0,042
-609,459	277,044	-0,082	0,108
-608,444	170,800	0,087	-0,092
-607,430	-200,000	-0,019	-0,158
-606,415	-125,835	-0,031	0,003
-605,401	318,538	-0,037	0,053
-604,386	95,344	0,048	0,040
-603,371	-200,000	0,017	-0,107
-602,357	-200,000	0,023	-0,088
-601,342	-171,518	-0,061	-0,001
-600,328	34,412	-0,087	-0,056
-599,313	-165,625	0,067	0,002
-598,298	-34,913	0,106	0,043
-597,284	-200,000	0,003	-0,078
-596,269	92,359	-0,037	-0,031
-595,255	310,212	0,071	-0,099
-594,240	-200,000	0,006	-0,036
-593,225	508,452	-0,033	-0,058
-592,211	67,081	-0,049	0,037
-591,196	-80,391	0,209	0,051
-590,182	800,000	-0,065	-0,135
-589,167	-67,068	0,141	0,041
-588,152	-169,770	-0,075	-0,002
-587,138	-38,433	-0,030	-0,012
-586,123	-200,000	0,018	0,064
-585,109	-9,468	-0,145	0,071
-584,094	495,533	0,023	-0,039
-583,079	686,481	0,046	-0,090
-582,065	-200,000	-0,007	0,180
-581,050	449,527	0,063	0,103
-580,036	-108,486	0,146	-0,023
-579,021	614,311	-0,034	-0,063
-578,006	82,144	0,059	0,047
-576,992	15,873	-0,084	0,049
-575,977	131,568	-0,074	-0,071
-574,963	164,641	-0,112	0,117
-573,948	-200,000	0,002	0,105
-572,934	233,599	0,036	-0,044
-571,919	-200,000	-0,017	-0,067
-570,904	-200,000	-0,012	0,069
-569,890	139,538	0,014	-0,013
-568,875	53,030	0,125	-0,088
-567,861	181,940	0,038	0,041
-566,846	56,498	-0,050	0,036
-565,831	-200,000	-0,011	0,057
-564,817	800,000	0,056	-0,146
-563,802	800,000	0,053	-0,158
-562,788	221,130	-0,065	0,077
-561,773	-200,000	0,018	0,123
-560,758	447,396	-0,052	0,085
-559,744	-69,077	0,091	0,026
-558,729	-200,000	0,024	0,111
-557,715	153,340	-0,101	-0,102
-556,700	325,282	-0,059	-0,084
-555,685	800,000	-0,010	-0,024
-554,671	-59,360	0,141	-0,045
-553,656	-106,557	0,089	-0,014
-552,642	464,068	0,109	0,181
-551,627	112,243	-0,083	0,074
-550,612	-81,963	-0,043	-0,010
-549,598	-171,714	0,091	0,002
-548,583	-97,765	-0,063	-0,012
-547,569	431,898	-0,053	-0,085
-546,554	200,413	0,040	0,045
-545,539	128,082	-0,055	0,052
-544,525	51,160	-0,077	-0,054
-543,510	-200,000	-0,000	-0,092
-542,496	-200,000	0,006	0,027
-541,481	485,762	0,045	-0,077
-540,466	21,441	0,091	0,055
-539,452	421,217	-0,024	-0,039
-538,437	-200,000	-0,041	0,190
-537,423	216,966	-0,065	0,076
-536,408	800,000	-0,028	0,073
-535,393	69,529	-0,065	0,049
-534,379	-30,097	-0,020	0,008
-533,364	-200,000	0,000	-0,065
-532,350	-200,000	0,020	-0,076
-531,335	99,282	-0,070	0,059
-530,321	-57,952	-0,076	0,024
-529,306	-11,352	0,094	0,045
-528,291	800,000	-0,030	0,074
-527,277	-30,190	-0,072	0,030
-526,262	-200,000	-0,005	-0,028
-525,248	240,550	-0,020	0,024
-524,233	23,779	0,117	-0,071
-523,218	-200,000	-0,180	0,001
-522,204	-85,377	-0,182	-0,042
-521,189	164,445	0,015	-0,015
-520,175	352,217	-0,090	-0,132
-519,160	8,327	-0,082	0,045
-518,145	-200,000	0,034	-0,162
-517,131	800,000	0,064	-0,149
-516,116	800,000	-0,042	0,117
-515,102	-200,000	0,021	0,079
-514,087	800,000	-0,058	0,168
-513,072	347,498	-0,094	-0,137
-512,058	232,254	-0,026	-0,031
-511,043	-200,000	-0,009	0,076
-510,029	-69,363	-0,115	0,032
-509,014	456,111	-0,063	0,103
-507,999	-200,000	0,001	0,098
-506,985	-200,000	0,011	-0,037
-505,970	351,017	-0,052	-0,076
-504,956	113,544	-0,107	0,096
-503,941	51,196	0,046	-0,032
-502,926	-59,563	-0,095	0,030
-501,912	-200,000	-0,003	-0,071
-500,897	800,000	-0,068	-0,163
-499,883	49,242	-0,077	-0,053
-498,868	24,009	0,054	-0,033
-497,853	751,115	0,013	-0,026
-496,839	124,818	0,058	-0,054
-495,824	-51,361	0,019	0,007
-494,810	-28,900	0,154	0,065
-493,795	-200,000	-0,002	0,106
-492,781	800,000	-0,065	0,152
-491,766	20,282	-0,144	-0,086
-490,751	492,754	-0,021	0,035
-489,737	-35,828	0,040	0,016
-488,722	2,792	-0,110	0,059
-487,708	140,358	0,207	0,202
-486,693	19,666	-0,016	0,009
-485,678	53,062	0,043	-0,030
-484,664	-165,867	0,115	-0,004
-483,649	-200,000	-0,004	0,057
-482,635	800,000	-0,033	-0,093
-481,620	146,654	-0,060	0,059
-480,605	-200,000	0,019	0,092
-479,591	800,000	-0,018	0,045
-478,576	300,727	0,084	-0,114
-477,562	-200,000	-0,026	0,092
-476,547	-200,000	-0,036	0,133
-475,532	27,711	0,080	-0,049
-474,518	-200,000	-0,001	-0,005
-473,503	278,504	0,028	-0,037
-472,489	-161,493	-0,032	0,001
-471,474	202,564	-0,049	0,056
-470,459	800,000	-0,011	0,031
-469,445	242,094	0,052	0,064
-468,430	773,042	0,014	-0,028
-467,416	-190,906	0,080	-0,001
-466,401	70,038	0,071	-0,054
-465,386	408,626	-0,109	-0,171
-464,372	190,284	0,094	-0,105
-463,357	-138,180	0,113	-0,009
-462,343	259,036	-0,100	-0,128
-461,328	-102,216	-0,171	-0,030
-460,313	-59,192	-0,037	0,012
-459,299	200,322	-0,041	0,046
-458,284	-153,592	0,067	-0,003
-457,270	-200,000	0,029	-0,108
-456,255	417,603	-0,068	-0,108
-455,241	-27,551	0,111	0,047
-454,226	-200,000	-0,006	0,049
-453,211	-74,051	0,036	0,009
-452,197	224,163	0,051	0,060
-451,182	-101,971	0,179	-0,031
-450,168	-200,000	-0,003	-0,061
-449,153	124,647	0,120	-0,111
-448,138	-52,832	0,063	0,021
-447,124	2,076	-0,070	-0,037
-446,109	342,726	0,042	0,061
-445,095	62,855	0,084	-0,062
-444,080	404,369	0,045	-0,070
-443,065	59,706	0,010	0,007
-442,051	-88,556	-0,153	-0,033
-441,036	-44,131	-0,069	0,025
-440,022	-200,000	0,018	-0,060
-439,007	538,049	-0,042	0,073
-437,992	800,000	-0,017	-0,038
-436,978	198,676	0,026	-0,030
-435,963	-200,000	0,002	0,013
-434,949	-154,150	-0,028	0,001
-433,934	-200,000	-0,004	-0,104
-432,919	779,782	-0,036	0,073
-431,905	-50,223	-0,122	-0,042
-430,890	-30,799	-0,048	0,020
-429,876	800,000	-0,031	0,092
-428,861	261,656	0,054	0,069
-427,846	95,783	-0,101	0,085
-426,832	-25,086	0,075	-0,032
-425,817	585,703	0,040	-0,072
-424,803	330,118	0,029	-0,041
-423,788	800,000	-0,024	-0,056
-422,773	-123,661	-0,130	-0,015
-421,759	-200,000	0,031	0,140
-420,744	-200,000	0,029	-0,138
-419,730	800,000	-0,019	-0,054
-418,715	800,000	0,021	0,063
-417,701	-200,000	0,001	-0,046
-416,686	-200,000	0,019	-0,063
-415,671	185,334	0,029	-0,032
-414,657	800,000	0,060	0,128
-413,642	497,283	-0,012	0,020
-412,628	-200,000	0,005	-0,118
-411,613	-85,268	0,057	-0,013
-410,598	302,828	-0,093	0,127
-409,584	571,271	0,034	-0,062
-408,569	-187,945	-0,030	-0,000
-407,555	-200,000	0,029	0,172
-406,540	-200,000	0,006	-0,068
-405,525	163,636	0,049	-0,051
-404,511	800,000	-0,064	-0,151
-403,496	-125,341	-0,069	-0,008
-402,482	-92,932	-0,087	-0,018
-401,467	800,000	0,055	0,136
-400,452	-131,617	0,117	-0,011
-399,438	800,000	-0,016	-0,035
-398,423	-5,982	0,066	0,033
-397,409	-200,000	0,000	-0,008
-396,394	459,476	0,056	-0,092
-395,379	-185,791	0,111	-0,001
-394,365	-200,000	-0,020	-0,075
-393,350	-22,197	-0,024	0,010
-392,336	-200,000	-0,020	0,067
-391,321	800,000	-0,037	-0,092
-390,306	800,000	-0,051	-0,137
-389,292	-22,994	-0,111	-0,049
-388,277	60,124	0,084	0,061
-387,263	88,249	0,061	-0,050
-386,248	-200,000	0,001	0,064
-385,233	-68,574	-0,162	0,046
-384,219	-100,101	0,019	0,004
-383,204	135,504	-0,064	-0,061
-382,190	-200,000	-0,023	-0,101
-381,175	-60,424	-0,130	0,040
-380,160	-19,583	-0,105	0,048
-379,146	-184,826	0,104	0,001
-378,131	-5,259	0,094	0,047
-377,117	234,911	0,048	0,058
-376,102	235,225	-0,064	0,078
-375,088	409,084	-0,092	-0,144
-374,073	-188,087	-0,123	0,001
-373,058	-148,387	0,100	0,006
-372,044	122,079	0,118	0,108
-371,029	599,343	-0,038	-0,069
-370,015	80,717	0,048	0,038
-369,000	389,932	0,112	-0,171
-367,985	467,566	-0,072	-0,119
-366,971	-113,040	-0,056	-0,008
-365,956	41,283	-0,084	0,056
-364,942	-86,221	0,091	-0,020
-363,927	-200,000	0,013	-0,064
-362,912	800,000	-0,051	0,110
-361,898	161,631	0,052	0,054
-360,883	-47,458	-0,046	0,016
-359,869	-200,000	0,006	0,065
-358,854	143,883	-0,018	0,018
-357,839	530,853	0,035	-0,061
-356,825	-61,551	-0,047	0,014
-355,810	-200,000	-0,004	0,146
-354,796	762,022	-0,014	-0,029
-353,781	-102,739	0,090	0,016
-352,766	300,888	-0,030	0,041
-351,752	-139,742	-0,120	0,009
-350,737	-53,239	0,130	-0,043
-349,723	-200,000	0,019	0,104
-348,708	-200,000	0,007	0,065
-347,693	99,154	-0,121	-0,103
-346,679	40,373	-0,063	0,041
-345,664	127,101	-0,080	0,075
-344,650	-89,830	0,058	-0,012
-343,635	95,259	0,132	0,110
-342,620	470,392	0,011	0,018
-341,606	-124,959	0,034	0,004
-340,591	-44,425	0,067	-0,025
-339,577	26,128	-0,015	0,009
-338,562	-167,798	0,157	-0,004
-337,548	-200,000	-0,030	-0,182
-336,533	70,583	-0,065	0,049
-335,518	230,709	0,129	-0,155
-334,504	219,028	-0,078	0,091
-333,489	-92,981	-0,082	0,017
-332,475	17,463	-0,127	0,074
-331,460	506,268	0,061	-0,104
-330,445	800,000	0,016	0,046
-329,431	206,685	0,039	-0,044
-328,416	31,929	0,070	0,044
-327,402	-120,376	0,045	-0,006
-326,387	800,000	-0,051	0,134
-325,372	0,288	0,025	-0,013
-324,358	-200,000	0,016	0,095
-323,343	29,065	0,082	0,051
-322,329	-200,000	-0,030	-0,135
-321,314	800,000	-0,015	-0,038
-320,299	-200,000	0,019	0,094
-319,285	-200,000	0,014	0,160
-318,270	54,481	0,111	0,078
-317,256	506,005	0,025	-0,042
-316,241	178,334	-0,050	-0,054
-315,226	470,039	0,025	-0,041
-314,212	-200,000	-0,000	0,042
-313,197	93,302	0,079	-0,066
-312,183	-200,000	0,003	0,063
-311,168	-52,906	-0,084	-0,028
-310,153	-17,265	-0,050	-0,023
-309,139	344,379	0,062	-0,089
-308,124	325,075	0,054	-0,075
-307,110	-74,139	0,122	-0,032
-306,095	66,384	0,137	0,102
-305,080	-111,495	-0,071	0,011
-304,066	-8,953	-0,081	-0,040
-303,051	800,000	0,078	0,172
-302,037	-200,000	0,000	0,040
-301,022	4,711	0,028	0,015
-300,008	11,549	-0,089	0,050
-298,993	-156,420	-0,100	-0,004
-297,978	-16,506	0,111	0,051
-296,964	102,580	0,092	0,078
-295,949	-119,677	-0,036	-0,005
-294,935	-200,000	-0,010	0,052
-293,920	56,115	0,142	0,101
-292,905	-200,000	0,001	0,050
-291,891	-200,000	0,004	0,058
-290,876	326,747	0,136	0,191
-289,862	4,992	-0,055	0,030
-288,847	6,283	0,039	-0,021
-287,832	-200,000	0,015	-0,126
-286,818	-123,898	-0,184	0,021
-285,803	54,414	-0,090	0,063
-284,789	80,586	0,049	0,038
-283,774	-7,143	0,088	0,044
-282,759	-200,000	-0,003	-0,079
-281,745	800,000	-0,019	-0,043
-280,730	68,659	-0,103	-0,077
-279,716	800,000	-0,056	-0,121
-278,701	53,592	-0,127	-0,089
-277,686	293,375	0,071	0,095
-276,672	-22,371	-0,087	-0,038
-275,657	-128,559	0,060	0,006
-274,643	-200,000	-0,004	-0,035
-273,628	162,526	-0,105	0,108
-272,613	147,700	0,050	0,050
-271,599	-98,444	0,196	0,036
-270,584	52,402	-0,126	-0,087
-269,570	-180,343	0,138	-0,002
-268,555	-200,000	-0,002	0,052
-267,540	386,322	0,117	0,178
-266,526	-200,000	-0,012	0,071
-265,511	134,503	-0,024	-0,023
-264,497	-127,321	-0,114	0,012
-263,482	534,412	0,057	0,100
-262,467	110,283	0,097	0,085
-261,453	68,887	0,103	0,077
-260,438	-200,000	-0,009	0,091
-259,424	-74,168	0,097	0,025
-258,409	800,000	-0,013	-0,037
-257,395	97,107	0,096	0,080
-256,380	285,306	-0,087	0,114
-255,365	5,404	0,041	0,022
-254,351	-123,852	0,035	0,004
-253,336	-200,000	0,021	-0,098
-252,322	107,150	0,069	-0,060
-251,307	-200,000	-0,011	0,042
-250,292	-200,000	-0,012	-0,114
-249,278	-100,512	-0,123	0,022
-248,263	800,000	0,028	0,089
-247,249	-200,000	-0,036	-0,134
-246,234	-86,339	-0,042	0,009
-245,219	-200,000	0,006	0,058
-244,205	88,856	-0,077	-0,063
-243,190	-123,775	0,126	0,014
-242,176	466,300	-0,016	-0,027
-241,161	147,081	-0,047	-0,046
-240,146	219,986	0,015	0,018
-239,132	800,000	-0,039	0,095
-238,117	-200,000	-0,007	-0,093
-237,103	-200,000	0,046	-0,000
-236,088	-200,000	-0,035	-0,181
-235,073	800,000	-0,006	-0,012
-234,059	-200,000	-0,001	0,009
-233,044	-200,000	-0,012	-0,053
-232,030	-200,000	-0,006	-0,040
-231,015	76,495	-0,030	0,023
-230,000	-0,174	-0,150	0,077
-228,986	587,622	-0,056	0,100
-227,971	-10,692	0,153	0,073
-226,957	292,267	0,048	0,063
-225,942	800,000	-0,026	0,074
-224,927	637,027	-0,021	-0,039
-223,913	431,600	-0,066	-0,105
-222,898	-200,000	0,005	-0,100
-221,884	-200,000	0,009	-0,146
-220,869	548,647	0,014	0,025
-219,855	-200,000	-0,005	0,094
-218,840	3,287	0,073	0,039
-217,825	-200,000	-0,024	-0,087
-216,811	-32,130	-0,063	-0,026
-215,796	-200,000	0,029	-0,214
-214,782	-37,799	0,015	0,006
-213,767	800,000	0,049	-0,125
-212,752	-14,635	0,070	-0,033
-211,738	212,693	-0,077	0,088
-210,723	-103,560	0,046	0,008
-209,709	-89,142	0,035	0,008
-208,694	62,667	-0,039	-0,028
-207,679	246,011	0,017	0,021
-206,665	-169,118	-0,106	0,003
-205,650	800,000	0,047	0,118
-204,636	800,000	-0,043	0,092
-203,621	-93,463	0,098	0,020
-202,606	521,770	-0,063	-0,108
-201,592	521,209	0,030	-0,052
-200,577	11,368	-0,087	0,048
-199,563	133,862	0,098	0,092
-198,548	358,615	-0,102	0,149
-197,533	-200,000	0,040	0,131
-196,519	800,000	-0,067	0,159
-195,504	98,321	-0,038	0,032
-194,490	-200,000	0,011	-0,069
-193,475	35,571	-0,148	-0,094
-192,460	-69,304	0,052	-0,014
-191,446	260,453	-0,089	-0,112
-190,431	-200,000	0,004	-0,032
-189,417	-200,000	-0,017	-0,142
-188,402	-37,496	0,023	0,009
-187,387	800,000	0,011	-0,026
-186,373	-49,163	-0,024	-0,008
-185,358	-200,000	-0,016	-0,154
-184,344	-119,228	0,083	0,010
-183,329	265,481	0,037	0,047
-182,315	169,566	-0,072	0,075
-181,300	110,628	-0,082	-0,072
-180,285	-27,421	0,063	0,027
-179,271	-152,603	-0,086	-0,004
-178,256	193,861	0,161	0,177
-177,242	45,750	0,069	-0,046
-176,227	122,129	-0,040	-0,036
-175,212	8,764	0,012	-0,007
-174,198	-173,142	-0,173	0,004
-173,183	442,780	-0,058	-0,093
-172,169	-200,000	0,024	-0,100
-171,154	232,762	0,024	-0,029
-170,139	236,779	0,014	-0,017
-169,125	213,541	0,195	0,224
-168,110	632,038	0,043	-0,080
-167,096	-143,995	-0,076	0,005
-166,081	305,479	-0,061	-0,083
-165,066	800,000	0,032	0,087
-164,052	-57,093	0,130	0,041
-163,037	800,000	0,027	-0,085
-162,023	-132,110	0,038	0,004
-161,008	93,093	0,057	0,047
-159,993	-200,000	0,004	0,021
-158,979	-200,000	-0,062	-0,000
-157,964	-119,859	0,097	-0,012
-156,950	-12,714	0,067	0,032
-155,935	155,593	0,110	0,110
-154,920	-20,456	0,119	0,053
-153,906	115,516	0,101	-0,089
-152,891	70,255	0,154	-0,116
-151,877	616,396	-0,088	-0,161
-150,862	328,003	-0,040	0,056
-149,847	247,622	-0,075	0,093
-148,833	-55,463	0,176	0,057
-147,818	800,000	0,054	-0,121
-146,804	131,151	0,067	0,062
-145,789	-91,051	0,124	0,026
-144,775	20,224	-0,038	-0,022
-143,760	-98,555	-0,095	-0,017
-142,745	57,830	0,041	0,029
-141,731	800,000	-0,019	-0,062
-140,716	800,000	-0,057	0,128
-139,702	193,604	0,087	0,096
-138,687	-200,000	-0,018	0,256
-137,672	717,713	-0,057	-0,111
-136,658	763,357	-0,031	0,061
-135,643	-123,313	-0,053	-0,006
-134,629	155,178	0,031	0,031
-133,614	-200,000	0,004	0,125
-132,599	-200,000	-0,014	0,053
-131,585	800,000	-0,040	0,116
-130,570	208,520	0,106	-0,120
-129,556	800,000	-0,058	-0,124
-128,541	-200,000	0,016	-0,084
-127,526	97,044	-0,072	0,060
-126,512	-200,000	-0,013	0,064
-125,497	213,584	0,064	-0,074
-124,483	-32,352	-0,020	-0,008
-123,468	540,348	-0,031	0,054
-122,453	493,247	0,031	0,052
-121,439	800,000	-0,065	0,141
-120,424	-200,000	0,015	-0,129
-119,410	-37,539	-0,043	-0,017
-118,395	40,835	-0,080	-0,052
-117,380	-1,543	0,174	0,089
-116,366	-88,340	0,113	0,024
-115,351	-158,141	-0,090	0,004
-114,337	0,889	-0,151	-0,078
-113,322	59,296	-0,050	-0,036
-112,307	-200,000	0,001	-0,113
-111,293	299,934	0,082	0,110
-110,278	637,838	0,118	0,219
-109,264	800,000	-0,031	0,068
-108,249	-200,000	-0,021	0,220
-107,234	0,570	0,039	-0,020
-106,220	-111,858	-0,038	0,005
-105,205	424,256	0,044	-0,068
-104,191	-200,000	-0,005	-0,031
-103,176	440,209	-0,019	0,031
-102,162	226,840	0,021	0,025
-101,147	192,787	-0,135	0,148
-100,132	800,000	0,023	0,061
-99,118	75,241	0,082	0,063
-98,103	122,293	-0,044	-0,040
-97,089	-11,840	-0,048	0,023
-96,074	-119,959	0,078	0,010
-95,059	-140,034	-0,096	0,007
-94,045	20,194	0,066	-0,039
-93,030	149,309	0,041	0,040
-92,016	-200,000	-0,003	-0,078
-91,001	83,274	0,162	-0,128
-89,986	-200,000	0,001	-0,065
-88,972	149,758	0,090	-0,088
-87,957	337,445	0,060	-0,084
-86,943	12,771	-0,066	0,037
-85,928	450,238	-0,014	-0,022
-84,913	-135,144	-0,066	0,006
-83,899	199,355	-0,124	0,138
-82,884	158,378	-0,020	0,020
-81,870	-200,000	0,015	-0,086
-80,855	800,000	0,036	-0,076
-79,840	28,129	-0,023	0,014
-78,826	43,912	-0,022	-0,015
-77,811	-53,860	0,114	-0,038
-76,797	-200,000	-0,016	-0,081
-75,782	-103,925	-0,040	0,007
-74,767	-73,589	-0,100	0,026
-73,753	-200,000	0,008	0,045
-72,738	14,904	-0,094	0,053
-71,724	-200,000	0,006	0,053
-70,709	-3,266	0,103	-0,052
-69,694	319,455	0,059	-0,081
-68,680	14,477	0,090	-0,051
-67,665	-200,000	0,007	0,057
-66,651	800,000	0,064	0,203
-65,636	173,778	-0,004	-0,004
-64,622	106,076	-0,067	0,057
-63,607	-111,704	0,075	0,011
-62,592	-200,000	0,015	-0,060
-61,578	-200,000	-0,009	-0,043
-60,563	-200,000	-0,016	0,070
-59,549	-200,000	0,008	-0,065
-58,534	-108,649	-1,497	-0,230
-57,519	800,000	-0,682	-1,396
-56,505	-200,000	-0,985	-4,496
-55,490	-79,194	0,598	-0,146
-54,476	800,000	5,051	11,772
-53,461	-200,000	15,115	263,217
-52,446	-200,000	698,893	2245,635
-51,432	587,455	1621,403	2903,738
-50,417	120,009	1628,091	1462,913
-49,403	80,491	1282,348	999,792
-48,388	37,487	1021,544	655,050
-47,373	22,715	982,021	581,135
-46,359	21,719	971,125	571,397
-45,344	20,409	966,883	564,599
-44,330	20,390	965,556	563,739
-43,315	20,244	964,136	562,409
-42,300	20,246	962,916	561,683
-41,286	20,209	961,863	560,926
-40,271	20,209	960,978	560,387
-39,257	20,200	960,047	559,794
-38,242	20,220	959,223	559,354
-37,227	20,184	958,542	558,819
-36,213	20,141	957,386	557,983
-35,198	20,143	956,494	557,447
-34,184	20,176	955,813	557,136
-33,169	20,195	954,794	556,580
-32,154	20,242	953,820	556,143
-31,140	20,226	953,097	555,648
-30,125	20,190	952,399	555,102
-29,111	20,205	951,412	554,553
-28,096	20,194	950,910	554,204
-27,082	20,257	950,052	553,883
-26,067	20,155	949,397	553,155
-25,052	20,170	948,541	552,681
-24,038	20,204	947,918	552,404
-23,023	20,219	947,199	552,012
-22,009	20,245	946,520	551,677
-20,994	20,210	946,110	551,306
-19,979	20,225	945,454	550,949
-18,965	20,236	944,633	550,483
-17,950	20,230	944,076	550,119
-16,936	20,156	943,517	549,534
-15,921	20,174	942,897	549,209
-14,906	20,085	942,260	548,533
-13,892	20,042	941,620	548,000
-12,877	20,112	940,830	547,742
-11,863	20,046	940,417	547,270
-10,848	20,007	939,837	546,785
-9,833	20,126	939,377	546,875
-8,819	20,123	938,722	546,463
-7,804	20,101	937,921	545,907
-6,790	20,041	937,611	545,512
-5,775	20,097	936,876	545,240
-4,760	20,064	936,281	544,769
-3,746	20,098	935,448	544,368
-2,731	19,920	934,832	543,427
-1,717	19,940	934,202	543,102
-0,702	19,926	933,511	542,634
0,313	19,764	932,767	542,510
1,327	22,255	930,655	549,069
2,342	29,708	805,746	495,517
3,356	23,928	506,058	301,366
4,371	-0,473	372,954	191,076
5,386	-3,332	356,233	178,988
6,400	-4,377	350,322	174,739
7,415	-4,650	347,810	173,144
8,429	-4,715	346,380	172,339
9,444	-4,597	345,532	172,042
10,459	-4,560	344,951	171,782
11,473	-4,548	344,194	171,404
12,488	-4,591	343,594	171,039
13,502	-4,782	343,122	170,563
14,517	-4,599	342,705	170,556
15,531	-4,496	342,215	170,419
16,546	-4,531	341,684	170,098
17,561	-4,520	341,455	169,982
18,575	-4,394	340,972	169,874
19,590	-4,573	340,658	169,493
20,604	-4,446	340,314	169,456
21,619	-4,493	339,819	169,138
22,634	-4,346	339,561	169,167
23,648	-4,331	339,099	168,938
24,663	-4,578	338,997	168,586
25,677	-4,521	338,697	168,487
26,692	-4,412	338,197	168,350
27,707	-4,522	338,040	168,129
28,721	-4,521	337,593	167,893
29,736	-4,546	337,224	167,666
30,750	-4,545	337,035	167,558
31,765	-4,613	336,866	167,380
32,780	-4,468	336,419	167,311
33,794	-4,544	336,118	167,059
34,809	-4,567	335,922	166,920
35,823	-4,635	335,725	166,729
36,838	-4,524	335,377	166,668
37,853	-4,479	335,153	166,594
38,867	-4,467	334,690	166,363
39,882	-4,501	334,578	166,254
40,896	-4,487	334,172	166,053
41,911	-4,466	333,951	165,952
42,926	-4,404	333,461	165,765
43,940	-4,489	333,276	165,561
44,955	-4,399	333,085	165,555
45,969	-4,268	332,890	165,593
46,984	-4,309	332,531	165,352
47,999	-4,535	332,590	165,109
49,013	-4,348	332,140	165,084
50,028	-4,333	331,935	164,984
51,042	-4,314	331,537	164,794
52,057	-4,461	331,369	164,529
53,071	-4,411	331,182	164,477
54,086	-4,356	330,886	164,379
55,101	-4,364	330,670	164,247
56,115	-4,393	330,375	164,053
57,130	-4,401	330,075	163,881
58,144	-4,486	329,696	163,582
59,159	-4,432	329,452	163,507
60,174	-4,420	329,092	163,327
61,188	-4,519	328,965	163,138
62,203	-4,373	328,714	163,164
63,217	-4,497	328,527	162,917
64,232	-4,491	328,198	162,746
65,247	-4,549	328,122	162,628
66,261	-4,421	327,687	162,542
67,276	-4,415	327,458	162,421
68,290	-4,584	327,181	162,079
69,305	-4,491	326,867	162,013
70,320	-4,427	326,767	162,021
71,334	-4,536	326,728	161,864
72,349	-4,499	326,135	161,598
73,363	-4,431	325,981	161,583
74,378	-4,487	325,601	161,318
75,393	-4,491	325,426	161,213
76,407	-4,572	325,215	161,004
77,422	-4,473	324,913	160,949
78,436	-4,646	324,819	160,697
79,451	-4,398	324,456	160,778
80,466	-4,540	324,141	160,450
81,480	-4,460	323,909	160,409
82,495	-4,594	323,701	160,144
83,509	-4,497	323,430	160,103
84,524	-4,313	323,153	160,156
85,539	-4,466	322,866	159,829
86,553	-4,452	322,749	159,773
87,568	-4,414	322,505	159,680
88,582	-4,448	322,152	159,454
89,597	-4,408	322,006	159,411
90,611	-4,554	321,926	159,196
91,626	-4,468	321,533	159,082
92,641	-4,429	321,277	158,985
93,655	-4,515	321,073	158,775
94,670	-4,406	320,842	158,766
95,684	-4,308	320,510	158,695
96,699	-4,497	320,391	158,415
97,714	-4,519	320,291	158,327
98,728	-4,428	319,896	158,217
99,743	-4,423	319,796	158,159
100,757	-4,419	319,528	158,017
101,772	-4,410	319,343	157,920
102,787	-4,364	318,996	157,785
103,801	-4,319	318,574	157,611
104,816	-4,438	318,478	157,420
105,830	-4,254	318,266	157,502
106,845	-4,500	318,085	157,132
107,860	-4,372	317,760	157,096
108,874	-4,294	317,491	157,033
109,889	-4,623	317,369	156,602
110,903	-4,299	316,961	156,737
111,918	-4,505	316,911	156,476
112,933	-4,313	316,657	156,544
113,947	-4,349	316,507	156,417
114,962	-4,296	316,187	156,302
115,976	-4,448	316,048	156,055
116,991	-4,401	315,837	155,989
118,006	-4,438	315,614	155,824
119,020	-4,436	315,479	155,746
120,035	-4,566	315,305	155,506
121,049	-4,329	314,946	155,570
122,064	-4,360	314,738	155,420
123,079	-4,452	314,512	155,196
124,093	-4,497	314,300	155,029
125,108	-4,512	314,062	154,882
126,122	-4,282	313,845	155,007
127,137	-4,474	313,583	154,659
128,151	-4,303	313,429	154,752
129,166	-4,580	313,284	154,370
130,181	-4,373	312,959	154,417
131,195	-4,303	312,637	154,319
132,210	-4,288	312,311	154,161
133,224	-4,362	312,169	153,998
134,239	-4,467	311,943	153,761
135,254	-4,397	311,664	153,684
136,268	-4,295	311,471	153,684
137,283	-4,260	311,330	153,638
138,297	-4,298	311,041	153,441
139,312	-4,298	310,839	153,328
140,327	-4,367	310,520	153,084
141,341	-4,418	310,372	152,943
142,356	-4,583	310,195	152,668
143,370	-4,320	309,898	152,786
144,385	-4,434	309,691	152,550
145,400	-4,450	309,618	152,483
146,414	-4,404	309,351	152,386
147,429	-4,533	309,157	152,142
148,443	-4,499	308,818	151,998
149,458	-4,442	308,643	151,957
150,473	-4,535	308,529	151,790
151,487	-4,294	308,240	151,888
152,502	-4,314	308,024	151,746
153,516	-4,388	307,713	151,501
154,531	-4,452	307,500	151,316
155,546	-4,277	307,437	151,455
156,560	-4,267	307,171	151,320
157,575	-4,400	306,855	151,013
158,589	-4,530	306,593	150,734
159,604	-4,280	306,446	150,909
160,619	-4,441	306,307	150,661
161,633	-4,242	306,040	150,723
162,648	-4,295	305,834	150,552
163,662	-4,339	305,607	150,382
164,677	-4,251	305,546	150,430
165,692	-4,382	305,100	150,061
166,706	-4,405	305,038	149,993
167,721	-4,359	304,882	149,950
168,735	-4,404	304,710	149,806
169,750	-4,370	304,492	149,720
170,764	-4,454	304,322	149,536
171,779	-4,273	304,118	149,610
172,794	-4,487	304,001	149,318
173,808	-4,296	303,572	149,292
174,823	-4,288	303,443	149,223
175,837	-4,294	303,272	149,119
176,852	-4,474	303,141	148,857
177,867	-4,220	302,692	148,883
178,881	-4,425	302,620	148,624
179,896	-4,324	302,318	148,566
180,910	-4,442	302,216	148,382
181,925	-4,399	302,075	148,343
182,940	-4,518	301,818	148,083
183,954	-4,391	301,504	148,045
184,969	-4,288	301,534	148,152
185,983	-4,327	301,249	147,958
186,998	-4,255	301,152	147,972
188,013	-4,264	300,711	147,732
189,027	-4,215	300,536	147,683
190,042	-4,293	300,245	147,447
191,056	-4,271	300,139	147,405
192,071	-4,509	299,994	147,078
193,086	-4,559	299,683	146,861
194,100	-4,469	299,591	146,895
195,115	-4,320	299,299	146,890
196,129	-4,274	299,156	146,853
197,144	-4,354	298,847	146,608
198,159	-4,553	298,496	146,221
199,173	-4,402	298,338	146,283
200,188	-4,537	298,343	146,136
201,202	-4,282	297,965	146,195
202,217	-4,363	297,884	146,061
203,232	-4,307	297,590	145,960
204,246	-4,340	297,377	145,809
205,261	-4,451	297,220	145,608
206,275	-4,382	296,989	145,551
207,290	-4,316	296,829	145,526
208,304	-4,206	296,606	145,514
209,319	-4,210	296,361	145,376
210,334	-4,089	296,069	145,342
211,348	-4,226	295,975	145,146
212,363	-4,400	295,703	144,825
213,377	-4,478	295,550	144,659
214,392	-4,342	295,432	144,724
215,407	-4,209	295,141	144,701
216,421	-4,280	295,003	144,550
217,436	-4,281	294,629	144,353
218,450	-4,582	294,638	144,045
219,465	-4,422	294,375	144,063
220,480	-4,440	294,222	143,957
221,494	-4,371	294,006	143,907
222,509	-4,314	293,859	143,879
223,523	-4,353	293,624	143,713
224,538	-4,251	293,437	143,709
225,553	-4,254	293,191	143,573
226,567	-4,277	292,975	143,432
227,582	-4,347	292,878	143,302
228,596	-4,411	292,695	143,136
229,611	-4,593	292,535	142,866
230,626	-4,311	292,371	143,051
231,640	-4,285	292,167	142,965
232,655	-4,123	291,925	142,993
233,669	-4,252	291,656	142,722
234,684	-4,163	291,549	142,745
235,699	-4,315	291,489	142,552
236,713	-4,292	291,114	142,378
237,728	-4,200	290,849	142,327
238,742	-4,388	290,775	142,093
239,757	-4,348	290,461	141,967
240,772	-4,321	290,253	141,879
241,786	-4,335	290,020	141,738
242,801	-4,328	289,995	141,720
243,815	-4,407	289,909	141,588
244,830	-4,350	289,513	141,438
245,844	-4,318	289,389	141,396
246,859	-4,496	289,292	141,162
247,874	-4,470	289,091	141,077
248,888	-4,537	288,968	140,939
249,903	-4,291	288,650	141,011
250,917	-4,380	288,552	140,863
251,932	-4,413	288,306	140,699
252,947	-4,596	287,877	140,299
253,961	-5,075	287,626	139,700
254,976	-5,308	287,296	139,301
255,990	-5,039	287,428	139,614
257,005	-3,551	287,755	141,204
258,020	-1,236	288,418	143,765
259,034	-0,088	288,825	145,070
260,049	0,417	288,868	145,569
261,063	0,898	288,936	146,058
262,078	1,154	288,655	146,151
263,093	1,609	288,662	146,582
264,107	1,848	288,545	146,742
265,122	2,019	288,328	146,783
266,136	2,008	288,302	146,746
267,151	2,095	288,218	146,775
268,166	1,990	288,076	146,589
269,180	2,208	287,653	146,570
270,195	2,066	287,565	146,375
271,209	2,149	287,379	146,347
272,224	2,164	287,205	146,260
273,239	2,018	287,037	146,021
274,253	2,030	286,875	145,937
275,268	1,925	286,519	145,642
276,282	1,897	286,483	145,584
277,297	1,860	286,311	145,448
278,312	2,063	285,971	145,457
279,326	2,060	285,860	145,385
280,341	1,925	285,632	145,126
281,355	1,863	285,593	145,034
282,370	2,125	285,161	145,053
283,384	1,974	285,120	144,875
284,399	1,896	284,994	144,723
285,414	2,148	284,660	144,781
286,428	1,849	284,550	144,427
287,443	1,878	284,556	144,445
288,457	1,870	284,114	144,200
289,472	1,808	283,979	144,059
290,487	1,705	283,821	143,868
291,501	1,696	283,529	143,699
292,516	1,962	283,199	143,771
293,530	1,779	283,161	143,565
294,545	1,682	282,992	143,375
295,560	1,655	282,842	143,261
296,574	1,569	282,720	143,106
297,589	1,757	282,409	143,113
298,603	1,652	282,321	142,956
299,618	1,786	282,025	142,919
300,633	1,973	281,847	142,993
301,647	1,733	281,831	142,746
302,662	1,843	281,669	142,755
303,676	2,097	281,406	142,848
304,691	1,907	281,215	142,559
305,706	1,958	280,987	142,479
306,720	1,954	280,935	142,436
307,735	2,120	280,539	142,379
308,749	1,905	280,622	142,206
309,764	1,955	280,330	142,092
310,779	2,009	280,112	142,020
311,793	1,974	280,004	141,920
312,808	2,058	279,722	141,842
313,822	1,806	279,619	141,542
314,837	1,857	279,397	141,465
315,852	1,833	279,325	141,394
316,866	2,047	279,103	141,468
317,881	1,798	279,022	141,183
318,895	2,104	278,703	141,293
319,910	1,837	278,593	140,976
320,925	2,049	278,296	141,010
321,939	1,864	278,224	140,789
322,954	1,978	278,015	140,777
323,968	1,887	277,906	140,625
324,983	2,088	277,681	140,685
325,997	2,046	277,570	140,577
327,012	2,182	277,135	140,471
328,027	2,001	277,183	140,315
329,041	2,055	277,025	140,272
330,056	2,018	276,835	140,129
331,070	2,003	276,735	140,052
332,085	2,173	276,361	140,007
333,100	2,051	276,217	139,809
334,114	1,958	276,005	139,604
335,129	2,103	275,782	139,612
336,143	2,192	275,703	139,641
337,158	2,065	275,602	139,461
338,173	2,000	275,398	139,286
339,187	1,983	275,259	139,187
340,202	1,960	275,042	139,044
341,216	2,123	274,828	139,073
342,231	2,030	274,625	138,873
343,246	1,950	274,403	138,675
344,260	2,310	274,312	138,946
345,275	2,184	274,155	138,739
346,289	2,037	274,024	138,526
347,304	2,304	273,792	138,639
348,319	2,219	273,624	138,464
349,333	2,075	273,575	138,297
350,348	2,086	273,259	138,134
351,362	2,065	273,075	138,010
352,377	2,068	272,964	137,943
353,392	2,137	272,702	137,862
354,406	2,011	272,548	137,658
355,421	191,674	1347,185	1426,358
356,435	154,762	1478,185	1426,458
