DTS Sentinel unit serial number:	SN410029Multiplexer serial number:	ORYXHardware model number:	OX2-SRSoftware version number:	ORYX F/W v4,00 Oryx Data Collector v3.7.2.0data status	okinstallation	B4 Nyhavnadifferential loss correction	single-endedforward channel	channel 2reverse channel	N/Adate	2023/12/19time	09:35:13forward acquisition time	300,00reverse acquisition time	0,00gamma	499,1914k internal	0,3128k external	0,3128temperature offset calibration	1,0000default loss term (dB/km)	0,3820temperature slope calibration	1,0000multiplexer offset coefficient	1,0000multiplexer slope coefficient	1,0000fibre end	0,00T internal ref (°C)	20,41T ext. ref 1 (°C)	4,96T ext. ref 2 (°C)	4,96length (m)	temperature (°C)	Stokes	anti-Stokes-744,400	680,619	0,031	-0,059
-743,385	-90,771	-0,207	0,044
-742,371	128,591	-0,050	0,047
-741,356	-4,717	-0,312	0,160
-740,342	-158,053	-0,076	-0,003
-739,327	-85,500	-0,245	-0,056
-738,312	34,878	0,037	0,024
-737,298	183,618	-0,206	0,226
-736,283	-70,867	0,070	0,020
-735,269	-44,710	-0,241	0,089
-734,254	800,000	0,052	-0,108
-733,239	-41,738	-0,337	-0,128
-732,225	-200,000	0,042	-0,176
-731,210	-19,873	-0,115	-0,053
-730,196	-22,996	0,130	-0,058
-729,181	551,734	0,059	0,107
-728,167	-200,000	-0,020	-0,075
-727,152	194,109	-0,076	0,086
-726,137	-200,000	0,016	-0,114
-725,123	-74,782	-0,134	0,035
-724,108	-88,456	-0,183	-0,040
-723,094	800,000	0,060	-0,137
-722,079	-200,000	0,001	-0,042
-721,064	45,104	-0,081	0,055
-720,050	800,000	-0,041	0,092
-719,035	88,180	0,019	0,015
-718,021	-200,000	-0,018	-0,073
-717,006	-38,194	-0,080	-0,031
-715,991	-200,000	-0,005	-0,035
-714,977	-200,000	-0,032	-0,156
-713,962	695,378	-0,011	0,022
-712,948	-200,000	0,007	-0,030
-711,933	-200,000	0,013	-0,093
-710,918	-144,717	-0,131	0,009
-709,904	-200,000	0,007	0,046
-708,889	-200,000	0,026	-0,122
-707,875	776,516	-0,059	-0,119
-706,860	800,000	-0,042	-0,098
-705,845	-35,857	0,060	0,024
-704,831	-111,291	-0,040	0,006
-703,816	-200,000	-0,018	0,095
-702,802	-81,021	0,028	-0,007
-701,787	-200,000	-0,001	-0,016
-700,772	-83,825	0,072	0,017
-699,758	-200,000	0,004	-0,113
-698,743	800,000	0,027	0,082
-697,729	122,808	0,018	0,017
-696,714	69,559	0,087	0,066
-695,699	800,000	0,043	-0,092
-694,685	-200,000	-0,035	-0,180
-693,670	800,000	-0,062	-0,135
-692,656	-84,934	-0,040	0,009
-691,641	-108,898	0,100	0,016
-690,627	490,369	-0,126	-0,215
-689,612	253,042	-0,034	-0,044
-688,597	-100,468	-0,122	-0,022
-687,583	543,524	0,089	-0,158
-686,568	-200,000	-0,003	-0,135
-685,554	-88,787	0,130	0,028
-684,539	800,000	0,040	0,109
-683,524	-74,911	-0,162	-0,043
-682,510	218,230	0,064	0,076
-681,495	-200,000	-0,004	-0,039
-680,481	-19,003	-0,028	0,013
-679,466	410,726	-0,084	-0,133
-678,451	758,438	-0,057	-0,115
-677,437	536,990	-0,034	-0,061
-676,422	8,057	-0,095	0,053
-675,408	-145,314	-0,084	0,006
-674,393	-200,000	0,020	-0,100
-673,378	-55,429	-0,157	-0,052
-672,364	800,000	0,012	-0,029
-671,349	-200,000	0,013	-0,121
-670,335	-76,356	0,161	0,042
-669,320	-92,234	-0,065	0,014
-668,305	-200,000	0,002	-0,081
-667,291	0,896	-0,111	0,059
-666,276	147,426	0,076	0,076
-665,262	-138,477	-0,129	-0,010
-664,247	-134,407	-0,074	-0,007
-663,232	-200,000	0,006	-0,039
-662,218	-124,678	0,152	-0,017
-661,203	-200,000	0,001	-0,032
-660,189	-200,000	-0,012	-0,067
-659,174	-200,000	0,015	-0,170
-658,159	800,000	-0,044	-0,130
-657,145	800,000	-0,089	-0,184
-656,130	90,782	0,024	-0,020
-655,116	800,000	0,057	0,146
-654,101	-105,753	0,054	0,009
-653,086	-200,000	0,002	0,114
-652,072	800,000	0,010	0,026
-651,057	-200,000	0,039	-0,130
-650,043	-200,000	0,013	-0,132
-649,028	800,000	0,004	0,010
-648,014	-82,340	-0,007	-0,002
-646,999	43,136	0,072	-0,049
-645,984	500,349	-0,040	-0,068
-644,970	-200,000	-0,011	-0,202
-643,955	230,813	-0,081	0,099
-642,941	378,357	0,042	-0,064
-641,926	800,000	-0,038	-0,113
-640,911	144,564	-0,059	-0,058
-639,897	3,673	0,123	0,066
-638,882	128,737	0,027	0,026
-637,868	-200,000	0,007	-0,106
-636,853	415,346	-0,042	-0,067
-635,838	-200,000	-0,012	-0,119
-634,824	225,103	0,014	-0,017
-633,809	575,703	0,033	0,060
-632,795	800,000	0,056	-0,127
-631,780	287,993	-0,042	0,056
-630,765	-200,000	-0,021	-0,082
-629,751	-200,000	-0,005	-0,078
-628,736	800,000	0,042	-0,113
-627,722	-86,888	-0,051	-0,011
-626,707	-200,000	-0,012	-0,073
-625,692	31,980	0,016	-0,010
-624,678	192,468	0,069	0,078
-623,663	-77,087	-0,043	-0,011
-622,649	16,185	-0,120	-0,070
-621,634	-200,000	-0,020	-0,068
-620,619	-199,413	-0,134	0,001
-619,605	-51,564	0,097	0,033
-618,590	-10,900	0,060	-0,029
-617,576	402,576	-0,031	-0,049
-616,561	-57,696	-0,041	0,013
-615,546	-90,321	0,102	0,022
-614,532	94,100	-0,058	0,049
-613,517	412,857	0,030	0,047
-612,503	238,932	0,081	0,100
-611,488	-167,603	-0,043	-0,001
-610,474	-200,000	0,042	0,143
-609,459	800,000	0,052	-0,169
-608,444	800,000	-0,042	-0,116
-607,430	14,078	-0,068	-0,039
-606,415	205,068	0,005	0,006
-605,401	-200,000	0,008	-0,041
-604,386	-84,805	-0,044	-0,010
-603,371	247,227	-0,035	-0,044
-602,357	-31,068	0,036	-0,015
-601,342	53,153	0,036	0,026
-600,328	97,106	-0,108	-0,091
-599,313	201,982	-0,106	0,121
-598,298	217,266	0,029	0,034
-597,284	519,123	0,023	-0,041
-596,269	510,166	0,062	0,108
-595,255	-113,559	-0,166	0,024
-594,240	-117,743	-0,049	0,006
-593,225	-200,000	0,003	0,062
-592,211	-200,000	-0,008	-0,123
-591,196	-145,869	-0,150	0,010
-590,182	62,832	0,011	0,008
-589,167	-110,997	0,094	0,014
-588,152	800,000	0,052	0,122
-587,138	-130,516	-0,065	0,006
-586,123	-200,000	0,002	0,073
-585,109	-200,000	-0,010	-0,112
-584,094	-200,000	0,022	-0,099
-583,079	-200,000	-0,017	0,109
-582,065	239,508	0,043	-0,053
-581,050	-200,000	-0,013	-0,044
-580,036	-55,607	0,074	0,024
-579,021	-16,367	0,101	-0,047
-578,006	-200,000	0,005	0,043
-576,992	-200,000	-0,003	0,173
-575,977	-22,447	0,120	0,053
-574,963	78,573	-0,074	0,058
-573,948	800,000	0,018	0,058
-572,934	565,529	-0,042	0,075
-571,919	-84,955	-0,148	-0,034
-570,904	425,075	-0,030	0,048
-569,890	-1,120	-0,016	-0,008
-568,875	-30,957	0,048	-0,020
-567,861	72,052	-0,143	0,110
-566,846	800,000	0,045	-0,136
-565,831	298,380	0,024	-0,033
-564,817	-173,718	-0,108	0,002
-563,802	385,229	0,093	-0,142
-562,788	-200,000	-0,020	0,085
-561,773	-18,472	0,014	0,006
-560,758	-94,732	-0,063	-0,013
-559,744	456,733	0,015	0,024
-558,729	113,596	0,078	0,070
-557,715	-104,430	-0,039	-0,007
-556,700	14,230	-0,118	0,068
-555,685	800,000	0,036	-0,086
-554,671	-153,109	-0,149	-0,008
-553,656	756,895	-0,022	0,044
-552,642	-88,613	0,096	0,021
-551,627	-200,000	-0,040	0,153
-550,612	800,000	-0,009	-0,027
-549,598	800,000	0,037	-0,118
-548,583	-116,208	0,009	0,001
-547,569	-148,946	0,078	-0,005
-546,554	150,411	0,020	-0,021
-545,539	312,814	0,132	0,184
-544,525	166,835	0,049	0,051
-543,510	-200,000	-0,005	-0,032
-542,496	-35,467	-0,126	-0,050
-541,481	-200,000	-0,024	-0,212
-540,466	-200,000	-0,029	-0,097
-539,452	-200,000	0,034	-0,136
-538,437	596,589	-0,047	-0,086
-537,423	-99,317	0,040	0,007
-536,408	200,607	-0,097	-0,111
-535,393	430,842	-0,103	-0,165
-534,379	800,000	-0,026	-0,066
-533,364	2,460	0,107	0,057
-532,350	-129,748	0,075	-0,007
-531,335	-200,000	0,101	-0,000
-530,321	-14,618	0,141	0,067
-529,306	9,094	-0,075	0,042
-528,291	120,733	0,036	-0,033
-527,277	249,258	-0,006	0,007
-526,262	-200,000	-0,009	0,140
-525,248	34,704	0,065	0,042
-524,233	-27,279	0,179	0,077
-523,218	800,000	0,025	-0,065
-522,204	-200,000	-0,022	-0,085
-521,189	800,000	-0,029	-0,064
-520,175	-51,105	0,051	0,018
-519,160	630,346	-0,079	-0,148
-518,145	0,121	0,058	-0,030
-517,131	800,000	-0,032	0,097
-516,116	602,259	0,020	-0,038
-515,102	800,000	0,043	0,094
-514,087	81,764	-0,120	-0,095
-513,072	-64,952	-0,131	-0,039
-512,058	307,693	0,066	-0,091
-511,043	152,347	0,111	-0,111
-510,029	800,000	-0,032	0,094
-509,014	65,351	-0,138	0,103
-507,999	-133,479	-0,158	0,014
-506,985	82,361	-0,107	-0,085
-505,970	-200,000	-0,004	-0,106
-504,956	800,000	0,029	-0,093
-503,941	106,927	0,030	-0,026
-502,926	-53,377	0,160	0,054
-501,912	-200,000	0,017	0,084
-500,897	800,000	0,031	0,076
-499,883	-86,251	-0,127	-0,029
-498,868	-200,000	0,001	0,044
-497,853	-200,000	-0,001	0,058
-496,839	-200,000	-0,019	-0,064
-495,824	48,489	-0,042	-0,029
-494,810	800,000	0,064	-0,182
-493,795	800,000	-0,066	-0,157
-492,781	800,000	-0,008	-0,026
-491,766	83,107	-0,011	-0,009
-490,751	-200,000	-0,025	-0,115
-489,737	-182,160	-0,043	-0,001
-488,722	-153,562	0,027	-0,001
-487,708	-200,000	0,012	0,074
-486,693	496,576	0,032	0,055
-485,678	1,123	-0,070	0,037
-484,664	-165,979	-0,048	0,001
-483,649	272,613	-0,073	-0,096
-482,635	274,986	-0,111	-0,145
-481,620	-45,596	0,154	-0,056
-480,605	-200,000	-0,001	-0,052
-479,591	346,119	-0,071	0,104
-478,576	-200,000	-0,031	0,214
-477,562	-23,739	-0,070	0,031
-476,547	-200,000	-0,013	-0,088
-475,532	450,670	0,040	-0,065
-474,518	9,998	-0,049	-0,027
-473,503	-78,796	-0,102	-0,025
-472,489	-108,986	0,049	-0,008
-471,474	-200,000	-0,009	-0,059
-470,459	-138,750	-0,047	-0,004
-469,445	90,573	-0,044	-0,036
-468,430	87,809	0,021	-0,017
-467,416	-12,562	0,044	0,021
-466,401	701,002	0,036	0,070
-465,386	-200,000	0,013	0,061
-464,372	267,191	0,084	0,108
-463,357	420,672	0,030	-0,048
-462,343	-200,000	0,017	0,144
-461,328	472,193	-0,051	-0,086
-460,313	-200,000	-0,001	0,114
-459,299	64,498	-0,043	0,032
-458,284	-25,967	0,065	0,028
-457,270	-143,861	-0,083	0,006
-456,255	144,365	-0,109	-0,107
-455,241	-200,000	0,024	-0,097
-454,226	130,331	-0,070	-0,066
-453,211	253,125	0,051	-0,064
-452,197	-11,171	0,029	-0,014
-451,182	162,484	0,104	0,108
-450,168	83,376	-0,045	-0,036
-449,153	-200,000	-0,022	-0,075
-448,138	-114,543	0,071	0,010
-447,124	-200,000	0,007	-0,048
-446,109	395,954	0,025	-0,039
-445,095	296,107	0,065	0,088
-444,080	152,998	0,097	0,098
-443,065	-77,188	-0,109	-0,028
-442,051	800,000	-0,050	-0,148
-441,036	-200,000	-0,013	-0,055
-440,022	-200,000	-0,026	-0,100
-439,007	-81,748	-0,095	-0,023
-437,992	800,000	0,016	0,036
-436,978	800,000	0,045	0,130
-435,963	19,575	0,140	0,083
-434,949	-200,000	0,005	-0,023
-433,934	800,000	0,019	-0,058
-432,919	44,354	-0,032	-0,022
-431,905	150,648	-0,014	-0,014
-430,890	-92,774	-0,064	-0,013
-429,876	50,499	0,166	0,115
-428,861	-38,474	0,053	0,021
-427,846	312,225	-0,044	0,061
-426,832	-120,515	-0,105	-0,013
-425,817	40,672	-0,081	-0,054
-424,803	152,031	0,030	0,030
-423,788	-90,695	-0,100	-0,021
-422,773	-4,636	0,100	0,050
-421,759	800,000	-0,042	-0,116
-420,744	276,577	0,060	-0,078
-419,730	139,784	0,011	-0,011
-418,715	103,834	0,049	-0,042
-417,701	-200,000	0,004	-0,147
-416,686	395,129	0,081	0,125
-415,671	-200,000	0,008	0,163
-414,657	800,000	0,011	0,026
-413,642	175,302	0,014	-0,015
-412,628	-181,645	0,065	-0,001
-411,613	-127,308	0,105	-0,011
-410,598	119,326	-0,108	0,098
-409,584	-49,039	-0,118	0,041
-408,569	542,282	0,080	0,141
-407,555	800,000	0,038	0,111
-406,540	384,366	-0,021	-0,031
-405,525	27,056	-0,083	-0,051
-404,511	-113,621	0,065	-0,009
-403,496	114,169	-0,057	-0,051
-402,482	-200,000	-0,005	-0,049
-401,467	800,000	-0,061	0,161
-400,452	745,531	0,062	0,123
-399,438	64,060	-0,068	0,050
-398,423	800,000	0,003	0,007
-397,409	-96,303	0,206	0,040
-396,394	-200,000	-0,001	-0,052
-395,379	-47,886	0,083	0,029
-394,365	109,124	0,040	0,035
-393,350	141,495	0,040	-0,039
-392,336	-41,813	-0,068	-0,025
-391,321	662,021	-0,049	0,093
-390,306	-20,153	0,063	-0,029
-389,292	-38,237	-0,062	-0,024
-388,277	168,622	0,064	0,067
-387,263	192,935	0,006	0,007
-386,248	-42,538	-0,203	0,076
-385,233	-200,000	-0,036	0,119
-384,219	-139,485	0,094	-0,007
-383,204	-67,602	-0,089	0,026
-382,190	-116,519	-0,041	0,005
-381,175	237,176	0,051	-0,062
-380,160	57,080	-0,045	0,032
-379,146	4,501	0,092	0,050
-378,131	230,771	-0,044	0,053
-377,117	-147,511	-0,017	0,001
-376,102	-87,135	-0,199	-0,044
-375,088	-38,846	0,081	0,031
-374,073	-200,000	0,026	-0,106
-373,058	47,802	-0,070	0,048
-372,044	0,122	0,088	0,046
-371,029	800,000	-0,036	0,110
-370,015	-18,848	-0,043	0,020
-369,000	414,344	0,038	0,059
-367,985	273,347	-0,047	-0,061
-366,971	255,115	-0,082	-0,103
-365,956	437,307	0,042	0,067
-364,942	205,544	0,075	-0,085
-363,927	-49,265	-0,100	0,035
-362,912	800,000	-0,056	0,117
-361,898	242,680	0,071	0,087
-360,883	-31,232	-0,076	0,031
-359,869	-126,633	0,057	0,006
-358,854	-200,000	-0,021	-0,073
-357,839	424,739	-0,103	-0,163
-356,825	51,972	0,183	0,127
-355,810	800,000	-0,033	-0,078
-354,796	140,868	-0,141	-0,137
-353,781	-200,000	0,003	0,033
-352,766	23,352	-0,085	0,051
-351,752	-41,200	0,045	-0,017
-350,737	29,176	-0,068	-0,042
-349,723	800,000	-0,009	-0,020
-348,708	800,000	-0,035	0,106
-347,693	181,048	-0,026	-0,028
-346,679	319,126	0,054	-0,075
-345,664	-200,000	0,004	0,091
-344,650	800,000	0,044	-0,130
-343,635	800,000	-0,053	0,135
-342,620	800,000	0,031	-0,099
-341,606	-129,542	0,082	0,008
-340,591	154,371	-0,055	0,055
-339,577	86,144	0,031	-0,025
-338,562	-200,000	0,005	-0,132
-337,548	167,426	0,035	-0,037
-336,533	-200,000	-0,013	0,050
-335,518	-200,000	0,001	-0,045
-334,504	314,895	0,099	0,137
-333,489	703,034	0,021	-0,042
-332,475	419,444	-0,112	-0,176
-331,460	800,000	-0,008	-0,019
-330,445	154,150	0,054	-0,055
-329,431	-200,000	0,129	0,000
-328,416	-186,951	0,029	0,000
-327,402	800,000	-0,055	0,140
-326,387	-200,000	0,020	0,080
-325,372	20,564	-0,059	-0,035
-324,358	-27,375	0,165	0,070
-323,343	800,000	-0,025	-0,066
-322,329	-200,000	-0,015	0,055
-321,314	12,331	-0,122	-0,069
-320,299	379,329	-0,073	-0,110
-319,285	-55,493	-0,051	-0,017
-318,270	302,546	0,079	0,108
-317,256	31,235	-0,094	-0,059
-316,241	-200,000	0,006	-0,058
-315,226	467,466	0,073	-0,119
-314,212	-200,000	0,000	-0,041
-313,197	142,055	0,045	0,044
-312,183	-13,451	-0,122	-0,058
-311,168	229,932	0,012	0,015
-310,153	427,715	-0,024	0,038
-309,139	158,028	0,083	-0,084
-308,124	-90,493	-0,068	0,014
-307,110	-51,593	-0,064	-0,022
-306,095	346,032	0,048	0,069
-305,080	65,383	0,073	0,054
-304,066	-200,000	0,005	0,022
-303,051	48,180	-0,029	0,020
-302,037	-200,000	-0,011	-0,065
-301,022	-113,203	-0,025	-0,004
-300,008	-85,685	0,100	0,023
-298,993	-200,000	-0,034	0,150
-297,978	129,641	-0,096	0,090
-296,964	-152,575	0,133	-0,007
-295,949	220,398	-0,051	-0,060
-294,935	605,893	-0,066	-0,121
-293,920	381,170	-0,058	0,087
-292,905	-200,000	0,000	0,066
-291,891	800,000	0,026	0,058
-290,876	-200,000	0,005	0,021
-289,862	-19,039	-0,097	0,044
-288,847	754,471	0,022	0,044
-287,832	-140,555	-0,114	0,008
-286,818	-168,281	0,104	0,003
-285,803	119,811	0,052	0,047
-284,789	-200,000	-0,015	0,104
-283,774	-200,000	0,029	0,184
-282,759	555,008	-0,042	0,073
-281,745	651,158	-0,021	-0,040
-280,730	253,143	-0,038	-0,048
-279,716	72,871	-0,052	-0,040
-278,701	129,764	0,113	0,106
-277,686	-85,342	0,124	-0,028
-276,672	800,000	0,044	0,128
-275,657	425,639	0,028	0,044
-274,643	74,412	0,085	-0,065
-273,628	800,000	0,004	-0,011
-272,613	-77,152	-0,102	-0,026
-271,599	257,264	-0,017	-0,021
-270,584	-23,508	0,166	-0,073
-269,570	5,347	0,078	0,042
-268,555	533,497	0,046	0,080
-267,540	85,821	-0,114	0,092
-266,526	378,718	-0,033	-0,050
-265,511	-96,401	-0,033	0,006
-264,497	152,587	0,097	-0,097
-263,482	-200,000	-0,004	0,094
-262,467	-200,000	-0,018	0,072
-261,453	-200,000	0,010	0,044
-260,438	-140,673	0,009	-0,001
-259,424	800,000	0,043	-0,091
-258,409	15,178	-0,075	-0,043
-257,395	-200,000	-0,002	-0,006
-256,380	-41,236	-0,037	0,014
-255,365	241,092	0,023	-0,028
-254,351	-200,000	-0,033	0,143
-253,336	-166,278	-0,110	0,003
-252,322	-98,997	0,110	0,020
-251,307	-74,754	-0,159	-0,041
-250,292	-200,000	0,111	0,000
-249,278	800,000	-0,034	0,072
-248,263	-44,300	0,127	-0,046
-247,249	554,410	-0,079	-0,139
-246,234	-143,040	0,217	0,015
-245,219	-200,000	0,008	-0,026
-244,205	472,849	0,028	0,047
-243,190	-200,000	-0,021	-0,077
-242,176	122,552	-0,004	-0,003
-241,161	-200,000	0,006	0,041
-240,146	100,915	-0,073	0,062
-239,132	-130,282	-0,101	0,010
-238,117	-62,230	0,068	-0,020
-237,103	-200,000	-0,012	0,065
-236,088	-200,000	-0,019	-0,108
-235,073	-39,849	0,123	-0,047
-234,059	-130,405	0,176	0,017
-233,044	37,294	-0,090	0,058
-232,030	-32,924	-0,097	0,039
-231,015	-31,780	-0,039	-0,016
-230,000	467,864	-0,061	0,101
-228,986	-200,000	-0,008	-0,121
-227,971	132,304	0,122	-0,114
-226,957	26,414	0,118	0,072
-225,942	91,333	0,064	0,052
-224,927	800,000	-0,023	-0,056
-223,913	667,070	-0,073	-0,139
-222,898	360,429	0,052	-0,076
-221,884	87,965	0,077	-0,062
-220,869	-15,240	0,025	0,012
-219,855	-9,803	0,174	0,084
-218,840	246,617	0,075	0,093
-217,825	-143,034	-0,026	0,002
-216,811	142,871	-0,082	-0,080
-215,796	346,678	-0,024	-0,034
-214,782	800,000	0,001	0,004
-213,767	759,541	0,049	0,098
-212,752	-73,548	0,108	-0,028
-211,738	521,085	0,043	-0,075
-210,723	-200,000	0,001	0,055
-209,709	-167,180	-0,072	-0,002
-208,694	-200,000	0,003	0,123
-207,679	12,581	0,110	-0,062
-206,665	2,599	-0,018	0,010
-205,650	38,594	-0,092	0,060
-204,636	117,456	0,052	-0,047
-203,621	51,281	-0,046	-0,032
-202,606	212,001	-0,138	-0,159
-201,592	800,000	0,060	-0,181
-200,577	-200,000	-0,026	-0,094
-199,563	122,997	-0,090	0,082
-198,548	-200,000	-0,011	0,069
-197,533	-115,818	0,084	-0,011
-196,519	-131,718	0,108	0,010
-195,504	-200,000	-0,013	-0,056
-194,490	800,000	0,040	0,096
-193,475	262,195	-0,027	-0,034
-192,460	-4,417	-0,093	-0,047
-191,446	-194,762	-0,051	0,000
-190,431	800,000	0,026	0,057
-189,417	489,121	0,047	0,079
-188,402	-147,970	0,066	-0,004
-187,387	-74,933	0,091	-0,024
-186,373	-200,000	-0,023	-0,148
-185,358	-200,000	0,004	0,067
-184,344	-200,000	0,003	0,134
-183,329	579,294	0,093	0,166
-182,315	-28,844	0,133	-0,055
-181,300	85,072	0,031	-0,024
-180,285	354,880	0,031	-0,044
-179,271	162,415	-0,061	0,062
-178,256	-16,137	0,118	0,054
-177,242	-130,513	-0,098	-0,010
-176,227	800,000	0,025	-0,062
-175,212	-200,000	0,023	-0,079
-174,198	-26,475	-0,060	-0,026
-173,183	71,942	-0,048	0,036
-172,169	-200,000	0,011	0,040
-171,154	-19,296	-0,021	-0,009
-170,139	464,609	0,086	0,140
-169,125	-127,057	0,028	-0,003
-168,110	-200,000	0,003	0,090
-167,096	800,000	0,055	0,144
-166,081	-10,147	0,100	0,048
-165,066	-200,000	-0,001	-0,069
-164,052	54,340	-0,036	0,025
-163,037	800,000	0,046	0,101
-162,023	-45,954	-0,074	0,026
-161,008	200,325	-0,131	-0,147
-159,993	35,869	0,065	0,041
-158,979	800,000	-0,016	-0,039
-157,964	54,317	-0,132	0,092
-156,950	-91,104	-0,077	0,016
-155,935	375,297	-0,093	0,138
-154,920	-200,000	-0,015	0,052
-153,906	414,447	0,041	0,063
-152,891	800,000	0,049	0,130
-151,877	211,985	-0,054	0,062
-150,862	296,715	-0,034	0,045
-149,847	720,367	0,094	0,182
-148,833	-200,000	0,019	0,071
-147,818	-200,000	0,021	0,178
-146,804	254,274	-0,075	0,094
-145,789	147,984	0,103	0,101
-144,775	27,847	0,057	0,035
-143,760	-200,000	0,022	-0,136
-142,745	24,665	0,030	-0,018
-141,731	-117,845	0,061	-0,008
-140,716	800,000	0,011	0,034
-139,702	623,446	0,060	0,111
-138,687	216,044	0,076	0,088
-137,672	-131,544	-0,070	0,007
-136,658	-200,000	-0,022	-0,125
-135,643	796,340	-0,040	-0,081
-134,629	62,121	-0,068	0,049
-133,614	-200,000	0,003	0,029
-132,599	-80,950	-0,090	-0,022
-131,585	-19,312	-0,127	0,057
-130,570	-69,608	0,096	0,026
-129,556	128,847	0,040	-0,037
-128,541	21,736	0,099	-0,058
-127,526	414,300	0,069	-0,108
-126,512	-147,349	-0,063	-0,004
-125,497	147,770	0,066	-0,064
-124,483	-134,956	0,158	-0,014
-123,468	800,000	-0,019	-0,058
-122,453	35,585	0,085	-0,054
-121,439	-200,000	0,001	0,055
-120,424	-200,000	-0,013	-0,091
-119,410	-177,602	0,104	0,002
-118,395	611,099	0,056	-0,103
-117,380	750,904	0,020	0,039
-116,366	223,644	0,028	-0,033
-115,351	67,776	-0,117	0,087
-114,337	15,837	0,068	0,039
-113,322	800,000	0,080	0,180
-112,307	-10,552	0,057	-0,027
-111,293	-10,628	0,036	0,017
-110,278	63,735	0,072	0,053
-109,264	-17,887	-0,098	0,044
-108,249	-200,000	-0,013	-0,078
-107,234	-200,000	-0,023	0,087
-106,220	81,989	-0,126	-0,099
-105,205	23,312	0,020	0,012
-104,191	-122,694	0,100	-0,012
-103,176	109,553	0,074	0,064
-102,162	-134,433	-0,040	-0,003
-101,147	-40,654	0,059	0,022
-100,132	160,445	0,070	-0,071
-99,118	800,000	0,009	-0,024
-98,103	-84,237	0,151	0,034
-97,089	306,403	0,041	-0,055
-96,074	-84,678	-0,043	-0,010
-95,059	774,613	-0,012	0,023
-94,045	-70,782	0,039	0,011
-93,030	90,204	-0,101	-0,082
-92,016	110,223	0,087	-0,076
-91,001	800,000	0,011	-0,034
-89,986	68,633	0,044	-0,033
-88,972	800,000	0,024	-0,053
-87,957	-156,376	0,074	-0,003
-86,943	87,396	-0,072	-0,057
-85,928	-55,177	0,042	-0,014
-84,913	-57,680	0,046	-0,015
-83,899	100,124	0,059	-0,050
-82,884	800,000	-0,040	0,129
-81,870	24,828	-0,054	0,032
-80,855	-200,000	-0,008	-0,039
-79,840	197,668	0,107	-0,118
-78,826	-140,038	0,113	0,008
-77,811	-200,000	0,016	-0,097
-76,797	692,024	0,078	0,148
-75,782	116,610	0,093	-0,083
-74,767	-200,000	0,001	-0,039
-73,753	-85,349	0,191	-0,043
-72,738	-200,000	0,009	0,130
-71,724	12,852	-0,139	-0,078
-70,709	427,948	0,082	-0,128
-69,694	800,000	0,014	0,034
-68,680	17,870	0,032	0,018
-67,665	-200,000	0,015	-0,098
-66,651	800,000	-0,037	0,089
-65,636	-200,000	-0,008	0,095
-64,622	-200,000	0,020	-0,146
-63,607	-137,829	0,093	0,007
-62,592	800,000	0,050	-0,110
-61,578	-200,000	-0,006	0,022
-60,563	-200,000	0,059	-0,000
-59,549	-200,000	0,024	-0,083
-58,534	-89,851	-1,478	-0,310
-57,519	759,849	-0,770	-1,519
-56,505	-200,000	-0,910	-4,455
-55,490	-191,981	0,512	-0,003
-54,476	800,000	5,014	11,802
-53,461	-200,000	15,023	263,812
-52,446	-200,000	700,164	2264,903
-51,432	595,111	1623,922	2923,066
-50,417	120,324	1629,249	1465,394
-49,403	79,748	1282,769	997,119
-48,388	37,628	1021,042	655,183
-47,373	22,864	981,105	581,064
-46,359	21,968	970,298	571,709
-45,344	20,665	965,973	564,885
-44,330	20,646	964,738	564,079
-43,315	20,444	963,214	562,506
-42,300	20,467	962,088	561,900
-41,286	20,474	961,255	561,416
-40,271	20,439	960,304	560,725
-39,257	20,496	959,308	560,305
-38,242	20,523	958,541	559,922
-37,227	20,485	957,781	559,331
-36,213	20,478	956,625	558,612
-35,198	20,432	955,839	557,982
-34,184	20,455	955,095	557,600
-33,169	20,405	954,160	556,870
-32,154	20,474	953,134	556,471
-31,140	20,492	952,129	555,922
-30,125	20,450	951,740	555,537
-29,111	20,396	950,785	554,785
-28,096	20,428	950,072	554,450
-27,082	20,454	949,465	554,157
-26,067	20,447	948,430	553,507
-25,052	20,418	947,888	553,078
-24,038	20,422	947,240	552,688
-23,023	20,399	946,649	552,248
-22,009	20,489	945,739	551,983
-20,994	20,479	945,331	551,690
-19,979	20,446	944,749	551,224
-18,965	20,439	944,071	550,787
-17,950	20,471	943,432	550,492
-16,936	20,388	942,698	549,777
-15,921	20,416	942,046	549,464
-14,906	20,361	941,434	548,910
-13,892	20,326	940,737	548,372
-12,877	20,312	940,107	547,940
-11,863	20,261	939,704	547,520
-10,848	20,360	938,937	547,366
-9,833	20,467	938,301	547,311
-8,819	20,329	937,889	546,613
-7,804	20,286	937,255	546,085
-6,790	20,344	936,673	545,909
-5,775	20,353	936,114	545,588
-4,760	20,354	935,481	545,201
-3,746	20,361	934,892	544,858
-2,731	20,191	934,100	543,840
-1,717	20,137	933,460	543,276
-0,702	20,176	932,764	542,970
0,313	19,973	932,123	542,780
1,327	22,405	929,751	548,989
2,342	29,977	805,703	496,199
3,356	24,202	506,468	302,067
4,371	-0,194	372,779	191,338
5,386	-3,119	356,043	179,147
6,400	-4,137	350,115	174,921
7,415	-4,539	347,751	173,242
8,429	-4,471	346,379	172,625
9,444	-4,511	345,443	172,095
10,459	-4,548	344,938	171,785
11,473	-4,442	344,195	171,524
12,488	-4,575	343,660	171,085
13,502	-4,470	342,926	170,829
14,517	-4,604	342,592	170,488
15,531	-4,444	341,989	170,361
16,546	-4,328	341,792	170,385
17,561	-4,400	341,235	170,008
18,575	-4,242	340,813	169,968
19,590	-4,338	340,450	169,659
20,604	-4,311	340,142	169,522
21,619	-4,215	339,638	169,368
22,634	-4,370	339,477	169,092
23,648	-4,419	339,136	168,849
24,663	-4,365	338,778	168,719
25,677	-4,296	338,425	168,608
26,692	-4,338	337,979	168,322
27,707	-4,306	337,811	168,261
28,721	-4,296	337,625	168,166
29,736	-4,239	337,138	167,973
30,750	-4,309	336,713	167,666
31,765	-4,362	336,564	167,515
32,780	-4,443	336,328	167,289
33,794	-4,251	336,161	167,414
34,809	-4,296	335,694	167,114
35,823	-4,284	335,484	167,008
36,838	-4,299	335,246	166,857
37,853	-4,383	334,813	166,531
38,867	-4,442	334,752	166,417
39,882	-4,222	334,333	166,447
40,896	-4,281	334,065	166,231
41,911	-4,282	333,811	166,089
42,926	-4,323	333,606	165,925
43,940	-4,209	333,291	165,884
44,955	-4,393	332,942	165,485
45,969	-4,235	332,755	165,558
46,984	-4,195	332,446	165,434
47,999	-4,161	332,207	165,339
49,013	-4,207	332,037	165,189
50,028	-4,051	331,707	165,188
51,042	-4,244	331,541	164,871
52,057	-4,300	331,341	164,692
53,071	-4,284	330,919	164,486
54,086	-4,313	330,686	164,322
55,101	-4,314	330,487	164,208
56,115	-4,119	330,143	164,243
57,130	-4,309	329,927	163,906
58,144	-4,271	329,645	163,794
59,159	-4,379	329,486	163,579
60,174	-4,333	329,041	163,394
61,188	-4,244	328,792	163,357
62,203	-4,373	328,731	163,167
63,217	-4,340	328,538	163,094
64,232	-4,239	328,074	162,962
65,247	-4,297	327,726	162,709
66,261	-4,356	327,455	162,495
67,276	-4,409	327,384	162,385
68,290	-4,293	327,068	162,344
69,305	-4,227	326,786	162,264
70,320	-4,176	326,422	162,125
71,334	-4,231	326,277	161,978
72,349	-4,196	326,001	161,865
73,363	-4,226	325,652	161,643
74,378	-4,203	325,383	161,522
75,393	-4,259	325,083	161,296
76,407	-4,248	325,010	161,257
77,422	-4,356	324,685	160,961
78,436	-4,255	324,400	160,918
79,451	-4,338	324,022	160,625
80,466	-4,277	323,926	160,630
81,480	-4,355	323,697	160,416
82,495	-4,211	323,451	160,439
83,509	-4,388	323,576	160,290
84,524	-4,310	323,102	160,128
85,539	-4,248	322,820	160,042
86,553	-4,244	322,476	159,862
87,568	-4,253	322,291	159,745
88,582	-4,274	322,049	159,589
89,597	-4,367	321,867	159,382
90,611	-4,295	321,492	159,262
91,626	-4,189	321,226	159,232
92,641	-4,140	321,103	159,210
93,655	-4,232	320,904	158,997
94,670	-4,252	320,620	158,820
95,684	-4,332	320,557	158,687
96,699	-4,299	320,167	158,516
97,714	-4,207	319,842	158,440
98,728	-4,092	319,615	158,440
99,743	-4,105	319,424	158,318
100,757	-4,168	319,250	158,149
101,772	-4,211	318,901	157,914
102,787	-4,306	318,797	157,746
103,801	-4,310	318,513	157,587
104,816	-4,223	318,271	157,547
105,830	-4,281	318,094	157,382
106,845	-4,269	317,786	157,229
107,860	-4,170	317,564	157,212
108,874	-4,274	317,400	157,004
109,889	-4,312	316,991	156,746
110,903	-4,228	316,813	156,736
111,918	-4,300	316,609	156,543
112,933	-4,291	316,413	156,442
113,947	-4,330	316,180	156,271
114,962	-4,272	315,757	156,110
115,976	-4,172	315,571	156,112
116,991	-4,184	315,379	155,991
118,006	-4,184	315,299	155,937
119,020	-4,318	315,206	155,733
120,035	-4,232	314,856	155,638
121,049	-4,230	314,751	155,575
122,064	-4,374	314,427	155,246
123,079	-4,419	314,241	155,093
124,093	-4,334	314,023	155,062
125,108	-4,257	313,717	154,980
126,122	-4,076	313,334	154,970
127,137	-4,175	313,423	154,894
128,151	-4,127	313,137	154,791
129,166	-4,063	312,779	154,667
130,181	-4,155	312,553	154,444
131,195	-4,267	312,441	154,256
132,210	-4,147	312,112	154,207
133,224	-4,251	311,859	153,957
134,239	-4,279	311,657	153,815
135,254	-4,234	311,405	153,725
136,268	-4,287	311,254	153,580
137,283	-4,260	310,963	153,451
138,297	-4,150	310,855	153,501
139,312	-4,238	310,480	153,209
140,327	-4,406	310,346	152,951
141,341	-4,138	310,078	153,089
142,356	-4,315	309,918	152,810
143,370	-4,134	309,572	152,816
144,385	-4,130	309,378	152,711
145,400	-4,314	309,226	152,429
146,414	-4,304	308,944	152,286
147,429	-4,249	308,668	152,195
148,443	-4,251	308,597	152,144
149,458	-4,362	308,388	151,911
150,473	-4,167	308,095	151,957
151,487	-4,283	307,934	151,743
152,502	-4,259	307,729	151,653
153,516	-4,221	307,499	151,566
154,531	-4,062	307,188	151,566
155,546	-4,166	307,171	151,435
156,560	-4,135	306,879	151,310
157,575	-4,196	306,509	151,050
158,589	-4,168	306,243	150,934
159,604	-4,133	306,133	150,904
160,619	-4,294	305,981	150,648
161,633	-4,078	305,728	150,735
162,648	-4,159	305,583	150,565
163,662	-4,281	305,503	150,386
164,677	-4,345	305,334	150,222
165,692	-4,100	305,020	150,309
166,706	-3,991	304,733	150,267
167,721	-4,077	304,654	150,126
168,735	-4,176	304,430	149,899
169,750	-4,222	304,191	149,721
170,764	-4,087	303,977	149,741
171,779	-4,297	303,830	149,439
172,794	-4,241	303,793	149,465
173,808	-4,205	303,369	149,280
174,823	-4,142	303,182	149,240
175,837	-4,112	302,860	149,099
176,852	-4,304	302,786	148,851
177,867	-4,310	302,570	148,726
178,881	-4,248	302,358	148,672
179,896	-4,274	302,213	148,561
180,910	-4,039	301,785	148,578
181,925	-4,296	301,597	148,209
182,940	-4,148	301,467	148,284
183,954	-4,334	301,426	148,060
184,969	-4,156	301,150	148,092
185,983	-4,163	300,954	147,976
186,998	-4,128	300,684	147,866
188,013	-4,159	300,481	147,722
189,027	-4,262	300,273	147,502
190,042	-4,238	300,089	147,422
191,056	-4,132	299,831	147,390
192,071	-4,306	299,731	147,151
193,086	-4,240	299,366	147,026
194,100	-4,339	299,109	146,785
195,115	-4,212	298,951	146,824
196,129	-4,073	298,740	146,848
197,144	-4,256	298,544	146,553
198,159	-4,306	298,281	146,361
199,173	-4,172	298,050	146,369
200,188	-4,264	297,880	146,180
201,202	-4,171	297,755	146,199
202,217	-4,152	297,581	146,120
203,232	-3,999	297,167	146,058
204,246	-4,034	296,937	145,896
205,261	-4,031	296,750	145,795
206,275	-4,062	296,694	145,723
207,290	-3,920	296,530	145,772
208,304	-4,031	296,266	145,518
209,319	-4,025	296,140	145,449
210,334	-4,086	295,953	145,283
211,348	-4,101	295,708	145,135
212,363	-4,254	295,592	144,912
213,377	-3,880	295,124	145,044
214,392	-4,059	295,106	144,843
215,407	-4,082	294,825	144,669
216,421	-4,087	294,676	144,578
217,436	-4,183	294,377	144,323
218,450	-4,303	294,377	144,191
219,465	-4,165	294,018	144,139
220,480	-4,207	293,949	144,050
221,494	-4,356	293,870	143,851
222,509	-4,300	293,579	143,751
223,523	-4,164	293,260	143,717
224,538	-4,217	293,149	143,597
225,553	-4,069	292,979	143,648
226,567	-4,163	292,823	143,466
227,582	-4,128	292,527	143,342
228,596	-4,370	292,509	143,081
229,611	-4,200	292,271	143,120
230,626	-4,135	291,983	143,031
231,640	-4,125	291,711	142,895
232,655	-4,034	291,631	142,932
233,669	-4,016	291,361	142,805
234,684	-4,146	291,313	142,640
235,699	-3,915	290,975	142,689
236,713	-4,087	290,865	142,454
237,728	-4,102	290,753	142,371
238,742	-4,145	290,529	142,207
239,757	-4,064	290,210	142,117
240,772	-4,229	290,021	141,850
241,786	-4,333	289,949	141,701
242,801	-4,240	289,770	141,692
243,815	-4,182	289,651	141,678
244,830	-4,042	289,252	141,606
245,844	-3,993	289,090	141,562
246,859	-4,254	288,959	141,231
247,874	-4,183	288,778	141,199
248,888	-4,259	288,563	141,008
249,903	-4,187	288,269	140,921
250,917	-4,252	288,174	140,799
251,932	-4,331	287,853	140,553
252,947	-4,576	287,524	140,142
253,961	-5,105	287,133	139,427
254,976	-5,612	286,743	138,734
255,990	-5,330	286,670	138,960
257,005	-3,854	287,297	140,681
258,020	-1,313	288,190	143,572
259,034	-0,030	288,450	144,933
260,049	0,517	288,476	145,463
261,063	0,891	288,477	145,814
262,078	1,156	288,528	146,084
263,093	1,625	288,213	146,365
264,107	1,775	288,169	146,474
265,122	2,040	288,062	146,664
266,136	2,135	287,883	146,651
267,151	2,224	287,808	146,685
268,166	2,012	287,552	146,337
269,180	2,024	287,394	146,256
270,195	2,113	287,222	146,241
271,209	2,268	287,030	146,279
272,224	2,071	286,826	145,973
273,239	2,007	286,635	145,801
274,253	2,033	286,350	145,668
275,268	1,921	286,264	145,504
276,282	1,893	286,043	145,352
277,297	1,856	285,858	145,209
278,312	1,863	285,675	145,110
279,326	1,969	285,469	145,094
280,341	2,040	285,247	145,036
281,355	1,852	285,134	144,786
282,370	1,912	284,864	144,693
283,384	2,061	284,659	144,719
284,399	1,879	284,582	144,493
285,414	1,905	284,266	144,344
286,428	1,998	284,122	144,346
287,443	1,900	284,065	144,212
288,457	2,068	283,638	144,142
289,472	1,897	283,632	143,963
290,487	1,836	283,267	143,708
291,501	1,857	283,138	143,649
292,516	1,758	283,041	143,493
293,530	1,689	282,936	143,362
294,545	1,770	282,656	143,283
295,560	1,735	282,464	143,141
296,574	1,795	282,244	143,074
297,589	1,725	282,037	142,889
298,603	1,887	281,716	142,867
299,618	1,755	281,786	142,765
300,633	1,896	281,507	142,744
301,647	1,743	281,564	142,616
302,662	1,854	281,354	142,601
303,676	1,967	280,947	142,488
304,691	1,887	280,850	142,351
305,706	1,841	280,766	142,252
306,720	1,986	280,565	142,274
307,735	2,047	280,312	142,190
308,749	1,843	280,111	141,885
309,764	1,946	280,004	141,914
310,779	1,900	279,777	141,743
311,793	1,917	279,546	141,629
312,808	1,782	279,462	141,449
313,822	1,898	279,187	141,405
314,837	2,135	278,919	141,477
315,852	1,897	278,795	141,181
316,866	1,843	278,703	141,071
317,881	2,057	278,486	141,148
318,895	1,928	278,277	140,909
319,910	1,959	277,999	140,784
320,925	2,007	277,998	140,816
321,939	1,819	277,800	140,528
322,954	2,044	277,690	140,670
323,968	2,079	277,640	140,663
324,983	1,841	277,381	140,299
325,997	1,927	277,049	140,199
327,012	2,099	276,867	140,252
328,027	1,967	276,804	140,087
329,041	2,081	276,628	140,090
330,056	1,988	276,402	139,877
331,070	2,049	276,184	139,811
332,085	2,206	275,984	139,842
333,100	2,166	275,781	139,690
334,114	2,146	275,664	139,600
335,129	2,078	275,247	139,313
336,143	2,050	275,309	139,307
337,158	2,008	275,115	139,158
338,173	2,021	274,989	139,093
339,187	1,881	274,872	138,894
340,202	2,099	274,528	138,907
341,216	2,025	274,395	138,759
342,231	2,112	274,234	138,745
343,246	2,027	274,177	138,626
344,260	2,014	274,015	138,521
345,275	2,092	273,730	138,435
346,289	2,027	273,598	138,296
347,304	2,133	273,357	138,259
348,319	2,044	273,212	138,093
349,333	2,187	273,160	138,184
350,348	2,206	272,851	138,032
351,362	2,135	272,670	137,864
352,377	2,212	272,535	137,854
353,392	2,229	272,358	137,767
354,406	1,963	272,324	137,496
355,421	191,806	1347,154	1426,715
356,435	154,865	1478,191	1426,818
