DTS Sentinel unit serial number:	SN410029Multiplexer serial number:	ORYXHardware model number:	OX2-SRSoftware version number:	ORYX F/W v4,00 Oryx Data Collector v3.7.2.0data status	okinstallation	B4 Nyhavnadifferential loss correction	single-endedforward channel	channel 2reverse channel	N/Adate	2023/12/18time	19:30:13forward acquisition time	300,00reverse acquisition time	0,00gamma	499,1914k internal	0,3124k external	0,3124temperature offset calibration	1,0000default loss term (dB/km)	0,3820temperature slope calibration	1,0000multiplexer offset coefficient	1,0000multiplexer slope coefficient	1,0000fibre end	0,00T internal ref (°C)	21,87T ext. ref 1 (°C)	6,97T ext. ref 2 (°C)	6,99length (m)	temperature (°C)	Stokes	anti-Stokes-744,400	31,588	0,173	-0,111
-743,385	-141,174	-0,256	0,019
-742,371	-97,767	0,151	0,029
-741,356	-94,776	-0,250	0,050
-740,342	-17,711	0,051	0,024
-739,327	119,543	-0,187	0,173
-738,312	-200,000	0,004	0,059
-737,298	9,109	-0,215	0,121
-736,283	-200,000	0,006	-0,067
-735,269	446,542	-0,100	0,165
-734,254	-12,174	0,119	-0,058
-733,239	-120,443	-0,370	-0,046
-732,225	181,297	0,115	-0,126
-731,210	64,248	-0,070	0,052
-730,196	-27,931	-0,046	0,020
-729,181	-15,705	-0,129	0,061
-728,167	-135,838	0,256	0,022
-727,152	66,632	0,058	-0,044
-726,137	158,578	-0,044	-0,046
-725,123	2,586	-0,111	-0,060
-724,108	-200,000	-0,006	-0,047
-723,094	-70,846	-0,165	0,046
-722,079	121,808	-0,073	0,068
-721,064	800,000	0,029	0,072
-720,050	-51,318	0,094	-0,033
-719,035	800,000	0,033	0,072
-718,021	-154,880	-0,091	-0,004
-717,006	-15,054	-0,068	-0,032
-715,991	552,105	0,042	-0,076
-714,977	386,903	-0,064	-0,098
-713,962	-51,659	0,094	0,032
-712,948	800,000	-0,018	-0,044
-711,933	10,944	-0,051	-0,029
-710,918	70,595	0,060	0,046
-709,904	62,574	-0,080	-0,059
-708,889	-200,000	-0,029	-0,160
-707,875	800,000	0,020	0,055
-706,860	119,525	-0,064	0,059
-705,845	-101,108	0,074	-0,013
-704,831	800,000	0,006	0,018
-703,816	-200,000	-0,003	-0,021
-702,802	-200,000	-0,053	-0,182
-701,787	-200,000	-0,009	0,031
-700,772	-102,134	-0,103	-0,018
-699,758	89,482	-0,042	0,035
-698,743	-90,910	0,063	-0,013
-697,729	377,862	0,092	0,141
-696,714	-89,788	-0,071	0,015
-695,699	269,944	-0,028	-0,036
-694,685	412,159	0,046	-0,073
-693,670	800,000	-0,029	-0,062
-692,656	-200,000	-0,022	-0,080
-691,641	-39,123	0,050	0,019
-690,627	-200,000	0,012	0,086
-689,612	36,565	-0,111	0,073
-688,597	101,877	-0,093	0,081
-687,583	-64,332	-0,095	0,029
-686,568	83,634	-0,037	0,030
-685,554	-200,000	-0,003	-0,041
-684,539	106,497	0,017	-0,015
-683,524	-200,000	-0,020	-0,088
-682,510	64,689	0,016	-0,012
-681,495	800,000	0,020	0,053
-680,481	-200,000	0,009	0,125
-679,466	413,468	-0,055	-0,087
-678,451	-200,000	0,006	-0,056
-677,437	183,554	-0,096	-0,106
-676,422	247,605	0,073	-0,092
-675,408	-130,297	-0,114	-0,011
-674,393	-192,681	0,024	0,000
-673,378	67,414	-0,098	-0,075
-672,364	-20,272	0,056	0,026
-671,349	-112,286	0,125	0,018
-670,335	-165,792	0,119	-0,004
-669,320	-23,031	-0,026	0,012
-668,305	-35,709	0,151	0,061
-667,291	-200,000	-0,013	-0,081
-666,276	-200,000	-0,008	-0,129
-665,262	69,209	-0,123	0,094
-664,247	800,000	0,015	-0,042
-663,232	-140,957	-0,051	0,004
-662,218	-46,381	0,031	0,011
-661,203	-200,000	-0,005	0,142
-660,189	-54,294	-0,028	-0,009
-659,174	58,637	-0,090	-0,066
-658,159	243,634	-0,025	-0,032
-657,145	-84,823	-0,153	0,035
-656,130	-200,000	-0,010	0,065
-655,116	-135,355	0,012	0,001
-654,101	-146,777	0,133	-0,008
-653,086	-200,000	0,011	-0,102
-652,072	-200,000	0,022	-0,172
-651,057	800,000	-0,024	-0,061
-650,043	-200,000	0,007	-0,133
-649,028	87,165	0,052	0,042
-648,014	564,229	0,027	0,049
-646,999	-133,852	0,257	-0,023
-645,984	-9,289	-0,029	-0,015
-644,970	-124,762	0,064	0,007
-643,955	-15,306	-0,110	0,052
-642,941	-61,751	-0,115	-0,036
-641,926	800,000	0,036	-0,076
-640,911	436,072	0,044	-0,071
-639,897	302,047	-0,037	-0,051
-638,882	94,343	0,082	0,069
-637,868	396,294	-0,043	-0,067
-636,853	800,000	-0,028	-0,065
-635,838	-200,000	-0,006	0,023
-634,824	-200,000	-0,009	-0,071
-633,809	800,000	0,007	0,020
-632,795	800,000	0,064	0,133
-631,780	800,000	-0,051	0,121
-630,765	-200,000	0,029	0,106
-629,751	-200,000	-0,004	-0,018
-628,736	34,677	-0,102	-0,066
-627,722	131,179	-0,027	0,026
-626,707	159,427	0,088	-0,091
-625,692	192,738	-0,078	0,088
-624,678	-59,920	-0,030	0,009
-623,663	-45,498	0,048	-0,017
-622,649	-200,000	0,001	-0,128
-621,634	-154,340	0,107	0,005
-620,619	-200,000	-0,033	-0,198
-619,605	773,525	-0,031	-0,062
-618,590	231,115	-0,040	-0,049
-617,576	-63,562	0,093	-0,028
-616,561	-137,390	0,012	-0,001
-615,546	-168,838	-0,140	-0,004
-614,532	16,279	-0,063	-0,037
-613,517	-200,000	-0,011	0,123
-612,503	-152,938	0,076	0,004
-611,488	-10,818	-0,047	0,023
-610,474	123,147	-0,149	-0,138
-609,459	-56,134	0,167	-0,055
-608,444	800,000	-0,040	-0,114
-607,430	607,333	-0,077	0,144
-606,415	-86,181	-0,044	-0,010
-605,401	117,799	-0,043	-0,039
-604,386	-200,000	-0,009	0,065
-603,371	-200,000	0,008	0,044
-602,357	-99,651	-0,076	-0,014
-601,342	311,743	-0,092	-0,128
-600,328	68,412	-0,057	0,043
-599,313	183,514	-0,066	-0,073
-598,298	32,107	-0,052	0,033
-597,284	800,000	0,043	0,102
-596,269	479,116	-0,025	-0,042
-595,255	62,831	0,055	0,041
-594,240	-69,342	-0,076	0,021
-593,225	137,753	-0,039	-0,038
-592,211	24,101	-0,066	0,041
-591,196	210,082	0,044	-0,052
-590,182	-200,000	-0,003	-0,035
-589,167	-159,036	0,059	0,002
-588,152	495,580	0,062	-0,105
-587,138	-200,000	0,021	0,084
-586,123	-108,104	-0,069	0,011
-585,109	22,403	-0,065	-0,039
-584,094	-144,630	0,173	-0,012
-583,079	-200,000	-0,012	-0,050
-582,065	174,703	-0,025	0,027
-581,050	-200,000	-0,010	0,039
-580,036	-200,000	-0,006	-0,058
-579,021	776,903	-0,051	-0,103
-578,006	-44,001	-0,060	-0,022
-576,992	-107,120	-0,116	-0,019
-575,977	109,720	-0,062	-0,055
-574,963	-54,595	0,036	-0,012
-573,948	-200,000	0,019	0,063
-572,934	132,432	-0,121	-0,115
-571,919	313,650	0,046	-0,064
-570,904	-113,651	-0,060	0,009
-569,890	15,214	-0,081	-0,047
-568,875	49,410	0,074	-0,051
-567,861	53,589	-0,064	0,045
-566,846	-71,702	0,020	-0,006
-565,831	163,046	-0,011	0,011
-564,817	197,380	0,065	0,073
-563,802	480,994	-0,030	-0,050
-562,788	41,031	0,074	-0,050
-561,773	-9,725	-0,026	-0,013
-560,758	52,517	0,061	0,043
-559,744	-114,761	0,073	0,010
-558,729	-200,000	0,007	0,115
-557,715	-154,601	0,119	-0,006
-556,700	-56,624	0,049	0,016
-555,685	391,939	-0,031	-0,047
-554,671	-200,000	-0,003	0,011
-553,656	800,000	-0,043	0,132
-552,642	800,000	-0,034	0,103
-551,627	-200,000	-0,029	0,132
-550,612	-200,000	0,014	-0,052
-549,598	266,385	-0,023	-0,030
-548,583	-96,896	-0,170	0,033
-547,569	1,263	-0,054	-0,029
-546,554	-116,474	0,137	-0,019
-545,539	620,512	0,031	0,058
-544,525	-97,483	0,039	0,008
-543,510	497,962	0,064	0,110
-542,496	-200,000	0,015	-0,089
-541,481	408,444	0,013	-0,020
-540,466	-200,000	0,063	0,000
-539,452	-179,256	0,090	0,001
-538,437	-200,000	0,001	0,046
-537,423	-142,683	0,040	-0,003
-536,408	-87,230	-0,134	0,030
-535,393	85,042	0,020	-0,017
-534,379	-117,317	-0,106	0,014
-533,364	-48,317	-0,053	0,019
-532,350	-62,115	0,069	0,021
-531,335	800,000	-0,060	-0,125
-530,321	-0,635	-0,031	-0,016
-529,306	-200,000	0,005	0,089
-528,291	337,573	0,043	0,063
-527,277	21,587	-0,045	-0,027
-526,262	-74,767	-0,070	-0,018
-525,248	-200,000	-0,030	0,145
-524,233	-200,000	0,011	-0,077
-523,218	-178,551	0,093	0,002
-522,204	-71,476	-0,079	-0,022
-521,189	-144,088	-0,044	-0,003
-520,175	800,000	0,026	0,056
-519,160	-82,711	-0,100	0,024
-518,145	-28,254	0,152	0,065
-517,131	800,000	0,051	0,122
-516,116	40,320	0,014	0,009
-515,102	-200,000	-0,019	-0,071
-514,087	128,604	-0,060	-0,057
-513,072	536,544	-0,023	0,041
-512,058	99,326	-0,126	-0,107
-511,043	502,287	0,048	0,083
-510,029	-115,147	-0,033	-0,005
-509,014	800,000	0,039	0,101
-507,999	114,207	-0,051	0,046
-506,985	-134,356	-0,103	-0,009
-505,970	-200,000	-0,054	-0,178
-504,956	-200,000	0,023	0,112
-503,941	-84,581	0,099	-0,023
-502,926	-23,419	-0,038	0,017
-501,912	-200,000	0,000	0,018
-500,897	-15,234	0,155	0,073
-499,883	-200,000	-0,019	0,101
-498,868	-60,085	-0,189	-0,059
-497,853	468,235	-0,057	-0,095
-496,839	-200,000	-0,005	-0,040
-495,824	294,119	0,022	-0,029
-494,810	-108,496	0,038	-0,006
-493,795	696,831	0,038	0,073
-492,781	482,188	-0,047	-0,079
-491,766	-200,000	0,030	-0,118
-490,751	785,994	0,046	-0,094
-489,737	-110,274	-0,066	-0,010
-488,722	-17,935	0,076	-0,035
-487,708	-116,524	0,086	-0,012
-486,693	-200,000	-0,002	-0,056
-485,678	-126,077	-0,060	0,007
-484,664	770,461	0,035	0,071
-483,649	-200,000	0,031	-0,131
-482,635	800,000	0,020	-0,057
-481,620	379,690	0,078	-0,119
-480,605	380,885	0,077	0,117
-479,591	19,661	0,118	0,070
-478,576	-27,788	0,082	-0,035
-477,562	100,014	0,072	-0,061
-476,547	-46,254	0,078	0,028
-475,532	-200,000	-0,008	-0,075
-474,518	-200,000	-0,001	-0,067
-473,503	-77,507	-0,077	-0,019
-472,489	-46,458	0,059	0,021
-471,474	46,175	0,037	0,025
-470,459	-93,309	-0,095	-0,019
-469,445	204,213	0,033	-0,038
-468,430	-200,000	0,019	-0,131
-467,416	-200,000	0,014	0,071
-466,401	-193,850	0,118	-0,001
-465,386	16,400	-0,035	0,021
-464,372	-72,939	-0,166	-0,045
-463,357	-19,557	0,088	-0,040
-462,343	-48,878	-0,174	-0,061
-461,328	800,000	0,024	-0,066
-460,313	-200,000	-0,016	-0,058
-459,299	800,000	0,059	0,125
-458,284	-200,000	0,017	-0,150
-457,270	-145,870	0,070	0,004
-456,255	649,213	0,055	0,104
-455,241	800,000	0,032	-0,079
-454,226	61,355	-0,061	0,044
-453,211	-110,194	0,080	0,012
-452,197	39,837	-0,034	-0,022
-451,182	-200,000	0,002	0,023
-450,168	-47,951	-0,081	0,029
-449,153	-62,633	-0,136	0,041
-448,138	-153,013	0,058	0,003
-447,124	800,000	0,034	-0,072
-446,109	800,000	0,027	-0,069
-445,095	-60,461	0,031	0,010
-444,080	158,609	0,054	0,056
-443,065	-200,000	0,021	0,081
-442,051	-27,057	-0,060	-0,026
-441,036	-180,033	-0,053	0,001
-440,022	295,463	-0,067	-0,091
-439,007	25,246	0,150	0,092
-437,992	-200,000	-0,031	0,110
-436,978	185,105	0,006	0,007
-435,963	184,631	0,060	0,066
-434,949	-200,000	0,018	0,118
-433,934	-52,001	-0,057	0,019
-432,919	0,946	-0,095	0,050
-431,905	391,601	0,035	0,054
-430,890	-6,248	0,072	0,036
-429,876	-53,683	-0,088	-0,030
-428,861	-200,000	-0,009	0,146
-427,846	-35,393	-0,046	-0,018
-426,832	729,992	0,032	-0,064
-425,817	-34,103	-0,017	-0,007
-424,803	65,100	0,059	0,044
-423,788	113,704	0,147	0,132
-422,773	263,650	-0,082	0,106
-421,759	81,445	0,181	0,144
-420,744	196,003	-0,007	-0,008
-419,730	486,031	0,054	0,091
-418,715	339,464	0,082	-0,118
-417,701	-87,740	-0,119	0,026
-416,686	-200,000	-0,024	-0,091
-415,671	79,214	-0,122	0,096
-414,657	50,887	-0,032	-0,022
-413,642	-200,000	0,009	0,044
-412,628	-69,078	-0,109	-0,031
-411,613	-200,000	-0,025	-0,264
-410,598	-157,685	0,019	0,001
-409,584	59,503	-0,051	-0,037
-408,569	-40,198	0,084	-0,032
-407,555	122,965	0,055	-0,050
-406,540	800,000	-0,014	-0,033
-405,525	-37,616	-0,116	0,045
-404,511	-200,000	0,015	0,066
-403,496	68,344	-0,074	0,056
-402,482	-126,514	-0,078	0,008
-401,467	38,504	0,132	0,086
-400,452	-200,000	-0,003	0,050
-399,438	694,682	-0,032	-0,062
-398,423	59,310	-0,034	0,024
-397,409	-200,000	0,021	0,076
-396,394	-145,243	0,152	-0,010
-395,379	309,912	0,051	0,071
-394,365	-200,000	0,045	0,157
-393,350	191,384	0,084	0,093
-392,336	35,455	0,030	0,020
-391,321	-22,532	-0,110	0,049
-390,306	-56,858	0,005	-0,001
-389,292	-60,730	0,084	0,026
-388,277	-160,163	-0,153	0,006
-387,263	189,778	0,015	-0,016
-386,248	132,880	-0,020	0,019
-385,233	-65,875	-0,100	0,029
-384,219	-200,000	0,014	0,138
-383,204	-179,425	-0,119	0,002
-382,190	-200,000	-0,001	-0,114
-381,175	179,364	-0,023	-0,025
-380,160	-31,030	-0,063	-0,026
-379,146	-200,000	0,002	0,014
-378,131	800,000	-0,023	0,057
-377,117	-200,000	-0,022	0,082
-376,102	152,359	0,019	0,019
-375,088	-113,727	-0,055	-0,008
-374,073	800,000	-0,025	-0,058
-373,058	-1,763	0,054	0,028
-372,044	103,022	-0,067	0,058
-371,029	422,305	0,022	0,035
-370,015	65,209	0,070	0,052
-369,000	800,000	-0,034	0,072
-367,985	-200,000	0,010	-0,100
-366,971	647,272	-0,013	0,024
-365,956	275,379	-0,039	-0,051
-364,942	213,185	0,059	0,069
-363,927	-200,000	-0,008	0,125
-362,912	800,000	-0,012	0,033
-361,898	-153,029	-0,090	0,005
-360,883	-91,835	-0,140	0,029
-359,869	236,575	-0,064	-0,078
-358,854	800,000	0,004	-0,013
-357,839	-99,049	0,139	-0,026
-356,825	-50,929	0,072	-0,025
-355,810	586,880	0,036	-0,064
-354,796	-105,341	0,092	0,015
-353,781	-113,142	0,030	0,004
-352,766	88,789	0,012	0,010
-351,752	3,901	-0,051	-0,027
-350,737	-67,327	0,152	0,044
-349,723	800,000	0,057	0,164
-348,708	-200,000	0,001	-0,053
-347,693	-20,642	0,175	-0,078
-346,679	65,671	0,073	-0,054
-345,664	-14,514	0,108	0,051
-344,650	800,000	-0,050	0,124
-343,635	-200,000	-0,000	0,115
-342,620	262,357	0,073	0,093
-341,606	-37,557	0,137	-0,053
-340,591	-74,880	-0,123	-0,032
-339,577	-200,000	-0,021	-0,074
-338,562	-200,000	-0,007	0,069
-337,548	325,976	0,013	-0,018
-336,533	307,707	-0,097	0,134
-335,518	-200,000	-0,001	0,066
-334,504	63,801	0,106	-0,078
-333,489	248,922	0,047	-0,058
-332,475	-4,076	-0,070	0,036
-331,460	-200,000	0,005	-0,092
-330,445	-200,000	-0,013	-0,061
-329,431	-200,000	0,019	-0,072
-328,416	81,802	-0,064	-0,050
-327,402	1,626	-0,014	0,007
-326,387	-54,436	0,100	0,033
-325,372	-73,890	-0,015	-0,004
-324,358	-54,056	-0,066	0,022
-323,343	-200,000	-0,027	0,136
-322,329	-47,397	-0,093	0,033
-321,314	186,340	0,058	-0,064
-320,299	360,912	0,040	0,058
-319,285	-136,427	-0,105	-0,009
-318,270	800,000	-0,002	0,007
-317,256	-200,000	0,038	-0,170
-316,241	800,000	0,043	-0,113
-315,226	800,000	0,025	0,079
-314,212	-6,142	0,122	-0,061
-313,197	-200,000	0,040	-0,149
-312,183	447,111	0,036	-0,059
-311,168	-118,685	-0,023	0,003
-310,153	220,703	-0,159	-0,187
-309,139	316,184	-0,050	-0,069
-308,124	-89,557	0,054	0,012
-307,110	-36,774	0,061	-0,024
-306,095	50,520	-0,041	0,028
-305,080	800,000	0,058	-0,127
-304,066	-150,056	-0,194	-0,011
-303,051	610,098	0,088	-0,162
-302,037	312,897	0,044	-0,061
-301,022	-98,119	-0,228	-0,043
-300,008	-120,977	0,189	0,023
-298,993	61,566	-0,066	-0,048
-297,978	-200,000	-0,012	-0,109
-296,964	-200,000	-0,071	0,258
-295,949	117,227	-0,046	0,042
-294,935	126,364	-0,029	-0,027
-293,920	-200,000	-0,011	0,101
-292,905	233,490	-0,095	0,114
-291,891	62,721	-0,126	-0,092
-290,876	-35,779	0,095	0,037
-289,862	675,561	-0,044	0,083
-288,847	43,911	-0,052	0,035
-287,832	-150,887	-0,203	-0,011
-286,818	338,687	0,051	-0,073
-285,803	-200,000	0,008	-0,030
-284,789	424,425	0,043	-0,068
-283,774	800,000	0,023	0,071
-282,759	-135,916	-0,030	0,003
-281,745	461,274	-0,105	-0,171
-280,730	367,749	-0,100	-0,148
-279,716	750,047	0,032	0,063
-278,701	-200,000	-0,012	0,087
-277,686	-157,924	0,049	0,002
-276,672	264,378	0,066	0,084
-275,657	-111,347	0,027	-0,004
-274,643	-103,835	0,074	-0,013
-273,628	-200,000	0,004	-0,095
-272,613	69,044	0,058	-0,044
-271,599	-200,000	0,001	-0,004
-270,584	129,363	0,063	0,059
-269,570	-53,856	0,059	-0,020
-268,555	703,562	-0,077	0,150
-267,540	373,916	-0,057	-0,084
-266,526	-200,000	-0,005	0,148
-265,511	-200,000	-0,011	0,048
-264,497	197,690	-0,024	0,027
-263,482	-200,000	-0,013	0,054
-262,467	-200,000	0,016	0,054
-261,453	0,851	0,044	0,023
-260,438	183,790	0,010	0,011
-259,424	-35,647	0,086	-0,034
-258,409	-200,000	0,021	-0,131
-257,395	273,088	0,038	-0,049
-256,380	800,000	0,034	0,091
-255,365	-13,318	-0,021	0,010
-254,351	-84,280	-0,149	-0,034
-253,336	800,000	0,019	0,057
-252,322	800,000	-0,052	-0,144
-251,307	-200,000	0,003	-0,064
-250,292	-200,000	-0,012	0,081
-249,278	-4,346	0,100	0,050
-248,263	202,611	0,065	-0,074
-247,249	-200,000	-0,002	-0,162
-246,234	-200,000	0,004	-0,075
-245,219	95,943	0,039	0,033
-244,205	18,450	0,081	0,047
-243,190	265,074	-0,065	0,083
-242,176	-13,170	-0,090	0,043
-241,161	73,611	0,042	0,032
-240,146	281,759	-0,082	-0,108
-239,132	-200,000	-0,002	0,061
-238,117	24,918	-0,029	0,018
-237,103	183,280	-0,071	-0,077
-236,088	800,000	-0,057	0,118
-235,073	-116,069	-0,151	-0,020
-234,059	-200,000	0,017	-0,097
-233,044	-98,539	0,055	0,010
-232,030	57,613	-0,116	-0,083
-231,015	31,988	0,125	0,079
-230,000	-200,000	0,021	-0,076
-228,986	-200,000	-0,005	0,039
-227,971	34,032	0,110	0,070
-226,957	67,386	0,050	0,037
-225,942	299,764	0,120	0,163
-224,927	-64,785	-0,075	-0,022
-223,913	-137,565	-0,130	-0,011
-222,898	-200,000	0,019	0,068
-221,884	32,466	0,132	0,083
-220,869	411,155	0,050	0,077
-219,855	187,517	0,093	-0,102
-218,840	165,311	-0,050	-0,052
-217,825	-200,000	0,030	-0,138
-216,811	-200,000	-0,035	-0,150
-215,796	-200,000	-0,006	-0,059
-214,782	2,778	0,053	0,028
-213,767	399,366	-0,028	-0,043
-212,752	3,335	0,104	0,055
-211,738	389,482	-0,039	0,060
-210,723	372,173	-0,022	0,033
-209,709	-92,855	-0,062	0,013
-208,694	-41,078	0,112	-0,042
-207,679	-200,000	-0,016	0,077
-206,665	800,000	0,035	-0,092
-205,650	-200,000	-0,008	-0,045
-204,636	1,127	0,085	-0,044
-203,621	36,784	-0,017	0,011
-202,606	800,000	-0,037	-0,096
-201,592	-50,555	-0,167	-0,057
-200,577	217,132	0,060	-0,070
-199,563	26,083	0,093	-0,056
-198,548	226,245	0,130	-0,155
-197,533	6,706	0,146	0,079
-196,519	800,000	0,012	0,040
-195,504	109,366	0,098	-0,086
-194,490	-27,799	-0,072	0,030
-193,475	434,353	0,064	-0,101
-192,460	-16,013	-0,162	-0,075
-191,446	20,152	-0,023	0,014
-190,431	-200,000	0,006	0,080
-189,417	284,239	-0,061	0,080
-188,402	182,683	0,078	0,084
-187,387	-183,478	-0,224	-0,003
-186,373	-50,448	0,069	-0,024
-185,358	-20,183	0,019	0,009
-184,344	-88,384	0,051	0,011
-183,329	800,000	-0,048	0,151
-182,315	800,000	0,036	0,078
-181,300	800,000	-0,030	0,066
-180,285	-18,398	-0,067	0,030
-179,271	161,310	-0,189	0,193
-178,256	-200,000	0,004	-0,077
-177,242	-200,000	-0,034	-0,175
-176,227	153,549	0,123	0,123
-175,212	-141,198	0,083	-0,006
-174,198	38,762	-0,036	-0,023
-173,183	117,966	0,112	-0,100
-172,169	-200,000	-0,019	-0,074
-171,154	408,625	0,059	0,091
-170,139	-51,181	0,036	-0,012
-169,125	251,622	-0,025	0,031
-168,110	264,736	-0,022	0,028
-167,096	-200,000	0,002	-0,055
-166,081	-95,391	0,053	-0,010
-165,066	800,000	-0,042	0,096
-164,052	-149,705	-0,045	0,003
-163,037	-200,000	0,008	-0,115
-162,023	800,000	0,023	-0,067
-161,008	183,769	0,067	0,072
-159,993	-200,000	0,007	0,129
-158,979	138,558	-0,029	-0,028
-157,964	-200,000	-0,047	-0,172
-156,950	70,834	-0,083	-0,063
-155,935	800,000	0,031	-0,080
-154,920	800,000	-0,032	0,098
-153,906	337,422	0,105	0,150
-152,891	296,809	0,091	0,122
-151,877	202,177	-0,029	0,033
-150,862	-22,428	-0,193	-0,085
-149,847	-17,416	0,122	-0,056
-148,833	52,246	-0,129	0,089
-147,818	800,000	-0,013	-0,033
-146,804	-200,000	0,026	0,221
-145,789	291,240	0,013	0,017
-144,775	-110,175	-0,038	-0,006
-143,760	-156,264	-0,027	0,001
-142,745	59,623	-0,119	0,086
-141,731	800,000	0,020	0,056
-140,716	-85,616	0,088	-0,020
-139,702	-200,000	0,012	0,198
-138,687	220,688	0,089	0,104
-137,672	526,266	-0,023	0,040
-136,658	111,895	-0,053	-0,047
-135,643	337,793	0,040	0,057
-134,629	-83,829	0,049	0,011
-133,614	-8,178	-0,155	0,076
-132,599	787,371	-0,036	0,073
-131,585	442,327	0,021	-0,033
-130,570	14,052	0,023	-0,013
-129,556	-7,899	-0,143	0,070
-128,541	-200,000	0,010	0,067
-127,526	-50,974	-0,039	0,013
-126,512	55,303	-0,021	-0,015
-125,497	-141,786	-0,067	-0,005
-124,483	11,223	0,108	0,060
-123,468	-200,000	0,019	-0,079
-122,453	-200,000	-0,008	-0,154
-121,439	-200,000	-0,009	0,053
-120,424	-139,784	-0,157	-0,012
-119,410	74,850	0,027	0,020
-118,395	357,656	0,043	0,063
-117,380	155,616	-0,055	-0,055
-116,366	-71,439	0,068	-0,018
-115,351	104,348	0,038	0,032
-114,337	22,530	-0,032	-0,019
-113,322	-200,000	-0,015	0,083
-112,307	-200,000	-0,004	0,051
-111,293	-200,000	-0,041	0,163
-110,278	168,868	0,033	0,035
-109,264	-200,000	-0,014	-0,074
-108,249	800,000	-0,019	-0,048
-107,234	-136,036	-0,067	-0,006
-106,220	-45,696	-0,135	-0,048
-105,205	84,350	-0,055	0,044
-104,191	27,778	0,008	-0,005
-103,176	800,000	-0,048	0,137
-102,162	-11,342	0,123	0,059
-101,147	-200,000	0,003	-0,209
-100,132	105,086	-0,059	-0,050
-99,118	-200,000	0,021	-0,112
-98,103	141,166	-0,052	-0,050
-97,089	-162,012	-0,025	0,001
-96,074	203,180	-0,021	-0,024
-95,059	800,000	-0,074	-0,150
-94,045	120,120	0,067	-0,061
-93,030	-200,000	-0,002	-0,125
-92,016	62,340	-0,081	-0,058
-91,001	53,087	-0,073	0,051
-89,986	110,595	0,128	0,112
-88,972	231,024	0,023	-0,027
-87,957	-200,000	0,017	-0,090
-86,943	139,140	0,005	-0,005
-85,928	-27,471	0,066	0,028
-84,913	-9,131	-0,072	-0,035
-83,899	105,528	0,085	-0,073
-82,884	151,647	-0,076	0,076
-81,870	134,527	0,094	0,089
-80,855	-200,000	0,017	0,102
-79,840	-200,000	0,008	-0,134
-78,826	-200,000	-0,033	-0,131
-77,811	-200,000	-0,004	-0,113
-76,797	800,000	-0,029	-0,091
-75,782	-200,000	-0,034	0,195
-74,767	-64,067	-0,034	-0,010
-73,753	193,003	0,025	-0,027
-72,738	764,823	-0,036	-0,072
-71,724	-200,000	0,005	-0,032
-70,709	-200,000	-0,001	-0,076
-69,694	125,489	0,061	-0,056
-68,680	289,101	-0,066	0,087
-67,665	103,143	0,085	0,072
-66,651	-82,481	0,128	0,030
-65,636	-200,000	0,009	0,082
-64,622	406,425	-0,035	-0,054
-63,607	-200,000	-0,014	0,080
-62,592	261,657	0,066	-0,084
-61,578	-10,945	-0,067	-0,032
-60,563	669,426	0,025	-0,048
-59,549	800,000	0,073	0,186
-58,534	-140,885	-1,368	-0,101
-57,519	728,739	-0,805	-1,566
-56,505	-200,000	-0,783	-4,389
-55,490	-8,426	0,689	-0,335
-54,476	800,000	4,950	11,767
-53,461	-200,000	13,953	254,687
-52,446	-200,000	693,995	2263,503
-51,432	599,809	1624,279	2936,447
-50,417	117,674	1633,511	1458,471
-49,403	73,449	1287,554	976,659
-48,388	37,374	1023,478	656,710
-47,373	23,935	981,986	585,868
-46,359	23,163	971,561	577,095
-45,344	22,083	967,060	570,870
-44,330	22,076	965,570	569,944
-43,315	21,917	964,338	568,675
-42,300	21,934	963,161	568,015
-41,286	21,926	962,335	567,477
-40,271	21,883	961,429	566,783
-39,257	21,910	960,356	566,215
-38,242	21,907	959,368	565,598
-37,227	21,901	958,619	565,118
-36,213	21,821	957,699	564,291
-35,198	21,837	956,937	563,871
-34,184	21,921	956,261	563,724
-33,169	21,874	955,175	562,910
-32,154	21,982	954,335	562,740
-31,140	21,971	953,442	562,156
-30,125	21,962	952,587	561,600
-29,111	21,959	951,840	561,128
-28,096	21,946	951,219	560,697
-27,082	21,896	950,655	560,184
-26,067	21,937	949,726	559,745
-25,052	21,948	948,899	559,271
-24,038	21,915	948,314	558,799
-23,023	21,899	947,682	558,350
-22,009	21,936	946,826	557,944
-20,994	21,876	946,600	557,596
-19,979	21,895	945,824	557,177
-18,965	21,900	945,343	556,888
-17,950	21,930	944,496	556,462
-16,936	21,895	943,965	556,017
-15,921	21,865	943,048	555,358
-14,906	21,845	942,491	554,946
-13,892	21,770	941,911	554,342
-12,877	21,795	941,181	553,971
-11,863	21,736	940,517	553,371
-10,848	21,792	940,020	553,235
-9,833	21,908	939,587	553,326
-8,819	21,836	939,020	552,742
-7,804	21,754	938,340	552,060
-6,790	21,800	937,755	551,838
-5,775	21,797	937,220	551,491
-4,760	21,801	936,346	550,967
-3,746	21,787	935,897	550,637
-2,731	21,647	935,128	549,721
-1,717	21,562	934,329	548,961
-0,702	21,604	933,860	548,798
0,313	21,432	933,117	548,646
1,327	23,867	930,653	554,804
2,342	31,441	809,028	502,836
3,356	26,157	509,881	307,842
4,371	1,871	374,928	195,346
5,386	-1,133	358,129	182,875
6,400	-2,044	351,970	178,608
7,415	-2,474	349,413	176,777
8,429	-2,380	348,055	176,187
9,444	-2,385	347,260	175,763
10,459	-2,382	346,417	175,324
11,473	-2,375	345,874	175,042
12,488	-2,304	345,123	174,731
13,502	-2,393	344,667	174,379
14,517	-2,271	344,088	174,216
15,531	-2,278	343,745	174,017
16,546	-2,286	343,354	173,794
17,561	-2,120	342,946	173,769
18,575	-2,094	342,599	173,608
19,590	-2,247	342,089	173,154
20,604	-2,138	341,868	173,155
21,619	-2,094	341,325	172,916
22,634	-2,029	341,076	172,851
23,648	-2,194	340,755	172,480
24,663	-2,014	340,427	172,509
25,677	-2,103	340,150	172,249
26,692	-2,288	339,779	171,829
27,707	-2,245	339,511	171,729
28,721	-2,108	339,120	171,675
29,736	-2,166	338,760	171,411
30,750	-2,179	338,629	171,314
31,765	-2,214	338,300	171,091
32,780	-2,248	337,972	170,871
33,794	-2,150	337,759	170,861
34,809	-2,283	337,492	170,557
35,823	-2,097	337,061	170,540
36,838	-2,250	336,876	170,253
37,853	-2,190	336,646	170,191
38,867	-2,184	336,421	170,069
39,882	-2,207	335,959	169,794
40,896	-2,194	335,661	169,643
41,911	-2,125	335,393	169,572
42,926	-2,212	335,208	169,364
43,940	-2,251	334,896	169,146
44,955	-2,203	334,589	169,030
45,969	-2,270	334,509	168,898
46,984	-2,098	334,242	168,946
47,999	-2,129	333,946	168,745
49,013	-2,157	333,739	168,594
50,028	-2,234	333,480	168,361
51,042	-2,286	333,171	168,129
52,057	-2,176	332,816	168,061
53,071	-2,175	332,710	167,994
54,086	-2,248	332,395	167,737
55,101	-2,201	332,155	167,654
56,115	-2,235	332,036	167,540
57,130	-2,337	331,611	167,194
58,144	-2,188	331,300	167,192
59,159	-2,238	331,095	167,016
60,174	-2,192	330,702	166,856
61,188	-2,089	330,372	166,792
62,203	-2,283	330,328	166,534
63,217	-2,183	330,239	166,588
64,232	-2,246	329,674	166,217
65,247	-2,320	329,531	166,046
66,261	-2,168	329,140	166,007
67,276	-2,166	328,974	165,909
68,290	-2,218	328,756	165,727
69,305	-2,186	328,490	165,614
70,320	-2,162	328,251	165,506
71,334	-2,020	327,976	165,512
72,349	-2,326	327,698	165,013
73,363	-2,176	327,473	165,054
74,378	-2,233	327,114	164,793
75,393	-2,142	326,986	164,816
76,407	-2,187	326,701	164,607
77,422	-2,026	326,561	164,703
78,436	-2,291	326,240	164,230
79,451	-2,132	325,961	164,253
80,466	-2,158	325,574	164,014
81,480	-2,125	325,370	163,934
82,495	-2,255	325,226	163,701
83,509	-2,193	325,055	163,670
84,524	-2,097	324,656	163,561
85,539	-2,257	324,630	163,355
86,553	-2,026	324,228	163,394
87,568	-2,095	323,951	163,164
88,582	-2,254	323,831	162,913
89,597	-2,139	323,510	162,865
90,611	-2,369	323,268	162,473
91,626	-2,233	323,153	162,552
92,641	-2,106	322,859	162,530
93,655	-2,135	322,595	162,350
94,670	-2,039	322,264	162,274
95,684	-2,146	322,082	162,051
96,699	-2,175	321,877	161,901
97,714	-2,132	321,851	161,921
98,728	-2,039	321,445	161,805
99,743	-2,159	321,325	161,599
100,757	-2,115	320,834	161,384
101,772	-2,320	320,837	161,147
102,787	-2,115	320,331	161,103
103,801	-2,171	320,292	161,008
104,816	-2,271	320,080	160,778
105,830	-2,223	319,838	160,694
106,845	-2,131	319,668	160,694
107,860	-2,116	319,262	160,492
108,874	-2,074	319,054	160,420
109,889	-2,227	318,916	160,169
110,903	-2,093	318,607	160,145
111,918	-2,153	318,370	159,947
112,933	-2,112	318,124	159,853
113,947	-2,085	318,005	159,810
114,962	-2,105	317,800	159,670
115,976	-2,089	317,444	159,494
116,991	-2,202	317,406	159,338
118,006	-2,138	317,034	159,207
119,020	-2,392	316,989	158,895
120,035	-2,137	316,677	159,000
121,049	-2,101	316,468	158,920
122,064	-2,207	316,273	158,694
123,079	-2,245	316,089	158,546
124,093	-2,221	315,896	158,461
125,108	-2,328	315,705	158,236
126,122	-2,139	315,278	158,211
127,137	-2,299	315,243	158,007
128,151	-2,108	314,824	157,989
129,166	-2,133	314,572	157,821
130,181	-2,198	314,518	157,710
131,195	-2,056	314,047	157,612
132,210	-2,082	313,870	157,482
133,224	-2,245	313,685	157,199
134,239	-2,144	313,527	157,215
135,254	-2,086	313,246	157,122
136,268	-2,223	313,044	156,860
137,283	-2,185	312,824	156,776
138,297	-2,073	312,415	156,677
139,312	-2,136	312,269	156,522
140,327	-2,243	312,011	156,266
141,341	-2,226	312,039	156,284
142,356	-2,083	311,685	156,244
143,370	-2,186	311,634	156,095
144,385	-2,005	311,144	156,027
145,400	-2,194	311,084	155,784
146,414	-2,095	310,894	155,779
147,429	-2,139	310,697	155,620
148,443	-2,142	310,396	155,453
149,458	-2,153	310,258	155,357
150,473	-2,201	310,051	155,190
151,487	-2,136	309,833	155,135
152,502	-2,031	309,657	155,144
153,516	-2,078	309,475	154,990
154,531	-2,197	309,055	154,640
155,546	-2,125	308,945	154,646
156,560	-2,124	308,713	154,518
157,575	-2,111	308,484	154,403
158,589	-2,200	308,218	154,163
159,604	-2,132	308,075	154,149
160,619	-1,990	307,923	154,208
161,633	-2,003	307,670	154,054
162,648	-2,028	307,439	153,899
163,662	-2,151	307,116	153,594
164,677	-2,077	307,022	153,611
165,692	-1,970	306,776	153,586
166,706	-1,958	306,577	153,484
167,721	-1,967	306,488	153,417
168,735	-2,062	306,265	153,193
169,750	-1,996	305,992	153,111
170,764	-2,199	305,848	152,815
171,779	-2,083	305,615	152,806
172,794	-1,976	305,460	152,825
173,808	-2,198	305,291	152,497
174,823	-2,232	305,022	152,313
175,837	-2,281	304,968	152,222
176,852	-2,025	304,623	152,301
177,867	-1,949	304,255	152,183
178,881	-2,177	304,182	151,897
179,896	-2,101	303,967	151,855
180,910	-2,152	303,803	151,706
181,925	-2,170	303,598	151,571
182,940	-2,066	303,319	151,526
183,954	-1,979	303,094	151,489
184,969	-1,854	302,948	151,532
185,983	-2,009	302,911	151,340
186,998	-2,037	302,754	151,219
188,013	-1,969	302,432	151,114
189,027	-1,997	302,157	150,936
190,042	-2,040	301,868	150,734
191,056	-2,153	301,657	150,499
192,071	-2,018	301,502	150,547
193,086	-2,132	301,295	150,313
194,100	-2,090	301,028	150,210
195,115	-1,996	301,026	150,291
196,129	-2,071	300,732	150,054
197,144	-2,109	300,499	149,886
198,159	-2,058	300,170	149,760
199,173	-2,143	300,114	149,633
200,188	-2,247	299,727	149,321
201,202	-2,195	299,624	149,309
202,217	-2,053	299,371	149,313
203,232	-2,160	299,265	149,139
204,246	-2,147	298,783	148,899
205,261	-2,059	298,694	148,930
206,275	-1,995	298,540	148,905
207,290	-2,120	298,384	148,688
208,304	-2,131	298,369	148,655
209,319	-2,037	297,986	148,546
210,334	-2,031	297,789	148,440
211,348	-2,045	297,576	148,307
212,363	-1,902	297,368	148,334
213,377	-1,910	297,113	148,186
214,392	-1,964	296,981	148,053
215,407	-2,140	296,873	147,808
216,421	-2,074	296,698	147,775
217,436	-2,064	296,322	147,585
218,450	-2,089	296,298	147,534
219,465	-2,239	295,953	147,199
220,480	-2,066	295,908	147,336
221,494	-1,941	295,670	147,330
222,509	-2,161	295,665	147,094
223,523	-2,155	295,334	146,923
224,538	-2,168	295,225	146,843
225,553	-2,084	294,924	146,763
226,567	-2,206	294,700	146,517
227,582	-2,074	294,693	146,632
228,596	-2,054	294,458	146,522
229,611	-2,118	294,150	146,292
230,626	-1,991	293,935	146,298
231,640	-2,125	293,629	146,000
232,655	-2,098	293,601	145,999
233,669	-2,208	293,258	145,707
234,684	-2,131	293,282	145,782
235,699	-2,287	293,079	145,514
236,713	-2,066	292,767	145,564
237,728	-2,004	292,426	145,443
238,742	-2,127	292,300	145,246
239,757	-2,110	292,175	145,188
240,772	-2,133	291,973	145,052
241,786	-2,210	291,706	144,831
242,801	-2,044	291,522	144,890
243,815	-2,039	291,464	144,853
244,830	-2,062	291,155	144,664
245,844	-2,142	291,197	144,593
246,859	-2,048	290,851	144,501
247,874	-2,049	290,531	144,328
248,888	-2,157	290,464	144,176
249,903	-2,115	290,240	144,093
250,917	-2,265	290,026	143,827
251,932	-2,026	289,893	143,982
252,947	-2,393	289,641	143,486
253,961	-2,807	289,226	142,864
254,976	-2,968	288,979	142,571
255,990	-3,058	288,583	142,276
257,005	-2,605	288,989	142,904
258,020	-0,288	289,603	145,457
259,034	1,153	290,010	147,054
260,049	1,987	290,032	147,866
261,063	2,215	290,008	148,063
262,078	2,527	289,970	148,334
263,093	2,791	289,846	148,515
264,107	3,160	289,721	148,796
265,122	3,197	289,780	148,850
266,136	3,150	289,518	148,656
267,151	3,386	289,306	148,763
268,166	3,266	289,199	148,579
269,180	3,358	288,965	148,534
270,195	3,286	288,755	148,343
271,209	3,117	288,679	148,127
272,224	3,008	288,336	147,833
273,239	3,264	288,171	147,983
274,253	3,129	287,809	147,653
275,268	3,115	287,541	147,489
276,282	2,955	287,450	147,274
277,297	2,968	287,367	147,232
278,312	3,184	287,246	147,364
279,326	3,124	287,014	147,174
280,341	2,958	286,782	146,883
281,355	3,026	286,590	146,836
282,370	3,108	286,354	146,781
283,384	2,986	286,259	146,602
284,399	2,870	285,907	146,298
285,414	2,928	285,814	146,293
286,428	2,824	285,696	146,120
287,443	2,874	285,421	146,014
288,457	2,880	285,269	145,929
289,472	2,801	285,158	145,784
290,487	2,817	284,863	145,634
291,501	2,723	284,601	145,399
292,516	2,758	284,548	145,392
293,530	2,789	284,329	145,296
294,545	2,833	284,055	145,185
295,560	2,766	284,016	145,089
296,574	2,687	283,706	144,842
297,589	2,766	283,565	144,832
298,603	2,688	283,331	144,626
299,618	2,728	283,012	144,488
300,633	2,920	282,999	144,651
301,647	2,877	282,928	144,561
302,662	2,941	282,715	144,499
303,676	3,085	282,523	144,525
304,691	3,156	282,336	144,483
305,706	3,186	282,216	144,437
306,720	3,224	282,085	144,393
307,735	3,143	281,916	144,217
308,749	3,093	281,684	144,039
309,764	3,060	281,661	143,983
310,779	2,983	281,402	143,765
311,793	3,065	281,169	143,711
312,808	2,906	280,960	143,441
313,822	2,903	280,797	143,343
314,837	3,002	280,477	143,259
315,852	3,021	280,337	143,193
316,866	2,998	280,307	143,143
317,881	2,960	279,890	142,883
318,895	3,091	279,856	142,975
319,910	2,984	279,556	142,708
320,925	2,887	279,366	142,508
321,939	3,114	279,232	142,639
322,954	3,098	279,156	142,572
323,968	3,158	278,994	142,533
324,983	3,280	278,698	142,482
325,997	3,232	278,534	142,341
327,012	3,268	278,451	142,320
328,027	3,197	278,398	142,214
329,041	3,190	278,225	142,107
330,056	3,324	277,824	142,013
331,070	3,201	277,798	141,873
332,085	3,213	277,718	141,831
333,100	3,125	277,456	141,603
334,114	3,136	277,122	141,430
335,129	3,337	276,825	141,451
336,143	3,110	276,907	141,271
337,158	3,144	276,663	141,165
338,173	3,400	276,387	141,248
339,187	3,069	276,340	140,906
340,202	3,198	276,189	140,935
341,216	3,129	276,003	140,765
342,231	3,388	275,798	140,886
343,246	3,230	275,631	140,642
344,260	3,210	275,434	140,511
345,275	3,086	275,338	140,336
346,289	3,235	275,081	140,329
347,304	3,149	274,976	140,184
348,319	3,253	274,697	140,124
349,333	3,053	274,514	139,836
350,348	3,110	274,446	139,841
351,362	3,133	274,250	139,749
352,377	3,285	274,071	139,785
353,392	3,295	273,783	139,634
354,406	3,101	273,614	139,359
355,421	191,768	1351,475	1432,960
356,435	154,848	1482,910	1433,102
