DTS Sentinel unit serial number:	SN410029Multiplexer serial number:	ORYXHardware model number:	OX2-SRSoftware version number:	ORYX F/W v4,00 Oryx Data Collector v3.7.2.0data status	okinstallation	B4 Nyhavnadifferential loss correction	single-endedforward channel	channel 2reverse channel	N/Adate	2023/12/19time	00:35:13forward acquisition time	300,00reverse acquisition time	0,00gamma	499,1914k internal	0,3123k external	0,3123temperature offset calibration	1,0000default loss term (dB/km)	0,3820temperature slope calibration	1,0000multiplexer offset coefficient	1,0000multiplexer slope coefficient	1,0000fibre end	0,00T internal ref (°C)	22,08T ext. ref 1 (°C)	6,55T ext. ref 2 (°C)	6,57length (m)	temperature (°C)	Stokes	anti-Stokes-744,400	-144,515	0,105	0,007
-743,385	-195,859	-0,192	-0,001
-742,371	34,281	0,082	-0,053
-741,356	20,921	-0,219	0,132
-740,342	114,469	-0,083	-0,076
-739,327	800,000	-0,101	0,214
-738,312	-200,000	0,001	-0,008
-737,298	191,910	-0,148	0,167
-736,283	-86,557	0,056	-0,013
-735,269	-48,476	-0,242	0,086
-734,254	326,329	0,039	0,055
-733,239	-132,163	-0,380	0,036
-732,225	-123,964	0,183	-0,021
-731,210	401,318	-0,063	0,100
-730,196	-161,400	-0,094	0,004
-729,181	-200,000	-0,011	0,081
-728,167	-110,763	0,136	-0,021
-727,152	672,226	0,030	0,058
-726,137	-200,000	-0,018	-0,183
-725,123	-164,069	-0,032	-0,001
-724,108	-57,545	-0,069	0,022
-723,094	46,353	-0,126	-0,087
-722,079	505,741	0,031	0,053
-721,064	-135,924	0,136	0,012
-720,050	-145,843	-0,169	0,011
-719,035	2,547	0,034	-0,018
-718,021	346,663	-0,111	-0,163
-717,006	-200,000	0,001	-0,027
-715,991	-200,000	-0,039	-0,150
-714,977	486,163	-0,032	-0,054
-713,962	38,466	-0,110	0,073
-712,948	800,000	-0,068	0,146
-711,933	800,000	0,041	-0,089
-710,918	-63,589	-0,040	0,012
-709,904	268,071	-0,075	-0,098
-708,889	368,751	-0,064	-0,097
-707,875	756,323	-0,025	0,050
-706,860	-48,403	0,094	0,034
-705,845	-200,000	0,000	0,032
-704,831	2,327	-0,059	-0,032
-703,816	-167,387	-0,100	-0,003
-702,802	-200,000	0,004	0,104
-701,787	-6,158	0,043	-0,022
-700,772	132,622	0,092	0,088
-699,758	131,266	0,086	-0,082
-698,743	-200,000	0,003	0,076
-697,729	152,045	0,056	0,057
-696,714	-51,111	-0,045	-0,016
-695,699	-72,086	-0,152	0,042
-694,685	161,350	-0,137	0,143
-693,670	170,673	-0,050	-0,053
-692,656	111,198	-0,091	0,082
-691,641	169,377	0,016	-0,017
-690,627	215,122	-0,032	-0,038
-689,612	3,048	-0,108	0,058
-688,597	262,990	-0,016	0,020
-687,583	-200,000	0,003	-0,075
-686,568	800,000	-0,091	-0,202
-685,554	-200,000	0,010	-0,055
-684,539	-171,539	-0,174	0,004
-683,524	-179,135	-0,133	-0,002
-682,510	-58,325	-0,161	-0,052
-681,495	-89,091	0,014	0,003
-680,481	-49,167	-0,130	0,046
-679,466	360,508	-0,071	-0,106
-678,451	69,737	-0,118	0,090
-677,437	-108,352	-0,106	0,017
-676,422	155,261	-0,011	0,012
-675,408	-10,423	0,047	0,023
-674,393	30,742	-0,120	-0,076
-673,378	103,608	0,039	-0,034
-672,364	-200,000	-0,001	-0,155
-671,349	800,000	0,082	-0,176
-670,335	700,901	-0,049	-0,097
-669,320	800,000	0,026	-0,082
-668,305	130,359	0,044	-0,042
-667,291	402,129	-0,039	-0,061
-666,276	-157,276	-0,107	0,005
-665,262	150,146	0,063	-0,063
-664,247	-121,385	-0,085	0,010
-663,232	235,144	0,032	0,040
-662,218	-200,000	0,027	0,097
-661,203	-16,123	0,124	0,058
-660,189	-200,000	-0,010	0,165
-659,174	366,141	-0,045	0,067
-658,159	-200,000	0,006	0,094
-657,145	-7,160	-0,070	-0,035
-656,130	209,598	0,048	-0,056
-655,116	-66,896	0,091	-0,027
-654,101	59,282	0,107	-0,078
-653,086	454,000	0,054	-0,090
-652,072	8,065	-0,130	-0,072
-651,057	562,019	-0,054	-0,097
-650,043	-7,340	-0,050	0,025
-649,028	-153,105	0,103	-0,005
-648,014	-96,810	0,080	0,015
-646,999	214,728	0,128	-0,151
-645,984	-0,946	-0,120	0,063
-644,970	800,000	-0,047	-0,122
-643,955	741,618	-0,034	-0,068
-642,941	800,000	0,032	-0,070
-641,926	-200,000	0,007	-0,044
-640,911	100,205	0,027	-0,023
-639,897	52,688	-0,100	0,071
-638,882	-84,189	-0,053	0,012
-637,868	-54,056	0,070	0,023
-636,853	55,220	-0,119	-0,085
-635,838	112,976	-0,096	-0,086
-634,824	-63,602	-0,088	-0,027
-633,809	-113,330	-0,096	0,014
-632,795	-200,000	-0,009	-0,045
-631,780	-110,478	-0,175	0,027
-630,765	-200,000	-0,001	0,015
-629,751	800,000	-0,052	-0,121
-628,736	-200,000	-0,033	-0,119
-627,722	360,093	0,040	-0,060
-626,707	-78,772	0,065	0,016
-625,692	-200,000	-0,012	-0,073
-624,678	63,942	0,025	0,019
-623,663	35,498	0,032	-0,021
-622,649	-146,471	-0,078	-0,005
-621,634	-111,636	-0,080	0,012
-620,619	114,946	0,047	-0,043
-619,605	226,253	-0,032	0,038
-618,590	-156,612	-0,019	-0,001
-617,576	-200,000	-0,012	0,144
-616,561	-132,673	-0,032	-0,003
-615,546	800,000	-0,030	-0,072
-614,532	800,000	-0,025	-0,074
-613,517	58,725	0,120	-0,088
-612,503	-200,000	-0,005	-0,093
-611,488	-114,256	0,146	0,021
-610,474	429,117	-0,011	-0,018
-609,459	-157,397	-0,030	-0,001
-608,444	315,616	0,016	-0,023
-607,430	-200,000	-0,039	0,130
-606,415	505,130	0,066	-0,113
-605,401	-200,000	0,011	0,178
-604,386	254,954	0,023	0,029
-603,371	8,808	0,127	-0,071
-602,357	98,800	-0,067	0,058
-601,342	523,643	0,058	-0,102
-600,328	-200,000	-0,001	-0,096
-599,313	61,816	0,141	-0,104
-598,298	107,207	0,100	0,088
-597,284	-69,740	0,042	-0,012
-596,269	-200,000	-0,017	-0,118
-595,255	93,109	-0,084	0,070
-594,240	-200,000	-0,040	-0,141
-593,225	362,450	-0,065	-0,097
-592,211	-18,952	-0,020	-0,009
-591,196	800,000	-0,060	-0,134
-590,182	-200,000	0,022	0,121
-589,167	-10,941	0,112	0,055
-588,152	-200,000	0,007	0,028
-587,138	28,693	-0,172	-0,108
-586,123	800,000	-0,084	-0,232
-585,109	-7,673	-0,107	-0,053
-584,094	14,671	-0,148	-0,086
-583,079	-15,549	0,122	-0,057
-582,065	497,384	0,050	-0,086
-581,050	-128,062	-0,099	0,010
-580,036	-172,767	-0,105	0,002
-579,021	33,691	-0,036	0,023
-578,006	-200,000	0,045	-0,159
-576,992	669,438	-0,022	0,041
-575,977	99,449	-0,135	0,116
-574,963	272,801	0,079	0,104
-573,948	800,000	-0,042	0,114
-572,934	55,992	-0,078	-0,056
-571,919	152,085	0,062	0,062
-570,904	-200,000	0,019	-0,069
-569,890	49,792	0,079	0,055
-568,875	-131,950	-0,078	0,007
-567,861	274,736	0,059	0,078
-566,846	407,800	-0,063	0,098
-565,831	-179,134	-0,114	-0,002
-564,817	-124,369	-0,053	-0,006
-563,802	-39,403	-0,077	0,030
-562,788	-55,787	-0,030	0,010
-561,773	239,022	0,129	0,159
-560,758	-35,832	0,132	0,053
-559,744	-169,026	-0,096	0,003
-558,729	-57,000	-0,126	0,041
-557,715	173,690	-0,095	-0,101
-556,700	800,000	0,029	-0,067
-555,685	-200,000	0,006	0,057
-554,671	-28,288	0,075	0,032
-553,656	-200,000	0,011	0,086
-552,642	357,864	-0,030	-0,045
-551,627	-200,000	0,017	0,120
-550,612	100,679	-0,060	0,052
-549,598	-200,000	-0,001	-0,199
-548,583	272,287	0,080	-0,105
-547,569	155,970	-0,009	0,009
-546,554	-144,645	-0,018	-0,001
-545,539	-200,000	0,071	0,238
-544,525	270,541	0,051	-0,066
-543,510	-99,077	-0,023	0,004
-542,496	-200,000	-0,000	0,023
-541,481	75,731	-0,027	-0,021
-540,466	-91,222	-0,135	0,028
-539,452	254,655	0,053	0,067
-538,437	95,316	0,113	-0,096
-537,423	-200,000	-0,012	0,096
-536,408	800,000	0,071	0,164
-535,393	99,342	-0,104	0,089
-534,379	-20,658	0,026	-0,012
-533,364	800,000	0,076	-0,184
-532,350	382,370	0,049	-0,075
-531,335	540,497	-0,036	-0,064
-530,321	571,111	0,029	-0,053
-529,306	572,083	0,045	-0,081
-528,291	-154,296	0,089	-0,004
-527,277	216,205	-0,109	-0,128
-526,262	800,000	0,023	-0,065
-525,248	323,093	-0,020	-0,028
-524,233	73,802	-0,092	0,071
-523,218	-125,112	0,119	0,013
-522,204	-200,000	0,001	-0,041
-521,189	800,000	0,026	-0,058
-520,175	117,947	0,009	0,009
-519,160	-136,620	0,085	-0,007
-518,145	-26,555	-0,008	-0,003
-517,131	390,489	0,049	0,076
-516,116	-47,020	0,100	0,036
-515,102	223,976	-0,025	0,030
-514,087	-200,000	-0,038	-0,151
-513,072	800,000	0,072	-0,163
-512,058	508,085	-0,041	0,071
-511,043	-99,483	0,084	0,016
-510,029	51,775	-0,095	0,067
-509,014	-193,933	0,073	-0,000
-507,999	81,235	-0,108	0,086
-506,985	188,633	0,024	0,026
-505,970	48,696	-0,107	-0,074
-504,956	-83,076	-0,062	0,015
-503,941	478,406	0,043	0,073
-502,926	-6,966	-0,057	-0,029
-501,912	800,000	-0,032	0,081
-500,897	368,304	-0,036	0,054
-499,883	-200,000	-0,017	0,065
-498,868	214,699	-0,066	0,078
-497,853	-124,489	-0,046	0,005
-496,839	-27,137	-0,133	-0,057
-495,824	181,638	-0,057	0,062
-494,810	-67,742	-0,144	0,041
-493,795	315,017	0,050	0,070
-492,781	180,216	0,083	-0,090
-491,766	-200,000	-0,016	-0,067
-490,751	-200,000	0,026	-0,090
-489,737	10,792	-0,025	0,014
-488,722	-83,595	-0,104	0,024
-487,708	36,258	-0,075	-0,048
-486,693	-200,000	0,009	0,050
-485,678	-105,404	-0,166	-0,028
-484,664	-29,305	0,033	0,014
-483,649	222,041	-0,027	0,032
-482,635	0,140	0,036	0,019
-481,620	201,302	0,097	0,111
-480,605	-16,379	0,110	0,051
-479,591	-200,000	-0,006	-0,094
-478,576	163,512	0,082	0,085
-477,562	45,859	-0,044	-0,030
-476,547	-39,279	-0,104	-0,040
-475,532	-77,019	0,073	-0,019
-474,518	-68,864	0,065	0,018
-473,503	-200,000	0,018	0,066
-472,489	-59,877	0,143	-0,045
-471,474	197,318	0,104	0,117
-470,459	-151,555	-0,161	0,009
-469,445	-150,499	0,138	0,008
-468,430	24,215	-0,025	0,015
-467,416	-103,232	-0,054	0,009
-466,401	-4,767	0,142	0,072
-465,386	-200,000	0,007	0,054
-464,372	-121,437	0,145	-0,018
-463,357	-123,620	-0,160	0,018
-462,343	800,000	-0,072	-0,155
-461,328	-200,000	-0,003	0,020
-460,313	800,000	0,021	-0,063
-459,299	-125,590	0,083	0,009
-458,284	-200,000	0,037	-0,143
-457,270	-200,000	0,007	-0,059
-456,255	-41,320	0,061	-0,023
-455,241	34,880	-0,087	0,056
-454,226	298,934	0,057	-0,077
-453,211	800,000	-0,007	-0,015
-452,197	-77,845	0,046	-0,012
-451,182	458,919	0,100	-0,165
-450,168	-200,000	0,011	0,067
-449,153	-86,052	0,115	0,026
-448,138	-200,000	-0,001	-0,133
-447,124	800,000	0,028	-0,092
-446,109	-181,098	-0,082	0,001
-445,095	800,000	-0,001	-0,003
-444,080	-200,000	0,035	0,136
-443,065	244,130	0,084	0,104
-442,051	-73,206	-0,105	0,028
-441,036	238,419	-0,121	0,148
-440,022	-160,118	0,063	-0,002
-439,007	460,219	0,016	0,026
-437,992	98,897	0,024	0,021
-436,978	800,000	-0,018	0,049
-435,963	-15,804	0,096	0,045
-434,949	-200,000	-0,012	0,079
-433,934	-200,000	-0,038	0,124
-432,919	800,000	-0,042	-0,123
-431,905	-62,037	-0,099	0,030
-430,890	-97,319	0,036	0,007
-429,876	-121,168	0,085	0,010
-428,861	395,891	0,031	0,047
-427,846	800,000	0,070	-0,221
-426,832	368,607	0,039	-0,059
-425,817	-71,311	-0,041	0,011
-424,803	36,486	-0,040	-0,026
-423,788	548,868	-0,049	0,086
-422,773	-34,345	0,077	0,031
-421,759	-200,000	0,033	0,190
-420,744	39,574	-0,163	0,107
-419,730	542,213	0,017	-0,031
-418,715	-200,000	0,015	-0,085
-417,701	-200,000	-0,012	-0,111
-416,686	-200,000	0,003	-0,035
-415,671	-22,246	-0,143	0,064
-414,657	23,384	0,085	0,052
-413,642	107,165	0,051	0,044
-412,628	93,413	-0,115	-0,096
-411,613	-65,105	-0,015	0,005
-410,598	31,382	-0,032	-0,020
-409,584	-200,000	-0,011	-0,126
-408,569	-69,560	0,168	-0,047
-407,555	-200,000	0,001	-0,018
-406,540	30,756	0,051	0,032
-405,525	614,538	-0,035	-0,065
-404,511	3,641	-0,074	0,040
-403,496	-116,544	0,092	-0,012
-402,482	646,527	0,044	0,082
-401,467	236,237	-0,033	0,041
-400,452	-188,930	0,173	0,001
-399,438	127,354	0,096	0,090
-398,423	-200,000	0,014	0,073
-397,409	196,122	-0,025	-0,028
-396,394	800,000	-0,068	0,156
-395,379	237,742	-0,094	0,114
-394,365	-200,000	0,020	0,155
-393,350	-200,000	0,034	0,174
-392,336	-168,144	-0,084	0,002
-391,321	-200,000	0,015	-0,085
-390,306	88,826	-0,059	-0,048
-389,292	169,869	-0,035	0,036
-388,277	121,677	-0,025	0,023
-387,263	-200,000	0,036	0,136
-386,248	72,235	0,055	0,042
-385,233	-104,868	-0,057	0,010
-384,219	-3,730	0,101	-0,051
-383,204	-200,000	-0,014	0,046
-382,190	-68,134	0,035	-0,010
-381,175	30,679	0,034	-0,021
-380,160	444,845	0,058	0,094
-379,146	-200,000	-0,029	0,164
-378,131	-91,063	0,146	0,031
-377,117	34,930	0,131	0,084
-376,102	800,000	-0,039	-0,085
-375,088	-200,000	-0,044	-0,145
-374,073	102,549	0,106	-0,091
-373,058	169,987	-0,119	-0,125
-372,044	448,495	-0,061	-0,098
-371,029	125,816	0,066	-0,061
-370,015	727,479	0,040	-0,079
-369,000	800,000	0,037	-0,080
-367,985	-19,625	0,099	-0,045
-366,971	605,981	0,036	-0,066
-365,956	477,716	-0,064	0,107
-364,942	406,279	-0,103	0,160
-363,927	800,000	0,040	-0,110
-362,912	-1,634	0,028	-0,015
-361,898	102,685	-0,084	-0,073
-360,883	-200,000	0,027	-0,149
-359,869	-76,394	-0,143	-0,037
-358,854	800,000	0,008	0,023
-357,839	185,947	0,115	0,126
-356,825	-155,851	0,056	0,003
-355,810	50,626	0,137	0,095
-354,796	275,964	-0,050	-0,065
-353,781	385,798	0,021	0,032
-352,766	-200,000	-0,011	-0,098
-351,752	800,000	-0,043	-0,088
-350,737	-141,783	0,074	0,005
-349,723	-200,000	0,000	-0,009
-348,708	-200,000	0,023	0,077
-347,693	5,584	-0,122	-0,066
-346,679	211,303	0,110	0,127
-345,664	-200,000	-0,001	0,015
-344,650	138,300	0,081	-0,078
-343,635	-200,000	-0,024	0,120
-342,620	800,000	0,060	0,131
-341,606	-42,911	0,080	-0,030
-340,591	800,000	0,020	-0,054
-339,577	-31,103	-0,047	-0,019
-338,562	800,000	-0,024	-0,059
-337,548	113,790	0,038	-0,034
-336,533	-200,000	0,002	0,057
-335,518	89,710	-0,123	-0,101
-334,504	12,575	0,105	-0,059
-333,489	-44,014	-0,061	0,022
-332,475	-185,995	-0,051	0,001
-331,460	800,000	0,012	-0,026
-330,445	-32,851	-0,096	0,039
-329,431	-200,000	-0,014	0,085
-328,416	162,874	0,067	0,069
-327,402	800,000	0,036	0,091
-326,387	-200,000	-0,020	0,068
-325,372	-86,507	-0,070	0,016
-324,358	800,000	-0,036	-0,112
-323,343	-200,000	-0,021	0,124
-322,329	-57,112	0,053	0,017
-321,314	477,548	-0,026	-0,043
-320,299	406,141	0,104	0,162
-319,285	368,204	-0,057	0,085
-318,270	566,265	-0,063	0,112
-317,256	-38,684	0,070	-0,027
-316,241	-67,469	0,139	0,040
-315,226	-200,000	-0,005	0,042
-314,212	-46,972	0,141	0,050
-313,197	800,000	-0,032	-0,080
-312,183	11,052	0,084	0,047
-311,168	38,471	-0,072	-0,047
-310,153	800,000	0,047	-0,104
-309,139	648,801	0,044	0,083
-308,124	-200,000	-0,028	0,122
-307,110	313,201	-0,102	-0,140
-306,095	-200,000	-0,001	-0,030
-305,080	-13,230	-0,120	0,057
-304,066	48,945	-0,067	0,046
-303,051	-44,486	-0,099	0,036
-302,037	-200,000	0,015	-0,054
-301,022	-200,000	0,013	-0,052
-300,008	-200,000	0,018	0,119
-298,993	237,988	0,059	0,072
-297,978	-200,000	-0,007	0,025
-296,964	-18,906	-0,050	0,023
-295,949	71,408	-0,056	0,043
-294,935	-180,805	0,090	-0,001
-293,920	247,573	-0,055	0,068
-292,905	107,161	0,060	-0,052
-291,891	-80,231	-0,077	0,019
-290,876	348,398	0,011	0,016
-289,862	-122,992	-0,169	0,020
-288,847	-200,000	0,042	-0,138
-287,832	-200,000	-0,013	-0,056
-286,818	210,972	-0,031	0,035
-285,803	-33,116	0,145	0,058
-284,789	-200,000	0,004	-0,047
-283,774	0,163	0,053	0,028
-282,759	-67,046	0,072	0,021
-281,745	800,000	-0,028	0,072
-280,730	-114,435	-0,165	-0,023
-279,716	-200,000	-0,025	-0,158
-278,701	-4,043	0,113	0,057
-277,686	42,358	0,087	0,058
-276,672	-200,000	0,019	0,193
-275,657	52,767	-0,083	0,058
-274,643	252,304	-0,051	0,064
-273,628	316,054	-0,112	-0,155
-272,613	215,878	0,045	-0,052
-271,599	-200,000	0,005	0,071
-270,584	-30,611	0,093	-0,039
-269,570	800,000	0,051	0,143
-268,555	-200,000	-0,011	0,087
-267,540	288,457	-0,058	0,077
-266,526	783,498	0,041	0,083
-265,511	800,000	-0,056	-0,118
-264,497	359,501	-0,092	0,135
-263,482	-200,000	0,033	0,128
-262,467	168,625	0,102	0,107
-261,453	-19,983	-0,128	-0,057
-260,438	284,682	-0,072	-0,095
-259,424	-81,738	-0,066	0,016
-258,409	-200,000	0,082	0,000
-257,395	87,714	0,067	0,055
-256,380	146,905	0,092	-0,090
-255,365	-200,000	0,029	0,129
-254,351	-200,000	0,021	0,111
-253,336	-80,697	-0,134	-0,032
-252,322	161,229	0,098	0,101
-251,307	474,812	0,045	-0,075
-250,292	800,000	0,026	0,066
-249,278	-57,113	-0,058	-0,019
-248,263	-81,498	-0,052	0,013
-247,249	-200,000	0,002	0,090
-246,234	260,178	0,017	-0,022
-245,219	52,898	-0,132	-0,092
-244,205	42,214	0,047	0,031
-243,190	800,000	0,007	-0,018
-242,176	800,000	0,056	-0,117
-241,161	101,224	0,089	-0,076
-240,146	-58,197	0,086	0,027
-239,132	121,217	0,062	0,057
-238,117	169,591	-0,093	-0,097
-237,103	-200,000	-0,008	-0,134
-236,088	104,055	0,048	-0,041
-235,073	-200,000	0,010	-0,044
-234,059	27,978	0,028	0,017
-233,044	800,000	-0,022	0,052
-232,030	-200,000	0,003	0,030
-231,015	-37,017	-0,082	0,032
-230,000	-80,727	-0,120	0,029
-228,986	226,260	0,030	-0,035
-227,971	-200,000	-0,015	0,088
-226,957	-200,000	0,025	0,082
-225,942	-200,000	-0,004	0,118
-224,927	-32,270	-0,097	0,040
-223,913	-200,000	0,006	-0,115
-222,898	117,669	-0,046	-0,042
-221,884	57,490	-0,045	0,032
-220,869	-200,000	0,000	-0,075
-219,855	13,937	0,136	-0,077
-218,840	-200,000	-0,015	0,059
-217,825	156,099	0,061	-0,062
-216,811	800,000	-0,025	-0,062
-215,796	-200,000	-0,032	-0,125
-214,782	71,771	0,040	0,030
-213,767	-200,000	0,020	-0,098
-212,752	604,067	0,013	-0,024
-211,738	227,968	-0,084	0,100
-210,723	-89,900	0,011	0,002
-209,709	-200,000	0,012	-0,186
-208,694	13,245	-0,123	-0,069
-207,679	-6,702	-0,109	-0,054
-206,665	-200,000	0,013	0,089
-205,650	349,821	-0,059	-0,085
-204,636	171,853	-0,097	0,102
-203,621	-200,000	0,008	0,113
-202,606	132,569	-0,036	0,034
-201,592	372,389	0,049	-0,073
-200,577	570,861	-0,042	-0,075
-199,563	-200,000	0,057	-0,215
-198,548	-117,927	-0,052	0,007
-197,533	18,117	0,092	0,053
-196,519	213,093	0,077	0,089
-195,504	800,000	-0,016	0,044
-194,490	800,000	0,043	-0,104
-193,475	-139,464	0,021	0,002
-192,460	-200,000	0,011	-0,118
-191,446	-200,000	0,006	-0,023
-190,431	32,761	0,097	0,061
-189,417	241,218	-0,088	0,107
-188,402	293,589	-0,029	-0,038
-187,387	-200,000	0,035	-0,143
-186,373	800,000	-0,012	0,031
-185,358	-153,305	0,125	0,006
-184,344	-125,212	0,047	-0,005
-183,329	-200,000	0,034	-0,145
-182,315	-57,104	0,015	-0,005
-181,300	-24,697	0,049	-0,021
-180,285	302,207	0,040	0,054
-179,271	-200,000	0,022	0,073
-178,256	800,000	0,034	-0,078
-177,242	-200,000	-0,014	0,132
-176,227	800,000	-0,004	0,010
-175,212	61,831	-0,066	-0,048
-174,198	-200,000	-0,002	0,076
-173,183	800,000	-0,017	-0,051
-172,169	-189,932	-0,161	0,001
-171,154	-39,961	0,041	-0,015
-170,139	556,011	0,030	0,053
-169,125	-40,022	-0,082	-0,031
-168,110	456,241	-0,019	0,031
-167,096	-74,581	0,130	0,034
-166,081	800,000	-0,011	0,029
-165,066	441,094	-0,064	-0,102
-164,052	-200,000	0,003	-0,118
-163,037	-1,239	-0,042	0,022
-162,023	-132,059	0,040	-0,004
-161,008	-7,935	-0,062	0,030
-159,993	-142,769	0,256	0,018
-158,979	154,399	0,056	-0,056
-157,964	-160,679	-0,137	-0,005
-156,950	44,559	0,063	-0,042
-155,935	697,128	-0,009	-0,017
-154,920	-200,000	-0,008	0,106
-153,906	800,000	-0,018	0,038
-152,891	800,000	-0,067	-0,136
-151,877	-170,202	-0,064	-0,002
-150,862	472,811	-0,031	0,052
-149,847	-141,346	-0,030	-0,002
-148,833	-200,000	0,012	0,163
-147,818	-149,824	0,052	-0,003
-146,804	63,649	0,079	-0,058
-145,789	800,000	-0,042	-0,121
-144,775	-155,681	-0,175	-0,008
-143,760	-200,000	-0,002	-0,009
-142,745	-34,160	0,089	-0,035
-141,731	491,193	0,049	0,083
-140,716	800,000	-0,020	-0,048
-139,702	369,820	0,019	-0,027
-138,687	-25,409	0,098	-0,042
-137,672	251,936	0,034	-0,042
-136,658	-43,721	-0,109	0,040
-135,643	-200,000	-0,007	-0,028
-134,629	-53,588	-0,217	-0,072
-133,614	165,661	0,089	0,092
-132,599	800,000	0,037	0,087
-131,585	252,920	-0,053	0,066
-130,570	266,037	-0,067	0,085
-129,556	73,806	-0,135	-0,103
-128,541	224,601	-0,052	-0,061
-127,526	-133,144	0,064	-0,006
-126,512	586,706	-0,063	0,113
-125,497	47,685	0,110	0,074
-124,483	-200,000	0,019	0,128
-123,468	800,000	0,043	-0,126
-122,453	26,069	0,060	0,036
-121,439	185,799	-0,044	0,048
-120,424	682,934	0,068	0,130
-119,410	-11,056	0,041	-0,020
-118,395	-200,000	-0,005	0,095
-117,380	88,729	0,113	0,092
-116,366	-33,161	-0,178	-0,071
-115,351	-61,362	0,076	-0,023
-114,337	-134,107	-0,069	0,006
-113,322	800,000	-0,057	-0,146
-112,307	800,000	0,033	0,101
-111,293	332,176	0,050	-0,070
-110,278	-200,000	-0,011	0,039
-109,264	800,000	0,052	-0,109
-108,249	214,005	-0,085	0,098
-107,234	-159,081	0,054	-0,002
-106,220	-200,000	-0,018	-0,081
-105,205	800,000	-0,012	0,038
-104,191	374,617	-0,035	0,051
-103,176	217,607	0,104	0,121
-102,162	800,000	0,015	0,034
-101,147	146,272	-0,046	-0,045
-100,132	800,000	0,057	-0,127
-99,118	-200,000	-0,009	-0,117
-98,103	461,056	0,018	-0,029
-97,089	433,274	0,020	0,031
-96,074	-200,000	-0,017	0,087
-95,059	800,000	-0,029	0,081
-94,045	-13,795	-0,070	-0,033
-93,030	-143,764	0,081	-0,006
-92,016	35,242	-0,027	-0,017
-91,001	259,762	0,086	0,108
-89,986	36,311	-0,067	-0,043
-88,972	-108,383	0,226	-0,035
-87,957	-117,367	-0,016	0,002
-86,943	45,407	0,034	-0,023
-85,928	45,861	0,155	-0,104
-84,913	-113,994	-0,134	0,019
-83,899	201,359	0,053	-0,060
-82,884	-200,000	-0,005	-0,102
-81,870	40,629	-0,047	0,031
-80,855	-200,000	0,015	0,090
-79,840	-156,670	-0,139	0,006
-78,826	-36,945	0,120	-0,046
-77,811	124,177	0,089	0,081
-76,797	-80,902	0,069	0,016
-75,782	800,000	-0,010	-0,025
-74,767	72,155	0,044	-0,033
-73,753	-200,000	0,002	0,115
-72,738	137,184	0,030	-0,028
-71,724	150,644	-0,078	-0,077
-70,709	-49,234	-0,034	-0,012
-69,694	-43,165	-0,184	-0,067
-68,680	98,594	0,060	-0,050
-67,665	800,000	0,041	-0,092
-66,651	800,000	-0,026	-0,057
-65,636	-34,177	0,171	-0,068
-64,622	-51,038	-0,011	0,004
-63,607	-129,265	-0,035	-0,003
-62,592	15,961	0,020	-0,012
-61,578	-200,000	0,036	0,208
-60,563	800,000	-0,030	0,094
-59,549	-200,000	0,016	0,105
-58,534	-141,812	-1,349	-0,097
-57,519	800,000	-0,742	-1,555
-56,505	-200,000	-0,798	-4,203
-55,490	-32,267	0,655	-0,264
-54,476	800,000	5,040	11,766
-53,461	-200,000	13,755	252,035
-52,446	-200,000	692,163	2262,674
-51,432	602,872	1622,882	2940,769
-50,417	118,390	1632,882	1461,803
-49,403	73,908	1287,404	978,733
-48,388	37,656	1023,388	657,829
-47,373	24,118	981,592	586,433
-46,359	23,319	971,179	577,569
-45,344	22,326	966,898	571,756
-44,330	22,281	965,365	570,680
-43,315	22,173	963,901	569,441
-42,300	22,167	962,776	568,733
-41,286	22,088	961,986	567,988
-40,271	22,054	961,044	567,297
-39,257	22,090	960,024	566,791
-38,242	22,085	959,105	566,210
-37,227	22,166	958,106	565,858
-36,213	22,067	957,481	565,147
-35,198	22,040	956,664	564,554
-34,184	22,130	955,868	564,356
-33,169	22,086	954,931	563,636
-32,154	22,179	954,047	563,393
-31,140	22,138	953,180	562,727
-30,125	22,179	952,453	562,406
-29,111	22,085	951,530	561,535
-28,096	22,151	950,797	561,293
-27,082	22,107	950,124	560,732
-26,067	22,141	949,438	560,413
-25,052	22,100	948,731	559,845
-24,038	22,110	948,162	559,517
-23,023	22,111	947,380	559,037
-22,009	22,110	946,695	558,608
-20,994	22,149	946,309	558,483
-19,979	22,139	945,467	557,930
-18,965	22,175	944,756	557,605
-17,950	22,096	944,397	557,119
-16,936	22,049	943,521	556,429
-15,921	22,074	942,889	556,113
-14,906	22,052	942,007	555,501
-13,892	22,034	941,580	555,173
-12,877	22,048	940,888	554,786
-11,863	21,980	940,215	554,151
-10,848	22,003	939,789	553,952
-9,833	22,133	939,065	553,915
-8,819	21,996	938,671	553,226
-7,804	21,981	938,004	552,763
-6,790	22,023	937,344	552,485
-5,775	22,021	936,817	552,146
-4,760	22,015	936,255	551,773
-3,746	21,979	935,624	551,266
-2,731	21,846	934,956	550,431
-1,717	21,770	934,345	549,810
-0,702	21,809	933,688	549,523
0,313	21,599	932,884	549,219
1,327	24,148	930,495	555,777
2,342	31,753	808,732	503,663
3,356	26,266	509,194	307,715
4,371	1,431	374,067	194,396
5,386	-1,727	356,764	181,507
6,400	-2,758	350,833	177,227
7,415	-3,197	348,399	175,453
8,429	-3,083	347,076	174,908
9,444	-3,248	346,086	174,197
10,459	-2,980	345,508	174,210
11,473	-3,006	344,674	173,743
12,488	-2,891	344,055	173,552
13,502	-3,004	343,523	173,135
14,517	-3,041	343,144	172,884
15,531	-2,918	342,670	172,775
16,546	-2,944	342,344	172,565
17,561	-2,961	341,826	172,268
18,575	-2,868	341,502	172,199
19,590	-2,908	341,086	171,927
20,604	-2,816	340,667	171,809
21,619	-2,992	340,406	171,454
22,634	-2,861	339,987	171,382
23,648	-2,886	339,694	171,190
24,663	-2,901	339,417	171,018
25,677	-2,961	339,051	170,748
26,692	-2,945	338,639	170,544
27,707	-2,932	338,418	170,432
28,721	-2,924	338,095	170,264
29,736	-2,871	337,815	170,169
30,750	-2,887	337,437	169,945
31,765	-3,030	337,244	169,666
32,780	-2,862	336,985	169,716
33,794	-2,916	336,733	169,511
34,809	-2,916	336,445	169,352
35,823	-2,856	336,009	169,187
36,838	-2,837	335,749	169,062
37,853	-2,802	335,400	168,912
38,867	-2,918	335,376	168,751
39,882	-2,941	335,027	168,534
40,896	-2,810	334,707	168,508
41,911	-2,896	334,510	168,296
42,926	-2,846	334,154	168,159
43,940	-2,951	333,925	167,908
44,955	-2,995	333,671	167,715
45,969	-2,902	333,214	167,576
46,984	-2,959	333,157	167,468
47,999	-2,877	332,934	167,435
49,013	-3,012	332,712	167,154
50,028	-2,991	332,543	167,078
51,042	-2,783	332,099	167,077
52,057	-2,891	331,856	166,816
53,071	-2,935	331,726	166,686
54,086	-2,924	331,281	166,460
55,101	-2,986	331,210	166,340
56,115	-2,754	330,761	166,363
57,130	-2,990	330,634	166,016
58,144	-2,893	330,088	165,837
59,159	-3,005	330,016	165,659
60,174	-3,024	329,679	165,453
61,188	-2,910	329,416	165,436
62,203	-2,789	329,171	165,434
63,217	-2,932	329,038	165,192
64,232	-2,994	328,817	164,996
65,247	-2,818	328,305	164,923
66,261	-2,890	328,128	164,738
67,276	-2,907	327,967	164,623
68,290	-2,840	327,654	164,526
69,305	-2,885	327,464	164,367
70,320	-2,842	327,153	164,244
71,334	-2,914	326,950	164,046
72,349	-2,861	326,555	163,893
73,363	-2,953	326,488	163,742
74,378	-2,932	326,118	163,565
75,393	-2,976	325,893	163,389
76,407	-2,863	325,748	163,427
77,422	-2,847	325,374	163,243
78,436	-2,853	325,061	163,065
79,451	-2,938	324,992	162,921
80,466	-2,891	324,620	162,773
81,480	-2,796	324,332	162,719
82,495	-2,834	324,146	162,569
83,509	-2,733	323,924	162,555
84,524	-2,730	323,672	162,417
85,539	-2,770	323,270	162,156
86,553	-2,778	323,136	162,067
87,568	-2,810	322,895	161,896
88,582	-2,822	322,605	161,723
89,597	-2,847	322,468	161,612
90,611	-2,868	322,158	161,419
91,626	-2,918	322,089	161,315
92,641	-2,760	321,790	161,324
93,655	-2,888	321,450	160,999
94,670	-2,819	321,193	160,932
95,684	-2,942	321,006	160,688
96,699	-2,962	320,835	160,567
97,714	-2,826	320,592	160,580
98,728	-3,021	320,438	160,275
99,743	-2,957	320,154	160,189
100,757	-2,937	320,073	160,155
101,772	-2,952	319,642	159,909
102,787	-2,931	319,366	159,780
103,801	-2,938	319,133	159,642
104,816	-2,935	318,966	159,547
105,830	-2,893	318,815	159,502
106,845	-2,849	318,414	159,336
107,860	-2,753	318,226	159,332
108,874	-2,859	318,144	159,162
109,889	-2,924	317,842	158,926
110,903	-2,860	317,429	158,774
111,918	-2,881	317,447	158,747
112,933	-3,074	317,142	158,371
113,947	-3,010	316,854	158,282
114,962	-2,852	316,518	158,272
115,976	-2,855	316,436	158,213
116,991	-2,964	316,179	157,952
118,006	-2,798	316,001	158,028
119,020	-2,963	315,899	157,785
120,035	-2,802	315,573	157,782
121,049	-2,855	315,437	157,643
122,064	-2,893	315,217	157,478
123,079	-2,844	314,931	157,374
124,093	-2,944	314,664	157,119
125,108	-2,876	314,570	157,130
126,122	-2,820	314,298	157,042
127,137	-2,919	314,169	156,856
128,151	-2,826	313,864	156,790
129,166	-2,874	313,616	156,601
130,181	-2,969	313,316	156,335
131,195	-2,951	313,157	156,261
132,210	-2,922	312,917	156,158
133,224	-2,980	312,610	155,930
134,239	-2,870	312,370	155,914
135,254	-2,963	312,266	155,748
136,268	-2,894	311,965	155,658
137,283	-2,814	311,706	155,599
138,297	-2,913	311,551	155,403
139,312	-3,075	311,299	155,092
140,327	-2,990	311,013	155,026
141,341	-2,689	310,822	155,235
142,356	-3,075	310,676	154,740
143,370	-3,018	310,449	154,673
144,385	-2,823	310,228	154,756
145,400	-2,744	309,883	154,653
146,414	-2,761	309,592	154,475
147,429	-2,797	309,434	154,345
148,443	-2,816	309,249	154,219
149,458	-2,684	308,991	154,216
150,473	-2,872	308,882	153,949
151,487	-2,911	308,765	153,837
152,502	-2,965	308,445	153,607
153,516	-2,744	308,331	153,768
154,531	-2,900	307,912	153,382
155,546	-2,831	307,785	153,378
156,560	-2,758	307,642	153,370
157,575	-2,926	307,425	153,072
158,589	-2,826	307,204	153,052
159,604	-2,858	306,952	152,880
160,619	-2,786	306,787	152,859
161,633	-2,771	306,537	152,736
162,648	-2,732	306,369	152,680
163,662	-2,786	306,211	152,531
164,677	-2,837	305,958	152,339
165,692	-2,836	305,799	152,247
166,706	-2,732	305,512	152,198
167,721	-2,758	305,457	152,130
168,735	-2,638	305,066	152,047
169,750	-2,831	304,973	151,787
170,764	-2,835	304,824	151,694
171,779	-2,797	304,537	151,578
172,794	-2,734	304,414	151,569
173,808	-2,898	304,226	151,292
174,823	-3,031	304,018	151,037
175,837	-2,758	303,796	151,196
176,852	-2,744	303,251	150,925
177,867	-2,904	303,306	150,774
178,881	-2,902	303,229	150,724
179,896	-2,816	302,898	150,635
180,910	-2,891	302,690	150,441
181,925	-2,739	302,549	150,513
182,940	-2,744	302,113	150,279
183,954	-2,815	302,090	150,180
184,969	-2,733	301,997	150,205
185,983	-2,690	301,752	150,114
186,998	-2,597	301,470	150,056
188,013	-2,665	301,386	149,930
189,027	-2,560	300,956	149,810
190,042	-2,520	300,817	149,769
191,056	-2,616	300,546	149,523
192,071	-2,775	300,356	149,253
193,086	-2,742	300,160	149,176
194,100	-2,754	299,994	149,067
195,115	-2,679	299,856	149,062
196,129	-2,765	299,631	148,849
197,144	-2,611	299,310	148,833
198,159	-2,759	299,107	148,569
199,173	-2,642	298,790	148,516
200,188	-2,881	298,682	148,207
201,202	-2,718	298,328	148,184
202,217	-2,822	298,273	148,038
203,232	-2,813	298,136	147,966
204,246	-2,792	297,921	147,867
205,261	-2,806	297,677	147,719
206,275	-2,693	297,490	147,727
207,290	-2,635	297,283	147,669
208,304	-2,599	297,049	147,576
209,319	-2,770	296,926	147,330
210,334	-2,678	296,748	147,320
211,348	-2,723	296,556	147,167
212,363	-2,616	296,374	147,170
213,377	-2,652	296,117	146,994
214,392	-2,820	295,893	146,701
215,407	-2,688	295,598	146,674
216,421	-2,768	295,585	146,575
217,436	-2,756	295,288	146,426
218,450	-2,745	295,045	146,304
219,465	-2,880	294,946	146,106
220,480	-2,784	294,670	146,052
221,494	-2,809	294,618	145,989
222,509	-2,690	294,413	145,993
223,523	-2,771	294,209	145,799
224,538	-2,957	293,979	145,486
225,553	-2,688	293,699	145,602
226,567	-2,766	293,656	145,490
227,582	-2,740	293,335	145,344
228,596	-2,584	293,133	145,386
229,611	-2,789	293,096	145,150
230,626	-2,838	292,919	145,002
231,640	-2,788	292,648	144,904
232,655	-2,691	292,412	144,871
233,669	-2,825	292,243	144,642
234,684	-2,795	292,136	144,605
235,699	-2,711	291,897	144,557
236,713	-2,750	291,620	144,368
237,728	-2,721	291,465	144,307
238,742	-2,765	291,277	144,158
239,757	-2,788	291,037	144,004
240,772	-2,832	290,963	143,911
241,786	-2,901	290,591	143,646
242,801	-2,804	290,531	143,699
243,815	-2,886	290,444	143,562
244,830	-2,740	290,114	143,530
245,844	-2,818	290,032	143,401
246,859	-2,791	289,866	143,332
247,874	-2,861	289,472	143,056
248,888	-2,861	289,349	142,982
249,903	-2,819	289,131	142,902
250,917	-2,992	289,028	142,670
251,932	-2,834	288,846	142,722
252,947	-3,037	288,560	142,370
253,961	-3,613	287,849	141,447
254,976	-4,244	287,616	140,707
255,990	-4,214	287,524	140,679
257,005	-3,126	287,792	141,854
258,020	-1,036	288,796	144,372
259,034	0,846	288,902	146,243
260,049	1,127	288,909	146,507
261,063	1,334	289,053	146,767
262,078	1,969	288,795	147,241
263,093	2,038	288,787	147,291
264,107	2,401	288,810	147,641
265,122	2,586	288,686	147,744
266,136	2,647	288,395	147,641
267,151	2,626	288,259	147,539
268,166	2,545	288,012	147,320
269,180	2,544	287,944	147,271
270,195	2,639	287,729	147,240
271,209	2,599	287,578	147,111
272,224	2,667	287,349	147,046
273,239	2,525	287,111	146,774
274,253	2,585	286,989	146,757
275,268	2,373	286,708	146,396
276,282	2,430	286,400	146,281
277,297	2,366	286,254	146,131
278,312	2,382	286,175	146,094
279,326	2,466	285,942	146,042
280,341	2,474	285,693	145,910
281,355	2,494	285,522	145,829
282,370	2,212	285,514	145,541
283,384	2,451	285,053	145,522
284,399	2,447	284,864	145,408
285,414	2,230	284,870	145,191
286,428	2,461	284,633	145,278
287,443	2,315	284,490	145,053
288,457	2,307	284,272	144,922
289,472	2,364	283,868	144,757
290,487	2,349	283,857	144,724
291,501	2,275	283,694	144,557
292,516	2,245	283,542	144,438
293,530	2,104	283,460	144,249
294,545	2,243	283,169	144,220
295,560	2,403	282,839	144,192
296,574	2,172	282,656	143,866
297,589	2,315	282,415	143,866
298,603	2,236	282,283	143,711
299,618	2,271	282,293	143,737
300,633	2,257	282,033	143,579
301,647	2,335	281,888	143,565
302,662	2,313	281,726	143,450
303,676	2,334	281,701	143,444
304,691	2,490	281,318	143,383
305,706	2,573	281,173	143,374
306,720	2,336	281,105	143,104
307,735	2,509	281,053	143,227
308,749	2,397	280,827	142,994
309,764	2,560	280,475	142,956
310,779	2,608	280,296	142,896
311,793	2,414	280,138	142,621
312,808	2,514	279,908	142,585
313,822	2,510	279,669	142,447
314,837	2,540	279,622	142,437
315,852	2,474	279,370	142,235
316,866	2,442	279,220	142,117
317,881	2,475	279,005	142,025
318,895	2,279	278,869	141,760
319,910	2,374	278,664	141,732
320,925	2,574	278,387	141,764
321,939	2,549	278,244	141,656
322,954	2,480	278,164	141,538
323,968	2,628	277,978	141,569
324,983	2,497	277,840	141,365
325,997	2,453	277,685	141,232
327,012	2,497	277,484	141,158
328,027	2,527	277,322	141,091
329,041	2,487	277,253	141,005
330,056	2,643	277,052	141,035
331,070	2,402	276,887	140,716
332,085	2,554	276,513	140,653
333,100	2,616	276,357	140,619
334,114	2,657	276,195	140,562
335,129	2,511	275,935	140,283
336,143	2,557	275,850	140,269
337,158	2,580	275,578	140,140
338,173	2,573	275,498	140,080
339,187	2,542	275,309	139,942
340,202	2,776	275,159	140,069
341,216	2,511	274,894	139,679
342,231	2,537	274,796	139,640
343,246	2,625	274,577	139,597
344,260	2,593	274,516	139,524
345,275	2,743	274,323	139,551
346,289	2,454	274,242	139,233
347,304	2,679	273,961	139,284
348,319	2,528	273,831	139,067
349,333	2,493	273,521	138,865
350,348	2,581	273,265	138,802
351,362	2,591	273,145	138,739
352,377	2,689	273,038	138,761
353,392	2,598	272,913	138,602
354,406	2,583	272,678	138,457
355,421	191,695	1348,597	1430,143
356,435	154,777	1479,788	1430,283
