DTS Sentinel unit serial number:	SN410029Multiplexer serial number:	ORYXHardware model number:	OX2-SRSoftware version number:	ORYX F/W v4,00 Oryx Data Collector v3.7.2.0data status	okinstallation	B4 Nyhavnadifferential loss correction	single-endedforward channel	channel 2reverse channel	N/Adate	2023/12/16time	01:40:13forward acquisition time	300,00reverse acquisition time	0,00gamma	499,1914k internal	0,3128k external	0,3128temperature offset calibration	1,0000default loss term (dB/km)	0,3820temperature slope calibration	1,0000multiplexer offset coefficient	1,0000multiplexer slope coefficient	1,0000fibre end	0,00T internal ref (°C)	21,93T ext. ref 1 (°C)	7,07T ext. ref 2 (°C)	7,25length (m)	temperature (°C)	Stokes	anti-Stokes-744,400	414,191	0,035	-0,056
-743,385	-31,031	-0,257	0,107
-742,371	-200,000	0,013	0,072
-741,356	-50,510	-0,214	0,075
-740,342	333,556	-0,035	-0,050
-739,327	-136,046	-0,303	-0,026
-738,312	-200,000	-0,012	0,052
-737,298	-200,000	-0,192	-0,000
-736,283	-200,000	0,025	-0,121
-735,269	17,383	-0,190	0,112
-734,254	800,000	-0,016	-0,046
-733,239	-179,878	-0,360	-0,006
-732,225	88,500	0,101	-0,084
-731,210	-200,000	-0,008	0,046
-730,196	-152,518	-0,159	-0,008
-729,181	-200,000	-0,002	0,052
-728,167	745,263	-0,036	-0,071
-727,152	800,000	0,023	0,055
-726,137	178,740	-0,071	0,077
-725,123	101,280	0,002	0,001
-724,108	-130,682	0,123	-0,012
-723,094	800,000	0,026	-0,083
-722,079	119,961	-0,071	-0,066
-721,064	71,604	0,094	-0,073
-720,050	79,892	-0,070	-0,056
-719,035	-72,485	0,068	0,018
-718,021	113,071	-0,039	0,036
-717,006	-138,544	-0,176	0,014
-715,991	-184,433	-0,195	-0,002
-714,977	-135,471	0,046	0,004
-713,962	35,352	0,049	-0,032
-712,948	431,664	0,020	-0,032
-711,933	-94,675	-0,086	0,017
-710,918	-100,174	-0,146	-0,027
-709,904	-115,478	-0,031	0,004
-708,889	-70,599	0,053	-0,015
-707,875	231,658	-0,152	-0,186
-706,860	-200,000	0,014	-0,069
-705,845	-80,081	-0,059	0,015
-704,831	137,492	0,112	-0,109
-703,816	361,278	-0,133	-0,199
-702,802	130,361	-0,124	-0,118
-701,787	-200,000	-0,050	-0,192
-700,772	-97,568	-0,088	-0,017
-699,758	193,195	-0,056	0,063
-698,743	127,916	-0,033	0,031
-697,729	-200,000	0,005	-0,072
-696,714	-39,998	0,120	0,046
-695,699	-39,658	-0,065	0,025
-694,685	800,000	-0,065	-0,148
-693,670	148,653	-0,127	0,127
-692,656	-200,000	0,004	0,042
-691,641	-200,000	0,009	-0,212
-690,627	-31,462	-0,109	-0,045
-689,612	-200,000	-0,018	-0,084
-688,597	637,261	0,022	-0,041
-687,583	800,000	-0,057	-0,128
-686,568	345,471	-0,107	0,157
-685,554	116,358	0,076	-0,069
-684,539	-200,000	0,000	0,008
-683,524	-108,733	0,078	0,012
-682,510	-36,358	-0,083	-0,033
-681,495	-200,000	0,010	0,061
-680,481	-97,322	-0,211	-0,040
-679,466	-36,949	-0,081	-0,032
-678,451	296,747	-0,076	0,103
-677,437	-200,000	0,004	0,048
-676,422	-39,816	-0,032	-0,012
-675,408	-200,000	-0,045	-0,151
-674,393	-200,000	-0,017	0,085
-673,378	251,889	-0,030	0,037
-672,364	28,531	-0,061	-0,038
-671,349	800,000	0,053	0,123
-670,335	-158,138	0,046	0,002
-669,320	67,011	-0,060	0,045
-668,305	-80,228	-0,057	0,014
-667,291	32,383	-0,084	-0,054
-666,276	800,000	0,026	-0,085
-665,262	-200,000	-0,051	-0,204
-664,247	-200,000	0,002	-0,019
-663,232	144,658	0,051	-0,050
-662,218	360,316	-0,028	0,042
-661,203	-200,000	0,005	-0,061
-660,189	111,515	0,050	0,045
-659,174	215,645	-0,056	0,066
-658,159	-166,745	-0,047	0,001
-657,145	-200,000	-0,012	-0,067
-656,130	-85,799	-0,065	-0,015
-655,116	800,000	-0,034	-0,109
-654,101	800,000	-0,057	0,122
-653,086	109,004	-0,131	-0,116
-652,072	-200,000	0,015	-0,099
-651,057	-200,000	0,005	-0,072
-650,043	-200,000	0,029	-0,292
-649,028	800,000	-0,042	-0,117
-648,014	381,245	0,055	0,083
-646,999	-200,000	-0,013	-0,186
-645,984	-200,000	-0,023	0,099
-644,970	-170,628	0,066	-0,002
-643,955	366,212	-0,058	-0,086
-642,941	800,000	0,015	-0,032
-641,926	-200,000	-0,000	-0,110
-640,911	-127,747	-0,108	-0,011
-639,897	-200,000	-0,011	-0,070
-638,882	227,620	-0,014	-0,017
-637,868	-88,019	-0,145	-0,032
-636,853	-200,000	-0,026	-0,102
-635,838	-174,356	-0,056	-0,001
-634,824	111,853	-0,094	-0,084
-633,809	621,994	0,051	-0,096
-632,795	149,448	-0,014	-0,014
-631,780	-200,000	0,024	-0,083
-630,765	-200,000	0,021	0,081
-629,751	800,000	-0,040	-0,129
-628,736	-90,819	-0,064	0,014
-627,722	800,000	-0,070	-0,158
-626,707	-200,000	0,029	-0,142
-625,692	-191,014	-0,059	0,000
-624,678	-127,798	0,073	-0,008
-623,663	39,690	-0,047	0,031
-622,649	-62,794	0,031	-0,009
-621,634	132,883	0,080	-0,076
-620,619	-118,524	-0,165	0,021
-619,605	-200,000	0,013	-0,070
-618,590	-200,000	-0,009	-0,084
-617,576	327,816	0,108	0,154
-616,561	-88,171	-0,150	0,033
-615,546	99,875	-0,071	0,061
-614,532	74,910	-0,087	-0,068
-613,517	-200,000	-0,000	-0,038
-612,503	-200,000	-0,016	-0,098
-611,488	800,000	0,053	-0,124
-610,474	572,734	-0,038	-0,069
-609,459	-91,238	-0,039	0,008
-608,444	242,531	0,113	-0,141
-607,430	-200,000	-0,032	0,156
-606,415	-200,000	-0,003	0,051
-605,401	137,905	-0,036	-0,035
-604,386	800,000	-0,070	-0,145
-603,371	-137,639	0,080	-0,007
-602,357	-200,000	-0,007	0,043
-601,342	800,000	-0,014	0,039
-600,328	525,951	0,013	-0,022
-599,313	527,612	0,051	-0,089
-598,298	310,658	0,041	-0,056
-597,284	28,059	0,076	-0,047
-596,269	800,000	-0,027	0,078
-595,255	-200,000	-0,005	0,071
-594,240	251,416	0,034	-0,043
-593,225	-85,275	-0,039	-0,009
-592,211	-200,000	-0,029	0,101
-591,196	74,465	0,046	-0,035
-590,182	285,111	-0,014	0,019
-589,167	-54,247	-0,080	0,027
-588,152	72,707	-0,064	0,050
-587,138	-200,000	0,012	-0,135
-586,123	-154,623	0,088	-0,004
-585,109	800,000	-0,046	-0,097
-584,094	96,259	-0,070	-0,059
-583,079	-106,701	-0,052	0,009
-582,065	75,314	0,115	-0,090
-581,050	-200,000	-0,012	-0,050
-580,036	146,121	-0,021	-0,021
-579,021	-68,395	-0,085	-0,024
-578,006	800,000	0,054	0,112
-576,992	800,000	0,029	0,077
-575,977	-37,521	-0,031	-0,012
-574,963	128,759	0,006	-0,006
-573,948	800,000	-0,035	-0,081
-572,934	-98,634	-0,129	0,024
-571,919	-105,517	0,070	0,012
-570,904	0,981	-0,050	0,026
-569,890	800,000	-0,072	-0,181
-568,875	-200,000	-0,012	-0,090
-567,861	34,062	0,113	0,073
-566,846	-68,138	0,136	0,039
-565,831	-200,000	-0,001	-0,108
-564,817	-79,008	-0,053	-0,013
-563,802	185,279	-0,034	0,037
-562,788	-200,000	0,008	0,154
-561,773	156,372	-0,126	0,129
-560,758	124,090	-0,072	0,067
-559,744	92,319	0,036	0,030
-558,729	91,315	0,034	-0,028
-557,715	800,000	0,017	-0,051
-556,700	365,942	-0,117	-0,174
-555,685	-63,187	-0,113	0,034
-554,671	-200,000	-0,013	0,105
-553,656	-26,883	0,047	0,020
-552,642	36,358	0,074	-0,048
-551,627	327,653	0,060	0,085
-550,612	-46,166	-0,154	0,056
-549,598	-125,634	0,032	-0,003
-548,583	-37,111	-0,141	-0,056
-547,569	86,228	0,083	-0,068
-546,554	-113,597	0,197	0,028
-545,539	691,269	0,026	0,051
-544,525	37,943	0,064	-0,042
-543,510	-176,096	-0,098	-0,002
-542,496	406,433	0,066	-0,104
-541,481	-103,653	0,090	0,015
-540,466	-127,360	0,031	0,003
-539,452	-200,000	0,002	0,101
-538,437	14,401	0,105	0,060
-537,423	258,939	-0,023	0,029
-536,408	379,635	0,069	0,105
-535,393	88,891	-0,125	0,103
-534,379	-132,656	-0,030	-0,003
-533,364	-131,951	0,042	0,004
-532,350	17,027	0,066	0,039
-531,335	-131,432	-0,088	0,008
-530,321	-200,000	-0,004	0,190
-529,306	800,000	0,022	-0,048
-528,291	204,093	-0,035	-0,040
-527,277	82,776	-0,129	-0,103
-526,262	-200,000	-0,019	-0,121
-525,248	-200,000	-0,017	-0,177
-524,233	-200,000	0,049	-0,194
-523,218	134,966	-0,005	0,005
-522,204	800,000	-0,013	0,027
-521,189	41,964	-0,157	-0,105
-520,175	-200,000	0,033	-0,147
-519,160	333,736	0,048	-0,068
-518,145	800,000	0,023	-0,059
-517,131	311,207	0,068	0,095
-516,116	-82,653	-0,152	-0,036
-515,102	-200,000	-0,012	0,165
-514,087	800,000	0,007	0,023
-513,072	475,172	-0,049	-0,081
-512,058	730,095	-0,047	-0,094
-511,043	67,869	-0,069	0,052
-510,029	13,274	-0,050	0,029
-509,014	-110,479	-0,044	-0,007
-507,999	-66,222	-0,027	0,008
-506,985	28,858	-0,037	-0,023
-505,970	-55,223	0,030	-0,010
-504,956	220,671	0,049	-0,058
-503,941	152,938	-0,063	-0,063
-502,926	-143,269	0,061	0,004
-501,912	-200,000	-0,006	-0,024
-500,897	69,923	0,130	0,098
-499,883	77,851	0,072	0,056
-498,868	-20,621	-0,090	-0,041
-497,853	11,832	0,049	-0,028
-496,839	122,254	0,117	-0,108
-495,824	235,700	-0,057	0,070
-494,810	-23,346	0,132	0,058
-493,795	-200,000	-0,036	0,160
-492,781	463,843	-0,052	-0,085
-491,766	-40,862	-0,154	0,059
-490,751	-200,000	-0,014	-0,052
-489,737	718,253	-0,032	-0,062
-488,722	-200,000	0,006	0,045
-487,708	-69,883	0,164	0,046
-486,693	787,973	0,037	-0,074
-485,678	-200,000	-0,021	-0,135
-484,664	-200,000	-0,001	-0,090
-483,649	-200,000	-0,023	-0,123
-482,635	-200,000	0,002	-0,037
-481,620	-165,065	0,107	-0,003
-480,605	17,140	0,050	0,029
-479,591	-200,000	0,001	0,050
-478,576	-149,225	0,108	0,006
-477,562	-200,000	-0,002	-0,009
-476,547	-149,868	0,044	-0,003
-475,532	800,000	0,028	0,086
-474,518	75,130	-0,091	0,071
-473,503	-101,169	-0,036	-0,006
-472,489	378,248	-0,060	0,091
-471,474	-200,000	-0,008	0,089
-470,459	-130,702	-0,056	-0,005
-469,445	-84,225	-0,140	-0,032
-468,430	-200,000	0,023	-0,100
-467,416	-7,419	-0,062	0,031
-466,401	800,000	-0,039	0,096
-465,386	501,080	0,017	0,029
-464,372	26,265	-0,099	0,061
-463,357	-200,000	0,025	-0,097
-462,343	-96,344	-0,035	-0,007
-461,328	122,510	0,080	0,074
-460,313	74,856	0,031	0,024
-459,299	-76,417	0,141	0,036
-458,284	-200,000	-0,036	0,168
-457,270	-3,009	0,076	-0,039
-456,255	-39,198	-0,028	-0,011
-455,241	-200,000	-0,001	0,144
-454,226	-135,749	-0,069	0,006
-453,211	-200,000	0,026	0,185
-452,197	-92,712	0,092	0,019
-451,182	-65,590	0,079	0,023
-450,168	-200,000	-0,008	0,110
-449,153	-200,000	-0,018	-0,133
-448,138	646,187	0,050	0,095
-447,124	-200,000	-0,017	0,067
-446,109	555,865	-0,010	0,017
-445,095	-23,902	0,062	-0,027
-444,080	-151,689	-0,019	-0,001
-443,065	6,011	-0,123	0,067
-442,051	278,646	0,071	0,093
-441,036	384,924	-0,094	-0,143
-440,022	-200,000	0,044	-0,159
-439,007	-200,000	0,016	0,081
-437,992	44,647	0,085	-0,057
-436,978	-124,630	-0,083	0,009
-435,963	287,190	0,049	0,065
-434,949	-37,313	-0,144	-0,056
-433,934	253,977	-0,008	0,010
-432,919	800,000	-0,026	0,066
-431,905	6,565	-0,084	0,046
-430,890	-180,010	0,206	0,003
-429,876	-64,892	0,129	0,038
-428,861	160,260	-0,122	0,125
-427,846	79,358	-0,051	0,040
-426,832	-200,000	-0,005	-0,054
-425,817	22,264	0,084	0,050
-424,803	-192,025	0,093	-0,001
-423,788	-200,000	0,016	0,076
-422,773	800,000	-0,054	-0,144
-421,759	267,486	0,022	-0,028
-420,744	634,009	-0,045	0,084
-419,730	3,880	0,079	-0,042
-418,715	31,783	0,118	-0,075
-417,701	702,230	0,074	0,143
-416,686	560,682	-0,017	0,031
-415,671	-200,000	0,025	-0,094
-414,657	-200,000	0,004	0,132
-413,642	274,638	0,050	-0,065
-412,628	800,000	0,032	0,085
-411,613	588,851	-0,050	0,090
-410,598	733,937	-0,043	0,085
-409,584	104,016	0,045	-0,039
-408,569	38,706	0,137	0,089
-407,555	129,113	-0,075	-0,070
-406,540	7,873	0,041	0,022
-405,525	-38,427	-0,029	0,011
-404,511	-200,000	0,009	-0,087
-403,496	269,063	-0,033	0,042
-402,482	-8,453	0,026	0,013
-401,467	-200,000	-0,005	0,066
-400,452	136,796	0,056	-0,054
-399,438	800,000	0,016	-0,042
-398,423	-68,327	0,095	-0,027
-397,409	526,548	0,042	-0,073
-396,394	5,829	0,057	0,031
-395,379	483,479	-0,073	0,122
-394,365	-179,220	0,143	0,002
-393,350	800,000	0,032	0,068
-392,336	490,485	-0,031	-0,052
-391,321	-106,457	0,004	0,001
-390,306	-35,482	-0,284	0,113
-389,292	800,000	0,075	-0,188
-388,277	64,992	0,052	-0,039
-387,263	-40,216	0,135	0,051
-386,248	-200,000	0,011	0,040
-385,233	-200,000	-0,027	0,110
-384,219	13,056	0,084	0,048
-383,204	-200,000	-0,018	0,096
-382,190	35,463	0,045	0,029
-381,175	-200,000	-0,026	0,088
-380,160	-101,779	0,127	-0,022
-379,146	-200,000	0,014	-0,101
-378,131	-200,000	-0,020	-0,136
-377,117	142,803	-0,103	-0,101
-376,102	-200,000	-0,005	-0,073
-375,088	-13,944	-0,045	0,021
-374,073	355,935	-0,071	0,104
-373,058	-95,206	-0,117	0,023
-372,044	184,544	0,091	0,099
-371,029	82,352	0,091	-0,072
-370,015	70,055	-0,090	0,068
-369,000	174,757	0,058	0,062
-367,985	277,475	-0,068	0,089
-366,971	60,674	-0,143	-0,104
-365,956	19,768	0,095	-0,056
-364,942	153,416	0,035	0,035
-363,927	-88,291	0,217	-0,047
-362,912	-197,340	0,080	-0,000
-361,898	4,192	-0,140	-0,075
-360,883	-152,093	-0,113	0,006
-359,869	578,706	0,043	-0,078
-358,854	-200,000	0,007	0,046
-357,839	800,000	-0,060	0,162
-356,825	378,957	-0,103	0,155
-355,810	107,183	0,099	0,086
-354,796	-90,308	0,140	0,029
-353,781	-200,000	-0,023	-0,144
-352,766	109,292	-0,114	0,100
-351,752	19,423	-0,026	-0,015
-350,737	239,663	0,069	0,084
-349,723	-200,000	-0,040	0,175
-348,708	800,000	-0,032	0,067
-347,693	-157,356	0,045	0,002
-346,679	180,019	-0,202	-0,217
-345,664	-200,000	-0,020	-0,114
-344,650	-39,169	0,132	0,050
-343,635	-0,582	0,044	-0,023
-342,620	-61,837	0,130	-0,040
-341,606	294,674	0,059	-0,079
-340,591	182,645	0,099	-0,107
-339,577	52,067	-0,062	-0,043
-338,562	793,175	0,043	-0,086
-337,548	-51,326	-0,136	-0,046
-336,533	-44,402	0,132	-0,048
-335,518	197,167	0,053	0,059
-334,504	28,473	0,014	-0,009
-333,489	-200,000	0,018	-0,062
-332,475	-119,264	-0,103	0,013
-331,460	-2,694	-0,042	0,021
-330,445	-9,161	-0,042	0,021
-329,431	-200,000	-0,017	-0,101
-328,416	-0,059	0,012	-0,006
-327,402	-200,000	0,009	-0,105
-326,387	208,226	-0,013	0,014
-325,372	122,020	-0,140	-0,128
-324,358	-33,546	0,150	0,061
-323,343	800,000	0,044	0,102
-322,329	118,808	-0,022	0,020
-321,314	-42,802	0,191	0,071
-320,299	281,641	-0,104	0,136
-319,285	368,105	0,044	-0,066
-318,270	-27,892	0,027	-0,012
-317,256	-174,921	0,059	-0,001
-316,241	34,375	-0,058	0,037
-315,226	-105,007	-0,084	-0,014
-314,212	-200,000	-0,005	-0,096
-313,197	800,000	-0,025	0,060
-312,183	-119,279	0,113	-0,014
-311,168	-98,580	-0,058	-0,011
-310,153	669,530	0,049	0,094
-309,139	225,162	-0,063	-0,074
-308,124	-100,643	0,106	-0,019
-307,110	-121,246	0,079	0,010
-306,095	800,000	0,040	0,104
-305,080	97,692	-0,032	-0,027
-304,066	30,561	-0,112	-0,070
-303,051	323,142	-0,032	-0,045
-302,037	9,479	-0,152	-0,084
-301,022	557,913	-0,097	0,172
-300,008	-14,958	0,125	0,058
-298,993	-200,000	-0,005	0,133
-297,978	800,000	0,121	0,264
-296,964	107,185	-0,083	0,072
-295,949	-200,000	0,010	-0,039
-294,935	223,246	-0,070	-0,083
-293,920	-200,000	-0,015	-0,112
-292,905	608,510	0,017	0,031
-291,891	152,050	0,079	0,079
-290,876	-200,000	0,005	0,060
-289,862	-149,247	-0,046	0,003
-288,847	-57,975	-0,169	0,054
-287,832	312,665	-0,049	0,067
-286,818	-139,897	0,136	-0,010
-285,803	-200,000	0,052	0,179
-284,789	-63,641	0,111	0,033
-283,774	800,000	-0,031	-0,073
-282,759	-200,000	-0,006	0,033
-281,745	-149,217	0,070	-0,004
-280,730	465,681	-0,068	-0,111
-279,716	-68,658	0,091	-0,026
-278,701	800,000	0,054	0,120
-277,686	-39,375	0,023	-0,009
-276,672	-189,130	-0,063	-0,001
-275,657	-184,977	-0,122	0,001
-274,643	-200,000	0,020	0,150
-273,628	162,077	-0,136	0,139
-272,613	-103,943	-0,090	-0,015
-271,599	-176,033	0,036	-0,001
-270,584	-200,000	-0,022	0,100
-269,570	-200,000	0,015	0,077
-268,555	-200,000	0,010	-0,064
-267,540	-101,502	-0,014	-0,002
-266,526	800,000	-0,021	0,050
-265,511	800,000	0,026	0,083
-264,497	-200,000	0,026	0,088
-263,482	-200,000	0,007	0,075
-262,467	440,944	0,044	0,071
-261,453	53,416	-0,085	0,059
-260,438	-200,000	0,007	0,133
-259,424	-200,000	0,002	-0,020
-258,409	-200,000	0,003	-0,102
-257,395	142,541	-0,098	0,095
-256,380	-200,000	0,006	0,039
-255,365	-200,000	0,016	-0,109
-254,351	409,578	0,035	0,055
-253,336	-13,583	0,128	-0,060
-252,322	800,000	-0,047	-0,110
-251,307	-200,000	0,009	0,045
-250,292	-43,409	0,026	-0,010
-249,278	102,770	-0,069	-0,059
-248,263	-23,329	0,174	-0,076
-247,249	-200,000	0,013	-0,083
-246,234	139,115	-0,083	0,080
-245,219	578,625	0,072	-0,128
-244,205	584,896	-0,037	-0,067
-243,190	-57,669	-0,045	0,014
-242,176	-122,443	0,054	-0,006
-241,161	800,000	-0,021	0,068
-240,146	-150,760	-0,052	0,003
-239,132	-200,000	-0,002	-0,031
-238,117	-200,000	0,014	-0,124
-237,103	800,000	0,022	-0,054
-236,088	-43,042	0,054	-0,020
-235,073	-200,000	0,016	0,076
-234,059	99,223	-0,171	0,144
-233,044	800,000	-0,051	0,114
-232,030	498,085	0,032	-0,055
-231,015	800,000	-0,077	-0,218
-230,000	-200,000	0,022	0,090
-228,986	-128,511	0,092	-0,009
-227,971	209,158	-0,034	0,039
-226,957	-105,524	0,136	0,022
-225,942	-55,619	0,106	0,034
-224,927	-200,000	0,004	-0,013
-223,913	800,000	0,046	0,131
-222,898	-200,000	0,028	-0,123
-221,884	754,547	0,006	0,012
-220,869	-75,945	0,168	-0,043
-219,855	-200,000	-0,003	-0,013
-218,840	154,392	0,108	0,108
-217,825	212,243	-0,037	0,042
-216,811	280,410	-0,044	0,058
-215,796	174,814	-0,066	0,069
-214,782	181,867	0,148	-0,159
-213,767	800,000	-0,011	-0,027
-212,752	-0,234	-0,025	-0,013
-211,738	-124,708	0,051	0,006
-210,723	-200,000	0,035	0,142
-209,709	-200,000	-0,020	0,088
-208,694	-200,000	-0,001	-0,017
-207,679	338,100	0,031	-0,044
-206,665	800,000	-0,029	-0,064
-205,650	224,610	0,057	0,067
-204,636	-200,000	0,000	-0,007
-203,621	640,251	0,055	-0,103
-202,606	-45,510	0,073	-0,026
-201,592	-93,364	-0,155	-0,031
-200,577	136,215	-0,038	-0,036
-199,563	43,528	0,042	0,028
-198,548	363,279	-0,035	-0,051
-197,533	-70,844	0,078	-0,021
-196,519	-69,871	-0,073	-0,020
-195,504	-200,000	-0,019	-0,107
-194,490	-26,609	-0,193	-0,082
-193,475	-122,750	-0,098	0,011
-192,460	-65,020	0,054	-0,016
-191,446	66,960	-0,055	0,041
-190,431	-200,000	-0,019	0,087
-189,417	-200,000	0,004	0,046
-188,402	-200,000	0,028	-0,111
-187,387	-137,887	-0,063	-0,005
-186,373	-9,661	-0,053	-0,026
-185,358	-139,950	0,167	-0,013
-184,344	-65,681	-0,087	0,025
-183,329	-81,696	0,121	-0,029
-182,315	-129,410	0,177	0,018
-181,300	29,401	0,091	-0,056
-180,285	-29,869	0,057	-0,023
-179,271	645,872	-0,036	-0,067
-178,256	-200,000	0,008	0,088
-177,242	198,149	0,051	0,057
-176,227	-46,364	-0,096	0,034
-175,212	-30,392	-0,021	0,008
-174,198	-121,062	-0,100	0,012
-173,183	57,753	-0,063	0,045
-172,169	171,621	-0,056	0,059
-171,154	310,430	-0,069	-0,094
-170,139	431,808	-0,070	-0,111
-169,125	-200,000	0,000	0,069
-168,110	-121,282	0,130	-0,016
-167,096	119,009	0,033	-0,030
-166,081	-66,774	-0,132	0,038
-165,066	453,487	-0,041	-0,066
-164,052	82,515	-0,052	0,041
-163,037	-200,000	-0,022	-0,171
-162,023	-200,000	0,032	0,222
-161,008	92,920	0,064	-0,053
-159,993	-200,000	0,031	-0,116
-158,979	41,780	-0,125	0,082
-157,964	-22,863	-0,103	0,045
-156,950	100,200	0,058	-0,049
-155,935	800,000	-0,034	-0,069
-154,920	21,462	0,051	0,030
-153,906	-124,751	0,045	0,005
-152,891	336,704	0,058	-0,082
-151,877	353,975	-0,008	-0,012
-150,862	-200,000	0,005	0,040
-149,847	-86,721	0,095	-0,021
-148,833	-200,000	0,012	-0,100
-147,818	-63,260	0,105	-0,031
-146,804	341,190	0,052	0,074
-145,789	-21,526	0,035	0,015
-144,775	-47,287	0,069	-0,024
-143,760	800,000	-0,025	-0,063
-142,745	13,947	-0,075	0,042
-141,731	-47,402	-0,107	-0,038
-140,716	-145,705	0,098	-0,006
-139,702	800,000	0,029	-0,061
-138,687	303,378	-0,110	0,148
-137,672	-134,764	0,073	0,006
-136,658	64,390	-0,155	-0,113
-135,643	56,614	-0,109	-0,077
-134,629	36,627	-0,134	-0,086
-133,614	33,235	-0,126	0,079
-132,599	327,766	-0,092	0,129
-131,585	-200,000	0,016	-0,141
-130,570	-200,000	-0,016	-0,052
-129,556	800,000	-0,039	-0,084
-128,541	800,000	-0,038	-0,118
-127,526	800,000	-0,012	0,038
-126,512	-200,000	0,002	0,093
-125,497	-200,000	-0,015	0,048
-124,483	-43,791	-0,005	0,002
-123,468	800,000	0,038	0,116
-122,453	542,233	0,045	-0,078
-121,439	-104,341	0,080	0,013
-120,424	-101,403	-0,041	0,007
-119,410	223,985	-0,070	-0,082
-118,395	-112,392	0,062	0,009
-117,380	-200,000	-0,009	0,095
-116,366	-200,000	0,035	0,198
-115,351	-27,575	0,191	-0,080
-114,337	-114,896	-0,069	-0,009
-113,322	228,348	-0,132	0,156
-112,307	-200,000	0,002	0,083
-111,293	-74,695	0,101	-0,026
-110,278	-200,000	0,007	-0,038
-109,264	-158,555	-0,124	-0,005
-108,249	-37,495	-0,060	0,023
-107,234	254,838	-0,078	0,098
-106,220	-48,388	-0,087	-0,030
-105,205	9,689	-0,076	-0,042
-104,191	-200,000	-0,017	0,057
-103,176	-50,681	0,005	0,002
-102,162	-61,344	-0,055	0,017
-101,147	246,103	-0,078	-0,095
-100,132	-5,143	0,026	-0,013
-99,118	4,390	-0,147	-0,078
-98,103	-17,721	-0,054	0,024
-97,089	-180,578	0,020	0,000
-96,074	-90,584	-0,032	-0,007
-95,059	8,765	-0,061	-0,033
-94,045	-112,344	0,027	-0,004
-93,030	-84,358	0,065	-0,015
-92,016	635,367	0,047	-0,086
-91,001	-200,000	-0,024	-0,084
-89,986	9,586	-0,068	0,037
-88,972	-64,763	0,074	0,022
-87,957	233,138	-0,050	0,060
-86,943	107,701	0,026	0,022
-85,928	800,000	-0,018	-0,056
-84,913	226,008	-0,095	-0,112
-83,899	-200,000	-0,006	-0,100
-82,884	-200,000	0,014	-0,063
-81,870	-113,212	0,044	0,006
-80,855	-200,000	-0,001	-0,068
-79,840	59,296	-0,073	-0,052
-78,826	137,580	-0,063	-0,060
-77,811	800,000	-0,063	-0,138
-76,797	-200,000	-0,018	0,061
-75,782	800,000	0,025	0,069
-74,767	800,000	0,012	-0,028
-73,753	226,451	-0,086	-0,101
-72,738	104,760	-0,060	-0,052
-71,724	800,000	-0,008	-0,020
-70,709	800,000	0,060	-0,125
-69,694	115,526	0,026	-0,023
-68,680	340,332	-0,048	0,068
-67,665	-62,446	0,117	0,035
-66,651	62,893	0,008	-0,006
-65,636	-48,539	0,069	-0,024
-64,622	-200,000	0,017	0,139
-63,607	-36,247	-0,150	0,058
-62,592	-57,506	0,065	-0,021
-61,578	-23,659	-0,102	0,044
-60,563	-107,627	-0,073	-0,011
-59,549	-200,000	-0,006	0,110
-58,534	-127,579	-1,308	-0,136
-57,519	361,340	-0,841	-1,225
-56,505	-200,000	-0,842	-4,432
-55,490	-79,937	0,533	-0,129
-54,476	800,000	4,795	11,593
-53,461	-200,000	14,009	251,266
-52,446	-200,000	693,459	2236,796
-51,432	580,707	1621,622	2890,130
-50,417	117,625	1629,919	1452,892
-49,403	73,991	1284,420	975,042
-48,388	37,761	1021,488	655,780
-47,373	23,962	979,875	583,839
-46,359	23,186	969,451	575,071
-45,344	22,185	965,067	569,188
-44,330	22,129	963,569	568,099
-43,315	22,005	962,037	566,770
-42,300	22,034	960,971	566,215
-41,286	21,999	960,241	565,647
-40,271	21,994	958,943	564,846
-39,257	21,951	958,214	564,255
-38,242	21,978	957,262	563,757
-37,227	21,940	956,515	563,172
-36,213	21,898	955,682	562,525
-35,198	21,866	954,848	561,909
-34,184	21,992	953,954	561,766
-33,169	21,935	953,183	561,107
-32,154	21,997	952,140	560,668
-31,140	21,961	951,261	560,013
-30,125	21,997	950,833	559,856
-29,111	21,937	949,918	559,103
-28,096	22,008	949,127	558,843
-27,082	21,943	948,481	558,232
-26,067	21,974	947,715	557,857
-25,052	21,966	946,839	557,294
-24,038	21,907	946,376	556,811
-23,023	21,964	945,521	556,468
-22,009	21,965	944,991	556,135
-20,994	22,032	944,262	555,899
-19,979	21,995	943,678	555,416
-18,965	21,949	943,087	554,898
-17,950	22,012	942,482	554,721
-16,936	21,931	941,821	554,054
-15,921	21,959	941,014	553,645
-14,906	21,819	940,491	552,873
-13,892	21,892	939,778	552,661
-12,877	21,872	939,028	552,136
-11,863	21,840	938,504	551,704
-10,848	21,851	938,172	551,522
-9,833	22,018	937,311	551,521
-8,819	21,908	936,819	550,863
-7,804	21,846	936,358	550,373
-6,790	21,890	935,558	550,020
-5,775	21,822	935,172	549,558
-4,760	21,874	934,365	549,226
-3,746	21,861	933,768	548,812
-2,731	21,681	933,205	547,894
-1,717	21,660	932,519	547,403
-0,702	21,714	931,662	547,048
0,313	21,477	931,242	546,881
1,327	23,955	928,685	553,091
2,342	31,760	806,566	501,430
3,356	26,905	507,441	307,193
4,371	2,801	372,639	195,058
5,386	-0,204	355,725	182,517
6,400	-1,667	349,233	177,413
7,415	-2,618	346,303	174,774
8,429	-2,879	344,806	173,694
9,444	-2,850	343,961	173,287
10,459	-2,846	343,197	172,892
11,473	-2,812	342,651	172,642
12,488	-2,512	342,188	172,745
13,502	-2,539	341,773	172,489
14,517	-2,641	341,029	171,979
15,531	-2,860	340,488	171,434
16,546	-2,856	340,039	171,197
17,561	-2,938	339,690	170,911
18,575	-2,901	339,251	170,717
19,590	-2,809	338,890	170,628
20,604	-2,911	338,645	170,371
21,619	-2,996	338,285	170,076
22,634	-2,776	337,724	170,034
23,648	-2,904	337,466	169,740
24,663	-2,853	337,045	169,573
25,677	-2,875	336,737	169,377
26,692	-2,852	336,577	169,308
27,707	-2,994	336,255	168,967
28,721	-2,857	335,749	168,855
29,736	-2,959	335,687	168,691
30,750	-2,852	335,268	168,589
31,765	-2,919	334,983	168,353
32,780	-2,844	334,634	168,250
33,794	-3,006	334,524	167,993
34,809	-2,994	334,238	167,848
35,823	-2,885	333,893	167,785
36,838	-2,823	333,451	167,619
37,853	-3,032	333,371	167,325
38,867	-2,877	333,033	167,317
39,882	-2,984	332,776	167,051
40,896	-2,869	332,425	166,991
41,911	-2,907	332,112	166,775
42,926	-3,006	331,816	166,499
43,940	-3,120	331,634	166,263
44,955	-3,033	331,330	166,195
45,969	-2,988	330,915	166,023
46,984	-3,168	330,858	165,775
47,999	-3,227	330,329	165,429
49,013	-3,327	330,083	165,177
50,028	-3,441	329,931	164,957
51,042	-3,421	329,454	164,727
52,057	-3,460	329,330	164,606
53,071	-3,435	329,047	164,478
54,086	-3,458	328,951	164,390
55,101	-3,408	328,715	164,313
56,115	-3,285	328,518	164,339
57,130	-2,936	328,291	164,604
58,144	-2,831	328,049	164,586
59,159	-2,744	327,859	164,573
60,174	-2,757	327,578	164,403
61,188	-2,806	327,354	164,221
62,203	-2,828	327,049	164,029
63,217	-2,773	326,762	163,932
64,232	-2,869	326,638	163,747
65,247	-2,686	326,426	163,831
66,261	-2,707	326,035	163,597
67,276	-2,924	325,724	163,184
68,290	-3,011	325,427	162,924
69,305	-3,035	325,109	162,723
70,320	-2,930	324,793	162,668
71,334	-2,956	324,667	162,561
72,349	-2,884	324,709	162,647
73,363	-2,843	324,228	162,437
74,378	-2,714	323,994	162,449
75,393	-2,778	323,864	162,298
76,407	-2,707	323,491	162,176
77,422	-2,925	323,392	161,870
78,436	-2,844	323,152	161,825
79,451	-2,775	322,736	161,679
80,466	-2,920	322,563	161,417
81,480	-3,077	322,107	161,002
82,495	-3,148	322,029	160,870
83,509	-3,023	321,756	160,858
84,524	-3,121	321,535	160,625
85,539	-3,156	321,208	160,408
86,553	-3,177	320,975	160,255
87,568	-3,074	320,713	160,222
88,582	-3,149	320,460	159,999
89,597	-3,195	320,285	159,848
90,611	-3,077	320,192	159,916
91,626	-2,745	319,878	160,108
92,641	-2,889	319,632	159,813
93,655	-2,975	319,469	159,623
94,670	-3,026	319,244	159,441
95,684	-2,966	318,984	159,362
96,699	-2,870	318,730	159,327
97,714	-2,934	318,333	159,045
98,728	-3,110	318,168	158,756
99,743	-3,149	317,955	158,593
100,757	-3,171	317,742	158,449
101,772	-3,235	317,587	158,289
102,787	-3,031	317,195	158,300
103,801	-2,945	317,068	158,316
104,816	-2,976	316,866	158,167
105,830	-3,029	316,706	158,016
106,845	-2,959	316,561	158,005
107,860	-2,940	316,280	157,871
108,874	-2,960	316,026	157,709
109,889	-3,034	315,757	157,481
110,903	-3,052	315,449	157,294
111,918	-2,977	315,259	157,266
112,933	-3,109	315,151	157,056
113,947	-3,011	314,783	156,964
114,962	-2,932	314,622	156,954
115,976	-2,956	314,239	156,723
116,991	-2,922	314,132	156,692
118,006	-2,887	313,884	156,592
119,020	-2,970	313,892	156,493
120,035	-2,898	313,768	156,495
121,049	-2,953	313,475	156,276
122,064	-2,907	313,229	156,188
123,079	-2,984	313,009	155,983
124,093	-2,848	312,601	155,910
125,108	-3,017	312,349	155,591
126,122	-3,303	312,081	155,138
127,137	-3,135	311,884	155,206
128,151	-3,232	311,718	155,007
129,166	-3,152	311,518	154,978
130,181	-3,085	311,252	154,903
131,195	-3,138	310,922	154,668
132,210	-3,114	310,762	154,601
133,224	-3,014	310,713	154,668
134,239	-2,912	310,417	154,615
135,254	-2,902	310,260	154,534
136,268	-3,094	310,047	154,211
137,283	-3,088	309,640	154,001
138,297	-3,361	309,525	153,643
139,312	-3,280	309,277	153,592
140,327	-2,952	309,038	153,804
141,341	-2,725	308,939	153,979
142,356	-2,733	308,840	153,907
143,370	-2,498	308,747	154,095
144,385	-2,572	308,376	153,818
145,400	-2,722	308,222	153,571
146,414	-2,650	308,013	153,528
147,429	-2,523	307,774	153,528
148,443	-2,597	307,672	153,386
149,458	-2,646	307,322	153,146
150,473	-2,664	307,170	153,038
151,487	-2,821	306,894	152,723
152,502	-2,711	306,677	152,717
153,516	-2,611	306,554	152,745
154,531	-2,615	306,161	152,532
155,546	-2,539	305,931	152,483
156,560	-2,747	305,790	152,183
157,575	-2,823	305,604	151,997
158,589	-2,804	305,307	151,856
159,604	-2,797	305,243	151,819
160,619	-2,643	304,749	151,718
161,633	-2,644	304,788	151,724
162,648	-2,758	304,818	151,606
163,662	-2,658	304,422	151,499
164,677	-2,571	304,108	151,419
165,692	-2,645	304,014	151,283
166,706	-2,697	303,791	151,105
167,721	-2,800	303,681	150,930
168,735	-2,597	303,381	150,977
169,750	-2,646	303,406	150,926
170,764	-2,526	303,118	150,893
171,779	-2,545	302,957	150,780
172,794	-2,611	302,771	150,605
173,808	-2,609	302,301	150,360
174,823	-3,106	302,058	149,717
175,837	-3,176	301,787	149,497
176,852	-2,749	301,682	149,869
177,867	-2,600	301,648	149,991
178,881	-2,706	301,529	149,810
179,896	-2,680	301,357	149,738
180,910	-2,550	301,183	149,771
181,925	-2,413	300,808	149,711
182,940	-2,495	300,705	149,563
183,954	-2,690	300,514	149,256
184,969	-2,524	300,156	149,234
185,983	-2,723	300,146	149,012
186,998	-2,664	299,774	148,875
188,013	-2,584	299,552	148,832
189,027	-2,724	299,435	148,619
190,042	-2,517	299,160	148,679
191,056	-2,493	299,072	148,646
192,071	-2,426	298,970	148,650
193,086	-2,449	298,726	148,492
194,100	-2,471	298,500	148,344
195,115	-2,443	298,200	148,210
196,129	-2,510	297,981	148,021
197,144	-2,466	297,705	147,915
198,159	-2,576	297,574	147,725
199,173	-2,352	297,228	147,765
200,188	-2,396	297,252	147,720
201,202	-2,468	296,902	147,462
202,217	-2,783	296,655	147,009
203,232	-3,033	296,289	146,564
204,246	-2,678	296,116	146,821
205,261	-2,645	296,219	146,892
206,275	-2,526	295,939	146,859
207,290	-2,523	295,677	146,719
208,304	-2,482	295,466	146,642
209,319	-2,640	295,326	146,402
210,334	-2,651	295,110	146,271
211,348	-2,643	294,819	146,121
212,363	-2,611	294,682	146,073
213,377	-2,512	294,472	146,054
214,392	-2,705	294,315	145,770
215,407	-2,732	294,195	145,671
216,421	-2,844	294,062	145,482
217,436	-2,834	293,677	145,288
218,450	-2,800	293,365	145,154
219,465	-2,892	293,240	144,989
220,480	-2,857	293,206	144,993
221,494	-2,715	292,939	144,989
222,509	-2,657	292,757	144,943
223,523	-2,599	292,673	144,946
224,538	-2,555	292,403	144,843
225,553	-2,550	292,338	144,802
226,567	-2,468	292,065	144,735
227,582	-2,567	292,037	144,611
228,596	-2,461	291,862	144,616
229,611	-2,421	291,622	144,524
230,626	-2,661	291,443	144,186
231,640	-2,781	291,001	143,837
232,655	-3,049	290,852	143,486
233,669	-3,065	290,559	143,313
234,684	-2,881	290,394	143,399
235,699	-2,931	290,214	143,249
236,713	-2,970	290,155	143,169
237,728	-2,902	289,896	143,096
238,742	-2,770	289,850	143,189
239,757	-2,567	289,541	143,222
240,772	-2,579	289,346	143,101
241,786	-2,640	289,285	142,999
242,801	-2,758	288,979	142,719
243,815	-2,915	288,953	142,541
244,830	-2,642	288,696	142,667
245,844	-2,697	288,332	142,420
246,859	-2,693	288,253	142,373
247,874	-2,898	288,050	142,061
248,888	-2,737	287,895	142,128
249,903	-2,537	287,813	142,269
250,917	-2,506	287,753	142,256
251,932	-2,421	287,713	142,307
252,947	-1,756	287,540	142,852
253,961	-2,312	287,090	142,078
254,976	-1,336	287,632	143,279
255,990	1,357	288,461	146,292
257,005	2,413	288,699	147,423
258,020	3,642	289,228	148,873
259,034	3,927	288,731	148,880
260,049	3,556	288,550	148,414
261,063	3,364	288,277	148,075
262,078	3,591	288,252	148,267
263,093	4,276	288,436	149,012
264,107	4,305	288,237	148,924
265,122	4,401	287,877	148,817
266,136	4,477	287,804	148,838
267,151	4,362	287,521	148,568
268,166	4,245	287,344	148,351
269,180	4,278	287,018	148,202
270,195	4,230	287,059	148,163
271,209	4,158	286,935	148,017
272,224	4,109	286,548	147,757
273,239	3,862	286,247	147,352
274,253	4,127	286,196	147,566
275,268	4,492	286,236	147,923
276,282	4,425	285,907	147,676
277,297	4,498	285,866	147,712
278,312	4,649	285,743	147,779
279,326	4,338	285,434	147,309
280,341	4,150	285,291	147,042
281,355	4,170	285,044	146,921
282,370	4,086	284,793	146,699
283,384	4,112	284,646	146,635
284,399	4,123	284,486	146,550
285,414	4,234	284,068	146,427
286,428	4,125	284,040	146,296
287,443	3,881	283,685	145,869
288,457	3,917	283,475	145,782
289,472	3,730	283,300	145,501
290,487	3,746	283,236	145,470
291,501	3,682	282,850	145,199
292,516	3,451	282,722	144,902
293,530	3,545	282,534	144,882
294,545	3,792	282,494	145,081
295,560	4,059	282,289	145,214
296,574	3,600	282,186	144,717
297,589	3,955	281,946	144,915
298,603	4,270	281,949	145,200
299,618	4,135	281,740	144,952
300,633	4,149	281,465	144,812
301,647	4,065	281,236	144,601
302,662	3,855	280,966	144,253
303,676	3,763	280,767	144,051
304,691	3,613	280,554	143,789
305,706	3,615	280,146	143,569
306,720	3,658	280,081	143,563
307,735	3,442	279,942	143,277
308,749	3,491	279,786	143,230
309,764	3,638	279,860	143,392
310,779	3,525	279,531	143,105
311,793	3,532	279,231	142,946
312,808	3,625	279,045	142,924
313,822	3,712	278,846	142,891
314,837	3,309	278,815	142,487
315,852	3,447	278,390	142,385
316,866	3,441	278,273	142,307
317,881	3,555	278,208	142,367
318,895	3,679	277,849	142,286
319,910	3,384	277,818	141,983
320,925	3,332	277,471	141,745
321,939	3,597	277,457	141,971
322,954	3,683	277,474	142,047
323,968	3,666	277,314	141,936
324,983	3,879	277,079	142,001
325,997	3,776	276,896	141,798
327,012	3,688	276,739	141,624
328,027	3,744	276,425	141,503
329,041	3,594	276,422	141,350
330,056	3,705	276,305	141,380
331,070	3,708	275,937	141,182
332,085	3,549	275,734	140,919
333,100	3,594	275,507	140,833
334,114	3,486	275,452	140,692
335,129	3,493	275,191	140,553
336,143	3,748	275,236	140,797
337,158	3,911	275,145	140,888
338,173	3,802	274,873	140,636
339,187	3,557	274,681	140,301
340,202	3,792	274,462	140,392
341,216	3,846	274,247	140,318
342,231	3,659	274,210	140,116
343,246	3,689	273,927	139,986
344,260	3,727	273,798	139,942
345,275	3,996	273,675	140,112
346,289	4,205	273,533	140,217
347,304	4,149	273,296	140,033
348,319	3,828	273,180	139,669
349,333	3,865	272,904	139,548
350,348	4,215	272,824	139,813
351,362	4,153	272,634	139,647
352,377	4,147	272,480	139,550
353,392	4,027	272,400	139,388
354,406	4,232	272,091	139,403
355,421	192,004	1331,151	1410,105
356,435	155,127	1460,272	1410,223
