DTS Sentinel unit serial number:	SN410029Multiplexer serial number:	ORYXHardware model number:	OX2-SRSoftware version number:	ORYX F/W v4,00 Oryx Data Collector v3.7.2.0data status	okinstallation	B4 Nyhavnadifferential loss correction	single-endedforward channel	channel 2reverse channel	N/Adate	2023/12/18time	23:55:13forward acquisition time	300,00reverse acquisition time	0,00gamma	499,1914k internal	0,3123k external	0,3123temperature offset calibration	1,0000default loss term (dB/km)	0,3820temperature slope calibration	1,0000multiplexer offset coefficient	1,0000multiplexer slope coefficient	1,0000fibre end	0,00T internal ref (°C)	22,25T ext. ref 1 (°C)	7,30T ext. ref 2 (°C)	7,33length (m)	temperature (°C)	Stokes	anti-Stokes-744,400	275,695	0,027	-0,036
-743,385	169,602	-0,212	0,226
-742,371	-200,000	0,024	-0,114
-741,356	-15,257	-0,219	0,104
-740,342	800,000	0,038	0,105
-739,327	44,115	-0,189	0,129
-738,312	-132,725	0,114	0,011
-737,298	48,327	-0,171	0,119
-736,283	119,004	-0,087	-0,080
-735,269	-7,978	-0,172	0,086
-734,254	516,293	0,042	-0,073
-733,239	-154,082	-0,378	-0,019
-732,225	45,603	0,027	-0,018
-731,210	-200,000	-0,024	0,214
-730,196	-200,000	-0,009	-0,067
-729,181	39,097	-0,038	0,026
-728,167	800,000	-0,005	0,015
-727,152	-49,834	-0,101	-0,036
-726,137	800,000	-0,013	-0,027
-725,123	-8,259	-0,058	0,029
-724,108	800,000	-0,052	-0,108
-723,094	-200,000	-0,007	-0,164
-722,079	291,870	-0,014	0,019
-721,064	39,418	0,025	0,017
-720,050	-200,000	-0,003	0,127
-719,035	800,000	-0,047	-0,100
-718,021	800,000	-0,055	-0,122
-717,006	-30,359	-0,115	-0,048
-715,991	435,663	-0,048	-0,078
-714,977	88,424	0,032	0,026
-713,962	216,642	-0,072	-0,086
-712,948	-88,671	-0,098	-0,021
-711,933	125,606	-0,028	0,026
-710,918	9,016	0,121	-0,068
-709,904	-177,424	-0,154	0,003
-708,889	800,000	0,021	0,066
-707,875	800,000	-0,059	0,159
-706,860	93,435	-0,020	-0,017
-705,845	273,256	0,024	-0,031
-704,831	-36,325	-0,058	0,023
-703,816	47,294	-0,084	-0,058
-702,802	-200,000	0,006	-0,076
-701,787	135,490	-0,108	-0,105
-700,772	153,199	-0,072	-0,074
-699,758	-200,000	0,012	-0,054
-698,743	638,694	-0,056	-0,106
-697,729	370,613	-0,026	-0,039
-696,714	-200,000	0,003	0,031
-695,699	-200,000	-0,004	0,104
-694,685	-87,001	0,105	-0,024
-693,670	240,969	-0,095	-0,118
-692,656	-200,000	-0,008	-0,092
-691,641	-4,004	0,053	-0,027
-690,627	-200,000	-0,097	0,000
-689,612	200,255	0,029	-0,034
-688,597	-145,108	-0,118	-0,008
-687,583	393,762	-0,069	-0,107
-686,568	173,470	-0,087	-0,094
-685,554	463,751	0,085	0,141
-684,539	800,000	0,024	-0,063
-683,524	-91,345	-0,027	0,006
-682,510	12,297	-0,096	-0,055
-681,495	800,000	0,057	-0,186
-680,481	-98,345	-0,042	0,008
-679,466	36,482	-0,053	-0,035
-678,451	-200,000	0,021	0,080
-677,437	-200,000	-0,028	-0,181
-676,422	-200,000	-0,021	0,169
-675,408	-92,431	-0,100	0,021
-674,393	353,995	-0,048	-0,070
-673,378	57,907	-0,041	0,030
-672,364	-164,026	-0,058	-0,002
-671,349	569,663	0,018	-0,033
-670,335	312,429	-0,045	0,062
-669,320	-115,627	0,068	0,009
-668,305	-200,000	-0,026	-0,092
-667,291	-41,943	-0,073	0,027
-666,276	-200,000	-0,026	-0,109
-665,262	-200,000	-0,003	-0,010
-664,247	-200,000	0,008	-0,043
-663,232	102,836	0,046	-0,040
-662,218	-11,245	-0,054	-0,026
-661,203	103,586	-0,035	-0,030
-660,189	-200,000	-0,001	0,022
-659,174	-113,412	-0,053	-0,008
-658,159	-200,000	0,027	0,158
-657,145	109,531	-0,094	-0,083
-656,130	695,174	0,074	-0,146
-655,116	800,000	-0,004	-0,011
-654,101	800,000	0,020	0,051
-653,086	430,872	-0,038	-0,062
-652,072	576,591	-0,038	0,070
-651,057	-200,000	-0,011	-0,210
-650,043	-26,794	-0,061	0,026
-649,028	-6,028	-0,028	0,014
-648,014	12,731	0,040	-0,023
-646,999	800,000	0,071	0,210
-645,984	-200,000	-0,006	0,103
-644,970	146,496	-0,072	0,072
-643,955	800,000	0,044	-0,121
-642,941	4,401	0,112	-0,061
-641,926	-6,472	0,105	-0,053
-640,911	800,000	0,041	0,088
-639,897	28,899	0,140	-0,088
-638,882	672,425	-0,012	0,023
-637,868	267,843	-0,006	-0,008
-636,853	-200,000	-0,004	-0,027
-635,838	119,540	-0,065	-0,059
-634,824	-200,000	-0,006	-0,030
-633,809	800,000	0,050	-0,118
-632,795	800,000	0,007	-0,015
-631,780	610,573	0,021	0,039
-630,765	665,857	-0,025	-0,049
-629,751	-103,547	0,074	-0,013
-628,736	-123,672	-0,077	-0,009
-627,722	-82,065	-0,112	-0,027
-626,707	157,281	0,045	-0,046
-625,692	-125,776	0,106	-0,012
-624,678	-200,000	0,010	-0,144
-623,663	-17,798	-0,141	0,065
-622,649	-110,447	0,074	0,011
-621,634	113,321	0,059	-0,053
-620,619	547,802	-0,031	0,054
-619,605	-100,598	0,090	0,016
-618,590	-35,476	0,071	-0,029
-617,576	464,903	0,064	-0,106
-616,561	-40,789	-0,116	0,044
-615,546	-192,641	-0,113	0,001
-614,532	-200,000	-0,003	-0,078
-613,517	-141,994	0,134	-0,010
-612,503	-8,120	0,133	-0,066
-611,488	-200,000	0,003	0,058
-610,474	257,646	-0,011	-0,014
-609,459	196,372	0,141	0,160
-608,444	-96,043	0,022	-0,004
-607,430	-141,352	0,061	0,005
-606,415	-200,000	0,016	-0,098
-605,401	-200,000	-0,022	0,091
-604,386	167,234	0,069	0,073
-603,371	-200,000	-0,028	0,111
-602,357	0,159	0,038	-0,020
-601,342	800,000	-0,022	0,046
-600,328	-200,000	0,050	-0,201
-599,313	-200,000	-0,007	-0,041
-598,298	-200,000	0,005	0,156
-597,284	134,305	0,069	-0,066
-596,269	441,772	0,024	0,039
-595,255	145,508	0,010	-0,010
-594,240	92,628	0,045	-0,038
-593,225	6,817	0,053	-0,029
-592,211	22,917	-0,051	-0,031
-591,196	158,040	0,039	0,041
-590,182	6,776	0,107	-0,059
-589,167	-47,421	0,155	0,056
-588,152	-80,796	-0,102	-0,025
-587,138	800,000	-0,034	-0,110
-586,123	-200,000	0,006	0,073
-585,109	602,328	0,078	-0,145
-584,094	-81,295	-0,064	0,015
-583,079	-90,386	0,134	0,029
-582,065	19,142	0,057	-0,034
-581,050	-200,000	0,019	0,116
-580,036	-132,089	-0,106	-0,010
-579,021	-200,000	-0,021	-0,076
-578,006	-200,000	0,010	-0,059
-576,992	-42,292	-0,070	-0,026
-575,977	800,000	0,025	-0,070
-574,963	446,258	-0,066	0,108
-573,948	241,641	-0,070	0,087
-572,934	-110,852	-0,156	0,024
-571,919	147,481	-0,073	-0,073
-570,904	55,592	-0,066	-0,047
-569,890	-19,901	0,056	-0,025
-568,875	37,396	-0,020	-0,013
-567,861	-200,000	-0,041	0,158
-566,846	-200,000	0,045	0,157
-565,831	-200,000	-0,010	-0,037
-564,817	562,277	-0,037	0,066
-563,802	-43,212	-0,068	-0,025
-562,788	800,000	-0,040	0,099
-561,773	-200,000	0,033	-0,117
-560,758	-200,000	0,010	0,051
-559,744	716,856	0,007	-0,014
-558,729	36,018	-0,034	0,022
-557,715	-200,000	-0,020	0,147
-556,700	-200,000	-0,003	0,009
-555,685	81,373	0,085	-0,068
-554,671	24,119	-0,156	0,095
-553,656	219,060	-0,040	0,047
-552,642	90,135	-0,021	0,018
-551,627	-200,000	-0,002	-0,056
-550,612	109,172	-0,082	-0,073
-549,598	-13,085	-0,090	0,043
-548,583	186,656	0,007	-0,007
-547,569	173,532	-0,031	0,033
-546,554	-34,205	0,112	0,045
-545,539	607,369	-0,030	-0,056
-544,525	-17,287	-0,093	0,043
-543,510	-200,000	0,013	-0,047
-542,496	800,000	-0,039	-0,093
-541,481	91,792	0,057	-0,047
-540,466	10,684	-0,071	-0,040
-539,452	576,901	0,070	0,128
-538,437	-88,452	-0,057	-0,013
-537,423	800,000	-0,024	0,057
-536,408	-200,000	-0,000	0,013
-535,393	-0,531	-0,115	0,060
-534,379	248,835	0,075	-0,094
-533,364	477,797	-0,088	-0,148
-532,350	-65,088	0,109	-0,032
-531,335	-141,409	-0,112	-0,008
-530,321	357,735	-0,024	0,035
-529,306	249,230	0,055	0,069
-528,291	402,337	0,026	0,040
-527,277	108,712	0,157	-0,138
-526,262	75,225	-0,081	0,063
-525,248	-139,384	0,034	-0,003
-524,233	800,000	-0,013	0,039
-523,218	-200,000	0,008	0,029
-522,204	800,000	-0,029	0,063
-521,189	346,836	-0,018	-0,026
-520,175	-29,589	-0,194	0,082
-519,160	-0,394	0,079	-0,041
-518,145	55,514	0,144	-0,103
-517,131	-200,000	0,021	-0,070
-516,116	210,744	-0,069	-0,080
-515,102	-200,000	-0,029	0,101
-514,087	-200,000	0,012	-0,077
-513,072	-200,000	-0,035	-0,147
-512,058	147,336	-0,072	-0,071
-511,043	-58,080	-0,097	-0,031
-510,029	102,754	-0,015	0,013
-509,014	-71,066	0,079	0,022
-507,999	-179,049	-0,067	-0,001
-506,985	260,572	-0,066	-0,085
-505,970	-113,556	-0,077	-0,011
-504,956	-200,000	0,018	-0,101
-503,941	800,000	-0,039	-0,081
-502,926	80,514	-0,093	0,074
-501,912	484,946	0,096	0,162
-500,897	800,000	-0,022	0,056
-499,883	800,000	-0,005	-0,012
-498,868	-200,000	0,024	-0,098
-497,853	114,975	-0,088	-0,080
-496,839	66,073	-0,047	-0,035
-495,824	-200,000	0,010	0,098
-494,810	-40,552	0,135	-0,051
-493,795	170,349	0,029	-0,030
-492,781	-200,000	-0,011	-0,040
-491,766	-75,494	-0,142	-0,037
-490,751	-200,000	-0,005	-0,135
-489,737	800,000	-0,036	-0,099
-488,722	12,604	0,105	-0,059
-487,708	545,750	-0,021	0,037
-486,693	-64,052	-0,094	0,028
-485,678	524,651	-0,026	-0,046
-484,664	17,531	-0,156	-0,091
-483,649	800,000	-0,021	-0,060
-482,635	800,000	-0,026	-0,072
-481,620	28,421	0,122	0,076
-480,605	181,415	-0,066	0,071
-479,591	-89,074	0,028	-0,006
-478,576	81,278	-0,114	-0,091
-477,562	-55,383	-0,080	0,026
-476,547	516,096	-0,050	0,087
-475,532	-200,000	0,015	-0,072
-474,518	544,538	-0,042	-0,075
-473,503	-38,450	0,081	-0,031
-472,489	259,464	-0,093	0,119
-471,474	59,865	0,095	0,069
-470,459	-200,000	-0,001	-0,108
-469,445	-200,000	-0,001	-0,063
-468,430	-103,833	-0,097	-0,017
-467,416	220,514	0,064	-0,076
-466,401	790,201	0,028	-0,057
-465,386	691,374	-0,059	-0,114
-464,372	-200,000	-0,011	0,107
-463,357	312,942	-0,048	0,067
-462,343	-200,000	-0,058	-0,202
-461,328	-200,000	0,020	0,124
-460,313	51,100	-0,155	0,108
-459,299	-200,000	-0,013	0,114
-458,284	325,408	0,021	0,029
-457,270	167,250	-0,146	-0,153
-456,255	-114,644	-0,132	0,018
-455,241	-66,729	-0,169	-0,049
-454,226	-45,656	-0,049	0,018
-453,211	-0,487	0,081	-0,042
-452,197	800,000	0,043	0,096
-451,182	94,984	-0,046	0,038
-450,168	-93,848	-0,098	0,020
-449,153	-77,409	0,078	-0,020
-448,138	29,392	-0,084	-0,052
-447,124	-10,500	-0,081	0,039
-446,109	-21,714	0,069	0,031
-445,095	82,093	0,051	-0,040
-444,080	4,626	0,063	0,034
-443,065	57,544	0,123	0,088
-442,051	-200,000	-0,006	-0,231
-441,036	-191,545	-0,105	0,001
-440,022	58,165	0,061	0,044
-439,007	92,693	0,048	-0,040
-437,992	257,934	-0,027	0,034
-436,978	502,168	0,040	0,069
-435,963	800,000	-0,012	-0,028
-434,949	800,000	0,026	-0,067
-433,934	-67,540	-0,110	-0,032
-432,919	-108,751	0,089	0,014
-431,905	-76,771	0,064	0,016
-430,890	-200,000	0,007	0,036
-429,876	86,090	-0,082	-0,067
-428,861	341,854	0,051	0,074
-427,846	76,971	-0,062	0,049
-426,832	37,372	0,008	-0,005
-425,817	-200,000	0,003	0,012
-424,803	-159,700	-0,024	0,001
-423,788	99,950	0,062	-0,053
-422,773	398,661	0,042	0,065
-421,759	104,281	-0,054	-0,046
-420,744	-119,799	0,108	0,013
-419,730	-32,157	-0,155	-0,064
-418,715	328,824	0,035	-0,050
-417,701	41,625	-0,067	0,044
-416,686	13,565	0,208	-0,118
-415,671	-96,056	0,038	-0,007
-414,657	-152,762	-0,080	0,004
-413,642	800,000	0,021	0,066
-412,628	-114,784	-0,016	-0,002
-411,613	-29,929	-0,027	0,011
-410,598	32,539	0,065	0,041
-409,584	1,922	-0,007	-0,004
-408,569	40,819	0,048	0,032
-407,555	-32,450	0,052	-0,021
-406,540	372,995	-0,061	-0,091
-405,525	800,000	-0,047	0,143
-404,511	-134,213	-0,088	-0,008
-403,496	-200,000	-0,015	0,063
-402,482	-115,433	0,068	-0,009
-401,467	-200,000	0,011	0,069
-400,452	-162,512	0,079	-0,003
-399,438	800,000	0,063	-0,182
-398,423	800,000	-0,023	-0,054
-397,409	800,000	0,015	0,034
-396,394	271,245	0,013	0,017
-395,379	-200,000	0,018	-0,113
-394,365	54,403	0,123	0,087
-393,350	-200,000	0,021	0,084
-392,336	-200,000	0,006	0,023
-391,321	491,242	0,011	-0,019
-390,306	-69,423	-0,099	-0,028
-389,292	31,114	-0,023	-0,014
-388,277	340,425	-0,138	-0,199
-387,263	123,626	0,115	-0,106
-386,248	-50,541	-0,040	0,014
-385,233	-135,932	-0,003	-0,000
-384,219	-200,000	0,002	0,030
-383,204	-45,148	0,068	0,025
-382,190	-200,000	-0,014	-0,146
-381,175	-200,000	0,018	0,065
-380,160	55,003	0,104	0,074
-379,146	800,000	-0,060	0,145
-378,131	296,730	0,030	0,041
-377,117	-200,000	0,000	0,093
-376,102	-13,108	0,055	0,026
-375,088	-137,100	-0,023	0,002
-374,073	246,334	0,035	0,044
-373,058	-28,317	-0,091	0,038
-372,044	213,877	0,160	0,186
-371,029	-200,000	0,012	-0,049
-370,015	-3,985	0,044	0,022
-369,000	-165,986	-0,061	-0,002
-367,985	-25,640	-0,164	-0,071
-366,971	-200,000	-0,023	-0,131
-365,956	110,204	0,083	0,073
-364,942	-14,356	0,132	-0,062
-363,927	-200,000	-0,011	0,090
-362,912	-200,000	-0,020	0,074
-361,898	0,662	-0,040	0,021
-360,883	800,000	0,059	0,135
-359,869	93,620	-0,065	-0,054
-358,854	178,894	-0,064	-0,069
-357,839	633,199	0,041	0,076
-356,825	-16,289	-0,065	-0,030
-355,810	800,000	-0,070	-0,146
-354,796	116,394	0,081	-0,072
-353,781	12,265	-0,010	-0,006
-352,766	458,358	0,039	0,064
-351,752	-134,960	0,049	0,004
-350,737	238,344	-0,020	0,025
-349,723	-200,000	0,013	0,108
-348,708	189,650	0,121	-0,133
-347,693	705,465	-0,029	-0,057
-346,679	800,000	-0,051	-0,117
-345,664	-46,673	-0,021	-0,007
-344,650	-87,342	0,123	0,027
-343,635	-110,069	0,051	-0,008
-342,620	502,536	0,030	0,052
-341,606	-200,000	0,007	-0,038
-340,591	-58,624	-0,064	0,020
-339,577	-200,000	0,026	-0,108
-338,562	-30,736	0,054	-0,022
-337,548	-200,000	0,002	-0,069
-336,533	-85,065	0,098	0,022
-335,518	101,834	-0,075	0,064
-334,504	77,820	-0,126	0,098
-333,489	-42,918	-0,109	-0,040
-332,475	118,193	-0,101	-0,092
-331,460	800,000	-0,031	0,087
-330,445	-60,579	0,058	-0,018
-329,431	-37,572	0,082	-0,032
-328,416	241,066	-0,091	0,111
-327,402	165,321	0,105	0,109
-326,387	67,246	-0,101	0,075
-325,372	196,872	-0,058	-0,064
-324,358	93,305	0,090	-0,074
-323,343	800,000	-0,009	0,017
-322,329	88,664	0,034	0,028
-321,314	-119,593	-0,105	0,013
-320,299	51,947	-0,076	0,053
-319,285	-117,407	0,021	0,003
-318,270	151,028	0,077	0,077
-317,256	-200,000	0,017	0,060
-316,241	388,418	0,088	0,134
-315,226	-115,140	-0,240	0,033
-314,212	11,161	-0,057	0,032
-313,197	-72,541	0,073	0,020
-312,183	-200,000	0,004	0,054
-311,168	-200,000	-0,006	-0,033
-310,153	-56,121	0,015	-0,005
-309,139	800,000	0,022	0,067
-308,124	-200,000	0,000	-0,014
-307,110	158,485	-0,071	-0,072
-306,095	-56,308	0,088	0,028
-305,080	-140,100	0,011	0,001
-304,066	-200,000	0,031	-0,161
-303,051	545,093	0,028	0,049
-302,037	322,760	0,025	-0,036
-301,022	-200,000	-0,010	0,083
-300,008	800,000	0,035	0,084
-298,993	486,571	0,066	0,110
-297,978	-96,181	0,034	-0,007
-296,964	-103,281	0,186	0,032
-295,949	266,087	0,065	-0,083
-294,935	-11,499	0,045	0,022
-293,920	180,714	0,037	0,040
-292,905	800,000	-0,060	-0,126
-291,891	-127,985	0,173	0,018
-290,876	-96,478	-0,101	-0,019
-289,862	-200,000	0,016	0,120
-288,847	60,213	-0,082	-0,059
-287,832	624,918	-0,031	0,058
-286,818	-22,372	-0,047	0,021
-285,803	269,671	0,082	0,106
-284,789	-30,899	0,125	0,052
-283,774	16,196	-0,033	-0,019
-282,759	335,398	-0,057	0,081
-281,745	-200,000	-0,009	-0,099
-280,730	-200,000	0,013	-0,092
-279,716	-200,000	-0,009	-0,046
-278,701	36,245	-0,052	0,033
-277,686	-135,419	0,087	-0,008
-276,672	-200,000	-0,005	0,048
-275,657	800,000	-0,038	0,091
-274,643	119,143	-0,174	-0,157
-273,628	-200,000	0,012	-0,059
-272,613	-200,000	0,011	-0,041
-271,599	-200,000	0,025	0,089
-270,584	-99,629	0,085	-0,016
-269,570	73,972	0,132	0,101
-268,555	-200,000	-0,026	-0,150
-267,540	444,612	-0,073	-0,117
-266,526	99,865	-0,054	0,046
-265,511	-200,000	-0,008	-0,032
-264,497	-143,295	0,133	0,009
-263,482	122,550	0,067	0,061
-262,467	-200,000	0,024	-0,083
-261,453	-187,003	-0,115	-0,001
-260,438	-19,056	0,052	0,024
-259,424	-134,564	-0,166	0,015
-258,409	-68,160	0,092	-0,026
-257,395	484,785	-0,075	0,126
-256,380	800,000	0,031	0,075
-255,365	86,369	0,150	0,121
-254,351	404,461	-0,084	0,130
-253,336	-200,000	0,014	0,123
-252,322	-200,000	-0,011	0,053
-251,307	532,273	0,024	0,042
-250,292	281,185	0,076	0,099
-249,278	800,000	-0,016	0,039
-248,263	-5,110	-0,024	0,012
-247,249	-200,000	0,011	-0,072
-246,234	-133,967	-0,167	-0,015
-245,219	-200,000	0,026	-0,113
-244,205	-19,508	-0,094	-0,042
-243,190	800,000	0,010	-0,023
-242,176	265,460	0,123	-0,158
-241,161	-194,943	-0,050	0,000
-240,146	-2,756	0,116	0,059
-239,132	-7,097	0,133	-0,066
-238,117	2,091	0,038	0,020
-237,103	-163,768	-0,156	0,005
-236,088	339,466	0,109	-0,156
-235,073	-200,000	0,051	0,180
-234,059	-200,000	0,008	-0,163
-233,044	52,297	-0,018	-0,012
-232,030	-164,700	0,083	0,003
-231,015	64,030	-0,135	0,099
-230,000	-65,176	-0,139	-0,041
-228,986	800,000	-0,048	-0,125
-227,971	-200,000	-0,002	0,110
-226,957	-179,250	0,147	0,002
-225,942	250,528	0,042	-0,052
-224,927	-200,000	-0,012	0,039
-223,913	125,438	-0,086	-0,079
-222,898	124,046	-0,069	0,063
-221,884	124,025	-0,065	0,059
-220,869	-200,000	-0,015	0,072
-219,855	-200,000	0,004	0,078
-218,840	572,549	0,040	0,071
-217,825	26,859	0,106	0,065
-216,811	137,382	0,092	-0,088
-215,796	-5,937	-0,055	-0,028
-214,782	-189,947	-0,088	0,001
-213,767	-137,412	0,021	0,002
-212,752	-42,503	0,130	-0,048
-211,738	-200,000	0,015	0,060
-210,723	-160,573	0,216	0,008
-209,709	-42,142	-0,061	0,023
-208,694	-76,093	0,049	-0,013
-207,679	800,000	0,012	-0,025
-206,665	-128,902	0,072	0,007
-205,650	800,000	0,033	-0,082
-204,636	-200,000	-0,021	0,127
-203,621	88,096	0,033	0,026
-202,606	194,239	-0,045	0,050
-201,592	-200,000	0,010	-0,094
-200,577	-200,000	0,013	0,069
-199,563	800,000	0,032	-0,069
-198,548	800,000	0,046	0,138
-197,533	436,662	-0,031	0,050
-196,519	-200,000	-0,014	-0,073
-195,504	31,737	-0,059	0,037
-194,490	85,410	-0,023	-0,018
-193,475	60,525	0,052	-0,038
-192,460	-92,058	0,050	0,010
-191,446	-200,000	-0,018	0,121
-190,431	365,927	-0,044	0,066
-189,417	207,124	0,017	-0,020
-188,402	-22,757	-0,064	0,028
-187,387	-200,000	0,017	0,103
-186,373	-64,071	-0,095	-0,028
-185,358	11,759	-0,041	-0,023
-184,344	-67,461	-0,098	-0,028
-183,329	-172,973	0,162	-0,004
-182,315	-171,704	0,122	-0,003
-181,300	428,873	-0,019	-0,030
-180,285	287,210	-0,054	-0,071
-179,271	303,058	-0,031	0,042
-178,256	-74,282	-0,053	-0,014
-177,242	3,826	0,025	0,013
-176,227	-89,901	0,109	0,023
-175,212	800,000	-0,023	-0,056
-174,198	-162,375	0,111	0,004
-173,183	114,412	-0,076	-0,068
-172,169	197,178	0,142	-0,158
-171,154	-40,472	-0,064	0,024
-170,139	800,000	0,021	-0,049
-169,125	800,000	-0,030	0,076
-168,110	800,000	0,017	-0,042
-167,096	800,000	-0,005	0,013
-166,081	98,757	0,038	-0,032
-165,066	-200,000	-0,032	0,113
-164,052	-164,258	0,038	-0,001
-163,037	-95,204	-0,119	0,023
-162,023	800,000	-0,017	0,042
-161,008	219,462	-0,054	0,063
-159,993	800,000	-0,025	0,066
-158,979	800,000	-0,042	-0,107
-157,964	80,881	-0,034	-0,027
-156,950	800,000	-0,052	-0,113
-155,935	-15,658	0,048	-0,022
-154,920	-78,377	-0,079	-0,020
-153,906	705,049	-0,068	0,130
-152,891	406,066	0,038	0,059
-151,877	308,647	0,063	-0,086
-150,862	-2,804	-0,077	0,039
-149,847	390,093	0,096	-0,145
-148,833	292,456	-0,050	-0,066
-147,818	319,050	-0,042	-0,059
-146,804	-139,129	0,078	-0,006
-145,789	66,995	-0,129	0,096
-144,775	632,167	-0,028	-0,052
-143,760	267,918	0,025	-0,031
-142,745	-45,942	-0,126	-0,045
-141,731	72,810	-0,067	0,051
-140,716	128,278	-0,085	-0,078
-139,702	114,161	0,039	0,035
-138,687	476,974	0,084	0,139
-137,672	402,658	-0,034	-0,052
-136,658	-200,000	0,026	0,171
-135,643	-200,000	0,015	-0,075
-134,629	523,112	-0,068	0,117
-133,614	-200,000	0,013	0,122
-132,599	-126,525	-0,107	-0,011
-131,585	-200,000	0,010	0,043
-130,570	800,000	0,042	-0,128
-129,556	115,914	-0,036	0,032
-128,541	-109,345	-0,182	0,028
-127,526	-65,586	0,072	-0,021
-126,512	295,405	0,146	0,194
-125,497	275,972	-0,076	-0,099
-124,483	107,763	-0,151	0,131
-123,468	-200,000	-0,007	-0,029
-122,453	-200,000	0,001	-0,076
-121,439	449,594	-0,054	0,087
-120,424	134,211	-0,145	-0,137
-119,410	99,551	-0,060	0,051
-118,395	57,055	0,165	-0,117
-117,380	800,000	-0,047	0,137
-116,366	123,694	0,058	0,053
-115,351	-62,336	-0,188	0,056
-114,337	-200,000	0,007	0,073
-113,322	-200,000	0,017	0,077
-112,307	-200,000	0,004	0,129
-111,293	89,000	0,039	0,031
-110,278	178,964	0,076	0,081
-109,264	-200,000	0,015	0,090
-108,249	-200,000	-0,035	-0,113
-107,234	-65,979	-0,069	-0,020
-106,220	-200,000	-0,008	0,108
-105,205	800,000	0,050	0,101
-104,191	122,374	0,033	0,030
-103,176	27,598	0,040	-0,024
-102,162	-101,786	-0,053	0,009
-101,147	281,081	-0,015	-0,020
-100,132	100,994	-0,029	0,024
-99,118	264,158	-0,082	-0,104
-98,103	-24,118	-0,054	-0,024
-97,089	-200,000	0,017	0,132
-96,074	759,588	-0,029	0,058
-95,059	800,000	0,034	0,082
-94,045	-75,120	-0,039	0,010
-93,030	243,414	0,068	0,083
-92,016	-101,526	0,010	-0,002
-91,001	-58,836	0,063	0,020
-89,986	46,761	0,138	-0,093
-88,972	-200,000	-0,002	0,063
-87,957	13,442	0,046	0,026
-86,943	13,359	-0,061	-0,034
-85,928	539,644	-0,057	-0,098
-84,913	109,662	-0,043	-0,037
-83,899	-35,761	-0,116	0,046
-82,884	-200,000	-0,006	0,020
-81,870	800,000	0,056	0,114
-80,855	-70,117	0,047	-0,013
-79,840	-200,000	-0,003	-0,041
-78,826	-106,423	-0,000	0,000
-77,811	800,000	-0,022	0,058
-76,797	530,909	0,010	0,017
-75,782	-200,000	-0,009	0,097
-74,767	606,509	0,056	0,101
-73,753	7,402	0,084	0,046
-72,738	-71,328	0,089	0,024
-71,724	800,000	0,025	-0,074
-70,709	3,858	0,073	0,039
-69,694	-45,488	-0,128	-0,046
-68,680	-200,000	0,004	-0,041
-67,665	608,158	0,058	0,105
-66,651	-200,000	0,014	0,162
-65,636	-200,000	-0,018	0,076
-64,622	51,372	-0,076	-0,052
-63,607	-40,456	-0,063	-0,024
-62,592	-200,000	0,003	-0,196
-61,578	32,542	-0,024	-0,015
-60,563	800,000	-0,058	0,167
-59,549	800,000	-0,029	0,084
-58,534	-188,614	-1,403	-0,012
-57,519	460,536	-0,924	-1,499
-56,505	-200,000	-0,729	-4,471
-55,490	188,597	0,462	-0,502
-54,476	800,000	4,790	11,638
-53,461	-200,000	13,630	252,041
-52,446	-200,000	689,404	2266,794
-51,432	608,920	1620,706	2948,125
-50,417	119,614	1633,445	1468,027
-49,403	74,549	1287,866	981,618
-48,388	38,046	1023,609	659,250
-47,373	24,285	981,547	586,919
-46,359	23,420	971,414	578,001
-45,344	22,462	966,962	572,201
-44,330	22,431	965,528	571,229
-43,315	22,287	964,110	569,897
-42,300	22,261	962,988	569,127
-41,286	22,304	961,965	568,640
-40,271	22,269	961,062	567,970
-39,257	22,278	960,017	567,359
-38,242	22,258	959,218	566,800
-37,227	22,268	958,361	566,303
-36,213	22,273	957,451	565,760
-35,198	22,154	956,768	564,949
-34,184	22,274	956,293	565,032
-33,169	22,206	955,057	564,062
-32,154	22,264	954,274	563,763
-31,140	22,293	953,229	563,215
-30,125	22,270	952,636	562,769
-29,111	22,215	951,771	562,059
-28,096	22,316	950,979	561,894
-27,082	22,391	950,166	561,632
-26,067	22,322	949,437	560,958
-25,052	22,244	948,887	560,360
-24,038	22,277	948,182	560,026
-23,023	22,290	947,542	559,669
-22,009	22,341	946,791	559,366
-20,994	22,350	946,312	559,088
-19,979	22,297	945,526	558,434
-18,965	22,379	944,707	558,190
-17,950	22,308	944,298	557,698
-16,936	22,232	943,711	557,087
-15,921	22,193	942,998	556,520
-14,906	22,193	942,205	556,032
-13,892	22,253	941,529	555,802
-12,877	22,184	940,896	555,184
-11,863	22,136	940,351	554,690
-10,848	22,132	940,016	554,458
-9,833	22,259	939,422	554,486
-8,819	22,243	938,792	554,044
-7,804	22,228	937,903	553,449
-6,790	22,237	937,353	553,130
-5,775	22,216	936,845	552,742
-4,760	22,178	936,274	552,262
-3,746	22,141	935,692	551,781
-2,731	21,997	935,018	550,909
-1,717	21,909	934,448	550,273
-0,702	21,970	933,645	549,968
0,313	21,798	932,997	549,877
1,327	24,363	930,571	556,460
2,342	32,225	808,695	504,881
3,356	26,867	508,468	308,284
4,371	1,797	372,595	194,087
5,386	-1,259	355,482	181,416
6,400	-2,470	349,565	176,921
7,415	-2,825	346,857	175,111
8,429	-2,907	345,572	174,349
9,444	-2,785	344,439	173,907
10,459	-2,758	343,866	173,634
11,473	-2,808	343,202	173,224
12,488	-2,906	342,685	172,832
13,502	-3,050	342,062	172,332
14,517	-2,941	341,526	172,174
15,531	-2,804	341,046	172,078
16,546	-2,884	340,662	171,775
17,561	-2,757	340,261	171,707
18,575	-2,934	339,886	171,295
19,590	-2,760	339,419	171,248
20,604	-2,817	339,176	171,044
21,619	-2,829	338,818	170,834
22,634	-2,870	338,519	170,620
23,648	-2,708	338,054	170,559
24,663	-2,765	337,760	170,330
25,677	-2,731	337,459	170,202
26,692	-2,714	337,076	170,014
27,707	-2,723	336,849	169,872
28,721	-2,809	336,586	169,625
29,736	-2,823	336,285	169,442
30,750	-2,727	335,848	169,318
31,765	-2,731	335,647	169,197
32,780	-2,866	335,393	168,898
33,794	-2,742	335,037	168,847
34,809	-2,586	334,694	168,838
35,823	-2,824	334,444	168,424
36,838	-2,849	334,266	168,290
37,853	-2,740	333,896	168,214
38,867	-2,900	333,784	167,959
39,882	-2,836	333,433	167,841
40,896	-2,803	333,150	167,721
41,911	-2,772	332,964	167,649
42,926	-2,719	332,580	167,501
43,940	-2,815	332,299	167,234
44,955	-2,831	332,036	167,069
45,969	-2,905	331,784	166,843
46,984	-2,865	331,671	166,816
47,999	-2,912	331,431	166,627
49,013	-2,930	331,044	166,398
50,028	-2,845	330,852	166,383
51,042	-2,987	330,510	166,035
52,057	-2,887	330,400	166,078
53,071	-2,936	329,994	165,804
54,086	-2,930	329,851	165,724
55,101	-2,832	329,517	165,653
56,115	-2,823	329,278	165,527
57,130	-2,737	328,990	165,465
58,144	-2,701	328,655	165,323
59,159	-2,784	328,438	165,105
60,174	-2,848	328,187	164,891
61,188	-2,759	327,886	164,826
62,203	-2,755	327,627	164,686
63,217	-2,718	327,389	164,593
64,232	-2,864	327,305	164,372
65,247	-2,713	326,781	164,264
66,261	-2,701	326,460	164,102
67,276	-2,741	326,352	163,987
68,290	-2,724	326,171	163,901
69,305	-2,773	325,892	163,692
70,320	-2,789	325,620	163,523
71,334	-2,894	325,356	163,258
72,349	-2,840	324,995	163,122
73,363	-2,782	324,780	163,065
74,378	-2,629	324,664	163,161
75,393	-2,848	324,426	162,785
76,407	-2,796	324,153	162,691
77,422	-2,664	323,993	162,742
78,436	-2,766	323,559	162,397
79,451	-2,735	323,312	162,293
80,466	-2,835	323,045	162,033
81,480	-2,823	322,865	161,943
82,495	-2,852	322,616	161,771
83,509	-2,687	322,254	161,757
84,524	-2,753	322,065	161,575
85,539	-2,720	321,804	161,466
86,553	-2,769	321,634	161,312
87,568	-2,791	321,413	161,163
88,582	-2,909	321,308	160,966
89,597	-2,881	321,056	160,856
90,611	-2,734	320,765	160,858
91,626	-2,799	320,605	160,691
92,641	-2,664	320,169	160,607
93,655	-2,755	319,909	160,362
94,670	-2,695	319,737	160,328
95,684	-2,759	319,571	160,159
96,699	-2,779	319,334	160,004
97,714	-2,707	319,078	159,941
98,728	-2,762	318,821	159,738
99,743	-2,820	318,620	159,560
100,757	-2,668	318,362	159,582
101,772	-2,732	318,271	159,452
102,787	-2,837	317,930	159,153
103,801	-2,793	317,825	159,134
104,816	-2,778	317,452	158,950
105,830	-2,727	317,274	158,901
106,845	-2,805	316,974	158,652
107,860	-2,816	316,825	158,552
108,874	-2,726	316,549	158,497
109,889	-2,695	316,219	158,351
110,903	-2,881	316,104	158,079
111,918	-2,754	315,822	158,061
112,933	-2,710	315,649	158,007
113,947	-2,800	315,394	157,768
114,962	-2,768	315,271	157,727
115,976	-2,820	315,102	157,573
116,991	-2,679	314,691	157,504
118,006	-2,719	314,500	157,352
119,020	-2,803	314,416	157,206
120,035	-2,821	314,340	157,135
121,049	-2,806	314,018	156,976
122,064	-2,772	313,829	156,904
123,079	-2,831	313,502	156,663
124,093	-2,864	313,208	156,467
125,108	-2,845	313,035	156,387
126,122	-2,837	312,756	156,242
127,137	-2,823	312,632	156,181
128,151	-2,859	312,369	155,997
129,166	-2,726	312,132	156,006
130,181	-2,761	311,861	155,820
131,195	-2,902	311,574	155,513
132,210	-2,780	311,474	155,579
133,224	-2,829	311,291	155,422
134,239	-2,881	311,168	155,291
135,254	-2,698	310,711	155,243
136,268	-2,669	310,456	155,133
137,283	-2,654	310,127	154,970
138,297	-2,848	310,093	154,734
139,312	-2,794	309,757	154,609
140,327	-2,974	309,786	154,420
141,341	-2,717	309,372	154,472
142,356	-2,584	309,164	154,493
143,370	-2,722	308,994	154,249
144,385	-2,769	308,814	154,097
145,400	-2,644	308,514	154,065
146,414	-2,622	308,367	154,001
147,429	-2,811	308,243	153,726
148,443	-2,818	308,103	153,635
149,458	-2,706	307,695	153,536
150,473	-2,552	307,511	153,592
151,487	-2,718	307,316	153,306
152,502	-2,623	307,113	153,291
153,516	-2,600	306,835	153,163
154,531	-2,695	306,625	152,945
155,546	-2,680	306,402	152,836
156,560	-2,720	306,164	152,662
157,575	-2,705	305,972	152,568
158,589	-2,765	305,883	152,448
159,604	-2,739	305,612	152,326
160,619	-2,634	305,231	152,232
161,633	-2,567	305,185	152,264
162,648	-2,714	304,983	151,997
163,662	-2,782	304,907	151,875
164,677	-2,671	304,489	151,769
165,692	-2,744	304,392	151,631
166,706	-2,609	304,253	151,689
167,721	-2,646	303,983	151,502
168,735	-2,538	303,735	151,477
169,750	-2,598	303,651	151,359
170,764	-2,653	303,354	151,140
171,779	-2,603	303,232	151,118
172,794	-2,648	303,056	150,971
173,808	-2,739	302,732	150,702
174,823	-2,648	302,342	150,588
175,837	-2,830	302,361	150,397
176,852	-2,637	302,113	150,458
177,867	-2,572	301,859	150,385
178,881	-2,556	301,634	150,276
179,896	-2,511	301,465	150,225
180,910	-2,615	301,328	150,037
181,925	-2,575	301,120	149,960
182,940	-2,613	300,908	149,802
183,954	-2,652	300,774	149,683
184,969	-2,463	300,480	149,716
185,983	-2,506	300,299	149,569
186,998	-2,592	300,132	149,384
188,013	-2,635	300,063	149,293
189,027	-2,471	299,601	149,216
190,042	-2,577	299,502	149,046
191,056	-2,755	299,454	148,828
192,071	-2,467	298,991	148,876
193,086	-2,728	298,933	148,570
194,100	-2,645	298,707	148,528
195,115	-2,641	298,437	148,385
196,129	-2,547	298,222	148,360
197,144	-2,449	297,869	148,271
198,159	-2,597	297,806	148,076
199,173	-2,698	297,694	147,906
200,188	-2,694	297,473	147,786
201,202	-2,621	297,167	147,695
202,217	-2,723	297,013	147,502
203,232	-2,761	296,836	147,363
204,246	-2,527	296,432	147,384
205,261	-2,663	296,263	147,151
206,275	-2,592	296,245	147,200
207,290	-2,667	295,991	146,985
208,304	-2,465	295,847	147,103
209,319	-2,586	295,627	146,859
210,334	-2,429	295,347	146,864
211,348	-2,656	295,256	146,579
212,363	-2,674	294,950	146,396
213,377	-2,439	294,820	146,553
214,392	-2,598	294,467	146,206
215,407	-2,705	294,378	146,042
216,421	-2,661	294,143	145,957
217,436	-2,599	293,974	145,921
218,450	-2,674	293,888	145,791
219,465	-2,628	293,627	145,694
220,480	-2,592	293,518	145,663
221,494	-2,703	293,266	145,415
222,509	-2,562	293,080	145,449
223,523	-2,608	293,012	145,357
224,538	-2,514	292,651	145,258
225,553	-2,576	292,473	145,095
226,567	-2,428	292,268	145,127
227,582	-2,586	292,169	144,908
228,596	-2,636	292,005	144,765
229,611	-2,721	291,888	144,610
230,626	-2,579	291,581	144,586
231,640	-2,695	291,367	144,352
232,655	-2,547	291,186	144,395
233,669	-2,754	290,895	144,034
234,684	-2,510	290,779	144,204
235,699	-2,728	290,673	143,924
236,713	-2,443	290,291	144,002
237,728	-2,580	290,123	143,771
238,742	-2,540	289,867	143,671
239,757	-2,520	289,754	143,621
240,772	-2,655	289,553	143,377
241,786	-2,584	289,320	143,319
242,801	-2,633	289,269	143,232
243,815	-2,631	289,147	143,162
244,830	-2,679	288,929	142,993
245,844	-2,740	288,669	142,792
246,859	-2,468	288,528	142,975
247,874	-2,668	288,284	142,646
248,888	-2,662	287,997	142,498
249,903	-2,679	287,968	142,454
250,917	-2,699	287,728	142,303
251,932	-2,622	287,489	142,248
252,947	-2,746	287,287	142,015
253,961	-3,255	286,894	141,315
254,976	-3,732	286,530	140,661
255,990	-3,869	286,330	140,419
257,005	-2,855	286,499	141,469
258,020	-0,961	287,343	143,708
259,034	0,774	287,526	145,467
260,049	1,210	287,766	145,998
261,063	1,690	287,503	146,316
262,078	1,830	287,626	146,500
263,093	2,031	287,563	146,649
264,107	2,456	287,403	146,965
265,122	2,606	287,260	147,024
266,136	2,485	287,096	146,810
267,151	2,812	286,877	147,000
268,166	2,700	286,802	146,840
269,180	2,661	286,603	146,689
270,195	2,732	286,401	146,640
271,209	2,617	286,148	146,387
272,224	2,627	286,031	146,323
273,239	2,593	285,814	146,167
274,253	2,478	285,553	145,910
275,268	2,479	285,391	145,815
276,282	2,324	285,273	145,593
277,297	2,474	285,043	145,607
278,312	2,544	284,921	145,598
279,326	2,443	284,651	145,351
280,341	2,414	284,476	145,221
281,355	2,497	284,235	145,164
282,370	2,409	284,215	145,057
283,384	2,335	283,866	144,795
284,399	2,307	283,722	144,682
285,414	2,453	283,491	144,690
286,428	2,496	283,320	144,631
287,443	2,338	283,157	144,385
288,457	2,289	282,977	144,234
289,472	2,177	282,883	144,066
290,487	2,183	282,595	143,913
291,501	2,102	282,381	143,715
292,516	2,275	282,200	143,773
293,530	2,433	281,849	143,731
294,545	2,235	281,933	143,574
295,560	2,308	281,630	143,475
296,574	2,351	281,440	143,407
297,589	2,277	281,166	143,185
298,603	2,300	281,050	143,134
299,618	2,080	281,046	142,912
300,633	2,276	280,804	142,961
301,647	2,381	280,556	142,921
302,662	2,403	280,308	142,803
303,676	2,529	280,300	142,904
304,691	2,582	280,176	142,878
305,706	2,513	280,010	142,715
306,720	2,536	279,745	142,588
307,735	2,446	279,743	142,491
308,749	2,668	279,485	142,555
309,764	2,524	279,227	142,276
310,779	2,450	279,024	142,090
311,793	2,450	278,884	142,006
312,808	2,473	278,569	141,854
313,822	2,548	278,379	141,815
314,837	2,313	278,309	141,549
315,852	2,602	277,986	141,640
316,866	2,432	277,960	141,456
317,881	2,469	277,682	141,336
318,895	2,489	277,509	141,255
319,910	2,335	277,377	141,031
320,925	2,614	277,128	141,152
321,939	2,606	276,909	141,020
322,954	2,381	276,856	140,772
323,968	2,620	276,619	140,860
324,983	2,524	276,636	140,767
325,997	2,715	276,330	140,775
327,012	2,652	276,032	140,552
328,027	2,478	276,091	140,409
329,041	2,515	276,020	140,395
330,056	2,587	275,683	140,277
331,070	2,695	275,490	140,266
332,085	2,722	275,250	140,157
333,100	2,530	275,065	139,873
334,114	2,578	274,954	139,848
335,129	2,477	274,772	139,651
336,143	2,519	274,546	139,562
337,158	2,599	274,372	139,534
338,173	2,647	274,169	139,463
339,187	2,599	274,180	139,411
340,202	2,612	273,887	139,262
341,216	2,598	273,626	139,104
342,231	2,616	273,580	139,085
343,246	2,639	273,267	138,935
344,260	2,644	273,189	138,886
345,275	2,606	273,147	138,819
346,289	2,734	272,953	138,824
347,304	2,666	272,692	138,617
348,319	2,632	272,466	138,459
349,333	2,641	272,391	138,417
350,348	2,521	272,231	138,214
351,362	2,717	272,000	138,262
352,377	2,686	271,873	138,157
353,392	2,650	271,707	138,028
354,406	2,762	271,469	137,996
355,421	192,615	1348,410	1432,885
356,435	155,522	1479,729	1433,031
