DTS Sentinel unit serial number:	SN410029Multiplexer serial number:	ORYXHardware model number:	OX2-SRSoftware version number:	ORYX F/W v4,00 Oryx Data Collector v3.7.2.0data status	okinstallation	B4 Nyhavnadifferential loss correction	single-endedforward channel	channel 2reverse channel	N/Adate	2023/12/19time	09:00:13forward acquisition time	300,00reverse acquisition time	0,00gamma	499,1914k internal	0,3128k external	0,3128temperature offset calibration	1,0000default loss term (dB/km)	0,3820temperature slope calibration	1,0000multiplexer offset coefficient	1,0000multiplexer slope coefficient	1,0000fibre end	0,00T internal ref (°C)	20,62T ext. ref 1 (°C)	5,44T ext. ref 2 (°C)	5,47length (m)	temperature (°C)	Stokes	anti-Stokes-744,400	-65,611	0,127	0,038
-743,385	-87,761	-0,228	-0,051
-742,371	-200,000	-0,003	-0,123
-741,356	25,700	-0,180	0,111
-740,342	44,593	0,143	0,098
-739,327	-88,631	-0,298	0,065
-738,312	257,790	0,042	-0,054
-737,298	12,931	-0,274	0,157
-736,283	125,893	0,045	0,042
-735,269	71,761	-0,094	0,073
-734,254	22,361	0,118	-0,071
-733,239	-118,425	-0,338	-0,044
-732,225	7,959	0,177	0,098
-731,210	-200,000	-0,040	0,147
-730,196	-200,000	0,020	0,068
-729,181	192,576	-0,071	-0,080
-728,167	800,000	-0,016	-0,052
-727,152	800,000	0,029	0,086
-726,137	-85,306	-0,101	-0,023
-725,123	207,836	-0,100	-0,116
-724,108	35,989	-0,051	-0,033
-723,094	-200,000	-0,026	-0,134
-722,079	-200,000	-0,022	-0,104
-721,064	800,000	-0,018	-0,049
-720,050	518,051	0,023	-0,040
-719,035	-200,000	-0,023	0,100
-718,021	-5,332	-0,161	-0,082
-717,006	-98,298	-0,086	0,016
-715,991	-200,000	-0,009	-0,096
-714,977	800,000	-0,011	-0,026
-713,962	-200,000	0,014	-0,084
-712,948	-78,556	-0,091	-0,023
-711,933	800,000	0,053	0,117
-710,918	103,576	-0,059	0,052
-709,904	29,223	-0,075	-0,047
-708,889	-107,680	-0,174	-0,028
-707,875	-50,517	-0,129	-0,045
-706,860	117,449	0,102	0,094
-705,845	-136,210	-0,256	-0,022
-704,831	-54,837	-0,060	-0,020
-703,816	309,214	-0,064	-0,090
-702,802	-200,000	0,004	0,067
-701,787	-200,000	0,017	-0,110
-700,772	724,132	0,034	0,068
-699,758	-108,574	0,028	-0,004
-698,743	115,487	0,152	0,138
-697,729	202,743	-0,048	0,056
-696,714	-22,852	-0,111	-0,049
-695,699	800,000	-0,015	-0,036
-694,685	682,646	-0,079	-0,153
-693,670	-102,072	-0,012	-0,002
-692,656	364,791	-0,123	0,184
-691,641	-200,000	-0,004	0,052
-690,627	-142,206	0,019	-0,001
-689,612	129,922	0,054	-0,052
-688,597	-124,260	0,071	-0,008
-687,583	-200,000	0,024	-0,086
-686,568	800,000	0,024	-0,075
-685,554	90,108	-0,189	-0,157
-684,539	-194,563	0,076	0,000
-683,524	-200,000	-0,017	-0,067
-682,510	409,667	-0,059	0,093
-681,495	-200,000	-0,048	-0,158
-680,481	763,617	-0,031	-0,064
-679,466	-127,769	-0,097	0,010
-678,451	316,334	0,051	0,071
-677,437	99,869	0,042	-0,036
-676,422	800,000	-0,026	0,083
-675,408	800,000	0,026	-0,063
-674,393	800,000	-0,036	0,081
-673,378	204,388	0,063	-0,073
-672,364	-200,000	-0,035	-0,130
-671,349	34,093	0,075	-0,049
-670,335	800,000	0,021	-0,051
-669,320	-200,000	-0,010	0,045
-668,305	42,970	0,026	0,018
-667,291	180,662	-0,047	0,052
-666,276	15,079	-0,105	0,061
-665,262	-200,000	-0,001	0,039
-664,247	20,399	0,107	0,064
-663,232	-54,284	-0,043	0,014
-662,218	-156,390	0,026	-0,001
-661,203	-128,721	-0,124	-0,013
-660,189	-15,044	-0,053	-0,025
-659,174	-120,564	-0,130	-0,016
-658,159	92,656	0,075	-0,063
-657,145	-127,773	-0,124	-0,013
-656,130	-20,482	0,066	-0,030
-655,116	-61,145	-0,040	0,013
-654,101	-57,414	-0,086	-0,028
-653,086	107,352	0,007	-0,006
-652,072	-200,000	-0,016	-0,146
-651,057	89,028	0,080	-0,066
-650,043	800,000	-0,009	-0,030
-649,028	161,220	-0,103	0,107
-648,014	-16,346	0,106	0,050
-646,999	-200,000	-0,020	0,124
-645,984	69,234	-0,040	0,031
-644,970	-200,000	0,002	0,044
-643,955	86,853	-0,119	0,097
-642,941	-200,000	0,006	-0,041
-641,926	162,859	-0,096	-0,100
-640,911	-200,000	-0,029	0,169
-639,897	289,178	0,067	0,090
-638,882	-12,147	0,073	0,035
-637,868	131,838	0,045	0,043
-636,853	658,626	-0,093	-0,178
-635,838	-89,166	-0,143	-0,031
-634,824	-79,867	0,024	0,006
-633,809	480,426	0,069	0,117
-632,795	800,000	0,030	-0,065
-631,780	-200,000	0,005	0,133
-630,765	800,000	-0,033	-0,091
-629,751	-200,000	-0,001	-0,081
-628,736	-200,000	-0,004	0,028
-627,722	206,556	-0,073	-0,084
-626,707	477,060	0,059	-0,099
-625,692	53,311	0,054	-0,038
-624,678	800,000	0,047	0,122
-623,663	-99,698	0,048	0,009
-622,649	575,404	-0,044	0,080
-621,634	217,436	-0,068	0,081
-620,619	-200,000	-0,012	-0,068
-619,605	706,881	-0,030	-0,058
-618,590	-200,000	-0,005	0,102
-617,576	-30,442	0,099	0,041
-616,561	-19,876	-0,171	-0,078
-615,546	-200,000	0,013	-0,084
-614,532	-138,478	-0,103	-0,008
-613,517	5,198	-0,069	0,037
-612,503	159,388	-0,034	0,035
-611,488	289,620	0,067	0,090
-610,474	-200,000	0,013	0,070
-609,459	800,000	0,013	0,028
-608,444	-200,000	-0,010	-0,144
-607,430	153,301	-0,078	-0,080
-606,415	286,225	0,025	0,034
-605,401	-75,039	-0,075	-0,020
-604,386	-200,000	0,013	0,076
-603,371	703,823	0,032	0,062
-602,357	-200,000	0,023	-0,138
-601,342	482,769	-0,009	-0,014
-600,328	-67,223	-0,104	0,030
-599,313	48,471	-0,160	-0,111
-598,298	-200,000	-0,014	-0,135
-597,284	800,000	0,057	0,121
-596,269	20,377	-0,054	0,032
-595,255	273,431	0,037	-0,049
-594,240	724,078	-0,044	0,087
-593,225	-25,913	-0,063	-0,028
-592,211	316,727	0,027	-0,038
-591,196	-20,110	0,007	0,003
-590,182	-200,000	-0,008	0,065
-589,167	800,000	0,015	0,031
-588,152	-132,163	-0,046	-0,004
-587,138	38,751	0,026	0,017
-586,123	83,026	0,152	-0,122
-585,109	65,844	-0,129	-0,097
-584,094	800,000	0,021	-0,054
-583,079	-26,894	0,154	-0,066
-582,065	-16,880	0,056	0,026
-581,050	593,926	-0,057	0,105
-580,036	174,929	0,083	0,089
-579,021	131,405	-0,089	0,085
-578,006	-200,000	-0,008	-0,085
-576,992	-200,000	-0,025	-0,103
-575,977	-134,287	-0,153	0,014
-574,963	-200,000	-0,022	0,135
-573,948	-200,000	0,032	-0,120
-572,934	56,427	0,080	0,058
-571,919	523,439	-0,058	-0,101
-570,904	-19,591	-0,039	-0,018
-569,890	-200,000	0,008	-0,066
-568,875	28,604	0,109	-0,068
-567,861	-200,000	-0,016	0,075
-566,846	-20,344	-0,121	0,055
-565,831	-200,000	0,003	0,033
-564,817	18,938	-0,090	0,053
-563,802	793,689	-0,027	-0,056
-562,788	573,677	-0,059	0,106
-561,773	77,929	-0,027	-0,022
-560,758	-88,161	0,212	-0,047
-559,744	800,000	0,023	0,065
-558,729	-200,000	0,025	-0,119
-557,715	-97,525	0,035	0,007
-556,700	800,000	-0,044	-0,098
-555,685	-64,677	-0,117	-0,035
-554,671	316,624	0,030	-0,042
-553,656	-200,000	-0,035	0,135
-552,642	151,122	0,088	0,088
-551,627	110,318	0,084	-0,075
-550,612	800,000	0,012	-0,033
-549,598	-61,694	-0,239	-0,074
-548,583	118,583	-0,032	0,029
-547,569	-102,207	-0,059	0,010
-546,554	-11,666	-0,038	0,018
-545,539	-200,000	-0,018	-0,075
-544,525	-69,626	0,017	0,005
-543,510	800,000	0,016	-0,049
-542,496	-200,000	-0,094	-0,000
-541,481	-153,555	-0,188	-0,009
-540,466	22,457	-0,148	0,089
-539,452	-118,178	0,202	-0,026
-538,437	88,916	-0,121	0,099
-537,423	800,000	0,017	-0,046
-536,408	-200,000	-0,004	0,021
-535,393	-161,573	-0,080	0,003
-534,379	-149,956	-0,091	-0,005
-533,364	43,432	-0,079	-0,053
-532,350	363,057	0,020	0,030
-531,335	215,911	-0,049	0,057
-530,321	-200,000	0,013	0,197
-529,306	-200,000	0,001	0,021
-528,291	-71,188	-0,027	0,007
-527,277	-8,106	0,102	-0,050
-526,262	152,097	-0,104	0,105
-525,248	-43,353	-0,057	-0,021
-524,233	160,137	0,112	0,115
-523,218	218,097	0,071	-0,084
-522,204	-200,000	-0,007	-0,145
-521,189	148,712	-0,111	0,110
-520,175	800,000	-0,014	0,039
-519,160	-47,794	0,052	-0,019
-518,145	800,000	0,034	0,088
-517,131	155,663	-0,018	-0,018
-516,116	800,000	-0,022	-0,060
-515,102	-77,923	-0,108	0,027
-514,087	-24,797	-0,086	-0,037
-513,072	-87,256	0,145	-0,032
-512,058	601,632	0,071	-0,130
-511,043	-200,000	-0,007	0,050
-510,029	-200,000	-0,002	-0,042
-509,014	-75,588	0,052	0,013
-507,999	-200,000	-0,019	-0,069
-506,985	-200,000	0,009	-0,031
-505,970	800,000	-0,042	-0,132
-504,956	-200,000	0,002	-0,024
-503,941	800,000	-0,022	-0,066
-502,926	-130,573	0,189	0,019
-501,912	198,141	0,031	0,035
-500,897	201,893	-0,098	0,112
-499,883	800,000	0,026	-0,080
-498,868	-200,000	-0,014	-0,059
-497,853	102,189	0,047	0,040
-496,839	360,714	0,091	-0,134
-495,824	-200,000	-0,006	0,028
-494,810	-72,001	-0,088	0,024
-493,795	144,392	0,093	0,092
-492,781	-131,448	0,092	0,009
-491,766	267,498	-0,100	-0,129
-490,751	659,091	0,033	0,063
-489,737	-113,264	-0,035	-0,005
-488,722	427,913	-0,049	-0,079
-487,708	155,407	-0,087	-0,088
-486,693	-149,688	-0,175	0,010
-485,678	99,986	0,076	0,065
-484,664	350,227	0,041	-0,060
-483,649	544,189	-0,028	0,049
-482,635	-200,000	-0,026	-0,149
-481,620	-29,008	-0,066	-0,028
-480,605	-11,571	-0,122	-0,059
-479,591	800,000	-0,040	-0,110
-478,576	-131,590	-0,072	0,007
-477,562	800,000	0,026	-0,082
-476,547	46,403	-0,108	-0,074
-475,532	165,886	0,027	-0,028
-474,518	-200,000	-0,009	-0,056
-473,503	-200,000	0,041	0,138
-472,489	69,124	0,063	-0,048
-471,474	432,850	-0,025	0,040
-470,459	295,763	-0,042	-0,056
-469,445	-99,954	-0,110	-0,020
-468,430	74,697	0,086	0,067
-467,416	-82,246	0,072	-0,017
-466,401	207,272	0,094	0,108
-465,386	-47,138	0,096	-0,034
-464,372	128,971	-0,068	0,064
-463,357	-51,676	-0,073	-0,025
-462,343	520,675	0,052	-0,091
-461,328	316,447	0,082	-0,114
-460,313	192,270	-0,022	0,024
-459,299	-110,944	0,064	-0,010
-458,284	106,998	-0,012	0,011
-457,270	-200,000	0,024	-0,094
-456,255	-200,000	0,034	-0,135
-455,241	800,000	0,036	-0,078
-454,226	-200,000	0,004	0,021
-453,211	-28,373	0,029	-0,012
-452,197	800,000	0,053	0,122
-451,182	322,412	0,107	0,150
-450,168	-200,000	0,003	-0,104
-449,153	170,918	0,017	0,018
-448,138	-41,634	-0,133	0,050
-447,124	134,743	-0,026	-0,025
-446,109	167,955	0,032	-0,034
-445,095	-200,000	-0,001	-0,031
-444,080	-200,000	0,005	0,036
-443,065	6,166	0,107	0,058
-442,051	178,810	-0,055	-0,059
-441,036	-55,268	0,017	-0,006
-440,022	-200,000	-0,017	-0,062
-439,007	58,613	0,072	0,052
-437,992	197,739	-0,018	-0,020
-436,978	99,772	-0,054	0,046
-435,963	-200,000	0,000	0,144
-434,949	53,230	0,207	-0,145
-433,934	-33,792	0,018	-0,007
-432,919	168,892	-0,074	-0,078
-431,905	-173,442	0,027	-0,001
-430,890	-200,000	-0,019	0,132
-429,876	87,016	-0,052	0,042
-428,861	19,769	0,110	0,065
-427,846	17,739	0,091	0,053
-426,832	-200,000	-0,004	-0,128
-425,817	449,175	-0,053	-0,085
-424,803	417,461	0,020	0,032
-423,788	369,941	0,058	-0,087
-422,773	-57,890	-0,053	0,017
-421,759	68,188	0,057	-0,043
-420,744	-200,000	-0,005	0,046
-419,730	7,219	-0,015	0,008
-418,715	-200,000	0,001	-0,033
-417,701	-31,876	-0,007	-0,003
-416,686	-43,237	0,040	0,015
-415,671	-200,000	-0,004	-0,014
-414,657	86,315	0,049	0,040
-413,642	80,181	0,021	-0,017
-412,628	-200,000	0,047	0,231
-411,613	800,000	0,041	0,084
-410,598	-68,486	-0,101	-0,029
-409,584	-52,803	-0,009	0,003
-408,569	377,843	0,058	-0,087
-407,555	-131,062	-0,041	-0,004
-406,540	800,000	0,068	0,161
-405,525	-33,855	-0,103	0,042
-404,511	-200,000	-0,005	0,017
-403,496	21,979	0,058	-0,035
-402,482	261,888	0,028	0,036
-401,467	-162,779	0,094	-0,003
-400,452	156,169	0,076	-0,077
-399,438	222,230	0,081	-0,095
-398,423	-26,031	-0,106	-0,045
-397,409	-49,963	0,067	-0,023
-396,394	121,843	-0,089	-0,081
-395,379	7,062	-0,031	-0,017
-394,365	108,808	0,089	0,078
-393,350	142,120	-0,106	-0,103
-392,336	-43,837	0,087	0,032
-391,321	393,809	-0,074	0,113
-390,306	800,000	-0,044	0,119
-389,292	68,884	-0,051	-0,039
-388,277	178,329	0,078	-0,084
-387,263	-68,431	-0,094	-0,027
-386,248	200,860	0,067	0,075
-385,233	284,857	0,063	-0,083
-384,219	-51,857	-0,110	-0,037
-383,204	800,000	0,027	-0,071
-382,190	-32,450	-0,090	0,037
-381,175	800,000	-0,032	0,095
-380,160	-200,000	-0,020	0,148
-379,146	94,271	0,053	0,045
-378,131	-200,000	-0,006	0,069
-377,117	-200,000	0,008	0,112
-376,102	-200,000	0,014	0,061
-375,088	-89,447	-0,075	0,016
-374,073	-200,000	0,006	-0,066
-373,058	291,865	0,071	0,096
-372,044	-200,000	-0,020	0,084
-371,029	24,242	0,092	0,056
-370,015	423,480	-0,008	0,013
-369,000	-200,000	0,002	-0,072
-367,985	-20,339	0,088	-0,040
-366,971	-65,521	-0,109	-0,032
-365,956	270,307	0,059	0,076
-364,942	209,491	0,079	0,091
-363,927	383,087	0,029	0,044
-362,912	-200,000	0,011	-0,096
-361,898	39,250	0,042	-0,028
-360,883	-64,656	-0,094	-0,028
-359,869	-63,162	0,071	-0,021
-358,854	-11,179	0,183	-0,088
-357,839	11,794	-0,101	0,057
-356,825	141,067	0,086	0,083
-355,810	192,012	0,098	0,108
-354,796	-200,000	0,007	0,062
-353,781	-131,679	-0,099	-0,009
-352,766	800,000	-0,027	0,073
-351,752	-200,000	-0,019	-0,082
-350,737	800,000	0,043	0,099
-349,723	800,000	-0,028	0,068
-348,708	-145,007	0,140	0,009
-347,693	-200,000	-0,013	-0,146
-346,679	265,362	-0,068	-0,088
-345,664	-200,000	0,009	-0,085
-344,650	800,000	0,019	0,054
-343,635	-200,000	-0,007	-0,108
-342,620	-167,830	0,032	0,001
-341,606	634,467	-0,047	0,088
-340,591	-200,000	-0,023	-0,126
-339,577	12,803	-0,145	-0,082
-338,562	160,118	-0,058	0,059
-337,548	800,000	0,068	-0,147
-336,533	24,358	-0,044	0,027
-335,518	-127,316	0,041	0,004
-334,504	-200,000	-0,017	0,086
-333,489	-200,000	0,003	0,026
-332,475	-200,000	0,023	-0,102
-331,460	800,000	-0,064	-0,190
-330,445	-200,000	-0,006	-0,044
-329,431	-129,000	0,112	0,011
-328,416	-200,000	0,007	0,025
-327,402	215,999	-0,089	0,104
-326,387	-200,000	0,002	-0,057
-325,372	155,212	0,102	-0,103
-324,358	-200,000	-0,011	-0,103
-323,343	50,293	0,105	-0,073
-322,329	755,592	0,078	-0,155
-321,314	64,814	-0,016	0,012
-320,299	-200,000	0,001	0,093
-319,285	13,839	0,146	-0,083
-318,270	594,673	-0,067	-0,122
-317,256	-57,524	0,128	-0,041
-316,241	75,936	-0,144	0,111
-315,226	-134,495	0,057	-0,005
-314,212	632,152	0,104	0,194
-313,197	-200,000	-0,015	0,056
-312,183	6,917	0,213	0,116
-311,168	742,509	-0,035	-0,069
-310,153	-65,340	-0,012	0,003
-309,139	800,000	0,000	-0,001
-308,124	-139,879	-0,045	0,003
-307,110	-200,000	-0,042	0,142
-306,095	70,458	0,056	0,042
-305,080	245,506	-0,018	0,022
-304,066	-193,562	-0,097	0,001
-303,051	-16,498	0,124	0,057
-302,037	-123,799	-0,050	0,006
-301,022	-95,077	-0,014	-0,003
-300,008	-200,000	-0,021	-0,094
-298,993	-94,409	0,112	-0,022
-297,978	529,897	0,057	0,099
-296,964	-170,727	0,066	-0,002
-295,949	-200,000	-0,044	-0,163
-294,935	-171,922	-0,130	0,003
-293,920	703,031	0,060	-0,116
-292,905	-200,000	0,001	-0,099
-291,891	171,217	0,102	0,107
-290,876	-200,000	0,030	-0,122
-289,862	-200,000	0,011	0,080
-288,847	-91,453	-0,091	-0,019
-287,832	555,264	-0,016	-0,029
-286,818	-11,554	0,054	0,026
-285,803	504,930	0,046	-0,078
-284,789	800,000	0,050	0,120
-283,774	-200,000	0,042	0,222
-282,759	-105,445	0,219	0,036
-281,745	231,290	-0,079	-0,095
-280,730	64,052	-0,080	-0,059
-279,716	-117,182	0,087	0,011
-278,701	-163,891	0,081	0,003
-277,686	98,758	-0,016	-0,013
-276,672	22,800	0,098	0,059
-275,657	135,041	0,019	-0,018
-274,643	800,000	0,068	-0,174
-273,628	89,327	-0,078	-0,063
-272,613	371,834	-0,024	-0,036
-271,599	-200,000	0,001	0,034
-270,584	27,792	-0,080	-0,049
-269,570	17,734	0,065	0,038
-268,555	46,958	-0,060	0,041
-267,540	-200,000	0,011	-0,146
-266,526	-189,000	-0,025	-0,000
-265,511	-146,090	0,120	-0,008
-264,497	-141,241	-0,043	0,003
-263,482	-200,000	0,010	0,083
-262,467	800,000	-0,012	0,030
-261,453	-49,328	-0,029	0,010
-260,438	-200,000	0,003	0,051
-259,424	-200,000	-0,008	0,031
-258,409	-20,586	-0,146	-0,065
-257,395	144,623	0,058	-0,057
-256,380	-54,804	-0,031	0,010
-255,365	-130,699	-0,045	0,004
-254,351	-46,529	0,120	-0,043
-253,336	22,616	0,153	0,091
-252,322	163,659	-0,051	-0,052
-251,307	321,038	0,075	0,104
-250,292	-200,000	0,016	0,057
-249,278	-112,912	0,106	0,015
-248,263	557,100	-0,063	-0,112
-247,249	35,054	0,078	0,050
-246,234	-140,740	0,083	0,006
-245,219	137,261	-0,125	-0,120
-244,205	497,868	-0,086	-0,145
-243,190	256,301	0,041	0,052
-242,176	-120,691	0,019	0,002
-241,161	-200,000	-0,010	0,045
-240,146	63,605	-0,109	-0,080
-239,132	34,698	0,166	-0,106
-238,117	-200,000	-0,011	-0,044
-237,103	43,627	0,032	0,021
-236,088	-110,083	-0,119	-0,018
-235,073	800,000	0,045	0,111
-234,059	-90,845	0,128	0,027
-233,044	-13,418	-0,088	-0,042
-232,030	-107,576	-0,027	-0,004
-231,015	-200,000	-0,020	-0,068
-230,000	-103,374	-0,107	-0,018
-228,986	800,000	-0,063	-0,162
-227,971	800,000	0,024	-0,077
-226,957	-200,000	0,001	0,132
-225,942	-200,000	-0,014	0,072
-224,927	52,693	0,109	0,076
-223,913	197,606	0,021	-0,024
-222,898	-104,330	0,065	0,011
-221,884	800,000	0,043	-0,130
-220,869	800,000	0,019	-0,050
-219,855	47,920	-0,100	0,068
-218,840	160,374	-0,083	0,084
-217,825	-200,000	-0,002	-0,044
-216,811	800,000	0,013	0,032
-215,796	-120,600	-0,184	-0,022
-214,782	97,489	-0,026	0,022
-213,767	54,626	0,126	0,088
-212,752	-200,000	0,021	0,164
-211,738	-200,000	0,001	-0,029
-210,723	135,422	-0,095	-0,090
-209,709	152,665	0,008	0,008
-208,694	93,173	0,056	-0,046
-207,679	-27,320	-0,049	-0,021
-206,665	321,235	0,039	-0,054
-205,650	-200,000	-0,023	0,101
-204,636	-63,982	0,053	0,016
-203,621	40,728	0,076	-0,050
-202,606	21,719	-0,093	0,055
-201,592	800,000	-0,024	-0,057
-200,577	70,516	0,086	0,064
-199,563	800,000	0,014	0,033
-198,548	131,025	-0,079	-0,074
-197,533	-200,000	0,051	0,208
-196,519	-66,380	-0,032	0,009
-195,504	175,106	-0,029	0,031
-194,490	-110,693	-0,055	0,008
-193,475	88,579	-0,030	0,025
-192,460	-200,000	0,009	0,046
-191,446	-6,485	0,023	0,011
-190,431	-200,000	-0,002	0,138
-189,417	-200,000	-0,004	0,026
-188,402	152,760	-0,032	-0,032
-187,387	-200,000	0,015	-0,107
-186,373	197,887	0,095	0,106
-185,358	-18,721	0,103	0,046
-184,344	-149,419	0,119	0,007
-183,329	264,118	-0,041	0,052
-182,315	-65,243	0,103	0,030
-181,300	-24,920	-0,118	-0,051
-180,285	-127,149	-0,087	0,009
-179,271	-200,000	0,009	-0,126
-178,256	-59,192	0,047	0,015
-177,242	800,000	0,012	-0,029
-176,227	295,531	0,015	-0,019
-175,212	-127,435	0,168	0,018
-174,198	-45,024	-0,133	0,048
-173,183	114,665	-0,045	-0,040
-172,169	-200,000	0,010	0,035
-171,154	-200,000	-0,024	-0,091
-170,139	734,138	0,016	-0,031
-169,125	-200,000	0,024	0,106
-168,110	-15,300	-0,072	0,034
-167,096	-14,670	-0,096	0,045
-166,081	-200,000	-0,015	-0,052
-165,066	93,386	-0,036	0,030
-164,052	-200,000	0,018	0,066
-163,037	-200,000	0,017	0,113
-162,023	425,465	-0,020	-0,032
-161,008	138,719	-0,169	0,162
-159,993	-200,000	0,012	0,088
-158,979	-115,878	-0,078	-0,010
-157,964	-31,738	-0,084	-0,034
-156,950	-200,000	0,019	-0,090
-155,935	295,022	-0,036	0,048
-154,920	-19,168	0,118	0,053
-153,906	196,432	0,040	0,044
-152,891	-11,433	-0,083	-0,040
-151,877	-200,000	0,006	0,038
-150,862	-95,695	-0,023	0,004
-149,847	2,231	0,066	0,035
-148,833	570,385	-0,050	0,089
-147,818	489,959	0,092	0,154
-146,804	-72,220	0,138	-0,037
-145,789	-200,000	0,005	-0,066
-144,775	-60,982	-0,066	0,020
-143,760	173,511	-0,058	-0,061
-142,745	-200,000	-0,035	-0,129
-141,731	-200,000	-0,011	-0,119
-140,716	800,000	-0,017	0,040
-139,702	43,864	-0,052	-0,034
-138,687	-200,000	-0,026	0,143
-137,672	-82,811	-0,111	-0,026
-136,658	-17,260	-0,086	-0,039
-135,643	-200,000	0,004	0,080
-134,629	-27,084	-0,041	0,017
-133,614	146,872	-0,054	0,053
-132,599	232,192	0,071	-0,085
-131,585	800,000	-0,019	0,045
-130,570	141,697	-0,067	-0,064
-129,556	-200,000	0,001	-0,041
-128,541	33,922	0,092	-0,058
-127,526	800,000	-0,032	-0,075
-126,512	0,559	0,175	0,090
-125,497	363,827	0,075	0,109
-124,483	33,732	-0,048	0,031
-123,468	-142,340	0,051	0,004
-122,453	-104,094	-0,148	-0,025
-121,439	-200,000	0,032	-0,128
-120,424	-200,000	0,024	0,085
-119,410	-105,785	-0,076	0,012
-118,395	-200,000	0,025	-0,149
-117,380	72,822	-0,112	0,085
-116,366	158,730	-0,037	-0,037
-115,351	-115,098	-0,101	-0,014
-114,337	429,065	0,017	-0,027
-113,322	50,739	-0,105	-0,072
-112,307	-71,703	0,082	0,022
-111,293	-99,462	0,066	-0,012
-110,278	80,655	0,105	0,082
-109,264	800,000	0,026	-0,059
-108,249	-200,000	0,013	-0,056
-107,234	-27,140	0,076	0,032
-106,220	-118,006	0,007	-0,001
-105,205	162,136	0,119	0,121
-104,191	-109,919	-0,062	-0,009
-103,176	-200,000	0,022	-0,166
-102,162	800,000	0,014	-0,040
-101,147	800,000	-0,029	-0,063
-100,132	800,000	-0,032	0,075
-99,118	228,433	0,015	-0,017
-98,103	-14,214	0,008	0,004
-97,089	533,657	0,091	0,157
-96,074	-176,467	-0,082	0,002
-95,059	134,979	0,195	0,184
-94,045	-200,000	-0,003	-0,017
-93,030	-91,720	-0,080	0,016
-92,016	59,232	-0,039	-0,028
-91,001	800,000	-0,012	0,029
-89,986	800,000	-0,017	0,046
-88,972	365,407	-0,075	0,109
-87,957	13,552	0,031	0,018
-86,943	-97,823	-0,028	-0,005
-85,928	-200,000	0,004	-0,069
-84,913	-167,568	-0,063	-0,002
-83,899	800,000	0,028	-0,068
-82,884	52,999	0,046	-0,032
-81,870	-45,249	0,105	-0,038
-80,855	406,998	0,043	0,067
-79,840	54,448	-0,083	0,058
-78,826	58,906	0,110	0,078
-77,811	526,351	0,022	0,038
-76,797	65,082	0,093	0,068
-75,782	356,736	0,049	-0,071
-74,767	67,122	0,111	0,082
-73,753	-135,108	-0,129	0,011
-72,738	348,117	0,016	-0,023
-71,724	38,212	-0,116	-0,075
-70,709	105,264	-0,019	0,016
-69,694	71,845	-0,057	-0,043
-68,680	-2,285	0,029	-0,015
-67,665	-200,000	-0,011	0,083
-66,651	115,295	-0,103	0,091
-65,636	-200,000	-0,013	-0,059
-64,622	-200,000	-0,037	0,166
-63,607	321,097	-0,059	0,081
-62,592	-141,371	0,065	0,005
-61,578	26,363	-0,033	-0,020
-60,563	195,615	0,018	-0,020
-59,549	147,605	0,057	0,056
-58,534	-92,366	-1,278	-0,258
-57,519	442,413	-0,811	-1,291
-56,505	-200,000	-0,661	-4,467
-55,490	-113,953	0,572	0,080
-54,476	800,000	5,041	11,801
-53,461	-200,000	14,870	264,472
-52,446	-200,000	699,828	2277,391
-51,432	600,718	1624,082	2934,378
-50,417	120,281	1629,574	1465,594
-49,403	79,165	1282,703	994,809
-48,388	37,656	1021,085	655,356
-47,373	23,043	980,632	581,421
-46,359	22,116	969,929	572,017
-45,344	20,864	965,785	565,464
-44,330	20,827	964,368	564,491
-43,315	20,699	963,122	563,324
-42,300	20,700	961,818	562,544
-41,286	20,748	960,855	562,114
-40,271	20,645	959,945	561,225
-39,257	20,626	959,187	560,696
-38,242	20,712	958,047	560,287
-37,227	20,615	957,314	559,522
-36,213	20,664	956,353	559,095
-35,198	20,626	955,320	558,347
-34,184	20,618	954,994	558,108
-33,169	20,638	953,676	557,380
-32,154	20,631	952,977	556,927
-31,140	20,619	952,056	556,329
-30,125	20,752	951,125	556,190
-29,111	20,684	950,245	555,436
-28,096	20,672	949,744	555,081
-27,082	20,676	949,024	554,654
-26,067	20,608	948,351	554,018
-25,052	20,659	947,459	553,640
-24,038	20,669	946,892	553,318
-23,023	20,649	946,272	552,870
-22,009	20,655	945,512	552,423
-20,994	20,669	944,931	552,106
-19,979	20,655	944,468	551,768
-18,965	20,635	943,805	551,295
-17,950	20,592	943,279	550,831
-16,936	20,659	942,439	550,530
-15,921	20,611	941,727	549,941
-14,906	20,575	941,181	549,485
-13,892	20,534	940,472	548,918
-12,877	20,524	939,840	548,497
-11,863	20,504	939,144	548,004
-10,848	20,513	938,466	547,616
-9,833	20,647	938,277	547,908
-8,819	20,561	937,721	547,290
-7,804	20,575	937,022	546,905
-6,790	20,578	936,277	546,458
-5,775	20,602	935,843	546,260
-4,760	20,602	935,133	545,822
-3,746	20,515	934,509	545,162
-2,731	20,368	933,905	544,326
-1,717	20,440	933,038	544,024
-0,702	20,404	932,300	543,460
0,313	20,173	931,984	543,369
1,327	22,608	929,311	549,406
2,342	29,834	805,995	496,030
3,356	24,137	507,103	302,358
4,371	-0,137	373,569	191,831
5,386	-2,785	356,571	179,836
6,400	-3,963	350,940	175,556
7,415	-4,290	348,232	173,793
8,429	-4,246	346,933	173,183
9,444	-4,277	345,963	172,646
10,459	-4,126	345,358	172,508
11,473	-4,280	344,791	172,027
12,488	-4,259	344,142	171,712
13,502	-4,365	343,545	171,274
14,517	-4,173	342,984	171,206
15,531	-4,160	342,651	171,039
16,546	-4,150	342,352	170,887
17,561	-3,991	341,808	170,788
18,575	-4,089	341,581	170,543
19,590	-4,152	341,073	170,201
20,604	-4,164	340,744	170,007
21,619	-4,084	340,244	169,836
22,634	-4,169	339,977	169,589
23,648	-4,086	339,616	169,490
24,663	-4,173	339,326	169,228
25,677	-4,139	339,109	169,146
26,692	-4,074	338,619	168,961
27,707	-3,938	338,261	168,926
28,721	-4,057	338,017	168,650
29,736	-3,965	337,681	168,576
30,750	-4,050	337,472	168,357
31,765	-4,199	337,265	168,066
32,780	-4,073	336,974	168,052
33,794	-4,014	336,589	167,913
34,809	-3,988	336,286	167,777
35,823	-4,112	336,056	167,504
36,838	-4,157	335,809	167,314
37,853	-4,087	335,343	167,148
38,867	-4,002	335,121	167,120
39,882	-4,118	334,875	166,849
40,896	-4,050	334,593	166,772
41,911	-4,049	334,287	166,605
42,926	-4,000	334,087	166,547
43,940	-4,066	333,734	166,280
44,955	-4,047	333,307	166,075
45,969	-4,114	333,400	166,029
46,984	-3,956	332,985	165,988
47,999	-4,016	332,868	165,847
49,013	-4,066	332,670	165,676
50,028	-4,063	332,208	165,435
51,042	-4,010	332,031	165,392
52,057	-4,070	331,702	165,146
53,071	-3,951	331,432	165,131
54,086	-4,188	331,526	164,894
55,101	-4,087	331,102	164,783
56,115	-3,868	330,644	164,789
57,130	-3,937	330,411	164,580
58,144	-4,079	330,074	164,237
59,159	-4,146	329,856	164,038
60,174	-4,297	329,710	163,780
61,188	-4,237	329,422	163,690
62,203	-4,134	329,138	163,651
63,217	-4,127	328,824	163,489
64,232	-4,220	328,585	163,249
65,247	-4,193	328,311	163,130
66,261	-4,032	327,989	163,136
67,276	-4,089	327,693	162,911
68,290	-4,097	327,482	162,782
69,305	-4,069	327,379	162,748
70,320	-3,961	327,167	162,748
71,334	-4,170	326,945	162,390
72,349	-4,039	326,484	162,293
73,363	-4,192	326,214	161,974
74,378	-4,217	325,990	161,820
75,393	-4,100	325,655	161,769
76,407	-3,973	325,617	161,878
77,422	-4,089	325,306	161,580
78,436	-4,103	324,913	161,354
79,451	-4,136	324,618	161,157
80,466	-4,033	324,381	161,139
81,480	-3,935	324,227	161,156
82,495	-3,944	324,036	161,037
83,509	-4,039	323,783	160,792
84,524	-3,982	323,459	160,680
85,539	-4,004	323,302	160,563
86,553	-3,916	322,956	160,475
87,568	-4,008	322,665	160,214
88,582	-4,101	322,564	160,046
89,597	-4,009	322,386	160,046
90,611	-4,103	322,148	159,810
91,626	-4,161	321,796	159,556
92,641	-3,998	321,639	159,644
93,655	-3,976	321,415	159,543
94,670	-4,064	321,137	159,294
95,684	-4,003	320,722	159,141
96,699	-4,176	320,818	158,985
97,714	-4,030	320,354	158,901
98,728	-3,981	320,147	158,837
99,743	-4,039	320,034	158,704
100,757	-3,973	319,697	158,595
101,772	-3,912	319,391	158,495
102,787	-3,949	319,349	158,420
103,801	-3,971	318,984	158,201
104,816	-4,042	318,767	158,001
105,830	-4,119	318,425	157,734
106,845	-4,017	318,284	157,761
107,860	-4,122	318,133	157,558
108,874	-4,040	317,804	157,470
109,889	-4,045	317,519	157,309
110,903	-4,153	317,277	157,058
111,918	-4,151	317,227	157,022
112,933	-4,083	316,957	156,948
113,947	-4,030	316,808	156,917
114,962	-4,092	316,556	156,711
115,976	-4,102	316,333	156,576
116,991	-4,138	316,179	156,447
118,006	-4,132	315,806	156,255
119,020	-4,130	315,675	156,178
120,035	-4,001	315,383	156,159
121,049	-4,038	315,318	156,074
122,064	-3,891	314,808	155,964
123,079	-4,056	314,674	155,708
124,093	-4,142	314,477	155,504
125,108	-4,238	314,422	155,359
126,122	-4,024	314,016	155,375
127,137	-3,949	313,884	155,376
128,151	-3,936	313,634	155,252
129,166	-3,854	313,271	155,146
130,181	-3,989	313,282	154,994
131,195	-3,916	313,011	154,924
132,210	-4,061	312,762	154,632
133,224	-4,081	312,409	154,423
134,239	-4,032	312,183	154,349
135,254	-3,932	312,003	154,353
136,268	-4,035	311,770	154,114
137,283	-3,973	311,589	154,077
138,297	-3,951	311,272	153,929
139,312	-3,915	310,995	153,816
140,327	-3,968	310,811	153,656
141,341	-4,030	310,669	153,506
142,356	-3,979	310,419	153,423
143,370	-3,999	310,342	153,350
144,385	-3,982	310,047	153,209
145,400	-4,014	309,807	153,042
146,414	-4,079	309,499	152,809
147,429	-4,026	309,309	152,757
148,443	-3,961	308,954	152,636
149,458	-4,061	308,922	152,501
150,473	-4,100	308,754	152,364
151,487	-4,206	308,530	152,129
152,502	-4,073	308,108	152,047
153,516	-3,942	307,955	152,094
154,531	-3,976	307,753	151,945
155,546	-3,975	307,489	151,803
156,560	-4,047	307,320	151,631
157,575	-3,991	307,052	151,544
158,589	-3,967	306,910	151,485
159,604	-4,120	306,847	151,280
160,619	-3,872	306,505	151,357
161,633	-4,104	306,373	151,036
162,648	-3,793	306,115	151,219
163,662	-3,955	305,821	150,893
164,677	-4,083	305,759	150,716
165,692	-4,008	305,560	150,682
166,706	-3,887	305,333	150,682
167,721	-4,064	305,108	150,374
168,735	-3,883	304,819	150,405
169,750	-3,990	304,743	150,244
170,764	-4,119	304,606	150,030
171,779	-4,082	304,219	149,864
172,794	-4,145	304,158	149,755
173,808	-4,004	303,889	149,755
174,823	-3,842	303,658	149,795
175,837	-3,860	303,404	149,637
176,852	-4,065	303,105	149,266
177,867	-4,069	303,056	149,224
178,881	-4,078	302,807	149,079
179,896	-3,841	302,574	149,194
180,910	-3,967	302,470	149,000
181,925	-4,082	302,217	148,744
182,940	-4,029	301,896	148,627
183,954	-4,050	301,871	148,580
184,969	-3,996	301,583	148,481
185,983	-3,920	301,540	148,525
186,998	-3,869	301,236	148,414
188,013	-3,971	300,964	148,162
189,027	-3,847	300,729	148,160
190,042	-3,965	300,516	147,921
191,056	-4,021	300,322	147,755
192,071	-4,154	300,197	147,545
193,086	-4,011	299,764	147,465
194,100	-4,050	299,740	147,400
195,115	-3,932	299,504	147,390
196,129	-3,890	299,224	147,283
197,144	-4,037	298,986	147,003
198,159	-4,046	298,852	146,915
199,173	-4,019	298,546	146,779
200,188	-4,104	298,367	146,592
201,202	-3,964	298,252	146,663
202,217	-3,927	298,049	146,588
203,232	-3,977	297,994	146,498
204,246	-3,819	297,445	146,374
205,261	-3,976	297,333	146,147
206,275	-3,884	297,077	146,101
207,290	-3,839	296,998	146,094
208,304	-3,907	296,872	145,951
209,319	-3,760	296,502	145,904
210,334	-3,927	296,271	145,609
211,348	-4,021	296,279	145,506
212,363	-3,960	296,041	145,437
213,377	-3,887	295,823	145,391
214,392	-3,900	295,614	145,262
215,407	-4,026	295,316	144,976
216,421	-4,004	295,271	144,964
217,436	-3,925	294,944	144,869
218,450	-4,174	294,798	144,536
219,465	-3,927	294,572	144,658
220,480	-4,104	294,562	144,464
221,494	-4,080	294,296	144,344
222,509	-3,995	294,056	144,299
223,523	-3,890	293,732	144,231
224,538	-3,975	293,671	144,104
225,553	-3,880	293,414	144,059
226,567	-3,947	293,365	143,956
227,582	-3,876	293,040	143,854
228,596	-4,025	292,969	143,658
229,611	-4,050	292,789	143,533
230,626	-4,110	292,644	143,389
231,640	-4,048	292,369	143,303
232,655	-3,727	291,938	143,396
233,669	-3,603	291,796	143,435
234,684	-3,809	291,705	143,175
235,699	-3,853	291,584	143,060
236,713	-3,761	291,332	143,014
237,728	-3,904	291,211	142,801
238,742	-3,711	291,017	142,883
239,757	-3,891	290,728	142,551
240,772	-4,058	290,550	142,288
241,786	-3,932	290,244	142,248
242,801	-3,736	290,084	142,349
243,815	-3,872	290,022	142,173
244,830	-3,884	289,775	142,027
245,844	-3,891	289,589	141,917
246,859	-4,000	289,454	141,731
247,874	-3,828	289,122	141,724
248,888	-3,974	288,987	141,504
249,903	-4,018	288,856	141,383
250,917	-3,879	288,662	141,411
251,932	-4,068	288,467	141,119
252,947	-4,098	288,065	140,881
253,961	-4,570	287,886	140,322
254,976	-4,336	287,725	140,459
255,990	-4,292	287,653	140,454
257,005	-3,372	287,973	141,490
258,020	-1,148	288,626	143,960
259,034	-0,000	288,936	145,217
260,049	0,538	288,869	145,693
261,063	1,157	288,905	146,300
262,078	1,323	288,674	146,330
263,093	1,787	288,796	146,829
264,107	1,898	288,787	146,920
265,122	2,068	288,511	146,931
266,136	2,034	288,416	146,835
267,151	2,166	288,212	146,846
268,166	2,157	288,086	146,761
269,180	2,273	287,812	146,720
270,195	2,304	287,674	146,667
271,209	2,178	287,437	146,412
272,224	2,186	287,291	146,331
273,239	2,061	287,045	146,073
274,253	2,263	286,808	146,133
275,268	2,090	286,729	145,914
276,282	1,916	286,464	145,599
277,297	1,945	286,424	145,593
278,312	2,139	286,220	145,663
279,326	2,138	285,986	145,530
280,341	2,217	285,718	145,456
281,355	2,026	285,619	145,210
282,370	2,008	285,449	145,093
283,384	1,898	285,276	144,887
284,399	2,002	285,076	144,872
285,414	2,076	284,870	144,825
286,428	1,948	284,699	144,603
287,443	1,995	284,360	144,463
288,457	2,091	284,087	144,402
289,472	1,901	283,977	144,154
290,487	2,019	283,774	144,149
291,501	1,952	283,606	143,988
292,516	2,079	283,437	144,010
293,530	2,015	283,324	143,878
294,545	1,940	283,145	143,704
295,560	1,876	282,976	143,545
296,574	1,744	282,633	143,233
297,589	1,958	282,464	143,337
298,603	1,828	282,333	143,134
299,618	1,851	282,213	143,083
300,633	1,981	281,960	143,065
301,647	1,971	281,778	142,949
302,662	1,991	281,722	142,927
303,676	2,095	281,568	142,935
304,691	1,985	281,273	142,669
305,706	2,229	280,961	142,727
306,720	2,061	280,915	142,533
307,735	2,000	280,934	142,472
308,749	2,159	280,541	142,410
309,764	2,249	280,437	142,428
310,779	2,058	280,192	142,112
311,793	1,986	280,069	141,970
312,808	2,019	279,835	141,870
313,822	1,896	279,697	141,672
314,837	2,136	279,470	141,768
315,852	1,844	279,347	141,421
316,866	1,993	279,017	141,380
317,881	2,026	278,907	141,343
318,895	2,134	278,736	141,344
319,910	2,088	278,586	141,213
320,925	2,085	278,390	141,098
321,939	2,114	278,141	140,986
322,954	1,843	278,203	140,753
323,968	2,026	277,987	140,801
324,983	2,186	277,845	140,865
325,997	2,084	277,650	140,659
327,012	1,928	277,509	140,430
328,027	1,941	277,276	140,312
329,041	2,242	276,931	140,403
330,056	2,229	276,672	140,247
331,070	2,147	276,709	140,178
332,085	2,140	276,553	140,080
333,100	2,035	276,242	139,813
334,114	2,093	276,101	139,783
335,129	2,114	275,903	139,689
336,143	2,075	275,817	139,597
337,158	1,989	275,619	139,406
338,173	2,195	275,491	139,518
339,187	2,120	275,365	139,372
340,202	2,033	275,076	139,134
341,216	2,076	274,894	139,069
342,231	2,200	274,613	139,028
343,246	2,277	274,387	138,972
344,260	2,274	274,301	138,913
345,275	2,283	274,214	138,865
346,289	2,287	273,987	138,742
347,304	2,311	273,883	138,698
348,319	2,240	273,574	138,464
349,333	2,212	273,316	138,296
350,348	2,280	273,148	138,261
351,362	2,197	273,101	138,149
352,377	2,347	272,822	138,131
353,392	2,273	272,827	138,055
354,406	2,282	272,613	137,942
355,421	192,103	1347,090	1427,731
356,435	155,129	1478,074	1427,838
