DTS Sentinel unit serial number:	SN410029Multiplexer serial number:	ORYXHardware model number:	OX2-SRSoftware version number:	ORYX F/W v4,00 Oryx Data Collector v3.7.2.0data status	okinstallation	B4 Nyhavnadifferential loss correction	single-endedforward channel	channel 2reverse channel	N/Adate	2023/12/16time	07:55:13forward acquisition time	300,00reverse acquisition time	0,00gamma	499,1914k internal	0,3127k external	0,3127temperature offset calibration	1,0000default loss term (dB/km)	0,3820temperature slope calibration	1,0000multiplexer offset coefficient	1,0000multiplexer slope coefficient	1,0000fibre end	0,00T internal ref (°C)	22,38T ext. ref 1 (°C)	7,98T ext. ref 2 (°C)	8,12length (m)	temperature (°C)	Stokes	anti-Stokes-744,400	-60,424	-0,092	-0,029
-743,385	55,805	-0,197	0,142
-742,371	400,456	0,010	0,016
-741,356	229,010	-0,118	0,144
-740,342	58,904	0,132	0,096
-739,327	68,493	-0,242	0,185
-738,312	478,175	-0,032	-0,055
-737,298	-27,015	-0,295	0,128
-736,283	-200,000	-0,020	-0,111
-735,269	-91,297	-0,202	0,043
-734,254	-47,576	0,118	-0,043
-733,239	20,546	-0,273	-0,164
-732,225	-87,113	0,106	0,024
-731,210	147,313	0,073	-0,073
-730,196	112,888	-0,054	-0,048
-729,181	-81,418	0,079	-0,019
-728,167	-91,270	-0,177	0,037
-727,152	-62,018	-0,031	0,010
-726,137	-200,000	0,003	0,073
-725,123	251,162	0,037	0,047
-724,108	76,839	-0,077	0,061
-723,094	236,666	-0,085	-0,105
-722,079	-200,000	-0,007	-0,065
-721,064	800,000	0,036	-0,115
-720,050	106,819	0,071	0,063
-719,035	23,914	-0,094	0,058
-718,021	-200,000	-0,006	-0,062
-717,006	42,380	-0,130	-0,088
-715,991	-200,000	0,033	-0,116
-714,977	288,291	-0,017	-0,023
-713,962	-31,256	-0,081	-0,034
-712,948	-32,178	-0,077	0,032
-711,933	67,544	-0,171	-0,130
-710,918	-200,000	0,014	0,170
-709,904	-200,000	0,001	-0,012
-708,889	-200,000	-0,009	0,120
-707,875	800,000	-0,032	-0,094
-706,860	-106,752	0,074	-0,012
-705,845	-200,000	-0,007	-0,044
-704,831	-200,000	0,001	-0,061
-703,816	-62,366	0,075	-0,023
-702,802	-200,000	0,002	-0,069
-701,787	122,112	-0,120	-0,112
-700,772	800,000	0,012	-0,035
-699,758	94,880	0,074	-0,063
-698,743	565,427	-0,026	-0,048
-697,729	97,730	-0,046	-0,039
-696,714	-80,160	-0,054	0,013
-695,699	183,050	-0,033	0,036
-694,685	800,000	-0,028	0,059
-693,670	-200,000	0,013	-0,216
-692,656	483,312	0,024	-0,040
-691,641	256,772	-0,034	-0,043
-690,627	-58,548	0,086	0,027
-689,612	-200,000	-0,021	0,141
-688,597	-131,914	0,057	0,005
-687,583	-139,593	-0,091	0,007
-686,568	80,009	0,073	-0,059
-685,554	800,000	-0,044	-0,102
-684,539	382,382	0,053	-0,081
-683,524	745,803	-0,025	0,051
-682,510	-190,291	0,111	0,001
-681,495	-50,270	0,068	0,024
-680,481	-82,491	0,025	-0,006
-679,466	-82,479	-0,084	0,020
-678,451	-200,000	-0,018	0,108
-677,437	-60,646	0,025	0,008
-676,422	520,488	0,059	-0,103
-675,408	241,808	-0,090	0,112
-674,393	-82,980	-0,079	-0,019
-673,378	477,251	-0,028	0,047
-672,364	-71,379	-0,103	-0,028
-671,349	17,298	-0,108	-0,063
-670,335	397,785	-0,094	-0,147
-669,320	-26,612	0,046	-0,020
-668,305	-115,581	-0,119	-0,016
-667,291	211,615	-0,093	-0,109
-666,276	226,012	0,075	0,090
-665,262	-200,000	-0,028	-0,098
-664,247	58,342	-0,081	0,059
-663,232	524,950	0,053	-0,094
-662,218	-110,435	0,110	-0,017
-661,203	732,028	-0,070	0,139
-660,189	16,472	0,043	-0,025
-659,174	-92,515	-0,064	-0,013
-658,159	-193,008	-0,070	0,000
-657,145	-68,762	-0,044	0,013
-656,130	-41,470	-0,042	0,016
-655,116	-200,000	0,004	0,014
-654,101	800,000	0,008	0,022
-653,086	-34,457	-0,068	0,027
-652,072	800,000	0,037	0,100
-651,057	49,742	-0,102	-0,071
-650,043	-115,043	0,088	0,012
-649,028	800,000	-0,056	0,155
-648,014	-200,000	0,003	0,061
-646,999	800,000	-0,007	-0,021
-645,984	-200,000	0,014	0,141
-644,970	800,000	0,049	0,130
-643,955	-177,944	-0,170	0,003
-642,941	-87,046	0,092	0,021
-641,926	-90,511	-0,095	-0,020
-640,911	-101,419	0,108	-0,019
-639,897	-19,072	0,123	-0,057
-638,882	267,585	0,036	0,047
-637,868	-200,000	-0,015	-0,054
-636,853	-200,000	-0,002	-0,065
-635,838	-67,562	0,039	0,011
-634,824	86,338	0,038	0,031
-633,809	656,097	0,046	0,088
-632,795	236,410	0,018	0,022
-631,780	4,454	0,025	0,013
-630,765	-109,164	0,113	-0,018
-629,751	-55,027	-0,154	0,051
-628,736	162,221	0,038	-0,039
-627,722	-110,139	0,057	0,009
-626,707	82,767	-0,047	0,038
-625,692	-200,000	-0,005	0,021
-624,678	139,321	-0,079	0,077
-623,663	-82,744	-0,170	0,041
-622,649	-200,000	-0,004	-0,151
-621,634	59,535	-0,129	0,094
-620,619	-200,000	0,013	-0,125
-619,605	-146,277	-0,064	0,004
-618,590	-200,000	0,039	0,131
-617,576	560,014	0,050	0,089
-616,561	-113,380	-0,076	-0,011
-615,546	68,523	-0,071	-0,054
-614,532	-120,989	-0,076	0,009
-613,517	-200,000	0,002	-0,048
-612,503	800,000	-0,039	0,116
-611,488	-200,000	0,001	0,056
-610,474	616,515	0,026	-0,048
-609,459	-200,000	0,027	0,096
-608,444	-200,000	0,005	-0,030
-607,430	-44,040	0,041	-0,015
-606,415	771,184	-0,060	-0,121
-605,401	-200,000	0,014	0,051
-604,386	-97,627	-0,099	0,019
-603,371	45,438	-0,062	0,043
-602,357	84,478	-0,141	-0,114
-601,342	-200,000	-0,008	-0,081
-600,328	-13,093	-0,107	0,051
-599,313	800,000	-0,039	-0,096
-598,298	-200,000	-0,009	0,155
-597,284	-24,460	0,107	0,047
-596,269	-43,377	0,091	0,034
-595,255	-147,699	-0,076	-0,005
-594,240	-132,087	-0,072	-0,007
-593,225	800,000	0,018	-0,046
-592,211	179,650	0,073	-0,080
-591,196	-200,000	0,021	-0,090
-590,182	25,763	0,133	0,082
-589,167	-200,000	-0,017	0,146
-588,152	800,000	-0,027	-0,074
-587,138	-138,192	-0,021	-0,002
-586,123	-107,184	-0,046	0,007
-585,109	-136,655	-0,048	-0,004
-584,094	-130,594	0,069	-0,007
-583,079	263,198	-0,064	-0,082
-582,065	-42,501	0,045	0,017
-581,050	-116,702	0,068	-0,009
-580,036	18,538	-0,174	-0,103
-579,021	-146,438	0,097	-0,006
-578,006	80,858	-0,027	0,022
-576,992	18,191	-0,098	0,058
-575,977	370,603	-0,032	0,049
-574,963	-200,000	0,005	0,078
-573,948	-176,965	-0,083	0,002
-572,934	800,000	-0,032	0,098
-571,919	800,000	-0,072	-0,159
-570,904	800,000	0,020	-0,041
-569,890	487,832	0,066	-0,111
-568,875	800,000	0,008	-0,017
-567,861	135,142	-0,089	-0,086
-566,846	800,000	0,020	0,044
-565,831	98,708	-0,045	-0,039
-564,817	704,828	0,090	-0,175
-563,802	159,866	-0,039	-0,040
-562,788	-200,000	-0,001	0,133
-561,773	708,206	0,038	0,074
-560,758	84,989	0,088	-0,071
-559,744	77,027	0,018	0,014
-558,729	-159,073	-0,050	-0,002
-557,715	-200,000	0,028	0,092
-556,700	800,000	-0,011	-0,027
-555,685	-15,725	-0,143	-0,067
-554,671	-200,000	-0,007	0,132
-553,656	-27,800	0,098	0,042
-552,642	-96,277	-0,108	0,021
-551,627	1,341	0,068	0,036
-550,612	-200,000	0,026	-0,141
-549,598	-125,161	-0,110	0,012
-548,583	279,617	-0,047	-0,062
-547,569	-95,541	-0,032	0,006
-546,554	-200,000	0,004	0,079
-545,539	-16,597	0,121	-0,056
-544,525	198,248	-0,096	-0,108
-543,510	21,573	0,093	0,056
-542,496	-200,000	0,002	0,073
-541,481	-200,000	0,008	-0,080
-540,466	-116,080	-0,079	-0,011
-539,452	-200,000	0,003	0,032
-538,437	-200,000	0,004	-0,099
-537,423	-200,000	-0,012	0,106
-536,408	-200,000	-0,018	-0,094
-535,393	-107,022	-0,100	-0,016
-534,379	186,370	0,107	-0,118
-533,364	119,718	-0,071	-0,065
-532,350	-19,795	0,106	0,048
-531,335	800,000	-0,055	-0,122
-530,321	-200,000	0,008	0,216
-529,306	-82,543	-0,079	-0,019
-528,291	486,688	0,070	0,118
-527,277	-200,000	-0,005	-0,069
-526,262	186,169	0,130	-0,143
-525,248	800,000	0,010	0,029
-524,233	95,427	-0,108	-0,091
-523,218	349,664	0,049	0,071
-522,204	-66,365	0,057	-0,017
-521,189	674,578	0,020	0,039
-520,175	-200,000	-0,007	0,184
-519,160	175,249	-0,035	-0,038
-518,145	-83,675	-0,062	-0,015
-517,131	-200,000	0,017	0,069
-516,116	800,000	-0,056	0,133
-515,102	21,119	0,064	0,038
-514,087	-200,000	-0,005	0,041
-513,072	-200,000	0,005	0,029
-512,058	447,575	-0,015	-0,024
-511,043	-200,000	0,024	-0,093
-510,029	-200,000	0,018	0,109
-509,014	-200,000	0,022	0,132
-507,999	3,799	0,089	-0,048
-506,985	407,736	-0,024	-0,038
-505,970	-36,848	-0,008	-0,003
-504,956	118,115	-0,119	-0,108
-503,941	-200,000	0,003	0,088
-502,926	-9,963	0,100	0,049
-501,912	-200,000	0,008	0,072
-500,897	233,944	-0,058	0,070
-499,883	-200,000	-0,026	-0,126
-498,868	800,000	0,033	-0,084
-497,853	-137,986	0,084	-0,007
-496,839	380,609	-0,098	-0,149
-495,824	182,349	0,022	0,024
-494,810	-43,583	0,091	0,034
-493,795	-70,519	0,050	-0,014
-492,781	326,178	-0,055	-0,078
-491,766	-107,651	0,075	0,012
-490,751	-94,429	0,053	0,011
-489,737	-59,478	0,030	-0,010
-488,722	269,117	0,033	-0,043
-487,708	62,615	0,138	0,101
-486,693	260,547	-0,072	0,092
-485,678	800,000	0,066	0,142
-484,664	800,000	0,002	0,007
-483,649	113,951	-0,026	-0,023
-482,635	-88,432	-0,037	-0,008
-481,620	-70,449	-0,030	-0,008
-480,605	-200,000	-0,002	-0,039
-479,591	-200,000	-0,012	0,079
-478,576	110,243	0,023	0,021
-477,562	-200,000	0,001	0,107
-476,547	-200,000	0,001	-0,105
-475,532	800,000	-0,010	-0,032
-474,518	-200,000	0,023	-0,099
-473,503	-34,087	-0,068	-0,027
-472,489	-156,388	0,217	0,010
-471,474	128,774	-0,057	-0,053
-470,459	42,472	0,129	-0,086
-469,445	-119,138	-0,079	-0,010
-468,430	177,356	-0,042	-0,046
-467,416	-200,000	0,011	-0,104
-466,401	-139,160	0,174	-0,014
-465,386	-200,000	0,001	0,139
-464,372	-85,467	0,069	0,016
-463,357	129,443	-0,161	-0,151
-462,343	-200,000	0,006	-0,059
-461,328	-200,000	0,008	-0,170
-460,313	4,122	0,035	-0,019
-459,299	-200,000	-0,018	-0,172
-458,284	800,000	-0,036	0,086
-457,270	232,704	-0,095	0,115
-456,255	800,000	-0,061	-0,150
-455,241	-165,344	-0,021	0,001
-454,226	-200,000	-0,007	-0,120
-453,211	649,425	-0,075	0,142
-452,197	-200,000	0,015	-0,055
-451,182	14,074	-0,031	0,018
-450,168	-200,000	-0,050	0,186
-449,153	800,000	0,038	-0,119
-448,138	95,901	-0,026	0,021
-447,124	-135,138	-0,078	0,007
-446,109	521,555	0,066	-0,114
-445,095	-200,000	0,011	0,065
-444,080	-166,755	0,102	0,003
-443,065	164,365	0,053	-0,055
-442,051	-15,383	0,141	-0,066
-441,036	-194,277	-0,071	-0,000
-440,022	-200,000	-0,022	-0,076
-439,007	626,153	-0,063	-0,117
-437,992	-59,146	0,069	0,022
-436,978	104,937	0,089	-0,077
-435,963	-82,081	0,093	0,022
-434,949	247,064	0,026	0,032
-433,934	513,293	-0,097	-0,167
-432,919	-200,000	-0,006	0,103
-431,905	-10,009	0,055	-0,027
-430,890	204,692	0,064	0,074
-429,876	22,548	-0,133	0,080
-428,861	402,425	-0,061	-0,095
-427,846	58,681	0,138	0,100
-426,832	-188,854	-0,085	-0,001
-425,817	7,917	0,032	-0,018
-424,803	-200,000	-0,000	0,023
-423,788	-200,000	0,008	-0,027
-422,773	800,000	0,030	0,077
-421,759	194,340	0,058	0,064
-420,744	-200,000	0,007	-0,141
-419,730	218,807	-0,081	-0,096
-418,715	-72,990	-0,093	0,025
-417,701	567,856	0,042	0,076
-416,686	225,740	-0,040	0,048
-415,671	249,841	0,030	-0,037
-414,657	-200,000	0,010	-0,106
-413,642	-200,000	0,008	-0,090
-412,628	-84,905	0,136	0,031
-411,613	-200,000	0,010	-0,089
-410,598	55,806	-0,037	-0,026
-409,584	800,000	0,018	-0,039
-408,569	150,011	0,057	-0,057
-407,555	288,909	-0,062	0,083
-406,540	-35,371	0,118	0,047
-405,525	-200,000	-0,016	0,150
-404,511	29,089	0,044	0,028
-403,496	62,204	0,093	-0,068
-402,482	684,060	0,040	0,076
-401,467	-200,000	-0,018	0,158
-400,452	-102,685	0,116	0,020
-399,438	-11,819	0,022	0,010
-398,423	237,581	0,015	0,018
-397,409	-55,826	0,076	-0,025
-396,394	-200,000	-0,016	-0,129
-395,379	-112,732	-0,189	0,027
-394,365	-200,000	-0,005	0,032
-393,350	99,109	0,053	0,045
-392,336	-139,436	0,101	-0,008
-391,321	107,501	0,104	-0,091
-390,306	-200,000	0,012	-0,098
-389,292	-167,707	-0,049	-0,001
-388,277	290,740	0,054	-0,073
-387,263	800,000	0,055	-0,176
-386,248	112,471	0,133	0,118
-385,233	60,770	-0,108	0,079
-384,219	465,910	0,046	0,076
-383,204	-145,950	-0,063	0,004
-382,190	-77,288	-0,127	0,032
-381,175	-200,000	0,028	0,093
-380,160	-60,576	0,215	0,067
-379,146	800,000	0,050	0,104
-378,131	-200,000	0,025	0,093
-377,117	-76,962	-0,008	0,002
-376,102	79,912	0,056	-0,044
-375,088	-118,240	0,024	0,003
-374,073	800,000	0,029	-0,068
-373,058	-200,000	0,016	0,066
-372,044	800,000	0,014	0,032
-371,029	493,260	-0,099	0,168
-370,015	800,000	-0,027	-0,061
-369,000	-200,000	0,025	0,121
-367,985	111,009	-0,061	-0,054
-366,971	605,511	-0,058	0,106
-365,956	27,980	-0,101	-0,062
-364,942	-200,000	0,018	-0,092
-363,927	800,000	0,022	0,050
-362,912	-72,086	-0,105	0,028
-361,898	800,000	-0,035	0,083
-360,883	800,000	0,019	-0,056
-359,869	800,000	0,028	-0,067
-358,854	30,200	0,136	0,085
-357,839	-200,000	0,029	0,140
-356,825	156,422	0,067	0,068
-355,810	590,877	0,003	0,006
-354,796	0,594	0,038	-0,020
-353,781	-33,871	-0,152	-0,061
-352,766	137,702	0,063	-0,061
-351,752	277,204	0,126	-0,165
-350,737	-22,271	0,050	0,022
-349,723	233,278	-0,051	-0,062
-348,708	-13,605	0,058	0,027
-347,693	149,839	0,047	-0,047
-346,679	201,895	0,065	-0,073
-345,664	552,220	0,068	0,121
-344,650	800,000	-0,007	-0,017
-343,635	60,284	0,168	0,122
-342,620	79,068	0,165	-0,129
-341,606	24,038	0,002	-0,001
-340,591	-200,000	0,016	-0,078
-339,577	82,704	-0,020	0,016
-338,562	52,364	-0,138	0,096
-337,548	800,000	-0,018	0,037
-336,533	-28,168	0,100	0,042
-335,518	-171,880	0,056	0,001
-334,504	52,514	0,093	0,065
-333,489	119,774	0,052	-0,047
-332,475	800,000	0,033	-0,072
-331,460	800,000	-0,028	0,071
-330,445	180,204	-0,042	0,045
-329,431	-1,609	0,150	-0,077
-328,416	-123,345	-0,032	0,004
-327,402	241,937	0,066	-0,081
-326,387	235,488	-0,050	-0,061
-325,372	321,441	0,064	-0,089
-324,358	-63,145	-0,035	-0,010
-323,343	418,863	0,074	-0,116
-322,329	112,392	0,031	0,028
-321,314	89,449	0,044	-0,036
-320,299	-44,097	0,144	0,052
-319,285	800,000	0,043	-0,109
-318,270	-200,000	0,011	0,163
-317,256	-200,000	-0,020	0,089
-316,241	-77,654	-0,067	-0,017
-315,226	-44,805	-0,039	-0,014
-314,212	-36,874	0,079	-0,031
-313,197	-200,000	-0,009	-0,099
-312,183	228,626	-0,054	-0,064
-311,168	-200,000	0,020	0,157
-310,153	196,080	-0,076	0,085
-309,139	-61,815	0,146	0,044
-308,124	53,041	-0,087	0,061
-307,110	-200,000	0,002	0,026
-306,095	-200,000	-0,003	-0,081
-305,080	31,152	-0,068	0,043
-304,066	-14,117	-0,093	-0,044
-303,051	-200,000	-0,009	-0,094
-302,037	106,951	0,095	0,082
-301,022	724,679	-0,068	-0,132
-300,008	800,000	0,055	0,131
-298,993	252,709	0,138	0,173
-297,978	800,000	-0,025	0,060
-296,964	-200,000	0,003	-0,103
-295,949	-23,465	0,098	-0,043
-294,935	-40,003	-0,124	-0,047
-293,920	-10,436	-0,053	0,026
-292,905	-200,000	0,002	-0,013
-291,891	-111,269	0,188	0,028
-290,876	-172,240	-0,076	0,002
-289,862	800,000	-0,011	-0,023
-288,847	-43,419	-0,128	0,047
-287,832	142,869	0,064	-0,062
-286,818	-200,000	0,001	0,052
-285,803	800,000	0,017	0,038
-284,789	-155,953	0,203	-0,009
-283,774	324,416	0,067	0,093
-282,759	-29,524	0,075	0,031
-281,745	121,052	-0,079	-0,072
-280,730	800,000	0,040	-0,104
-279,716	183,641	-0,076	-0,082
-278,701	-200,000	0,004	-0,064
-277,686	397,381	-0,021	-0,033
-276,672	176,320	0,045	-0,048
-275,657	-124,102	-0,084	-0,009
-274,643	-200,000	-0,045	-0,211
-273,628	-10,440	-0,084	-0,041
-272,613	800,000	-0,038	0,101
-271,599	-87,113	-0,045	0,010
-270,584	800,000	0,027	0,067
-269,570	101,492	0,063	-0,054
-268,555	-176,717	-0,131	0,002
-267,540	800,000	-0,024	0,055
-266,526	223,161	0,065	0,076
-265,511	-56,460	-0,048	0,015
-264,497	-14,656	0,012	0,005
-263,482	-131,949	0,126	-0,012
-262,467	-200,000	0,011	-0,077
-261,453	-35,483	0,078	-0,031
-260,438	279,411	0,055	-0,072
-259,424	-105,692	-0,116	-0,019
-258,409	114,107	-0,093	-0,083
-257,395	-67,876	-0,164	-0,046
-256,380	-114,962	0,095	-0,013
-255,365	-91,599	0,067	0,014
-254,351	82,052	0,093	-0,074
-253,336	379,077	-0,088	-0,132
-252,322	742,745	-0,070	-0,138
-251,307	-112,885	-0,035	-0,005
-250,292	800,000	-0,073	0,158
-249,278	-54,386	0,033	0,011
-248,263	350,053	0,121	0,175
-247,249	184,007	0,064	-0,070
-246,234	104,864	-0,092	-0,079
-245,219	-200,000	0,004	-0,117
-244,205	-200,000	-0,012	0,045
-243,190	-200,000	0,022	0,111
-242,176	-159,519	0,073	-0,003
-241,161	800,000	-0,023	-0,047
-240,146	-200,000	-0,012	0,165
-239,132	493,016	0,026	-0,043
-238,117	31,749	-0,090	0,057
-237,103	63,415	-0,165	0,121
-236,088	-200,000	0,037	0,124
-235,073	-194,780	-0,077	-0,000
-234,059	-156,470	0,022	0,001
-233,044	274,666	0,092	0,119
-232,030	800,000	-0,039	-0,116
-231,015	197,724	-0,024	-0,027
-230,000	-136,894	-0,047	-0,004
-228,986	-200,000	0,012	-0,072
-227,971	800,000	-0,021	0,048
-226,957	800,000	-0,041	0,119
-225,942	-200,000	-0,037	-0,122
-224,927	-92,861	-0,014	0,003
-223,913	-15,921	-0,063	0,029
-222,898	105,612	-0,092	-0,079
-221,884	-200,000	0,014	-0,104
-220,869	-200,000	-0,003	0,110
-219,855	-200,000	-0,012	0,123
-218,840	-200,000	0,004	0,016
-217,825	-36,786	-0,084	-0,033
-216,811	-200,000	0,024	-0,204
-215,796	99,263	-0,124	-0,105
-214,782	-50,758	-0,102	0,035
-213,767	113,187	-0,079	0,070
-212,752	493,783	0,025	0,042
-211,738	-200,000	0,001	0,010
-210,723	-200,000	0,018	0,148
-209,709	555,086	0,125	-0,220
-208,694	16,499	-0,070	-0,040
-207,679	257,563	-0,067	-0,085
-206,665	220,796	0,065	0,076
-205,650	147,110	0,066	-0,065
-204,636	189,777	-0,093	0,102
-203,621	22,662	0,088	0,052
-202,606	-200,000	-0,048	-0,154
-201,592	-200,000	0,044	-0,184
-200,577	-38,191	0,036	0,014
-199,563	-200,000	-0,029	0,178
-198,548	116,484	0,091	0,082
-197,533	16,426	0,086	0,049
-196,519	-157,896	-0,038	-0,002
-195,504	-200,000	-0,020	0,088
-194,490	-29,197	-0,057	0,024
-193,475	-149,009	-0,172	-0,010
-192,460	134,150	0,019	0,018
-191,446	-48,999	0,043	-0,015
-190,431	-200,000	0,007	0,023
-189,417	-33,343	0,065	-0,026
-188,402	-134,167	-0,041	-0,004
-187,387	-139,260	0,056	-0,004
-186,373	109,999	-0,056	0,049
-185,358	-78,304	-0,088	0,022
-184,344	-81,278	0,098	0,023
-183,329	170,571	-0,102	0,106
-182,315	-200,000	-0,006	0,034
-181,300	-200,000	0,001	-0,127
-180,285	-200,000	-0,005	-0,036
-179,271	-200,000	-0,007	0,042
-178,256	68,313	-0,117	0,087
-177,242	-200,000	-0,013	-0,054
-176,227	-200,000	-0,005	0,041
-175,212	-200,000	-0,021	0,094
-174,198	800,000	-0,032	0,068
-173,183	800,000	0,055	-0,116
-172,169	600,849	-0,022	-0,040
-171,154	353,737	-0,080	0,116
-170,139	-147,428	0,105	-0,006
-169,125	380,102	0,060	0,090
-168,110	-35,126	-0,022	0,009
-167,096	-200,000	-0,008	0,062
-166,081	555,345	-0,040	0,070
-165,066	229,587	-0,088	-0,105
-164,052	71,693	-0,050	0,038
-163,037	56,973	-0,168	0,119
-162,023	198,246	-0,048	0,054
-161,008	-200,000	0,003	-0,126
-159,993	-200,000	-0,057	-0,210
-158,979	63,940	-0,046	0,033
-157,964	449,017	-0,044	-0,071
-156,950	-14,536	-0,070	-0,033
-155,935	26,894	-0,081	-0,049
-154,920	-200,000	-0,015	-0,064
-153,906	549,097	0,051	0,089
-152,891	-109,170	-0,081	0,012
-151,877	532,242	-0,059	-0,102
-150,862	137,101	0,031	0,030
-149,847	-200,000	0,000	0,123
-148,833	-200,000	-0,021	0,106
-147,818	368,586	0,055	0,081
-146,804	800,000	0,018	-0,051
-145,789	68,365	-0,059	-0,044
-144,775	141,784	-0,047	0,045
-143,760	111,873	-0,051	-0,045
-142,745	800,000	-0,047	-0,125
-141,731	454,919	-0,010	-0,016
-140,716	-200,000	-0,003	0,078
-139,702	-25,329	-0,020	0,009
-138,687	-32,574	-0,061	-0,024
-137,672	800,000	0,039	-0,097
-136,658	800,000	0,030	-0,079
-135,643	-200,000	-0,006	-0,100
-134,629	81,567	-0,040	0,031
-133,614	-200,000	-0,004	0,025
-132,599	-200,000	-0,012	0,110
-131,585	-200,000	0,021	0,215
-130,570	800,000	-0,047	-0,125
-129,556	-200,000	-0,029	-0,098
-128,541	200,862	0,066	0,074
-127,526	800,000	-0,015	-0,044
-126,512	-200,000	0,014	-0,060
-125,497	367,724	0,077	0,113
-124,483	-200,000	0,016	0,122
-123,468	-200,000	-0,003	-0,042
-122,453	-200,000	0,009	-0,171
-121,439	79,245	-0,101	-0,078
-120,424	-200,000	-0,031	-0,151
-119,410	214,266	0,131	-0,151
-118,395	800,000	-0,040	0,105
-117,380	89,799	-0,103	-0,083
-116,366	-138,783	0,032	-0,002
-115,351	-81,624	-0,020	0,005
-114,337	71,708	-0,072	-0,054
-113,322	87,733	0,046	0,037
-112,307	89,265	-0,041	0,033
-111,293	710,574	-0,048	-0,093
-110,278	21,063	-0,112	0,066
-109,264	-200,000	0,020	-0,078
-108,249	800,000	0,080	-0,167
-107,234	-101,024	-0,149	0,026
-106,220	53,748	0,062	0,043
-105,205	167,377	0,047	0,048
-104,191	-157,873	0,075	0,003
-103,176	-110,956	-0,130	-0,019
-102,162	0,293	0,036	0,019
-101,147	-7,147	-0,011	0,005
-100,132	-150,125	-0,119	0,007
-99,118	-200,000	-0,027	-0,146
-98,103	-52,878	-0,046	0,015
-97,089	328,133	-0,089	0,125
-96,074	-200,000	-0,039	0,164
-95,059	800,000	0,023	-0,052
-94,045	11,135	-0,098	0,054
-93,030	-200,000	-0,008	-0,145
-92,016	800,000	0,039	0,112
-91,001	-163,158	0,098	-0,003
-89,986	-200,000	0,021	0,106
-88,972	84,697	-0,107	0,085
-87,957	-200,000	0,018	-0,120
-86,943	-200,000	0,006	0,124
-85,928	307,780	-0,081	-0,110
-84,913	92,932	-0,030	0,024
-83,899	169,732	-0,075	-0,077
-82,884	800,000	0,038	-0,089
-81,870	800,000	-0,015	-0,036
-80,855	-200,000	0,029	0,108
-79,840	42,517	0,037	-0,024
-78,826	-92,462	0,103	0,021
-77,811	97,502	0,060	-0,050
-76,797	-142,445	-0,046	-0,003
-75,782	12,863	0,119	-0,067
-74,767	700,704	-0,046	-0,088
-73,753	-2,296	0,031	0,016
-72,738	-64,090	-0,055	0,016
-71,724	343,571	-0,016	-0,023
-70,709	258,441	-0,101	-0,126
-69,694	73,222	0,118	-0,090
-68,680	193,035	0,033	-0,036
-67,665	-200,000	0,005	0,081
-66,651	-200,000	-0,045	0,161
-65,636	-200,000	0,003	0,029
-64,622	-200,000	-0,002	-0,059
-63,607	104,032	0,036	-0,031
-62,592	-200,000	-0,018	-0,063
-61,578	655,064	0,039	-0,072
-60,563	-200,000	0,029	-0,141
-59,549	65,323	-0,066	0,049
-58,534	-171,667	-1,468	-0,034
-57,519	661,375	-0,786	-1,475
-56,505	-200,000	-0,670	-4,360
-55,490	9,555	0,483	-0,264
-54,476	800,000	4,767	11,478
-53,461	-200,000	13,817	250,984
-52,446	-200,000	688,822	2249,769
-51,432	593,370	1619,444	2912,315
-50,417	119,527	1631,919	1464,362
-49,403	74,403	1286,742	978,909
-48,388	38,341	1022,428	658,646
-47,373	24,373	980,272	585,695
-46,359	23,615	970,053	577,087
-45,344	22,600	965,844	571,254
-44,330	22,570	964,370	570,262
-43,315	22,501	962,902	569,148
-42,300	22,443	961,907	568,349
-41,286	22,405	960,921	567,620
-40,271	22,411	960,067	567,112
-39,257	22,379	959,033	566,377
-38,242	22,390	958,188	565,890
-37,227	22,369	957,409	565,338
-36,213	22,364	956,366	564,684
-35,198	22,361	955,531	564,161
-34,184	22,388	955,013	563,917
-33,169	22,368	954,110	563,298
-32,154	22,419	953,093	562,841
-31,140	22,375	952,268	562,188
-30,125	22,446	951,499	561,941
-29,111	22,396	950,713	561,293
-28,096	22,404	949,839	560,781
-27,082	22,439	949,140	560,458
-26,067	22,423	948,391	559,943
-25,052	22,378	947,718	559,380
-24,038	22,431	947,200	559,222
-23,023	22,483	946,472	558,934
-22,009	22,402	945,905	558,320
-20,994	22,463	945,076	558,003
-19,979	22,485	944,369	557,633
-18,965	22,470	943,816	557,235
-17,950	22,449	943,337	556,864
-16,936	22,386	942,699	556,264
-15,921	22,397	941,735	555,710
-14,906	22,287	941,326	555,096
-13,892	22,311	940,564	554,701
-12,877	22,323	939,981	554,373
-11,863	22,226	939,487	553,754
-10,848	22,278	938,833	553,509
-9,833	22,377	938,420	553,557
-8,819	22,389	937,887	553,258
-7,804	22,299	937,108	552,494
-6,790	22,310	936,393	552,083
-5,775	22,359	935,836	551,889
-4,760	22,327	935,183	551,382
-3,746	22,332	934,624	551,047
-2,731	22,171	934,061	550,185
-1,717	22,083	933,563	549,593
-0,702	22,110	932,660	549,125
0,313	21,861	931,997	548,780
1,327	24,353	929,615	555,143
2,342	31,958	807,863	502,993
3,356	27,450	507,955	308,571
4,371	3,694	372,597	196,266
5,386	0,727	355,417	183,578
6,400	-0,711	349,223	178,636
7,415	-1,686	346,406	176,017
8,429	-1,902	344,926	174,993
9,444	-1,973	343,940	174,393
10,459	-1,996	343,232	173,991
11,473	-1,900	342,855	173,898
12,488	-1,614	342,340	173,958
13,502	-1,497	341,693	173,751
14,517	-1,663	341,114	173,247
15,531	-1,956	340,541	172,597
16,546	-2,007	340,101	172,299
17,561	-2,047	339,807	172,088
18,575	-1,960	339,388	171,962
19,590	-2,080	339,004	171,612
20,604	-1,958	338,686	171,577
21,619	-1,983	338,149	171,261
22,634	-1,967	337,783	171,079
23,648	-1,989	337,688	170,991
24,663	-1,987	337,194	170,727
25,677	-2,042	337,094	170,598
26,692	-2,093	336,786	170,367
27,707	-2,024	336,377	170,225
28,721	-2,060	336,093	170,025
29,736	-1,982	335,726	169,914
30,750	-2,016	335,300	169,644
31,765	-1,999	335,161	169,579
32,780	-1,978	334,977	169,494
33,794	-2,076	334,702	169,227
34,809	-1,947	334,279	169,147
35,823	-1,987	334,019	168,954
36,838	-1,895	333,681	168,873
37,853	-2,116	333,403	168,464
38,867	-2,083	333,190	168,379
39,882	-2,133	332,913	168,167
40,896	-2,011	332,473	168,070
41,911	-1,948	332,322	168,050
42,926	-2,087	331,949	167,689
43,940	-2,246	331,720	167,376
44,955	-2,239	331,447	167,232
45,969	-2,312	331,194	167,006
46,984	-2,337	330,909	166,819
47,999	-2,727	330,692	166,253
49,013	-2,701	330,262	166,051
50,028	-2,681	329,978	165,915
51,042	-2,686	329,617	165,713
52,057	-2,713	329,408	165,564
53,071	-2,763	329,285	165,430
54,086	-2,663	329,026	165,399
55,101	-2,669	328,788	165,257
56,115	-2,563	328,646	165,291
57,130	-1,989	328,521	165,860
58,144	-2,005	328,342	165,736
59,159	-1,824	328,135	165,820
60,174	-1,811	327,777	165,639
61,188	-1,949	327,500	165,330
62,203	-1,891	327,312	165,286
63,217	-2,067	327,101	164,967
64,232	-1,734	326,766	165,155
65,247	-1,851	326,502	164,877
66,261	-1,835	326,248	164,752
67,276	-2,124	325,868	164,223
68,290	-2,158	325,552	164,011
69,305	-2,110	325,181	163,862
70,320	-2,259	325,006	163,594
71,334	-2,050	324,851	163,734
72,349	-1,912	324,790	163,841
73,363	-1,684	324,376	163,871
74,378	-1,833	324,237	163,621
75,393	-1,919	323,885	163,334
76,407	-1,967	323,935	163,291
77,422	-1,844	323,527	163,208
78,436	-1,897	323,277	163,009
79,451	-1,772	322,846	162,914
80,466	-1,948	322,780	162,673
81,480	-2,061	322,275	162,279
82,495	-2,146	322,052	162,058
83,509	-2,164	321,819	161,907
84,524	-2,215	321,545	161,699
85,539	-2,273	321,334	161,514
86,553	-2,487	321,050	161,122
87,568	-2,303	320,889	161,229
88,582	-2,319	320,610	161,057
89,597	-2,411	320,595	160,934
90,611	-2,187	320,358	161,046
91,626	-1,976	320,087	161,126
92,641	-1,969	319,879	161,015
93,655	-2,140	319,553	160,650
94,670	-2,027	319,293	160,627
95,684	-1,967	318,963	160,513
96,699	-2,200	318,894	160,210
97,714	-2,240	318,779	160,095
98,728	-2,281	318,403	159,846
99,743	-2,302	318,159	159,688
100,757	-2,332	317,810	159,465
101,772	-2,313	317,574	159,353
102,787	-2,325	317,548	159,312
103,801	-2,088	317,309	159,436
104,816	-2,122	317,160	159,310
105,830	-2,049	316,855	159,221
106,845	-1,924	316,750	159,289
107,860	-1,995	316,396	159,020
108,874	-2,071	316,107	158,779
109,889	-2,020	315,954	158,743
110,903	-2,126	315,700	158,487
111,918	-2,250	315,536	158,256
112,933	-2,107	315,326	158,291
113,947	-2,005	314,953	158,199
114,962	-1,913	314,870	158,243
115,976	-1,948	314,586	158,048
116,991	-2,036	314,307	157,800
118,006	-2,046	314,122	157,682
119,020	-2,019	314,074	157,673
120,035	-1,918	313,896	157,677
121,049	-1,846	313,717	157,651
122,064	-1,929	313,420	157,398
123,079	-2,002	313,090	157,141
124,093	-1,991	312,852	157,019
125,108	-2,268	312,513	156,539
126,122	-2,528	312,311	156,148
127,137	-2,507	312,048	156,025
128,151	-2,558	311,967	155,916
129,166	-2,173	311,507	156,081
130,181	-2,359	311,365	155,799
131,195	-2,366	311,189	155,689
132,210	-2,273	311,018	155,688
133,224	-1,905	310,738	155,924
134,239	-2,055	310,555	155,660
135,254	-1,910	310,368	155,705
136,268	-2,078	310,098	155,378
137,283	-2,279	309,741	154,974
138,297	-2,453	309,642	154,727
139,312	-2,362	309,441	154,709
140,327	-2,111	309,310	154,893
141,341	-2,006	309,131	154,900
142,356	-1,782	308,953	155,033
143,370	-1,367	308,727	155,341
144,385	-1,576	308,664	155,076
145,400	-1,866	308,442	154,646
146,414	-1,599	308,109	154,746
147,429	-1,612	307,955	154,641
148,443	-1,690	307,796	154,466
149,458	-1,683	307,549	154,335
150,473	-1,565	307,309	154,324
151,487	-1,781	307,129	153,995
152,502	-1,714	306,935	153,954
153,516	-1,744	306,693	153,787
154,531	-1,634	306,379	153,731
155,546	-1,702	306,145	153,529
156,560	-1,737	306,042	153,428
157,575	-1,949	305,616	152,980
158,589	-1,822	305,500	153,039
159,604	-1,833	305,399	152,964
160,619	-1,799	305,097	152,835
161,633	-1,816	304,975	152,742
162,648	-1,801	304,794	152,654
163,662	-1,623	304,616	152,735
164,677	-1,765	304,335	152,433
165,692	-1,800	304,072	152,252
166,706	-1,677	303,999	152,328
167,721	-1,804	303,699	152,034
168,735	-1,835	303,569	151,924
169,750	-1,805	303,348	151,830
170,764	-1,430	303,212	152,135
171,779	-1,640	303,064	151,831
172,794	-1,626	302,899	151,749
173,808	-1,726	302,619	151,493
174,823	-2,121	302,259	150,894
175,837	-2,211	301,949	150,633
176,852	-1,817	301,985	151,041
177,867	-1,533	301,771	151,211
178,881	-1,761	301,731	150,945
179,896	-1,560	301,483	151,012
180,910	-1,597	301,158	150,799
181,925	-1,646	301,108	150,710
182,940	-1,468	300,889	150,769
183,954	-1,545	300,683	150,573
184,969	-1,622	300,382	150,331
185,983	-1,757	300,320	150,149
186,998	-1,785	299,969	149,931
188,013	-1,648	299,842	149,994
189,027	-1,536	299,598	149,972
190,042	-1,745	299,440	149,668
191,056	-1,629	299,296	149,700
192,071	-1,399	299,107	149,825
193,086	-1,462	298,873	149,630
194,100	-1,403	298,756	149,619
195,115	-1,441	298,392	149,385
196,129	-1,560	298,228	149,169
197,144	-1,640	297,992	148,957
198,159	-1,402	297,833	149,104
199,173	-1,531	297,654	148,871
200,188	-1,482	297,569	148,865
201,202	-1,540	297,229	148,624
202,217	-2,287	296,867	147,679
203,232	-2,167	296,349	147,529
204,246	-1,915	296,504	147,844
205,261	-1,565	296,291	148,076
206,275	-1,539	296,212	148,049
207,290	-1,629	296,035	147,858
208,304	-1,628	295,890	147,773
209,319	-1,409	295,584	147,825
210,334	-1,343	295,329	147,751
211,348	-1,560	295,163	147,439
212,363	-1,686	295,058	147,247
213,377	-1,492	294,748	147,273
214,392	-1,465	294,617	147,221
215,407	-1,745	294,413	146,828
216,421	-1,815	293,933	146,505
217,436	-1,762	293,812	146,484
218,450	-1,827	293,661	146,331
219,465	-1,752	293,591	146,358
220,480	-1,640	293,492	146,407
221,494	-1,650	293,190	146,233
222,509	-1,789	293,132	146,053
223,523	-1,683	292,906	146,033
224,538	-1,421	292,667	146,160
225,553	-1,345	292,583	146,180
226,567	-1,403	292,251	145,943
227,582	-1,366	292,104	145,893
228,596	-1,346	292,134	145,915
229,611	-1,377	291,887	145,748
230,626	-1,305	291,535	145,630
231,640	-1,835	291,171	144,915
232,655	-2,357	290,905	144,257
233,669	-2,283	290,706	144,218
234,684	-2,363	290,616	144,082
235,699	-2,120	290,440	144,220
236,713	-1,954	290,154	144,228
237,728	-1,955	290,175	144,224
238,742	-1,689	289,979	144,374
239,757	-1,626	289,837	144,352
240,772	-1,706	289,742	144,214
241,786	-1,726	289,508	144,065
242,801	-1,804	289,290	143,868
243,815	-1,999	289,123	143,582
244,830	-1,826	288,901	143,627
245,844	-1,747	288,642	143,562
246,859	-1,703	288,465	143,504
247,874	-2,015	288,360	143,136
248,888	-1,984	288,085	143,017
249,903	-1,797	288,114	143,200
250,917	-1,592	287,911	143,285
251,932	-1,500	288,011	143,412
252,947	-0,694	287,791	144,070
253,961	-0,481	287,604	144,170
254,976	0,351	287,960	145,141
255,990	2,275	288,318	147,174
257,005	2,872	288,717	147,942
258,020	3,905	288,990	149,072
259,034	4,356	288,809	149,401
260,049	4,146	288,603	149,079
261,063	3,971	288,288	148,733
262,078	4,203	288,267	148,933
263,093	4,616	288,272	149,322
264,107	4,436	288,158	149,076
265,122	4,747	288,106	149,335
266,136	4,989	287,785	149,389
267,151	4,892	287,669	149,222
268,166	4,625	287,481	148,855
269,180	4,632	287,168	148,686
270,195	4,646	287,018	148,608
271,209	4,556	286,901	148,448
272,224	4,615	286,549	148,310
273,239	4,497	286,328	148,069
274,253	4,526	286,171	148,002
275,268	4,824	286,214	148,296
276,282	4,914	285,859	148,185
277,297	4,706	285,660	147,870
278,312	4,853	285,711	148,024
279,326	4,917	285,459	147,942
280,341	4,701	285,143	147,559
281,355	4,738	284,907	147,459
282,370	4,623	284,638	147,196
283,384	4,523	284,460	146,996
284,399	4,468	284,495	146,949
285,414	4,404	284,246	146,746
286,428	4,512	284,117	146,769
287,443	4,235	283,686	146,270
288,457	4,162	283,426	146,054
289,472	4,217	283,425	146,093
290,487	4,255	283,162	145,981
291,501	4,013	282,934	145,621
292,516	3,941	282,708	145,423
293,530	3,884	282,532	145,266
294,545	4,199	282,429	145,498
295,560	4,320	282,363	145,565
296,574	4,301	282,006	145,350
297,589	4,400	281,819	145,334
298,603	4,504	281,888	145,454
299,618	4,852	281,683	145,663
300,633	4,473	281,538	145,219
301,647	4,414	281,389	145,073
302,662	4,590	281,169	145,112
303,676	4,208	280,941	144,623
304,691	4,126	280,510	144,311
305,706	4,008	280,457	144,161
306,720	3,993	280,222	144,013
307,735	3,987	280,092	143,928
308,749	4,160	279,942	144,000
309,764	4,315	279,777	144,047
310,779	4,142	279,542	143,752
311,793	3,998	279,359	143,510
312,808	3,931	279,044	143,273
313,822	4,037	278,947	143,309
314,837	3,881	278,745	143,047
315,852	3,740	278,415	142,734
316,866	3,925	278,368	142,870
317,881	3,893	278,291	142,787
318,895	3,944	278,039	142,693
319,910	3,698	277,776	142,318
320,925	3,797	277,677	142,345
321,939	3,873	277,573	142,350
322,954	4,016	277,522	142,443
323,968	4,157	277,247	142,419
324,983	4,048	277,084	142,223
325,997	4,228	276,926	142,295
327,012	4,439	276,804	142,415
328,027	4,282	276,509	142,105
329,041	4,103	276,274	141,807
330,056	4,129	276,239	141,801
331,070	4,267	275,915	141,748
332,085	3,982	275,807	141,418
333,100	4,325	275,490	141,558
334,114	4,214	275,474	141,435
335,129	3,920	275,162	140,993
336,143	4,291	275,107	141,292
337,158	4,441	274,966	141,344
338,173	4,287	274,709	141,059
339,187	3,993	274,594	140,719
340,202	4,155	274,639	140,877
341,216	4,447	274,340	140,978
342,231	4,236	274,003	140,600
343,246	4,206	273,938	140,526
344,260	4,051	273,824	140,314
345,275	4,341	273,782	140,544
346,289	4,512	273,569	140,578
347,304	4,526	273,298	140,439
348,319	4,358	273,100	140,172
349,333	4,340	272,995	140,089
350,348	4,474	272,774	140,085
351,362	4,558	272,648	140,084
352,377	4,531	272,560	140,002
353,392	4,447	272,366	139,814
354,406	4,563	272,066	139,752
355,421	191,830	1332,871	1411,993
356,435	154,965	1462,220	1412,116
