DTS Sentinel unit serial number:	SN410029Multiplexer serial number:	ORYXHardware model number:	OX2-SRSoftware version number:	ORYX F/W v4,00 Oryx Data Collector v3.7.2.0data status	okinstallation	B4 Nyhavnadifferential loss correction	single-endedforward channel	channel 2reverse channel	N/Adate	2023/12/18time	19:45:13forward acquisition time	300,00reverse acquisition time	0,00gamma	499,1914k internal	0,3123k external	0,3123temperature offset calibration	1,0000default loss term (dB/km)	0,3820temperature slope calibration	1,0000multiplexer offset coefficient	1,0000multiplexer slope coefficient	1,0000fibre end	0,00T internal ref (°C)	21,87T ext. ref 1 (°C)	7,03T ext. ref 2 (°C)	7,05length (m)	temperature (°C)	Stokes	anti-Stokes-744,400	-115,473	0,052	0,007
-743,385	414,358	-0,152	0,242
-742,371	-48,425	0,094	-0,034
-741,356	10,458	-0,267	0,151
-740,342	-106,580	0,118	0,019
-739,327	-83,224	-0,250	0,059
-738,312	-28,933	0,108	-0,046
-737,298	-140,731	-0,310	0,023
-736,283	257,625	0,045	-0,057
-735,269	6,736	-0,291	0,161
-734,254	-19,759	0,135	0,062
-733,239	-45,014	-0,455	-0,168
-732,225	129,852	0,117	0,111
-731,210	-200,000	-0,051	0,223
-730,196	-150,747	-0,051	0,003
-729,181	-200,000	0,021	0,086
-728,167	-200,000	-0,017	-0,095
-727,152	-133,830	-0,008	-0,001
-726,137	-16,853	-0,156	-0,073
-725,123	-69,368	-0,124	-0,035
-724,108	272,704	0,036	0,048
-723,094	54,507	-0,168	-0,120
-722,079	-26,647	-0,091	-0,039
-721,064	-200,000	-0,020	-0,105
-720,050	-199,229	-0,100	-0,000
-719,035	-143,074	-0,156	-0,011
-718,021	-122,405	-0,117	0,014
-717,006	431,434	-0,100	-0,162
-715,991	-77,861	-0,079	0,020
-714,977	-200,000	0,000	-0,022
-713,962	800,000	-0,021	-0,044
-712,948	787,386	0,020	0,041
-711,933	670,965	0,071	-0,138
-710,918	-83,447	-0,091	0,021
-709,904	-200,000	-0,021	-0,135
-708,889	-200,000	0,006	-0,031
-707,875	-200,000	-0,004	-0,134
-706,860	800,000	0,042	-0,109
-705,845	765,151	0,022	0,044
-704,831	18,239	-0,091	-0,054
-703,816	800,000	0,013	-0,030
-702,802	-153,991	0,051	0,003
-701,787	-22,889	-0,069	-0,031
-700,772	-103,002	0,060	-0,011
-699,758	211,733	0,053	-0,062
-698,743	-200,000	-0,003	0,060
-697,729	800,000	-0,037	0,079
-696,714	113,929	0,106	-0,096
-695,699	211,191	0,100	-0,117
-694,685	-200,000	0,009	-0,048
-693,670	5,728	0,020	0,011
-692,656	-200,000	0,001	-0,102
-691,641	-200,000	-0,003	0,087
-690,627	363,105	-0,050	-0,075
-689,612	99,579	0,010	0,008
-688,597	350,655	0,034	0,050
-687,583	58,459	-0,046	-0,033
-686,568	-200,000	0,016	-0,063
-685,554	-182,901	-0,112	0,001
-684,539	-200,000	0,010	0,065
-683,524	-200,000	0,003	-0,028
-682,510	-39,723	-0,119	-0,046
-681,495	-200,000	-0,005	-0,120
-680,481	138,881	0,059	-0,058
-679,466	-33,547	-0,079	-0,032
-678,451	800,000	0,058	-0,172
-677,437	309,427	-0,102	-0,142
-676,422	-80,130	0,047	-0,012
-675,408	-200,000	0,009	0,115
-674,393	-200,000	0,004	-0,132
-673,378	-46,535	0,070	-0,025
-672,364	648,582	-0,041	0,079
-671,349	471,990	0,030	-0,050
-670,335	57,923	0,036	-0,027
-669,320	222,173	0,043	-0,051
-668,305	800,000	-0,031	-0,077
-667,291	-200,000	-0,002	-0,036
-666,276	778,916	0,056	0,115
-665,262	677,815	-0,041	-0,080
-664,247	-19,239	-0,061	-0,028
-663,232	-99,077	-0,015	-0,003
-662,218	71,938	-0,075	-0,058
-661,203	-182,239	-0,092	-0,001
-660,189	338,252	-0,023	0,033
-659,174	-147,694	-0,115	0,007
-658,159	88,933	0,103	-0,085
-657,145	85,466	-0,024	-0,019
-656,130	29,982	-0,025	0,015
-655,116	235,307	-0,075	0,092
-654,101	312,127	-0,020	-0,027
-653,086	83,670	-0,140	0,113
-652,072	309,326	-0,053	-0,074
-651,057	89,525	0,034	0,028
-650,043	351,215	-0,094	0,139
-649,028	-89,035	-0,072	-0,016
-648,014	-200,000	0,031	-0,123
-646,999	800,000	0,030	-0,068
-645,984	-200,000	-0,023	-0,100
-644,970	800,000	0,041	-0,085
-643,955	-200,000	-0,003	0,064
-642,941	26,473	-0,065	0,040
-641,926	-69,479	0,194	0,055
-640,911	63,316	-0,029	0,022
-639,897	-76,844	-0,035	0,009
-638,882	-87,386	-0,108	-0,024
-637,868	-163,149	-0,075	0,003
-636,853	38,107	0,040	-0,027
-635,838	800,000	-0,019	0,040
-634,824	262,934	-0,011	-0,014
-633,809	400,285	-0,029	-0,045
-632,795	109,937	0,113	0,100
-631,780	-135,692	0,164	-0,014
-630,765	300,531	-0,040	-0,055
-629,751	-200,000	-0,063	-0,227
-628,736	-104,785	-0,105	-0,018
-627,722	800,000	0,055	-0,177
-626,707	800,000	0,046	-0,134
-625,692	182,858	-0,106	0,116
-624,678	800,000	-0,012	-0,032
-623,663	800,000	0,026	0,056
-622,649	-33,237	-0,135	-0,055
-621,634	800,000	0,050	-0,127
-620,619	-200,000	-0,033	-0,255
-619,605	556,416	-0,005	-0,009
-618,590	-120,437	-0,045	0,006
-617,576	741,470	0,033	-0,067
-616,561	-131,466	-0,091	-0,009
-615,546	-200,000	-0,021	0,096
-614,532	-16,310	-0,171	-0,080
-613,517	-44,577	0,027	0,010
-612,503	-200,000	-0,024	-0,089
-611,488	103,077	-0,037	0,033
-610,474	-41,477	0,158	-0,060
-609,459	213,142	-0,039	-0,046
-608,444	117,112	-0,083	-0,076
-607,430	74,022	0,128	-0,100
-606,415	-200,000	-0,029	-0,177
-605,401	-109,214	0,165	-0,026
-604,386	-128,824	0,089	0,009
-603,371	-200,000	-0,008	-0,067
-602,357	-40,552	-0,078	-0,030
-601,342	345,985	0,028	0,040
-600,328	469,257	-0,107	-0,179
-599,313	-200,000	-0,020	-0,138
-598,298	-18,791	-0,070	-0,032
-597,284	-200,000	-0,003	0,025
-596,269	-200,000	0,010	0,046
-595,255	128,063	-0,064	-0,060
-594,240	283,439	-0,058	-0,077
-593,225	505,727	-0,027	-0,047
-592,211	-200,000	0,002	-0,100
-591,196	-200,000	-0,023	0,092
-590,182	-200,000	0,024	-0,101
-589,167	486,881	0,032	-0,054
-588,152	-62,821	0,062	-0,019
-587,138	23,761	0,066	0,040
-586,123	790,578	-0,032	-0,066
-585,109	34,873	0,104	-0,067
-584,094	-108,841	0,095	0,015
-583,079	-200,000	-0,005	-0,050
-582,065	800,000	-0,018	0,055
-581,050	800,000	-0,025	0,051
-580,036	210,677	0,032	0,038
-579,021	294,592	0,040	-0,055
-578,006	283,272	-0,071	-0,094
-576,992	42,308	0,061	-0,041
-575,977	640,532	0,035	-0,066
-574,963	-200,000	-0,010	0,095
-573,948	125,806	0,110	0,103
-572,934	-200,000	-0,008	-0,053
-571,919	173,523	-0,090	-0,096
-570,904	298,525	-0,048	-0,065
-569,890	-200,000	-0,021	0,142
-568,875	76,226	-0,116	0,091
-567,861	91,783	0,014	-0,012
-566,846	-200,000	-0,010	-0,042
-565,831	-200,000	-0,005	0,024
-564,817	-90,209	-0,100	-0,021
-563,802	105,306	0,097	0,085
-562,788	260,115	-0,063	-0,081
-561,773	202,724	-0,104	-0,119
-560,758	32,458	-0,137	0,087
-559,744	-24,260	0,066	-0,029
-558,729	-192,760	-0,025	-0,000
-557,715	94,263	-0,092	-0,077
-556,700	-9,126	-0,056	-0,028
-555,685	-200,000	-0,019	0,157
-554,671	-200,000	0,001	-0,045
-553,656	-18,888	0,046	0,021
-552,642	-69,896	0,115	-0,032
-551,627	-200,000	-0,148	-0,000
-550,612	-200,000	0,037	0,154
-549,598	395,527	0,050	0,078
-548,583	800,000	0,057	-0,162
-547,569	274,747	-0,040	0,053
-546,554	42,994	0,069	-0,046
-545,539	-71,810	-0,087	0,024
-544,525	-200,000	-0,015	0,113
-543,510	-29,774	-0,135	-0,057
-542,496	112,153	0,115	0,103
-541,481	800,000	0,020	0,041
-540,466	189,637	0,062	0,069
-539,452	-200,000	0,036	0,128
-538,437	-0,169	-0,057	0,030
-537,423	269,566	0,021	0,027
-536,408	9,281	0,102	-0,057
-535,393	-135,810	-0,101	0,009
-534,379	-116,347	-0,121	0,016
-533,364	-94,176	-0,057	-0,012
-532,350	-200,000	0,031	0,161
-531,335	800,000	-0,026	-0,075
-530,321	800,000	0,052	0,112
-529,306	-140,687	-0,084	-0,006
-528,291	-93,298	-0,093	-0,019
-527,277	307,836	0,042	0,058
-526,262	-200,000	-0,007	0,031
-525,248	-55,071	0,103	-0,034
-524,233	-200,000	0,000	-0,011
-523,218	-125,650	0,068	0,008
-522,204	-200,000	-0,009	-0,071
-521,189	162,805	-0,033	-0,034
-520,175	-200,000	0,018	0,101
-519,160	800,000	0,035	-0,103
-518,145	800,000	-0,046	0,096
-517,131	30,066	0,040	-0,025
-516,116	53,378	-0,022	-0,015
-515,102	-200,000	-0,003	-0,053
-514,087	-200,000	-0,002	-0,027
-513,072	551,683	0,054	0,097
-512,058	-141,445	0,134	-0,010
-511,043	294,971	0,052	0,070
-510,029	-41,304	0,027	-0,010
-509,014	101,174	0,099	0,085
-507,999	800,000	0,043	0,094
-506,985	258,181	0,097	-0,123
-505,970	331,440	-0,011	-0,015
-504,956	800,000	0,013	-0,041
-503,941	-200,000	0,003	-0,020
-502,926	85,428	-0,129	0,104
-501,912	219,684	-0,001	0,002
-500,897	-152,523	-0,078	-0,004
-499,883	12,625	-0,068	-0,039
-498,868	-37,428	-0,054	0,021
-497,853	-55,530	-0,045	-0,015
-496,839	-127,072	-0,034	0,004
-495,824	281,807	0,058	-0,076
-494,810	31,951	0,046	0,029
-493,795	-200,000	0,002	-0,068
-492,781	800,000	-0,045	-0,143
-491,766	295,206	-0,053	-0,071
-490,751	-29,383	-0,071	0,030
-489,737	111,758	0,072	0,064
-488,722	-200,000	0,021	0,170
-487,708	49,720	0,053	0,037
-486,693	424,681	0,028	0,045
-485,678	-92,040	0,110	0,023
-484,664	165,043	-0,115	-0,120
-483,649	71,992	-0,071	-0,055
-482,635	558,782	-0,100	-0,180
-481,620	-200,000	0,014	0,125
-480,605	-200,000	-0,007	-0,046
-479,591	244,769	0,030	0,037
-478,576	-92,033	-0,077	-0,016
-477,562	-125,322	0,054	-0,006
-476,547	800,000	0,047	-0,117
-475,532	-65,214	-0,091	-0,027
-474,518	800,000	0,062	0,185
-473,503	166,340	0,091	0,095
-472,489	800,000	0,035	0,083
-471,474	-200,000	0,023	0,136
-470,459	800,000	0,025	-0,055
-469,445	54,718	-0,127	-0,090
-468,430	-200,000	0,032	-0,166
-467,416	-0,571	-0,080	0,042
-466,401	-113,284	0,110	-0,016
-465,386	-200,000	-0,007	-0,047
-464,372	800,000	0,042	0,106
-463,357	-200,000	0,015	0,105
-462,343	-150,181	-0,168	0,009
-461,328	-200,000	-0,014	0,073
-460,313	134,064	0,081	0,077
-459,299	800,000	-0,032	0,074
-458,284	-200,000	-0,009	-0,070
-457,270	-200,000	-0,000	-0,185
-456,255	248,345	0,046	-0,058
-455,241	291,349	0,061	0,082
-454,226	436,929	0,061	0,099
-453,211	800,000	-0,024	-0,059
-452,197	10,861	0,056	0,032
-451,182	-200,000	-0,020	0,147
-450,168	51,291	0,114	0,079
-449,153	303,755	0,058	-0,079
-448,138	142,639	-0,070	-0,069
-447,124	6,680	0,061	0,033
-446,109	-117,758	-0,088	0,011
-445,095	249,502	0,008	-0,010
-444,080	393,782	0,075	-0,116
-443,065	55,639	-0,082	-0,058
-442,051	223,148	-0,059	0,070
-441,036	-117,449	-0,100	-0,013
-440,022	52,306	0,116	-0,082
-439,007	-200,000	-0,011	0,067
-437,992	800,000	0,035	0,084
-436,978	-146,650	-0,018	0,001
-435,963	635,083	0,099	0,185
-434,949	-51,652	0,025	-0,008
-433,934	-200,000	0,013	-0,127
-432,919	-200,000	-0,025	0,097
-431,905	-48,255	0,025	-0,009
-430,890	173,327	0,090	0,096
-429,876	232,432	0,070	0,085
-428,861	-53,077	-0,017	0,006
-427,846	-200,000	-0,004	-0,019
-426,832	-103,671	0,034	0,006
-425,817	58,781	-0,089	-0,064
-424,803	800,000	0,030	0,080
-423,788	453,839	0,031	-0,050
-422,773	800,000	0,010	0,022
-421,759	-12,569	0,028	0,013
-420,744	-200,000	0,018	0,128
-419,730	-200,000	0,004	-0,078
-418,715	800,000	0,052	-0,146
-417,701	800,000	0,042	-0,133
-416,686	25,405	0,178	-0,109
-415,671	-200,000	-0,029	-0,116
-414,657	-45,534	-0,024	0,009
-413,642	800,000	-0,031	0,071
-412,628	-56,052	-0,148	-0,048
-411,613	800,000	-0,043	-0,094
-410,598	-60,897	-0,044	-0,014
-409,584	639,099	0,033	0,061
-408,569	570,261	-0,033	0,059
-407,555	-91,950	0,171	0,035
-406,540	800,000	0,017	0,046
-405,525	536,878	0,030	-0,053
-404,511	-200,000	0,001	-0,013
-403,496	-22,303	-0,084	0,037
-402,482	-101,886	-0,044	-0,008
-401,467	-92,927	0,125	0,025
-400,452	-39,043	0,090	-0,035
-399,438	520,158	0,041	0,070
-398,423	-35,439	0,147	0,058
-397,409	258,990	-0,076	-0,097
-396,394	-200,000	0,012	-0,054
-395,379	800,000	-0,072	0,204
-394,365	800,000	0,043	0,103
-393,350	-200,000	0,007	0,083
-392,336	-140,273	0,033	-0,003
-391,321	294,697	-0,016	0,022
-390,306	100,043	-0,077	-0,066
-389,292	166,006	0,093	-0,096
-388,277	-24,776	-0,049	0,021
-387,263	800,000	0,072	0,161
-386,248	318,430	0,079	-0,110
-385,233	-200,000	0,015	0,154
-384,219	-49,516	0,084	-0,029
-383,204	222,342	0,048	0,057
-382,190	741,243	-0,057	-0,114
-381,175	590,089	0,058	-0,106
-380,160	-0,440	0,096	-0,050
-379,146	-200,000	-0,003	0,045
-378,131	109,522	0,033	-0,029
-377,117	180,592	-0,058	-0,062
-376,102	188,028	0,084	0,092
-375,088	-22,130	0,054	0,024
-374,073	800,000	-0,042	-0,095
-373,058	-2,249	-0,028	-0,014
-372,044	48,273	-0,074	0,051
-371,029	360,196	0,066	0,098
-370,015	86,934	-0,024	0,020
-369,000	-30,278	-0,048	-0,020
-367,985	-86,445	0,139	0,031
-366,971	800,000	0,037	-0,102
-365,956	-200,000	0,001	-0,093
-364,942	358,859	0,058	0,085
-363,927	-200,000	-0,015	-0,083
-362,912	282,038	-0,101	-0,134
-361,898	-79,630	-0,090	0,022
-360,883	-200,000	-0,002	-0,141
-359,869	-68,484	-0,191	-0,054
-358,854	800,000	-0,036	0,102
-357,839	-52,504	0,101	0,034
-356,825	353,287	0,042	-0,061
-355,810	461,051	-0,029	0,048
-354,796	37,945	0,076	-0,050
-353,781	-30,387	-0,068	0,028
-352,766	-149,952	-0,110	-0,006
-351,752	228,329	0,141	0,169
-350,737	372,541	-0,092	0,137
-349,723	-149,768	0,138	0,008
-348,708	217,618	-0,083	0,098
-347,693	-67,489	-0,060	0,017
-346,679	-200,000	0,101	-0,000
-345,664	546,886	-0,043	-0,076
-344,650	511,974	-0,082	-0,141
-343,635	247,704	-0,027	-0,033
-342,620	-44,862	0,055	-0,020
-341,606	293,611	-0,124	0,166
-340,591	291,620	-0,073	0,098
-339,577	360,871	-0,042	0,062
-338,562	-200,000	-0,014	-0,095
-337,548	-49,952	0,070	-0,024
-336,533	-200,000	-0,005	0,120
-335,518	-108,581	0,089	0,014
-334,504	192,842	-0,088	0,098
-333,489	-101,354	-0,101	0,018
-332,475	-36,409	-0,162	-0,064
-331,460	80,498	0,078	-0,061
-330,445	627,087	0,040	0,074
-329,431	618,481	-0,021	-0,038
-328,416	-95,007	0,127	0,025
-327,402	301,595	0,057	-0,078
-326,387	-182,034	-0,052	0,001
-325,372	800,000	-0,026	0,070
-324,358	-200,000	-0,029	0,134
-323,343	-200,000	-0,004	0,022
-322,329	-63,666	0,096	0,029
-321,314	-200,000	0,005	0,021
-320,299	-159,754	0,157	-0,006
-319,285	388,548	0,095	-0,145
-318,270	-46,568	-0,077	-0,027
-317,256	-200,000	0,018	-0,068
-316,241	20,956	-0,100	-0,059
-315,226	-85,273	-0,053	0,012
-314,212	126,699	0,054	0,050
-313,197	-73,091	-0,160	0,043
-312,183	800,000	0,030	0,093
-311,168	-34,122	-0,059	0,024
-310,153	-19,294	0,035	-0,016
-309,139	-7,144	-0,095	0,047
-308,124	413,851	0,060	-0,094
-307,110	375,803	-0,079	-0,118
-306,095	-200,000	-0,005	0,052
-305,080	-200,000	-0,013	0,117
-304,066	-200,000	-0,003	0,085
-303,051	-200,000	-0,026	-0,133
-302,037	450,092	0,027	-0,044
-301,022	736,462	0,009	-0,018
-300,008	168,645	-0,030	0,031
-298,993	-33,905	0,041	0,016
-297,978	323,460	0,044	-0,061
-296,964	-200,000	0,007	0,030
-295,949	-20,687	0,128	-0,057
-294,935	57,578	-0,060	-0,043
-293,920	192,898	-0,049	-0,054
-292,905	18,579	0,018	-0,011
-291,891	-86,141	0,071	-0,016
-290,876	179,344	-0,032	0,034
-289,862	733,259	-0,029	-0,057
-288,847	-166,583	-0,186	-0,006
-287,832	800,000	-0,038	0,087
-286,818	800,000	-0,048	-0,156
-285,803	-200,000	-0,040	-0,139
-284,789	308,887	0,054	0,074
-283,774	282,690	0,077	-0,101
-282,759	-200,000	-0,034	0,132
-281,745	-200,000	-0,008	-0,028
-280,730	-34,086	-0,056	-0,022
-279,716	139,802	0,026	-0,025
-278,701	81,800	0,067	-0,053
-277,686	319,091	-0,055	0,076
-276,672	-200,000	-0,002	0,099
-275,657	-200,000	0,007	0,118
-274,643	341,366	-0,106	-0,152
-273,628	-200,000	-0,002	0,037
-272,613	454,418	-0,064	-0,104
-271,599	497,143	-0,019	0,033
-270,584	-40,101	-0,071	0,027
-269,570	65,810	0,058	-0,043
-268,555	-88,146	-0,057	-0,012
-267,540	-23,148	-0,071	0,031
-266,526	800,000	0,018	0,043
-265,511	-200,000	0,007	0,100
-264,497	-200,000	-0,027	-0,131
-263,482	158,812	0,080	-0,081
-262,467	800,000	0,049	0,131
-261,453	1,966	0,084	0,044
-260,438	800,000	-0,042	0,112
-259,424	150,107	-0,053	0,053
-258,409	209,462	-0,096	-0,110
-257,395	121,302	-0,028	-0,026
-256,380	-200,000	0,021	0,076
-255,365	-200,000	-0,018	0,140
-254,351	651,775	-0,061	-0,115
-253,336	197,710	-0,052	-0,058
-252,322	242,030	-0,099	-0,121
-251,307	351,260	0,055	-0,080
-250,292	354,279	0,077	-0,112
-249,278	800,000	0,014	0,041
-248,263	25,819	0,132	-0,080
-247,249	-200,000	0,001	0,079
-246,234	48,813	0,131	0,090
-245,219	269,445	-0,064	-0,083
-244,205	-200,000	0,023	0,101
-243,190	93,473	-0,139	0,115
-242,176	85,246	0,056	-0,045
-241,161	-48,117	0,064	-0,023
-240,146	-104,855	-0,078	-0,013
-239,132	318,831	-0,031	0,043
-238,117	-4,930	0,129	-0,065
-237,103	44,854	-0,150	-0,100
-236,088	507,448	0,046	0,078
-235,073	-200,000	0,036	0,150
-234,059	154,663	-0,083	0,084
-233,044	-200,000	-0,026	0,135
-232,030	298,887	0,091	-0,123
-231,015	207,492	-0,049	0,056
-230,000	-142,911	-0,106	0,007
-228,986	-62,385	0,080	0,024
-227,971	-112,275	0,089	-0,013
-226,957	-200,000	0,044	-0,191
-225,942	413,869	-0,047	-0,073
-224,927	635,733	-0,025	-0,047
-223,913	-113,052	-0,051	-0,007
-222,898	170,405	-0,108	-0,113
-221,884	-200,000	-0,006	-0,099
-220,869	-132,128	0,144	-0,013
-219,855	66,173	0,240	0,178
-218,840	205,772	0,015	0,017
-217,825	-200,000	0,011	0,061
-216,811	-72,657	-0,118	0,032
-215,796	426,625	0,056	0,088
-214,782	-6,409	-0,029	0,014
-213,767	-200,000	0,032	0,135
-212,752	183,094	0,099	0,107
-211,738	-104,802	-0,143	-0,024
-210,723	35,662	0,119	0,076
-209,709	-63,640	0,248	0,074
-208,694	-85,569	-0,062	0,014
-207,679	-79,275	-0,060	0,015
-206,665	-31,123	-0,086	0,035
-205,650	-200,000	0,001	-0,026
-204,636	-200,000	0,003	0,053
-203,621	-200,000	0,014	0,081
-202,606	-168,055	0,041	-0,001
-201,592	-92,897	-0,079	-0,016
-200,577	-200,000	0,015	-0,049
-199,563	-173,532	-0,123	-0,003
-198,548	-25,358	-0,018	0,008
-197,533	-39,384	0,043	0,016
-196,519	23,328	-0,134	0,080
-195,504	800,000	-0,013	-0,037
-194,490	116,137	-0,034	-0,030
-193,475	-200,000	-0,018	-0,074
-192,460	46,747	-0,064	0,043
-191,446	800,000	-0,034	0,079
-190,431	516,172	0,090	0,154
-189,417	-200,000	-0,050	0,191
-188,402	167,391	0,086	0,089
-187,387	-200,000	0,008	0,097
-186,373	244,701	0,061	-0,075
-185,358	207,617	-0,033	0,038
-184,344	-200,000	-0,000	0,152
-183,329	309,487	-0,028	-0,038
-182,315	-164,688	0,042	0,001
-181,300	2,470	-0,117	0,062
-180,285	-155,547	-0,013	-0,001
-179,271	-200,000	-0,012	-0,092
-178,256	-8,506	-0,037	0,018
-177,242	800,000	-0,043	0,133
-176,227	392,970	0,036	-0,054
-175,212	206,379	-0,030	0,034
-174,198	-200,000	-0,020	-0,077
-173,183	-39,948	0,119	0,045
-172,169	163,869	0,042	-0,043
-171,154	-200,000	0,040	-0,163
-170,139	-200,000	0,018	0,070
-169,125	-200,000	0,016	-0,177
-168,110	-86,178	0,209	0,047
-167,096	39,463	-0,074	0,048
-166,081	-200,000	0,005	0,053
-165,066	-102,389	-0,091	-0,016
-164,052	800,000	-0,021	0,052
-163,037	-200,000	0,032	0,124
-162,023	-200,000	0,006	0,095
-161,008	800,000	-0,006	0,019
-159,993	8,065	0,140	0,076
-158,979	313,467	0,044	-0,060
-157,964	-200,000	-0,020	-0,088
-156,950	219,807	-0,014	-0,017
-155,935	-32,204	0,031	0,012
-154,920	-200,000	0,003	-0,030
-153,906	-200,000	0,005	0,025
-152,891	-38,487	-0,041	0,016
-151,877	-127,598	-0,175	0,018
-150,862	756,154	0,034	-0,067
-149,847	-70,864	-0,208	-0,057
-148,833	800,000	0,027	0,056
-147,818	119,931	0,093	0,084
-146,804	800,000	0,018	0,044
-145,789	172,618	-0,045	0,047
-144,775	2,509	0,055	-0,029
-143,760	-200,000	-0,007	-0,208
-142,745	155,762	-0,068	-0,068
-141,731	-66,540	-0,035	-0,010
-140,716	-53,343	0,143	0,047
-139,702	-200,000	0,005	0,107
-138,687	-33,466	-0,064	-0,026
-137,672	144,575	-0,026	0,025
-136,658	155,617	-0,014	0,014
-135,643	17,144	0,021	-0,012
-134,629	-9,055	-0,082	-0,040
-133,614	-200,000	-0,026	-0,138
-132,599	547,407	0,052	-0,090
-131,585	262,642	-0,011	-0,014
-130,570	554,816	0,032	-0,056
-129,556	800,000	0,015	-0,034
-128,541	-200,000	0,010	-0,040
-127,526	90,071	0,095	0,077
-126,512	248,135	-0,053	-0,065
-125,497	-200,000	0,037	0,125
-124,483	-200,000	0,014	-0,143
-123,468	437,918	-0,031	0,049
-122,453	-200,000	-0,008	0,086
-121,439	618,273	0,092	0,168
-120,424	-51,059	-0,274	-0,093
-119,410	-23,139	-0,093	0,041
-118,395	20,840	-0,124	0,073
-117,380	-200,000	0,007	0,080
-116,366	27,202	-0,075	-0,045
-115,351	80,183	0,132	-0,103
-114,337	-91,155	-0,162	-0,033
-113,322	-7,617	0,087	0,042
-112,307	-92,147	0,051	0,010
-111,293	642,464	0,032	-0,060
-110,278	795,423	0,015	-0,030
-109,264	22,464	-0,169	0,100
-108,249	-44,672	0,044	-0,016
-107,234	344,777	-0,045	0,065
-106,220	164,322	0,028	0,029
-105,205	800,000	0,033	0,097
-104,191	-200,000	0,001	-0,118
-103,176	216,137	0,106	0,122
-102,162	-6,582	-0,033	-0,016
-101,147	-104,855	-0,036	-0,006
-100,132	-200,000	0,018	0,101
-99,118	-200,000	0,014	-0,127
-98,103	-41,651	0,078	0,029
-97,089	-106,127	-0,159	0,026
-96,074	-200,000	-0,000	0,106
-95,059	800,000	0,034	0,100
-94,045	-54,867	-0,110	0,036
-93,030	800,000	-0,046	0,098
-92,016	-200,000	-0,010	-0,068
-91,001	-200,000	-0,002	0,059
-89,986	-138,744	0,056	0,004
-88,972	481,985	-0,070	-0,115
-87,957	763,708	-0,034	-0,067
-86,943	800,000	0,072	0,154
-85,928	-146,678	0,071	0,004
-84,913	-200,000	-0,003	-0,124
-83,899	69,582	0,081	-0,060
-82,884	-200,000	-0,008	0,142
-81,870	800,000	0,040	0,098
-80,855	316,790	0,024	0,033
-79,840	489,044	0,040	0,066
-78,826	-119,460	-0,072	0,009
-77,811	800,000	-0,024	0,071
-76,797	-200,000	0,045	0,158
-75,782	-200,000	-0,013	-0,044
-74,767	-200,000	0,024	0,083
-73,753	260,338	-0,044	0,056
-72,738	244,984	0,020	-0,025
-71,724	250,815	0,068	-0,085
-70,709	-200,000	0,000	0,047
-69,694	800,000	0,026	-0,056
-68,680	-103,264	0,081	0,014
-67,665	-171,303	0,125	0,003
-66,651	800,000	-0,027	0,084
-65,636	-16,691	-0,159	0,073
-64,622	-200,000	0,014	-0,163
-63,607	-200,000	-0,010	0,105
-62,592	-200,000	0,002	-0,035
-61,578	-88,759	-0,113	0,024
-60,563	-34,458	0,045	0,018
-59,549	-111,291	-0,128	0,019
-58,534	-133,302	-1,373	-0,124
-57,519	588,558	-0,816	-1,465
-56,505	-200,000	-0,882	-4,424
-55,490	20,059	0,721	-0,421
-54,476	800,000	4,987	11,632
-53,461	-200,000	13,961	254,603
-52,446	-200,000	693,822	2263,315
-51,432	599,901	1624,080	2936,615
-50,417	117,728	1633,205	1458,629
-49,403	73,518	1287,425	976,960
-48,388	37,364	1023,706	656,899
-47,373	23,872	982,002	585,738
-46,359	23,170	971,275	577,014
-45,344	22,061	967,135	570,908
-44,330	22,111	965,422	570,038
-43,315	21,926	964,048	568,602
-42,300	21,909	963,217	568,032
-41,286	21,862	962,443	567,401
-40,271	21,919	961,099	566,771
-39,257	21,840	960,513	566,148
-38,242	21,825	959,376	565,405
-37,227	21,888	958,614	565,139
-36,213	21,897	957,560	564,524
-35,198	21,875	956,676	563,909
-34,184	21,874	956,258	563,637
-33,169	21,858	955,248	562,968
-32,154	21,890	954,295	562,488
-31,140	21,934	953,334	562,040
-30,125	21,961	952,633	561,690
-29,111	21,905	951,746	560,964
-28,096	21,975	951,052	560,760
-27,082	21,897	950,524	560,174
-26,067	21,910	949,741	559,732
-25,052	21,904	948,982	559,245
-24,038	21,914	948,142	558,760
-23,023	21,863	947,552	558,225
-22,009	21,953	946,941	558,131
-20,994	21,945	946,416	557,774
-19,979	21,969	945,742	557,432
-18,965	21,918	945,114	556,877
-17,950	21,940	944,383	556,495
-16,936	21,867	943,782	555,887
-15,921	21,779	943,238	555,264
-14,906	21,787	942,440	554,796
-13,892	21,881	941,512	554,528
-12,877	21,837	941,166	554,160
-11,863	21,791	940,383	553,531
-10,848	21,763	940,068	553,236
-9,833	21,839	939,593	553,174
-8,819	21,865	938,797	552,766
-7,804	21,858	938,168	552,354
-6,790	21,769	937,690	551,767
-5,775	21,841	936,997	551,564
-4,760	21,793	936,485	551,091
-3,746	21,816	935,741	550,704
-2,731	21,652	935,228	549,863
-1,717	21,560	934,500	549,120
-0,702	21,621	933,618	548,774
0,313	21,429	933,249	548,781
1,327	23,841	930,863	554,912
2,342	31,314	809,129	502,616
3,356	26,146	509,808	307,815
4,371	1,942	374,892	195,443
5,386	-1,095	357,778	182,764
6,400	-2,165	351,923	178,459
7,415	-2,471	349,323	176,757
8,429	-2,504	347,884	175,974
9,444	-2,471	346,943	175,520
10,459	-2,371	346,357	175,328
11,473	-2,348	345,586	174,950
12,488	-2,437	344,964	174,513
13,502	-2,604	344,492	174,061
14,517	-2,355	343,999	174,091
15,531	-2,465	343,657	173,773
16,546	-2,322	343,034	173,611
17,561	-2,404	342,779	173,370
18,575	-2,164	342,119	173,303
19,590	-2,206	341,904	173,129
20,604	-2,150	341,621	173,037
21,619	-2,189	341,099	172,711
22,634	-2,322	340,848	172,412
23,648	-2,291	340,485	172,250
24,663	-2,335	340,153	172,014
25,677	-2,138	339,863	172,084
26,692	-2,226	339,553	171,808
27,707	-2,240	339,291	171,644
28,721	-2,356	339,040	171,366
29,736	-2,465	338,737	171,070
30,750	-2,377	338,395	170,985
31,765	-2,281	338,100	170,933
32,780	-2,202	337,795	170,855
33,794	-2,265	337,527	170,631
34,809	-2,356	337,174	170,331
35,823	-2,375	336,920	170,166
36,838	-2,306	336,592	170,066
37,853	-2,268	336,356	169,974
38,867	-2,354	336,186	169,774
39,882	-2,302	335,849	169,648
40,896	-2,302	335,543	169,479
41,911	-2,189	335,256	169,450
42,926	-2,343	335,024	169,139
43,940	-2,282	334,732	169,048
44,955	-2,272	334,500	168,927
45,969	-2,342	334,292	168,726
46,984	-2,336	333,949	168,545
47,999	-2,382	333,882	168,444
49,013	-2,253	333,540	168,404
50,028	-2,241	333,108	168,184
51,042	-2,266	332,715	167,942
52,057	-2,567	332,587	167,518
53,071	-2,547	332,494	167,480
54,086	-2,353	332,181	167,528
55,101	-2,173	331,957	167,605
56,115	-2,425	331,673	167,160
57,130	-2,303	331,266	167,079
58,144	-2,359	331,110	166,921
59,159	-2,281	330,705	166,791
60,174	-2,383	330,582	166,599
61,188	-2,415	330,304	166,408
62,203	-2,256	329,968	166,403
63,217	-2,165	329,708	166,360
64,232	-2,307	329,688	166,175
65,247	-2,340	329,209	165,882
66,261	-2,465	328,999	165,620
67,276	-2,177	328,704	165,781
68,290	-2,426	328,572	165,419
69,305	-2,359	328,271	165,329
70,320	-2,229	328,112	165,380
71,334	-2,175	327,744	165,240
72,349	-2,274	327,436	164,959
73,363	-2,204	327,211	164,909
74,378	-2,257	326,942	164,700
75,393	-2,111	326,575	164,663
76,407	-2,207	326,488	164,497
77,422	-2,205	326,276	164,379
78,436	-2,292	325,869	164,062
79,451	-2,214	325,614	164,006
80,466	-2,193	325,533	163,974
81,480	-2,233	325,197	163,745
82,495	-2,219	324,938	163,616
83,509	-2,306	324,852	163,461
84,524	-2,286	324,723	163,404
85,539	-2,299	324,252	163,138
86,553	-2,349	324,083	162,983
87,568	-2,136	323,769	163,046
88,582	-2,092	323,458	162,924
89,597	-2,393	323,333	162,513
90,611	-2,375	323,185	162,445
91,626	-2,260	322,885	162,406
92,641	-2,326	322,686	162,219
93,655	-2,241	322,418	162,163
94,670	-2,214	322,177	162,058
95,684	-2,276	321,949	161,861
96,699	-2,106	321,659	161,886
97,714	-2,404	321,513	161,471
98,728	-2,196	321,198	161,527
99,743	-2,307	321,142	161,362
100,757	-2,263	320,743	161,196
101,772	-2,326	320,493	160,988
102,787	-2,247	320,294	160,959
103,801	-2,272	320,047	160,793
104,816	-2,383	319,982	160,625
105,830	-2,178	319,634	160,660
106,845	-2,213	319,333	160,456
107,860	-2,302	319,151	160,254
108,874	-2,183	318,927	160,256
109,889	-2,314	318,739	160,004
110,903	-2,134	318,342	159,987
111,918	-2,242	318,193	159,780
112,933	-2,251	317,940	159,630
113,947	-2,313	317,776	159,465
114,962	-2,266	317,622	159,425
115,976	-2,167	317,306	159,359
116,991	-2,266	317,176	159,173
118,006	-2,117	316,979	159,221
119,020	-2,114	316,603	159,021
120,035	-2,201	316,610	158,916
121,049	-2,207	316,252	158,717
122,064	-2,317	316,129	158,521
123,079	-2,323	315,769	158,320
124,093	-2,332	315,647	158,235
125,108	-2,306	315,290	158,070
126,122	-2,281	315,139	158,007
127,137	-2,263	314,883	157,884
128,151	-2,292	314,666	157,730
129,166	-2,211	314,484	157,712
130,181	-2,333	314,164	157,406
131,195	-2,281	313,933	157,333
132,210	-2,351	313,761	157,157
133,224	-2,348	313,544	157,038
134,239	-2,368	313,267	156,864
135,254	-2,284	313,099	156,855
136,268	-2,260	312,740	156,687
137,283	-2,408	312,685	156,488
138,297	-2,220	312,380	156,521
139,312	-2,414	312,157	156,190
140,327	-2,308	311,821	156,119
141,341	-2,226	311,649	156,107
142,356	-2,283	311,561	155,988
143,370	-2,310	311,316	155,822
144,385	-2,281	311,170	155,767
145,400	-2,086	310,875	155,811
146,414	-2,076	310,567	155,654
147,429	-2,297	310,555	155,401
148,443	-2,157	310,342	155,428
149,458	-2,173	310,037	155,244
150,473	-2,195	309,762	155,069
151,487	-2,186	309,548	154,958
152,502	-2,119	309,244	154,862
153,516	-2,132	309,099	154,763
154,531	-2,213	308,813	154,521
155,546	-2,213	308,768	154,484
156,560	-2,187	308,500	154,364
157,575	-2,259	308,234	154,141
158,589	-2,277	308,145	154,064
159,604	-2,095	307,790	154,064
160,619	-2,188	307,591	153,853
161,633	-2,278	307,360	153,629
162,648	-2,186	307,265	153,664
163,662	-2,145	307,149	153,635
164,677	-1,950	306,606	153,554
165,692	-2,207	306,702	153,320
166,706	-2,163	306,482	153,242
167,721	-2,253	306,091	152,939
168,735	-2,006	305,917	153,095
169,750	-2,210	305,846	152,835
170,764	-2,280	305,788	152,719
171,779	-2,132	305,547	152,739
172,794	-2,283	305,231	152,410
173,808	-2,311	305,111	152,308
174,823	-2,205	304,789	152,244
175,837	-2,220	304,755	152,197
176,852	-2,384	304,493	151,883
177,867	-2,090	304,182	152,018
178,881	-2,170	303,969	151,815
179,896	-2,246	303,848	151,663
180,910	-2,012	303,502	151,718
181,925	-2,147	303,380	151,505
182,940	-2,316	303,314	151,284
183,954	-2,173	303,002	151,262
184,969	-2,132	302,785	151,183
185,983	-2,087	302,652	151,149
186,998	-2,030	302,307	151,022
188,013	-2,044	302,227	150,954
189,027	-2,201	301,899	150,616
190,042	-2,118	301,697	150,586
191,056	-2,240	301,532	150,366
192,071	-2,279	301,237	150,165
193,086	-2,369	301,137	150,010
194,100	-2,188	300,997	150,111
195,115	-2,192	300,834	150,013
196,129	-2,125	300,379	149,842
197,144	-2,161	300,194	149,699
198,159	-2,180	299,934	149,536
199,173	-2,092	299,695	149,493
200,188	-2,279	299,493	149,189
201,202	-2,284	299,344	149,097
202,217	-2,216	299,278	149,120
203,232	-2,273	299,066	148,943
204,246	-2,042	298,595	148,928
205,261	-2,058	298,632	148,917
206,275	-2,201	298,321	148,604
207,290	-2,246	298,324	148,548
208,304	-2,183	297,864	148,369
209,319	-2,067	297,759	148,421
210,334	-2,119	297,595	148,273
211,348	-2,011	297,327	148,235
212,363	-2,033	297,110	148,091
213,377	-1,963	296,932	148,060
214,392	-2,138	296,891	147,850
215,407	-2,081	296,574	147,737
216,421	-2,206	296,420	147,521
217,436	-2,032	296,142	147,543
218,450	-2,070	295,997	147,421
219,465	-2,232	295,850	147,173
220,480	-2,014	295,596	147,251
221,494	-2,218	295,413	146,942
222,509	-2,177	295,366	146,947
223,523	-2,185	295,077	146,782
224,538	-2,219	294,859	146,626
225,553	-2,154	294,686	146,593
226,567	-2,137	294,517	146,513
227,582	-2,196	294,263	146,314
228,596	-2,200	294,132	146,232
229,611	-2,159	293,974	146,181
230,626	-2,157	293,837	146,102
231,640	-2,042	293,469	146,019
232,655	-2,089	293,248	145,851
233,669	-2,181	293,075	145,660
234,684	-2,175	292,885	145,558
235,699	-2,154	292,721	145,485
236,713	-2,139	292,769	145,511
237,728	-2,227	292,347	145,201
238,742	-2,102	292,048	145,163
239,757	-2,018	291,955	145,187
240,772	-2,259	291,639	144,779
241,786	-2,083	291,486	144,863
242,801	-2,180	291,345	144,685
243,815	-2,150	291,277	144,668
244,830	-2,320	291,088	144,394
245,844	-2,245	290,706	144,265
246,859	-2,346	290,636	144,119
247,874	-2,182	290,346	144,123
248,888	-2,279	290,164	143,925
249,903	-2,313	290,018	143,805
250,917	-2,304	289,815	143,702
251,932	-2,302	289,688	143,628
252,947	-2,440	289,447	143,360
253,961	-2,620	288,974	142,938
254,976	-2,865	288,822	142,611
255,990	-3,115	288,560	142,226
257,005	-2,426	288,698	142,951
258,020	-0,235	289,434	145,441
259,034	1,449	289,732	147,220
260,049	1,882	289,915	147,722
261,063	2,093	289,866	147,890
262,078	2,375	289,825	148,130
263,093	2,791	289,637	148,426
264,107	3,042	289,577	148,625
265,122	3,115	289,423	148,604
266,136	3,313	289,310	148,725
267,151	3,320	289,251	148,688
268,166	3,281	288,959	148,487
269,180	3,321	288,729	148,395
270,195	3,153	288,485	148,093
271,209	3,191	288,342	148,044
272,224	3,113	288,178	147,871
273,239	3,044	287,949	147,674
274,253	2,894	287,628	147,351
275,268	2,877	287,572	147,293
276,282	2,920	287,315	147,189
277,297	2,840	287,149	147,014
278,312	3,019	286,875	147,033
279,326	2,998	286,878	147,001
280,341	2,902	286,644	146,775
281,355	2,947	286,516	146,740
282,370	2,805	286,282	146,471
283,384	2,929	286,050	146,458
284,399	2,925	285,757	146,291
285,414	2,994	285,703	146,317
286,428	2,797	285,511	146,017
287,443	2,825	285,231	145,888
288,457	2,832	285,160	145,845
289,472	2,775	284,932	145,660
290,487	2,595	284,668	145,341
291,501	2,646	284,585	145,334
292,516	2,878	284,306	145,400
293,530	2,870	284,099	145,273
294,545	2,810	283,864	145,083
295,560	2,713	283,655	144,871
296,574	2,588	283,542	144,682
297,589	2,685	283,289	144,632
298,603	2,599	283,279	144,532
299,618	2,576	282,940	144,325
300,633	2,725	283,022	144,495
301,647	2,731	282,711	144,329
302,662	2,845	282,603	144,368
303,676	2,865	282,368	144,255
304,691	3,223	282,121	144,453
305,706	3,201	282,036	144,376
306,720	3,162	281,915	144,265
307,735	3,126	281,745	144,131
308,749	3,048	281,655	143,999
309,764	2,865	281,543	143,756
310,779	3,069	281,214	143,767
311,793	2,861	280,855	143,375
312,808	2,933	280,630	143,316
313,822	3,119	280,474	143,398
314,837	3,096	280,376	143,313
315,852	2,962	280,234	143,103
316,866	2,979	280,095	143,034
317,881	3,162	279,810	143,047
318,895	2,959	279,661	142,768
319,910	2,856	279,457	142,555
320,925	2,810	279,269	142,403
321,939	3,094	279,043	142,541
322,954	3,039	279,015	142,462
323,968	3,056	278,906	142,410
324,983	2,945	278,737	142,208
325,997	3,240	278,516	142,356
327,012	3,054	278,304	142,063
328,027	3,022	278,230	141,982
329,041	3,187	277,916	141,963
330,056	3,151	277,869	141,893
331,070	3,082	277,616	141,687
332,085	3,096	277,380	141,567
333,100	3,159	277,170	141,505
334,114	3,099	277,084	141,394
335,129	3,119	276,856	141,283
336,143	3,121	276,693	141,188
337,158	3,208	276,548	141,182
338,173	3,139	276,365	141,013
339,187	3,163	276,248	140,962
340,202	3,038	275,925	140,671
341,216	3,158	275,744	140,676
342,231	3,079	275,681	140,559
343,246	2,907	275,394	140,242
344,260	3,095	275,261	140,334
345,275	3,072	275,188	140,263
346,289	3,170	274,941	140,215
347,304	3,170	274,735	140,097
348,319	3,046	274,595	139,899
349,333	3,082	274,478	139,860
350,348	3,095	274,300	139,770
351,362	3,225	274,032	139,739
352,377	3,233	273,853	139,642
353,392	3,163	273,752	139,515
354,406	3,177	273,482	139,378
355,421	192,597	1349,835	1434,131
356,435	155,555	1481,082	1434,263
