DTS Sentinel unit serial number:	SN410029Multiplexer serial number:	ORYXHardware model number:	OX2-SRSoftware version number:	ORYX F/W v4,00 Oryx Data Collector v3.7.2.0data status	okinstallation	B4 Nyhavnadifferential loss correction	single-endedforward channel	channel 2reverse channel	N/Adate	2023/12/19time	13:30:13forward acquisition time	300,00reverse acquisition time	0,00gamma	499,1914k internal	0,3128k external	0,3128temperature offset calibration	1,0000default loss term (dB/km)	0,3820temperature slope calibration	1,0000multiplexer offset coefficient	1,0000multiplexer slope coefficient	1,0000fibre end	0,00T internal ref (°C)	19,41T ext. ref 1 (°C)	4,58T ext. ref 2 (°C)	4,61length (m)	temperature (°C)	Stokes	anti-Stokes-744,400	-200,000	-0,027	-0,112
-743,385	150,333	-0,167	0,169
-742,371	71,702	0,092	0,071
-741,356	324,067	-0,085	0,121
-740,342	18,987	0,113	0,067
-739,327	-128,333	-0,335	0,035
-738,312	19,781	-0,087	0,052
-737,298	29,927	-0,150	0,095
-736,283	67,766	0,106	-0,081
-735,269	-55,827	-0,181	0,060
-734,254	243,011	0,113	-0,141
-733,239	-16,386	-0,374	-0,176
-732,225	149,803	0,075	0,075
-731,210	644,862	0,037	0,071
-730,196	-91,861	0,124	0,026
-729,181	-200,000	-0,001	0,053
-728,167	-60,828	0,149	0,046
-727,152	-200,000	-0,000	-0,068
-726,137	152,339	-0,058	-0,059
-725,123	115,786	-0,045	0,041
-724,108	259,902	-0,058	-0,074
-723,094	2,492	-0,118	-0,064
-722,079	-200,000	0,034	-0,121
-721,064	-200,000	-0,029	0,105
-720,050	-200,000	0,001	-0,021
-719,035	-200,000	-0,014	-0,060
-718,021	167,912	-0,029	-0,030
-717,006	-200,000	0,000	-0,112
-715,991	516,325	0,087	-0,151
-714,977	100,344	-0,075	-0,065
-713,962	-200,000	0,009	-0,033
-712,948	22,992	0,213	-0,130
-711,933	685,631	0,045	0,089
-710,918	228,904	0,056	0,068
-709,904	122,494	0,072	-0,067
-708,889	-200,000	0,003	-0,136
-707,875	97,624	-0,032	0,027
-706,860	-200,000	-0,004	-0,036
-705,845	-200,000	-0,027	0,105
-704,831	-65,643	0,098	-0,029
-703,816	2,796	-0,112	-0,060
-702,802	-171,003	-0,216	-0,005
-701,787	149,269	-0,044	-0,045
-700,772	-140,220	-0,109	-0,008
-699,758	-78,516	-0,066	0,017
-698,743	-19,995	0,064	-0,029
-697,729	259,787	-0,046	-0,059
-696,714	142,306	0,075	0,074
-695,699	360,404	-0,062	-0,093
-694,685	24,137	0,091	0,056
-693,670	-124,532	-0,127	0,014
-692,656	-61,803	0,052	-0,016
-691,641	-200,000	-0,041	-0,138
-690,627	718,279	0,056	0,110
-689,612	-108,493	0,086	0,014
-688,597	26,288	-0,098	0,061
-687,583	-200,000	0,022	-0,079
-686,568	-200,000	-0,022	0,077
-685,554	108,667	-0,103	0,092
-684,539	56,410	-0,104	-0,075
-683,524	800,000	-0,034	-0,094
-682,510	800,000	-0,034	0,090
-681,495	123,090	-0,053	-0,049
-680,481	-57,236	-0,087	-0,028
-679,466	800,000	0,043	-0,089
-678,451	8,872	0,044	0,024
-677,437	-29,803	0,049	-0,020
-676,422	800,000	-0,014	-0,042
-675,408	800,000	0,027	0,069
-674,393	166,714	0,028	0,029
-673,378	285,752	0,020	0,027
-672,364	-200,000	-0,036	-0,118
-671,349	-200,000	0,009	0,042
-670,335	-99,410	0,073	-0,014
-669,320	95,210	0,065	-0,055
-668,305	-38,929	-0,048	-0,019
-667,291	259,247	-0,027	0,035
-666,276	-138,867	0,100	0,008
-665,262	308,270	-0,058	-0,081
-664,247	-200,000	0,011	-0,093
-663,232	312,821	0,013	-0,018
-662,218	-12,199	0,069	0,033
-661,203	521,079	0,068	-0,120
-660,189	-200,000	-0,004	-0,069
-659,174	800,000	-0,019	-0,055
-658,159	-86,831	-0,117	0,026
-657,145	800,000	0,022	-0,070
-656,130	800,000	0,030	-0,085
-655,116	506,453	0,035	-0,061
-654,101	59,510	0,057	0,042
-653,086	-200,000	-0,019	-0,099
-652,072	-63,315	-0,015	-0,005
-651,057	-118,673	-0,035	-0,004
-650,043	-200,000	-0,026	-0,218
-649,028	-108,333	-0,119	-0,019
-648,014	-82,161	0,082	-0,020
-646,999	-150,516	-0,176	-0,010
-645,984	800,000	-0,022	0,065
-644,970	1,724	-0,048	-0,026
-643,955	800,000	-0,046	-0,145
-642,941	6,005	-0,041	-0,022
-641,926	603,379	-0,039	0,072
-640,911	-200,000	0,044	0,192
-639,897	-200,000	0,001	0,057
-638,882	-38,313	0,063	0,025
-637,868	124,521	-0,065	0,061
-636,853	-34,565	0,112	-0,045
-635,838	-71,571	-0,060	-0,017
-634,824	794,397	-0,028	0,058
-633,809	425,980	-0,023	0,037
-632,795	800,000	0,044	0,111
-631,780	800,000	-0,043	0,096
-630,765	-73,761	0,091	-0,024
-629,751	20,805	-0,060	0,036
-628,736	-142,097	-0,171	0,012
-627,722	-84,908	0,061	-0,014
-626,707	50,439	-0,029	0,020
-625,692	294,143	0,085	0,116
-624,678	-79,526	-0,118	-0,029
-623,663	-65,079	-0,106	-0,031
-622,649	-32,742	-0,072	0,030
-621,634	-25,357	-0,127	0,056
-620,619	538,872	0,011	0,019
-619,605	170,448	0,079	-0,083
-618,590	-45,474	0,119	-0,043
-617,576	369,614	-0,055	0,083
-616,561	-200,000	0,014	-0,077
-615,546	60,858	-0,085	-0,062
-614,532	148,169	-0,136	0,136
-613,517	800,000	-0,044	-0,091
-612,503	-136,905	0,085	0,007
-611,488	-44,761	-0,041	0,015
-610,474	612,478	0,023	-0,044
-609,459	772,989	0,033	0,068
-608,444	800,000	-0,053	-0,116
-607,430	800,000	-0,032	-0,101
-606,415	-200,000	-0,011	-0,045
-605,401	700,552	-0,041	-0,079
-604,386	-37,516	0,070	-0,027
-603,371	-200,000	-0,006	-0,105
-602,357	-200,000	-0,003	-0,178
-601,342	-73,754	-0,098	0,026
-600,328	-200,000	-0,009	0,037
-599,313	-23,973	-0,071	0,031
-598,298	-108,010	-0,087	0,014
-597,284	364,078	0,057	0,085
-596,269	382,054	0,093	0,141
-595,255	-200,000	0,005	0,059
-594,240	190,903	0,015	-0,017
-593,225	-200,000	0,032	-0,127
-592,211	-91,230	-0,116	0,024
-591,196	-102,552	0,086	-0,015
-590,182	8,907	-0,112	0,062
-589,167	-17,476	-0,058	0,027
-588,152	-200,000	0,001	-0,073
-587,138	114,137	-0,133	-0,119
-586,123	-96,581	-0,061	-0,012
-585,109	-200,000	-0,010	-0,089
-584,094	-46,508	-0,096	-0,034
-583,079	-120,758	0,061	0,007
-582,065	-200,000	0,009	0,099
-581,050	3,467	-0,047	0,025
-580,036	800,000	-0,044	0,142
-579,021	-57,714	0,057	-0,018
-578,006	-200,000	-0,021	-0,177
-576,992	-40,407	-0,138	-0,053
-575,977	800,000	0,033	-0,071
-574,963	800,000	-0,033	0,068
-573,948	164,593	0,060	0,063
-572,934	800,000	-0,086	0,206
-571,919	-200,000	0,039	-0,210
-570,904	-200,000	0,001	-0,167
-569,890	800,000	-0,030	-0,072
-568,875	-163,792	0,107	-0,004
-567,861	771,353	-0,006	0,012
-566,846	-200,000	0,001	0,034
-565,831	-200,000	-0,020	-0,082
-564,817	800,000	-0,043	-0,130
-563,802	-200,000	0,002	0,097
-562,788	653,250	-0,010	0,019
-561,773	-89,780	0,084	-0,018
-560,758	-42,856	0,036	-0,013
-559,744	104,361	-0,128	0,111
-558,729	-200,000	-0,017	0,147
-557,715	-200,000	0,017	-0,175
-556,700	-200,000	0,000	-0,134
-555,685	135,042	-0,096	-0,092
-554,671	289,520	0,029	0,039
-553,656	800,000	-0,017	0,054
-552,642	-25,954	0,085	-0,037
-551,627	20,730	-0,091	0,054
-550,612	-200,000	0,013	-0,095
-549,598	-200,000	0,030	-0,106
-548,583	800,000	0,035	-0,074
-547,569	-59,222	-0,079	0,025
-546,554	62,260	0,028	-0,021
-545,539	341,872	0,046	0,066
-544,525	195,231	0,083	0,093
-543,510	800,000	-0,064	-0,135
-542,496	23,919	0,073	-0,044
-541,481	323,299	0,106	-0,149
-540,466	454,482	0,014	0,023
-539,452	800,000	0,087	0,180
-538,437	164,543	0,091	0,095
-537,423	-88,580	-0,057	0,012
-536,408	-56,029	0,036	-0,012
-535,393	-105,532	-0,041	0,007
-534,379	68,628	-0,092	-0,070
-533,364	-44,031	0,094	-0,035
-532,350	512,898	0,021	-0,036
-531,335	800,000	-0,057	0,130
-530,321	-87,884	-0,057	0,012
-529,306	138,652	-0,043	0,042
-528,291	-48,284	-0,043	-0,015
-527,277	197,865	-0,076	0,086
-526,262	-200,000	0,018	-0,101
-525,248	449,685	-0,076	-0,125
-524,233	-200,000	0,045	0,172
-523,218	800,000	-0,027	0,080
-522,204	-101,456	-0,136	-0,024
-521,189	-25,269	-0,057	-0,025
-520,175	-81,854	-0,175	-0,042
-519,160	28,765	-0,080	-0,050
-518,145	-200,000	-0,018	-0,093
-517,131	-200,000	-0,001	-0,010
-516,116	53,460	0,081	-0,057
-515,102	-67,367	-0,055	-0,016
-514,087	-76,903	-0,123	-0,031
-513,072	19,280	-0,047	0,028
-512,058	1,453	0,178	0,094
-511,043	8,550	0,072	0,040
-510,029	244,884	-0,060	-0,075
-509,014	464,567	-0,074	-0,123
-507,999	-200,000	-0,028	-0,100
-506,985	-200,000	-0,028	-0,127
-505,970	322,782	-0,032	-0,045
-504,956	-135,155	0,094	-0,008
-503,941	105,705	0,106	0,092
-502,926	-102,790	0,105	0,018
-501,912	800,000	-0,010	0,027
-500,897	-37,527	0,148	0,058
-499,883	129,811	0,029	0,027
-498,868	8,958	-0,094	-0,052
-497,853	222,181	0,081	0,097
-496,839	800,000	0,062	0,165
-495,824	-200,000	0,014	0,054
-494,810	-200,000	-0,048	0,176
-493,795	329,265	0,080	0,113
-492,781	332,989	-0,073	0,104
-491,766	-160,610	-0,080	0,003
-490,751	562,387	0,045	-0,081
-489,737	-57,936	-0,096	-0,031
-488,722	219,602	0,093	0,110
-487,708	-200,000	0,002	0,084
-486,693	-200,000	0,031	0,103
-485,678	-200,000	-0,014	-0,104
-484,664	177,958	-0,095	-0,102
-483,649	-23,615	-0,073	0,032
-482,635	800,000	0,068	-0,152
-481,620	-153,245	0,142	-0,007
-480,605	76,358	-0,071	0,055
-479,591	800,000	-0,033	0,074
-478,576	-81,894	-0,100	-0,024
-477,562	-53,531	0,018	-0,006
-476,547	143,736	-0,056	-0,055
-475,532	403,297	0,039	-0,061
-474,518	-200,000	-0,007	-0,025
-473,503	0,721	0,045	-0,024
-472,489	-200,000	-0,016	0,054
-471,474	-200,000	-0,002	0,033
-470,459	-200,000	-0,013	0,101
-469,445	561,810	-0,103	-0,185
-468,430	100,558	0,044	0,038
-467,416	83,723	0,049	0,039
-466,401	-32,871	0,237	0,097
-465,386	-200,000	0,011	-0,104
-464,372	-90,955	0,168	-0,035
-463,357	41,882	0,047	0,031
-462,343	-133,924	0,142	-0,013
-461,328	-147,489	-0,071	0,004
-460,313	207,909	0,043	0,050
-459,299	-200,000	0,012	0,084
-458,284	-122,547	0,109	-0,013
-457,270	-200,000	0,010	0,116
-456,255	163,725	0,038	-0,040
-455,241	566,296	0,020	-0,036
-454,226	17,524	0,065	0,038
-453,211	-76,973	-0,063	-0,016
-452,197	1,886	0,078	0,041
-451,182	92,211	0,046	-0,038
-450,168	-200,000	0,022	0,135
-449,153	-200,000	-0,007	0,060
-448,138	800,000	-0,023	0,071
-447,124	-107,601	-0,091	0,015
-446,109	-50,178	-0,118	0,041
-445,095	309,099	-0,058	-0,080
-444,080	240,515	0,057	-0,070
-443,065	800,000	0,078	-0,168
-442,051	-200,000	-0,001	-0,113
-441,036	-200,000	-0,016	0,073
-440,022	800,000	-0,013	0,036
-439,007	78,374	0,071	-0,056
-437,992	-200,000	-0,004	0,108
-436,978	382,913	0,074	-0,112
-435,963	-200,000	0,014	-0,153
-434,949	8,744	0,028	0,015
-433,934	-84,823	-0,146	0,033
-432,919	-152,048	-0,087	-0,005
-431,905	800,000	0,015	-0,045
-430,890	86,665	0,101	-0,082
-429,876	162,051	0,038	-0,040
-428,861	-109,517	0,063	-0,010
-427,846	-137,009	-0,048	0,004
-426,832	-200,000	-0,000	-0,147
-425,817	-200,000	-0,011	-0,066
-424,803	44,763	0,063	0,042
-423,788	-130,560	0,103	-0,010
-422,773	-133,881	-0,072	0,007
-421,759	800,000	0,028	-0,064
-420,744	300,209	-0,012	-0,017
-419,730	401,315	0,059	0,091
-418,715	-2,149	0,072	0,037
-417,701	624,654	0,030	-0,057
-416,686	206,393	-0,045	0,052
-415,671	-84,542	-0,146	0,034
-414,657	90,799	0,069	0,057
-413,642	-200,000	-0,049	0,194
-412,628	-179,581	-0,038	-0,001
-411,613	14,316	-0,112	0,064
-410,598	-57,855	0,021	0,007
-409,584	-181,261	0,041	-0,001
-408,569	758,970	0,033	-0,067
-407,555	88,159	0,044	0,036
-406,540	-200,000	0,000	0,028
-405,525	-200,000	0,000	-0,135
-404,511	247,780	0,075	-0,093
-403,496	800,000	-0,045	-0,108
-402,482	-200,000	0,015	-0,049
-401,467	-200,000	0,018	0,064
-400,452	-200,000	-0,001	0,031
-399,438	800,000	0,051	0,138
-398,423	92,803	-0,089	0,074
-397,409	800,000	-0,047	-0,104
-396,394	73,499	-0,016	-0,012
-395,379	-200,000	-0,011	0,047
-394,365	378,524	0,044	-0,066
-393,350	-200,000	-0,008	0,027
-392,336	5,075	0,041	-0,022
-391,321	69,846	-0,053	-0,040
-390,306	9,451	-0,068	-0,038
-389,292	-60,041	0,126	0,039
-388,277	800,000	-0,026	-0,070
-387,263	-132,534	0,065	-0,006
-386,248	135,822	0,102	-0,097
-385,233	800,000	-0,054	0,147
-384,219	215,369	-0,016	-0,018
-383,204	102,593	0,090	0,077
-382,190	91,673	-0,126	-0,104
-381,175	35,750	-0,038	-0,025
-380,160	161,134	-0,050	-0,052
-379,146	-77,351	0,088	-0,022
-378,131	-196,892	0,082	-0,000
-377,117	800,000	0,016	-0,045
-376,102	-200,000	0,019	-0,097
-375,088	652,947	-0,069	-0,129
-374,073	-59,792	-0,142	0,044
-373,058	263,003	-0,063	0,080
-372,044	14,848	-0,091	0,052
-371,029	800,000	0,038	0,121
-370,015	320,832	0,039	0,055
-369,000	-33,540	0,147	-0,059
-367,985	-66,060	0,142	-0,041
-366,971	800,000	0,056	-0,176
-365,956	-200,000	-0,013	-0,101
-364,942	85,722	0,103	-0,083
-363,927	-31,885	-0,033	0,014
-362,912	-200,000	-0,007	0,030
-361,898	43,361	-0,037	-0,025
-360,883	-200,000	0,002	0,074
-359,869	-100,484	0,149	-0,027
-358,854	800,000	0,051	-0,163
-357,839	-31,332	-0,086	0,035
-356,825	57,621	0,065	0,046
-355,810	125,355	-0,108	0,099
-354,796	-69,937	-0,096	-0,027
-353,781	272,532	-0,013	0,017
-352,766	-200,000	0,010	-0,035
-351,752	314,220	-0,097	-0,134
-350,737	-200,000	-0,022	0,082
-349,723	61,670	0,108	0,079
-348,708	-200,000	-0,006	-0,044
-347,693	-105,448	-0,113	-0,019
-346,679	283,389	-0,060	-0,079
-345,664	313,303	-0,119	-0,164
-344,650	800,000	0,013	0,028
-343,635	-150,323	-0,026	0,001
-342,620	214,205	-0,065	0,075
-341,606	800,000	0,027	0,074
-340,591	163,746	0,072	0,074
-339,577	-88,408	-0,104	-0,023
-338,562	-54,190	0,079	-0,026
-337,548	-92,767	-0,048	0,010
-336,533	-200,000	-0,001	0,015
-335,518	113,840	0,038	0,034
-334,504	-200,000	0,001	0,004
-333,489	185,462	0,029	0,031
-332,475	-200,000	-0,018	0,060
-331,460	374,909	0,114	0,171
-330,445	-81,804	-0,026	-0,006
-329,431	-53,315	0,205	-0,068
-328,416	766,064	0,022	0,043
-327,402	-40,056	-0,087	0,033
-326,387	113,521	0,063	0,056
-325,372	302,062	-0,034	0,046
-324,358	445,845	-0,050	0,080
-323,343	-200,000	-0,002	-0,030
-322,329	-141,204	-0,104	0,008
-321,314	800,000	0,032	0,086
-320,299	133,689	-0,085	0,080
-319,285	94,256	0,070	0,058
-318,270	23,488	-0,065	0,039
-317,256	275,656	0,051	0,066
-316,241	800,000	0,011	-0,032
-315,226	84,161	0,027	0,022
-314,212	-200,000	-0,005	-0,112
-313,197	0,155	0,003	-0,002
-312,183	28,725	-0,073	-0,045
-311,168	800,000	-0,018	-0,056
-310,153	675,941	0,031	0,059
-309,139	101,368	-0,043	0,037
-308,124	-200,000	0,012	-0,096
-307,110	-109,796	0,051	0,008
-306,095	-4,743	0,125	0,063
-305,080	-200,000	0,019	0,144
-304,066	-200,000	-0,027	0,091
-303,051	279,762	-0,044	-0,058
-302,037	647,218	-0,072	0,136
-301,022	299,265	-0,102	0,138
-300,008	226,620	0,097	0,115
-298,993	39,232	0,114	0,075
-297,978	189,417	0,046	-0,051
-296,964	87,633	-0,026	0,021
-295,949	-200,000	-0,032	-0,126
-294,935	-200,000	-0,027	-0,092
-293,920	-76,279	0,062	0,016
-292,905	431,220	-0,044	-0,069
-291,891	800,000	0,024	-0,050
-290,876	103,481	-0,073	-0,063
-289,862	361,098	0,018	-0,027
-288,847	229,373	0,037	0,044
-287,832	484,839	-0,054	-0,091
-286,818	52,641	0,051	0,036
-285,803	235,558	0,063	0,077
-284,789	-200,000	0,001	-0,051
-283,774	800,000	0,006	0,017
-282,759	800,000	-0,033	0,101
-281,745	-200,000	0,022	0,091
-280,730	484,473	-0,006	-0,010
-279,716	800,000	-0,057	0,179
-278,701	453,841	0,026	0,042
-277,686	800,000	-0,033	0,081
-276,672	200,426	0,136	0,153
-275,657	-55,321	0,083	0,027
-274,643	61,309	0,122	-0,088
-273,628	-4,970	-0,054	0,027
-272,613	800,000	0,008	-0,019
-271,599	-65,642	0,098	0,029
-270,584	-7,640	-0,016	0,008
-269,570	240,679	-0,027	-0,033
-268,555	-200,000	-0,034	0,146
-267,540	-67,670	-0,138	0,039
-266,526	-123,875	-0,074	0,008
-265,511	-200,000	-0,010	-0,087
-264,497	107,414	0,053	-0,046
-263,482	558,262	-0,081	-0,144
-262,467	-54,722	0,065	0,021
-261,453	800,000	0,019	0,058
-260,438	800,000	-0,004	0,012
-259,424	-25,915	-0,101	0,043
-258,409	141,286	0,043	0,042
-257,395	800,000	0,055	0,128
-256,380	-145,630	0,088	-0,006
-255,365	5,006	-0,052	0,028
-254,351	-121,690	0,139	-0,017
-253,336	-173,194	-0,051	-0,001
-252,322	168,323	0,113	-0,118
-251,307	800,000	0,013	-0,036
-250,292	-110,987	0,112	0,017
-249,278	23,392	0,099	0,060
-248,263	-51,777	0,098	-0,033
-247,249	-4,692	0,158	0,079
-246,234	88,114	0,046	0,037
-245,219	-200,000	0,005	-0,103
-244,205	-185,092	-0,025	-0,000
-243,190	-17,534	-0,151	0,069
-242,176	-61,774	0,162	-0,049
-241,161	-76,602	-0,094	-0,024
-240,146	-17,121	0,022	-0,010
-239,132	-66,320	-0,093	-0,027
-238,117	-2,406	-0,042	0,022
-237,103	-95,374	-0,054	-0,010
-236,088	395,503	-0,055	-0,083
-235,073	-200,000	0,018	-0,147
-234,059	45,212	0,093	0,063
-233,044	-99,383	-0,102	-0,019
-232,030	59,322	-0,026	-0,018
-231,015	237,243	-0,068	-0,082
-230,000	-8,257	-0,047	0,023
-228,986	-55,564	0,069	-0,022
-227,971	127,222	0,051	0,048
-226,957	-200,000	-0,005	-0,074
-225,942	800,000	-0,049	0,123
-224,927	800,000	0,077	0,190
-223,913	-66,189	0,085	-0,024
-222,898	138,080	0,054	0,051
-221,884	-200,000	0,013	-0,045
-220,869	603,971	0,031	-0,056
-219,855	-200,000	0,031	0,120
-218,840	-19,883	-0,054	-0,024
-217,825	-104,477	0,103	-0,017
-216,811	-140,677	-0,046	0,003
-215,796	-59,328	-0,090	-0,028
-214,782	-36,343	0,094	-0,037
-213,767	-63,083	-0,091	-0,027
-212,752	-200,000	-0,014	0,047
-211,738	-200,000	0,028	0,160
-210,723	800,000	0,018	0,037
-209,709	-107,381	-0,122	-0,019
-208,694	468,993	0,032	-0,053
-207,679	-32,095	-0,072	-0,029
-206,665	-52,856	0,202	0,067
-205,650	-200,000	-0,034	0,130
-204,636	191,292	0,013	-0,015
-203,621	38,925	-0,041	0,027
-202,606	-200,000	-0,002	-0,045
-201,592	18,939	-0,065	-0,038
-200,577	246,868	-0,071	-0,087
-199,563	551,540	-0,091	0,160
-198,548	-131,009	0,129	0,012
-197,533	181,408	0,143	-0,154
-196,519	-109,049	-0,092	0,014
-195,504	-21,827	0,072	-0,032
-194,490	161,358	0,094	-0,095
-193,475	-200,000	-0,020	-0,089
-192,460	-200,000	0,012	-0,052
-191,446	-200,000	-0,004	-0,076
-190,431	11,072	0,041	0,023
-189,417	409,647	0,024	0,037
-188,402	-87,125	0,127	-0,028
-187,387	15,683	0,085	0,049
-186,373	-22,328	0,066	0,029
-185,358	-200,000	-0,010	-0,070
-184,344	-54,759	0,149	-0,049
-183,329	-32,938	-0,088	0,035
-182,315	-113,695	-0,099	-0,014
-181,300	-200,000	-0,014	0,125
-180,285	193,215	-0,088	-0,097
-179,271	800,000	-0,037	-0,108
-178,256	-16,527	-0,041	0,019
-177,242	616,862	-0,097	0,177
-176,227	66,879	0,041	0,030
-175,212	-200,000	0,001	0,012
-174,198	367,970	-0,014	-0,021
-173,183	-110,406	-0,179	0,027
-172,169	-200,000	-0,021	-0,124
-171,154	800,000	-0,060	-0,155
-170,139	-9,598	-0,072	-0,035
-169,125	-125,087	0,073	0,008
-168,110	767,626	0,032	-0,064
-167,096	-200,000	0,031	0,129
-166,081	-200,000	-0,020	-0,095
-165,066	132,713	0,050	0,047
-164,052	-200,000	-0,012	-0,088
-163,037	-200,000	-0,002	-0,149
-162,023	800,000	-0,018	0,036
-161,008	-54,737	-0,048	0,016
-159,993	319,303	0,006	-0,008
-158,979	232,917	0,045	0,054
-157,964	800,000	0,072	-0,201
-156,950	106,075	-0,048	-0,041
-155,935	-200,000	-0,009	0,065
-154,920	165,251	0,033	0,034
-153,906	92,395	0,060	-0,049
-152,891	-200,000	0,003	0,112
-151,877	-200,000	0,016	0,105
-150,862	800,000	-0,009	-0,028
-149,847	-82,819	0,065	0,015
-148,833	-200,000	0,035	0,142
-147,818	-200,000	-0,021	0,107
-146,804	666,706	-0,034	0,063
-145,789	-200,000	-0,008	0,036
-144,775	425,218	0,039	0,061
-143,760	-18,007	-0,097	-0,044
-142,745	-200,000	-0,012	-0,066
-141,731	190,596	0,032	-0,035
-140,716	-200,000	0,002	-0,020
-139,702	-49,583	0,208	0,072
-138,687	771,455	-0,044	0,088
-137,672	27,202	-0,191	-0,116
-136,658	-200,000	0,009	0,067
-135,643	-151,091	0,088	0,005
-134,629	300,367	0,103	0,138
-133,614	185,811	0,052	-0,056
-132,599	800,000	0,055	0,153
-131,585	-200,000	-0,001	0,040
-130,570	-38,098	0,099	-0,038
-129,556	-19,124	-0,033	-0,015
-128,541	-200,000	0,025	-0,202
-127,526	80,193	-0,051	-0,040
-126,512	800,000	0,025	-0,056
-125,497	-58,336	0,090	0,028
-124,483	-45,403	0,106	-0,038
-123,468	-69,607	-0,107	0,030
-122,453	40,102	0,077	-0,050
-121,439	800,000	0,057	-0,133
-120,424	-30,672	-0,048	0,020
-119,410	-176,412	0,098	0,002
-118,395	439,102	0,078	-0,124
-117,380	-200,000	0,053	0,180
-116,366	4,436	-0,158	0,084
-115,351	353,888	-0,093	0,134
-114,337	-200,000	0,033	0,000
-113,322	800,000	0,048	0,131
-112,307	-122,143	0,041	-0,005
-111,293	-28,737	0,050	-0,021
-110,278	-200,000	-0,002	0,106
-109,264	358,358	-0,086	0,125
-108,249	235,508	-0,072	0,086
-107,234	-73,047	-0,046	-0,012
-106,220	186,423	0,079	-0,085
-105,205	84,515	0,091	0,073
-104,191	-41,653	0,168	0,062
-103,176	29,455	-0,040	0,025
-102,162	-200,000	-0,038	0,297
-101,147	800,000	-0,018	0,041
-100,132	551,452	-0,061	-0,106
-99,118	-200,000	0,009	-0,054
-98,103	184,476	0,045	-0,048
-97,089	19,422	0,129	0,075
-96,074	117,726	-0,047	-0,042
-95,059	365,664	-0,071	0,104
-94,045	73,849	0,097	-0,074
-93,030	-22,446	0,112	0,049
-92,016	-54,035	0,073	-0,024
-91,001	60,491	0,028	-0,020
-89,986	22,869	-0,077	-0,046
-88,972	125,072	0,083	0,076
-87,957	-200,000	-0,004	0,069
-86,943	544,761	0,055	-0,096
-85,928	800,000	-0,045	0,107
-84,913	-54,186	-0,125	-0,041
-83,899	-200,000	0,020	0,125
-82,884	800,000	-0,042	-0,096
-81,870	218,889	0,100	0,116
-80,855	-139,538	-0,136	-0,010
-79,840	-200,000	0,011	0,060
-78,826	-200,000	0,012	-0,153
-77,811	-200,000	-0,014	-0,163
-76,797	-146,513	-0,025	0,002
-75,782	800,000	-0,022	-0,062
-74,767	462,444	-0,022	-0,035
-73,753	-91,581	0,106	0,022
-72,738	22,189	-0,011	0,007
-71,724	-139,121	-0,156	0,012
-70,709	94,252	0,061	-0,051
-69,694	-200,000	-0,026	0,165
-68,680	-151,305	0,030	0,002
-67,665	337,366	0,029	0,042
-66,651	-200,000	-0,013	0,058
-65,636	113,958	-0,116	0,103
-64,622	-5,567	0,019	-0,009
-63,607	-200,000	0,009	0,060
-62,592	129,971	0,082	-0,076
-61,578	217,722	0,063	-0,073
-60,563	-1,278	0,165	0,084
-59,549	800,000	-0,041	0,124
-58,534	-79,207	-1,660	-0,405
-57,519	800,000	-0,594	-1,403
-56,505	-200,000	-0,838	-4,380
-55,490	-184,523	0,523	0,006
-54,476	800,000	5,073	11,795
-53,461	-200,000	15,346	270,439
-52,446	-200,000	696,128	2254,474
-51,432	589,728	1616,042	2898,553
-50,417	121,002	1624,426	1464,289
-49,403	82,706	1281,517	1007,957
-48,388	37,361	1022,538	655,258
-47,373	22,102	983,787	580,142
-46,359	21,172	972,410	570,353
-45,344	19,727	968,220	563,141
-44,330	19,755	966,891	562,437
-43,315	19,520	965,369	560,763
-42,300	19,457	964,310	559,919
-41,286	19,490	963,279	559,407
-40,271	19,481	962,225	558,741
-39,257	19,463	961,464	558,219
-38,242	19,445	960,721	557,708
-37,227	19,526	959,792	557,410
-36,213	19,455	959,005	556,700
-35,198	19,471	957,937	556,110
-34,184	19,464	957,336	555,717
-33,169	19,437	956,477	555,108
-32,154	19,519	955,369	554,706
-31,140	19,466	954,585	554,060
-30,125	19,473	953,802	553,605
-29,111	19,470	952,966	553,090
-28,096	19,477	952,255	552,678
-27,082	19,385	951,725	552,053
-26,067	19,434	950,920	551,720
-25,052	19,460	950,150	551,335
-24,038	19,492	949,607	551,102
-23,023	19,378	948,873	550,287
-22,009	19,431	948,242	550,068
-20,994	19,472	947,644	549,831
-19,979	19,471	946,997	549,433
-18,965	19,429	946,350	548,900
-17,950	19,420	945,780	548,520
-16,936	19,412	945,163	548,112
-15,921	19,386	944,327	547,522
-14,906	19,371	943,695	547,088
-13,892	19,309	943,167	546,562
-12,877	19,266	942,396	545,957
-11,863	19,268	941,914	545,661
-10,848	19,319	941,368	545,487
-9,833	19,421	940,918	545,528
-8,819	19,386	940,254	545,009
-7,804	19,350	939,590	544,490
-6,790	19,287	939,048	543,955
-5,775	19,366	938,445	543,833
-4,760	19,309	937,768	543,240
-3,746	19,309	937,280	542,934
-2,731	19,196	936,398	542,045
-1,717	19,179	935,728	541,583
-0,702	19,104	935,301	541,075
0,313	19,001	934,508	541,109
1,327	21,421	932,279	547,402
2,342	28,900	806,414	493,743
3,356	23,050	506,505	300,132
4,371	-0,982	373,872	190,891
5,386	-3,674	357,326	179,115
6,400	-4,818	351,559	174,822
7,415	-5,276	349,003	172,984
8,429	-5,290	347,658	172,285
9,444	-5,312	346,598	171,718
10,459	-5,273	346,057	171,482
11,473	-5,347	345,496	171,101
12,488	-5,171	344,705	170,902
13,502	-5,220	344,193	170,575
14,517	-5,513	343,784	170,011
15,531	-5,164	343,187	170,112
16,546	-5,145	342,803	169,930
17,561	-5,151	342,306	169,661
18,575	-5,253	342,095	169,422
19,590	-5,319	341,690	169,127
20,604	-5,139	341,384	169,174
21,619	-5,347	340,878	168,663
22,634	-5,223	340,468	168,591
23,648	-5,345	340,293	168,345
24,663	-5,441	340,003	168,074
25,677	-5,169	339,481	168,119
26,692	-5,318	339,376	167,879
27,707	-5,262	339,053	167,769
28,721	-5,186	338,534	167,587
29,736	-5,226	338,280	167,399
30,750	-5,361	338,254	167,214
31,765	-5,266	337,884	167,127
32,780	-5,197	337,382	166,944
33,794	-5,213	337,097	166,769
34,809	-5,310	336,824	166,507
35,823	-5,235	336,650	166,493
36,838	-5,271	336,351	166,289
37,853	-5,335	336,083	166,067
38,867	-5,303	335,950	166,024
39,882	-5,205	335,671	165,984
40,896	-5,180	335,241	165,785
41,911	-5,248	335,019	165,583
42,926	-5,282	334,830	165,435
43,940	-5,188	334,489	165,359
44,955	-5,203	334,222	165,196
45,969	-5,196	333,926	165,042
46,984	-5,273	333,748	164,852
47,999	-5,300	333,480	164,674
49,013	-5,192	333,219	164,653
50,028	-5,125	332,911	164,563
51,042	-5,339	332,685	164,192
52,057	-5,246	332,407	164,147
53,071	-5,412	332,221	163,851
54,086	-5,211	332,047	163,980
55,101	-5,362	331,830	163,686
56,115	-5,306	331,465	163,555
57,130	-5,269	331,103	163,404
58,144	-5,321	330,927	163,244
59,159	-5,387	330,464	162,926
60,174	-5,230	330,140	162,930
61,188	-5,226	330,036	162,869
62,203	-5,182	329,839	162,807
63,217	-5,172	329,488	162,630
64,232	-5,177	329,214	162,474
65,247	-5,312	328,992	162,197
66,261	-5,220	328,684	162,135
67,276	-5,262	328,507	161,986
68,290	-5,170	328,276	161,961
69,305	-5,213	328,113	161,818
70,320	-5,207	327,796	161,654
71,334	-5,220	327,498	161,479
72,349	-5,335	327,402	161,287
73,363	-5,380	326,928	160,989
74,378	-5,300	326,791	160,997
75,393	-5,246	326,473	160,886
76,407	-5,283	326,290	160,741
77,422	-5,170	325,842	160,632
78,436	-5,049	325,665	160,665
79,451	-5,145	325,274	160,350
80,466	-5,103	325,004	160,250
81,480	-5,102	325,025	160,247
82,495	-5,242	324,871	160,001
83,509	-5,192	324,624	159,921
84,524	-5,250	324,285	159,675
85,539	-5,165	323,968	159,600
86,553	-5,235	323,877	159,462
87,568	-5,237	323,496	159,259
88,582	-5,175	323,258	159,195
89,597	-5,169	323,113	159,117
90,611	-5,302	322,810	158,806
91,626	-5,176	322,559	158,808
92,641	-5,252	322,391	158,627
93,655	-5,284	322,280	158,524
94,670	-5,119	321,759	158,435
95,684	-5,263	321,544	158,156
96,699	-5,218	321,436	158,138
97,714	-5,082	321,020	158,069
98,728	-5,247	320,942	157,835
99,743	-5,257	320,668	157,675
100,757	-5,229	320,513	157,616
101,772	-5,191	320,277	157,527
102,787	-5,144	319,969	157,413
103,801	-5,353	319,902	157,137
104,816	-5,256	319,449	157,007
105,830	-5,270	319,275	156,892
106,845	-5,138	319,061	156,917
107,860	-5,223	318,877	156,720
108,874	-5,094	318,464	156,644
109,889	-5,152	318,344	156,507
110,903	-5,191	318,009	156,286
111,918	-5,313	317,885	156,079
112,933	-5,227	317,783	156,108
113,947	-5,135	317,525	156,067
114,962	-5,194	317,299	155,878
115,976	-5,164	317,125	155,812
116,991	-5,158	316,857	155,673
118,006	-5,193	316,630	155,509
119,020	-5,223	316,499	155,398
120,035	-5,096	316,106	155,329
121,049	-5,099	315,914	155,218
122,064	-5,166	315,734	155,043
123,079	-5,167	315,498	154,912
124,093	-5,217	315,289	154,742
125,108	-5,108	314,972	154,690
126,122	-5,134	314,825	154,575
127,137	-5,293	314,714	154,336
128,151	-5,148	314,430	154,339
129,166	-4,970	314,170	154,388
130,181	-5,123	313,969	154,112
131,195	-5,090	313,649	153,977
132,210	-5,198	313,386	153,718
133,224	-5,180	313,122	153,595
134,239	-5,216	312,973	153,470
135,254	-5,190	312,654	153,326
136,268	-5,116	312,514	153,323
137,283	-5,096	312,272	153,213
138,297	-5,143	312,123	153,076
139,312	-5,223	312,011	152,922
140,327	-5,178	311,663	152,785
141,341	-5,195	311,281	152,566
142,356	-5,077	311,206	152,641
143,370	-5,104	310,962	152,479
144,385	-5,165	310,747	152,296
145,400	-5,122	310,607	152,259
146,414	-5,031	310,227	152,155
147,429	-5,069	309,928	151,955
148,443	-5,076	309,756	151,850
149,458	-4,941	309,473	151,840
150,473	-5,236	309,444	151,501
151,487	-5,153	309,186	151,449
152,502	-5,066	308,977	151,424
153,516	-5,077	308,651	151,239
154,531	-5,091	308,463	151,119
155,546	-4,974	308,224	151,111
156,560	-5,124	308,127	150,893
157,575	-5,216	307,802	150,624
158,589	-5,148	307,605	150,586
159,604	-5,131	307,413	150,496
160,619	-5,138	307,205	150,373
161,633	-5,187	307,060	150,237
162,648	-5,125	306,842	150,182
163,662	-5,116	306,540	150,030
164,677	-5,235	306,338	149,794
165,692	-5,026	306,082	149,873
166,706	-4,961	305,964	149,870
167,721	-5,012	305,799	149,722
168,735	-5,005	305,741	149,688
169,750	-5,122	305,531	149,450
170,764	-5,113	305,357	149,361
171,779	-5,086	305,169	149,283
172,794	-5,106	304,910	149,123
173,808	-5,093	304,722	149,031
174,823	-5,252	304,449	148,721
175,837	-5,090	304,006	148,658
176,852	-5,232	304,093	148,541
177,867	-5,127	303,783	148,484
178,881	-5,048	303,638	148,481
179,896	-5,095	303,438	148,323
180,910	-5,087	303,197	148,199
181,925	-5,001	302,968	148,162
182,940	-5,169	302,743	147,867
183,954	-5,178	302,559	147,755
184,969	-5,146	302,385	147,689
185,983	-5,119	302,279	147,652
186,998	-4,960	302,016	147,674
188,013	-5,111	301,854	147,426
189,027	-5,059	301,608	147,346
190,042	-5,109	301,435	147,197
191,056	-5,113	301,012	146,973
192,071	-4,978	300,875	147,031
193,086	-5,098	300,747	146,832
194,100	-4,980	300,551	146,845
195,115	-5,031	300,243	146,629
196,129	-5,090	300,154	146,512
197,144	-4,907	299,692	146,460
198,159	-5,224	299,655	146,107
199,173	-5,095	299,521	146,160
200,188	-5,203	299,332	145,944
201,202	-5,100	299,149	145,947
202,217	-5,086	298,891	145,822
203,232	-5,051	298,568	145,687
204,246	-4,994	298,343	145,621
205,261	-5,027	298,193	145,502
206,275	-5,057	298,005	145,367
207,290	-5,093	297,762	145,199
208,304	-5,054	297,614	145,154
209,319	-5,177	297,480	144,951
210,334	-4,927	297,106	145,008
211,348	-5,005	296,893	144,812
212,363	-4,969	296,678	144,731
213,377	-5,177	296,630	144,486
214,392	-4,959	296,500	144,628
215,407	-5,082	296,141	144,317
216,421	-5,066	295,940	144,223
217,436	-5,178	295,827	144,042
218,450	-5,011	295,513	144,043
219,465	-5,119	295,464	143,899
220,480	-5,096	295,163	143,762
221,494	-5,138	294,986	143,621
222,509	-5,047	294,815	143,616
223,523	-5,223	294,699	143,371
224,538	-5,109	294,521	143,386
225,553	-5,119	294,259	143,235
226,567	-5,149	294,067	143,098
227,582	-4,914	293,828	143,203
228,596	-4,892	293,658	143,130
229,611	-5,017	293,502	142,917
230,626	-5,068	293,331	142,770
231,640	-5,052	292,967	142,596
232,655	-5,118	292,878	142,474
233,669	-5,052	292,701	142,441
234,684	-5,147	292,485	142,229
235,699	-5,008	292,352	142,289
236,713	-4,851	292,202	142,359
237,728	-4,897	291,840	142,124
238,742	-5,005	291,614	141,895
239,757	-4,987	291,325	141,759
240,772	-5,002	291,216	141,679
241,786	-5,069	291,092	141,540
242,801	-5,121	290,995	141,429
243,815	-4,958	290,767	141,466
244,830	-5,053	290,703	141,329
245,844	-4,986	290,350	141,211
246,859	-4,945	290,201	141,165
247,874	-4,926	289,938	141,044
248,888	-5,027	289,659	140,797
249,903	-5,045	289,561	140,719
250,917	-5,183	289,369	140,478
251,932	-5,098	289,189	140,461
252,947	-5,097	288,871	140,296
253,961	-5,350	288,610	139,910
254,976	-5,811	288,267	139,282
255,990	-5,582	288,345	139,531
257,005	-3,827	288,809	141,451
258,020	-1,446	289,591	144,144
259,034	-0,065	289,877	145,620
260,049	0,221	289,959	145,927
261,063	0,646	289,966	146,332
262,078	0,966	289,908	146,601
263,093	1,239	289,886	146,844
264,107	1,450	289,676	146,929
265,122	1,587	289,635	147,029
266,136	1,844	289,394	147,142
267,151	1,888	289,281	147,115
268,166	2,043	288,982	147,100
269,180	1,860	288,931	146,883
270,195	1,843	288,677	146,725
271,209	1,865	288,593	146,690
272,224	1,904	288,297	146,565
273,239	1,614	288,157	146,200
274,253	1,638	288,001	146,131
275,268	1,748	287,686	146,064
276,282	1,828	287,478	146,023
277,297	1,658	287,426	145,819
278,312	1,871	287,126	145,859
279,326	1,839	286,942	145,722
280,341	1,946	286,788	145,733
281,355	1,942	286,593	145,617
282,370	1,735	286,353	145,284
283,384	1,647	286,299	145,159
284,399	1,649	286,099	145,047
285,414	1,630	285,820	144,875
286,428	1,808	285,609	144,925
287,443	1,626	285,605	144,736
288,457	1,636	285,299	144,577
289,472	1,538	285,122	144,381
290,487	1,528	285,021	144,308
291,501	1,494	284,717	144,109
292,516	1,670	284,518	144,162
293,530	1,528	284,359	143,934
294,545	1,550	284,226	143,874
295,560	1,619	284,003	143,815
296,574	1,593	283,804	143,676
297,589	1,431	283,531	143,372
298,603	1,602	283,325	143,417
299,618	1,510	283,273	143,290
300,633	1,444	283,103	143,129
301,647	1,611	282,981	143,212
302,662	1,598	282,685	143,038
303,676	1,767	282,412	143,047
304,691	1,790	282,414	143,056
305,706	1,760	282,251	142,932
306,720	1,619	282,125	142,723
307,735	1,618	282,037	142,665
308,749	1,641	281,649	142,478
309,764	1,759	281,497	142,499
310,779	1,721	281,437	142,421
311,793	1,834	281,041	142,313
312,808	1,805	280,845	142,174
313,822	1,728	280,603	141,967
314,837	1,839	280,498	142,005
315,852	1,778	280,317	141,843
316,866	1,706	280,292	141,751
317,881	1,658	280,016	141,554
318,895	1,600	279,814	141,385
319,910	1,755	279,541	141,379
320,925	1,596	279,398	141,146
321,939	1,693	279,255	141,152
322,954	1,773	279,224	141,197
323,968	1,746	279,072	141,083
324,983	1,773	278,749	140,932
325,997	1,753	278,702	140,877
327,012	1,802	278,305	140,710
328,027	1,782	278,218	140,634
329,041	1,830	278,103	140,608
330,056	1,805	277,925	140,483
331,070	1,918	277,788	140,506
332,085	1,834	277,483	140,261
333,100	1,970	277,333	140,299
334,114	1,944	277,118	140,153
335,129	1,846	276,944	139,962
336,143	1,759	276,755	139,773
337,158	1,727	276,633	139,670
338,173	2,094	276,465	139,912
339,187	1,881	276,382	139,661
340,202	1,927	276,052	139,524
341,216	1,751	275,982	139,314
342,231	1,768	275,888	139,269
343,246	1,769	275,725	139,176
344,260	1,944	275,393	139,157
345,275	1,716	275,341	138,909
346,289	1,768	275,146	138,846
347,304	1,884	274,942	138,837
348,319	1,874	274,716	138,701
349,333	1,899	274,494	138,600
350,348	1,872	274,305	138,467
351,362	1,906	274,211	138,439
352,377	1,958	274,106	138,421
353,392	1,875	273,824	138,190
354,406	2,032	273,629	138,223
355,421	192,122	1347,345	1428,000
356,435	155,176	1478,218	1428,095
