DTS Sentinel unit serial number:	SN410029Multiplexer serial number:	ORYXHardware model number:	OX2-SRSoftware version number:	ORYX F/W v4,00 Oryx Data Collector v3.7.2.0data status	okinstallation	B4 Nyhavnadifferential loss correction	single-endedforward channel	channel 2reverse channel	N/Adate	2023/12/15time	23:00:13forward acquisition time	300,00reverse acquisition time	0,00gamma	499,1914k internal	0,3130k external	0,3130temperature offset calibration	1,0000default loss term (dB/km)	0,3820temperature slope calibration	1,0000multiplexer offset coefficient	1,0000multiplexer slope coefficient	1,0000fibre end	0,00T internal ref (°C)	21,55T ext. ref 1 (°C)	6,67T ext. ref 2 (°C)	6,83length (m)	temperature (°C)	Stokes	anti-Stokes-744,400	800,000	-0,017	-0,038
-743,385	-28,530	-0,322	0,137
-742,371	83,963	-0,045	0,036
-741,356	225,491	-0,181	0,219
-740,342	81,795	0,052	0,042
-739,327	-28,647	-0,183	0,078
-738,312	403,933	-0,019	0,030
-737,298	-150,178	-0,264	0,015
-736,283	800,000	0,022	-0,069
-735,269	241,937	-0,182	0,226
-734,254	-200,000	-0,006	0,042
-733,239	-51,147	-0,392	-0,136
-732,225	385,925	0,042	0,065
-731,210	800,000	-0,081	0,173
-730,196	-94,126	-0,146	0,029
-729,181	-200,000	-0,034	-0,168
-728,167	-200,000	-0,014	0,068
-727,152	15,534	-0,105	0,061
-726,137	240,951	0,069	-0,086
-725,123	-200,000	-0,001	-0,168
-724,108	-200,000	-0,001	-0,114
-723,094	-35,009	-0,152	-0,061
-722,079	-200,000	-0,004	0,122
-721,064	-32,558	-0,028	0,012
-720,050	-200,000	0,022	-0,134
-719,035	800,000	0,018	-0,056
-718,021	-200,000	0,023	-0,137
-717,006	800,000	-0,057	-0,171
-715,991	-200,000	-0,027	-0,169
-714,977	-200,000	0,031	-0,124
-713,962	411,737	0,023	0,036
-712,948	-200,000	-0,001	0,036
-711,933	196,531	-0,029	0,033
-710,918	214,120	-0,200	-0,235
-709,904	-200,000	0,022	-0,117
-708,889	48,634	-0,060	0,041
-707,875	-200,000	-0,032	-0,115
-706,860	-33,558	0,043	-0,018
-705,845	-7,900	0,077	-0,039
-704,831	391,964	-0,057	0,088
-703,816	13,139	0,113	0,065
-702,802	142,887	0,067	-0,066
-701,787	350,091	0,040	-0,059
-700,772	-102,070	0,061	-0,011
-699,758	800,000	-0,044	-0,105
-698,743	-200,000	0,021	0,145
-697,729	-113,208	-0,038	0,005
-696,714	168,774	0,089	0,094
-695,699	-175,579	-0,059	0,001
-694,685	8,069	-0,151	-0,084
-693,670	800,000	-0,031	0,097
-692,656	-200,000	-0,013	-0,058
-691,641	118,983	0,106	-0,098
-690,627	-97,315	-0,061	0,012
-689,612	607,267	0,039	0,072
-688,597	124,367	-0,115	-0,107
-687,583	-53,557	-0,226	-0,076
-686,568	-99,291	0,160	0,030
-685,554	455,869	-0,039	0,065
-684,539	177,406	-0,075	0,081
-683,524	-200,000	0,025	0,084
-682,510	-70,039	-0,083	-0,023
-681,495	160,803	-0,079	-0,082
-680,481	800,000	-0,041	-0,130
-679,466	-200,000	-0,031	-0,202
-678,451	207,829	-0,059	-0,069
-677,437	-200,000	-0,009	0,039
-676,422	-94,310	0,156	0,031
-675,408	70,143	0,053	-0,041
-674,393	58,733	-0,058	0,043
-673,378	123,173	0,103	-0,095
-672,364	-200,000	-0,002	-0,069
-671,349	-56,597	0,116	0,038
-670,335	-23,653	0,091	0,040
-669,320	-200,000	-0,005	-0,091
-668,305	-112,442	-0,050	-0,007
-667,291	-180,994	-0,054	-0,001
-666,276	-120,492	-0,064	-0,008
-665,262	-200,000	-0,005	0,084
-664,247	-107,741	-0,053	-0,008
-663,232	-200,000	-0,023	-0,106
-662,218	-76,278	0,090	-0,023
-661,203	-40,864	-0,071	0,027
-660,189	-200,000	-0,029	-0,131
-659,174	-158,181	-0,032	0,001
-658,159	322,375	-0,063	-0,090
-657,145	598,923	0,099	-0,183
-656,130	-200,000	-0,016	0,071
-655,116	-77,121	0,165	0,042
-654,101	-171,447	-0,050	-0,001
-653,086	271,485	-0,092	-0,121
-652,072	199,675	0,056	-0,063
-651,057	-138,781	-0,139	0,011
-650,043	42,522	0,092	0,062
-649,028	197,196	0,037	-0,042
-648,014	224,982	0,033	-0,040
-646,999	-200,000	0,012	0,116
-645,984	30,291	0,102	0,064
-644,970	-200,000	-0,003	0,030
-643,955	-200,000	-0,018	-0,070
-642,941	162,081	-0,034	0,035
-641,926	-166,977	-0,041	-0,001
-640,911	-200,000	0,016	-0,162
-639,897	-86,117	0,081	0,018
-638,882	800,000	0,029	-0,087
-637,868	591,009	-0,051	-0,094
-636,853	7,553	-0,110	-0,060
-635,838	-111,265	-0,049	-0,007
-634,824	117,116	-0,164	-0,150
-633,809	56,186	-0,095	-0,068
-632,795	353,829	0,054	0,080
-631,780	-200,000	-0,005	-0,040
-630,765	-200,000	-0,009	-0,044
-629,751	658,902	-0,098	-0,188
-628,736	-94,337	-0,204	-0,041
-627,722	-146,624	-0,040	0,003
-626,707	-200,000	0,034	-0,156
-625,692	-200,000	-0,004	-0,108
-624,678	616,879	0,026	-0,048
-623,663	416,497	0,052	-0,082
-622,649	555,902	0,074	-0,132
-621,634	-200,000	0,009	0,061
-620,619	800,000	-0,011	0,033
-619,605	-200,000	0,018	0,061
-618,590	-200,000	-0,012	-0,060
-617,576	800,000	-0,020	-0,060
-616,561	-120,004	-0,081	0,010
-615,546	-6,243	-0,056	-0,028
-614,532	-200,000	-0,015	-0,052
-613,517	-94,032	-0,091	-0,018
-612,503	800,000	0,009	0,028
-611,488	800,000	-0,022	0,049
-610,474	449,177	0,044	0,073
-609,459	-55,487	0,139	-0,046
-608,444	2,562	0,070	0,038
-607,430	-59,506	0,032	0,010
-606,415	-200,000	0,021	-0,087
-605,401	230,735	0,019	-0,024
-604,386	-161,511	-0,048	0,002
-603,371	299,818	0,088	0,120
-602,357	772,565	0,039	0,080
-601,342	-200,000	-0,003	-0,102
-600,328	-62,336	-0,120	0,037
-599,313	-105,611	0,090	0,015
-598,298	-137,560	0,046	0,004
-597,284	800,000	0,010	0,021
-596,269	153,785	0,052	-0,052
-595,255	534,177	-0,053	-0,093
-594,240	-200,000	0,013	0,076
-593,225	-127,654	-0,163	-0,017
-592,211	288,547	-0,046	-0,061
-591,196	800,000	-0,057	-0,146
-590,182	-158,203	0,172	0,007
-589,167	48,342	-0,022	0,016
-588,152	800,000	-0,045	-0,093
-587,138	352,713	-0,025	0,036
-586,123	800,000	-0,064	-0,150
-585,109	-17,411	0,021	-0,010
-584,094	-58,328	-0,058	0,019
-583,079	-200,000	-0,021	-0,100
-582,065	575,306	0,064	0,116
-581,050	366,378	0,048	0,072
-580,036	-200,000	0,002	-0,031
-579,021	800,000	0,043	-0,120
-578,006	133,358	0,059	-0,056
-576,992	-200,000	0,008	-0,040
-575,977	800,000	-0,022	0,057
-574,963	-200,000	-0,011	0,098
-573,948	512,857	-0,012	0,020
-572,934	-200,000	0,009	-0,084
-571,919	-44,559	-0,148	0,054
-570,904	601,031	-0,020	-0,038
-569,890	24,634	-0,086	0,052
-568,875	-163,218	0,223	0,008
-567,861	216,437	0,084	-0,099
-566,846	-200,000	0,006	0,077
-565,831	800,000	-0,048	0,117
-564,817	800,000	0,005	0,013
-563,802	73,905	0,073	0,057
-562,788	-200,000	-0,055	0,181
-561,773	-200,000	-0,002	0,089
-560,758	800,000	0,033	-0,102
-559,744	265,014	0,050	-0,064
-558,729	-200,000	-0,013	-0,077
-557,715	111,739	0,118	-0,105
-556,700	-73,982	0,061	-0,016
-555,685	-73,561	-0,133	-0,035
-554,671	-200,000	0,004	-0,031
-553,656	-56,244	-0,069	-0,022
-552,642	-200,000	-0,018	0,152
-551,627	-81,465	-0,139	-0,034
-550,612	-66,210	0,151	0,044
-549,598	-30,735	-0,028	0,012
-548,583	-200,000	0,013	0,094
-547,569	-6,749	0,124	0,062
-546,554	361,924	0,076	0,113
-545,539	-17,481	0,176	0,081
-544,525	-200,000	0,017	-0,082
-543,510	701,131	0,045	-0,087
-542,496	209,663	0,070	-0,081
-541,481	44,498	-0,097	0,066
-540,466	800,000	-0,045	-0,107
-539,452	-40,476	-0,161	0,062
-538,437	240,930	-0,079	0,098
-537,423	-200,000	-0,038	0,175
-536,408	68,834	0,157	0,119
-535,393	-6,739	-0,115	-0,058
-534,379	-12,242	0,024	0,012
-533,364	582,088	0,044	-0,080
-532,350	-200,000	-0,039	0,152
-531,335	800,000	0,026	-0,060
-530,321	800,000	0,012	0,025
-529,306	104,883	-0,045	0,039
-528,291	136,099	0,109	-0,105
-527,277	-200,000	-0,009	-0,075
-526,262	173,498	-0,026	0,028
-525,248	20,046	-0,086	0,051
-524,233	-148,205	0,129	0,008
-523,218	265,442	-0,068	-0,088
-522,204	69,119	0,018	0,014
-521,189	-57,561	-0,131	0,042
-520,175	33,412	0,071	0,045
-519,160	-200,000	0,036	-0,134
-518,145	-200,000	0,009	-0,035
-517,131	-58,569	0,064	0,020
-516,116	-42,014	0,022	0,008
-515,102	377,748	0,028	-0,042
-514,087	472,566	-0,123	-0,205
-513,072	-162,739	0,099	-0,003
-512,058	-200,000	-0,005	0,081
-511,043	-200,000	0,017	0,157
-510,029	22,007	0,086	0,052
-509,014	165,933	0,099	0,103
-507,999	-200,000	0,024	-0,106
-506,985	-3,505	-0,105	-0,054
-505,970	-200,000	0,016	-0,148
-504,956	-17,415	-0,065	0,030
-503,941	-200,000	0,003	0,022
-502,926	6,757	0,053	0,029
-501,912	-14,319	0,029	-0,014
-500,897	2,641	0,061	0,033
-499,883	-150,530	-0,103	0,006
-498,868	-144,088	0,095	0,006
-497,853	-200,000	-0,001	0,012
-496,839	15,493	0,088	0,051
-495,824	800,000	0,014	-0,035
-494,810	549,328	0,099	-0,176
-493,795	-200,000	0,025	0,110
-492,781	79,192	-0,117	0,092
-491,766	-1,108	0,056	-0,029
-490,751	800,000	0,017	-0,051
-489,737	119,385	0,078	-0,071
-488,722	-1,213	0,114	-0,059
-487,708	265,408	-0,045	0,058
-486,693	-16,122	0,045	-0,021
-485,678	-84,144	0,068	-0,016
-484,664	534,687	0,053	0,093
-483,649	-64,131	-0,001	-0,000
-482,635	-200,000	0,022	-0,114
-481,620	-200,000	-0,022	-0,079
-480,605	-100,861	-0,102	-0,018
-479,591	-8,085	-0,015	0,007
-478,576	-200,000	0,017	-0,129
-477,562	-73,445	-0,200	-0,053
-476,547	-200,000	0,023	0,076
-475,532	16,383	0,069	-0,040
-474,518	-33,325	0,114	0,046
-473,503	-200,000	0,017	-0,074
-472,489	-51,006	0,126	-0,043
-471,474	73,640	0,024	-0,019
-470,459	-200,000	0,003	0,017
-469,445	-175,357	0,086	0,002
-468,430	-200,000	-0,020	0,110
-467,416	474,947	-0,019	0,032
-466,401	301,271	0,024	0,033
-465,386	800,000	0,037	0,092
-464,372	-200,000	-0,008	-0,079
-463,357	-148,167	-0,101	0,006
-462,343	369,625	-0,005	-0,007
-461,328	-55,655	0,145	0,048
-460,313	-5,561	-0,083	-0,041
-459,299	800,000	-0,027	0,083
-458,284	-200,000	-0,001	-0,029
-457,270	-200,000	0,028	-0,130
-456,255	108,339	-0,071	-0,063
-455,241	-200,000	0,002	-0,142
-454,226	322,106	0,045	-0,063
-453,211	-200,000	0,030	0,130
-452,197	-37,527	0,057	0,022
-451,182	-200,000	-0,040	0,146
-450,168	35,641	-0,129	0,083
-449,153	-65,336	0,104	-0,031
-448,138	800,000	-0,061	0,129
-447,124	-191,096	-0,048	-0,000
-446,109	-200,000	0,018	0,162
-445,095	87,491	-0,098	0,080
-444,080	800,000	0,026	0,066
-443,065	326,633	0,092	0,129
-442,051	-200,000	-0,005	-0,047
-441,036	-124,709	0,023	0,003
-440,022	-108,914	-0,037	-0,006
-439,007	-200,000	0,002	0,038
-437,992	-200,000	0,025	-0,083
-436,978	51,115	0,112	0,078
-435,963	-87,058	0,082	0,018
-434,949	-114,121	-0,081	-0,011
-433,934	296,843	0,007	-0,010
-432,919	800,000	0,040	-0,113
-431,905	-32,819	-0,082	0,033
-430,890	-124,072	0,040	0,005
-429,876	800,000	0,020	0,049
-428,861	11,544	0,030	0,017
-427,846	-55,182	0,033	0,011
-426,832	24,859	0,027	-0,017
-425,817	110,685	-0,073	0,064
-424,803	-200,000	-0,010	-0,039
-423,788	608,334	0,103	-0,190
-422,773	800,000	0,032	0,097
-421,759	114,560	0,170	0,152
-420,744	18,153	0,114	0,066
-419,730	-86,097	-0,051	0,012
-418,715	-73,710	0,130	-0,035
-417,701	-89,893	-0,023	-0,005
-416,686	-174,156	0,097	0,002
-415,671	500,163	-0,097	-0,165
-414,657	540,057	-0,041	-0,072
-413,642	60,948	0,033	-0,024
-412,628	-77,531	-0,134	-0,034
-411,613	-200,000	-0,012	0,121
-410,598	144,860	-0,079	0,078
-409,584	236,880	-0,047	0,057
-408,569	413,115	0,095	0,149
-407,555	-200,000	0,023	0,094
-406,540	-200,000	-0,009	0,107
-405,525	800,000	0,064	0,169
-404,511	41,469	-0,078	0,052
-403,496	-45,021	0,110	-0,040
-402,482	-114,113	0,044	-0,006
-401,467	-200,000	-0,001	-0,025
-400,452	7,912	0,057	0,031
-399,438	-25,285	-0,139	0,060
-398,423	-200,000	0,002	0,053
-397,409	-96,579	-0,005	0,001
-396,394	149,055	-0,074	-0,073
-395,379	-200,000	0,013	-0,064
-394,365	800,000	0,030	0,067
-393,350	-153,035	-0,021	0,001
-392,336	-22,182	0,041	-0,018
-391,321	-111,117	-0,071	-0,011
-390,306	201,402	-0,033	-0,037
-389,292	800,000	-0,055	-0,163
-388,277	314,872	-0,028	-0,039
-387,263	374,034	0,051	0,076
-386,248	317,540	-0,030	-0,042
-385,233	-77,381	0,189	0,048
-384,219	-200,000	-0,002	-0,060
-383,204	305,527	-0,043	-0,058
-382,190	-200,000	-0,074	0,000
-381,175	800,000	0,039	-0,080
-380,160	363,781	-0,021	-0,031
-379,146	-3,666	0,063	-0,032
-378,131	222,387	0,121	0,143
-377,117	-70,286	-0,030	0,008
-376,102	377,571	-0,081	-0,121
-375,088	-30,398	0,065	0,027
-374,073	63,959	0,039	-0,029
-373,058	0,325	-0,108	-0,056
-372,044	-123,009	-0,080	-0,009
-371,029	-87,858	-0,076	-0,017
-370,015	265,539	-0,034	0,043
-369,000	479,144	-0,038	0,063
-367,985	-147,875	0,065	-0,004
-366,971	26,996	-0,135	-0,083
-365,956	44,261	-0,068	-0,046
-364,942	115,891	0,066	0,059
-363,927	328,205	-0,046	0,064
-362,912	-200,000	-0,010	0,050
-361,898	-139,272	0,097	0,008
-360,883	104,587	-0,054	-0,046
-359,869	-65,716	-0,050	-0,015
-358,854	-18,418	-0,171	-0,078
-357,839	398,338	-0,029	-0,045
-356,825	22,972	0,082	0,049
-355,810	125,365	0,112	0,103
-354,796	37,379	-0,108	-0,070
-353,781	101,485	-0,048	-0,041
-352,766	-107,943	0,106	0,017
-351,752	-200,000	0,000	0,121
-350,737	66,366	-0,018	0,014
-349,723	800,000	0,004	-0,012
-348,708	5,849	0,112	0,061
-347,693	60,492	-0,054	-0,039
-346,679	800,000	0,025	-0,078
-345,664	-155,167	-0,050	0,002
-344,650	345,028	0,030	-0,043
-343,635	-67,789	-0,139	-0,040
-342,620	93,100	0,115	0,095
-341,606	-200,000	-0,001	-0,097
-340,591	51,681	0,044	0,031
-339,577	-1,805	0,058	-0,030
-338,562	170,185	-0,038	-0,040
-337,548	514,048	-0,075	0,128
-336,533	-130,886	0,089	0,009
-335,518	-200,000	-0,010	0,056
-334,504	-200,000	0,011	0,069
-333,489	800,000	-0,024	-0,062
-332,475	-187,032	0,106	0,001
-331,460	137,629	-0,036	-0,034
-330,445	-200,000	0,004	-0,033
-329,431	-84,287	0,114	0,026
-328,416	316,159	0,072	0,099
-327,402	-200,000	-0,007	0,029
-326,387	-173,668	0,047	-0,001
-325,372	800,000	-0,053	0,151
-324,358	-86,239	0,035	0,008
-323,343	-200,000	0,007	-0,092
-322,329	13,734	-0,056	-0,032
-321,314	-151,550	0,078	0,004
-320,299	18,151	0,133	0,077
-319,285	800,000	0,067	0,143
-318,270	565,178	-0,072	-0,128
-317,256	800,000	-0,023	-0,060
-316,241	-200,000	0,001	-0,147
-315,226	194,768	-0,103	-0,115
-314,212	-200,000	0,004	0,095
-313,197	36,136	-0,087	0,056
-312,183	-200,000	0,004	-0,073
-311,168	51,605	-0,028	0,019
-310,153	-200,000	-0,007	-0,107
-309,139	425,437	-0,075	-0,119
-308,124	698,992	-0,048	0,092
-307,110	92,660	0,102	0,084
-306,095	800,000	0,043	0,089
-305,080	215,954	-0,131	0,152
-304,066	58,787	-0,041	-0,029
-303,051	9,097	-0,123	0,068
-302,037	800,000	-0,048	0,098
-301,022	122,394	-0,011	-0,010
-300,008	-200,000	-0,012	0,043
-298,993	-6,290	0,119	-0,059
-297,978	800,000	0,044	0,104
-296,964	76,800	-0,070	-0,055
-295,949	37,705	-0,168	-0,109
-294,935	418,931	-0,044	-0,069
-293,920	-23,412	0,075	-0,033
-292,905	349,886	-0,076	0,111
-291,891	270,718	-0,048	-0,062
-290,876	-200,000	-0,006	-0,060
-289,862	146,423	-0,046	0,045
-288,847	81,565	-0,152	-0,120
-287,832	120,009	-0,121	0,109
-286,818	22,590	0,051	0,030
-285,803	16,633	0,140	-0,081
-284,789	14,606	-0,033	-0,019
-283,774	266,849	0,063	0,080
-282,759	-150,514	0,081	-0,004
-281,745	-200,000	0,011	-0,066
-280,730	-200,000	0,007	0,038
-279,716	670,676	0,029	0,054
-278,701	162,178	-0,037	-0,037
-277,686	-89,844	0,116	0,024
-276,672	40,186	0,012	0,008
-275,657	-200,000	-0,011	-0,110
-274,643	-200,000	-0,002	-0,114
-273,628	-200,000	-0,011	0,115
-272,613	-116,482	-0,086	0,012
-271,599	129,308	0,133	0,124
-270,584	-200,000	-0,070	0,315
-269,570	-83,976	-0,088	-0,020
-268,555	-102,357	-0,073	0,013
-267,540	-7,541	-0,046	-0,023
-266,526	215,310	-0,014	-0,017
-265,511	-100,739	-0,079	0,014
-264,497	278,040	0,023	0,031
-263,482	61,843	0,013	0,009
-262,467	-103,292	0,138	-0,023
-261,453	152,041	0,035	-0,035
-260,438	-50,667	0,048	0,016
-259,424	-86,466	-0,073	-0,016
-258,409	-200,000	-0,005	-0,228
-257,395	-6,920	-0,092	0,045
-256,380	63,669	0,062	-0,046
-255,365	-200,000	0,020	0,070
-254,351	-16,780	-0,037	-0,017
-253,336	-55,404	-0,015	0,005
-252,322	-200,000	-0,007	-0,026
-251,307	-200,000	-0,021	-0,075
-250,292	-86,471	-0,085	-0,019
-249,278	-1,745	0,041	-0,021
-248,263	75,718	-0,110	0,085
-247,249	-200,000	-0,007	-0,031
-246,234	-88,793	-0,080	0,017
-245,219	-153,267	-0,165	0,008
-244,205	-200,000	0,010	-0,060
-243,190	800,000	-0,022	-0,062
-242,176	-105,974	0,025	0,004
-241,161	271,251	-0,044	0,057
-240,146	391,349	-0,029	0,045
-239,132	-200,000	-0,005	-0,152
-238,117	-200,000	0,005	0,022
-237,103	-200,000	0,002	-0,043
-236,088	288,602	0,095	-0,125
-235,073	362,688	0,034	-0,050
-234,059	92,808	0,100	-0,082
-233,044	323,059	0,061	0,086
-232,030	163,317	-0,041	0,042
-231,015	6,347	-0,101	0,054
-230,000	264,560	0,046	-0,058
-228,986	800,000	0,002	-0,005
-227,971	-34,256	0,067	-0,027
-226,957	602,226	0,020	0,036
-225,942	234,193	-0,068	0,082
-224,927	-150,936	0,062	-0,003
-223,913	-83,485	-0,015	0,003
-222,898	-152,407	-0,127	0,007
-221,884	-54,297	-0,128	-0,042
-220,869	106,702	0,055	0,047
-219,855	-200,000	-0,014	0,070
-218,840	84,650	-0,086	0,069
-217,825	265,730	-0,025	-0,032
-216,811	-200,000	-0,019	0,080
-215,796	391,739	-0,048	0,074
-214,782	-139,368	-0,054	-0,004
-213,767	-200,000	0,004	0,059
-212,752	-8,024	0,025	-0,012
-211,738	-42,567	-0,140	0,052
-210,723	800,000	-0,008	0,025
-209,709	430,134	0,062	-0,098
-208,694	800,000	-0,028	-0,074
-207,679	-200,000	-0,001	0,087
-206,665	65,337	-0,019	-0,014
-205,650	-200,000	-0,012	0,057
-204,636	800,000	0,017	0,039
-203,621	-200,000	-0,001	0,131
-202,606	800,000	0,053	-0,124
-201,592	-200,000	0,028	-0,145
-200,577	-200,000	-0,003	0,102
-199,563	10,213	-0,076	0,042
-198,548	15,965	0,092	0,053
-197,533	736,694	-0,056	0,109
-196,519	72,857	0,155	-0,118
-195,504	575,863	-0,043	0,077
-194,490	-86,114	-0,085	0,019
-193,475	203,632	-0,134	-0,152
-192,460	-200,000	-0,012	-0,061
-191,446	96,277	0,101	-0,084
-190,431	-200,000	0,008	0,088
-189,417	800,000	-0,003	-0,007
-188,402	-165,006	0,039	-0,001
-187,387	-108,428	-0,184	0,029
-186,373	-200,000	0,012	-0,199
-185,358	800,000	-0,039	-0,102
-184,344	-128,603	0,144	-0,015
-183,329	100,177	0,142	0,120
-182,315	-41,203	-0,122	-0,045
-181,300	760,933	0,004	-0,008
-180,285	71,343	0,042	-0,032
-179,271	-9,396	-0,055	-0,027
-178,256	-76,730	-0,082	-0,021
-177,242	117,900	0,082	0,074
-176,227	-200,000	0,006	0,088
-175,212	11,347	0,113	0,063
-174,198	-61,146	-0,054	-0,016
-173,183	279,219	-0,052	-0,068
-172,169	59,880	-0,080	0,058
-171,154	-142,380	0,084	0,006
-170,139	159,152	0,073	0,074
-169,125	-108,323	0,128	0,020
-168,110	154,270	-0,056	0,056
-167,096	-54,171	0,044	0,014
-166,081	126,841	-0,048	0,044
-165,066	-49,393	-0,053	0,018
-164,052	-61,407	0,108	-0,033
-163,037	-19,251	0,088	0,040
-162,023	40,250	0,104	0,068
-161,008	61,469	0,129	0,093
-159,993	-200,000	0,004	0,032
-158,979	794,963	-0,041	-0,082
-157,964	-200,000	0,002	-0,082
-156,950	-200,000	-0,009	-0,061
-155,935	279,666	-0,030	0,038
-154,920	-48,949	-0,098	0,034
-153,906	-200,000	0,015	0,086
-152,891	-41,399	-0,123	-0,046
-151,877	334,449	0,050	-0,071
-150,862	-3,638	-0,086	0,043
-149,847	112,244	-0,063	0,055
-148,833	632,922	-0,045	0,084
-147,818	602,722	-0,031	0,056
-146,804	800,000	-0,035	0,072
-145,789	-74,393	0,123	0,032
-144,775	197,165	-0,050	-0,056
-143,760	-200,000	0,001	-0,150
-142,745	800,000	-0,015	-0,037
-141,731	-145,980	-0,135	-0,009
-140,716	-168,210	-0,119	-0,003
-139,702	419,195	0,103	0,161
-138,687	171,149	0,099	-0,104
-137,672	-200,000	0,013	-0,045
-136,658	106,323	-0,050	-0,043
-135,643	-36,500	-0,067	-0,026
-134,629	-162,212	0,137	-0,005
-133,614	-200,000	-0,010	0,062
-132,599	-100,874	-0,049	-0,009
-131,585	366,938	0,065	0,096
-130,570	136,176	-0,178	-0,169
-129,556	-140,621	-0,170	0,013
-128,541	-49,804	-0,053	0,018
-127,526	109,942	-0,145	0,127
-126,512	500,346	0,092	-0,154
-125,497	800,000	0,073	0,159
-124,483	-200,000	0,016	-0,053
-123,468	62,579	-0,022	0,016
-122,453	-113,980	-0,098	0,014
-121,439	246,898	-0,061	0,075
-120,424	-200,000	-0,001	-0,035
-119,410	800,000	0,025	-0,061
-118,395	4,106	0,058	0,031
-117,380	112,562	0,075	-0,066
-116,366	158,565	-0,101	0,102
-115,351	35,207	0,128	-0,081
-114,337	202,671	-0,123	-0,138
-113,322	-200,000	0,025	-0,120
-112,307	236,790	-0,015	0,018
-111,293	-200,000	0,051	0,164
-110,278	188,872	0,108	0,118
-109,264	-200,000	-0,016	0,143
-108,249	54,329	0,052	0,036
-107,234	-200,000	0,002	-0,011
-106,220	26,702	0,083	-0,050
-105,205	780,985	-0,023	0,047
-104,191	-94,171	0,072	0,014
-103,176	-200,000	-0,012	0,161
-102,162	-64,939	0,126	-0,037
-101,147	-200,000	-0,009	-0,073
-100,132	-200,000	-0,044	-0,156
-99,118	44,327	0,055	0,037
-98,103	-72,365	0,064	-0,017
-97,089	193,491	0,027	0,030
-96,074	308,704	-0,110	0,149
-95,059	-90,764	-0,077	-0,016
-94,045	-200,000	0,005	-0,071
-93,030	-151,734	-0,065	-0,003
-92,016	23,959	-0,084	-0,050
-91,001	36,616	0,092	-0,059
-89,986	80,991	-0,085	-0,066
-88,972	312,941	0,081	-0,110
-87,957	250,604	0,067	-0,083
-86,943	-29,175	0,041	0,017
-85,928	217,375	0,030	0,035
-84,913	100,268	0,101	-0,085
-83,899	39,011	-0,030	0,020
-82,884	-65,158	-0,094	0,027
-81,870	800,000	0,026	0,077
-80,855	-200,000	0,019	0,152
-79,840	293,507	-0,096	0,128
-78,826	-73,823	-0,106	0,028
-77,811	486,392	-0,031	-0,051
-76,797	800,000	0,057	-0,166
-75,782	-83,508	-0,097	-0,022
-74,767	-123,253	0,048	0,005
-73,753	-60,888	-0,114	-0,035
-72,738	569,013	-0,018	-0,033
-71,724	800,000	-0,044	0,132
-70,709	21,919	-0,079	0,047
-69,694	-172,911	-0,151	0,003
-68,680	123,972	-0,039	0,036
-67,665	-200,000	-0,012	0,120
-66,651	-76,567	-0,026	0,006
-65,636	-3,948	0,049	-0,025
-64,622	93,214	-0,131	-0,107
-63,607	-42,071	-0,078	-0,029
-62,592	204,784	0,051	-0,057
-61,578	800,000	0,030	-0,077
-60,563	751,256	0,035	0,068
-59,549	495,427	-0,069	0,115
-58,534	-122,931	-1,292	-0,149
-57,519	512,533	-0,864	-1,463
-56,505	-200,000	-0,986	-4,387
-55,490	-129,660	0,542	-0,053
-54,476	800,000	4,859	11,417
-53,461	-200,000	14,237	252,950
-52,446	-200,000	694,175	2233,259
-51,432	576,891	1620,681	2879,185
-50,417	117,102	1628,899	1448,646
-49,403	74,282	1283,216	974,729
-48,388	37,582	1020,697	654,281
-47,373	23,662	979,382	582,213
-46,359	22,940	968,865	573,580
-45,344	21,801	964,379	567,198
-44,330	21,805	962,954	566,349
-43,315	21,640	961,597	564,994
-42,300	21,676	960,414	564,392
-41,286	21,588	959,459	563,523
-40,271	21,664	958,258	563,042
-39,257	21,570	957,738	562,410
-38,242	21,582	956,589	561,753
-37,227	21,554	955,848	561,205
-36,213	21,561	954,782	560,577
-35,198	21,549	954,043	560,084
-34,184	21,581	953,471	559,829
-33,169	21,543	952,520	559,128
-32,154	21,580	951,731	558,760
-31,140	21,573	950,792	558,164
-30,125	21,591	950,270	557,892
-29,111	21,634	949,083	557,311
-28,096	21,592	948,369	556,736
-27,082	21,571	947,761	556,289
-26,067	21,581	947,086	555,903
-25,052	21,649	946,094	555,514
-24,038	21,552	945,867	555,052
-23,023	21,590	945,059	554,677
-22,009	21,645	944,550	554,530
-20,994	21,638	943,686	553,978
-19,979	21,586	943,103	553,451
-18,965	21,613	942,382	553,089
-17,950	21,660	941,873	552,919
-16,936	21,519	941,261	552,090
-15,921	21,538	940,594	551,736
-14,906	21,483	939,791	551,068
-13,892	21,456	939,206	550,621
-12,877	21,399	938,577	550,048
-11,863	21,477	937,931	549,895
-10,848	21,443	937,494	549,510
-9,833	21,581	937,046	549,659
-8,819	21,536	936,203	549,002
-7,804	21,513	935,627	548,569
-6,790	21,475	935,124	548,134
-5,775	21,547	934,439	547,936
-4,760	21,498	933,918	547,458
-3,746	21,474	933,369	547,036
-2,731	21,328	932,529	546,063
-1,717	21,307	931,837	545,571
-0,702	21,332	931,042	545,162
0,313	21,087	930,543	544,924
1,327	23,740	928,329	551,884
2,342	31,710	806,519	500,970
3,356	26,689	508,177	307,089
4,371	2,653	373,665	195,290
5,386	-0,424	356,505	182,539
6,400	-2,059	350,331	177,393
7,415	-2,923	347,367	174,844
8,429	-3,169	345,949	173,822
9,444	-3,398	345,174	173,146
10,459	-3,263	344,265	172,834
11,473	-3,246	343,850	172,630
12,488	-2,903	343,316	172,752
13,502	-3,016	342,668	172,277
14,517	-3,120	342,160	171,883
15,531	-3,289	341,510	171,344
16,546	-3,336	340,970	171,003
17,561	-3,322	340,640	170,837
18,575	-3,230	340,294	170,756
19,590	-3,378	339,881	170,361
20,604	-3,250	339,464	170,286
21,619	-3,323	339,016	169,961
22,634	-3,289	338,813	169,885
23,648	-3,337	338,460	169,637
24,663	-3,182	338,081	169,612
25,677	-3,333	337,859	169,310
26,692	-3,352	337,513	169,099
27,707	-3,304	337,154	168,960
28,721	-3,443	336,905	168,658
29,736	-3,313	336,540	168,611
30,750	-3,206	336,178	168,539
31,765	-3,416	336,024	168,204
32,780	-3,444	335,756	168,022
33,794	-3,193	335,352	168,094
34,809	-3,350	335,105	167,775
35,823	-3,276	334,855	167,720
36,838	-3,347	334,425	167,409
37,853	-3,446	334,261	167,198
38,867	-3,332	333,940	167,152
39,882	-3,314	333,624	167,001
40,896	-3,268	333,325	166,888
41,911	-3,376	333,101	166,638
42,926	-3,391	332,878	166,494
43,940	-3,485	332,560	166,213
44,955	-3,411	332,286	166,145
45,969	-3,562	332,189	165,910
46,984	-3,775	331,944	165,531
47,999	-3,761	331,382	165,251
49,013	-3,744	331,229	165,180
50,028	-3,825	330,807	164,862
51,042	-3,977	330,608	164,577
52,057	-3,791	330,295	164,616
53,071	-3,832	330,197	164,507
54,086	-3,781	329,946	164,424
55,101	-3,737	329,693	164,333
56,115	-3,695	329,412	164,226
57,130	-3,374	329,312	164,524
58,144	-3,250	329,015	164,501
59,159	-3,321	328,671	164,234
60,174	-3,270	328,543	164,213
61,188	-3,194	328,407	164,216
62,203	-3,256	328,043	163,950
63,217	-3,494	327,961	163,626
64,232	-3,280	327,444	163,594
65,247	-3,160	327,386	163,685
66,261	-3,372	327,080	163,280
67,276	-3,413	326,646	163,003
68,290	-3,579	326,462	162,710
69,305	-3,516	326,167	162,620
70,320	-3,614	325,807	162,317
71,334	-3,537	325,658	162,314
72,349	-3,195	325,438	162,570
73,363	-3,261	325,316	162,422
74,378	-3,232	324,944	162,253
75,393	-3,240	324,689	162,104
76,407	-3,416	324,550	161,824
77,422	-3,316	324,250	161,771
78,436	-3,376	324,063	161,597
79,451	-3,259	323,795	161,578
80,466	-3,324	323,315	161,252
81,480	-3,451	323,255	161,067
82,495	-3,496	322,858	160,806
83,509	-3,450	322,723	160,775
84,524	-3,464	322,379	160,573
85,539	-3,614	322,162	160,286
86,553	-3,580	321,995	160,226
87,568	-3,520	321,685	160,123
88,582	-3,401	321,492	160,143
89,597	-3,557	321,282	159,854
90,611	-3,536	321,126	159,784
91,626	-3,415	320,937	159,809
92,641	-3,441	320,729	159,663
93,655	-3,538	320,470	159,413
94,670	-3,571	320,150	159,204
95,684	-3,459	319,912	159,194
96,699	-3,463	319,618	159,029
97,714	-3,492	319,328	158,839
98,728	-3,549	319,198	158,698
99,743	-3,622	318,979	158,495
100,757	-3,547	318,440	158,295
101,772	-3,569	318,402	158,238
102,787	-3,538	318,128	158,122
103,801	-3,534	317,954	158,025
104,816	-3,401	317,844	158,100
105,830	-3,445	317,592	157,914
106,845	-3,356	317,407	157,904
107,860	-3,364	317,224	157,790
108,874	-3,540	316,906	157,427
109,889	-3,383	316,649	157,456
110,903	-3,469	316,435	157,242
111,918	-3,553	316,175	157,008
112,933	-3,417	315,892	157,001
113,947	-3,314	315,727	157,015
114,962	-3,364	315,540	156,855
115,976	-3,347	315,394	156,786
116,991	-3,380	315,083	156,582
118,006	-3,508	314,856	156,318
119,020	-3,303	314,727	156,460
120,035	-3,457	314,640	156,238
121,049	-3,420	314,412	156,150
122,064	-3,299	314,018	156,069
123,079	-3,473	313,819	155,771
124,093	-3,478	313,630	155,658
125,108	-3,582	313,335	155,387
126,122	-3,658	312,975	155,114
127,137	-3,684	312,736	154,954
128,151	-3,691	312,654	154,892
129,166	-3,529	312,262	154,856
130,181	-3,697	312,217	154,641
131,195	-3,579	311,984	154,637
132,210	-3,495	311,772	154,607
133,224	-3,270	311,520	154,708
134,239	-3,410	311,304	154,438
135,254	-3,359	310,981	154,318
136,268	-3,476	310,914	154,147
137,283	-3,470	310,609	153,988
138,297	-3,570	310,293	153,713
139,312	-3,653	310,197	153,563
140,327	-3,379	310,014	153,748
141,341	-3,232	309,950	153,858
142,356	-3,151	309,872	153,890
143,370	-2,994	309,434	153,824
144,385	-3,001	309,297	153,735
145,400	-3,147	308,979	153,410
146,414	-3,154	308,776	153,289
147,429	-3,173	308,690	153,212
148,443	-3,145	308,517	153,142
149,458	-3,123	308,248	153,018
150,473	-3,056	308,087	152,995
151,487	-2,992	307,649	152,830
152,502	-3,149	307,668	152,662
153,516	-3,225	307,350	152,411
154,531	-3,096	307,056	152,386
155,546	-3,185	307,008	152,256
156,560	-3,219	306,648	152,029
157,575	-3,271	306,318	151,797
158,589	-3,115	306,036	151,806
159,604	-3,127	305,901	151,713
160,619	-3,050	305,807	151,733
161,633	-3,217	305,683	151,485
162,648	-3,100	305,436	151,470
163,662	-3,151	305,273	151,322
164,677	-3,207	305,052	151,142
165,692	-3,176	304,866	151,068
166,706	-3,047	304,529	151,021
167,721	-3,063	304,388	150,921
168,735	-3,211	304,402	150,761
169,750	-3,146	304,327	150,778
170,764	-2,850	303,972	150,894
171,779	-3,025	303,799	150,614
172,794	-3,014	303,499	150,464
173,808	-3,122	303,177	150,180
174,823	-3,412	302,862	149,713
175,837	-3,471	302,740	149,578
176,852	-3,258	302,662	149,745
177,867	-3,073	302,413	149,798
178,881	-3,111	302,289	149,684
179,896	-2,921	302,021	149,732
180,910	-3,130	301,907	149,449
181,925	-3,200	301,665	149,245
182,940	-3,061	301,440	149,262
183,954	-3,113	301,252	149,102
184,969	-2,994	301,092	149,131
185,983	-3,132	301,034	148,948
186,998	-3,054	300,732	148,865
188,013	-3,022	300,361	148,701
189,027	-3,051	300,366	148,660
190,042	-2,962	300,118	148,615
191,056	-3,014	299,905	148,443
192,071	-2,845	299,735	148,518
193,086	-3,142	299,635	148,153
194,100	-2,864	299,252	148,232
195,115	-2,945	299,060	148,042
196,129	-2,977	298,787	147,861
197,144	-2,894	298,538	147,809
198,159	-2,968	298,290	147,598
199,173	-2,839	298,200	147,670
200,188	-2,908	298,026	147,502
201,202	-2,973	297,717	147,271
202,217	-3,276	297,441	146,815
203,232	-3,458	297,172	146,487
204,246	-3,200	296,999	146,647
205,261	-2,996	296,975	146,828
206,275	-2,933	296,726	146,754
207,290	-3,084	296,730	146,592
208,304	-3,042	296,297	146,407
209,319	-3,008	296,058	146,310
210,334	-3,167	295,917	146,068
211,348	-2,944	295,654	146,148
212,363	-2,996	295,495	146,005
213,377	-3,055	295,403	145,887
214,392	-3,131	295,171	145,684
215,407	-3,076	294,986	145,634
216,421	-3,378	294,539	145,100
217,436	-3,310	294,537	145,154
218,450	-3,223	294,266	145,094
219,465	-3,149	294,128	145,086
220,480	-3,140	294,124	145,081
221,494	-3,075	293,824	144,984
222,509	-3,180	293,592	144,752
223,523	-3,122	293,233	144,620
224,538	-3,167	293,378	144,634
225,553	-3,024	293,009	144,580
226,567	-2,987	292,883	144,542
227,582	-3,019	292,680	144,398
228,596	-2,909	292,623	144,466
229,611	-2,898	292,478	144,392
230,626	-2,963	292,234	144,194
231,640	-3,245	291,831	143,704
232,655	-3,413	291,576	143,401
233,669	-3,619	291,407	143,102
234,684	-3,531	291,188	143,069
235,699	-3,416	291,004	143,079
236,713	-3,422	290,901	143,009
237,728	-3,220	290,651	143,071
238,742	-3,193	290,568	143,044
239,757	-3,080	290,374	143,046
240,772	-3,071	290,172	142,943
241,786	-2,965	290,017	142,958
242,801	-3,185	289,974	142,709
243,815	-3,120	289,637	142,594
244,830	-3,172	289,481	142,453
245,844	-3,178	289,237	142,315
246,859	-3,202	289,123	142,223
247,874	-3,149	288,880	142,142
248,888	-3,244	288,732	141,964
249,903	-3,038	288,435	142,005
250,917	-2,894	288,324	142,078
251,932	-2,806	288,328	142,152
252,947	-2,124	288,416	142,846
253,961	-2,475	288,100	142,336
254,976	-1,943	288,474	143,025
255,990	0,909	289,157	146,123
257,005	1,616	289,364	146,901
258,020	2,987	289,729	148,406
259,034	3,363	289,594	148,688
260,049	3,278	289,385	148,486
261,063	3,065	289,076	148,107
262,078	3,136	289,034	148,141
263,093	3,653	288,958	148,589
264,107	3,934	288,787	148,761
265,122	3,907	288,835	148,746
266,136	4,211	288,518	148,863
267,151	4,022	288,468	148,641
268,166	3,770	288,198	148,246
269,180	3,920	287,938	148,244
270,195	4,006	287,784	148,234
271,209	3,907	287,620	148,041
272,224	3,880	287,404	147,890
273,239	3,585	287,278	147,529
274,253	3,435	287,040	147,250
275,268	3,840	286,843	147,524
276,282	3,843	286,701	147,441
277,297	3,680	286,596	147,217
278,312	4,405	286,417	147,807
279,326	4,291	286,256	147,602
280,341	3,728	286,134	146,987
281,355	3,962	285,576	146,911
282,370	3,739	285,502	146,646
283,384	3,743	285,394	146,582
284,399	3,850	285,183	146,563
285,414	3,889	284,958	146,470
286,428	3,913	284,773	146,385
287,443	3,612	284,538	145,966
288,457	3,415	284,416	145,703
289,472	3,469	284,144	145,601
290,487	3,476	283,990	145,515
291,501	3,301	283,787	145,233
292,516	3,328	283,437	145,067
293,530	3,154	283,261	144,799
294,545	3,596	283,221	145,183
295,560	3,506	283,185	145,067
296,574	3,222	282,951	144,665
297,589	3,554	282,666	144,821
298,603	3,943	282,521	145,100
299,618	3,941	282,506	145,078
300,633	3,702	282,300	144,734
301,647	3,594	282,091	144,512
302,662	3,694	281,805	144,446
303,676	3,423	281,773	144,163
304,691	3,324	281,368	143,850
305,706	3,097	281,113	143,493
306,720	3,139	280,819	143,369
307,735	3,151	280,705	143,311
308,749	3,295	280,723	143,442
309,764	3,516	280,394	143,467
310,779	3,292	280,168	143,130
311,793	3,248	279,878	142,927
312,808	3,123	279,928	142,824
313,822	3,300	279,570	142,793
314,837	3,014	279,536	142,497
315,852	2,858	279,299	142,217
316,866	3,077	279,115	142,314
317,881	3,195	278,931	142,318
318,895	3,223	278,692	142,210
319,910	2,895	278,552	141,821
320,925	3,059	278,287	141,826
321,939	3,092	278,424	141,914
322,954	3,009	278,288	141,754
323,968	3,172	278,084	141,789
324,983	3,333	278,032	141,899
325,997	3,222	277,749	141,639
327,012	3,342	277,355	141,536
328,027	3,438	277,121	141,493
329,041	3,391	276,932	141,340
330,056	3,383	276,957	141,333
331,070	3,293	276,731	141,122
332,085	3,327	276,428	140,987
333,100	3,487	276,380	141,097
334,114	3,324	276,126	140,805
335,129	2,897	275,892	140,281
336,143	3,330	275,953	140,697
337,158	3,500	275,878	140,802
338,173	3,321	275,551	140,459
339,187	3,282	275,233	140,248
340,202	3,460	275,050	140,305
341,216	3,428	275,091	140,285
342,231	3,534	274,933	140,288
343,246	3,543	274,760	140,195
344,260	3,282	274,693	139,910
345,275	3,454	274,401	139,907
346,289	3,738	274,403	140,154
347,304	3,852	274,036	140,058
348,319	3,502	273,931	139,673
349,333	3,492	273,627	139,496
350,348	3,754	273,450	139,632
351,362	3,856	273,516	139,746
352,377	3,700	273,228	139,445
353,392	3,716	273,172	139,419
354,406	3,856	273,003	139,446
355,421	192,059	1329,805	1408,030
356,435	155,210	1458,633	1408,128
