DTS Sentinel unit serial number:	SN410029Multiplexer serial number:	ORYXHardware model number:	OX2-SRSoftware version number:	ORYX F/W v4,00 Oryx Data Collector v3.7.2.0data status	okinstallation	B4 Nyhavnadifferential loss correction	single-endedforward channel	channel 2reverse channel	N/Adate	2023/12/16time	13:00:13forward acquisition time	300,00reverse acquisition time	0,00gamma	499,1914k internal	0,3126k external	0,3126temperature offset calibration	1,0000default loss term (dB/km)	0,3820temperature slope calibration	1,0000multiplexer offset coefficient	1,0000multiplexer slope coefficient	1,0000fibre end	0,00T internal ref (°C)	24,41T ext. ref 1 (°C)	10,91T ext. ref 2 (°C)	11,05length (m)	temperature (°C)	Stokes	anti-Stokes-744,400	-114,740	-0,051	0,007
-743,385	561,407	-0,142	0,257
-742,371	-135,786	0,160	-0,014
-741,356	406,395	-0,076	0,120
-740,342	-127,880	0,071	0,008
-739,327	276,770	-0,076	0,100
-738,312	710,747	0,043	-0,086
-737,298	33,631	-0,232	0,150
-736,283	-200,000	-0,037	-0,155
-735,269	800,000	-0,107	0,248
-734,254	-13,616	-0,139	-0,067
-733,239	-119,823	-0,343	0,043
-732,225	-200,000	-0,017	0,169
-731,210	-88,547	0,105	0,023
-730,196	234,697	0,126	-0,155
-729,181	-200,000	-0,010	0,091
-728,167	-98,853	0,093	-0,017
-727,152	93,443	-0,086	0,073
-726,137	64,965	-0,151	-0,113
-725,123	800,000	-0,043	0,100
-724,108	132,198	-0,036	0,035
-723,094	-29,427	-0,063	-0,026
-722,079	-32,552	-0,087	-0,036
-721,064	-200,000	0,005	0,080
-720,050	81,396	0,060	0,048
-719,035	438,306	0,104	-0,169
-718,021	105,965	0,084	0,074
-717,006	-79,069	-0,072	-0,018
-715,991	-75,915	-0,136	-0,036
-714,977	192,390	-0,070	-0,079
-713,962	131,768	0,043	-0,041
-712,948	800,000	0,045	0,107
-711,933	-200,000	0,021	0,148
-710,918	103,371	-0,111	0,097
-709,904	112,383	0,058	-0,052
-708,889	-200,000	-0,006	0,022
-707,875	48,930	-0,061	0,042
-706,860	800,000	0,052	0,148
-705,845	96,391	0,077	0,065
-704,831	105,037	0,055	-0,048
-703,816	210,889	-0,069	-0,080
-702,802	385,981	0,035	-0,054
-701,787	-122,581	-0,187	0,022
-700,772	-200,000	0,006	-0,068
-699,758	800,000	0,011	-0,030
-698,743	-123,093	0,128	0,015
-697,729	-200,000	-0,011	0,108
-696,714	-33,610	0,073	0,030
-695,699	800,000	-0,020	0,059
-694,685	-200,000	-0,010	0,070
-693,670	800,000	-0,030	0,075
-692,656	800,000	-0,015	0,042
-691,641	-200,000	-0,028	0,120
-690,627	-4,766	0,132	0,067
-689,612	166,151	0,048	-0,051
-688,597	358,668	0,086	0,128
-687,583	-80,390	-0,026	-0,006
-686,568	-89,504	0,130	-0,028
-685,554	77,735	0,053	-0,042
-684,539	17,145	0,040	0,023
-683,524	-200,000	-0,002	0,107
-682,510	185,777	-0,037	-0,041
-681,495	-51,900	-0,029	-0,010
-680,481	280,940	-0,033	-0,043
-679,466	-200,000	-0,010	-0,086
-678,451	-94,465	0,043	0,009
-677,437	-127,664	-0,132	-0,014
-676,422	-106,566	0,077	-0,013
-675,408	-22,600	0,161	0,072
-674,393	-200,000	0,038	0,143
-673,378	655,880	0,062	-0,119
-672,364	-118,420	-0,111	-0,014
-671,349	55,924	0,087	-0,063
-670,335	800,000	-0,022	0,070
-669,320	161,558	0,024	0,025
-668,305	-200,000	0,001	0,114
-667,291	800,000	-0,078	0,164
-666,276	-13,936	-0,106	0,051
-665,262	189,544	-0,128	-0,142
-664,247	-67,543	-0,121	-0,035
-663,232	421,855	0,057	0,092
-662,218	-82,325	0,146	0,035
-661,203	125,144	-0,128	-0,119
-660,189	126,718	0,108	0,101
-659,174	50,141	-0,152	-0,106
-658,159	8,743	-0,028	-0,015
-657,145	369,407	-0,076	-0,115
-656,130	-112,101	-0,129	-0,019
-655,116	800,000	-0,028	0,091
-654,101	800,000	-0,039	0,110
-653,086	22,398	-0,121	-0,073
-652,072	-200,000	0,001	0,023
-651,057	96,715	0,162	0,138
-650,043	470,712	-0,064	-0,108
-649,028	6,905	-0,050	-0,028
-648,014	800,000	-0,029	0,075
-646,999	-32,547	0,099	0,041
-645,984	-137,170	0,054	0,005
-644,970	-37,546	-0,086	-0,034
-643,955	-200,000	0,010	0,045
-642,941	236,117	0,021	0,025
-641,926	800,000	0,022	0,066
-640,911	78,124	0,107	0,085
-639,897	-200,000	0,010	0,132
-638,882	-31,989	-0,150	0,062
-637,868	236,265	-0,036	-0,044
-636,853	25,236	0,080	0,049
-635,838	-32,312	-0,137	0,057
-634,824	670,006	-0,039	-0,075
-633,809	-200,000	-0,000	-0,068
-632,795	-175,892	-0,078	-0,002
-631,780	169,739	0,077	-0,082
-630,765	-200,000	0,003	-0,053
-629,751	70,693	-0,140	-0,107
-628,736	68,314	-0,052	-0,039
-627,722	-28,205	0,021	-0,009
-626,707	-87,152	-0,088	-0,020
-625,692	44,294	0,034	-0,023
-624,678	800,000	0,011	0,032
-623,663	800,000	-0,023	-0,062
-622,649	-200,000	-0,016	-0,123
-621,634	-200,000	-0,024	-0,114
-620,619	595,897	-0,110	-0,203
-619,605	272,063	0,046	0,060
-618,590	-200,000	-0,032	0,130
-617,576	-149,465	-0,047	-0,003
-616,561	800,000	-0,026	0,061
-615,546	-119,910	-0,069	-0,009
-614,532	-79,455	-0,152	0,038
-613,517	800,000	-0,054	-0,132
-612,503	-106,988	-0,150	-0,024
-611,488	28,597	0,037	0,023
-610,474	-200,000	0,020	-0,095
-609,459	137,876	0,092	-0,089
-608,444	628,861	-0,045	0,084
-607,430	42,030	0,033	0,022
-606,415	-200,000	-0,011	0,061
-605,401	-40,730	0,138	0,053
-604,386	-200,000	0,007	0,054
-603,371	311,316	0,080	0,111
-602,357	800,000	-0,042	-0,092
-601,342	-49,807	-0,013	-0,005
-600,328	-200,000	-0,010	0,038
-599,313	16,854	-0,056	0,033
-598,298	148,684	-0,021	-0,021
-597,284	-200,000	0,002	0,012
-596,269	368,500	0,050	-0,076
-595,255	-114,372	0,094	-0,013
-594,240	60,617	0,026	0,019
-593,225	222,454	0,037	-0,044
-592,211	798,561	-0,024	-0,049
-591,196	655,235	0,029	-0,056
-590,182	68,481	0,082	-0,062
-589,167	-129,848	0,058	0,006
-588,152	486,096	0,065	-0,110
-587,138	-200,000	0,006	0,045
-586,123	-200,000	0,004	-0,064
-585,109	94,632	-0,151	-0,127
-584,094	800,000	0,023	-0,066
-583,079	-5,953	-0,008	-0,004
-582,065	664,753	0,046	0,088
-581,050	-126,893	0,041	0,004
-580,036	800,000	0,056	-0,124
-579,021	-200,000	-0,040	-0,169
-578,006	800,000	-0,017	-0,041
-576,992	800,000	0,016	-0,033
-575,977	728,321	0,044	-0,087
-574,963	115,271	-0,100	-0,091
-573,948	-148,559	0,194	-0,012
-572,934	800,000	0,030	-0,078
-571,919	-200,000	-0,021	-0,133
-570,904	-31,275	0,086	-0,036
-569,890	-28,863	-0,133	0,056
-568,875	-200,000	-0,023	-0,198
-567,861	185,540	0,075	0,083
-566,846	-0,958	-0,026	0,013
-565,831	-200,000	-0,018	0,092
-564,817	-185,495	-0,131	-0,001
-563,802	252,156	-0,053	-0,067
-562,788	-200,000	-0,001	0,029
-561,773	800,000	0,038	-0,102
-560,758	100,996	0,059	-0,051
-559,744	253,107	0,013	0,016
-558,729	-200,000	-0,010	-0,063
-557,715	800,000	-0,050	-0,129
-556,700	-200,000	0,015	0,051
-555,685	-101,383	-0,080	-0,014
-554,671	-147,747	0,092	0,006
-553,656	74,951	0,035	0,027
-552,642	755,508	-0,021	0,043
-551,627	21,144	0,087	-0,052
-550,612	429,832	-0,009	-0,015
-549,598	-200,000	0,002	-0,030
-548,583	266,855	-0,108	-0,140
-547,569	-114,647	0,052	-0,007
-546,554	-156,060	0,114	0,005
-545,539	-79,533	-0,046	0,011
-544,525	-153,354	0,025	0,001
-543,510	47,733	-0,056	0,039
-542,496	115,401	-0,045	-0,041
-541,481	-200,000	0,000	0,042
-540,466	-200,000	-0,002	0,019
-539,452	-200,000	-0,000	-0,114
-538,437	364,272	-0,106	0,157
-537,423	-200,000	0,006	0,126
-536,408	-200,000	-0,014	-0,095
-535,393	238,560	-0,016	-0,019
-534,379	-200,000	0,002	-0,069
-533,364	-200,000	0,031	-0,110
-532,350	287,637	0,083	-0,111
-531,335	800,000	0,035	0,090
-530,321	-111,890	0,169	-0,025
-529,306	-200,000	-0,013	-0,141
-528,291	-108,052	-0,053	0,008
-527,277	102,726	-0,061	0,053
-526,262	800,000	0,056	0,124
-525,248	202,006	0,045	0,051
-524,233	-72,773	-0,093	0,025
-523,218	-42,786	0,088	0,033
-522,204	-157,795	0,081	-0,003
-521,189	-123,634	0,053	-0,006
-520,175	608,815	0,047	0,086
-519,160	-200,000	0,005	-0,118
-518,145	800,000	-0,022	0,070
-517,131	800,000	0,016	0,036
-516,116	104,479	0,083	0,073
-515,102	-167,229	-0,030	-0,001
-514,087	-200,000	0,002	-0,014
-513,072	230,514	-0,056	-0,067
-512,058	64,269	-0,179	0,133
-511,043	61,268	0,046	-0,034
-510,029	-54,123	0,176	0,059
-509,014	-72,688	-0,136	0,037
-507,999	-200,000	0,034	0,119
-506,985	33,560	-0,104	0,067
-505,970	161,355	-0,138	0,142
-504,956	-200,000	0,001	-0,056
-503,941	214,555	-0,072	-0,085
-502,926	-11,845	0,058	-0,028
-501,912	800,000	0,029	-0,072
-500,897	99,081	-0,118	0,101
-499,883	800,000	0,006	0,013
-498,868	406,830	-0,036	-0,056
-497,853	-101,478	-0,094	-0,017
-496,839	-59,551	0,079	-0,025
-495,824	97,521	0,049	0,041
-494,810	-200,000	0,003	-0,062
-493,795	56,088	-0,148	-0,106
-492,781	145,330	-0,033	-0,033
-491,766	-30,220	-0,112	0,047
-490,751	148,062	-0,111	0,110
-489,737	-127,681	-0,099	-0,010
-488,722	800,000	0,048	0,127
-487,708	-200,000	-0,006	-0,123
-486,693	73,125	-0,080	0,062
-485,678	92,715	-0,034	-0,028
-484,664	97,520	-0,032	0,027
-483,649	-122,377	-0,113	0,013
-482,635	-200,000	0,029	-0,141
-481,620	736,541	0,034	-0,068
-480,605	-91,768	-0,080	0,017
-479,591	200,086	-0,042	0,047
-478,576	-132,855	-0,085	-0,008
-477,562	-200,000	0,006	-0,124
-476,547	-200,000	-0,020	-0,072
-475,532	-122,808	0,048	0,006
-474,518	-200,000	0,032	-0,130
-473,503	-24,413	0,099	0,043
-472,489	-77,269	0,047	0,012
-471,474	-63,469	0,113	-0,034
-470,459	11,904	0,088	0,050
-469,445	-200,000	0,001	-0,096
-468,430	52,319	0,051	-0,036
-467,416	136,937	0,016	0,015
-466,401	-200,000	-0,038	0,123
-465,386	475,024	0,078	0,130
-464,372	-81,770	-0,074	-0,018
-463,357	88,710	-0,018	-0,015
-462,343	-128,950	-0,153	0,016
-461,328	-18,903	-0,013	0,006
-460,313	93,779	-0,065	-0,054
-459,299	27,644	0,158	0,098
-458,284	49,245	0,064	-0,044
-457,270	298,859	0,063	0,085
-456,255	-200,000	0,005	-0,019
-455,241	800,000	-0,013	-0,035
-454,226	-17,040	0,044	-0,020
-453,211	-4,043	-0,061	-0,031
-452,197	332,555	0,009	-0,013
-451,182	800,000	-0,043	0,115
-450,168	77,760	0,139	0,109
-449,153	-109,493	0,014	-0,002
-448,138	-200,000	0,010	0,127
-447,124	0,907	0,072	0,038
-446,109	147,951	0,130	-0,129
-445,095	113,172	0,048	0,043
-444,080	312,475	-0,024	0,033
-443,065	-200,000	-0,008	-0,086
-442,051	151,601	-0,072	0,072
-441,036	-200,000	-0,007	-0,175
-440,022	-127,768	0,049	-0,005
-439,007	-11,736	-0,109	0,052
-437,992	-200,000	0,004	0,080
-436,978	158,553	0,144	0,147
-435,963	-45,286	-0,084	-0,031
-434,949	315,156	-0,078	-0,109
-433,934	77,276	-0,133	0,104
-432,919	800,000	-0,044	-0,123
-431,905	-95,441	0,056	-0,011
-430,890	-83,511	-0,086	0,020
-429,876	800,000	0,075	0,176
-428,861	-38,804	0,050	0,019
-427,846	88,761	-0,062	0,051
-426,832	222,774	0,047	0,056
-425,817	800,000	-0,054	-0,161
-424,803	800,000	-0,008	0,020
-423,788	286,934	0,043	0,057
-422,773	-200,000	0,006	0,069
-421,759	800,000	0,022	0,064
-420,744	-200,000	0,002	0,025
-419,730	152,236	0,046	0,047
-418,715	-116,704	0,089	-0,012
-417,701	447,452	-0,079	0,128
-416,686	800,000	-0,044	0,105
-415,671	111,171	-0,066	0,058
-414,657	-58,201	-0,102	0,033
-413,642	-74,633	-0,119	-0,031
-412,628	800,000	-0,029	-0,080
-411,613	-108,771	-0,096	0,015
-410,598	156,523	-0,079	-0,080
-409,584	-140,404	0,153	0,012
-408,569	197,053	0,009	0,011
-407,555	800,000	-0,039	-0,093
-406,540	800,000	-0,017	0,044
-405,525	800,000	0,025	-0,059
-404,511	296,107	0,021	0,029
-403,496	-97,183	-0,083	0,016
-402,482	-200,000	-0,004	0,101
-401,467	-4,392	-0,060	0,031
-400,452	307,548	-0,105	0,145
-399,438	-200,000	-0,010	0,035
-398,423	135,671	0,049	-0,047
-397,409	470,372	-0,056	0,093
-396,394	-200,000	0,016	-0,074
-395,379	-119,270	-0,040	-0,005
-394,365	-30,969	0,111	0,046
-393,350	88,874	0,177	0,145
-392,336	32,857	0,026	-0,016
-391,321	215,319	0,055	0,064
-390,306	-200,000	-0,019	-0,139
-389,292	-78,252	0,149	-0,037
-388,277	-32,520	-0,105	-0,043
-387,263	-200,000	-0,002	0,151
-386,248	-200,000	0,021	0,078
-385,233	-200,000	0,019	0,129
-384,219	-200,000	-0,008	0,033
-383,204	-200,000	0,016	-0,104
-382,190	-200,000	-0,005	-0,147
-381,175	430,126	0,016	-0,025
-380,160	-200,000	-0,020	0,076
-379,146	507,037	0,060	0,102
-378,131	565,415	0,054	-0,096
-377,117	-200,000	-0,010	-0,109
-376,102	84,098	-0,102	0,082
-375,088	-23,231	-0,068	0,030
-374,073	-160,357	-0,049	0,002
-373,058	-65,731	-0,066	0,019
-372,044	512,856	0,013	0,023
-371,029	-200,000	0,013	-0,061
-370,015	-82,696	0,129	-0,030
-369,000	77,794	0,062	0,049
-367,985	-69,387	-0,127	0,036
-366,971	800,000	-0,006	-0,019
-365,956	-200,000	0,026	0,138
-364,942	282,611	0,073	0,096
-363,927	-200,000	-0,003	-0,044
-362,912	260,908	-0,061	-0,078
-361,898	76,074	-0,099	0,077
-360,883	54,789	-0,049	0,034
-359,869	-75,445	-0,044	-0,011
-358,854	-200,000	0,012	-0,082
-357,839	-72,899	0,132	0,035
-356,825	148,715	0,095	-0,094
-355,810	-200,000	-0,002	0,065
-354,796	-200,000	-0,003	0,014
-353,781	-200,000	-0,031	-0,190
-352,766	-200,000	-0,008	-0,040
-351,752	247,418	-0,092	0,114
-350,737	-200,000	0,016	-0,060
-349,723	26,078	0,107	0,065
-348,708	800,000	-0,097	0,199
-347,693	800,000	0,054	-0,137
-346,679	-200,000	0,009	-0,126
-345,664	-200,000	0,002	-0,020
-344,650	-200,000	-0,001	-0,013
-343,635	-59,998	-0,046	-0,014
-342,620	344,471	0,025	-0,036
-341,606	-200,000	-0,011	0,148
-340,591	-12,494	-0,146	-0,070
-339,577	63,732	0,033	-0,024
-338,562	119,903	-0,023	-0,021
-337,548	110,047	-0,067	0,059
-336,533	-104,729	0,102	-0,017
-335,518	-11,742	0,056	-0,027
-334,504	70,241	0,079	0,060
-333,489	-145,731	0,080	0,005
-332,475	457,852	-0,073	-0,119
-331,460	-200,000	-0,011	-0,063
-330,445	417,215	0,050	-0,078
-329,431	-73,260	0,060	-0,016
-328,416	738,826	-0,055	0,110
-327,402	192,087	-0,069	0,076
-326,387	-200,000	0,001	-0,108
-325,372	-0,425	-0,097	-0,050
-324,358	-105,971	0,069	-0,011
-323,343	204,584	-0,022	-0,025
-322,329	-200,000	0,005	-0,027
-321,314	-38,349	0,047	-0,018
-320,299	-108,552	0,169	-0,026
-319,285	-92,540	-0,098	-0,020
-318,270	300,795	0,046	0,063
-317,256	270,904	0,017	0,021
-316,241	117,066	0,011	-0,010
-315,226	-114,512	0,083	-0,012
-314,212	800,000	0,047	0,137
-313,197	-200,000	0,012	-0,121
-312,183	104,914	-0,122	0,106
-311,168	-14,694	-0,083	-0,039
-310,153	-93,094	0,042	-0,008
-309,139	800,000	0,050	0,160
-308,124	174,480	-0,132	0,140
-307,110	126,978	0,117	0,108
-306,095	414,948	-0,065	0,101
-305,080	98,964	0,003	0,003
-304,066	-54,171	-0,013	0,004
-303,051	-59,376	-0,021	0,007
-302,037	386,709	0,106	-0,160
-301,022	-87,395	-0,100	-0,022
-300,008	86,123	0,038	-0,031
-298,993	-3,848	0,161	-0,082
-297,978	800,000	-0,028	0,077
-296,964	155,758	0,112	-0,113
-295,949	-180,575	-0,110	-0,002
-294,935	-77,183	-0,053	0,013
-293,920	234,374	0,098	-0,118
-292,905	-99,572	0,196	-0,036
-291,891	219,076	0,019	0,023
-290,876	-200,000	-0,023	-0,089
-289,862	-48,830	0,064	-0,022
-288,847	-200,000	-0,025	-0,093
-287,832	-200,000	0,013	-0,085
-286,818	198,609	-0,127	-0,142
-285,803	32,674	-0,069	-0,043
-284,789	762,243	-0,078	0,156
-283,774	-197,636	-0,098	0,000
-282,759	-191,928	0,114	-0,001
-281,745	-17,796	-0,050	-0,023
-280,730	193,640	-0,045	-0,050
-279,716	-200,000	0,028	-0,197
-278,701	319,340	0,062	-0,086
-277,686	-20,657	0,048	-0,021
-276,672	747,724	-0,055	0,109
-275,657	47,880	-0,070	0,047
-274,643	796,240	-0,037	-0,076
-273,628	-200,000	-0,007	-0,029
-272,613	-125,527	0,086	0,009
-271,599	-97,741	0,106	0,020
-270,584	800,000	0,031	0,065
-269,570	-9,147	-0,080	0,039
-268,555	193,292	0,031	0,034
-267,540	-79,509	-0,129	-0,032
-266,526	-30,523	0,077	0,032
-265,511	800,000	-0,036	-0,078
-264,497	-126,715	-0,066	-0,007
-263,482	-78,019	0,087	0,022
-262,467	-200,000	0,010	-0,055
-261,453	57,182	-0,042	0,030
-260,438	-200,000	-0,021	0,109
-259,424	27,163	-0,108	0,066
-258,409	630,100	0,032	0,059
-257,395	-200,000	0,041	0,199
-256,380	82,852	0,071	0,057
-255,365	209,640	0,063	0,072
-254,351	-7,710	-0,117	0,058
-253,336	780,337	-0,031	0,062
-252,322	800,000	0,008	-0,018
-251,307	660,064	0,062	-0,117
-250,292	-200,000	0,005	-0,027
-249,278	-200,000	-0,021	0,140
-248,263	64,586	0,132	-0,097
-247,249	777,633	0,032	0,064
-246,234	800,000	0,049	0,103
-245,219	234,856	-0,112	-0,136
-244,205	-81,339	-0,077	-0,018
-243,190	-44,012	0,063	0,023
-242,176	180,050	0,084	0,090
-241,161	-200,000	-0,021	0,079
-240,146	217,323	0,047	0,055
-239,132	36,984	-0,053	-0,034
-238,117	-200,000	0,018	0,224
-237,103	141,067	0,083	-0,080
-236,088	-93,250	-0,035	-0,007
-235,073	212,450	0,025	0,028
-234,059	-200,000	0,027	0,101
-233,044	-200,000	0,015	0,240
-232,030	123,488	-0,020	0,018
-231,015	800,000	0,025	-0,075
-230,000	-53,876	-0,083	0,027
-228,986	-200,000	-0,005	0,061
-227,971	23,158	-0,032	-0,019
-226,957	-200,000	0,003	0,019
-225,942	107,023	0,120	0,104
-224,927	-200,000	0,009	0,049
-223,913	-141,196	0,039	-0,003
-222,898	373,669	-0,072	0,107
-221,884	12,513	-0,057	-0,032
-220,869	60,361	0,102	-0,074
-219,855	-200,000	0,026	-0,092
-218,840	-101,661	0,034	0,006
-217,825	394,486	-0,027	-0,042
-216,811	-200,000	0,025	-0,095
-215,796	-200,000	0,011	-0,148
-214,782	-16,640	0,096	-0,044
-213,767	-200,000	-0,004	-0,116
-212,752	323,083	0,050	0,069
-211,738	800,000	0,010	0,027
-210,723	85,847	0,079	0,063
-209,709	233,069	0,043	0,051
-208,694	33,062	-0,044	0,028
-207,679	105,156	-0,208	-0,179
-206,665	-200,000	-0,038	0,128
-205,650	-137,359	-0,006	-0,000
-204,636	248,265	0,048	-0,059
-203,621	22,803	0,013	-0,008
-202,606	-99,764	-0,073	0,013
-201,592	-136,503	-0,155	0,013
-200,577	263,382	0,086	-0,109
-199,563	-52,206	-0,066	0,022
-198,548	800,000	0,051	-0,105
-197,533	800,000	0,052	0,139
-196,519	-62,813	0,161	0,048
-195,504	-200,000	0,007	0,082
-194,490	46,607	0,085	-0,057
-193,475	85,643	-0,123	-0,098
-192,460	-126,489	0,011	-0,001
-191,446	-200,000	-0,001	-0,051
-190,431	363,242	0,017	0,024
-189,417	256,448	0,027	0,034
-188,402	-57,700	-0,088	-0,028
-187,387	1,126	-0,101	-0,053
-186,373	-71,948	0,052	-0,014
-185,358	414,620	0,015	-0,023
-184,344	58,683	0,055	-0,039
-183,329	36,610	-0,047	0,030
-182,315	800,000	-0,030	0,073
-181,300	-200,000	-0,002	-0,059
-180,285	109,344	0,084	-0,073
-179,271	-120,740	-0,136	-0,017
-178,256	-200,000	0,005	-0,116
-177,242	6,714	0,101	0,054
-176,227	488,996	0,056	0,094
-175,212	262,213	-0,089	0,113
-174,198	-53,149	-0,031	-0,010
-173,183	-200,000	-0,011	0,072
-172,169	-200,000	-0,012	-0,148
-171,154	-200,000	-0,018	0,172
-170,139	88,069	0,113	0,091
-169,125	-40,477	0,039	-0,015
-168,110	75,620	0,078	0,060
-167,096	800,000	-0,017	-0,050
-166,081	-86,859	0,053	0,012
-165,066	-135,399	0,144	-0,012
-164,052	-200,000	-0,003	-0,057
-163,037	-200,000	-0,004	-0,024
-162,023	173,789	0,029	0,030
-161,008	800,000	0,010	0,032
-159,993	605,714	0,036	0,065
-158,979	-43,923	0,029	0,011
-157,964	-89,148	-0,182	0,039
-156,950	456,738	0,015	0,025
-155,935	-200,000	-0,013	-0,065
-154,920	-144,855	0,196	-0,013
-153,906	-200,000	-0,001	-0,004
-152,891	186,534	-0,050	-0,054
-151,877	-199,148	-0,087	-0,000
-150,862	-76,824	-0,053	-0,013
-149,847	-28,736	0,097	-0,040
-148,833	-200,000	-0,028	-0,145
-147,818	255,073	0,073	0,092
-146,804	125,299	-0,075	0,069
-145,789	156,233	-0,104	0,104
-144,775	399,417	-0,098	-0,150
-143,760	-128,954	0,046	-0,005
-142,745	449,789	-0,023	0,037
-141,731	-200,000	0,016	0,092
-140,716	128,158	0,037	0,034
-139,702	-38,235	0,110	-0,042
-138,687	332,983	-0,098	-0,138
-137,672	50,384	-0,044	0,030
-136,658	117,783	-0,087	-0,078
-135,643	800,000	0,048	-0,151
-134,629	7,374	0,046	-0,025
-133,614	423,407	0,043	-0,068
-132,599	-200,000	-0,011	0,078
-131,585	14,876	0,043	-0,025
-130,570	7,671	-0,106	0,057
-129,556	-200,000	-0,001	-0,089
-128,541	800,000	-0,056	-0,119
-127,526	-1,254	0,127	-0,065
-126,512	-105,268	0,083	0,014
-125,497	-131,638	-0,078	0,007
-124,483	-200,000	0,013	-0,124
-123,468	62,315	-0,041	0,030
-122,453	-102,328	0,051	0,009
-121,439	-200,000	-0,006	0,045
-120,424	800,000	-0,006	-0,017
-119,410	-77,679	-0,042	-0,011
-118,395	-13,281	-0,113	0,053
-117,380	173,577	0,048	-0,050
-116,366	-200,000	0,005	0,029
-115,351	447,343	0,041	-0,066
-114,337	-200,000	-0,013	0,179
-113,322	-200,000	0,027	0,088
-112,307	101,145	0,078	0,066
-111,293	-200,000	-0,029	0,094
-110,278	197,044	0,031	-0,034
-109,264	-200,000	-0,006	0,135
-108,249	800,000	0,068	-0,179
-107,234	800,000	0,004	0,009
-106,220	800,000	0,011	0,023
-105,205	140,386	0,030	0,028
-104,191	-42,815	0,046	0,017
-103,176	-200,000	0,010	0,177
-102,162	-200,000	-0,010	0,087
-101,147	-200,000	0,011	-0,040
-100,132	386,859	0,047	0,070
-99,118	209,891	0,070	0,079
-98,103	-200,000	0,013	-0,044
-97,089	337,399	0,012	0,017
-96,074	227,203	-0,072	0,085
-95,059	234,178	-0,066	0,079
-94,045	131,036	-0,019	-0,017
-93,030	-200,000	0,007	0,027
-92,016	415,593	-0,053	0,082
-91,001	598,966	0,053	0,095
-89,986	-160,647	0,044	-0,002
-88,972	-34,186	0,089	-0,035
-87,957	36,566	0,176	0,112
-86,943	-142,147	0,106	0,008
-85,928	800,000	-0,026	-0,071
-84,913	-94,000	-0,104	0,021
-83,899	800,000	-0,024	-0,056
-82,884	-49,272	0,037	0,013
-81,870	-82,525	-0,074	0,017
-80,855	153,102	-0,094	0,093
-79,840	-30,509	-0,033	0,014
-78,826	-0,849	-0,023	0,012
-77,811	-200,000	-0,018	-0,073
-76,797	800,000	0,018	0,050
-75,782	-200,000	0,000	0,056
-74,767	319,402	0,049	-0,068
-73,753	800,000	-0,033	0,102
-72,738	-87,611	-0,005	-0,001
-71,724	9,649	-0,068	0,037
-70,709	207,363	0,048	-0,055
-69,694	-37,477	-0,085	0,033
-68,680	-200,000	0,018	-0,083
-67,665	-200,000	0,013	0,124
-66,651	-200,000	-0,006	0,044
-65,636	84,452	0,119	0,094
-64,622	289,679	0,017	-0,022
-63,607	763,458	-0,067	-0,133
-62,592	610,781	0,034	-0,062
-61,578	703,727	0,024	-0,046
-60,563	-45,333	0,094	-0,034
-59,549	800,000	-0,044	0,133
-58,534	-123,604	-1,149	0,131
-57,519	669,194	-0,877	-1,653
-56,505	-200,000	-0,773	-4,217
-55,490	211,016	0,524	-0,598
-54,476	800,000	4,872	11,475
-53,461	-200,000	12,164	230,803
-52,446	-200,000	678,150	2205,572
-51,432	589,395	1622,859	2911,424
-50,417	125,827	1647,957	1509,099
-49,403	79,750	1304,427	1014,440
-48,388	41,770	1037,193	680,079
-47,373	26,299	993,333	600,083
-46,359	25,399	983,416	591,093
-45,344	24,631	979,287	586,052
-44,330	24,559	977,571	584,767
-43,315	24,493	976,142	583,670
-42,300	24,465	975,198	582,991
-41,286	24,450	974,172	582,306
-40,271	24,415	973,393	581,701
-39,257	24,448	972,284	581,124
-38,242	24,420	971,378	580,467
-37,227	24,455	970,474	580,019
-36,213	24,435	969,375	579,273
-35,198	24,409	968,514	578,653
-34,184	24,419	967,992	578,350
-33,169	24,393	967,012	577,655
-32,154	24,485	966,141	577,412
-31,140	24,474	965,214	576,800
-30,125	24,431	964,565	576,248
-29,111	24,408	963,742	575,660
-28,096	24,480	962,853	575,341
-27,082	24,448	962,220	574,837
-26,067	24,443	961,430	574,325
-25,052	24,474	960,724	573,979
-24,038	24,423	960,007	573,365
-23,023	24,416	959,231	572,856
-22,009	24,470	958,549	572,601
-20,994	24,481	957,925	572,240
-19,979	24,495	957,397	571,947
-18,965	24,543	956,532	571,560
-17,950	24,455	956,040	570,961
-16,936	24,413	955,442	570,446
-15,921	24,418	954,680	569,984
-14,906	24,341	953,931	569,268
-13,892	24,334	953,300	568,847
-12,877	24,304	952,701	568,371
-11,863	24,270	952,086	567,872
-10,848	24,338	951,448	567,686
-9,833	24,418	951,122	567,727
-8,819	24,392	950,466	567,229
-7,804	24,366	949,649	566,636
-6,790	24,302	949,303	566,202
-5,775	24,383	948,464	565,939
-4,760	24,343	947,912	565,459
-3,746	24,348	947,376	565,133
-2,731	24,190	946,758	564,237
-1,717	24,143	945,881	563,542
-0,702	24,132	945,349	563,168
0,313	23,932	944,793	563,050
1,327	26,500	942,482	569,771
2,342	34,694	822,686	519,853
3,356	30,604	519,810	321,343
4,371	6,567	380,349	204,144
5,386	3,529	362,762	190,908
6,400	1,930	356,566	185,674
7,415	0,977	353,570	182,940
8,429	0,754	352,006	181,845
9,444	0,653	350,986	181,179
10,459	0,638	350,202	180,740
11,473	0,570	349,695	180,381
12,488	0,914	349,200	180,522
13,502	0,835	348,755	180,182
14,517	0,623	348,168	179,609
15,531	0,393	347,400	178,922
16,546	0,195	347,115	178,522
17,561	0,195	346,535	178,209
18,575	0,491	346,140	178,342
19,590	0,248	345,762	177,843
20,604	0,378	345,392	177,791
21,619	0,294	345,008	177,477
22,634	0,375	344,722	177,411
23,648	0,181	344,496	177,049
24,663	0,236	343,994	176,840
25,677	0,219	343,736	176,672
26,692	0,254	343,405	176,527
27,707	0,275	343,040	176,348
28,721	0,296	342,782	176,224
29,736	0,422	342,296	176,107
30,750	0,133	342,279	175,743
31,765	0,108	341,979	175,544
32,780	0,064	341,656	175,311
33,794	0,311	341,235	175,368
34,809	0,253	341,048	175,189
35,823	0,388	340,668	175,136
36,838	0,038	340,513	174,631
37,853	0,064	340,157	174,464
38,867	0,266	339,906	174,555
39,882	0,226	339,562	174,316
40,896	0,159	339,314	174,095
41,911	0,215	338,995	173,982
42,926	0,042	338,744	173,637
43,940	0,073	338,469	173,516
44,955	0,133	338,208	173,436
45,969	-0,046	337,929	173,070
46,984	-0,133	337,633	172,803
47,999	-0,279	337,276	172,435
49,013	-0,328	336,893	172,168
50,028	-0,509	336,655	171,821
51,042	-0,457	336,239	171,654
52,057	-0,570	336,104	171,439
53,071	-0,514	335,901	171,385
54,086	-0,441	335,637	171,319
55,101	-0,481	335,373	171,123
56,115	-0,098	335,367	171,545
57,130	0,270	335,187	171,860
58,144	0,341	334,951	171,805
59,159	0,316	334,706	171,635
60,174	0,387	334,547	171,619
61,188	0,538	334,154	171,575
62,203	0,413	333,889	171,281
63,217	0,422	333,448	171,050
64,232	0,352	333,444	170,953
65,247	0,772	333,124	171,252
66,261	0,527	332,696	170,738
67,276	0,235	332,365	170,221
68,290	-0,134	332,210	169,707
69,305	-0,084	331,933	169,607
70,320	0,033	331,665	169,588
71,334	0,256	331,372	169,676
72,349	0,400	331,256	169,765
73,363	0,533	331,081	169,810
74,378	0,420	330,895	169,572
75,393	0,377	330,564	169,338
76,407	0,268	330,361	169,096
77,422	0,364	330,063	169,037
78,436	0,578	329,861	169,159
79,451	0,462	329,569	168,865
80,466	0,273	329,262	168,480
81,480	0,132	328,791	168,065
82,495	-0,032	328,660	167,798
83,509	0,374	328,278	168,044
84,524	0,031	328,215	167,612
85,539	-0,202	327,722	167,085
86,553	-0,159	327,651	167,082
87,568	-0,139	327,493	167,008
88,582	-0,009	327,159	166,969
89,597	0,037	327,048	166,949
90,611	0,016	326,831	166,799
91,626	0,478	326,674	167,220
92,641	0,209	326,346	166,737
93,655	0,222	326,128	166,626
94,670	0,100	325,938	166,378
95,684	0,162	325,607	166,263
96,699	0,149	325,469	166,163
97,714	-0,068	325,278	165,810
98,728	-0,111	325,043	165,627
99,743	-0,061	324,661	165,474
100,757	-0,122	324,414	165,266
101,772	0,002	324,219	165,289
102,787	0,092	324,011	165,267
103,801	0,215	323,744	165,253
104,816	0,231	323,576	165,169
105,830	0,314	323,345	165,128
106,845	0,391	323,211	165,129
107,860	0,288	322,917	164,851
108,874	0,403	322,790	164,899
109,889	0,249	322,415	164,523
110,903	0,149	322,258	164,318
111,918	0,270	321,992	164,301
112,933	0,267	321,761	164,165
113,947	0,255	321,613	164,062
114,962	0,364	321,427	164,072
115,976	0,331	320,992	163,798
116,991	0,299	320,832	163,667
118,006	0,253	320,605	163,487
119,020	0,223	320,522	163,397
120,035	0,392	320,465	163,538
121,049	0,397	320,302	163,445
122,064	0,287	319,949	163,132
123,079	0,369	319,730	163,094
124,093	0,144	319,457	162,696
125,108	-0,027	319,035	162,280
126,122	-0,113	318,574	161,938
127,137	-0,421	318,441	161,522
128,151	-0,097	318,335	161,805
129,166	-0,014	318,141	161,782
130,181	-0,203	317,830	161,405
131,195	-0,011	317,591	161,477
132,210	0,160	317,506	161,604
133,224	0,126	317,348	161,472
134,239	0,286	317,129	161,520
135,254	0,296	316,961	161,430
136,268	0,134	316,671	161,094
137,283	-0,057	316,251	160,660
138,297	-0,161	315,947	160,380
139,312	-0,079	315,685	160,321
140,327	0,291	315,650	160,685
141,341	0,621	315,457	160,926
142,356	0,562	315,481	160,861
143,370	0,685	315,317	160,895
144,385	0,742	314,963	160,761
145,400	0,464	314,900	160,417
146,414	0,695	314,633	160,513
147,429	0,731	314,409	160,423
148,443	0,801	313,938	160,244
149,458	0,592	313,817	159,945
150,473	0,707	313,757	160,022
151,487	0,543	313,563	159,735
152,502	0,629	313,274	159,665
153,516	0,523	313,164	159,481
154,531	0,448	312,773	159,188
155,546	0,612	312,585	159,253
156,560	0,513	312,385	159,031
157,575	0,470	312,110	158,832
158,589	0,520	311,941	158,784
159,604	0,447	311,872	158,659
160,619	0,648	311,363	158,598
161,633	0,531	311,260	158,408
162,648	0,560	310,952	158,267
163,662	0,699	310,873	158,359
164,677	0,521	310,740	158,090
165,692	0,563	310,604	158,050
166,706	0,588	310,341	157,929
167,721	0,492	310,049	157,665
168,735	0,518	310,017	157,662
169,750	0,746	309,734	157,744
170,764	0,696	309,591	157,605
171,779	0,810	309,402	157,613
172,794	0,891	309,185	157,574
173,808	0,508	308,964	157,046
174,823	0,157	308,591	156,476
175,837	0,017	308,327	156,182
176,852	0,558	308,297	156,717
177,867	0,765	308,126	156,832
178,881	0,894	308,038	156,909
179,896	0,720	307,768	156,576
180,910	0,760	307,546	156,491
181,925	0,672	307,478	156,350
182,940	0,938	307,232	156,488
183,954	0,859	306,933	156,240
184,969	0,757	306,761	156,032
185,983	0,549	306,595	155,718
186,998	0,678	306,248	155,661
188,013	0,764	306,068	155,645
189,027	0,802	305,834	155,552
190,042	0,891	305,744	155,584
191,056	0,821	305,688	155,469
192,071	0,967	305,440	155,480
193,086	0,927	305,235	155,321
194,100	0,878	305,012	155,143
195,115	0,880	304,759	155,002
196,129	0,750	304,392	154,668
197,144	0,764	304,249	154,596
198,159	0,863	304,099	154,608
199,173	0,895	303,918	154,534
200,188	1,019	303,847	154,612
201,202	0,665	303,439	154,028
202,217	0,172	302,940	153,256
203,232	0,202	302,655	153,128
204,246	0,559	302,701	153,503
205,261	0,795	302,594	153,677
206,275	0,866	302,453	153,664
207,290	0,655	302,311	153,363
208,304	0,806	302,063	153,377
209,319	0,803	301,793	153,224
210,334	0,907	301,498	153,166
211,348	0,790	301,391	152,979
212,363	0,929	301,102	152,960
213,377	0,758	301,054	152,748
214,392	0,835	300,757	152,662
215,407	0,691	300,499	152,371
216,421	0,458	300,249	151,995
217,436	0,459	300,005	151,859
218,450	0,675	299,839	151,980
219,465	0,724	299,777	151,984
220,480	0,823	299,718	152,041
221,494	0,861	299,490	151,950
222,509	0,557	299,378	151,573
223,523	0,841	299,188	151,750
224,538	0,797	299,002	151,598
225,553	0,880	298,860	151,595
226,567	0,962	298,567	151,516
227,582	0,847	298,419	151,311
228,596	0,820	298,384	151,253
229,611	0,877	298,210	151,209
230,626	1,008	297,849	151,144
231,640	0,533	297,311	150,382
232,655	0,204	296,947	149,855
233,669	0,040	296,669	149,536
234,684	-0,087	296,734	149,430
235,699	0,072	296,477	149,445
236,713	0,252	296,328	149,536
237,728	0,546	296,386	149,847
238,742	0,662	296,171	149,840
239,757	0,747	295,945	149,797
240,772	0,827	295,780	149,779
241,786	0,876	295,523	149,685
242,801	0,609	295,321	149,304
243,815	0,428	295,260	149,079
244,830	0,559	295,017	149,074
245,844	0,562	294,701	148,904
246,859	0,502	294,570	148,766
247,874	0,598	294,271	148,696
248,888	0,475	294,212	148,531
249,903	0,775	294,118	148,767
250,917	0,850	294,034	148,785
251,932	1,193	293,899	149,043
252,947	1,717	294,114	149,657
253,961	2,048	293,771	149,796
254,976	2,138	293,908	149,942
255,990	3,388	294,286	151,356
257,005	3,879	294,395	151,884
258,020	4,500	294,318	152,444
259,034	4,430	294,035	152,215
260,049	4,328	293,659	151,907
261,063	4,140	293,464	151,607
262,078	4,475	293,428	151,905
263,093	5,032	293,462	152,456
264,107	4,998	293,251	152,300
265,122	5,105	292,959	152,240
266,136	5,375	292,873	152,446
267,151	5,148	292,822	152,184
268,166	4,949	292,396	151,753
269,180	4,584	292,330	151,348
270,195	5,010	292,092	151,628
271,209	4,795	291,950	151,331
272,224	4,715	291,602	151,058
273,239	4,603	291,303	150,781
274,253	4,560	291,296	150,722
275,268	5,319	291,337	151,470
276,282	5,048	290,975	151,005
277,297	5,062	290,906	150,969
278,312	5,344	290,850	151,200
279,326	5,221	290,508	150,890
280,341	4,751	290,266	150,294
281,355	4,654	289,981	150,039
282,370	4,663	289,687	149,882
283,384	4,542	289,666	149,741
284,399	4,761	289,475	149,840
285,414	4,707	289,317	149,693
286,428	4,575	289,010	149,393
287,443	4,431	288,850	149,158
288,457	4,251	288,661	148,874
289,472	4,345	288,374	148,803
290,487	4,457	288,301	148,860
291,501	4,456	287,998	148,689
292,516	4,420	287,756	148,516
293,530	4,294	287,493	148,247
294,545	4,444	287,409	148,334
295,560	4,643	287,373	148,494
296,574	4,329	287,126	148,051
297,589	4,468	287,019	148,117
298,603	4,827	286,937	148,405
299,618	4,923	286,766	148,395
300,633	4,784	286,478	148,100
301,647	4,747	286,180	147,897
302,662	4,689	286,139	147,808
303,676	4,503	285,845	147,465
304,691	4,477	285,568	147,284
305,706	4,081	285,482	146,849
306,720	4,182	285,162	146,768
307,735	4,284	284,863	146,697
308,749	4,368	284,978	146,824
309,764	4,502	284,814	146,854
310,779	4,161	284,565	146,387
311,793	4,547	284,130	146,517
312,808	4,243	284,030	146,164
313,822	4,278	284,066	146,203
314,837	4,190	283,767	145,953
315,852	4,337	283,431	145,906
316,866	4,116	283,401	145,668
317,881	4,322	283,270	145,783
318,895	4,408	282,981	145,702
319,910	4,090	282,818	145,305
320,925	3,979	282,492	145,020
321,939	4,240	282,557	145,286
322,954	4,297	282,277	145,184
323,968	4,298	282,258	145,162
324,983	4,610	282,055	145,338
325,997	4,595	281,902	145,232
327,012	4,624	281,766	145,176
328,027	4,566	281,509	144,976
329,041	4,573	281,224	144,823
330,056	4,615	281,094	144,783
331,070	4,499	280,857	144,540
332,085	4,303	280,661	144,242
333,100	4,529	280,597	144,408
334,114	4,412	280,417	144,193
335,129	4,246	280,195	143,911
336,143	4,449	279,995	143,985
337,158	4,677	280,084	144,231
338,173	4,366	279,846	143,805
339,187	4,408	279,537	143,673
340,202	4,444	279,498	143,673
341,216	4,566	279,068	143,553
342,231	4,553	278,952	143,468
343,246	4,439	278,767	143,255
344,260	4,399	278,652	143,145
345,275	4,716	278,582	143,390
346,289	4,867	278,491	143,471
347,304	4,822	278,213	143,273
348,319	4,562	277,974	142,897
349,333	4,617	277,763	142,826
350,348	4,662	277,720	142,833
351,362	5,005	277,513	143,030
352,377	4,758	277,342	142,702
353,392	4,770	277,132	142,592
354,406	4,750	276,958	142,472
355,421	190,863	1336,719	1413,249
356,435	154,272	1465,983	1413,417
