DTS Sentinel unit serial number:	SN410029Multiplexer serial number:	ORYXHardware model number:	OX2-SRSoftware version number:	ORYX F/W v4,00 Oryx Data Collector v3.7.2.0data status	okinstallation	B4 Nyhavnadifferential loss correction	single-endedforward channel	channel 2reverse channel	N/Adate	2023/12/19time	11:35:13forward acquisition time	300,00reverse acquisition time	0,00gamma	499,1914k internal	0,3127k external	0,3127temperature offset calibration	1,0000default loss term (dB/km)	0,3820temperature slope calibration	1,0000multiplexer offset coefficient	1,0000multiplexer slope coefficient	1,0000fibre end	0,00T internal ref (°C)	19,76T ext. ref 1 (°C)	4,51T ext. ref 2 (°C)	4,45length (m)	temperature (°C)	Stokes	anti-Stokes-744,400	800,000	0,046	-0,099
-743,385	79,948	-0,199	0,159
-742,371	14,069	0,175	0,101
-741,356	6,434	-0,279	0,154
-740,342	800,000	0,017	-0,047
-739,327	-18,866	-0,305	0,141
-738,312	-200,000	-0,003	-0,024
-737,298	-40,861	-0,215	-0,082
-736,283	800,000	0,012	0,035
-735,269	91,383	-0,177	0,148
-734,254	-56,152	0,078	-0,026
-733,239	-84,483	-0,438	-0,102
-732,225	99,535	0,088	0,076
-731,210	-113,130	0,047	-0,007
-730,196	577,850	-0,007	0,012
-729,181	648,372	-0,020	-0,039
-728,167	-200,000	0,009	-0,060
-727,152	-200,000	-0,018	-0,152
-726,137	800,000	-0,016	-0,053
-725,123	-200,000	-0,015	-0,110
-724,108	30,882	-0,205	-0,130
-723,094	-40,856	0,033	-0,012
-722,079	-200,000	0,022	0,091
-721,064	-36,817	-0,145	-0,057
-720,050	140,699	0,095	-0,093
-719,035	22,954	0,065	-0,040
-718,021	-45,686	-0,081	0,030
-717,006	107,364	-0,026	0,023
-715,991	235,544	-0,094	-0,116
-714,977	-9,048	-0,150	-0,075
-713,962	-48,370	-0,095	-0,034
-712,948	121,022	0,065	0,061
-711,933	172,530	0,074	0,080
-710,918	-200,000	-0,002	0,014
-709,904	402,270	-0,085	-0,133
-708,889	-200,000	0,001	-0,018
-707,875	126,012	0,076	0,071
-706,860	-87,452	-0,107	-0,024
-705,845	48,809	0,052	-0,036
-704,831	800,000	0,035	0,114
-703,816	-200,000	0,027	0,198
-702,802	-200,000	0,006	-0,036
-701,787	145,627	-0,110	-0,110
-700,772	-200,000	-0,017	-0,219
-699,758	9,905	-0,058	-0,032
-698,743	-200,000	-0,005	-0,029
-697,729	-54,593	0,105	0,035
-696,714	40,118	0,120	0,080
-695,699	721,399	0,035	-0,070
-694,685	800,000	-0,002	0,004
-693,670	17,292	0,041	-0,024
-692,656	-79,488	-0,129	0,032
-691,641	190,022	-0,014	-0,016
-690,627	-50,864	0,102	0,035
-689,612	-200,000	-0,019	0,106
-688,597	-10,279	-0,075	-0,037
-687,583	-181,883	0,058	0,001
-686,568	-200,000	-0,032	-0,112
-685,554	-5,595	-0,038	0,019
-684,539	800,000	0,034	-0,072
-683,524	-200,000	0,027	0,133
-682,510	185,709	-0,049	0,054
-681,495	-164,290	0,050	-0,002
-680,481	15,607	0,090	0,053
-679,466	20,989	-0,024	0,015
-678,451	-200,000	-0,007	-0,038
-677,437	-200,000	0,004	-0,050
-676,422	-97,476	0,088	-0,017
-675,408	555,233	-0,109	-0,196
-674,393	800,000	-0,032	-0,098
-673,378	-18,427	-0,098	-0,045
-672,364	-200,000	0,003	-0,091
-671,349	9,333	0,033	0,018
-670,335	-200,000	-0,018	0,084
-669,320	-200,000	-0,014	0,101
-668,305	-93,180	0,143	-0,029
-667,291	202,294	-0,092	0,105
-666,276	-152,111	-0,132	0,007
-665,262	-200,000	0,002	-0,098
-664,247	-43,396	-0,125	-0,047
-663,232	384,527	0,043	0,066
-662,218	519,223	-0,010	0,017
-661,203	186,274	-0,086	-0,095
-660,189	245,822	-0,045	-0,056
-659,174	-91,744	-0,085	0,018
-658,159	210,153	0,020	-0,023
-657,145	476,222	-0,025	0,042
-656,130	78,782	0,085	-0,068
-655,116	63,408	0,044	0,033
-654,101	-200,000	-0,003	-0,043
-653,086	176,045	0,006	-0,006
-652,072	85,070	0,078	-0,063
-651,057	128,696	-0,069	0,066
-650,043	163,201	0,047	0,049
-649,028	800,000	0,061	-0,181
-648,014	-200,000	-0,000	-0,004
-646,999	-200,000	-0,010	-0,133
-645,984	-200,000	0,010	0,038
-644,970	663,347	-0,029	0,057
-643,955	-200,000	0,004	-0,061
-642,941	-200,000	-0,008	-0,063
-641,926	-25,919	0,071	-0,031
-640,911	800,000	0,024	-0,074
-639,897	800,000	0,022	0,060
-638,882	366,770	0,066	-0,098
-637,868	-105,329	-0,013	0,002
-636,853	-180,422	0,040	-0,001
-635,838	800,000	-0,047	-0,120
-634,824	735,912	-0,079	-0,158
-633,809	-200,000	-0,014	-0,141
-632,795	280,885	0,044	0,059
-631,780	211,757	-0,077	0,090
-630,765	-200,000	-0,000	0,146
-629,751	-200,000	0,017	0,061
-628,736	-131,131	-0,144	-0,014
-627,722	-200,000	0,021	-0,117
-626,707	800,000	0,020	0,055
-625,692	173,660	0,096	0,103
-624,678	-23,955	0,015	-0,007
-623,663	-200,000	0,014	-0,059
-622,649	348,983	-0,052	0,076
-621,634	-46,381	-0,110	-0,040
-620,619	97,802	-0,050	0,042
-619,605	62,265	-0,119	0,088
-618,590	-66,433	0,056	-0,016
-617,576	-200,000	-0,008	0,075
-616,561	-116,612	0,049	-0,007
-615,546	246,489	0,038	-0,047
-614,532	148,178	0,049	-0,049
-613,517	-200,000	0,000	-0,144
-612,503	-200,000	-0,001	-0,028
-611,488	312,525	0,025	0,035
-610,474	-10,454	-0,081	0,040
-609,459	-112,818	0,069	-0,010
-608,444	800,000	-0,037	-0,095
-607,430	-46,608	-0,157	-0,057
-606,415	135,229	-0,047	0,045
-605,401	4,755	-0,108	-0,058
-604,386	800,000	-0,026	-0,069
-603,371	3,916	0,080	0,043
-602,357	-146,635	-0,126	-0,008
-601,342	48,430	0,050	0,034
-600,328	800,000	0,011	-0,026
-599,313	-159,240	-0,026	0,001
-598,298	-109,046	-0,106	-0,017
-597,284	800,000	-0,019	-0,049
-596,269	-147,434	0,069	-0,004
-595,255	241,110	0,027	-0,033
-594,240	-130,591	-0,119	-0,012
-593,225	-200,000	0,025	-0,098
-592,211	800,000	-0,043	0,131
-591,196	-63,122	0,079	-0,024
-590,182	800,000	-0,048	0,114
-589,167	-193,567	0,040	-0,000
-588,152	-200,000	-0,009	0,064
-587,138	398,655	0,028	0,044
-586,123	405,103	-0,095	0,148
-585,109	800,000	0,022	-0,065
-584,094	800,000	-0,025	0,060
-583,079	-9,087	0,045	0,022
-582,065	536,042	0,051	0,090
-581,050	527,301	0,032	0,056
-580,036	-200,000	0,016	0,209
-579,021	32,912	0,089	0,057
-578,006	349,327	0,025	-0,037
-576,992	131,470	0,034	0,032
-575,977	-120,735	0,120	-0,015
-574,963	-200,000	0,007	-0,033
-573,948	571,369	0,068	-0,123
-572,934	49,193	-0,078	-0,054
-571,919	800,000	-0,066	-0,201
-570,904	184,128	0,027	-0,030
-569,890	532,749	0,028	-0,049
-568,875	800,000	-0,034	0,089
-567,861	28,151	0,104	-0,065
-566,846	-23,534	-0,020	0,009
-565,831	-30,563	0,079	-0,033
-564,817	-200,000	-0,024	-0,083
-563,802	-200,000	-0,012	-0,165
-562,788	5,510	-0,087	0,048
-561,773	-200,000	-0,031	0,150
-560,758	800,000	-0,031	0,066
-559,744	730,643	0,025	-0,049
-558,729	-30,217	0,073	-0,031
-557,715	-200,000	0,015	-0,057
-556,700	73,137	-0,075	0,058
-555,685	-200,000	0,001	-0,115
-554,671	89,611	0,003	-0,002
-553,656	-96,269	0,100	0,019
-552,642	-65,971	0,221	-0,065
-551,627	-189,921	0,112	0,001
-550,612	520,206	0,012	-0,021
-549,598	485,342	-0,057	-0,097
-548,583	-200,000	-0,042	-0,142
-547,569	800,000	-0,009	-0,029
-546,554	246,217	0,085	0,107
-545,539	254,770	0,063	0,080
-544,525	36,831	-0,137	-0,089
-543,510	800,000	0,023	-0,056
-542,496	86,147	0,026	-0,021
-541,481	334,532	-0,058	0,083
-540,466	98,555	0,085	-0,072
-539,452	-200,000	0,002	0,052
-538,437	-78,737	0,186	0,046
-537,423	-124,646	-0,086	0,010
-536,408	15,224	-0,138	-0,080
-535,393	-34,795	-0,104	-0,042
-534,379	-200,000	-0,013	-0,047
-533,364	800,000	0,024	0,072
-532,350	-71,724	-0,041	0,011
-531,335	179,950	0,035	0,038
-530,321	-8,530	-0,050	-0,025
-529,306	800,000	0,036	-0,107
-528,291	148,699	0,044	-0,044
-527,277	92,998	0,038	-0,032
-526,262	-73,366	-0,155	0,042
-525,248	-46,357	-0,008	0,003
-524,233	-67,212	0,106	0,031
-523,218	-200,000	0,032	0,167
-522,204	-71,276	-0,108	-0,030
-521,189	-58,248	0,124	0,040
-520,175	40,080	-0,067	0,044
-519,160	-100,973	-0,099	0,018
-518,145	-200,000	-0,001	-0,127
-517,131	-64,993	0,016	0,005
-516,116	-10,113	0,071	-0,035
-515,102	263,277	-0,089	0,114
-514,087	-23,696	-0,057	0,025
-513,072	757,826	-0,057	-0,115
-512,058	249,805	0,080	0,101
-511,043	-73,789	-0,052	0,014
-510,029	-104,727	0,016	0,003
-509,014	-46,921	-0,128	-0,046
-507,999	800,000	0,035	0,082
-506,985	800,000	0,024	-0,077
-505,970	800,000	-0,031	0,063
-504,956	-200,000	0,036	-0,145
-503,941	334,941	-0,093	-0,134
-502,926	4,730	-0,044	-0,024
-501,912	-37,238	0,112	0,044
-500,897	42,441	0,074	-0,050
-499,883	-136,073	-0,053	0,005
-498,868	-200,000	-0,016	0,074
-497,853	-145,448	-0,030	-0,002
-496,839	449,727	0,064	-0,105
-495,824	-200,000	-0,004	-0,071
-494,810	-42,460	-0,013	0,005
-493,795	-16,281	-0,104	-0,049
-492,781	800,000	-0,035	-0,113
-491,766	370,306	0,017	-0,025
-490,751	-159,244	-0,089	0,004
-489,737	-114,201	0,178	0,025
-488,722	3,469	-0,095	0,051
-487,708	204,208	0,080	-0,091
-486,693	256,693	-0,048	0,061
-485,678	213,917	-0,073	0,085
-484,664	-170,483	-0,144	-0,004
-483,649	-26,012	-0,036	0,016
-482,635	-80,066	-0,106	0,026
-481,620	-200,000	0,004	0,028
-480,605	668,450	0,017	-0,033
-479,591	-26,505	0,010	-0,004
-478,576	115,775	0,094	0,085
-477,562	615,697	-0,053	-0,099
-476,547	126,344	-0,151	-0,141
-475,532	547,120	0,044	-0,077
-474,518	2,392	0,039	-0,021
-473,503	254,850	0,027	0,035
-472,489	132,532	0,067	0,064
-471,474	-200,000	-0,015	-0,159
-470,459	-200,000	-0,008	-0,039
-469,445	800,000	-0,047	-0,101
-468,430	-54,952	-0,110	0,036
-467,416	114,906	0,106	0,096
-466,401	-200,000	0,000	-0,118
-465,386	-145,392	0,082	0,005
-464,372	800,000	-0,035	-0,085
-463,357	-26,706	0,102	-0,044
-462,343	319,383	0,017	0,024
-461,328	-71,118	-0,143	0,039
-460,313	-90,087	0,096	-0,020
-459,299	248,994	-0,101	0,126
-458,284	19,707	0,132	0,078
-457,270	-56,737	-0,079	-0,026
-456,255	-200,000	-0,010	-0,039
-455,241	-51,321	-0,158	-0,054
-454,226	153,243	-0,013	0,014
-453,211	-200,000	0,009	-0,165
-452,197	73,936	0,029	-0,022
-451,182	800,000	0,058	0,136
-450,168	126,013	0,078	0,072
-449,153	257,777	-0,037	0,047
-448,138	57,605	-0,101	-0,073
-447,124	-147,955	-0,149	-0,009
-446,109	-162,458	0,186	-0,007
-445,095	-200,000	-0,032	0,138
-444,080	70,869	-0,109	0,083
-443,065	-40,653	0,140	0,053
-442,051	-98,260	0,034	-0,006
-441,036	800,000	-0,067	-0,214
-440,022	8,947	-0,119	-0,066
-439,007	800,000	-0,015	0,039
-437,992	-200,000	0,019	0,114
-436,978	179,369	-0,034	0,037
-435,963	476,161	0,049	-0,082
-434,949	49,423	-0,079	-0,054
-433,934	213,253	-0,106	-0,124
-432,919	800,000	-0,073	0,199
-431,905	115,623	-0,060	0,054
-430,890	62,332	-0,045	0,033
-429,876	-200,000	0,006	0,134
-428,861	25,825	-0,039	-0,024
-427,846	17,158	-0,143	-0,083
-426,832	-187,266	0,025	-0,000
-425,817	529,410	-0,047	-0,081
-424,803	-47,970	0,080	0,028
-423,788	-200,000	0,019	0,073
-422,773	-127,700	0,086	0,009
-421,759	-15,635	0,080	0,037
-420,744	-150,021	0,056	-0,003
-419,730	-200,000	-0,009	0,088
-418,715	-200,000	-0,005	-0,071
-417,701	-128,561	0,029	-0,003
-416,686	-200,000	0,006	0,028
-415,671	260,122	-0,061	0,077
-414,657	68,831	-0,052	-0,039
-413,642	800,000	0,030	0,064
-412,628	106,289	-0,143	-0,125
-411,613	-103,171	0,080	-0,014
-410,598	-100,323	-0,136	0,025
-409,584	800,000	0,023	-0,049
-408,569	800,000	0,054	0,162
-407,555	20,896	-0,101	0,060
-406,540	-200,000	0,022	0,094
-405,525	-200,000	-0,024	0,142
-404,511	329,143	-0,037	-0,053
-403,496	-58,565	-0,061	0,019
-402,482	162,199	-0,070	0,072
-401,467	72,850	0,038	0,029
-400,452	-200,000	-0,022	0,089
-399,438	-165,905	-0,057	0,002
-398,423	-200,000	0,003	-0,078
-397,409	-67,596	0,095	-0,027
-396,394	338,032	-0,054	-0,077
-395,379	-121,165	0,060	-0,007
-394,365	410,877	0,040	-0,062
-393,350	800,000	0,037	-0,090
-392,336	-78,254	0,080	0,020
-391,321	773,021	0,012	0,023
-390,306	-82,548	-0,132	0,031
-389,292	109,741	0,089	-0,078
-388,277	290,037	0,069	0,093
-387,263	57,450	-0,024	0,017
-386,248	5,637	0,060	0,032
-385,233	94,697	0,048	0,040
-384,219	-73,085	-0,070	-0,019
-383,204	710,329	0,039	-0,075
-382,190	-188,484	-0,209	-0,002
-381,175	-200,000	-0,005	0,095
-380,160	-200,000	0,026	0,087
-379,146	-111,470	0,144	0,021
-378,131	379,259	-0,063	-0,094
-377,117	435,158	0,075	-0,120
-376,102	22,709	-0,050	0,030
-375,088	100,774	-0,078	-0,067
-374,073	-17,654	0,106	-0,049
-373,058	300,576	-0,031	0,042
-372,044	98,269	0,093	0,078
-371,029	-200,000	-0,008	0,063
-370,015	4,852	0,042	-0,023
-369,000	-200,000	0,026	0,083
-367,985	-26,816	-0,116	0,050
-366,971	45,655	-0,130	-0,088
-365,956	-77,089	0,092	-0,023
-364,942	59,827	0,061	0,044
-363,927	800,000	0,044	0,119
-362,912	-200,000	0,005	0,058
-361,898	36,032	0,057	-0,037
-360,883	136,909	0,011	0,010
-359,869	-59,487	-0,150	0,047
-358,854	-200,000	-0,023	0,083
-357,839	-55,686	0,153	0,050
-356,825	735,937	0,095	0,187
-355,810	-200,000	-0,011	-0,043
-354,796	172,404	0,019	-0,020
-353,781	54,107	-0,079	0,056
-352,766	623,619	0,079	-0,146
-351,752	800,000	0,065	0,206
-350,737	-58,727	0,039	0,012
-349,723	168,249	-0,020	-0,021
-348,708	136,804	0,048	-0,046
-347,693	-110,135	-0,087	0,013
-346,679	89,641	0,110	-0,090
-345,664	-200,000	0,036	-0,123
-344,650	-200,000	0,023	0,083
-343,635	-200,000	0,004	-0,063
-342,620	-200,000	0,041	0,183
-341,606	-102,256	0,132	0,023
-340,591	-135,250	-0,196	0,017
-339,577	-161,450	-0,177	0,007
-338,562	125,859	0,017	-0,016
-337,548	-70,419	-0,043	-0,012
-336,533	-200,000	-0,008	0,033
-335,518	-56,234	0,046	-0,015
-334,504	69,421	0,097	0,073
-333,489	65,469	-0,079	-0,059
-332,475	-200,000	-0,007	-0,082
-331,460	-98,416	-0,097	-0,018
-330,445	251,057	-0,019	0,024
-329,431	-40,824	0,050	-0,019
-328,416	-200,000	0,016	0,061
-327,402	800,000	0,038	0,087
-326,387	-130,615	-0,098	-0,010
-325,372	432,047	0,059	-0,094
-324,358	-96,372	0,109	0,021
-323,343	733,772	-0,027	-0,053
-322,329	-139,092	0,034	0,003
-321,314	-200,000	-0,018	0,075
-320,299	123,408	0,086	0,079
-319,285	175,103	0,028	0,029
-318,270	800,000	0,020	-0,058
-317,256	-112,588	-0,182	0,026
-316,241	800,000	-0,027	-0,064
-315,226	800,000	0,054	0,141
-314,212	398,537	-0,020	0,030
-313,197	-30,906	-0,088	-0,036
-312,183	290,665	0,064	0,086
-311,168	-200,000	0,007	0,068
-310,153	-28,486	-0,091	-0,038
-309,139	-200,000	-0,009	-0,046
-308,124	800,000	-0,019	0,047
-307,110	800,000	0,051	-0,113
-306,095	-71,241	-0,079	-0,021
-305,080	157,582	0,080	-0,081
-304,066	-55,179	-0,134	0,044
-303,051	-200,000	-0,016	0,090
-302,037	165,964	0,044	0,046
-301,022	-48,720	-0,166	-0,058
-300,008	24,874	-0,106	0,064
-298,993	800,000	0,059	0,134
-297,978	141,420	0,048	-0,047
-296,964	63,072	0,098	-0,072
-295,949	-200,000	0,000	0,032
-294,935	-84,270	0,047	-0,011
-293,920	181,105	-0,028	0,030
-292,905	-200,000	-0,030	-0,110
-291,891	-200,000	-0,007	0,067
-290,876	162,071	-0,031	-0,032
-289,862	-19,711	-0,052	0,023
-288,847	363,351	-0,032	-0,046
-287,832	800,000	0,040	-0,099
-286,818	68,832	0,067	-0,050
-285,803	-100,669	0,111	-0,020
-284,789	12,482	0,127	-0,071
-283,774	502,466	-0,041	-0,070
-282,759	234,539	0,087	0,105
-281,745	-112,274	-0,148	0,021
-280,730	-113,434	0,084	0,012
-279,716	800,000	0,034	-0,097
-278,701	-38,542	0,111	0,043
-277,686	-200,000	0,006	-0,039
-276,672	-200,000	0,007	0,081
-275,657	163,608	0,059	0,061
-274,643	286,098	-0,008	0,011
-273,628	73,868	-0,088	0,068
-272,613	800,000	-0,040	0,091
-271,599	-48,167	0,044	-0,015
-270,584	-200,000	-0,019	0,098
-269,570	800,000	0,080	0,173
-268,555	-200,000	-0,011	0,115
-267,540	-10,655	-0,033	-0,016
-266,526	43,309	-0,079	-0,052
-265,511	234,565	-0,094	-0,113
-264,497	66,014	0,079	0,058
-263,482	423,865	0,063	-0,099
-262,467	36,177	0,073	-0,047
-261,453	590,906	0,080	-0,145
-260,438	72,883	0,071	-0,054
-259,424	661,321	0,015	0,027
-258,409	800,000	0,048	-0,126
-257,395	-67,180	0,120	-0,034
-256,380	786,621	-0,031	0,062
-255,365	20,028	0,025	0,015
-254,351	800,000	0,051	0,118
-253,336	-200,000	-0,001	0,026
-252,322	-200,000	0,006	0,077
-251,307	-62,919	0,081	-0,024
-250,292	-200,000	0,010	0,081
-249,278	-54,325	0,115	-0,038
-248,263	677,589	-0,053	-0,101
-247,249	-200,000	-0,018	0,169
-246,234	281,598	0,081	0,106
-245,219	800,000	0,018	-0,042
-244,205	-200,000	0,036	-0,116
-243,190	127,879	0,045	0,042
-242,176	-81,379	0,065	0,015
-241,161	-200,000	-0,001	-0,177
-240,146	210,254	0,066	-0,076
-239,132	-48,440	-0,081	-0,028
-238,117	193,495	-0,093	-0,103
-237,103	800,000	-0,035	-0,082
-236,088	39,619	-0,045	-0,030
-235,073	24,860	0,152	-0,092
-234,059	-84,963	0,048	0,011
-233,044	-200,000	-0,014	-0,105
-232,030	579,010	-0,062	0,111
-231,015	-124,851	0,117	0,013
-230,000	-24,426	-0,121	-0,052
-228,986	133,221	0,016	0,015
-227,971	-200,000	0,008	-0,109
-226,957	314,492	-0,057	-0,079
-225,942	800,000	-0,025	0,055
-224,927	-6,641	0,088	-0,044
-223,913	27,438	0,041	0,025
-222,898	-200,000	0,026	-0,113
-221,884	16,664	0,084	-0,049
-220,869	-200,000	-0,025	0,098
-219,855	-200,000	-0,013	0,147
-218,840	279,853	0,066	0,087
-217,825	800,000	0,019	-0,043
-216,811	79,246	-0,079	0,062
-215,796	-108,752	0,074	0,011
-214,782	-8,019	0,105	0,052
-213,767	83,440	0,141	0,112
-212,752	-189,964	0,049	-0,000
-211,738	-200,000	-0,018	-0,093
-210,723	-69,489	-0,096	0,027
-209,709	-200,000	0,021	-0,088
-208,694	-200,000	-0,017	-0,071
-207,679	364,813	0,133	0,196
-206,665	-200,000	0,022	0,091
-205,650	-8,527	-0,047	0,023
-204,636	800,000	0,023	0,055
-203,621	-200,000	0,007	0,178
-202,606	57,636	-0,040	0,029
-201,592	14,146	-0,129	-0,073
-200,577	-200,000	-0,031	-0,102
-199,563	59,773	0,049	0,035
-198,548	-200,000	-0,017	0,097
-197,533	17,666	0,161	0,093
-196,519	746,580	-0,040	0,079
-195,504	412,295	0,024	0,037
-194,490	-200,000	0,016	0,071
-193,475	-119,738	-0,021	0,003
-192,460	184,419	-0,016	-0,018
-191,446	108,285	-0,013	0,012
-190,431	-46,867	0,102	-0,036
-189,417	331,703	0,034	0,048
-188,402	-70,620	-0,136	0,037
-187,387	-39,389	-0,094	-0,036
-186,373	-152,143	0,086	-0,004
-185,358	382,818	0,078	-0,117
-184,344	-133,835	0,107	-0,010
-183,329	81,071	0,101	0,080
-182,315	-200,000	0,004	0,041
-181,300	-49,254	-0,029	0,010
-180,285	800,000	-0,075	-0,156
-179,271	-200,000	0,002	-0,102
-178,256	-22,606	-0,066	-0,029
-177,242	132,057	0,106	0,100
-176,227	-6,004	-0,106	0,053
-175,212	206,216	-0,101	-0,114
-174,198	213,838	-0,120	0,138
-173,183	234,386	-0,060	-0,072
-172,169	131,195	-0,028	-0,026
-171,154	800,000	0,011	-0,028
-170,139	-200,000	0,026	-0,101
-169,125	563,147	-0,050	-0,088
-168,110	91,480	0,119	0,097
-167,096	-200,000	0,020	0,200
-166,081	224,196	-0,105	-0,124
-165,066	800,000	0,056	-0,117
-164,052	-66,872	-0,152	0,043
-163,037	520,832	-0,058	0,100
-162,023	-103,535	0,067	0,011
-161,008	-167,582	0,033	0,001
-159,993	634,885	0,013	0,024
-158,979	800,000	-0,025	0,078
-157,964	461,430	0,033	0,054
-156,950	800,000	-0,041	-0,101
-155,935	-23,179	-0,011	0,005
-154,920	-59,282	-0,049	-0,015
-153,906	-200,000	0,000	0,078
-152,891	441,007	-0,063	-0,100
-151,877	800,000	-0,034	0,072
-150,862	-200,000	-0,030	0,117
-149,847	43,079	-0,059	-0,039
-148,833	104,229	0,091	0,078
-147,818	252,447	-0,033	0,040
-146,804	-200,000	-0,008	-0,038
-145,789	-127,584	0,097	0,010
-144,775	80,739	0,065	-0,051
-143,760	45,216	0,119	-0,080
-142,745	-29,787	-0,119	-0,049
-141,731	98,163	0,119	0,099
-140,716	96,706	0,132	-0,110
-139,702	595,669	0,103	0,187
-138,687	315,033	-0,019	0,026
-137,672	-24,885	0,040	0,017
-136,658	-82,249	-0,009	0,002
-135,643	-200,000	-0,011	-0,158
-134,629	-200,000	-0,003	-0,070
-133,614	41,000	-0,055	0,036
-132,599	168,103	-0,079	0,082
-131,585	800,000	0,078	0,183
-130,570	-165,318	-0,049	-0,002
-129,556	-16,967	-0,039	0,018
-128,541	-107,072	-0,066	0,010
-127,526	-200,000	0,000	0,097
-126,512	230,395	-0,012	0,014
-125,497	-200,000	0,030	0,169
-124,483	800,000	0,044	0,101
-123,468	180,785	0,052	0,056
-122,453	-200,000	-0,015	-0,080
-121,439	-184,835	0,061	0,001
-120,424	100,360	-0,026	0,022
-119,410	800,000	-0,003	-0,006
-118,395	-123,126	0,179	0,021
-117,380	800,000	-0,002	-0,008
-116,366	418,745	-0,069	-0,107
-115,351	327,240	-0,017	0,024
-114,337	217,842	-0,006	-0,007
-113,322	-133,488	0,089	0,008
-112,307	250,550	0,071	0,087
-111,293	800,000	0,051	0,143
-110,278	-27,497	0,161	0,068
-109,264	-135,829	-0,071	-0,006
-108,249	-131,207	-0,105	0,010
-107,234	650,866	0,050	-0,094
-106,220	63,534	-0,063	-0,046
-105,205	-96,352	-0,093	0,018
-104,191	-200,000	-0,015	-0,079
-103,176	-84,052	0,081	0,019
-102,162	155,915	-0,026	-0,026
-101,147	-200,000	-0,010	0,071
-100,132	188,077	-0,024	-0,026
-99,118	-121,864	-0,141	-0,017
-98,103	-200,000	0,021	0,085
-97,089	-151,420	-0,042	0,002
-96,074	-200,000	-0,030	0,126
-95,059	800,000	0,039	0,115
-94,045	800,000	-0,013	0,035
-93,030	27,413	-0,136	0,083
-92,016	-200,000	-0,011	-0,175
-91,001	-22,154	0,122	0,053
-89,986	45,767	-0,086	0,058
-88,972	117,396	0,076	0,068
-87,957	-78,118	-0,070	-0,017
-86,943	-200,000	-0,013	0,082
-85,928	633,814	-0,018	-0,034
-84,913	23,730	-0,073	-0,044
-83,899	800,000	-0,043	0,091
-82,884	-1,741	0,133	0,068
-81,870	-200,000	-0,002	-0,029
-80,855	-108,882	0,121	0,019
-79,840	511,971	0,069	0,118
-78,826	-29,040	-0,023	-0,009
-77,811	71,763	-0,019	-0,014
-76,797	800,000	-0,045	0,126
-75,782	405,185	0,078	0,120
-74,767	-19,600	0,112	0,050
-73,753	-76,197	-0,071	-0,018
-72,738	-197,139	0,038	-0,000
-71,724	531,137	0,022	-0,037
-70,709	800,000	-0,030	0,079
-69,694	-200,000	0,002	-0,077
-68,680	-200,000	0,012	0,090
-67,665	-123,926	-0,087	-0,010
-66,651	184,649	-0,131	-0,141
-65,636	219,340	0,144	0,167
-64,622	380,620	-0,085	0,127
-63,607	79,267	-0,068	0,053
-62,592	800,000	-0,017	-0,038
-61,578	160,606	0,067	0,068
-60,563	-200,000	-0,021	0,096
-59,549	-200,000	0,035	0,132
-58,534	-72,387	-1,434	-0,382
-57,519	734,672	-0,679	-1,324
-56,505	-200,000	-0,824	-4,404
-55,490	-155,342	0,576	0,027
-54,476	800,000	4,894	11,860
-53,461	-200,000	15,120	265,377
-52,446	-200,000	696,592	2237,093
-51,432	583,640	1617,928	2890,195
-50,417	120,767	1626,003	1464,687
-49,403	82,699	1281,991	1008,361
-48,388	37,664	1021,951	655,945
-47,373	22,398	982,578	580,444
-46,359	21,428	971,802	570,871
-45,344	20,018	967,316	563,601
-44,330	20,133	965,938	563,152
-43,315	19,847	964,399	561,299
-42,300	19,882	963,230	560,710
-41,286	19,772	962,600	559,963
-40,271	19,799	961,649	559,474
-39,257	19,835	960,584	558,951
-38,242	19,808	959,872	558,426
-37,227	19,847	959,026	558,038
-36,213	19,795	958,026	557,267
-35,198	19,775	957,031	556,599
-34,184	19,834	956,490	556,453
-33,169	19,685	955,659	555,468
-32,154	19,822	954,469	555,196
-31,140	19,815	953,642	554,669
-30,125	19,804	953,002	554,241
-29,111	19,799	952,158	553,711
-28,096	19,855	951,547	553,513
-27,082	19,765	950,829	552,785
-26,067	19,820	949,921	552,411
-25,052	19,798	949,117	551,851
-24,038	19,802	948,593	551,538
-23,023	19,824	947,975	551,228
-22,009	19,812	947,257	550,748
-20,994	19,827	946,700	550,451
-19,979	19,814	945,946	549,951
-18,965	19,776	945,479	549,535
-17,950	19,791	944,904	549,226
-16,936	19,718	944,031	548,465
-15,921	19,779	943,394	548,268
-14,906	19,695	942,645	547,543
-13,892	19,595	942,379	547,048
-12,877	19,615	941,543	546,604
-11,863	19,691	940,881	546,440
-10,848	19,704	940,358	546,156
-9,833	19,721	939,985	545,970
-8,819	19,727	939,243	545,538
-7,804	19,663	938,634	544,961
-6,790	19,671	938,165	544,692
-5,775	19,699	937,528	544,387
-4,760	19,738	936,818	544,078
-3,746	19,665	936,336	543,546
-2,731	19,560	935,461	542,685
-1,717	19,555	934,687	542,198
-0,702	19,519	934,145	541,749
0,313	19,317	933,582	541,602
1,327	21,755	931,173	547,833
2,342	28,986	805,905	493,694
3,356	23,100	506,094	299,992
4,371	-0,843	372,995	190,632
5,386	-3,712	356,272	178,550
6,400	-4,705	350,328	174,356
7,415	-5,022	347,754	172,679
8,429	-4,952	346,455	172,103
9,444	-4,990	345,640	171,638
10,459	-4,999	344,979	171,283
11,473	-4,913	344,172	170,969
12,488	-5,054	343,595	170,501
13,502	-5,033	343,145	170,287
14,517	-4,921	342,521	170,094
15,531	-4,817	342,157	170,021
16,546	-4,647	341,723	169,990
17,561	-4,893	341,223	169,437
18,575	-4,827	340,822	169,301
19,590	-4,773	340,452	169,165
20,604	-4,743	340,172	169,046
21,619	-4,929	339,766	168,612
22,634	-4,896	339,516	168,511
23,648	-4,882	339,131	168,320
24,663	-4,894	338,871	168,163
25,677	-4,801	338,429	168,037
26,692	-4,726	338,165	167,978
27,707	-4,751	337,804	167,755
28,721	-4,854	337,544	167,491
29,736	-4,929	337,318	167,277
30,750	-4,918	336,941	167,088
31,765	-4,856	336,609	166,980
32,780	-4,862	336,425	166,867
33,794	-4,980	336,144	166,577
34,809	-4,916	335,866	166,497
35,823	-4,971	335,656	166,316
36,838	-4,767	335,358	166,388
37,853	-4,788	334,877	166,110
38,867	-4,752	334,638	166,019
39,882	-4,872	334,454	165,774
40,896	-4,789	334,105	165,682
41,911	-4,761	333,927	165,611
42,926	-4,915	333,568	165,242
43,940	-4,881	333,453	165,208
44,955	-4,860	333,189	165,087
45,969	-4,893	332,974	164,928
46,984	-4,810	332,613	164,829
47,999	-4,777	332,342	164,718
49,013	-4,790	332,170	164,603
50,028	-4,769	331,802	164,431
51,042	-4,720	331,649	164,396
52,057	-4,872	331,365	164,068
53,071	-4,890	331,165	163,933
54,086	-4,822	330,874	163,852
55,101	-4,814	330,664	163,742
56,115	-4,759	330,251	163,585
57,130	-4,917	330,235	163,384
58,144	-4,852	329,732	163,194
59,159	-4,911	329,426	162,961
60,174	-4,915	329,141	162,801
61,188	-4,911	328,975	162,710
62,203	-4,890	328,719	162,592
63,217	-4,881	328,439	162,449
64,232	-4,914	328,253	162,305
65,247	-4,857	327,880	162,170
66,261	-4,874	327,550	161,974
67,276	-4,850	327,350	161,887
68,290	-4,828	327,230	161,839
69,305	-4,777	326,887	161,712
70,320	-4,748	326,676	161,625
71,334	-4,788	326,359	161,408
72,349	-4,803	326,108	161,253
73,363	-4,779	325,830	161,128
74,378	-4,977	325,651	160,805
75,393	-4,940	325,346	160,681
76,407	-4,758	325,111	160,753
77,422	-4,751	324,840	160,613
78,436	-4,783	324,508	160,398
79,451	-4,884	324,349	160,194
80,466	-4,794	324,099	160,156
81,480	-4,690	323,874	160,146
82,495	-4,767	323,640	159,931
83,509	-4,819	323,472	159,776
84,524	-4,698	323,091	159,707
85,539	-4,834	323,048	159,521
86,553	-4,823	322,760	159,377
87,568	-4,732	322,386	159,278
88,582	-4,820	322,222	159,086
89,597	-4,754	321,981	159,026
90,611	-4,937	321,833	158,737
91,626	-4,675	321,446	158,820
92,641	-4,783	321,213	158,572
93,655	-4,621	320,888	158,575
94,670	-4,745	320,658	158,312
95,684	-4,777	320,466	158,167
96,699	-4,884	320,284	157,947
97,714	-4,743	320,073	157,982
98,728	-4,829	319,806	157,742
99,743	-4,652	319,640	157,840
100,757	-4,704	319,385	157,643
101,772	-4,884	319,236	157,359
102,787	-4,791	318,880	157,271
103,801	-4,879	318,603	157,025
104,816	-4,841	318,417	156,960
105,830	-4,800	318,199	156,883
106,845	-4,769	318,083	156,846
107,860	-4,647	317,647	156,750
108,874	-4,854	317,504	156,440
109,889	-4,791	317,317	156,402
110,903	-4,844	316,949	156,150
111,918	-4,847	316,912	156,114
112,933	-4,736	316,577	156,055
113,947	-4,683	316,305	155,965
114,962	-4,861	316,139	155,676
115,976	-4,682	315,801	155,689
116,991	-4,739	315,676	155,553
118,006	-4,658	315,574	155,576
119,020	-4,779	315,286	155,290
120,035	-4,924	315,181	155,068
121,049	-4,827	314,974	155,057
122,064	-4,751	314,567	154,924
123,079	-4,752	314,503	154,877
124,093	-4,881	314,273	154,612
125,108	-4,557	313,863	154,744
126,122	-4,726	313,695	154,466
127,137	-4,737	313,655	154,420
128,151	-4,692	313,241	154,252
129,166	-4,683	312,930	154,094
130,181	-4,730	312,799	153,965
131,195	-4,635	312,561	153,937
132,210	-4,609	312,271	153,807
133,224	-4,765	312,013	153,501
134,239	-4,810	311,882	153,374
135,254	-4,959	311,775	153,149
136,268	-4,599	311,279	153,275
137,283	-4,692	311,218	153,133
138,297	-4,685	311,016	153,027
139,312	-4,753	310,778	152,823
140,327	-4,751	310,490	152,670
141,341	-4,851	310,321	152,469
142,356	-4,758	310,122	152,455
143,370	-4,769	309,944	152,343
144,385	-4,745	309,655	152,212
145,400	-4,689	309,400	152,132
146,414	-4,639	309,313	152,129
147,429	-4,670	308,833	151,846
148,443	-4,801	308,694	151,626
149,458	-4,657	308,487	151,663
150,473	-4,790	308,269	151,403
151,487	-4,561	307,901	151,448
152,502	-4,882	308,064	151,179
153,516	-4,646	307,579	151,174
154,531	-4,763	307,344	150,922
155,546	-4,784	307,157	150,795
156,560	-4,792	307,024	150,708
157,575	-4,751	306,667	150,562
158,589	-4,707	306,571	150,547
159,604	-4,810	306,389	150,337
160,619	-4,589	306,129	150,426
161,633	-4,712	305,842	150,144
162,648	-4,794	305,880	150,064
163,662	-4,888	305,582	149,807
164,677	-4,637	305,363	149,947
165,692	-4,715	305,172	149,758
166,706	-4,707	305,050	149,694
167,721	-4,730	304,862	149,565
168,735	-4,628	304,575	149,516
169,750	-4,652	304,461	149,421
170,764	-4,725	304,191	149,201
171,779	-4,697	304,057	149,151
172,794	-4,642	303,800	149,067
173,808	-4,660	303,448	148,863
174,823	-4,741	303,405	148,745
175,837	-4,547	303,049	148,757
176,852	-4,720	302,848	148,467
177,867	-4,808	302,786	148,333
178,881	-4,773	302,745	148,336
179,896	-4,692	302,318	148,197
180,910	-4,694	302,160	148,104
181,925	-4,708	301,871	147,935
182,940	-4,837	301,725	147,718
183,954	-4,824	301,656	147,684
184,969	-4,674	301,532	147,763
185,983	-4,614	301,180	147,640
186,998	-4,666	301,032	147,500
188,013	-4,714	300,702	147,277
189,027	-4,844	300,461	147,014
190,042	-4,728	300,439	147,108
191,056	-4,747	300,082	146,900
192,071	-4,558	299,695	146,890
193,086	-4,774	299,718	146,668
194,100	-4,535	299,459	146,771
195,115	-4,602	299,187	146,557
196,129	-4,656	298,873	146,335
197,144	-4,691	298,781	146,242
198,159	-4,722	298,545	146,082
199,173	-4,689	298,304	145,984
200,188	-4,862	298,244	145,767
201,202	-4,757	297,992	145,737
202,217	-4,791	297,768	145,579
203,232	-4,664	297,484	145,556
204,246	-4,723	297,307	145,397
205,261	-4,587	297,056	145,398
206,275	-4,626	296,894	145,267
207,290	-4,646	296,783	145,179
208,304	-4,602	296,461	145,053
209,319	-4,608	296,205	144,909
210,334	-4,581	296,154	144,898
211,348	-4,540	295,814	144,760
212,363	-4,684	295,794	144,592
213,377	-4,645	295,461	144,456
214,392	-4,550	295,243	144,432
215,407	-4,691	295,159	144,236
216,421	-4,719	294,944	144,091
217,436	-4,753	294,761	143,955
218,450	-4,642	294,447	143,900
219,465	-4,690	294,462	143,846
220,480	-4,656	294,119	143,699
221,494	-4,664	294,003	143,622
222,509	-4,698	293,761	143,457
223,523	-4,718	293,545	143,319
224,538	-4,701	293,307	143,207
225,553	-4,716	293,247	143,150
226,567	-4,808	292,997	142,923
227,582	-4,589	292,836	143,050
228,596	-4,608	292,540	142,874
229,611	-4,592	292,431	142,823
230,626	-4,744	292,406	142,648
231,640	-4,618	292,092	142,606
232,655	-4,565	291,786	142,496
233,669	-4,551	291,613	142,413
234,684	-4,555	291,304	142,245
235,699	-4,786	291,305	142,007
236,713	-4,631	291,071	142,032
237,728	-4,692	290,918	141,885
238,742	-4,790	290,800	141,718
239,757	-4,741	290,484	141,600
240,772	-4,810	290,348	141,454
241,786	-4,835	290,103	141,297
242,801	-4,747	289,883	141,263
243,815	-4,668	289,697	141,236
244,830	-4,813	289,597	141,034
245,844	-4,706	289,408	141,034
246,859	-4,631	289,173	140,980
247,874	-4,731	288,918	140,745
248,888	-4,513	288,765	140,871
249,903	-4,720	288,586	140,569
250,917	-4,648	288,303	140,489
251,932	-4,749	288,140	140,299
252,947	-4,860	287,760	139,994
253,961	-5,462	287,486	139,264
254,976	-5,707	287,033	138,795
255,990	-5,499	287,087	139,010
257,005	-3,883	287,801	140,911
258,020	-1,559	288,611	143,556
259,034	-0,007	288,764	145,126
260,049	0,417	288,871	145,579
261,063	0,900	288,844	146,021
262,078	1,116	288,742	146,166
263,093	1,506	288,642	146,480
264,107	1,733	288,717	146,725
265,122	1,939	288,354	146,727
266,136	2,192	288,374	146,969
267,151	1,782	288,168	146,455
268,166	1,965	288,051	146,559
269,180	1,883	287,825	146,351
270,195	2,045	287,459	146,309
271,209	2,221	287,299	146,384
272,224	1,930	287,322	146,102
273,239	1,925	287,129	145,986
274,253	2,012	286,779	145,879
275,268	1,837	286,523	145,568
276,282	1,753	286,365	145,393
277,297	1,861	286,154	145,377
278,312	1,872	285,990	145,291
279,326	1,818	285,873	145,167
280,341	2,020	285,733	145,276
281,355	1,907	285,545	145,060
282,370	1,950	285,240	144,933
283,384	1,708	285,158	144,647
284,399	1,816	284,908	144,610
285,414	1,918	284,719	144,599
286,428	1,778	284,561	144,373
287,443	1,765	284,308	144,219
288,457	1,790	284,021	144,084
289,472	1,656	283,960	143,912
290,487	1,742	283,674	143,837
291,501	1,787	283,568	143,812
292,516	1,650	283,424	143,597
293,530	1,875	283,218	143,693
294,545	1,917	282,861	143,539
295,560	1,785	282,900	143,421
296,574	1,765	282,707	143,291
297,589	1,723	282,309	143,038
298,603	1,711	282,211	142,963
299,618	1,806	282,185	143,027
300,633	1,833	281,992	142,942
301,647	1,671	281,872	142,716
302,662	1,881	281,547	142,737
303,676	1,893	281,430	142,676
304,691	1,864	281,228	142,533
305,706	1,975	281,106	142,563
306,720	2,040	280,903	142,509
307,735	1,753	280,712	142,130
308,749	2,069	280,574	142,343
309,764	1,851	280,372	142,024
310,779	1,886	280,336	142,026
311,793	1,881	280,041	141,859
312,808	1,971	279,778	141,797
313,822	1,941	279,649	141,691
314,837	2,046	279,417	141,659
315,852	1,898	279,264	141,431
316,866	1,870	279,134	141,326
317,881	1,960	278,991	141,325
318,895	1,795	278,796	141,060
319,910	1,832	278,648	141,006
320,925	1,819	278,391	140,853
321,939	2,002	278,051	140,837
322,954	2,134	278,095	140,970
323,968	2,026	277,906	140,761
324,983	2,021	277,613	140,596
325,997	2,002	277,432	140,474
327,012	1,817	277,490	140,320
328,027	1,864	277,213	140,210
329,041	1,853	277,074	140,118
330,056	2,020	276,778	140,109
331,070	1,895	276,774	139,980
332,085	2,023	276,570	139,982
333,100	1,994	276,195	139,753
334,114	1,978	276,111	139,683
335,129	1,818	275,951	139,442
336,143	2,093	275,732	139,573
337,158	2,221	275,527	139,574
338,173	2,230	275,325	139,467
339,187	2,152	275,188	139,314
340,202	2,066	274,951	139,102
341,216	2,007	274,804	138,962
342,231	2,002	274,618	138,850
343,246	2,033	274,536	138,826
344,260	1,979	274,339	138,663
345,275	2,146	274,130	138,698
346,289	2,080	273,845	138,482
347,304	2,217	273,735	138,539
348,319	2,071	273,516	138,283
349,333	2,058	273,290	138,144
350,348	1,997	273,268	138,065
351,362	2,011	272,992	137,926
352,377	1,865	272,945	137,757
353,392	2,193	272,699	137,919
354,406	2,119	272,610	137,794
355,421	191,026	1347,198	1424,312
356,435	154,212	1478,183	1424,394
