DTS Sentinel unit serial number:	SN410029Multiplexer serial number:	ORYXHardware model number:	OX2-SRSoftware version number:	ORYX F/W v4,00 Oryx Data Collector v3.7.2.0data status	okinstallation	B4 Nyhavnadifferential loss correction	single-endedforward channel	channel 2reverse channel	N/Adate	2023/12/18time	20:10:13forward acquisition time	300,00reverse acquisition time	0,00gamma	499,1914k internal	0,3124k external	0,3124temperature offset calibration	1,0000default loss term (dB/km)	0,3820temperature slope calibration	1,0000multiplexer offset coefficient	1,0000multiplexer slope coefficient	1,0000fibre end	0,00T internal ref (°C)	21,87T ext. ref 1 (°C)	7,08T ext. ref 2 (°C)	7,06length (m)	temperature (°C)	Stokes	anti-Stokes-744,400	-32,072	-0,083	0,034
-743,385	-141,690	-0,151	-0,011
-742,371	271,574	0,074	-0,098
-741,356	549,763	-0,068	0,122
-740,342	800,000	0,039	0,105
-739,327	-3,027	-0,208	0,108
-738,312	-200,000	0,007	-0,077
-737,298	-54,672	-0,234	-0,078
-736,283	-200,000	-0,011	0,047
-735,269	75,656	-0,215	0,169
-734,254	-200,000	0,002	-0,063
-733,239	-40,988	-0,420	-0,161
-732,225	-200,000	0,008	0,037
-731,210	88,033	0,086	0,071
-730,196	151,109	0,079	-0,080
-729,181	465,549	-0,029	0,049
-728,167	80,832	-0,148	-0,119
-727,152	-1,025	-0,021	-0,011
-726,137	800,000	-0,009	-0,030
-725,123	-70,010	-0,097	0,027
-724,108	-200,000	0,043	-0,209
-723,094	800,000	0,013	-0,042
-722,079	-32,033	-0,096	-0,040
-721,064	158,383	-0,068	-0,071
-720,050	184,065	-0,083	0,092
-719,035	52,822	-0,080	0,057
-718,021	800,000	0,016	-0,053
-717,006	-117,663	-0,223	-0,030
-715,991	158,235	-0,078	-0,081
-714,977	-60,191	-0,100	-0,032
-713,962	800,000	-0,046	-0,101
-712,948	-143,448	0,103	0,007
-711,933	-200,000	0,009	0,079
-710,918	27,278	-0,071	-0,045
-709,904	800,000	-0,023	-0,073
-708,889	-140,035	-0,187	0,014
-707,875	800,000	-0,066	-0,142
-706,860	-70,268	-0,174	-0,049
-705,845	-200,000	-0,005	-0,125
-704,831	14,817	0,030	0,017
-703,816	800,000	-0,027	0,066
-702,802	800,000	-0,006	0,013
-701,787	-46,180	-0,213	-0,077
-700,772	-200,000	0,013	-0,201
-699,758	-30,887	-0,138	-0,058
-698,743	396,885	0,033	0,052
-697,729	800,000	-0,029	0,088
-696,714	-13,240	-0,041	-0,020
-695,699	-74,389	-0,112	0,030
-694,685	-7,181	0,125	0,063
-693,670	800,000	-0,069	-0,212
-692,656	800,000	0,038	-0,083
-691,641	800,000	0,062	-0,180
-690,627	-200,000	0,009	-0,073
-689,612	800,000	-0,059	-0,160
-688,597	-200,000	-0,001	-0,123
-687,583	35,557	0,122	-0,080
-686,568	-93,757	-0,134	-0,027
-685,554	81,922	0,048	-0,039
-684,539	265,317	-0,009	-0,011
-683,524	-200,000	-0,028	0,098
-682,510	566,739	0,033	0,059
-681,495	-200,000	0,008	-0,149
-680,481	48,103	-0,045	-0,031
-679,466	440,675	0,033	-0,053
-678,451	374,017	0,100	-0,152
-677,437	-85,241	0,025	0,006
-676,422	-200,000	0,010	0,044
-675,408	310,775	-0,028	0,039
-674,393	25,650	-0,092	-0,057
-673,378	-200,000	0,008	-0,048
-672,364	800,000	0,019	-0,042
-671,349	-103,190	-0,096	-0,017
-670,335	66,409	0,071	0,053
-669,320	-53,595	-0,063	-0,021
-668,305	170,910	0,038	0,041
-667,291	-200,000	-0,035	0,144
-666,276	209,546	-0,113	-0,132
-665,262	218,486	0,055	0,066
-664,247	76,142	-0,055	0,043
-663,232	-200,000	-0,010	-0,057
-662,218	-200,000	-0,031	0,104
-661,203	-174,131	0,070	-0,001
-660,189	-30,853	0,042	-0,018
-659,174	104,507	-0,079	0,069
-658,159	-200,000	0,002	-0,020
-657,145	106,502	0,122	0,108
-656,130	72,042	0,061	-0,047
-655,116	10,261	-0,226	0,127
-654,101	-200,000	-0,013	0,066
-653,086	-200,000	0,022	0,083
-652,072	-39,277	-0,080	0,031
-651,057	93,664	-0,058	0,049
-650,043	160,487	-0,069	-0,071
-649,028	-175,884	-0,110	-0,002
-648,014	800,000	0,009	0,026
-646,999	77,597	0,062	-0,049
-645,984	95,044	0,044	0,037
-644,970	-200,000	0,019	-0,099
-643,955	471,197	-0,063	-0,106
-642,941	-3,389	0,046	-0,024
-641,926	800,000	0,010	0,031
-640,911	800,000	-0,031	0,074
-639,897	50,438	0,030	-0,021
-638,882	-77,036	0,143	0,037
-637,868	-137,295	0,050	0,004
-636,853	-200,000	-0,016	-0,097
-635,838	-96,904	0,064	-0,012
-634,824	-154,280	0,151	-0,007
-633,809	280,340	0,054	0,072
-632,795	-200,000	-0,045	0,163
-631,780	-89,248	-0,085	0,018
-630,765	-125,667	0,031	0,003
-629,751	-200,000	-0,030	-0,127
-628,736	27,576	0,022	-0,014
-627,722	-200,000	-0,006	-0,044
-626,707	-200,000	-0,015	0,073
-625,692	-46,057	-0,095	-0,035
-624,678	-200,000	-0,001	-0,044
-623,663	66,189	-0,128	0,096
-622,649	-92,974	-0,098	-0,020
-621,634	-200,000	0,006	0,061
-620,619	-200,000	-0,035	-0,124
-619,605	-97,993	0,138	0,026
-618,590	40,991	-0,036	0,024
-617,576	286,895	0,047	0,063
-616,561	-81,462	-0,119	0,029
-615,546	-38,988	-0,167	0,065
-614,532	568,013	0,073	-0,133
-613,517	-8,810	-0,108	-0,054
-612,503	44,028	-0,110	-0,075
-611,488	-200,000	0,025	-0,129
-610,474	17,407	0,189	-0,111
-609,459	126,371	-0,067	0,062
-608,444	466,250	-0,041	-0,069
-607,430	-200,000	-0,026	-0,135
-606,415	393,335	-0,073	0,112
-605,401	-200,000	0,001	0,023
-604,386	468,207	-0,032	0,054
-603,371	-200,000	-0,017	0,077
-602,357	800,000	-0,047	-0,139
-601,342	255,266	-0,050	-0,063
-600,328	27,416	-0,115	0,072
-599,313	-200,000	-0,013	-0,044
-598,298	-95,507	0,052	0,010
-597,284	-94,925	-0,107	0,021
-596,269	-154,900	0,010	0,000
-595,255	-200,000	-0,023	-0,111
-594,240	800,000	-0,030	-0,098
-593,225	-39,894	0,042	-0,016
-592,211	-200,000	-0,017	0,081
-591,196	-162,690	0,126	0,005
-590,182	-102,686	0,017	0,003
-589,167	-200,000	-0,004	0,054
-588,152	-200,000	0,005	-0,087
-587,138	-4,196	-0,071	-0,036
-586,123	800,000	-0,038	-0,112
-585,109	381,961	0,073	-0,112
-584,094	-30,657	-0,043	-0,018
-583,079	-200,000	0,025	0,086
-582,065	68,383	0,088	-0,067
-581,050	27,108	0,047	0,029
-580,036	-102,115	-0,071	-0,012
-579,021	-158,224	-0,035	0,001
-578,006	224,714	-0,061	-0,074
-576,992	-200,000	0,011	-0,042
-575,977	-45,871	-0,082	-0,030
-574,963	252,045	0,133	0,167
-573,948	212,293	0,087	-0,102
-572,934	148,651	-0,054	-0,054
-571,919	-200,000	0,000	0,015
-570,904	-149,931	-0,067	-0,004
-569,890	618,506	-0,019	0,035
-568,875	206,055	0,025	-0,029
-567,861	-200,000	0,030	0,107
-566,846	-72,862	0,135	0,037
-565,831	38,250	-0,064	-0,042
-564,817	-135,676	-0,113	-0,010
-563,802	800,000	0,012	0,025
-562,788	-142,258	0,027	0,002
-561,773	-200,000	-0,038	0,143
-560,758	137,998	-0,084	0,081
-559,744	-200,000	0,019	0,117
-558,729	81,670	0,104	-0,083
-557,715	8,873	-0,086	-0,048
-556,700	-200,000	-0,003	0,094
-555,685	-200,000	0,003	-0,057
-554,671	210,475	0,099	-0,115
-553,656	370,129	0,050	-0,076
-552,642	0,350	0,045	0,024
-551,627	-104,768	-0,201	0,034
-550,612	-33,296	-0,070	0,028
-549,598	510,155	-0,017	0,029
-548,583	496,743	-0,086	-0,147
-547,569	-200,000	-0,011	0,039
-546,554	-200,000	-0,008	-0,030
-545,539	-200,000	-0,023	0,102
-544,525	38,977	0,073	0,048
-543,510	-106,501	-0,091	0,015
-542,496	258,063	0,039	-0,049
-541,481	-200,000	0,003	-0,124
-540,466	800,000	0,025	-0,059
-539,452	-102,493	0,108	0,019
-538,437	131,531	0,127	-0,121
-537,423	98,864	-0,011	-0,009
-536,408	295,184	-0,025	0,035
-535,393	-165,834	0,127	-0,004
-534,379	-108,126	0,039	-0,006
-533,364	586,820	-0,047	-0,087
-532,350	-200,000	0,002	0,058
-531,335	75,297	0,051	0,040
-530,321	105,300	0,058	-0,051
-529,306	-200,000	-0,031	-0,121
-528,291	-94,894	-0,098	-0,019
-527,277	214,536	-0,088	0,103
-526,262	-118,938	0,148	-0,019
-525,248	377,215	0,060	0,091
-524,233	-4,807	-0,033	0,017
-523,218	200,122	0,106	-0,120
-522,204	300,454	0,027	-0,037
-521,189	-200,000	0,007	-0,071
-520,175	-119,267	-0,013	0,002
-519,160	-200,000	0,018	-0,097
-518,145	483,544	0,028	0,047
-517,131	-67,497	0,094	-0,027
-516,116	563,815	0,092	-0,166
-515,102	-200,000	-0,019	0,136
-514,087	130,306	0,038	-0,036
-513,072	800,000	-0,042	-0,110
-512,058	-132,590	0,135	0,013
-511,043	800,000	-0,057	0,178
-510,029	-75,795	0,174	0,045
-509,014	-26,612	0,166	0,072
-507,999	57,287	-0,024	0,017
-506,985	300,346	-0,097	-0,132
-505,970	136,277	-0,044	0,043
-504,956	-200,000	0,004	-0,042
-503,941	-60,472	0,075	0,023
-502,926	254,556	-0,066	0,083
-501,912	-138,875	-0,039	-0,003
-500,897	83,502	-0,070	0,056
-499,883	-107,185	-0,045	0,007
-498,868	587,632	-0,087	-0,158
-497,853	-47,226	-0,079	0,028
-496,839	-11,747	0,034	-0,017
-495,824	10,343	0,108	0,060
-494,810	197,073	0,047	-0,053
-493,795	143,953	0,059	0,058
-492,781	81,297	0,076	-0,061
-491,766	-200,000	-0,010	-0,199
-490,751	310,441	0,063	-0,088
-489,737	92,426	0,081	-0,067
-488,722	25,781	0,094	-0,058
-487,708	18,383	0,025	0,015
-486,693	800,000	-0,007	-0,016
-485,678	-122,213	0,083	0,010
-484,664	306,104	0,079	-0,108
-483,649	-23,050	-0,061	0,027
-482,635	308,805	0,020	-0,028
-481,620	-96,459	0,225	0,043
-480,605	-101,996	-0,126	0,022
-479,591	800,000	-0,037	0,091
-478,576	800,000	-0,018	0,051
-477,562	103,422	0,043	0,037
-476,547	153,037	-0,078	0,078
-475,532	800,000	-0,013	-0,035
-474,518	177,187	-0,011	0,012
-473,503	-200,000	-0,014	0,159
-472,489	26,582	0,035	0,022
-471,474	-200,000	0,019	0,096
-470,459	-17,935	0,160	-0,074
-469,445	-200,000	0,011	-0,107
-468,430	122,274	0,013	-0,012
-467,416	409,547	-0,033	-0,052
-466,401	800,000	0,022	0,053
-465,386	365,216	0,016	-0,023
-464,372	-49,573	0,013	-0,005
-463,357	-9,749	-0,106	-0,052
-462,343	-200,000	0,011	-0,057
-461,328	800,000	-0,025	0,062
-460,313	-200,000	0,008	0,045
-459,299	438,204	-0,046	-0,074
-458,284	800,000	0,022	0,057
-457,270	-200,000	0,034	-0,116
-456,255	-98,731	0,068	0,013
-455,241	-129,189	-0,229	-0,023
-454,226	-5,269	-0,046	-0,023
-453,211	-21,130	-0,062	0,028
-452,197	-200,000	0,005	0,019
-451,182	-110,766	-0,105	0,016
-450,168	703,350	-0,089	-0,173
-449,153	-133,330	0,068	-0,006
-448,138	37,692	0,094	0,062
-447,124	-27,953	-0,080	0,034
-446,109	-45,917	0,083	-0,030
-445,095	800,000	0,035	-0,084
-444,080	22,466	0,089	0,053
-443,065	-130,542	-0,160	0,016
-442,051	-21,208	0,065	0,029
-441,036	156,017	-0,050	-0,051
-440,022	800,000	0,046	-0,106
-439,007	-11,096	0,043	0,021
-437,992	800,000	-0,055	-0,162
-436,978	478,095	0,081	0,136
-435,963	758,558	-0,059	0,118
-434,949	294,274	-0,099	-0,133
-433,934	-93,555	-0,094	0,019
-432,919	800,000	-0,055	0,127
-431,905	238,608	0,081	0,100
-430,890	509,624	0,024	0,041
-429,876	49,310	0,110	0,076
-428,861	154,520	0,047	-0,047
-427,846	25,487	0,103	0,063
-426,832	-20,921	-0,037	0,017
-425,817	-200,000	0,004	-0,020
-424,803	-39,259	0,099	-0,038
-423,788	-200,000	-0,031	0,143
-422,773	-87,934	0,066	-0,014
-421,759	259,432	-0,031	-0,040
-420,744	-160,960	-0,103	-0,004
-419,730	-34,921	0,090	-0,036
-418,715	28,990	-0,135	-0,084
-417,701	289,231	0,034	0,046
-416,686	800,000	0,040	0,112
-415,671	800,000	0,071	0,179
-414,657	800,000	0,018	0,046
-413,642	738,519	0,127	0,252
-412,628	206,487	-0,018	0,020
-411,613	10,031	-0,198	-0,110
-410,598	312,566	-0,046	0,064
-409,584	800,000	0,023	0,071
-408,569	9,105	0,109	0,061
-407,555	-200,000	0,016	-0,053
-406,540	-13,473	0,030	-0,014
-405,525	-200,000	-0,006	-0,095
-404,511	-200,000	-0,020	-0,146
-403,496	800,000	-0,086	-0,187
-402,482	546,532	-0,060	0,106
-401,467	219,446	0,032	0,038
-400,452	179,756	0,056	0,060
-399,438	-39,659	-0,122	0,047
-398,423	73,820	-0,044	0,034
-397,409	734,290	-0,075	-0,147
-396,394	-23,622	-0,172	-0,076
-395,379	-54,483	-0,107	0,036
-394,365	30,442	0,144	0,090
-393,350	-5,713	0,164	0,083
-392,336	-200,000	0,003	-0,028
-391,321	381,943	-0,062	-0,094
-390,306	-200,000	-0,029	-0,173
-389,292	800,000	0,019	-0,055
-388,277	800,000	-0,018	0,052
-387,263	-141,301	-0,067	-0,005
-386,248	149,704	0,062	-0,062
-385,233	-200,000	-0,016	-0,063
-384,219	317,043	0,079	0,109
-383,204	-167,983	-0,143	0,004
-382,190	720,346	-0,021	-0,042
-381,175	243,738	0,069	-0,086
-380,160	-115,969	0,077	0,010
-379,146	-46,161	-0,047	-0,017
-378,131	-104,871	0,066	-0,011
-377,117	163,547	-0,140	-0,144
-376,102	-200,000	0,006	0,042
-375,088	254,749	-0,086	-0,108
-374,073	232,899	-0,033	-0,040
-373,058	-200,000	-0,003	0,028
-372,044	-200,000	-0,016	0,067
-371,029	-200,000	0,000	0,141
-370,015	201,316	0,073	0,083
-369,000	180,997	-0,147	-0,159
-367,985	-200,000	0,012	-0,135
-366,971	-157,782	-0,006	0,000
-365,956	139,391	-0,042	0,041
-364,942	-200,000	0,037	0,164
-363,927	194,207	0,053	0,060
-362,912	237,107	-0,070	-0,085
-361,898	156,191	0,080	-0,081
-360,883	39,388	-0,064	0,042
-359,869	179,377	0,051	-0,055
-358,854	-6,431	0,132	-0,066
-357,839	800,000	0,017	0,039
-356,825	-85,169	-0,064	0,014
-355,810	299,487	0,133	-0,180
-354,796	-200,000	0,009	-0,056
-353,781	156,520	0,035	0,035
-352,766	56,130	-0,120	0,085
-351,752	-200,000	0,002	-0,077
-350,737	197,763	0,120	0,135
-349,723	79,089	0,076	0,059
-348,708	-200,000	-0,001	0,044
-347,693	23,914	-0,107	-0,065
-346,679	-200,000	-0,001	0,040
-345,664	-8,053	-0,115	0,057
-344,650	-87,086	0,092	0,020
-343,635	-200,000	0,037	0,193
-342,620	58,403	-0,087	0,062
-341,606	474,519	-0,060	0,099
-340,591	240,147	0,039	-0,048
-339,577	800,000	-0,057	-0,175
-338,562	42,191	-0,007	0,004
-337,548	504,146	-0,060	0,102
-336,533	800,000	-0,051	0,124
-335,518	272,998	-0,102	0,132
-334,504	144,201	-0,074	0,072
-333,489	483,990	0,025	-0,042
-332,475	-200,000	-0,027	-0,108
-331,460	-140,336	-0,149	-0,011
-330,445	-123,029	-0,094	0,011
-329,431	-86,618	0,065	0,014
-328,416	-200,000	-0,004	-0,034
-327,402	516,250	-0,040	-0,069
-326,387	-200,000	-0,004	-0,019
-325,372	117,686	0,146	-0,132
-324,358	0,041	-0,125	-0,065
-323,343	-18,907	0,021	-0,010
-322,329	-118,177	0,066	0,009
-321,314	-200,000	-0,019	-0,101
-320,299	261,252	0,081	0,103
-319,285	529,746	-0,019	-0,033
-318,270	29,108	-0,047	-0,029
-317,256	-200,000	0,005	-0,057
-316,241	195,531	0,099	-0,111
-315,226	27,018	0,073	-0,045
-314,212	119,370	-0,086	0,078
-313,197	-194,051	-0,124	0,001
-312,183	125,115	-0,056	0,051
-311,168	2,194	-0,067	-0,035
-310,153	-42,534	-0,092	0,034
-309,139	211,638	0,057	-0,066
-308,124	670,196	0,068	0,130
-307,110	50,493	0,151	-0,104
-306,095	189,933	0,046	-0,051
-305,080	258,475	-0,026	0,032
-304,066	-200,000	-0,021	-0,125
-303,051	-73,891	0,103	0,027
-302,037	418,285	0,038	0,060
-301,022	361,522	-0,061	0,090
-300,008	-17,409	0,135	0,062
-298,993	193,005	0,103	0,114
-297,978	-200,000	0,014	0,060
-296,964	-26,196	-0,044	-0,019
-295,949	-60,524	0,056	0,017
-294,935	-90,387	-0,144	-0,030
-293,920	131,919	0,095	0,089
-292,905	345,945	0,096	0,138
-291,891	-173,831	0,050	-0,001
-290,876	45,073	-0,014	0,010
-289,862	-13,037	0,175	0,083
-288,847	167,582	-0,083	0,087
-287,832	-78,198	-0,053	-0,013
-286,818	800,000	0,010	0,021
-285,803	571,265	-0,011	0,020
-284,789	270,273	0,110	0,142
-283,774	-74,804	0,165	-0,043
-282,759	-200,000	0,025	-0,128
-281,745	758,967	0,039	0,077
-280,730	-106,869	0,023	0,004
-279,716	281,160	0,022	0,028
-278,701	-79,658	0,112	-0,027
-277,686	800,000	0,038	0,078
-276,672	71,748	0,064	0,048
-275,657	-200,000	-0,013	-0,081
-274,643	-200,000	-0,007	-0,121
-273,628	210,583	-0,103	-0,119
-272,613	-200,000	-0,004	0,046
-271,599	104,931	0,029	-0,025
-270,584	-110,643	-0,073	0,011
-269,570	-109,030	-0,094	-0,015
-268,555	-39,858	-0,126	0,048
-267,540	112,524	0,101	0,089
-266,526	800,000	-0,048	-0,099
-265,511	100,031	-0,057	-0,048
-264,497	-200,000	0,010	0,142
-263,482	-200,000	0,004	0,027
-262,467	-200,000	0,029	0,198
-261,453	36,736	0,031	-0,020
-260,438	681,834	-0,029	0,055
-259,424	234,765	0,055	0,066
-258,409	-200,000	-0,031	-0,105
-257,395	-200,000	-0,003	0,065
-256,380	164,780	0,058	0,060
-255,365	-200,000	0,028	-0,154
-254,351	35,719	-0,042	-0,027
-253,336	170,290	0,034	0,035
-252,322	-200,000	0,007	-0,076
-251,307	-200,000	0,012	0,088
-250,292	800,000	0,065	0,140
-249,278	-78,150	-0,085	-0,021
-248,263	-200,000	-0,028	0,094
-247,249	800,000	0,050	0,121
-246,234	-39,187	0,099	-0,038
-245,219	-200,000	-0,014	0,087
-244,205	-71,094	-0,055	-0,015
-243,190	119,427	-0,050	-0,045
-242,176	800,000	-0,006	0,014
-241,161	-49,171	0,054	0,019
-240,146	800,000	-0,029	-0,077
-239,132	126,541	0,026	-0,024
-238,117	-144,006	-0,027	0,002
-237,103	68,287	0,029	-0,021
-236,088	800,000	0,007	-0,014
-235,073	-200,000	0,032	0,261
-234,059	-200,000	0,004	0,048
-233,044	-114,326	0,169	-0,024
-232,030	-200,000	0,000	0,042
-231,015	540,456	-0,083	-0,145
-230,000	84,179	-0,223	-0,178
-228,986	313,935	-0,069	-0,095
-227,971	-200,000	-0,004	0,104
-226,957	278,905	-0,033	0,043
-225,942	-74,306	0,097	0,025
-224,927	81,962	0,022	0,018
-223,913	71,635	-0,110	-0,084
-222,898	-43,389	0,125	0,046
-221,884	451,891	0,054	0,088
-220,869	16,967	0,131	0,076
-219,855	-200,000	-0,013	0,072
-218,840	-200,000	0,028	0,157
-217,825	-102,570	0,069	-0,012
-216,811	-124,317	-0,100	0,011
-215,796	-5,559	-0,016	0,008
-214,782	-104,509	-0,051	0,009
-213,767	617,287	-0,016	0,030
-212,752	385,109	0,050	-0,076
-211,738	-60,645	0,102	-0,031
-210,723	180,741	-0,120	-0,129
-209,709	24,700	-0,035	-0,021
-208,694	-200,000	-0,000	-0,068
-207,679	-82,102	-0,224	-0,053
-206,665	-3,773	-0,074	0,038
-205,650	-85,247	0,076	-0,017
-204,636	-200,000	0,002	0,076
-203,621	-87,746	0,095	-0,021
-202,606	48,875	-0,015	-0,010
-201,592	-52,056	-0,161	-0,054
-200,577	-200,000	-0,003	0,051
-199,563	-200,000	0,001	0,051
-198,548	36,080	0,123	0,079
-197,533	-83,361	-0,074	-0,017
-196,519	100,938	0,074	-0,063
-195,504	221,039	-0,066	0,078
-194,490	-53,930	0,070	0,023
-193,475	62,363	-0,088	0,064
-192,460	142,300	-0,110	0,107
-191,446	-200,000	0,014	-0,117
-190,431	800,000	-0,036	0,081
-189,417	800,000	-0,017	0,043
-188,402	-200,000	0,000	-0,048
-187,387	-200,000	-0,006	-0,078
-186,373	-128,042	0,060	-0,006
-185,358	-131,796	-0,056	-0,005
-184,344	-200,000	0,015	0,080
-183,329	-200,000	0,007	0,027
-182,315	800,000	-0,020	0,056
-181,300	621,303	0,057	-0,105
-180,285	34,541	0,075	0,048
-179,271	-200,000	-0,018	0,067
-178,256	59,252	-0,116	-0,083
-177,242	8,288	0,101	-0,055
-176,227	-200,000	-0,002	0,045
-175,212	152,014	-0,103	0,103
-174,198	222,229	0,051	0,060
-173,183	142,592	-0,067	-0,065
-172,169	800,000	0,028	-0,077
-171,154	-56,649	0,122	-0,039
-170,139	-200,000	-0,012	-0,109
-169,125	171,231	-0,079	0,083
-168,110	240,365	-0,060	-0,073
-167,096	-135,112	-0,078	-0,007
-166,081	410,523	-0,064	0,098
-165,066	-200,000	-0,015	0,056
-164,052	177,767	-0,020	0,021
-163,037	-82,024	0,129	-0,030
-162,023	33,157	0,049	0,031
-161,008	-50,270	0,061	-0,021
-159,993	-7,025	-0,068	-0,034
-158,979	800,000	-0,005	-0,014
-157,964	199,424	-0,141	-0,157
-156,950	-43,422	-0,026	-0,010
-155,935	52,031	0,060	-0,041
-154,920	462,297	-0,026	0,042
-153,906	800,000	-0,020	0,041
-152,891	800,000	-0,047	0,106
-151,877	800,000	0,027	0,059
-150,862	-25,983	-0,122	0,052
-149,847	317,011	-0,076	-0,105
-148,833	-110,849	-0,085	0,013
-147,818	13,778	0,060	0,034
-146,804	-200,000	0,001	-0,015
-145,789	24,001	0,094	-0,056
-144,775	-41,336	0,027	-0,010
-143,760	-200,000	-0,018	-0,150
-142,745	486,884	-0,055	-0,091
-141,731	116,947	0,094	0,084
-140,716	800,000	0,017	0,036
-139,702	-104,178	-0,043	0,007
-138,687	40,467	-0,070	0,046
-137,672	-200,000	-0,027	-0,089
-136,658	59,016	-0,109	-0,078
-135,643	55,643	0,027	-0,019
-134,629	237,304	0,041	-0,049
-133,614	-200,000	0,031	0,110
-132,599	800,000	0,039	-0,089
-131,585	68,719	-0,057	-0,043
-130,570	81,526	0,026	-0,021
-129,556	74,658	0,065	-0,050
-128,541	800,000	-0,085	-0,175
-127,526	800,000	-0,019	-0,047
-126,512	-103,681	0,052	0,009
-125,497	364,532	-0,094	0,137
-124,483	-142,231	0,194	0,014
-123,468	19,137	-0,064	-0,037
-122,453	-17,776	-0,172	-0,078
-121,439	17,484	0,095	0,055
-120,424	-40,510	-0,055	0,021
-119,410	-30,006	-0,011	0,005
-118,395	-200,000	-0,030	0,128
-117,380	15,255	-0,137	-0,078
-116,366	646,140	-0,028	0,052
-115,351	-144,971	0,072	-0,005
-114,337	239,617	-0,102	-0,124
-113,322	383,853	0,064	-0,097
-112,307	670,463	0,042	0,080
-111,293	409,978	0,095	-0,147
-110,278	800,000	-0,014	-0,032
-109,264	115,116	-0,040	0,035
-108,249	-111,944	0,162	-0,024
-107,234	39,095	-0,069	0,045
-106,220	389,548	0,057	-0,087
-105,205	800,000	-0,038	0,082
-104,191	800,000	-0,025	0,065
-103,176	-70,967	0,109	-0,030
-102,162	-91,265	0,074	0,015
-101,147	-69,375	-0,122	-0,034
-100,132	475,845	-0,076	-0,126
-99,118	431,154	0,019	-0,030
-98,103	-161,172	0,131	-0,005
-97,089	149,601	0,110	0,109
-96,074	-33,398	0,108	-0,043
-95,059	278,550	-0,079	0,102
-94,045	-41,129	0,019	0,007
-93,030	334,822	-0,091	0,128
-92,016	800,000	0,008	0,017
-91,001	160,147	0,086	0,087
-89,986	800,000	0,031	0,097
-88,972	800,000	-0,046	0,113
-87,957	501,789	0,044	0,074
-86,943	-71,706	0,059	0,016
-85,928	-187,747	-0,096	-0,001
-84,913	43,893	0,140	-0,093
-83,899	98,786	0,041	-0,035
-82,884	-1,889	-0,041	-0,021
-81,870	21,179	0,067	0,039
-80,855	272,988	-0,105	0,135
-79,840	41,189	-0,107	0,070
-78,826	48,566	0,130	0,088
-77,811	55,983	-0,025	-0,017
-76,797	233,617	-0,040	-0,048
-75,782	-167,416	-0,060	0,002
-74,767	-200,000	-0,020	0,116
-73,753	1,036	-0,013	-0,007
-72,738	16,551	-0,055	0,032
-71,724	-200,000	-0,009	-0,070
-70,709	-30,529	0,091	0,037
-69,694	-6,555	-0,114	0,056
-68,680	377,531	0,036	0,054
-67,665	84,318	0,080	-0,063
-66,651	800,000	-0,025	0,053
-65,636	-200,000	-0,032	-0,157
-64,622	-200,000	0,004	-0,116
-63,607	192,984	-0,095	-0,105
-62,592	-118,469	0,113	-0,014
-61,578	-130,188	-0,085	0,008
-60,563	24,351	0,061	-0,036
-59,549	85,705	-0,137	0,109
-58,534	-119,154	-1,403	-0,176
-57,519	587,901	-0,881	-1,581
-56,505	-200,000	-0,737	-4,395
-55,490	-4,557	0,580	-0,289
-54,476	800,000	4,864	11,689
-53,461	-200,000	13,976	253,596
-52,446	-200,000	693,659	2262,648
-51,432	599,842	1624,284	2936,550
-50,417	117,732	1633,646	1458,879
-49,403	73,515	1287,634	976,998
-48,388	37,425	1023,555	656,938
-47,373	23,883	981,963	585,688
-46,359	23,237	971,392	577,240
-45,344	22,142	967,058	571,064
-44,330	22,098	965,596	570,036
-43,315	21,899	964,276	568,584
-42,300	21,941	963,074	567,990
-41,286	21,887	962,224	567,292
-40,271	21,894	961,266	566,726
-39,257	21,837	960,492	566,063
-38,242	21,885	959,471	565,594
-37,227	21,883	958,572	565,035
-36,213	21,857	957,617	564,367
-35,198	21,798	956,828	563,687
-34,184	21,884	956,232	563,593
-33,169	21,851	955,243	562,881
-32,154	21,966	954,284	562,665
-31,140	21,911	953,604	562,065
-30,125	21,947	952,848	561,711
-29,111	21,876	951,813	560,850
-28,096	21,942	951,131	560,639
-27,082	21,925	950,521	560,204
-26,067	21,978	949,763	559,905
-25,052	21,914	948,948	559,195
-24,038	21,960	948,316	558,948
-23,023	21,894	947,768	558,393
-22,009	21,966	946,996	558,144
-20,994	22,006	946,265	557,820
-19,979	21,900	945,812	557,194
-18,965	21,937	945,027	556,825
-17,950	21,949	944,462	556,508
-16,936	21,915	943,927	556,064
-15,921	21,902	943,007	555,457
-14,906	21,807	942,411	554,784
-13,892	21,802	941,690	554,320
-12,877	21,780	941,091	553,875
-11,863	21,749	940,505	553,410
-10,848	21,763	940,116	553,204
-9,833	21,829	939,668	553,128
-8,819	21,868	938,918	552,787
-7,804	21,822	938,236	552,220
-6,790	21,763	937,816	551,762
-5,775	21,852	936,914	551,491
-4,760	21,807	936,439	551,047
-3,746	21,788	935,879	550,636
-2,731	21,681	934,999	549,759
-1,717	21,630	934,476	549,268
-0,702	21,570	933,729	548,620
0,313	21,447	933,065	548,670
1,327	23,829	930,849	554,806
2,342	31,446	808,919	502,787
3,356	26,078	509,715	307,608
4,371	1,811	374,573	195,086
5,386	-1,019	357,361	182,624
6,400	-2,289	351,617	178,134
7,415	-2,563	349,094	176,511
8,429	-2,578	347,749	175,797
9,444	-2,749	346,865	175,130
10,459	-2,496	346,126	175,043
11,473	-2,447	345,458	174,748
12,488	-2,454	344,787	174,384
13,502	-2,459	344,159	174,045
14,517	-2,481	343,839	173,843
15,531	-2,474	343,278	173,551
16,546	-2,418	342,996	173,459
17,561	-2,391	342,550	173,250
18,575	-2,365	342,215	173,096
19,590	-2,468	341,683	172,691
20,604	-2,404	341,647	172,732
21,619	-2,394	341,107	172,455
22,634	-2,265	340,619	172,344
23,648	-2,306	340,202	172,070
24,663	-2,478	340,020	171,761
25,677	-2,405	339,731	171,686
26,692	-2,407	339,275	171,437
27,707	-2,473	339,095	171,254
28,721	-2,510	338,952	171,123
29,736	-2,389	338,485	171,013
30,750	-2,471	338,067	170,692
31,765	-2,366	337,950	170,740
32,780	-2,488	337,715	170,463
33,794	-2,445	337,459	170,368
34,809	-2,260	337,017	170,345
35,823	-2,400	336,731	170,023
36,838	-2,566	336,478	169,688
37,853	-2,461	336,238	169,674
38,867	-2,407	335,927	169,564
39,882	-2,435	335,837	169,471
40,896	-2,375	335,449	169,329
41,911	-2,415	335,130	169,107
42,926	-2,361	334,906	169,041
43,940	-2,383	334,548	168,820
44,955	-2,457	334,284	168,587
45,969	-2,376	334,046	168,545
46,984	-2,382	333,883	168,441
47,999	-2,396	333,468	168,200
49,013	-2,467	333,396	168,067
50,028	-2,321	332,874	167,956
51,042	-2,469	332,740	167,704
52,057	-2,496	332,395	167,485
53,071	-2,536	332,304	167,379
54,086	-2,497	332,029	167,269
55,101	-2,432	331,785	167,206
56,115	-2,323	331,419	167,131
57,130	-2,529	331,311	166,826
58,144	-2,467	330,937	166,694
59,159	-2,526	330,565	166,425
60,174	-2,398	330,384	166,464
61,188	-2,511	330,281	166,269
62,203	-2,381	329,913	166,216
63,217	-2,367	329,487	166,003
64,232	-2,376	329,351	165,909
65,247	-2,230	329,084	165,925
66,261	-2,139	328,844	165,892
67,276	-2,397	328,572	165,449
68,290	-2,450	328,435	165,305
69,305	-2,541	328,190	165,065
70,320	-2,390	327,759	165,003
71,334	-2,533	327,544	164,720
72,349	-2,338	327,297	164,799
73,363	-2,492	326,953	164,439
74,378	-2,360	326,865	164,528
75,393	-2,487	326,621	164,248
76,407	-2,304	326,331	164,292
77,422	-2,289	325,933	164,094
78,436	-2,323	325,733	163,941
79,451	-2,471	325,527	163,658
80,466	-2,438	325,372	163,602
81,480	-2,311	325,096	163,589
82,495	-2,220	324,703	163,479
83,509	-2,321	324,627	163,313
84,524	-2,385	324,350	163,088
85,539	-2,397	324,120	162,945
86,553	-2,368	323,840	162,821
87,568	-2,393	323,700	162,709
88,582	-2,417	323,363	162,498
89,597	-2,374	322,979	162,339
90,611	-2,415	322,964	162,271
91,626	-2,351	322,669	162,179
92,641	-2,280	322,436	162,126
93,655	-2,323	322,232	161,962
94,670	-2,329	321,944	161,796
95,684	-2,332	321,747	161,679
96,699	-2,358	321,322	161,422
97,714	-2,449	321,421	161,358
98,728	-2,332	321,006	161,264
99,743	-2,408	320,843	161,084
100,757	-2,446	320,666	160,940
101,772	-2,540	320,475	160,727
102,787	-2,396	319,990	160,626
103,801	-2,492	319,894	160,458
104,816	-2,386	319,619	160,422
105,830	-2,261	319,279	160,374
106,845	-2,226	319,132	160,324
107,860	-2,500	319,092	159,990
108,874	-2,306	318,669	159,975
109,889	-2,385	318,514	159,797
110,903	-2,343	318,259	159,701
111,918	-2,399	318,055	159,523
112,933	-2,294	317,746	159,468
113,947	-2,411	317,545	159,226
114,962	-2,464	317,443	159,102
115,976	-2,245	317,146	159,177
116,991	-2,429	316,967	158,874
118,006	-2,463	316,693	158,686
119,020	-2,332	316,506	158,720
120,035	-2,265	316,422	158,735
121,049	-2,379	316,228	158,501
122,064	-2,354	315,773	158,285
123,079	-2,320	315,422	158,132
124,093	-2,287	315,345	158,115
125,108	-2,425	315,143	157,851
126,122	-2,334	314,893	157,810
127,137	-2,291	314,736	157,763
128,151	-2,414	314,436	157,466
129,166	-2,455	314,326	157,354
130,181	-2,553	314,149	157,147
131,195	-2,436	313,791	157,079
132,210	-2,405	313,569	156,986
133,224	-2,411	313,372	156,867
134,239	-2,357	312,955	156,702
135,254	-2,346	312,752	156,598
136,268	-2,385	312,514	156,424
137,283	-2,429	312,330	156,270
138,297	-2,511	312,130	156,070
139,312	-2,459	311,868	155,979
140,327	-2,470	311,647	155,843
141,341	-2,291	311,457	155,925
142,356	-2,337	311,364	155,816
143,370	-2,399	310,985	155,547
144,385	-2,296	310,767	155,532
145,400	-2,307	310,704	155,475
146,414	-2,296	310,369	155,305
147,429	-2,283	310,261	155,251
148,443	-2,425	309,949	154,931
149,458	-2,185	309,746	155,069
150,473	-2,310	309,647	154,874
151,487	-2,412	309,396	154,627
152,502	-2,180	309,065	154,692
153,516	-2,232	308,997	154,590
154,531	-2,487	308,675	154,147
155,546	-2,357	308,480	154,172
156,560	-2,299	308,336	154,147
157,575	-2,454	308,082	153,844
158,589	-2,361	307,780	153,777
159,604	-2,317	307,586	153,712
160,619	-2,350	307,401	153,571
161,633	-2,408	307,321	153,458
162,648	-2,289	307,042	153,428
163,662	-2,299	306,825	153,296
164,677	-2,381	306,629	153,099
165,692	-2,375	306,366	152,961
166,706	-2,315	306,315	152,984
167,721	-2,334	305,991	152,789
168,735	-2,304	305,835	152,728
169,750	-2,375	305,889	152,668
170,764	-2,236	305,475	152,592
171,779	-2,334	305,342	152,410
172,794	-2,304	305,055	152,284
173,808	-2,237	304,837	152,231
174,823	-2,406	304,571	151,910
175,837	-2,366	304,467	151,886
176,852	-2,264	304,207	151,848
177,867	-2,506	304,117	151,539
178,881	-2,220	303,844	151,685
179,896	-2,196	303,540	151,544
180,910	-2,190	303,329	151,431
181,925	-2,340	303,184	151,191
182,940	-2,459	303,139	151,033
183,954	-2,230	302,739	151,056
184,969	-2,264	302,659	150,967
185,983	-2,292	302,437	150,814
186,998	-2,136	302,146	150,816
188,013	-2,213	302,062	150,682
189,027	-2,112	301,658	150,570
190,042	-2,368	301,534	150,233
191,056	-2,383	301,369	150,122
192,071	-2,314	301,220	150,105
193,086	-2,478	300,880	149,755
194,100	-2,337	300,687	149,789
195,115	-2,233	300,530	149,803
196,129	-2,190	300,439	149,788
197,144	-2,282	300,058	149,492
198,159	-2,415	299,935	149,282
199,173	-2,376	299,738	149,210
200,188	-2,386	299,343	148,990
201,202	-2,143	299,119	149,112
202,217	-2,209	299,007	148,975
203,232	-2,339	298,832	148,743
204,246	-2,244	298,664	148,742
205,261	-2,196	298,546	148,719
206,275	-2,279	298,196	148,448
207,290	-2,198	298,025	148,431
208,304	-2,247	297,998	148,355
209,319	-2,160	297,521	148,192
210,334	-2,230	297,295	147,996
211,348	-2,297	297,291	147,913
212,363	-2,308	297,081	147,785
213,377	-2,127	296,810	147,818
214,392	-2,331	296,719	147,555
215,407	-2,283	296,426	147,444
216,421	-2,271	296,343	147,402
217,436	-2,140	296,003	147,351
218,450	-2,326	295,840	147,070
219,465	-2,269	295,666	147,027
220,480	-2,216	295,482	146,976
221,494	-2,328	295,280	146,751
222,509	-2,309	295,104	146,669
223,523	-2,326	295,049	146,611
224,538	-2,255	294,695	146,493
225,553	-2,381	294,637	146,326
226,567	-2,299	294,356	146,255
227,582	-2,319	294,227	146,158
228,596	-2,212	293,917	146,097
229,611	-2,227	293,841	146,031
230,626	-2,290	293,578	145,826
231,640	-2,222	293,289	145,736
232,655	-2,305	293,255	145,624
233,669	-2,321	292,903	145,420
234,684	-2,282	292,733	145,361
235,699	-2,431	292,594	145,132
236,713	-2,325	292,327	145,092
237,728	-2,196	292,201	145,143
238,742	-2,303	292,130	144,989
239,757	-2,461	291,857	144,685
240,772	-2,187	291,618	144,824
241,786	-2,358	291,461	144,565
242,801	-2,262	291,258	144,545
243,815	-2,333	291,066	144,367
244,830	-2,363	290,927	144,256
245,844	-2,207	290,716	144,292
246,859	-2,292	290,359	144,018
247,874	-2,463	290,287	143,803
248,888	-2,332	290,038	143,795
249,903	-2,287	289,923	143,769
250,917	-2,423	289,832	143,578
251,932	-2,345	289,488	143,470
252,947	-2,582	289,239	143,104
253,961	-2,865	288,885	142,640
254,976	-3,197	288,613	142,169
255,990	-3,266	288,344	141,957
257,005	-2,565	288,545	142,725
258,020	-0,562	289,368	145,073
259,034	1,061	289,680	146,799
260,049	1,757	289,700	147,474
261,063	2,260	289,643	147,923
262,078	2,436	289,692	148,105
263,093	2,610	289,515	148,170
264,107	2,857	289,409	148,344
265,122	3,123	289,393	148,581
266,136	3,301	289,049	148,563
267,151	3,288	289,091	148,559
268,166	3,277	288,789	148,380
269,180	3,242	288,681	148,278
270,195	3,219	288,302	148,048
271,209	3,121	288,142	147,858
272,224	3,010	288,017	147,672
273,239	3,054	287,843	147,613
274,253	3,039	287,406	147,360
275,268	2,911	287,400	147,221
276,282	2,933	287,157	147,105
277,297	2,849	286,946	146,903
278,312	3,080	286,823	147,049
279,326	3,004	286,644	146,871
280,341	3,111	286,440	146,856
281,355	2,982	286,300	146,647
282,370	2,841	286,225	146,460
283,384	2,884	285,931	146,338
284,399	2,906	285,755	146,256
285,414	2,787	285,621	146,061
286,428	2,936	285,256	146,003
287,443	2,668	285,219	145,715
288,457	2,732	285,074	145,690
289,472	2,758	284,852	145,587
290,487	2,814	284,446	145,421
291,501	2,801	284,320	145,331
292,516	2,678	284,212	145,146
293,530	2,813	284,003	145,155
294,545	2,515	283,894	144,802
295,560	2,573	283,661	144,726
296,574	2,490	283,544	144,574
297,589	2,781	283,190	144,657
298,603	2,556	283,006	144,337
299,618	2,753	282,771	144,390
300,633	2,635	282,692	144,225
301,647	2,735	282,680	144,301
302,662	2,645	282,424	144,072
303,676	2,898	282,229	144,200
304,691	2,989	282,139	144,227
305,706	2,969	282,019	144,134
306,720	3,170	281,816	144,206
307,735	3,046	281,500	143,915
308,749	3,283	281,314	144,030
309,764	2,863	281,233	143,581
310,779	2,967	280,990	143,541
311,793	2,928	280,718	143,353
312,808	2,845	280,613	143,209
313,822	2,995	280,540	143,299
314,837	2,842	280,336	143,039
315,852	2,766	280,096	142,832
316,866	2,946	279,821	142,848
317,881	3,074	279,679	142,883
318,895	3,012	279,504	142,723
319,910	2,960	279,394	142,604
320,925	2,906	279,064	142,373
321,939	2,978	278,899	142,344
322,954	2,940	278,860	142,275
323,968	2,988	278,801	142,277
324,983	3,059	278,445	142,150
325,997	2,924	278,221	141,897
327,012	3,122	278,159	142,036
328,027	3,090	278,025	141,926
329,041	3,028	277,787	141,734
330,056	2,919	277,603	141,527
331,070	3,027	277,435	141,528
332,085	3,055	277,209	141,426
333,100	3,159	277,023	141,414
334,114	3,008	276,890	141,194
335,129	2,991	276,676	141,057
336,143	3,041	276,544	141,023
337,158	3,149	276,438	141,057
338,173	2,910	276,271	140,739
339,187	3,086	275,979	140,740
340,202	3,095	275,886	140,688
341,216	3,170	275,636	140,616
342,231	2,987	275,405	140,318
343,246	3,100	275,310	140,361
344,260	3,048	275,205	140,247
345,275	2,978	274,959	140,045
346,289	3,127	274,771	140,073
347,304	3,073	274,687	139,969
348,319	3,001	274,436	139,762
349,333	2,965	274,212	139,603
350,348	2,997	274,125	139,575
351,362	3,174	273,892	139,605
352,377	3,153	273,754	139,504
353,392	2,983	273,522	139,218
354,406	3,039	273,460	139,225
355,421	191,349	1351,820	1431,953
356,435	154,486	1483,307	1432,084
