DTS Sentinel unit serial number:	SN410029Multiplexer serial number:	ORYXHardware model number:	OX2-SRSoftware version number:	ORYX F/W v4,00 Oryx Data Collector v3.7.2.0data status	okinstallation	B4 Nyhavnadifferential loss correction	single-endedforward channel	channel 2reverse channel	N/Adate	2023/12/16time	03:30:13forward acquisition time	300,00reverse acquisition time	0,00gamma	499,1914k internal	0,3128k external	0,3128temperature offset calibration	1,0000default loss term (dB/km)	0,3820temperature slope calibration	1,0000multiplexer offset coefficient	1,0000multiplexer slope coefficient	1,0000fibre end	0,00T internal ref (°C)	22,00T ext. ref 1 (°C)	7,07T ext. ref 2 (°C)	7,27length (m)	temperature (°C)	Stokes	anti-Stokes-744,400	384,167	0,075	-0,116
-743,385	-62,636	-0,172	0,053
-742,371	131,222	-0,021	-0,020
-741,356	5,247	-0,293	0,160
-740,342	221,310	0,044	-0,053
-739,327	-36,523	-0,234	0,093
-738,312	-83,882	-0,102	-0,024
-737,298	-31,567	-0,248	0,103
-736,283	-200,000	0,024	-0,181
-735,269	43,015	-0,160	0,109
-734,254	17,504	-0,029	-0,017
-733,239	-125,387	-0,556	-0,062
-732,225	-94,440	0,176	-0,035
-731,210	513,463	-0,079	-0,137
-730,196	-74,820	-0,125	0,033
-729,181	-200,000	0,005	-0,060
-728,167	-84,210	-0,168	0,039
-727,152	800,000	0,010	-0,032
-726,137	-95,154	-0,084	0,017
-725,123	800,000	-0,048	0,145
-724,108	-200,000	-0,028	-0,114
-723,094	-200,000	-0,005	-0,075
-722,079	-200,000	0,032	-0,174
-721,064	-200,000	0,007	-0,141
-720,050	-100,888	-0,121	0,022
-719,035	19,492	-0,040	-0,024
-718,021	-200,000	0,006	-0,071
-717,006	800,000	-0,027	-0,074
-715,991	-200,000	0,005	-0,037
-714,977	-200,000	-0,001	0,128
-713,962	40,067	-0,097	-0,065
-712,948	800,000	-0,012	-0,036
-711,933	-200,000	-0,016	-0,058
-710,918	-34,190	-0,148	0,060
-709,904	-200,000	-0,009	-0,037
-708,889	-200,000	0,009	-0,061
-707,875	17,892	-0,072	-0,042
-706,860	-128,403	-0,042	0,004
-705,845	7,504	0,129	-0,072
-704,831	-200,000	-0,017	-0,102
-703,816	779,691	0,013	-0,027
-702,802	800,000	-0,023	-0,067
-701,787	-200,000	-0,025	-0,167
-700,772	-73,515	0,045	-0,012
-699,758	-96,139	-0,029	-0,006
-698,743	111,172	0,026	0,023
-697,729	-200,000	-0,008	-0,110
-696,714	800,000	0,028	-0,074
-695,699	91,751	-0,045	0,038
-694,685	681,302	-0,075	-0,146
-693,670	-43,991	-0,076	-0,028
-692,656	81,953	0,071	-0,057
-691,641	-200,000	0,007	-0,030
-690,627	244,488	0,058	0,072
-689,612	453,679	-0,036	0,059
-688,597	277,512	0,068	-0,090
-687,583	142,426	-0,081	0,080
-686,568	-45,224	-0,058	0,021
-685,554	407,629	-0,032	-0,050
-684,539	-200,000	0,014	0,068
-683,524	-200,000	0,003	-0,097
-682,510	-171,845	0,094	-0,002
-681,495	-101,506	-0,143	0,026
-680,481	-200,000	0,023	-0,079
-679,466	403,263	-0,045	-0,071
-678,451	-200,000	-0,020	0,105
-677,437	-100,576	-0,111	-0,020
-676,422	-200,000	0,031	-0,138
-675,408	800,000	0,025	0,078
-674,393	-77,372	-0,160	-0,041
-673,378	-99,511	0,159	0,029
-672,364	208,569	-0,055	-0,064
-671,349	567,204	-0,028	-0,052
-670,335	-200,000	-0,007	-0,029
-669,320	-10,024	0,050	0,024
-668,305	-200,000	-0,048	0,169
-667,291	800,000	-0,068	0,145
-666,276	-38,602	-0,070	-0,027
-665,262	-89,165	-0,069	-0,015
-664,247	190,101	-0,076	0,085
-663,232	-18,680	0,017	-0,008
-662,218	110,553	0,054	0,048
-661,203	53,397	-0,074	-0,053
-660,189	-115,226	-0,123	-0,017
-659,174	-17,808	0,041	0,019
-658,159	800,000	0,021	-0,059
-657,145	158,091	-0,013	-0,013
-656,130	-200,000	0,005	-0,055
-655,116	-91,610	-0,033	0,007
-654,101	279,786	-0,034	-0,045
-653,086	-99,884	0,075	0,014
-652,072	75,811	-0,030	0,023
-651,057	-200,000	-0,010	-0,086
-650,043	-200,000	-0,045	-0,179
-649,028	800,000	0,010	-0,025
-648,014	-95,624	0,005	0,001
-646,999	-34,465	-0,066	-0,026
-645,984	-1,754	0,123	0,064
-644,970	800,000	0,038	0,084
-643,955	800,000	0,035	-0,110
-642,941	-164,704	-0,101	0,003
-641,926	82,954	0,047	-0,038
-640,911	-145,239	0,117	0,008
-639,897	-200,000	-0,014	0,054
-638,882	536,292	0,033	-0,058
-637,868	101,135	0,031	-0,026
-636,853	-115,854	-0,079	-0,011
-635,838	50,687	-0,071	-0,049
-634,824	150,304	-0,041	-0,041
-633,809	-79,246	0,088	-0,022
-632,795	-3,526	0,121	-0,062
-631,780	-116,467	0,112	-0,015
-630,765	-61,987	-0,080	0,025
-629,751	468,905	-0,081	-0,136
-628,736	-136,209	-0,102	0,009
-627,722	-200,000	0,000	0,092
-626,707	-58,730	0,127	-0,040
-625,692	579,355	0,081	0,148
-624,678	-169,514	-0,152	-0,004
-623,663	800,000	0,035	0,082
-622,649	172,394	0,065	-0,070
-621,634	-66,075	-0,185	-0,054
-620,619	-31,810	-0,104	-0,043
-619,605	800,000	0,023	-0,065
-618,590	-200,000	-0,008	0,086
-617,576	-200,000	-0,002	0,056
-616,561	55,593	-0,172	-0,123
-615,546	45,629	-0,062	-0,042
-614,532	-185,134	0,061	-0,001
-613,517	-66,275	-0,085	-0,025
-612,503	123,516	-0,125	0,116
-611,488	-200,000	0,021	0,184
-610,474	250,932	0,061	-0,077
-609,459	-126,095	-0,091	-0,010
-608,444	-62,352	-0,161	0,049
-607,430	800,000	0,016	-0,044
-606,415	-78,508	0,044	0,011
-605,401	676,604	-0,026	-0,049
-604,386	56,613	0,109	-0,079
-603,371	-200,000	0,022	-0,075
-602,357	641,134	0,017	0,032
-601,342	-113,343	-0,128	0,018
-600,328	-18,621	-0,173	-0,080
-599,313	800,000	0,028	-0,081
-598,298	-200,000	0,011	0,047
-597,284	800,000	-0,035	0,114
-596,269	-200,000	-0,014	0,062
-595,255	-39,998	-0,133	0,051
-594,240	-81,178	-0,030	-0,007
-593,225	800,000	0,038	-0,084
-592,211	78,813	0,037	-0,029
-591,196	374,870	0,090	0,136
-590,182	79,663	-0,118	0,094
-589,167	-200,000	0,005	0,049
-588,152	194,271	0,017	-0,019
-587,138	-119,711	-0,129	-0,016
-586,123	-200,000	-0,021	-0,139
-585,109	-32,846	-0,027	0,011
-584,094	-200,000	0,016	-0,136
-583,079	114,456	0,097	0,087
-582,065	-200,000	0,017	0,120
-581,050	519,488	0,043	0,076
-580,036	177,014	-0,085	-0,091
-579,021	-103,809	-0,115	-0,020
-578,006	353,795	0,076	-0,111
-576,992	577,181	-0,094	-0,171
-575,977	-16,549	-0,066	0,031
-574,963	558,177	-0,101	0,181
-573,948	-67,958	-0,015	-0,004
-572,934	-200,000	-0,012	0,110
-571,919	-36,285	-0,063	0,025
-570,904	169,650	0,092	-0,098
-569,890	373,944	-0,022	0,033
-568,875	-15,529	-0,046	0,022
-567,861	-200,000	0,006	0,036
-566,846	-200,000	-0,020	0,200
-565,831	800,000	0,015	0,031
-564,817	-66,742	-0,075	-0,022
-563,802	-200,000	-0,004	-0,029
-562,788	-87,486	0,048	0,011
-561,773	221,073	-0,048	0,057
-560,758	-10,049	-0,096	-0,047
-559,744	212,146	0,074	-0,087
-558,729	-36,511	-0,018	-0,007
-557,715	-5,773	0,103	0,052
-556,700	-200,000	0,001	-0,089
-555,685	199,348	-0,036	-0,041
-554,671	51,743	0,090	-0,063
-553,656	-200,000	0,001	0,037
-552,642	5,826	0,058	-0,032
-551,627	-48,531	-0,036	0,013
-550,612	-200,000	-0,004	-0,037
-549,598	17,460	0,045	-0,026
-548,583	144,741	-0,102	-0,100
-547,569	-8,311	0,098	0,049
-546,554	429,649	0,037	0,060
-545,539	800,000	0,034	0,108
-544,525	405,845	-0,027	0,043
-543,510	114,921	0,046	0,042
-542,496	-200,000	-0,021	-0,154
-541,481	-200,000	0,017	-0,080
-540,466	-200,000	0,008	-0,055
-539,452	-141,514	0,085	0,006
-538,437	26,340	-0,110	0,067
-537,423	800,000	-0,013	-0,038
-536,408	-200,000	-0,016	-0,142
-535,393	-106,308	-0,138	-0,022
-534,379	746,715	-0,048	-0,096
-533,364	163,457	-0,046	-0,048
-532,350	-200,000	-0,016	-0,080
-531,335	-200,000	-0,018	-0,072
-530,321	-79,591	0,115	0,028
-529,306	6,919	-0,099	0,054
-528,291	-132,077	-0,082	-0,008
-527,277	709,748	-0,031	-0,061
-526,262	-200,000	0,008	-0,047
-525,248	-200,000	-0,026	0,139
-524,233	-200,000	0,011	0,156
-523,218	-200,000	-0,015	0,080
-522,204	-200,000	0,007	0,068
-521,189	-124,790	-0,091	-0,010
-520,175	800,000	-0,053	-0,131
-519,160	581,033	-0,022	0,041
-518,145	86,209	-0,061	0,049
-517,131	-129,599	-0,062	0,006
-516,116	76,193	0,098	0,076
-515,102	-200,000	0,019	0,133
-514,087	258,914	-0,085	-0,108
-513,072	-200,000	-0,015	-0,063
-512,058	383,498	-0,046	-0,070
-511,043	141,196	0,067	-0,065
-510,029	183,148	0,050	0,054
-509,014	-90,035	0,091	-0,019
-507,999	800,000	-0,034	-0,107
-506,985	-62,647	-0,028	-0,008
-505,970	142,869	0,084	-0,082
-504,956	-35,735	0,037	0,015
-503,941	138,170	0,079	-0,077
-502,926	368,111	-0,077	-0,115
-501,912	800,000	0,026	0,062
-500,897	-117,612	-0,080	-0,011
-499,883	192,200	-0,055	0,062
-498,868	800,000	-0,064	0,186
-497,853	-200,000	-0,005	0,044
-496,839	-200,000	0,009	-0,224
-495,824	-200,000	-0,021	0,092
-494,810	96,715	0,052	0,043
-493,795	800,000	-0,034	-0,072
-492,781	77,990	0,078	-0,061
-491,766	-200,000	0,007	-0,081
-490,751	278,918	-0,028	-0,037
-489,737	47,367	0,084	0,058
-488,722	437,266	-0,039	0,062
-487,708	-200,000	0,005	0,053
-486,693	125,710	-0,109	0,102
-485,678	20,725	-0,131	0,078
-484,664	-200,000	0,019	-0,150
-483,649	73,656	-0,133	0,102
-482,635	-130,977	-0,087	-0,008
-481,620	0,209	-0,068	-0,036
-480,605	64,982	-0,074	0,055
-479,591	629,447	0,016	-0,031
-478,576	357,555	-0,038	0,056
-477,562	-200,000	-0,019	0,128
-476,547	-166,552	-0,092	0,003
-475,532	78,314	-0,124	-0,098
-474,518	800,000	0,017	-0,043
-473,503	-200,000	-0,023	0,084
-472,489	190,303	-0,007	0,008
-471,474	-43,488	-0,173	0,064
-470,459	800,000	0,071	0,159
-469,445	-200,000	-0,021	-0,106
-468,430	25,179	-0,134	0,082
-467,416	474,525	0,048	0,080
-466,401	-200,000	-0,016	0,067
-465,386	161,915	0,040	0,041
-464,372	50,473	-0,073	-0,051
-463,357	-16,836	-0,042	-0,019
-462,343	-16,026	-0,064	0,030
-461,328	443,376	-0,035	-0,057
-460,313	-200,000	-0,007	0,075
-459,299	-42,189	0,105	0,039
-458,284	214,414	0,062	0,073
-457,270	-200,000	0,058	0,192
-456,255	-143,059	-0,100	0,007
-455,241	-200,000	-0,038	-0,172
-454,226	120,583	0,046	-0,042
-453,211	-41,714	-0,102	0,038
-452,197	-200,000	-0,001	0,030
-451,182	800,000	0,039	-0,086
-450,168	-156,778	0,117	-0,005
-449,153	702,346	-0,043	-0,084
-448,138	344,089	0,035	-0,051
-447,124	-23,112	-0,147	0,065
-446,109	105,432	0,118	0,103
-445,095	33,162	0,051	-0,032
-444,080	-200,000	-0,027	0,119
-443,065	-49,613	0,093	-0,032
-442,051	800,000	0,027	0,070
-441,036	497,090	0,011	-0,018
-440,022	73,530	-0,104	-0,080
-439,007	157,669	-0,035	-0,036
-437,992	800,000	0,022	0,058
-436,978	334,394	0,127	0,181
-435,963	-89,272	0,064	-0,014
-434,949	150,531	-0,117	-0,117
-433,934	-75,171	-0,076	-0,020
-432,919	-200,000	0,003	-0,099
-431,905	800,000	0,022	0,060
-430,890	-200,000	-0,003	0,025
-429,876	54,487	0,100	-0,071
-428,861	-26,268	0,084	-0,036
-427,846	422,462	-0,032	-0,050
-426,832	-134,774	-0,063	-0,006
-425,817	254,541	0,018	-0,023
-424,803	-26,399	-0,058	-0,025
-423,788	-17,648	0,097	0,045
-422,773	-200,000	-0,020	-0,139
-421,759	-81,442	-0,031	0,007
-420,744	-200,000	0,018	-0,100
-419,730	-44,121	0,037	0,014
-418,715	138,733	-0,049	-0,048
-417,701	-26,143	0,047	-0,020
-416,686	-78,118	-0,008	0,002
-415,671	-89,340	0,183	0,039
-414,657	6,877	-0,052	-0,028
-413,642	-169,633	-0,081	0,002
-412,628	156,154	-0,018	-0,018
-411,613	-200,000	0,004	0,048
-410,598	279,306	0,072	-0,095
-409,584	-94,978	0,036	-0,007
-408,569	-131,609	0,066	-0,006
-407,555	272,771	0,099	0,129
-406,540	800,000	0,054	-0,127
-405,525	-20,023	0,103	-0,047
-404,511	-200,000	0,001	-0,157
-403,496	-61,461	-0,046	0,014
-402,482	669,099	0,084	0,160
-401,467	-170,856	-0,064	0,002
-400,452	74,303	0,083	0,064
-399,438	-200,000	0,014	0,190
-398,423	19,970	0,095	0,056
-397,409	-200,000	0,001	0,065
-396,394	-151,280	0,065	0,003
-395,379	-48,708	0,098	0,034
-394,365	-200,000	-0,002	0,051
-393,350	94,301	-0,052	0,043
-392,336	342,882	0,043	0,063
-391,321	800,000	0,059	0,124
-390,306	82,565	0,023	-0,018
-389,292	-200,000	0,011	-0,159
-388,277	-200,000	0,023	0,124
-387,263	-200,000	0,014	0,046
-386,248	-2,057	0,142	-0,073
-385,233	68,942	-0,078	-0,059
-384,219	800,000	0,044	-0,142
-383,204	153,993	-0,070	-0,071
-382,190	-200,000	-0,010	-0,093
-381,175	-0,117	0,107	-0,056
-380,160	800,000	0,068	0,146
-379,146	-134,489	0,086	-0,008
-378,131	78,048	0,093	-0,072
-377,117	-200,000	0,006	-0,049
-376,102	170,862	0,056	-0,058
-375,088	-110,146	-0,090	0,014
-374,073	-131,986	0,037	-0,004
-373,058	-200,000	0,024	0,081
-372,044	800,000	0,022	0,059
-371,029	-8,871	0,060	-0,029
-370,015	762,889	0,036	0,071
-369,000	-81,105	-0,088	0,021
-367,985	14,195	-0,035	0,020
-366,971	800,000	-0,049	-0,131
-365,956	61,528	0,106	0,077
-364,942	-87,194	0,096	-0,021
-363,927	-142,660	0,169	0,012
-362,912	-200,000	-0,015	-0,069
-361,898	-9,826	-0,118	-0,058
-360,883	47,493	-0,026	-0,018
-359,869	-11,649	0,106	-0,051
-358,854	-102,078	-0,168	0,029
-357,839	3,704	-0,072	0,038
-356,825	-40,596	0,056	0,021
-355,810	-28,268	0,056	-0,024
-354,796	-200,000	-0,011	0,040
-353,781	-200,000	0,015	-0,091
-352,766	690,626	0,021	-0,040
-351,752	59,074	-0,029	0,021
-350,737	-48,142	-0,115	-0,040
-349,723	-130,488	0,062	0,006
-348,708	97,098	0,051	-0,043
-347,693	-200,000	-0,003	0,127
-346,679	800,000	0,098	-0,213
-345,664	-200,000	-0,001	-0,068
-344,650	-28,735	-0,013	0,005
-343,635	-151,880	0,148	0,008
-342,620	77,544	0,049	0,038
-341,606	730,050	0,023	0,044
-340,591	433,931	-0,057	0,091
-339,577	78,883	-0,110	-0,087
-338,562	800,000	-0,008	0,021
-337,548	-200,000	-0,028	0,101
-336,533	-119,939	0,045	0,006
-335,518	-200,000	0,038	0,176
-334,504	67,959	-0,071	-0,053
-333,489	-89,090	-0,067	0,014
-332,475	-200,000	-0,005	-0,066
-331,460	690,800	-0,015	-0,028
-330,445	-100,676	0,065	-0,012
-329,431	-200,000	-0,001	-0,020
-328,416	-122,091	-0,072	0,009
-327,402	-65,646	0,100	0,029
-326,387	-200,000	0,002	-0,071
-325,372	-200,000	-0,052	0,172
-324,358	800,000	0,019	0,052
-323,343	-115,208	0,048	0,007
-322,329	-112,109	0,135	0,020
-321,314	347,855	0,068	0,099
-320,299	81,663	-0,047	-0,038
-319,285	185,223	-0,078	-0,085
-318,270	-200,000	-0,009	-0,052
-317,256	-14,046	-0,077	-0,036
-316,241	-94,174	0,063	0,013
-315,226	528,930	0,021	-0,036
-314,212	69,517	0,078	0,059
-313,197	-13,818	-0,006	-0,003
-312,183	782,813	-0,036	-0,073
-311,168	22,391	0,098	-0,058
-310,153	800,000	0,090	-0,198
-309,139	9,078	0,093	0,051
-308,124	800,000	-0,012	-0,037
-307,110	-200,000	0,031	0,126
-306,095	-146,817	0,072	-0,004
-305,080	-173,736	-0,108	0,002
-304,066	800,000	-0,021	-0,062
-303,051	-71,400	-0,114	-0,031
-302,037	113,518	0,052	0,046
-301,022	-200,000	-0,006	-0,127
-300,008	-25,656	0,070	0,030
-298,993	130,289	-0,044	0,042
-297,978	35,611	0,083	-0,053
-296,964	-200,000	-0,001	-0,078
-295,949	-200,000	0,026	-0,105
-294,935	181,116	-0,061	0,066
-293,920	-200,000	0,008	0,130
-292,905	231,281	-0,028	-0,033
-291,891	193,125	0,002	-0,003
-290,876	48,900	0,034	-0,023
-289,862	23,564	0,057	-0,034
-288,847	-200,000	-0,003	-0,110
-287,832	-58,657	-0,047	0,015
-286,818	-72,707	0,037	0,010
-285,803	722,007	-0,036	-0,071
-284,789	52,022	0,045	0,031
-283,774	-96,695	0,053	0,010
-282,759	512,772	-0,013	-0,022
-281,745	800,000	-0,016	-0,048
-280,730	149,329	-0,032	0,031
-279,716	-47,338	0,086	0,030
-278,701	-200,000	0,022	0,116
-277,686	-200,000	-0,032	0,136
-276,672	78,228	-0,048	0,038
-275,657	-67,835	-0,152	0,043
-274,643	-200,000	0,028	0,124
-273,628	800,000	0,045	0,100
-272,613	494,569	0,035	0,060
-271,599	800,000	-0,005	-0,014
-270,584	100,977	0,107	0,091
-269,570	54,890	0,104	-0,073
-268,555	800,000	-0,054	-0,161
-267,540	-160,606	0,030	0,001
-266,526	-200,000	0,023	-0,113
-265,511	800,000	0,026	-0,053
-264,497	-200,000	-0,004	-0,087
-263,482	-162,013	0,031	-0,001
-262,467	-200,000	0,015	0,097
-261,453	127,224	0,014	-0,013
-260,438	-200,000	-0,003	0,100
-259,424	40,642	-0,021	-0,014
-258,409	800,000	0,022	0,046
-257,395	800,000	-0,036	0,073
-256,380	800,000	0,038	-0,104
-255,365	-56,436	-0,109	0,035
-254,351	-2,955	0,100	0,051
-253,336	201,924	-0,082	-0,092
-252,322	-200,000	-0,007	-0,063
-251,307	219,788	-0,070	-0,082
-250,292	-156,072	0,063	-0,003
-249,278	-59,334	-0,024	0,007
-248,263	633,424	-0,080	0,149
-247,249	-200,000	-0,002	0,236
-246,234	128,074	0,049	0,045
-245,219	800,000	-0,022	-0,048
-244,205	-20,254	-0,118	0,053
-243,190	-200,000	0,017	-0,092
-242,176	121,137	-0,027	0,025
-241,161	116,718	0,063	0,057
-240,146	-200,000	-0,014	0,113
-239,132	383,249	-0,028	-0,043
-238,117	-200,000	-0,013	-0,207
-237,103	-200,000	-0,002	-0,033
-236,088	81,507	0,109	0,086
-235,073	451,831	0,101	0,164
-234,059	-41,411	-0,149	0,056
-233,044	-52,397	0,139	-0,047
-232,030	-105,065	0,157	0,026
-231,015	-57,307	-0,086	-0,027
-230,000	-200,000	-0,014	-0,137
-228,986	-200,000	-0,001	-0,056
-227,971	89,992	0,042	0,034
-226,957	56,113	0,060	-0,042
-225,942	-30,649	-0,089	0,037
-224,927	419,712	0,012	-0,018
-223,913	231,288	0,042	0,050
-222,898	800,000	-0,074	-0,149
-221,884	550,575	-0,096	0,168
-220,869	63,970	0,123	-0,090
-219,855	79,812	0,096	-0,075
-218,840	-200,000	0,013	0,056
-217,825	563,167	0,026	-0,047
-216,811	75,726	-0,020	-0,016
-215,796	800,000	0,041	-0,116
-214,782	378,970	-0,016	-0,024
-213,767	52,806	0,039	-0,027
-212,752	76,748	-0,057	-0,044
-211,738	-69,662	0,054	-0,015
-210,723	112,627	-0,103	0,091
-209,709	-137,276	0,067	-0,005
-208,694	-124,925	0,045	-0,005
-207,679	-200,000	-0,003	-0,134
-206,665	-104,506	0,033	-0,005
-205,650	-51,351	0,217	0,073
-204,636	608,516	0,008	-0,015
-203,621	800,000	-0,005	0,011
-202,606	-126,653	0,038	0,004
-201,592	-80,678	-0,110	0,026
-200,577	-18,781	0,053	0,024
-199,563	-200,000	-0,012	0,047
-198,548	-122,526	0,071	0,008
-197,533	800,000	-0,041	-0,103
-196,519	-111,905	-0,079	0,012
-195,504	800,000	0,039	-0,086
-194,490	397,631	0,029	0,044
-193,475	119,627	-0,090	-0,081
-192,460	371,692	-0,020	0,030
-191,446	-200,000	0,005	0,025
-190,431	-72,194	0,109	0,029
-189,417	800,000	0,061	0,152
-188,402	24,977	0,115	0,069
-187,387	800,000	-0,045	-0,139
-186,373	-200,000	-0,016	-0,132
-185,358	-161,758	-0,108	0,004
-184,344	165,160	0,065	0,066
-183,329	0,484	0,087	0,045
-182,315	280,700	0,043	0,056
-181,300	276,890	-0,052	0,067
-180,285	231,473	0,068	-0,081
-179,271	-200,000	0,007	-0,041
-178,256	-190,163	0,009	0,000
-177,242	34,966	-0,156	0,099
-176,227	-67,353	0,108	0,031
-175,212	699,009	0,053	-0,102
-174,198	-200,000	0,011	-0,108
-173,183	426,708	-0,056	-0,088
-172,169	145,656	-0,041	0,040
-171,154	58,741	0,096	0,068
-170,139	-200,000	0,007	0,185
-169,125	-17,831	0,011	-0,005
-168,110	-25,414	0,058	0,025
-167,096	91,697	-0,064	0,052
-166,081	268,605	-0,039	0,050
-165,066	-108,622	-0,177	0,027
-164,052	16,000	-0,141	0,080
-163,037	279,478	-0,079	-0,103
-162,023	280,778	0,005	-0,007
-161,008	442,202	-0,062	0,100
-159,993	79,440	-0,069	0,054
-158,979	500,560	0,033	-0,055
-157,964	-33,206	-0,092	0,037
-156,950	170,960	0,072	-0,075
-155,935	117,074	0,032	-0,029
-154,920	800,000	0,048	0,125
-153,906	-200,000	-0,015	-0,087
-152,891	0,181	0,023	0,012
-151,877	-200,000	-0,049	-0,178
-150,862	-19,101	-0,078	0,035
-149,847	280,411	0,103	-0,135
-148,833	63,656	0,111	-0,081
-147,818	-200,000	0,129	-0,000
-146,804	-200,000	-0,010	-0,038
-145,789	111,578	-0,047	0,041
-144,775	38,240	-0,057	-0,037
-143,760	-200,000	0,007	-0,042
-142,745	-101,542	-0,074	-0,013
-141,731	-105,665	-0,104	-0,017
-140,716	-200,000	0,025	0,103
-139,702	-83,557	-0,143	0,033
-138,687	-150,294	0,076	-0,004
-137,672	228,152	-0,095	0,113
-136,658	230,132	0,035	0,042
-135,643	-200,000	-0,004	-0,131
-134,629	82,086	0,125	0,098
-133,614	274,682	-0,039	0,050
-132,599	800,000	0,020	0,058
-131,585	800,000	0,057	0,124
-130,570	-88,981	-0,101	0,022
-129,556	24,838	0,169	0,101
-128,541	-183,028	-0,055	0,001
-127,526	118,299	-0,042	-0,038
-126,512	-200,000	-0,008	0,125
-125,497	32,316	0,145	0,091
-124,483	544,063	-0,069	0,121
-123,468	63,965	-0,088	-0,064
-122,453	-200,000	-0,032	-0,138
-121,439	800,000	-0,067	-0,177
-120,424	-172,751	-0,081	-0,002
-119,410	-91,773	-0,128	-0,026
-118,395	-116,460	0,088	0,012
-117,380	-77,784	-0,040	-0,010
-116,366	-107,888	-0,103	-0,016
-115,351	-118,561	-0,022	-0,003
-114,337	-103,565	0,114	-0,019
-113,322	800,000	0,049	-0,151
-112,307	-47,638	-0,064	-0,023
-111,293	206,232	0,062	-0,070
-110,278	800,000	-0,068	0,143
-109,264	-200,000	0,013	-0,090
-108,249	-200,000	-0,006	-0,039
-107,234	66,264	0,033	0,025
-106,220	714,431	-0,039	-0,075
-105,205	-200,000	-0,003	0,036
-104,191	-200,000	0,018	0,059
-103,176	-200,000	-0,004	0,035
-102,162	28,443	-0,157	-0,096
-101,147	-19,069	-0,138	0,062
-100,132	-200,000	0,025	-0,129
-99,118	-200,000	-0,006	0,082
-98,103	-200,000	0,016	0,168
-97,089	-200,000	0,019	0,073
-96,074	546,665	0,103	0,180
-95,059	800,000	0,025	0,060
-94,045	-11,535	-0,060	0,029
-93,030	-158,348	0,072	0,003
-92,016	800,000	0,012	0,034
-91,001	-122,205	0,035	-0,004
-89,986	205,865	0,061	0,068
-88,972	800,000	0,065	0,167
-87,957	-99,139	0,088	0,016
-86,943	43,008	-0,152	-0,100
-85,928	-127,373	-0,089	0,009
-84,913	-200,000	0,009	-0,037
-83,899	176,866	-0,033	-0,035
-82,884	-9,562	0,094	-0,045
-81,870	800,000	-0,053	0,125
-80,855	-200,000	0,007	0,120
-79,840	102,284	-0,106	0,090
-78,826	99,575	-0,205	0,172
-77,811	-19,734	-0,146	0,065
-76,797	13,149	0,031	0,017
-75,782	-33,970	-0,071	-0,028
-74,767	99,129	0,085	0,071
-73,753	130,258	0,056	0,052
-72,738	-114,794	-0,078	-0,011
-71,724	-16,048	-0,046	-0,021
-70,709	-128,656	0,040	0,004
-69,694	800,000	-0,052	-0,145
-68,680	127,690	0,059	-0,054
-67,665	-89,092	0,143	-0,030
-66,651	344,832	0,071	-0,102
-65,636	42,718	-0,057	0,038
-64,622	253,364	-0,085	0,105
-63,607	660,032	0,020	-0,037
-62,592	-9,007	-0,123	0,059
-61,578	30,950	-0,055	-0,034
-60,563	-28,257	0,041	0,017
-59,549	27,491	0,038	0,023
-58,534	-140,947	-1,300	-0,095
-57,519	628,612	-0,830	-1,527
-56,505	-200,000	-0,877	-4,361
-55,490	-39,343	0,671	-0,254
-54,476	800,000	4,844	11,629
-53,461	-200,000	14,008	251,099
-52,446	-200,000	692,827	2239,716
-51,432	583,031	1621,895	2895,344
-50,417	117,937	1630,779	1455,209
-49,403	73,863	1285,429	975,337
-48,388	37,832	1021,988	656,372
-47,373	23,994	980,213	584,174
-46,359	23,244	969,776	575,478
-45,344	22,293	965,257	569,679
-44,330	22,212	963,817	568,542
-43,315	22,144	962,372	567,446
-42,300	22,086	961,367	566,643
-41,286	22,088	960,296	565,997
-40,271	22,024	959,559	565,333
-39,257	22,059	958,560	564,835
-38,242	22,059	957,537	564,209
-37,227	22,015	956,705	563,554
-36,213	22,027	956,042	563,181
-35,198	22,011	954,997	562,490
-34,184	22,018	954,521	562,209
-33,169	21,979	953,576	561,505
-32,154	22,044	952,554	561,091
-31,140	22,066	951,784	560,686
-30,125	22,091	950,861	560,200
-29,111	22,070	950,183	559,710
-28,096	22,020	949,533	559,147
-27,082	22,078	948,916	558,945
-26,067	21,987	948,074	558,137
-25,052	22,053	947,279	557,858
-24,038	22,036	946,733	557,460
-23,023	22,023	945,959	556,939
-22,009	22,045	945,431	556,677
-20,994	22,083	944,770	556,387
-19,979	22,031	944,026	555,760
-18,965	22,026	943,604	555,475
-17,950	22,055	942,822	555,085
-16,936	21,952	942,157	554,344
-15,921	21,939	941,757	554,046
-14,906	21,907	940,794	553,355
-13,892	21,948	940,026	553,012
-12,877	21,879	939,568	552,502
-11,863	21,877	938,930	552,099
-10,848	21,923	938,360	551,888
-9,833	22,068	937,831	552,012
-8,819	21,950	937,375	551,348
-7,804	21,973	936,487	550,878
-6,790	21,926	936,004	550,422
-5,775	21,950	935,351	550,092
-4,760	21,991	934,553	549,732
-3,746	21,951	934,077	549,302
-2,731	21,752	933,556	548,348
-1,717	21,735	932,740	547,795
-0,702	21,799	932,139	547,621
0,313	21,539	931,512	547,261
1,327	24,093	928,994	553,736
2,342	31,972	807,136	502,379
3,356	27,148	507,564	307,695
4,371	2,746	372,429	194,888
5,386	-0,121	355,340	182,429
6,400	-1,833	349,174	177,192
7,415	-2,654	346,288	174,732
8,429	-2,742	344,801	173,862
9,444	-2,721	343,817	173,375
10,459	-2,717	343,243	173,076
11,473	-2,717	342,592	172,731
12,488	-2,518	342,023	172,664
13,502	-2,371	341,563	172,589
14,517	-2,494	340,903	172,096
15,531	-2,666	340,407	171,629
16,546	-2,648	339,916	171,387
17,561	-2,830	339,493	170,946
18,575	-2,650	339,042	170,914
19,590	-2,719	338,891	170,742
20,604	-2,549	338,428	170,691
21,619	-2,834	338,026	170,141
22,634	-2,702	337,673	170,102
23,648	-2,608	337,335	170,026
24,663	-2,644	336,980	169,790
25,677	-2,661	336,720	169,623
26,692	-2,706	336,460	169,426
27,707	-2,686	336,150	169,278
28,721	-2,567	335,708	169,177
29,736	-2,705	335,545	168,921
30,750	-2,696	335,163	168,723
31,765	-2,613	334,823	168,634
32,780	-2,716	334,631	168,403
33,794	-2,723	334,394	168,260
34,809	-2,658	333,923	168,083
35,823	-2,531	333,610	168,057
36,838	-2,703	333,455	167,767
37,853	-2,811	333,032	167,415
38,867	-2,871	332,952	167,291
39,882	-2,573	332,533	167,406
40,896	-2,717	332,252	167,085
41,911	-2,692	331,979	166,962
42,926	-2,770	331,713	166,725
43,940	-2,918	331,603	166,486
44,955	-2,972	331,173	166,193
45,969	-2,848	330,824	166,144
46,984	-3,021	330,588	165,815
47,999	-3,110	330,388	165,599
49,013	-3,048	330,010	165,465
50,028	-3,299	329,772	165,047
51,042	-3,356	329,388	164,776
52,057	-3,415	329,122	164,560
53,071	-3,254	328,887	164,610
54,086	-3,310	328,786	164,482
55,101	-3,072	328,412	164,549
56,115	-3,092	328,363	164,487
57,130	-2,806	328,252	164,738
58,144	-2,648	327,903	164,726
59,159	-2,597	327,705	164,669
60,174	-2,500	327,499	164,660
61,188	-2,479	327,042	164,439
62,203	-2,556	326,878	164,255
63,217	-2,577	326,759	164,157
64,232	-2,766	326,521	163,812
65,247	-2,507	326,201	163,926
66,261	-2,660	325,914	163,596
67,276	-2,733	325,561	163,323
68,290	-2,997	325,215	162,841
69,305	-2,802	324,942	162,907
70,320	-2,890	324,836	162,742
71,334	-2,788	324,467	162,655
72,349	-2,660	324,448	162,773
73,363	-2,480	324,107	162,787
74,378	-2,631	323,785	162,444
75,393	-2,653	323,592	162,309
76,407	-2,766	323,329	162,037
77,422	-2,687	323,011	161,951
78,436	-2,663	322,800	161,857
79,451	-2,568	322,664	161,879
80,466	-2,767	322,336	161,480
81,480	-2,951	322,016	161,103
82,495	-2,918	321,761	160,998
83,509	-2,862	321,646	160,987
84,524	-2,832	321,391	160,878
85,539	-2,971	321,018	160,525
86,553	-2,993	320,841	160,398
87,568	-2,970	320,649	160,312
88,582	-2,983	320,252	160,086
89,597	-2,769	320,078	160,218
90,611	-2,808	319,896	160,070
91,626	-2,790	319,741	159,998
92,641	-2,803	319,483	159,841
93,655	-2,922	319,266	159,588
94,670	-2,829	318,892	159,488
95,684	-2,860	318,820	159,404
96,699	-2,928	318,540	159,176
97,714	-2,955	318,263	158,994
98,728	-3,049	318,047	158,769
99,743	-2,945	317,663	158,676
100,757	-2,932	317,496	158,594
101,772	-3,060	317,281	158,333
102,787	-2,958	317,125	158,352
103,801	-2,844	316,962	158,379
104,816	-2,759	316,619	158,286
105,830	-2,747	316,432	158,191
106,845	-2,704	316,299	158,158
107,860	-2,788	316,017	157,911
108,874	-2,970	315,846	157,615
109,889	-2,894	315,496	157,509
110,903	-3,033	315,320	157,257
111,918	-3,031	315,133	157,153
112,933	-2,897	314,851	157,141
113,947	-2,593	314,564	157,310
114,962	-2,772	314,497	157,070
115,976	-2,703	314,211	156,987
116,991	-2,568	313,842	156,934
118,006	-2,787	313,661	156,595
119,020	-2,879	313,698	156,501
120,035	-2,631	313,400	156,604
121,049	-2,538	313,219	156,598
122,064	-2,614	312,961	156,374
123,079	-2,785	312,710	156,053
124,093	-2,703	312,394	155,968
125,108	-2,780	312,089	155,721
126,122	-3,029	311,924	155,359
127,137	-2,938	311,591	155,276
128,151	-3,102	311,467	155,027
129,166	-2,855	311,242	155,163
130,181	-2,990	311,008	154,890
131,195	-2,913	310,707	154,807
132,210	-3,039	310,654	154,634
133,224	-2,953	310,507	154,638
134,239	-2,816	310,229	154,630
135,254	-2,839	310,213	154,584
136,268	-2,698	309,657	154,442
137,283	-3,042	309,422	153,949
138,297	-3,111	309,316	153,809
139,312	-2,952	308,827	153,720
140,327	-2,739	308,856	153,944
141,341	-2,479	308,767	154,159
142,356	-2,400	308,509	154,099
143,370	-2,515	308,477	153,949
144,385	-2,409	308,161	153,889
145,400	-2,525	307,903	153,625
146,414	-2,580	307,727	153,465
147,429	-2,459	307,547	153,489
148,443	-2,281	307,316	153,546
149,458	-2,416	307,180	153,323
150,473	-2,362	306,840	153,196
151,487	-2,552	306,586	152,858
152,502	-2,488	306,397	152,816
153,516	-2,385	306,256	152,840
154,531	-2,341	305,916	152,702
155,546	-2,369	305,661	152,532
156,560	-2,624	305,654	152,251
157,575	-2,590	305,205	152,048
158,589	-2,654	305,159	151,945
159,604	-2,451	305,030	152,078
160,619	-2,526	304,709	151,827
161,633	-2,465	304,618	151,831
162,648	-2,594	304,392	151,572
163,662	-2,481	304,127	151,543
164,677	-2,619	303,986	151,316
165,692	-2,364	303,801	151,474
166,706	-2,429	303,628	151,307
167,721	-2,528	303,505	151,130
168,735	-2,498	303,187	150,989
169,750	-2,570	303,120	150,868
170,764	-2,416	302,966	150,936
171,779	-2,378	302,716	150,838
172,794	-2,239	302,450	150,835
173,808	-2,512	302,285	150,459
174,823	-3,011	301,823	149,704
175,837	-3,070	301,555	149,498
176,852	-2,861	301,681	149,761
177,867	-2,458	301,509	150,075
178,881	-2,342	301,162	150,007
179,896	-2,309	301,061	149,976
180,910	-2,402	300,800	149,738
181,925	-2,475	300,682	149,592
182,940	-2,439	300,558	149,554
183,954	-2,444	300,333	149,423
184,969	-2,415	300,098	149,323
185,983	-2,385	299,655	149,119
186,998	-2,447	299,708	149,069
188,013	-2,386	299,519	149,024
189,027	-2,403	299,191	148,831
190,042	-2,437	299,054	148,714
191,056	-2,418	298,925	148,656
192,071	-2,348	298,678	148,591
193,086	-2,358	298,480	148,469
194,100	-2,282	298,199	148,392
195,115	-2,214	298,014	148,355
196,129	-2,520	297,784	147,919
197,144	-2,341	297,505	147,948
198,159	-2,360	297,394	147,861
199,173	-2,229	297,126	147,846
200,188	-2,218	296,974	147,768
201,202	-2,506	296,659	147,309
202,217	-2,827	296,417	146,854
203,232	-2,877	296,140	146,654
204,246	-2,595	296,043	146,875
205,261	-2,418	295,905	146,970
206,275	-2,398	295,818	146,934
207,290	-2,396	295,531	146,780
208,304	-2,403	295,264	146,628
209,319	-2,345	294,963	146,523
210,334	-2,395	294,776	146,367
211,348	-2,447	294,655	146,242
212,363	-2,395	294,541	146,224
213,377	-2,338	294,466	146,231
214,392	-2,516	294,246	145,932
215,407	-2,610	293,970	145,688
216,421	-2,688	293,739	145,483
217,436	-2,819	293,462	145,203
218,450	-2,586	293,282	145,332
219,465	-2,660	293,017	145,114
220,480	-2,571	293,111	145,236
221,494	-2,589	292,789	145,046
222,509	-2,422	292,657	145,133
223,523	-2,531	292,502	144,935
224,538	-2,526	292,374	144,864
225,553	-2,412	292,119	144,838
226,567	-2,306	291,946	144,843
227,582	-2,254	291,812	144,815
228,596	-2,288	291,564	144,645
229,611	-2,173	291,442	144,685
230,626	-2,241	291,125	144,447
231,640	-2,757	290,909	143,821
232,655	-2,857	290,519	143,518
233,669	-2,952	290,289	143,298
234,684	-2,937	290,218	143,265
235,699	-2,710	290,102	143,418
236,713	-2,725	289,799	143,240
237,728	-2,678	289,654	143,201
238,742	-2,568	289,479	143,209
239,757	-2,549	289,481	143,216
240,772	-2,566	289,116	143,007
241,786	-2,505	288,904	142,948
242,801	-2,813	288,784	142,576
243,815	-2,623	288,668	142,691
244,830	-2,583	288,501	142,635
245,844	-2,624	288,071	142,370
246,859	-2,716	288,055	142,260
247,874	-2,694	287,907	142,195
248,888	-2,563	287,659	142,188
249,903	-2,493	287,746	142,285
250,917	-2,505	287,438	142,109
251,932	-2,292	287,389	142,278
252,947	-1,655	287,409	142,892
253,961	-2,334	286,845	141,943
254,976	-1,343	287,271	143,099
255,990	1,318	288,209	146,133
257,005	2,497	288,542	147,431
258,020	4,082	288,863	149,118
259,034	4,051	288,511	148,893
260,049	3,609	288,355	148,371
261,063	3,638	288,068	148,239
262,078	3,932	288,032	148,491
263,093	4,384	288,149	148,975
264,107	4,564	287,841	148,975
265,122	4,356	287,761	148,720
266,136	4,827	287,714	149,136
267,151	4,485	287,264	148,561
268,166	4,417	287,162	148,430
269,180	4,391	287,036	148,327
270,195	4,378	286,808	148,182
271,209	4,230	286,713	147,979
272,224	4,214	286,401	147,789
273,239	4,067	286,013	147,435
274,253	4,125	285,997	147,468
275,268	4,546	286,032	147,876
276,282	4,322	285,825	147,542
277,297	4,394	285,647	147,506
278,312	4,809	285,376	147,749
279,326	4,662	285,216	147,513
280,341	4,276	285,078	147,060
281,355	4,269	284,822	146,908
282,370	4,124	284,556	146,620
283,384	4,173	284,508	146,629
284,399	4,383	284,101	146,606
285,414	4,450	284,024	146,616
286,428	4,225	283,780	146,264
287,443	3,922	283,584	145,863
288,457	3,892	283,163	145,605
289,472	3,735	283,136	145,429
290,487	4,034	283,024	145,641
291,501	3,819	282,730	145,274
292,516	3,501	282,685	144,937
293,530	3,742	282,348	144,979
294,545	3,884	282,258	145,054
295,560	4,214	282,034	145,236
296,574	3,909	281,774	144,803
297,589	4,203	281,536	144,944
298,603	4,302	281,631	145,073
299,618	4,283	281,527	144,989
300,633	4,259	281,197	144,783
301,647	4,145	281,114	144,621
302,662	4,122	280,910	144,481
303,676	4,090	280,632	144,295
304,691	3,615	280,368	143,703
305,706	3,542	280,249	143,560
306,720	3,725	279,981	143,582
307,735	3,521	279,774	143,271
308,749	3,689	279,834	143,446
309,764	3,955	279,648	143,587
310,779	3,833	279,156	143,207
311,793	3,766	279,046	143,076
312,808	3,681	278,816	142,866
313,822	3,678	278,681	142,781
314,837	3,680	278,510	142,683
315,852	3,508	278,380	142,444
316,866	3,638	278,057	142,386
317,881	3,753	277,979	142,440
318,895	3,570	277,827	142,180
319,910	3,540	277,529	141,987
320,925	3,345	277,386	141,721
321,939	3,648	277,342	141,966
322,954	3,768	277,247	142,016
323,968	3,789	277,112	141,953
324,983	3,996	276,991	142,070
325,997	3,834	276,662	141,740
327,012	3,978	276,592	141,823
328,027	4,093	276,320	141,778
329,041	3,784	276,163	141,399
330,056	4,014	276,009	141,519
331,070	3,841	275,988	141,337
332,085	3,755	275,667	141,082
333,100	3,899	275,395	141,061
334,114	3,614	275,294	140,736
335,129	3,783	274,959	140,707
336,143	3,797	275,047	140,753
337,158	3,923	274,831	140,745
338,173	3,955	274,636	140,661
339,187	3,681	274,465	140,311
340,202	3,878	274,151	140,318
341,216	3,908	274,150	140,332
342,231	3,658	274,003	140,016
343,246	3,747	273,698	139,929
344,260	3,748	273,538	139,836
345,275	3,943	273,480	139,971
346,289	4,262	273,272	140,142
347,304	4,125	273,090	139,912
348,319	3,931	272,874	139,612
349,333	3,914	272,757	139,524
350,348	4,128	272,564	139,607
351,362	4,114	272,503	139,551
352,377	4,235	272,201	139,493
353,392	4,200	272,146	139,422
354,406	4,282	271,976	139,396
355,421	192,404	1329,654	1409,888
356,435	155,472	1458,599	1409,999
