DTS Sentinel unit serial number:	SN410029Multiplexer serial number:	ORYXHardware model number:	OX2-SRSoftware version number:	ORYX F/W v4,00 Oryx Data Collector v3.7.2.0data status	okinstallation	B4 Nyhavnadifferential loss correction	single-endedforward channel	channel 2reverse channel	N/Adate	2023/12/16time	06:50:13forward acquisition time	300,00reverse acquisition time	0,00gamma	499,1914k internal	0,3127k external	0,3127temperature offset calibration	1,0000default loss term (dB/km)	0,3820temperature slope calibration	1,0000multiplexer offset coefficient	1,0000multiplexer slope coefficient	1,0000fibre end	0,00T internal ref (°C)	22,32T ext. ref 1 (°C)	7,58T ext. ref 2 (°C)	7,77length (m)	temperature (°C)	Stokes	anti-Stokes-744,400	-43,797	0,129	-0,048
-743,385	-118,120	-0,153	0,020
-742,371	-84,012	0,054	0,013
-741,356	-40,757	-0,187	0,072
-740,342	226,380	-0,058	0,070
-739,327	40,169	-0,255	0,170
-738,312	800,000	-0,032	-0,088
-737,298	79,715	-0,203	0,162
-736,283	-135,155	0,021	0,002
-735,269	77,741	-0,219	0,174
-734,254	573,792	-0,046	0,084
-733,239	-93,022	-0,316	0,065
-732,225	25,924	0,054	-0,033
-731,210	-36,394	0,067	-0,027
-730,196	146,723	0,045	-0,045
-729,181	264,668	-0,056	0,073
-728,167	236,973	-0,030	0,037
-727,152	213,384	0,027	-0,032
-726,137	-154,587	-0,157	-0,008
-725,123	163,697	-0,063	0,066
-724,108	-200,000	-0,043	-0,169
-723,094	390,811	-0,095	-0,147
-722,079	-64,420	-0,121	-0,036
-721,064	38,241	0,055	-0,036
-720,050	-40,859	0,052	0,020
-719,035	800,000	-0,019	0,058
-718,021	-52,875	-0,099	-0,034
-717,006	-100,418	-0,146	-0,027
-715,991	-170,298	-0,164	-0,004
-714,977	-23,987	-0,119	-0,053
-713,962	330,788	0,076	0,109
-712,948	800,000	0,082	0,178
-711,933	64,644	-0,020	-0,015
-710,918	800,000	-0,038	-0,117
-709,904	75,919	-0,115	-0,090
-708,889	143,694	0,076	0,075
-707,875	-45,834	-0,091	0,033
-706,860	219,182	-0,092	0,110
-705,845	-48,277	0,033	0,012
-704,831	-152,109	0,063	-0,003
-703,816	800,000	0,029	-0,076
-702,802	800,000	0,025	0,081
-701,787	-200,000	-0,031	-0,185
-700,772	14,079	-0,139	-0,080
-699,758	49,541	0,109	0,076
-698,743	600,751	-0,011	-0,020
-697,729	-16,549	0,118	0,055
-696,714	800,000	-0,028	0,091
-695,699	66,462	-0,069	0,052
-694,685	-131,041	-0,117	0,011
-693,670	-200,000	0,005	-0,126
-692,656	-200,000	-0,008	0,092
-691,641	211,716	-0,026	-0,031
-690,627	86,143	-0,020	-0,016
-689,612	39,762	-0,041	-0,028
-688,597	-123,650	-0,086	0,010
-687,583	48,868	-0,031	0,022
-686,568	-200,000	0,018	-0,073
-685,554	139,328	0,072	0,070
-684,539	151,463	0,087	0,088
-683,524	-188,114	0,117	-0,001
-682,510	-151,192	0,036	-0,002
-681,495	99,162	-0,049	-0,042
-680,481	-200,000	0,007	0,097
-679,466	504,750	-0,041	-0,071
-678,451	-200,000	-0,019	0,078
-677,437	-22,904	-0,077	0,034
-676,422	338,621	-0,061	-0,088
-675,408	-200,000	-0,004	0,042
-674,393	130,692	-0,088	-0,084
-673,378	-200,000	-0,001	-0,087
-672,364	800,000	-0,024	-0,065
-671,349	-190,682	-0,056	0,000
-670,335	63,959	-0,075	0,056
-669,320	-24,234	0,066	-0,029
-668,305	-200,000	0,016	-0,059
-667,291	-96,833	-0,061	-0,012
-666,276	-60,118	-0,205	-0,064
-665,262	225,319	0,054	-0,065
-664,247	800,000	-0,072	-0,193
-663,232	-39,700	0,082	0,032
-662,218	-65,777	-0,074	0,022
-661,203	-200,000	0,017	-0,071
-660,189	428,487	-0,046	0,074
-659,174	-21,751	-0,112	-0,050
-658,159	-33,153	-0,091	-0,037
-657,145	100,836	-0,068	-0,058
-656,130	508,655	-0,021	-0,036
-655,116	86,854	0,044	-0,036
-654,101	-200,000	-0,000	0,003
-653,086	224,663	-0,007	-0,008
-652,072	734,259	-0,039	-0,079
-651,057	-80,452	0,090	-0,022
-650,043	-200,000	-0,050	-0,218
-649,028	-33,720	-0,141	-0,057
-648,014	-140,120	0,159	-0,012
-646,999	-112,854	-0,058	-0,008
-645,984	800,000	-0,040	-0,089
-644,970	-77,072	0,089	-0,023
-643,955	-103,218	-0,124	0,021
-642,941	-200,000	-0,005	-0,074
-641,926	-134,785	-0,141	0,013
-640,911	14,160	0,063	-0,036
-639,897	-131,625	0,071	0,007
-638,882	343,417	-0,010	0,014
-637,868	-167,816	0,152	-0,004
-636,853	160,840	-0,056	0,058
-635,838	-200,000	0,010	-0,104
-634,824	-200,000	0,030	-0,161
-633,809	-200,000	-0,026	0,147
-632,795	-26,699	0,100	0,043
-631,780	293,132	0,031	0,042
-630,765	-153,873	0,026	-0,001
-629,751	-200,000	0,007	-0,036
-628,736	77,833	-0,146	-0,115
-627,722	800,000	-0,029	-0,066
-626,707	-44,634	0,172	0,063
-625,692	-81,598	0,244	-0,059
-624,678	-166,079	-0,112	-0,003
-623,663	12,682	-0,095	-0,054
-622,649	436,839	-0,050	0,081
-621,634	-133,541	-0,028	-0,003
-620,619	16,999	0,048	-0,028
-619,605	185,110	0,064	0,071
-618,590	-78,049	-0,141	-0,036
-617,576	21,324	-0,059	-0,036
-616,561	-200,000	0,013	0,110
-615,546	-124,625	-0,104	0,012
-614,532	800,000	-0,062	-0,164
-613,517	-200,000	-0,006	-0,021
-612,503	18,654	0,114	0,067
-611,488	-22,479	-0,136	-0,061
-610,474	-112,710	0,046	0,007
-609,459	-61,245	-0,067	0,021
-608,444	-200,000	-0,002	0,023
-607,430	-68,449	0,151	0,043
-606,415	230,361	-0,154	-0,187
-605,401	187,459	0,020	0,022
-604,386	661,572	0,063	0,120
-603,371	307,950	-0,074	0,102
-602,357	-131,502	0,162	-0,016
-601,342	209,283	-0,098	0,114
-600,328	-123,758	0,075	0,009
-599,313	800,000	-0,049	0,141
-598,298	491,014	-0,012	-0,021
-597,284	10,150	0,116	0,065
-596,269	800,000	0,040	0,120
-595,255	38,616	-0,110	0,072
-594,240	-121,266	-0,015	0,002
-593,225	-98,456	-0,129	-0,024
-592,211	800,000	-0,057	-0,119
-591,196	-76,984	0,018	0,005
-590,182	0,386	-0,141	-0,074
-589,167	3,562	0,058	0,031
-588,152	-113,448	-0,181	0,026
-587,138	-18,387	0,036	0,017
-586,123	-125,328	-0,124	-0,014
-585,109	-200,000	-0,020	0,137
-584,094	-200,000	0,026	0,107
-583,079	-174,689	0,064	-0,001
-582,065	-148,503	0,102	0,006
-581,050	-151,849	0,182	0,010
-580,036	318,544	-0,050	-0,071
-579,021	47,221	-0,032	0,022
-578,006	-121,231	-0,068	-0,008
-576,992	-68,629	0,123	0,035
-575,977	-200,000	0,026	0,000
-574,963	-57,146	-0,134	0,043
-573,948	2,865	-0,037	0,020
-572,934	163,871	0,012	0,013
-571,919	-9,456	-0,165	-0,081
-570,904	-95,680	-0,163	-0,032
-569,890	-200,000	0,005	0,051
-568,875	22,643	0,158	0,095
-567,861	-171,075	0,136	-0,003
-566,846	-87,528	0,069	0,015
-565,831	800,000	-0,025	0,060
-564,817	-91,671	-0,125	0,026
-563,802	800,000	-0,036	-0,112
-562,788	800,000	0,023	0,065
-561,773	269,246	0,157	-0,204
-560,758	23,196	-0,071	-0,043
-559,744	309,062	-0,037	0,052
-558,729	179,485	0,126	0,136
-557,715	-99,718	-0,045	0,008
-556,700	-139,479	-0,097	0,008
-555,685	503,759	-0,034	0,058
-554,671	-200,000	-0,027	0,116
-553,656	55,069	-0,060	-0,043
-552,642	382,604	-0,018	0,027
-551,627	-32,074	0,054	0,022
-550,612	800,000	-0,036	-0,079
-549,598	68,700	-0,078	-0,059
-548,583	-77,598	-0,086	-0,022
-547,569	-10,363	-0,132	0,065
-546,554	800,000	-0,065	-0,140
-545,539	-200,000	0,071	0,000
-544,525	218,101	-0,063	0,074
-543,510	-120,768	-0,063	-0,008
-542,496	-75,570	-0,064	0,017
-541,481	140,850	-0,098	-0,096
-540,466	800,000	-0,017	0,056
-539,452	800,000	0,037	0,099
-538,437	12,818	0,048	-0,027
-537,423	-200,000	0,004	0,118
-536,408	138,578	0,069	0,067
-535,393	-200,000	0,036	-0,137
-534,379	240,884	-0,065	0,080
-533,364	374,334	-0,015	-0,023
-532,350	800,000	0,041	0,119
-531,335	800,000	-0,019	0,052
-530,321	684,426	-0,021	-0,041
-529,306	24,705	-0,055	0,033
-528,291	48,012	-0,095	-0,066
-527,277	-73,689	-0,089	-0,024
-526,262	-200,000	-0,008	-0,059
-525,248	174,492	-0,066	-0,070
-524,233	-200,000	0,000	0,012
-523,218	316,093	-0,058	0,082
-522,204	128,309	-0,030	-0,028
-521,189	-69,153	-0,178	-0,050
-520,175	39,816	-0,054	-0,036
-519,160	183,856	0,014	0,016
-518,145	-200,000	-0,013	0,141
-517,131	112,699	0,128	-0,114
-516,116	165,035	0,148	0,155
-515,102	-1,822	0,087	0,045
-514,087	-75,148	-0,128	-0,033
-513,072	-200,000	-0,021	0,195
-512,058	800,000	-0,043	0,116
-511,043	795,510	0,012	0,024
-510,029	374,833	0,065	-0,098
-509,014	92,856	0,050	0,041
-507,999	129,692	-0,038	-0,035
-506,985	800,000	0,049	-0,132
-505,970	-200,000	-0,030	-0,142
-504,956	-200,000	0,010	-0,092
-503,941	728,661	-0,048	-0,096
-502,926	-114,628	0,149	-0,021
-501,912	-200,000	-0,006	0,079
-500,897	-200,000	0,008	0,141
-499,883	-72,540	0,072	0,019
-498,868	163,738	-0,019	-0,020
-497,853	-29,334	-0,073	-0,031
-496,839	800,000	-0,036	-0,085
-495,824	-9,189	-0,133	-0,065
-494,810	-87,701	0,069	0,015
-493,795	-88,934	-0,022	-0,005
-492,781	-49,613	-0,131	-0,046
-491,766	-200,000	-0,023	-0,213
-490,751	95,522	-0,058	-0,049
-489,737	-181,938	0,072	-0,001
-488,722	19,653	0,029	0,017
-487,708	135,855	0,055	0,053
-486,693	-200,000	-0,002	0,038
-485,678	28,592	-0,048	0,030
-484,664	706,796	-0,057	-0,110
-483,649	-34,224	0,055	0,022
-482,635	-31,200	-0,101	0,042
-481,620	195,877	-0,074	0,083
-480,605	99,290	-0,077	-0,065
-479,591	-200,000	0,010	-0,069
-478,576	-20,489	0,070	-0,032
-477,562	-125,082	-0,070	0,008
-476,547	522,297	-0,072	-0,126
-475,532	442,534	0,073	-0,118
-474,518	800,000	-0,049	0,114
-473,503	195,401	-0,038	-0,042
-472,489	0,359	-0,017	0,009
-471,474	-49,604	0,100	-0,035
-470,459	86,004	-0,064	0,052
-469,445	-200,000	-0,032	0,109
-468,430	800,000	-0,020	0,063
-467,416	800,000	-0,017	0,048
-466,401	-28,746	-0,067	0,028
-465,386	-200,000	0,019	-0,109
-464,372	44,820	-0,123	0,083
-463,357	-200,000	0,010	-0,049
-462,343	-200,000	-0,020	-0,162
-461,328	-200,000	-0,007	0,045
-460,313	129,087	-0,026	0,024
-459,299	30,352	0,110	-0,069
-458,284	519,535	0,067	0,115
-457,270	-11,714	0,075	0,036
-456,255	800,000	0,013	-0,030
-455,241	329,271	-0,064	-0,090
-454,226	800,000	-0,066	-0,155
-453,211	-37,744	-0,040	0,016
-452,197	53,784	0,132	0,093
-451,182	17,031	0,105	0,061
-450,168	-200,000	0,010	-0,060
-449,153	337,581	0,044	0,063
-448,138	-108,052	-0,137	0,022
-447,124	-164,054	-0,054	0,002
-446,109	-3,399	0,057	-0,029
-445,095	770,792	0,074	0,150
-444,080	158,207	0,133	-0,136
-443,065	714,784	0,030	-0,058
-442,051	158,151	0,073	0,075
-441,036	-49,963	-0,073	0,025
-440,022	126,262	0,059	-0,055
-439,007	283,812	0,054	-0,072
-437,992	-200,000	-0,008	0,148
-436,978	800,000	0,042	0,105
-435,963	-200,000	-0,011	-0,084
-434,949	-200,000	-0,019	0,079
-433,934	-85,414	-0,029	-0,007
-432,919	404,165	0,096	-0,149
-431,905	-12,811	0,116	-0,055
-430,890	119,300	0,113	0,103
-429,876	575,406	-0,043	0,078
-428,861	-200,000	0,010	-0,033
-427,846	-200,000	0,031	-0,146
-426,832	-55,859	0,050	0,016
-425,817	3,135	0,020	0,011
-424,803	550,185	-0,073	-0,130
-423,788	-200,000	-0,025	0,121
-422,773	-125,429	0,085	0,009
-421,759	300,321	-0,039	0,053
-420,744	131,106	-0,106	0,101
-419,730	-30,077	0,022	-0,009
-418,715	-200,000	0,013	-0,063
-417,701	-200,000	0,001	-0,047
-416,686	-200,000	0,009	0,141
-415,671	-23,634	-0,097	-0,043
-414,657	-200,000	0,001	0,169
-413,642	20,804	-0,038	-0,022
-412,628	-200,000	-0,028	0,180
-411,613	201,496	-0,056	0,063
-410,598	430,559	-0,053	-0,084
-409,584	22,201	0,064	-0,038
-408,569	-54,298	-0,008	0,003
-407,555	-16,102	-0,104	0,049
-406,540	800,000	0,014	-0,040
-405,525	86,417	-0,049	0,040
-404,511	-94,582	-0,078	0,016
-403,496	-14,338	0,041	0,019
-402,482	642,581	0,040	-0,075
-401,467	-200,000	-0,017	0,184
-400,452	256,773	-0,043	0,054
-399,438	-117,988	0,080	-0,010
-398,423	-6,796	-0,037	-0,019
-397,409	800,000	0,040	-0,093
-396,394	-200,000	-0,029	-0,123
-395,379	-87,236	0,087	0,019
-394,365	13,182	0,151	0,086
-393,350	25,771	-0,036	0,022
-392,336	106,721	0,061	0,053
-391,321	-200,000	-0,005	-0,095
-390,306	215,739	0,056	-0,065
-389,292	15,424	-0,069	0,040
-388,277	-53,009	0,112	0,038
-387,263	269,298	0,054	0,070
-386,248	-200,000	-0,033	0,000
-385,233	128,680	-0,086	0,081
-384,219	-200,000	-0,003	0,034
-383,204	-200,000	-0,121	-0,000
-382,190	-200,000	-0,013	0,053
-381,175	-200,000	0,004	0,109
-380,160	-67,417	0,077	-0,022
-379,146	67,358	0,087	-0,065
-378,131	-200,000	0,008	0,034
-377,117	644,986	-0,061	0,115
-376,102	184,846	-0,080	-0,087
-375,088	-27,128	-0,022	-0,009
-374,073	-82,589	-0,210	-0,050
-373,058	-128,976	-0,107	-0,011
-372,044	-200,000	0,039	0,213
-371,029	92,967	0,063	-0,053
-370,015	-126,542	0,151	0,016
-369,000	599,743	0,016	-0,029
-367,985	-200,000	-0,003	-0,115
-366,971	-200,000	0,003	-0,099
-365,956	800,000	0,039	0,112
-364,942	-200,000	-0,019	0,066
-363,927	727,446	-0,048	0,095
-362,912	800,000	0,020	0,065
-361,898	-10,886	0,090	-0,043
-360,883	800,000	-0,011	0,031
-359,869	-200,000	-0,004	-0,149
-358,854	120,754	0,071	-0,064
-357,839	411,602	-0,053	-0,083
-356,825	784,714	0,057	0,116
-355,810	-43,598	0,118	0,043
-354,796	-136,258	0,118	0,010
-353,781	-200,000	-0,018	-0,075
-352,766	800,000	-0,059	-0,133
-351,752	-40,662	0,069	-0,026
-350,737	-200,000	0,005	0,087
-349,723	270,078	-0,016	0,020
-348,708	254,709	0,111	0,139
-347,693	249,399	0,103	-0,128
-346,679	-200,000	-0,004	0,034
-345,664	-200,000	0,045	-0,149
-344,650	-85,659	0,029	0,006
-343,635	94,533	0,030	-0,025
-342,620	313,583	-0,079	0,109
-341,606	100,077	-0,070	-0,060
-340,591	38,769	-0,049	0,032
-339,577	80,581	-0,054	0,042
-338,562	-116,993	-0,024	0,003
-337,548	-200,000	0,021	-0,074
-336,533	-118,731	0,063	-0,008
-335,518	265,912	-0,041	0,053
-334,504	101,873	0,027	0,023
-333,489	-84,098	-0,155	0,036
-332,475	-46,740	0,065	-0,023
-331,460	-10,916	-0,121	0,058
-330,445	-16,037	0,012	0,005
-329,431	-57,312	-0,067	-0,021
-328,416	-133,081	0,127	-0,012
-327,402	193,042	-0,065	0,072
-326,387	-200,000	0,038	0,151
-325,372	4,092	-0,059	-0,032
-324,358	-59,781	-0,063	-0,020
-323,343	800,000	-0,035	-0,082
-322,329	800,000	0,014	0,035
-321,314	364,160	-0,064	0,095
-320,299	3,424	0,051	0,027
-319,285	-163,149	0,081	0,003
-318,270	54,113	0,144	-0,101
-317,256	-200,000	-0,002	-0,106
-316,241	-200,000	0,005	-0,071
-315,226	-181,687	-0,103	-0,001
-314,212	-200,000	0,026	-0,101
-313,197	-70,830	-0,043	-0,012
-312,183	-27,912	0,080	0,034
-311,168	187,915	-0,088	-0,097
-310,153	222,983	-0,093	-0,110
-309,139	63,633	0,050	-0,037
-308,124	-200,000	-0,006	0,095
-307,110	386,237	0,070	0,107
-306,095	-180,080	0,121	0,002
-305,080	-200,000	-0,015	-0,052
-304,066	-200,000	0,020	-0,092
-303,051	-200,000	0,003	-0,073
-302,037	800,000	0,028	-0,063
-301,022	153,131	0,049	0,049
-300,008	492,965	-0,046	0,077
-298,993	-33,310	0,136	0,055
-297,978	-58,813	-0,079	-0,025
-296,964	-200,000	0,003	0,081
-295,949	-117,899	0,013	0,002
-294,935	78,016	-0,043	-0,033
-293,920	-200,000	-0,004	-0,187
-292,905	-200,000	-0,004	0,065
-291,891	20,997	0,128	0,076
-290,876	19,273	-0,117	-0,068
-289,862	414,375	0,070	-0,109
-288,847	34,945	0,103	-0,066
-287,832	143,876	0,087	0,085
-286,818	-94,908	0,058	-0,011
-285,803	-200,000	0,002	0,058
-284,789	422,454	-0,048	0,076
-283,774	-200,000	0,007	0,037
-282,759	12,121	0,098	-0,055
-281,745	67,564	-0,037	0,028
-280,730	800,000	-0,031	-0,072
-279,716	230,402	-0,044	-0,053
-278,701	-68,974	0,194	0,054
-277,686	623,830	0,054	-0,101
-276,672	-121,979	0,177	-0,021
-275,657	-200,000	0,010	0,091
-274,643	-154,579	0,097	-0,005
-273,628	-200,000	-0,008	-0,149
-272,613	23,071	0,082	-0,049
-271,599	341,103	0,037	0,053
-270,584	-200,000	0,057	0,203
-269,570	251,655	-0,083	0,104
-268,555	-63,284	0,055	0,017
-267,540	800,000	-0,087	-0,185
-266,526	-46,001	0,019	-0,007
-265,511	46,050	-0,048	-0,032
-264,497	-45,076	0,121	0,044
-263,482	135,136	0,055	-0,053
-262,467	508,808	-0,081	-0,138
-261,453	409,656	-0,036	-0,056
-260,438	-200,000	-0,010	-0,047
-259,424	28,266	0,070	0,043
-258,409	115,326	-0,029	0,026
-257,395	75,030	-0,145	0,111
-256,380	106,280	0,054	-0,047
-255,365	78,935	0,147	0,115
-254,351	800,000	0,040	0,105
-253,336	-200,000	0,022	-0,074
-252,322	800,000	-0,040	-0,096
-251,307	-29,764	0,093	-0,039
-250,292	-200,000	-0,003	-0,068
-249,278	71,732	-0,106	-0,080
-248,263	800,000	0,047	-0,103
-247,249	164,971	-0,102	0,105
-246,234	459,440	0,060	-0,098
-245,219	-71,770	-0,026	0,007
-244,205	-200,000	0,018	-0,119
-243,190	-147,345	0,082	0,005
-242,176	605,794	-0,029	-0,053
-241,161	56,028	0,134	0,095
-240,146	572,327	0,018	-0,032
-239,132	-200,000	-0,005	-0,019
-238,117	-200,000	0,023	-0,076
-237,103	418,681	0,050	0,079
-236,088	800,000	-0,064	0,158
-235,073	-13,094	0,021	-0,010
-234,059	800,000	-0,050	0,114
-233,044	-200,000	-0,019	0,107
-232,030	113,507	-0,122	-0,108
-231,015	-200,000	0,006	-0,032
-230,000	800,000	0,012	0,025
-228,986	293,772	-0,084	0,112
-227,971	-138,968	0,094	0,007
-226,957	266,140	0,022	-0,028
-225,942	-200,000	0,007	-0,025
-224,927	72,101	0,005	-0,004
-223,913	-107,233	-0,079	0,013
-222,898	43,911	-0,042	-0,028
-221,884	106,744	0,041	0,036
-220,869	141,506	-0,023	0,022
-219,855	192,268	0,053	-0,059
-218,840	404,741	-0,074	-0,114
-217,825	-200,000	0,030	-0,112
-216,811	82,331	0,120	0,095
-215,796	3,284	-0,149	-0,079
-214,782	-40,873	0,132	-0,050
-213,767	474,750	0,060	0,099
-212,752	309,361	0,099	0,135
-211,738	-200,000	-0,011	0,161
-210,723	62,056	-0,108	-0,079
-209,709	151,932	-0,056	-0,056
-208,694	800,000	0,032	0,070
-207,679	89,768	0,018	-0,015
-206,665	-200,000	-0,012	0,091
-205,650	-123,460	-0,114	-0,013
-204,636	49,562	0,073	0,050
-203,621	213,315	-0,051	0,058
-202,606	488,809	0,039	-0,066
-201,592	-139,210	-0,133	-0,010
-200,577	148,096	-0,088	0,087
-199,563	-200,000	0,033	-0,185
-198,548	-200,000	-0,005	0,033
-197,533	-200,000	0,000	0,008
-196,519	384,265	0,036	0,053
-195,504	337,803	0,051	-0,073
-194,490	333,785	-0,062	-0,087
-193,475	21,312	0,051	-0,030
-192,460	-41,793	0,061	0,023
-191,446	757,445	0,030	-0,059
-190,431	767,682	-0,030	-0,061
-189,417	-28,028	-0,049	0,020
-188,402	169,551	0,045	0,047
-187,387	321,075	0,098	-0,136
-186,373	414,147	0,073	-0,113
-185,358	128,514	-0,018	0,017
-184,344	45,242	0,061	-0,041
-183,329	-200,000	-0,016	-0,132
-182,315	800,000	-0,013	0,031
-181,300	-200,000	-0,014	0,183
-180,285	324,071	0,029	0,041
-179,271	-200,000	-0,036	-0,189
-178,256	-81,124	-0,069	-0,016
-177,242	312,769	0,046	0,064
-176,227	173,672	0,100	-0,106
-175,212	238,112	0,059	0,071
-174,198	-200,000	-0,003	0,092
-173,183	-135,346	-0,043	0,004
-172,169	-92,744	0,120	-0,024
-171,154	125,313	-0,115	-0,105
-170,139	-129,086	0,025	-0,002
-169,125	-200,000	-0,015	0,079
-168,110	-63,390	-0,054	0,016
-167,096	800,000	-0,025	0,069
-166,081	-6,459	0,026	0,013
-165,066	-146,743	-0,061	-0,004
-164,052	370,506	0,032	-0,048
-163,037	-54,084	-0,079	-0,026
-162,023	800,000	0,015	-0,040
-161,008	800,000	-0,012	-0,032
-159,993	40,759	0,039	-0,025
-158,979	-200,000	-0,007	0,061
-157,964	-125,959	-0,158	0,017
-156,950	-200,000	-0,019	-0,093
-155,935	10,486	0,024	0,013
-154,920	-168,867	0,221	0,006
-153,906	-200,000	-0,001	0,059
-152,891	251,787	-0,094	0,116
-151,877	800,000	0,042	0,105
-150,862	694,028	-0,009	-0,017
-149,847	-200,000	-0,012	-0,090
-148,833	160,815	0,059	-0,060
-147,818	-72,274	-0,040	-0,011
-146,804	-12,561	0,108	0,051
-145,789	-200,000	-0,006	-0,094
-144,775	-97,750	-0,108	0,020
-143,760	285,127	-0,060	-0,079
-142,745	-156,000	0,070	-0,003
-141,731	166,518	-0,033	-0,034
-140,716	66,037	-0,101	-0,074
-139,702	800,000	0,054	0,115
-138,687	-47,612	0,164	-0,058
-137,672	-200,000	-0,025	-0,094
-136,658	-200,000	-0,016	0,051
-135,643	-150,231	0,109	0,006
-134,629	-200,000	0,005	0,023
-133,614	-152,620	0,087	0,004
-132,599	-148,640	-0,152	-0,009
-131,585	544,615	-0,064	0,112
-130,570	-200,000	0,014	-0,077
-129,556	-200,000	-0,015	0,077
-128,541	-121,051	-0,143	-0,017
-127,526	287,899	-0,063	-0,084
-126,512	62,499	-0,075	-0,054
-125,497	-200,000	0,001	-0,031
-124,483	-44,527	0,045	0,016
-123,468	-200,000	-0,012	-0,095
-122,453	-112,610	-0,116	-0,017
-121,439	-125,022	0,086	0,010
-120,424	-52,529	-0,182	-0,061
-119,410	-200,000	0,004	0,051
-118,395	800,000	-0,044	0,089
-117,380	351,591	0,063	0,091
-116,366	67,792	-0,047	0,035
-115,351	-200,000	0,033	-0,148
-114,337	-200,000	-0,002	0,039
-113,322	-200,000	0,006	0,044
-112,307	95,432	-0,005	0,004
-111,293	175,662	0,098	-0,103
-110,278	161,952	0,042	-0,043
-109,264	-109,816	-0,019	-0,003
-108,249	800,000	0,036	0,075
-107,234	-103,944	-0,093	-0,016
-106,220	0,883	0,051	0,026
-105,205	800,000	-0,032	-0,083
-104,191	-200,000	0,067	0,000
-103,176	-15,547	0,036	0,017
-102,162	51,154	-0,169	0,116
-101,147	800,000	-0,022	-0,053
-100,132	800,000	0,057	-0,124
-99,118	569,790	0,087	-0,155
-98,103	800,000	0,032	-0,088
-97,089	-200,000	-0,003	0,088
-96,074	-200,000	0,005	-0,035
-95,059	800,000	0,066	0,135
-94,045	-161,039	-0,163	-0,006
-93,030	-200,000	0,001	0,018
-92,016	-104,105	0,065	-0,011
-91,001	243,366	0,020	-0,024
-89,986	-200,000	-0,005	-0,054
-88,972	800,000	-0,008	-0,020
-87,957	252,189	0,074	-0,091
-86,943	800,000	-0,009	0,027
-85,928	-50,804	-0,148	-0,050
-84,913	63,221	-0,029	-0,021
-83,899	108,360	-0,050	-0,044
-82,884	-200,000	0,043	0,171
-81,870	-10,258	0,118	0,056
-80,855	147,804	-0,051	0,050
-79,840	-151,654	-0,069	0,004
-78,826	57,787	-0,012	-0,008
-77,811	7,915	-0,061	0,033
-76,797	800,000	0,029	0,062
-75,782	800,000	-0,011	0,032
-74,767	27,047	0,206	0,125
-73,753	-200,000	-0,017	0,089
-72,738	125,206	-0,032	-0,029
-71,724	-200,000	-0,025	-0,083
-70,709	28,144	-0,067	-0,041
-69,694	-73,554	-0,030	-0,008
-68,680	-200,000	0,005	-0,019
-67,665	-79,077	-0,060	-0,015
-66,651	-200,000	0,004	-0,032
-65,636	-200,000	-0,004	0,016
-64,622	-92,714	0,039	0,008
-63,607	211,480	-0,136	-0,155
-62,592	469,568	-0,059	-0,097
-61,578	4,612	0,065	0,034
-60,563	664,685	-0,019	-0,036
-59,549	110,354	-0,044	-0,038
-58,534	-116,356	-1,132	-0,150
-57,519	422,611	-0,932	-1,455
-56,505	-200,000	-0,747	-4,376
-55,490	-54,320	0,556	-0,182
-54,476	800,000	4,933	11,551
-53,461	-200,000	13,822	251,744
-52,446	-200,000	690,078	2248,487
-51,432	590,944	1619,888	2908,234
-50,417	119,213	1631,597	1462,493
-49,403	74,237	1286,292	977,837
-48,388	38,121	1022,600	657,971
-47,373	24,355	980,552	585,769
-46,359	23,592	969,873	576,872
-45,344	22,592	965,711	571,115
-44,330	22,509	964,457	570,081
-43,315	22,398	962,893	568,773
-42,300	22,429	961,799	568,203
-41,286	22,366	960,959	567,484
-40,271	22,309	959,984	566,698
-39,257	22,325	959,036	566,167
-38,242	22,328	958,084	565,593
-37,227	22,397	957,148	565,243
-36,213	22,326	956,404	564,550
-35,198	22,217	955,685	563,752
-34,184	22,312	954,919	563,584
-33,169	22,301	954,022	562,997
-32,154	22,354	953,213	562,669
-31,140	22,367	952,153	562,061
-30,125	22,397	951,456	561,725
-29,111	22,379	950,620	561,150
-28,096	22,337	950,010	560,633
-27,082	22,356	949,286	560,245
-26,067	22,344	948,422	559,674
-25,052	22,294	947,871	559,168
-24,038	22,335	947,051	558,791
-23,023	22,411	946,467	558,667
-22,009	22,442	945,597	558,231
-20,994	22,398	945,091	557,770
-19,979	22,412	944,724	557,576
-18,965	22,340	944,013	556,906
-17,950	22,349	943,479	556,596
-16,936	22,277	942,585	555,817
-15,921	22,277	941,838	555,357
-14,906	22,261	941,240	554,929
-13,892	22,292	940,470	554,554
-12,877	22,295	939,851	554,176
-11,863	22,207	939,268	553,530
-10,848	22,197	938,918	553,272
-9,833	22,365	938,384	553,464
-8,819	22,300	937,690	552,829
-7,804	22,229	937,047	552,203
-6,790	22,167	936,611	551,728
-5,775	22,297	935,845	551,667
-4,760	22,230	935,382	551,160
-3,746	22,240	934,750	550,798
-2,731	22,033	934,124	549,753
-1,717	22,085	933,199	549,351
-0,702	22,043	932,596	548,841
0,313	21,906	931,932	548,851
1,327	24,360	929,540	555,085
2,342	32,005	807,737	503,014
3,356	27,145	507,945	308,027
4,371	3,214	372,589	195,636
5,386	0,296	355,317	182,989
6,400	-1,341	349,132	177,822
7,415	-2,069	346,265	175,477
8,429	-2,224	344,776	174,524
9,444	-2,264	343,817	173,976
10,459	-2,287	343,324	173,683
11,473	-2,132	342,520	173,444
12,488	-1,875	342,110	173,523
13,502	-1,942	341,623	173,183
14,517	-2,077	341,224	172,806
15,531	-2,229	340,549	172,271
16,546	-2,254	340,081	171,989
17,561	-2,351	339,758	171,698
18,575	-2,296	339,337	171,533
19,590	-2,321	338,971	171,304
20,604	-2,294	338,624	171,145
21,619	-2,224	338,088	170,940
22,634	-2,129	337,769	170,874
23,648	-2,231	337,523	170,615
24,663	-2,129	337,183	170,547
25,677	-1,980	336,830	170,525
26,692	-2,197	336,592	170,140
27,707	-2,281	336,396	169,928
28,721	-2,125	335,945	169,865
29,736	-2,213	335,567	169,557
30,750	-2,137	335,259	169,473
31,765	-2,112	334,932	169,322
32,780	-2,124	334,680	169,166
33,794	-2,293	334,661	168,947
34,809	-2,232	334,374	168,857
35,823	-2,266	333,916	168,571
36,838	-2,207	333,574	168,451
37,853	-2,394	333,449	168,159
38,867	-2,351	333,092	168,013
39,882	-2,260	332,851	167,981
40,896	-2,353	332,523	167,695
41,911	-2,229	332,145	167,630
42,926	-2,386	331,984	167,356
43,940	-2,321	331,607	167,224
44,955	-2,455	331,307	166,905
45,969	-2,515	331,155	166,746
46,984	-2,665	330,851	166,408
47,999	-2,769	330,618	166,157
49,013	-2,851	330,252	165,866
50,028	-2,922	329,856	165,572
51,042	-3,007	329,548	165,306
52,057	-2,968	329,392	165,257
53,071	-2,795	328,977	165,230
54,086	-2,944	328,952	165,034
55,101	-2,829	328,646	164,996
56,115	-2,503	328,420	165,235
57,130	-2,326	328,478	165,448
58,144	-2,047	328,213	165,615
59,159	-2,099	327,920	165,393
60,174	-2,083	327,707	165,289
61,188	-2,142	327,422	165,064
62,203	-2,168	327,095	164,856
63,217	-2,055	326,915	164,876
64,232	-2,077	326,540	164,649
65,247	-2,120	326,508	164,569
66,261	-2,050	326,119	164,437
67,276	-2,248	325,812	164,047
68,290	-2,525	325,489	163,560
69,305	-2,579	325,202	163,341
70,320	-2,525	324,940	163,255
71,334	-2,331	324,837	163,405
72,349	-2,128	324,641	163,517
73,363	-1,944	324,264	163,517
74,378	-2,209	324,134	163,143
75,393	-2,026	323,777	163,151
76,407	-2,119	323,606	162,947
77,422	-2,208	323,261	162,661
78,436	-2,104	323,152	162,706
79,451	-2,175	322,953	162,514
80,466	-2,240	322,500	162,199
81,480	-2,343	322,145	161,892
82,495	-2,401	322,024	161,753
83,509	-2,275	321,678	161,704
84,524	-2,494	321,621	161,420
85,539	-2,512	321,153	161,151
86,553	-2,524	321,027	161,060
87,568	-2,426	320,750	161,015
88,582	-2,394	320,602	160,961
89,597	-2,538	320,296	160,636
90,611	-2,468	320,173	160,635
91,626	-2,333	320,020	160,693
92,641	-2,279	319,744	160,599
93,655	-2,283	319,507	160,461
94,670	-2,327	319,107	160,197
95,684	-2,363	319,067	160,123
96,699	-2,291	318,712	160,009
97,714	-2,379	318,481	159,784
98,728	-2,458	318,338	159,612
99,743	-2,518	318,012	159,370
100,757	-2,528	317,660	159,167
101,772	-2,635	317,414	158,914
102,787	-2,571	317,347	158,936
103,801	-2,464	317,043	158,885
104,816	-2,388	316,988	158,926
105,830	-2,231	316,711	158,942
106,845	-2,120	316,552	158,969
107,860	-2,256	316,246	158,654
108,874	-2,305	315,954	158,440
109,889	-2,256	315,718	158,360
110,903	-2,377	315,474	158,094
111,918	-2,347	315,323	158,036
112,933	-2,349	315,064	157,890
113,947	-2,288	314,919	157,869
114,962	-2,172	314,604	157,822
115,976	-2,350	314,451	157,539
116,991	-2,214	314,225	157,559
118,006	-2,336	313,881	157,241
119,020	-2,196	313,932	157,403
120,035	-2,227	313,814	157,296
121,049	-2,147	313,471	157,196
122,064	-2,121	313,163	157,055
123,079	-2,132	312,897	156,896
124,093	-2,359	312,640	156,512
125,108	-2,604	312,511	156,171
126,122	-2,623	312,092	155,928
127,137	-2,709	311,947	155,751
128,151	-2,606	311,865	155,805
129,166	-2,533	311,475	155,674
130,181	-2,589	311,196	155,461
131,195	-2,451	310,990	155,491
132,210	-2,439	310,835	155,411
133,224	-2,332	310,702	155,445
134,239	-2,217	310,364	155,384
135,254	-2,259	310,250	155,268
136,268	-2,352	309,961	155,011
137,283	-2,584	309,662	154,604
138,297	-2,654	309,461	154,415
139,312	-2,487	309,010	154,352
140,327	-2,390	309,110	154,491
141,341	-2,139	308,926	154,649
142,356	-1,932	308,884	154,831
143,370	-1,870	308,681	154,781
144,385	-1,991	308,353	154,476
145,400	-1,802	307,956	154,461
146,414	-1,873	307,859	154,324
147,429	-1,824	307,795	154,330
148,443	-1,911	307,392	154,023
149,458	-1,953	307,301	153,920
150,473	-1,882	307,104	153,882
151,487	-1,945	306,872	153,685
152,502	-2,083	306,636	153,410
153,516	-2,018	306,515	153,403
154,531	-2,038	306,275	153,249
155,546	-1,981	305,935	153,125
156,560	-2,183	305,820	152,843
157,575	-2,203	305,552	152,675
158,589	-2,026	305,394	152,766
159,604	-1,990	305,234	152,709
160,619	-1,920	304,864	152,583
161,633	-1,915	304,746	152,516
162,648	-1,910	304,666	152,468
163,662	-1,944	304,478	152,325
164,677	-2,139	304,329	152,035
165,692	-1,975	304,040	152,047
166,706	-1,890	303,846	152,024
167,721	-2,072	303,447	151,623
168,735	-1,798	303,298	151,817
169,750	-1,818	303,299	151,783
170,764	-2,029	303,176	151,491
171,779	-1,872	303,059	151,581
172,794	-1,805	302,696	151,454
173,808	-2,011	302,468	151,115
174,823	-2,315	301,976	150,544
175,837	-2,587	301,875	150,202
176,852	-2,090	301,804	150,663
177,867	-1,868	301,691	150,820
178,881	-1,994	301,516	150,590
179,896	-1,828	301,400	150,688
180,910	-1,847	301,234	150,572
181,925	-1,684	300,974	150,595
182,940	-1,706	300,724	150,435
183,954	-1,832	300,577	150,219
184,969	-1,943	300,367	149,987
185,983	-1,936	300,156	149,876
186,998	-1,984	299,841	149,657
188,013	-1,906	299,731	149,667
189,027	-1,797	299,374	149,587
190,042	-1,773	299,264	149,542
191,056	-1,754	299,019	149,426
192,071	-1,851	298,942	149,276
193,086	-1,705	298,728	149,303
194,100	-1,742	298,302	149,040
195,115	-1,758	298,242	148,981
196,129	-1,863	298,029	148,755
197,144	-1,717	297,843	148,796
198,159	-1,817	297,741	148,631
199,173	-1,812	297,534	148,519
200,188	-1,667	297,173	148,472
201,202	-1,785	296,784	148,145
202,217	-2,318	296,671	147,541
203,232	-2,367	296,440	147,364
204,246	-2,126	296,199	147,473
205,261	-1,724	296,224	147,875
206,275	-1,534	295,829	147,854
207,290	-1,786	295,796	147,573
208,304	-1,800	295,592	147,444
209,319	-1,889	295,480	147,286
210,334	-1,953	295,276	147,107
211,348	-1,720	294,727	147,052
212,363	-1,875	294,631	146,837
213,377	-1,839	294,661	146,875
214,392	-1,853	294,452	146,743
215,407	-2,061	294,197	146,396
216,421	-2,128	293,767	146,103
217,436	-2,204	293,676	145,969
218,450	-2,136	293,582	145,977
219,465	-1,978	293,381	146,021
220,480	-1,988	293,342	145,978
221,494	-1,985	293,118	145,857
222,509	-2,059	292,764	145,594
223,523	-1,907	292,620	145,660
224,538	-1,799	292,578	145,733
225,553	-1,765	292,403	145,666
226,567	-1,776	292,182	145,532
227,582	-1,781	291,991	145,419
228,596	-1,752	291,716	145,298
229,611	-1,726	291,759	145,333
230,626	-1,843	291,495	145,072
231,640	-2,213	291,032	144,466
232,655	-2,481	290,769	144,059
233,669	-2,544	290,397	143,800
234,684	-2,424	290,387	143,901
235,699	-2,400	290,243	143,839
236,713	-2,250	289,977	143,841
237,728	-2,224	289,949	143,840
238,742	-2,091	289,844	143,905
239,757	-2,052	289,727	143,873
240,772	-1,966	289,625	143,893
241,786	-1,895	289,265	143,770
242,801	-2,276	288,946	143,228
243,815	-2,127	288,751	143,264
244,830	-2,237	288,769	143,153
245,844	-1,963	288,415	143,231
246,859	-2,113	288,293	143,011
247,874	-2,228	288,217	142,850
248,888	-2,078	287,957	142,854
249,903	-1,891	287,671	142,880
250,917	-1,745	287,611	142,980
251,932	-1,630	287,585	143,065
252,947	-1,284	287,585	143,388
253,961	-2,003	287,247	142,510
254,976	-0,753	287,486	143,826
255,990	1,764	288,258	146,639
257,005	2,542	288,417	147,461
258,020	3,955	288,887	149,058
259,034	4,243	288,783	149,270
260,049	4,038	288,556	148,941
261,063	3,905	288,136	148,582
262,078	4,056	288,301	148,800
263,093	4,581	288,222	149,253
264,107	4,445	288,049	149,020
265,122	4,710	287,839	149,153
266,136	4,979	287,753	149,354
267,151	4,752	287,437	148,958
268,166	4,753	287,155	148,799
269,180	4,596	287,045	148,578
270,195	4,709	286,751	148,522
271,209	4,711	286,682	148,475
272,224	4,620	286,475	148,267
273,239	4,269	286,333	147,844
274,253	4,312	286,166	147,786
275,268	4,765	286,076	148,159
276,282	4,724	286,016	148,077
277,297	4,652	285,543	147,750
278,312	4,893	285,516	147,952
279,326	4,830	285,397	147,818
280,341	4,561	285,101	147,394
281,355	4,515	284,789	147,176
282,370	4,433	284,703	147,040
283,384	4,515	284,431	146,965
284,399	4,629	284,186	146,933
285,414	4,466	284,072	146,707
286,428	4,472	283,902	146,611
287,443	4,144	283,690	146,177
288,457	4,187	283,380	146,045
289,472	4,076	283,325	145,899
290,487	4,073	283,142	145,789
291,501	3,933	282,835	145,485
292,516	3,869	282,540	145,261
293,530	3,840	282,495	145,197
294,545	4,288	282,434	145,575
295,560	4,248	282,215	145,411
296,574	4,090	282,002	145,141
297,589	4,135	281,881	145,107
298,603	4,626	281,702	145,464
299,618	4,537	281,671	145,351
300,633	4,560	281,430	145,236
301,647	4,300	281,284	144,903
302,662	4,333	280,931	144,739
303,676	4,132	280,682	144,410
304,691	3,931	280,478	144,104
305,706	3,727	280,271	143,793
306,720	3,833	280,047	143,765
307,735	3,833	279,873	143,663
308,749	4,159	279,699	143,865
309,764	4,273	279,518	143,865
310,779	4,049	279,366	143,566
311,793	3,809	279,176	143,231
312,808	3,996	278,950	143,277
313,822	4,033	278,897	143,271
314,837	3,971	278,514	143,004
315,852	3,812	278,391	142,781
316,866	3,784	278,318	142,704
317,881	3,925	278,031	142,675
318,895	3,934	277,824	142,565
319,910	3,844	277,719	142,415
320,925	3,868	277,437	142,280
321,939	3,998	277,356	142,346
322,954	4,190	277,311	142,488
323,968	4,128	276,938	142,226
324,983	4,252	276,871	142,293
325,997	4,246	276,779	142,228
327,012	4,232	276,684	142,153
328,027	4,191	276,428	141,971
329,041	4,012	276,273	141,714
330,056	4,067	276,228	141,729
331,070	4,121	275,905	141,601
332,085	4,018	275,782	141,430
333,100	4,245	275,549	141,506
334,114	4,220	275,250	141,317
335,129	3,860	275,062	140,878
336,143	4,133	275,034	141,101
337,158	4,373	274,953	141,267
338,173	4,252	274,702	141,015
339,187	3,875	274,597	140,603
340,202	4,153	274,316	140,701
341,216	4,078	274,240	140,581
342,231	4,122	274,015	140,493
343,246	4,108	273,793	140,354
344,260	4,074	273,531	140,177
345,275	4,289	273,636	140,414
346,289	4,567	273,521	140,595
347,304	4,606	273,215	140,460
348,319	4,168	272,935	139,906
349,333	4,292	272,815	139,945
350,348	4,491	272,745	140,078
351,362	4,493	272,560	139,972
352,377	4,401	272,324	139,754
353,392	4,552	272,156	139,793
354,406	4,535	271,997	139,683
355,421	191,102	1332,376	1409,013
356,435	154,353	1461,656	1409,133
