DTS Sentinel unit serial number:	SN410029Multiplexer serial number:	ORYXHardware model number:	OX2-SRSoftware version number:	ORYX F/W v4,00 Oryx Data Collector v3.7.2.0data status	okinstallation	B4 Nyhavnadifferential loss correction	single-endedforward channel	channel 2reverse channel	N/Adate	2023/12/18time	21:30:13forward acquisition time	300,00reverse acquisition time	0,00gamma	499,1914k internal	0,3124k external	0,3124temperature offset calibration	1,0000default loss term (dB/km)	0,3820temperature slope calibration	1,0000multiplexer offset coefficient	1,0000multiplexer slope coefficient	1,0000fibre end	0,00T internal ref (°C)	21,84T ext. ref 1 (°C)	7,16T ext. ref 2 (°C)	7,14length (m)	temperature (°C)	Stokes	anti-Stokes-744,400	-200,000	0,000	-0,042
-743,385	-6,132	-0,193	0,098
-742,371	-147,974	0,158	0,010
-741,356	-180,227	-0,127	0,002
-740,342	-64,945	0,142	-0,042
-739,327	-30,961	-0,174	0,073
-738,312	800,000	-0,046	-0,118
-737,298	-166,117	-0,254	0,008
-736,283	800,000	-0,010	0,023
-735,269	144,401	-0,126	0,126
-734,254	-200,000	-0,005	-0,044
-733,239	-83,884	-0,510	-0,120
-732,225	-18,440	0,177	-0,082
-731,210	-103,114	0,148	0,026
-730,196	-200,000	-0,151	-0,000
-729,181	-30,651	0,111	-0,046
-728,167	449,528	-0,015	0,025
-727,152	56,248	0,021	-0,015
-726,137	211,623	-0,097	-0,113
-725,123	800,000	-0,024	-0,054
-724,108	229,980	-0,073	-0,089
-723,094	671,841	-0,020	-0,038
-722,079	-200,000	0,001	-0,127
-721,064	768,579	0,025	-0,050
-720,050	-68,161	-0,068	-0,020
-719,035	-200,000	-0,001	-0,056
-718,021	-0,818	0,060	0,031
-717,006	-200,000	-0,025	-0,108
-715,991	335,147	-0,066	-0,096
-714,977	-200,000	-0,034	-0,141
-713,962	800,000	0,020	-0,064
-712,948	12,512	0,047	-0,027
-711,933	59,638	-0,176	-0,129
-710,918	800,000	0,012	0,036
-709,904	88,554	-0,103	0,085
-708,889	-200,000	-0,015	0,090
-707,875	127,041	-0,073	0,069
-706,860	-200,000	0,004	-0,089
-705,845	-49,050	0,120	-0,043
-704,831	800,000	0,049	0,141
-703,816	9,556	0,050	0,028
-702,802	-96,580	-0,048	-0,009
-701,787	184,263	0,052	-0,058
-700,772	800,000	-0,021	-0,056
-699,758	382,656	0,045	0,069
-698,743	39,556	0,094	-0,062
-697,729	-51,897	-0,045	0,016
-696,714	78,513	-0,001	-0,001
-695,699	-164,428	0,069	0,002
-694,685	-140,919	-0,181	0,014
-693,670	24,146	-0,054	0,033
-692,656	160,516	-0,091	-0,094
-691,641	-82,547	0,045	-0,011
-690,627	-108,361	0,046	-0,007
-689,612	-44,225	-0,049	0,018
-688,597	-56,021	-0,033	-0,011
-687,583	144,485	0,086	-0,086
-686,568	800,000	-0,049	-0,104
-685,554	-39,583	-0,043	0,017
-684,539	260,870	0,070	-0,090
-683,524	121,671	0,064	-0,059
-682,510	21,822	-0,166	0,101
-681,495	10,870	-0,061	0,034
-680,481	-94,791	-0,094	0,019
-679,466	800,000	-0,019	-0,049
-678,451	300,572	0,092	-0,127
-677,437	-200,000	-0,016	0,092
-676,422	228,424	0,022	0,027
-675,408	-200,000	0,008	0,065
-674,393	-200,000	0,010	0,045
-673,378	356,861	-0,063	-0,093
-672,364	231,476	-0,135	0,165
-671,349	800,000	-0,018	-0,045
-670,335	-93,983	-0,099	-0,020
-669,320	557,933	0,029	0,052
-668,305	247,938	-0,041	-0,051
-667,291	-29,724	-0,154	0,065
-666,276	-51,079	0,117	-0,040
-665,262	318,542	-0,060	-0,085
-664,247	-118,163	0,074	-0,010
-663,232	-6,420	-0,094	0,047
-662,218	-200,000	0,021	0,076
-661,203	-1,901	0,077	0,040
-660,189	408,354	-0,093	0,147
-659,174	-200,000	-0,029	0,121
-658,159	329,842	0,071	-0,102
-657,145	-200,000	0,021	-0,135
-656,130	0,570	-0,155	0,082
-655,116	-134,744	0,138	-0,012
-654,101	-200,000	-0,033	0,172
-653,086	-58,823	-0,155	0,050
-652,072	87,280	-0,103	-0,084
-651,057	2,008	-0,090	0,048
-650,043	33,759	-0,051	0,033
-649,028	800,000	0,029	-0,077
-648,014	609,862	-0,016	-0,029
-646,999	-200,000	-0,015	0,066
-645,984	-119,951	-0,056	0,007
-644,970	-42,983	-0,033	0,012
-643,955	-23,523	-0,083	-0,037
-642,941	790,721	-0,094	-0,193
-641,926	646,765	0,027	-0,052
-640,911	393,556	-0,011	-0,018
-639,897	383,109	0,080	0,122
-638,882	446,652	0,037	-0,060
-637,868	800,000	0,018	-0,058
-636,853	-200,000	-0,008	-0,059
-635,838	274,745	0,033	-0,044
-634,824	133,251	-0,074	0,071
-633,809	27,325	-0,062	0,038
-632,795	-128,060	-0,093	-0,010
-631,780	-200,000	0,010	0,045
-630,765	-200,000	0,085	0,000
-629,751	30,501	0,068	-0,043
-628,736	-82,372	-0,195	0,047
-627,722	227,065	0,042	-0,051
-626,707	-139,106	0,126	0,010
-625,692	-200,000	-0,018	-0,063
-624,678	-200,000	-0,015	0,173
-623,663	-200,000	-0,007	0,123
-622,649	-141,033	-0,122	-0,009
-621,634	298,258	0,039	0,053
-620,619	93,276	0,029	0,024
-619,605	-200,000	0,005	0,059
-618,590	-124,686	-0,073	-0,008
-617,576	135,216	0,068	-0,065
-616,561	-53,802	-0,151	0,051
-615,546	38,740	-0,103	-0,068
-614,532	206,277	-0,030	-0,035
-613,517	197,117	-0,037	0,042
-612,503	-52,950	-0,058	-0,020
-611,488	44,708	-0,076	0,052
-610,474	-127,103	-0,071	0,008
-609,459	-32,053	0,022	0,009
-608,444	300,020	-0,119	-0,163
-607,430	44,202	-0,203	-0,138
-606,415	-13,026	-0,043	0,021
-605,401	-102,301	0,059	0,010
-604,386	800,000	-0,066	0,143
-603,371	-200,000	0,003	0,101
-602,357	-67,327	0,134	0,039
-601,342	131,287	-0,047	-0,044
-600,328	-200,000	0,031	-0,146
-599,313	800,000	0,065	-0,134
-598,298	-200,000	-0,033	-0,136
-597,284	39,197	0,116	0,077
-596,269	141,717	0,059	0,058
-595,255	111,141	0,052	0,046
-594,240	224,731	0,029	-0,034
-593,225	96,636	-0,023	0,020
-592,211	-34,580	-0,094	0,038
-591,196	-27,956	0,196	-0,084
-590,182	-30,000	0,009	-0,004
-589,167	800,000	-0,025	0,055
-588,152	-200,000	-0,008	-0,059
-587,138	550,011	-0,030	-0,053
-586,123	264,799	0,060	-0,078
-585,109	-200,000	-0,003	-0,116
-584,094	-200,000	-0,000	-0,132
-583,079	-95,540	0,050	0,010
-582,065	800,000	-0,035	0,082
-581,050	-63,629	0,132	0,040
-580,036	314,592	-0,032	0,045
-579,021	405,311	-0,073	-0,114
-578,006	33,376	-0,055	-0,035
-576,992	-47,672	-0,079	0,028
-575,977	-39,021	-0,074	0,029
-574,963	-170,032	0,113	-0,003
-573,948	-200,000	0,006	0,068
-572,934	-97,580	-0,031	0,006
-571,919	-53,250	-0,062	-0,021
-570,904	101,195	-0,064	-0,055
-569,890	-73,860	-0,011	0,003
-568,875	292,730	-0,063	-0,085
-567,861	43,158	0,106	0,072
-566,846	-200,000	-0,009	0,057
-565,831	-200,000	-0,044	0,150
-564,817	162,924	-0,020	0,021
-563,802	413,825	-0,068	-0,107
-562,788	-200,000	-0,030	0,119
-561,773	-113,485	0,073	0,010
-560,758	33,385	0,071	-0,046
-559,744	-21,674	0,054	-0,024
-558,729	-72,859	0,115	0,031
-557,715	-200,000	-0,019	-0,116
-556,700	250,266	-0,051	-0,064
-555,685	-67,200	-0,088	-0,025
-554,671	412,734	0,088	-0,138
-553,656	112,325	0,074	0,066
-552,642	-200,000	-0,010	-0,056
-551,627	66,075	0,058	-0,044
-550,612	74,781	-0,029	-0,023
-549,598	-11,001	0,018	0,009
-548,583	587,986	0,043	-0,078
-547,569	-48,383	-0,155	0,055
-546,554	40,809	-0,101	0,067
-545,539	-168,800	0,130	-0,004
-544,525	-103,510	0,080	0,014
-543,510	-200,000	-0,013	0,070
-542,496	-106,990	0,053	-0,009
-541,481	-200,000	0,015	0,098
-540,466	-30,232	0,055	-0,023
-539,452	-22,006	0,093	0,041
-538,437	66,765	0,096	0,072
-537,423	-3,543	-0,042	-0,021
-536,408	-99,969	-0,151	0,028
-535,393	34,184	-0,053	0,034
-534,379	465,986	-0,039	0,064
-533,364	-114,585	0,043	0,006
-532,350	-33,414	0,147	-0,060
-531,335	-153,855	-0,028	-0,001
-530,321	-157,722	0,115	0,005
-529,306	-200,000	-0,000	-0,045
-528,291	109,462	-0,055	-0,049
-527,277	-142,869	0,081	0,006
-526,262	-177,657	-0,080	-0,001
-525,248	3,941	-0,085	0,046
-524,233	97,147	-0,064	0,054
-523,218	800,000	-0,020	-0,043
-522,204	278,265	-0,034	-0,045
-521,189	561,974	-0,027	-0,049
-520,175	800,000	0,055	0,163
-519,160	-200,000	-0,004	0,073
-518,145	-31,709	0,066	-0,027
-517,131	124,983	-0,087	0,081
-516,116	208,466	0,086	0,099
-515,102	378,274	0,065	-0,099
-514,087	-2,684	-0,091	0,047
-513,072	-200,000	-0,014	0,064
-512,058	-92,864	-0,135	-0,028
-511,043	800,000	-0,029	0,066
-510,029	800,000	-0,040	0,103
-509,014	566,767	-0,025	0,045
-507,999	-200,000	0,008	-0,037
-506,985	466,167	-0,019	-0,032
-505,970	-71,879	-0,087	0,024
-504,956	48,777	-0,031	0,022
-503,941	800,000	0,025	0,054
-502,926	-200,000	-0,008	-0,041
-501,912	-71,789	0,111	0,030
-500,897	331,434	-0,103	-0,147
-499,883	340,222	0,036	-0,052
-498,868	-21,324	-0,176	-0,079
-497,853	162,998	-0,047	-0,049
-496,839	-107,422	0,127	-0,020
-495,824	-200,000	0,015	-0,054
-494,810	800,000	-0,022	0,053
-493,795	53,292	0,030	-0,021
-492,781	259,385	-0,096	-0,123
-491,766	800,000	0,026	-0,066
-490,751	-200,000	0,001	0,008
-489,737	-200,000	0,010	0,081
-488,722	-178,773	0,113	0,002
-487,708	-1,299	-0,102	0,053
-486,693	-200,000	-0,003	0,025
-485,678	444,626	0,098	-0,160
-484,664	-200,000	-0,035	-0,151
-483,649	-200,000	-0,029	-0,098
-482,635	-200,000	0,002	-0,061
-481,620	-55,110	0,144	-0,048
-480,605	-60,489	0,081	0,025
-479,591	-20,999	-0,090	-0,040
-478,576	-200,000	-0,021	-0,103
-477,562	-11,560	0,090	-0,044
-476,547	-87,912	-0,051	0,011
-475,532	-200,000	-0,012	0,086
-474,518	-159,511	-0,091	-0,004
-473,503	232,516	0,035	-0,043
-472,489	369,982	0,074	0,111
-471,474	-192,102	-0,032	-0,000
-470,459	800,000	-0,020	0,051
-469,445	-48,971	0,039	0,014
-468,430	70,840	-0,030	-0,023
-467,416	-200,000	0,003	0,072
-466,401	284,951	0,046	0,061
-465,386	-105,566	0,104	0,017
-464,372	31,616	-0,054	-0,034
-463,357	-43,560	-0,073	0,027
-462,343	-45,851	0,202	0,073
-461,328	800,000	-0,035	-0,105
-460,313	-110,099	0,114	0,017
-459,299	-200,000	-0,011	-0,112
-458,284	-22,486	-0,064	0,029
-457,270	166,645	-0,100	-0,105
-456,255	436,135	-0,067	-0,107
-455,241	409,578	0,039	-0,061
-454,226	346,788	-0,022	-0,032
-453,211	-200,000	-0,015	0,108
-452,197	-54,616	0,170	0,056
-451,182	15,472	0,106	0,061
-450,168	-122,471	0,097	-0,012
-449,153	399,767	-0,064	0,099
-448,138	-123,125	-0,063	-0,007
-447,124	800,000	0,022	-0,063
-446,109	800,000	0,036	0,076
-445,095	383,455	0,026	-0,039
-444,080	-108,461	0,143	0,022
-443,065	800,000	-0,013	-0,036
-442,051	79,137	0,009	-0,007
-441,036	3,457	0,096	0,052
-440,022	-23,770	-0,013	0,006
-439,007	800,000	-0,008	-0,020
-437,992	800,000	0,029	0,088
-436,978	81,996	0,101	0,081
-435,963	800,000	-0,013	0,031
-434,949	-99,466	0,058	-0,011
-433,934	13,575	-0,114	-0,065
-432,919	-85,351	0,121	-0,028
-431,905	159,987	-0,019	-0,020
-430,890	132,912	0,086	-0,082
-429,876	628,090	-0,054	-0,101
-428,861	-79,857	-0,085	0,021
-427,846	800,000	-0,060	-0,142
-426,832	-123,881	-0,155	0,018
-425,817	-200,000	0,035	-0,133
-424,803	90,139	0,098	0,080
-423,788	335,572	0,050	-0,071
-422,773	132,819	0,023	0,021
-421,759	19,301	0,082	0,049
-420,744	-155,819	-0,136	-0,006
-419,730	-200,000	-0,017	-0,144
-418,715	-147,569	-0,069	-0,004
-417,701	711,545	0,084	0,165
-416,686	800,000	0,026	0,073
-415,671	76,913	-0,137	0,107
-414,657	-165,260	0,119	0,004
-413,642	32,808	-0,100	0,063
-412,628	800,000	-0,064	-0,166
-411,613	-109,764	0,082	-0,013
-410,598	308,050	0,018	0,025
-409,584	-163,480	0,034	-0,001
-408,569	-8,685	-0,024	0,012
-407,555	-3,274	0,037	0,019
-406,540	800,000	-0,026	0,062
-405,525	108,104	-0,031	0,028
-404,511	-39,283	-0,100	-0,038
-403,496	25,238	-0,060	-0,036
-402,482	144,953	0,083	-0,082
-401,467	-200,000	-0,010	0,178
-400,452	-200,000	-0,010	0,112
-399,438	-117,972	0,102	-0,013
-398,423	-200,000	-0,003	-0,173
-397,409	316,456	-0,037	0,051
-396,394	684,958	-0,023	0,044
-395,379	33,833	0,053	0,034
-394,365	622,987	-0,028	0,052
-393,350	-97,815	0,076	0,014
-392,336	800,000	0,031	-0,069
-391,321	-84,020	-0,074	-0,017
-390,306	-2,682	0,197	0,101
-389,292	84,419	0,026	0,021
-388,277	-200,000	-0,019	0,088
-387,263	-78,271	-0,038	0,010
-386,248	176,368	-0,092	0,098
-385,233	-150,580	0,057	0,003
-384,219	800,000	0,066	0,140
-383,204	99,992	-0,083	0,071
-382,190	-55,256	-0,130	-0,043
-381,175	27,697	-0,035	0,021
-380,160	-121,517	-0,099	-0,012
-379,146	-47,227	-0,059	-0,021
-378,131	-200,000	-0,015	0,141
-377,117	-51,803	-0,082	-0,028
-376,102	-44,901	-0,153	-0,056
-375,088	-21,019	-0,169	-0,076
-374,073	800,000	-0,010	0,023
-373,058	112,457	-0,055	-0,048
-372,044	-180,147	0,143	0,002
-371,029	-129,022	0,057	-0,006
-370,015	250,855	0,028	0,035
-369,000	-200,000	0,002	-0,127
-367,985	-16,454	-0,108	0,050
-366,971	245,635	0,087	-0,108
-365,956	800,000	-0,058	-0,127
-364,942	399,230	-0,033	0,051
-363,927	800,000	0,048	-0,115
-362,912	-200,000	-0,001	0,107
-361,898	25,552	0,061	-0,037
-360,883	407,158	0,037	0,057
-359,869	-200,000	0,004	0,081
-358,854	800,000	-0,046	0,095
-357,839	-200,000	-0,017	0,086
-356,825	-35,666	0,044	0,018
-355,810	-190,422	0,153	-0,001
-354,796	-128,015	0,095	0,010
-353,781	575,216	0,055	0,099
-352,766	-21,779	-0,013	0,006
-351,752	-200,000	0,013	0,054
-350,737	-200,000	-0,016	0,133
-349,723	418,714	0,052	0,082
-348,708	-200,000	-0,015	0,063
-347,693	-200,000	0,012	-0,062
-346,679	-200,000	0,009	-0,111
-345,664	-200,000	-0,017	-0,062
-344,650	190,652	-0,066	-0,073
-343,635	-25,400	0,049	0,021
-342,620	-200,000	0,008	0,051
-341,606	-15,821	-0,106	-0,049
-340,591	-200,000	0,013	0,043
-339,577	13,483	-0,095	0,054
-338,562	800,000	0,019	-0,043
-337,548	-200,000	-0,003	-0,052
-336,533	-200,000	-0,017	-0,092
-335,518	-101,361	0,051	0,009
-334,504	-200,000	-0,002	-0,017
-333,489	276,600	-0,035	0,045
-332,475	166,542	-0,032	0,034
-331,460	40,522	0,009	0,006
-330,445	-131,813	0,088	0,008
-329,431	159,580	0,043	-0,044
-328,416	-200,000	-0,005	-0,020
-327,402	156,969	-0,048	0,049
-326,387	800,000	-0,058	0,130
-325,372	666,288	-0,066	0,125
-324,358	634,437	0,030	-0,056
-323,343	-69,261	-0,050	0,014
-322,329	-200,000	0,009	0,122
-321,314	-128,805	-0,152	-0,015
-320,299	24,940	-0,064	-0,039
-319,285	12,728	0,140	-0,079
-318,270	-17,551	-0,043	0,020
-317,256	-200,000	0,027	-0,101
-316,241	40,671	0,082	-0,054
-315,226	-200,000	0,000	0,106
-314,212	-87,038	0,088	0,019
-313,197	-18,019	0,057	-0,026
-312,183	-23,437	0,071	0,031
-311,168	46,081	0,088	0,060
-310,153	-66,694	0,107	-0,031
-309,139	524,825	-0,064	0,111
-308,124	-14,606	-0,087	0,041
-307,110	-16,495	-0,007	-0,003
-306,095	-56,971	0,127	0,041
-305,080	-200,000	-0,015	-0,051
-304,066	-28,699	0,033	-0,014
-303,051	3,767	0,055	-0,029
-302,037	23,979	-0,111	-0,067
-301,022	-117,418	0,162	0,021
-300,008	26,609	-0,212	-0,129
-298,993	93,641	-0,043	0,036
-297,978	-200,000	-0,002	-0,037
-296,964	-200,000	-0,011	-0,134
-295,949	-10,016	-0,088	-0,043
-294,935	-64,016	0,019	-0,006
-293,920	446,856	0,034	-0,055
-292,905	-108,047	0,039	0,006
-291,891	369,188	0,080	0,119
-290,876	-71,238	0,066	0,018
-289,862	-200,000	0,008	-0,131
-288,847	-47,144	-0,105	-0,037
-287,832	695,296	-0,067	-0,130
-286,818	483,950	-0,030	-0,050
-285,803	36,028	0,089	0,057
-284,789	167,355	-0,067	0,070
-283,774	464,769	-0,053	0,087
-282,759	-200,000	0,000	0,046
-281,745	800,000	-0,014	0,037
-280,730	-200,000	-0,017	0,067
-279,716	-36,045	0,056	-0,022
-278,701	85,246	0,028	0,022
-277,686	-8,613	0,169	0,083
-276,672	800,000	-0,012	0,035
-275,657	-72,894	0,040	-0,011
-274,643	13,348	0,040	0,023
-273,628	800,000	0,026	0,067
-272,613	-200,000	0,015	-0,059
-271,599	-128,788	0,067	0,007
-270,584	51,962	0,195	-0,136
-269,570	-200,000	0,006	0,105
-268,555	406,536	-0,065	-0,100
-267,540	401,557	-0,054	-0,084
-266,526	106,104	-0,020	0,017
-265,511	800,000	0,040	0,101
-264,497	135,537	-0,076	-0,072
-263,482	-81,078	0,031	0,007
-262,467	-161,866	-0,142	0,005
-261,453	364,627	0,065	0,095
-260,438	-92,862	-0,156	-0,032
-259,424	49,323	0,107	-0,074
-258,409	800,000	-0,009	-0,019
-257,395	-200,000	0,008	-0,046
-256,380	-200,000	0,018	0,142
-255,365	800,000	0,062	-0,147
-254,351	-107,273	-0,037	-0,006
-253,336	361,744	0,059	0,087
-252,322	-37,993	0,036	0,014
-251,307	-200,000	0,023	0,075
-250,292	-16,655	-0,165	0,076
-249,278	-200,000	0,006	-0,056
-248,263	395,431	0,054	0,083
-247,249	-200,000	0,024	0,116
-246,234	800,000	0,074	0,158
-245,219	361,778	0,062	-0,091
-244,205	127,090	0,024	0,023
-243,190	469,236	0,089	0,147
-242,176	-69,450	-0,081	-0,022
-241,161	259,864	0,029	-0,036
-240,146	349,192	-0,062	0,090
-239,132	238,223	0,021	0,026
-238,117	-180,087	-0,043	-0,001
-237,103	34,876	0,056	-0,036
-236,088	-200,000	-0,003	-0,164
-235,073	800,000	0,025	0,072
-234,059	169,639	-0,018	0,019
-233,044	440,457	-0,022	0,036
-232,030	800,000	0,019	0,056
-231,015	150,453	-0,090	-0,090
-230,000	75,562	-0,149	-0,114
-228,986	130,546	-0,090	0,084
-227,971	-174,813	0,059	-0,001
-226,957	-180,430	-0,082	0,001
-225,942	800,000	0,025	0,074
-224,927	-75,616	0,031	0,008
-223,913	-86,350	-0,089	-0,020
-222,898	-200,000	0,020	-0,107
-221,884	69,431	0,113	0,085
-220,869	800,000	0,015	0,044
-219,855	14,833	-0,054	0,031
-218,840	-200,000	-0,015	-0,057
-217,825	800,000	0,031	-0,092
-216,811	-44,981	0,098	0,035
-215,796	-200,000	0,027	-0,113
-214,782	73,124	-0,046	-0,035
-213,767	176,107	0,077	-0,082
-212,752	-8,609	0,040	0,019
-211,738	112,402	-0,022	0,019
-210,723	-158,699	0,115	-0,005
-209,709	-146,966	0,082	-0,005
-208,694	-1,542	0,011	-0,006
-207,679	26,436	0,151	-0,092
-206,665	800,000	0,029	0,066
-205,650	-122,985	0,147	-0,017
-204,636	-200,000	0,011	0,066
-203,621	-82,012	-0,153	0,036
-202,606	22,548	-0,074	0,044
-201,592	-200,000	0,001	-0,184
-200,577	128,140	-0,130	-0,121
-199,563	301,898	-0,069	-0,093
-198,548	-77,726	0,090	-0,023
-197,533	-200,000	-0,002	0,011
-196,519	-200,000	-0,011	0,040
-195,504	112,643	-0,035	0,031
-194,490	448,457	-0,072	-0,116
-193,475	729,599	0,030	-0,059
-192,460	-165,164	0,115	-0,004
-191,446	-200,000	-0,049	0,178
-190,431	-148,671	0,070	-0,004
-189,417	-42,170	-0,088	0,033
-188,402	-58,474	0,127	0,040
-187,387	-200,000	-0,018	0,059
-186,373	-200,000	0,022	-0,138
-185,358	-8,054	0,097	0,048
-184,344	-200,000	-0,007	0,119
-183,329	-63,677	-0,027	-0,008
-182,315	505,223	0,063	0,107
-181,300	-200,000	0,002	-0,030
-180,285	-200,000	0,029	0,096
-179,271	63,636	0,050	0,037
-178,256	630,012	0,066	-0,123
-177,242	-35,422	0,096	0,038
-176,227	-85,899	0,019	-0,004
-175,212	-97,227	-0,144	0,027
-174,198	-200,000	-0,004	0,067
-173,183	-200,000	0,018	0,064
-172,169	-136,568	-0,179	-0,015
-171,154	800,000	0,031	-0,099
-170,139	-20,934	0,053	-0,024
-169,125	231,166	0,052	-0,062
-168,110	-10,652	0,079	0,038
-167,096	-200,000	0,006	-0,079
-166,081	-200,000	-0,023	-0,089
-165,066	-49,754	-0,270	-0,093
-164,052	-200,000	-0,010	-0,103
-163,037	124,713	0,138	0,126
-162,023	-200,000	-0,013	0,083
-161,008	-106,049	-0,110	-0,018
-159,993	124,604	-0,073	-0,067
-158,979	-63,394	-0,088	0,026
-157,964	-200,000	-0,003	-0,029
-156,950	382,543	-0,036	-0,054
-155,935	159,678	-0,064	-0,065
-154,920	-38,921	-0,043	0,016
-153,906	800,000	0,018	0,056
-152,891	-200,000	-0,029	0,100
-151,877	-151,191	-0,041	0,002
-150,862	475,025	0,011	-0,018
-149,847	369,590	-0,039	-0,058
-148,833	9,478	-0,091	-0,050
-147,818	-200,000	0,061	0,198
-146,804	-200,000	0,028	0,108
-145,789	571,513	0,069	-0,122
-144,775	154,725	-0,046	0,046
-143,760	-46,699	-0,104	-0,037
-142,745	-174,235	0,115	0,002
-141,731	99,342	-0,059	-0,050
-140,716	-19,190	0,030	0,013
-139,702	-200,000	-0,023	0,135
-138,687	-119,000	0,086	-0,011
-137,672	800,000	0,032	0,093
-136,658	-128,132	-0,093	0,010
-135,643	172,273	-0,102	-0,106
-134,629	-200,000	0,014	-0,105
-133,614	402,321	-0,044	0,068
-132,599	-200,000	0,020	-0,098
-131,585	710,617	0,015	-0,029
-130,570	109,664	0,058	-0,050
-129,556	-200,000	0,014	-0,203
-128,541	35,572	0,141	-0,090
-127,526	800,000	0,007	-0,020
-126,512	-200,000	0,003	0,130
-125,497	-77,005	0,089	0,022
-124,483	428,943	0,058	-0,091
-123,468	800,000	-0,021	0,061
-122,453	447,390	0,075	-0,120
-121,439	51,480	0,081	0,056
-120,424	403,294	-0,102	-0,156
-119,410	12,632	0,089	-0,050
-118,395	-84,617	0,180	0,041
-117,380	-19,729	0,083	0,037
-116,366	-99,211	0,079	0,014
-115,351	180,871	0,042	-0,045
-114,337	423,401	-0,038	0,059
-113,322	-50,491	-0,085	-0,029
-112,307	-200,000	0,002	-0,020
-111,293	134,652	-0,075	0,071
-110,278	-137,229	-0,134	-0,011
-109,264	91,475	0,087	0,071
-108,249	200,550	0,113	0,127
-107,234	800,000	-0,081	-0,182
-106,220	310,851	-0,068	0,093
-105,205	88,653	0,026	0,021
-104,191	800,000	-0,009	0,027
-103,176	85,096	-0,027	0,022
-102,162	800,000	-0,057	0,134
-101,147	339,051	-0,047	-0,066
-100,132	91,194	0,039	-0,032
-99,118	800,000	-0,025	-0,053
-98,103	-200,000	0,030	-0,102
-97,089	353,561	0,084	0,122
-96,074	800,000	-0,018	0,056
-95,059	-200,000	0,018	0,130
-94,045	-7,223	-0,057	0,028
-93,030	278,071	0,046	-0,059
-92,016	-200,000	0,000	0,016
-91,001	-200,000	0,028	0,100
-89,986	-200,000	0,029	0,097
-88,972	351,457	0,071	0,102
-87,957	-5,205	-0,087	0,043
-86,943	77,875	0,035	-0,027
-85,928	-53,724	-0,084	-0,028
-84,913	128,361	-0,138	-0,128
-83,899	71,360	-0,112	0,084
-82,884	-1,678	0,057	0,029
-81,870	319,585	0,146	0,202
-80,855	-200,000	0,014	0,142
-79,840	6,088	-0,046	-0,025
-78,826	566,943	-0,039	0,069
-77,811	800,000	-0,017	-0,048
-76,797	-8,786	0,045	-0,022
-75,782	-200,000	-0,005	0,076
-74,767	-200,000	-0,001	-0,085
-73,753	-200,000	-0,021	0,078
-72,738	-200,000	-0,029	0,099
-71,724	3,737	0,188	-0,099
-70,709	74,469	-0,040	-0,030
-69,694	-200,000	0,010	-0,099
-68,680	-60,566	0,085	0,026
-67,665	-200,000	0,011	-0,049
-66,651	-59,597	0,059	0,018
-65,636	190,260	-0,057	0,063
-64,622	-200,000	0,010	-0,105
-63,607	177,953	-0,017	-0,018
-62,592	-54,380	0,072	0,024
-61,578	86,375	-0,088	-0,071
-60,563	628,334	0,019	0,035
-59,549	800,000	-0,075	0,184
-58,534	-146,195	-1,373	-0,086
-57,519	500,138	-0,966	-1,622
-56,505	-200,000	-0,773	-4,406
-55,490	12,299	0,494	-0,275
-54,476	800,000	4,979	11,629
-53,461	-200,000	14,139	253,798
-52,446	-200,000	694,510	2261,440
-51,432	598,658	1624,297	2934,201
-50,417	117,529	1632,861	1457,165
-49,403	73,565	1286,980	976,676
-48,388	37,359	1023,536	656,682
-47,373	23,898	981,730	585,581
-46,359	23,084	971,209	576,613
-45,344	22,064	966,903	570,701
-44,330	21,989	965,631	569,684
-43,315	21,897	964,039	568,422
-42,300	21,808	963,104	567,557
-41,286	21,901	961,996	567,185
-40,271	21,890	961,060	566,573
-39,257	21,853	960,081	565,854
-38,242	21,802	959,232	565,166
-37,227	21,890	958,322	564,894
-36,213	21,817	957,573	564,193
-35,198	21,779	956,662	563,512
-34,184	21,859	956,077	563,401
-33,169	21,855	954,960	562,710
-32,154	21,905	953,938	562,247
-31,140	21,940	953,140	561,866
-30,125	21,929	952,552	561,460
-29,111	21,879	951,570	560,700
-28,096	21,900	950,895	560,349
-27,082	21,847	950,422	559,876
-26,067	21,931	949,381	559,511
-25,052	21,867	948,895	558,995
-24,038	21,857	948,231	558,552
-23,023	21,866	947,606	558,189
-22,009	21,926	946,809	557,890
-20,994	21,936	946,027	557,439
-19,979	21,865	945,587	556,929
-18,965	21,926	944,854	556,670
-17,950	21,866	944,393	556,186
-16,936	21,799	943,698	555,542
-15,921	21,856	942,957	555,265
-14,906	21,736	942,364	554,512
-13,892	21,797	941,436	554,137
-12,877	21,799	941,005	553,869
-11,863	21,755	940,342	553,316
-10,848	21,757	939,987	553,091
-9,833	21,844	939,465	553,039
-8,819	21,838	938,725	552,562
-7,804	21,774	938,066	551,950
-6,790	21,788	937,587	551,688
-5,775	21,808	936,946	551,354
-4,760	21,739	936,293	550,730
-3,746	21,779	935,550	550,396
-2,731	21,608	935,080	549,557
-1,717	21,534	934,355	548,878
-0,702	21,564	933,588	548,498
0,313	21,347	933,048	548,325
1,327	23,924	930,401	554,821
2,342	31,544	808,600	502,838
3,356	26,180	509,557	307,679
4,371	1,651	374,638	194,908
5,386	-1,163	357,416	182,469
6,400	-2,252	351,563	178,146
7,415	-2,755	348,816	176,133
8,429	-2,830	347,556	175,392
9,444	-2,898	346,610	174,818
10,459	-2,800	345,919	174,570
11,473	-2,767	345,253	174,258
12,488	-2,751	344,727	173,996
13,502	-2,829	344,128	173,585
14,517	-2,745	343,598	173,402
15,531	-2,752	343,026	173,090
16,546	-2,765	342,745	172,918
17,561	-2,691	342,246	172,737
18,575	-2,653	341,816	172,550
19,590	-2,831	341,605	172,218
20,604	-2,684	341,354	172,249
21,619	-2,811	340,736	171,773
22,634	-2,743	340,501	171,719
23,648	-2,732	340,189	171,559
24,663	-2,825	339,789	171,233
25,677	-2,747	339,554	171,191
26,692	-2,828	339,298	170,952
27,707	-2,616	338,927	170,997
28,721	-2,750	338,543	170,632
29,736	-2,808	338,369	170,462
30,750	-2,886	338,018	170,179
31,765	-2,735	337,750	170,203
32,780	-2,803	337,360	169,913
33,794	-2,834	337,079	169,721
34,809	-2,629	336,769	169,787
35,823	-2,717	336,552	169,561
36,838	-2,897	336,306	169,214
37,853	-2,794	336,078	169,203
38,867	-2,762	335,810	169,090
39,882	-2,785	335,394	168,839
40,896	-2,699	335,057	168,753
41,911	-2,855	334,958	168,509
42,926	-2,727	334,654	168,488
43,940	-2,703	334,350	168,347
44,955	-2,576	334,052	168,327
45,969	-2,765	333,903	168,021
46,984	-2,850	333,601	167,756
47,999	-2,985	333,489	167,531
49,013	-2,691	333,015	167,614
50,028	-2,740	332,812	167,441
51,042	-2,817	332,483	167,172
52,057	-2,824	332,158	166,986
53,071	-2,862	331,855	166,775
54,086	-2,792	331,845	166,836
55,101	-2,807	331,600	166,680
56,115	-2,748	331,347	166,605
57,130	-2,824	331,097	166,378
58,144	-2,767	330,616	166,186
59,159	-2,809	330,524	166,078
60,174	-2,626	330,210	166,113
61,188	-2,809	330,009	165,790
62,203	-2,834	329,738	165,610
63,217	-2,726	329,457	165,576
64,232	-2,717	329,238	165,462
65,247	-2,515	328,742	165,425
66,261	-2,703	328,707	165,182
67,276	-2,706	328,553	165,086
68,290	-2,737	328,165	164,842
69,305	-2,763	327,932	164,680
70,320	-2,825	327,804	164,532
71,334	-2,781	327,498	164,412
72,349	-2,678	327,174	164,351
73,363	-2,798	327,046	164,138
74,378	-2,758	326,588	163,938
75,393	-2,836	326,425	163,754
76,407	-2,832	326,235	163,649
77,422	-2,690	325,769	163,559
78,436	-2,697	325,669	163,486
79,451	-2,628	325,387	163,407
80,466	-2,767	325,048	163,067
81,480	-2,647	324,769	163,046
82,495	-2,738	324,693	162,892
83,509	-2,689	324,552	162,862
84,524	-2,689	324,228	162,685
85,539	-2,500	323,824	162,677
86,553	-2,606	323,656	162,461
87,568	-2,781	323,523	162,186
88,582	-2,712	323,134	162,053
89,597	-2,690	323,065	162,027
90,611	-2,736	322,701	161,780
91,626	-2,977	322,593	161,445
92,641	-2,711	322,264	161,559
93,655	-2,587	322,035	161,566
94,670	-2,855	321,763	161,121
95,684	-2,813	321,629	161,086
96,699	-2,703	321,363	161,059
97,714	-2,745	321,253	160,943
98,728	-2,739	320,926	160,772
99,743	-2,703	320,561	160,614
100,757	-2,816	320,396	160,393
101,772	-2,771	320,162	160,311
102,787	-2,658	319,889	160,283
103,801	-2,808	319,709	160,015
104,816	-2,782	319,471	159,910
105,830	-2,718	319,157	159,809
106,845	-2,731	319,045	159,724
107,860	-2,700	318,798	159,620
108,874	-2,759	318,478	159,382
109,889	-2,742	318,288	159,291
110,903	-2,659	318,122	159,284
111,918	-2,700	317,836	159,081
112,933	-2,733	317,697	158,962
113,947	-2,806	317,499	158,770
114,962	-2,727	317,212	158,698
115,976	-2,612	316,835	158,619
116,991	-2,697	316,688	158,439
118,006	-2,746	316,454	158,255
119,020	-2,629	316,252	158,266
120,035	-2,646	316,101	158,158
121,049	-2,636	315,882	158,046
122,064	-2,717	315,743	157,875
123,079	-2,758	315,402	157,646
124,093	-2,761	315,273	157,564
125,108	-2,538	314,997	157,652
126,122	-2,732	314,900	157,381
127,137	-2,748	314,600	157,200
128,151	-2,771	314,273	156,997
129,166	-2,820	314,096	156,843
130,181	-2,753	313,938	156,822
131,195	-2,767	313,563	156,605
132,210	-2,839	313,373	156,419
133,224	-2,619	313,129	156,519
134,239	-2,706	312,916	156,305
135,254	-2,700	312,652	156,166
136,268	-2,762	312,421	155,971
137,283	-2,766	312,235	155,860
138,297	-2,716	311,994	155,779
139,312	-2,783	311,714	155,554
140,327	-2,569	311,421	155,621
141,341	-2,691	311,378	155,455
142,356	-2,640	311,136	155,375
143,370	-2,663	310,950	155,244
144,385	-2,616	310,585	155,097
145,400	-2,718	310,573	154,970
146,414	-2,678	310,187	154,806
147,429	-2,635	309,954	154,722
148,443	-2,526	309,740	154,715
149,458	-2,625	309,553	154,504
150,473	-2,780	309,428	154,264
151,487	-2,562	309,256	154,394
152,502	-2,513	308,958	154,284
153,516	-2,581	308,723	154,081
154,531	-2,609	308,486	153,919
155,546	-2,742	308,414	153,730
156,560	-2,627	308,211	153,737
157,575	-2,618	307,803	153,528
158,589	-2,617	307,612	153,420
159,604	-2,651	307,424	153,277
160,619	-2,656	307,169	153,132
161,633	-2,647	307,069	153,078
162,648	-2,625	306,844	152,975
163,662	-2,702	306,820	152,869
164,677	-2,542	306,491	152,858
165,692	-2,620	306,332	152,683
166,706	-2,591	306,075	152,572
167,721	-2,580	305,937	152,501
168,735	-2,556	305,683	152,386
169,750	-2,602	305,522	152,244
170,764	-2,621	305,312	152,107
171,779	-2,506	305,068	152,090
172,794	-2,489	304,884	152,002
173,808	-2,585	304,564	151,730
174,823	-2,582	304,423	151,649
175,837	-2,652	304,206	151,455
176,852	-2,704	303,975	151,273
177,867	-2,540	303,813	151,349
178,881	-2,581	303,565	151,169
179,896	-2,602	303,498	151,101
180,910	-2,535	303,118	150,967
181,925	-2,660	302,938	150,735
182,940	-2,573	302,792	150,738
183,954	-2,424	302,601	150,783
184,969	-2,491	302,298	150,550
185,983	-2,540	302,353	150,513
186,998	-2,555	302,035	150,327
188,013	-2,587	301,832	150,179
189,027	-2,504	301,605	150,137
190,042	-2,778	301,519	149,802
191,056	-2,517	301,120	149,857
192,071	-2,476	301,028	149,839
193,086	-2,690	300,764	149,476
194,100	-2,540	300,563	149,516
195,115	-2,627	300,406	149,336
196,129	-2,374	300,077	149,416
197,144	-2,552	299,929	149,148
198,159	-2,569	299,636	148,972
199,173	-2,675	299,509	148,788
200,188	-2,724	299,288	148,615
201,202	-2,831	299,180	148,440
202,217	-2,706	298,933	148,430
203,232	-2,579	298,539	148,351
204,246	-2,565	298,403	148,283
205,261	-2,664	298,255	148,097
206,275	-2,493	298,004	148,132
207,290	-2,451	297,794	148,056
208,304	-2,455	297,554	147,919
209,319	-2,715	297,624	147,679
210,334	-2,574	297,285	147,640
211,348	-2,572	296,972	147,473
212,363	-2,474	296,867	147,507
213,377	-2,579	296,688	147,299
214,392	-2,549	296,465	147,206
215,407	-2,553	296,178	147,045
216,421	-2,805	296,061	146,722
217,436	-2,676	295,849	146,733
218,450	-2,671	295,705	146,654
219,465	-2,506	295,427	146,666
220,480	-2,610	295,263	146,469
221,494	-2,583	295,086	146,395
222,509	-2,639	294,992	146,279
223,523	-2,606	294,732	146,170
224,538	-2,568	294,525	146,092
225,553	-2,503	294,273	146,019
226,567	-2,580	294,091	145,839
227,582	-2,677	294,024	145,696
228,596	-2,578	293,861	145,701
229,611	-2,409	293,494	145,674
230,626	-2,475	293,324	145,511
231,640	-2,638	292,980	145,166
232,655	-2,526	292,924	145,236
233,669	-2,497	292,649	145,115
234,684	-2,552	292,580	145,014
235,699	-2,525	292,412	144,944
236,713	-2,498	292,196	144,851
237,728	-2,685	292,143	144,627
238,742	-2,620	291,737	144,478
239,757	-2,646	291,537	144,340
240,772	-2,504	291,345	144,372
241,786	-2,502	291,216	144,297
242,801	-2,591	291,127	144,153
243,815	-2,484	290,936	144,150
244,830	-2,475	290,742	144,050
245,844	-2,442	290,390	143,895
246,859	-2,664	290,240	143,590
247,874	-2,450	289,967	143,652
248,888	-2,594	289,757	143,394
249,903	-2,717	289,728	143,247
250,917	-2,695	289,577	143,181
251,932	-2,629	289,422	143,156
252,947	-2,667	289,221	143,007
253,961	-2,779	288,835	142,694
254,976	-2,895	288,571	142,438
255,990	-3,113	288,434	142,146
257,005	-2,573	288,553	142,717
258,020	-0,820	289,144	144,705
259,034	0,901	289,546	146,571
260,049	1,674	289,499	147,286
261,063	1,859	289,603	147,507
262,078	2,181	289,321	147,663
263,093	2,476	289,390	147,972
264,107	2,574	289,246	147,980
265,122	2,751	289,189	148,110
266,136	2,854	288,918	148,058
267,151	2,897	288,850	148,051
268,166	2,854	288,578	147,858
269,180	3,096	288,410	147,992
270,195	2,885	288,304	147,720
271,209	2,652	288,186	147,421
272,224	2,969	287,778	147,506
273,239	2,735	287,592	147,171
274,253	2,532	287,444	146,887
275,268	2,681	287,156	146,869
276,282	2,785	286,910	146,831
277,297	2,777	286,900	146,805
278,312	2,680	286,690	146,592
279,326	2,754	286,548	146,577
280,341	2,692	286,343	146,399
281,355	2,669	286,172	146,277
282,370	2,645	285,905	146,105
283,384	2,747	285,659	146,063
284,399	2,627	285,528	145,869
285,414	2,583	285,353	145,724
286,428	2,527	285,177	145,567
287,443	2,572	285,092	145,553
288,457	2,540	284,763	145,342
289,472	2,660	284,709	145,416
290,487	2,500	284,395	145,090
291,501	2,272	284,200	144,761
292,516	2,405	283,904	144,724
293,530	2,530	283,757	144,755
294,545	2,424	283,663	144,593
295,560	2,480	283,508	144,554
296,574	2,317	283,265	144,263
297,589	2,533	282,911	144,274
298,603	2,419	282,748	144,071
299,618	2,548	282,669	144,140
300,633	2,546	282,636	144,108
301,647	2,605	282,348	144,004
302,662	2,687	282,232	144,009
303,676	2,792	281,940	143,947
304,691	2,931	281,827	144,008
305,706	2,736	281,789	143,791
306,720	2,718	281,639	143,685
307,735	2,707	281,391	143,535
308,749	2,733	281,226	143,463
309,764	2,745	281,060	143,376
310,779	2,750	280,846	143,260
311,793	2,688	280,706	143,117
312,808	2,477	280,410	142,756
313,822	2,642	280,305	142,844
314,837	2,755	280,080	142,823
315,852	2,644	279,846	142,586
316,866	2,757	279,614	142,562
317,881	2,602	279,543	142,367
318,895	2,717	279,297	142,337
319,910	2,568	279,064	142,066
320,925	2,681	278,828	142,039
321,939	2,674	278,753	141,982
322,954	2,610	278,743	141,904
323,968	2,782	278,629	141,994
324,983	2,827	278,344	141,878
325,997	2,844	278,180	141,797
327,012	2,866	277,999	141,713
328,027	2,886	277,800	141,617
329,041	2,793	277,547	141,389
330,056	2,984	277,309	141,432
331,070	2,952	277,346	141,409
332,085	2,823	277,062	141,133
333,100	2,729	276,761	140,880
334,114	2,858	276,746	140,978
335,129	2,883	276,430	140,828
336,143	2,815	276,379	140,726
337,158	2,742	276,261	140,587
338,173	2,893	276,064	140,613
339,187	2,878	275,778	140,441
340,202	2,634	275,653	140,141
341,216	2,701	275,519	140,121
342,231	2,910	275,150	140,113
343,246	2,772	275,182	139,990
344,260	2,886	274,883	139,930
345,275	2,810	274,835	139,823
346,289	2,804	274,527	139,649
347,304	2,874	274,467	139,670
348,319	3,031	274,142	139,636
349,333	2,849	274,013	139,391
350,348	2,892	273,996	139,410
351,362	2,846	273,623	139,165
352,377	2,836	273,558	139,110
353,392	2,825	273,263	138,938
354,406	2,662	273,333	138,813
355,421	191,747	1349,752	1431,033
356,435	154,834	1480,999	1431,171
