DTS Sentinel unit serial number:	SN410029Multiplexer serial number:	ORYXHardware model number:	OX2-SRSoftware version number:	ORYX F/W v4,00 Oryx Data Collector v3.7.2.0data status	okinstallation	B4 Nyhavnadifferential loss correction	single-endedforward channel	channel 2reverse channel	N/Adate	2023/12/18time	22:05:13forward acquisition time	300,00reverse acquisition time	0,00gamma	499,1914k internal	0,3124k external	0,3124temperature offset calibration	1,0000default loss term (dB/km)	0,3820temperature slope calibration	1,0000multiplexer offset coefficient	1,0000multiplexer slope coefficient	1,0000fibre end	0,00T internal ref (°C)	21,86T ext. ref 1 (°C)	7,19T ext. ref 2 (°C)	7,12length (m)	temperature (°C)	Stokes	anti-Stokes-744,400	800,000	-0,036	-0,086
-743,385	-29,456	-0,264	0,112
-742,371	-116,890	0,094	0,013
-741,356	89,171	-0,289	0,240
-740,342	31,565	-0,004	0,002
-739,327	-72,818	-0,177	-0,048
-738,312	614,374	-0,083	-0,156
-737,298	-10,803	-0,258	-0,127
-736,283	286,234	0,010	-0,014
-735,269	-30,502	-0,162	0,068
-734,254	89,005	0,013	0,011
-733,239	-39,417	-0,412	-0,160
-732,225	-163,261	0,135	0,005
-731,210	48,249	-0,074	0,051
-730,196	708,207	0,065	-0,128
-729,181	-27,311	0,168	-0,072
-728,167	-200,000	-0,036	-0,181
-727,152	350,505	0,041	-0,060
-726,137	451,518	-0,076	-0,126
-725,123	800,000	0,045	-0,109
-724,108	331,144	-0,049	-0,070
-723,094	-153,552	0,046	-0,002
-722,079	-175,416	-0,194	0,004
-721,064	41,251	0,078	-0,052
-720,050	366,193	0,045	-0,068
-719,035	-58,769	-0,026	-0,008
-718,021	137,039	-0,085	-0,083
-717,006	372,013	-0,045	0,069
-715,991	331,979	-0,075	-0,108
-714,977	-112,561	-0,058	0,008
-713,962	-122,516	-0,063	0,008
-712,948	-200,000	0,003	-0,114
-711,933	-200,000	-0,006	-0,112
-710,918	-200,000	-0,004	-0,022
-709,904	-200,000	-0,009	-0,106
-708,889	-6,944	0,062	-0,031
-707,875	-128,521	-0,127	-0,013
-706,860	-200,000	-0,020	-0,086
-705,845	-2,027	0,121	-0,063
-704,831	800,000	-0,016	-0,039
-703,816	-47,037	-0,148	-0,053
-702,802	509,055	0,010	-0,017
-701,787	-125,499	-0,047	-0,005
-700,772	800,000	0,043	-0,089
-699,758	547,104	-0,036	-0,064
-698,743	324,516	0,063	0,090
-697,729	800,000	0,040	0,110
-696,714	-36,586	0,113	-0,045
-695,699	202,137	0,121	-0,139
-694,685	-90,425	-0,206	0,044
-693,670	205,926	0,126	-0,146
-692,656	332,006	-0,080	-0,115
-691,641	608,880	0,034	-0,063
-690,627	-106,191	0,055	0,009
-689,612	133,963	0,014	-0,013
-688,597	579,152	0,035	0,064
-687,583	-78,147	-0,114	0,029
-686,568	800,000	0,009	0,023
-685,554	-97,515	0,039	0,008
-684,539	-200,000	0,018	0,066
-683,524	-89,112	0,094	-0,021
-682,510	138,351	-0,147	0,143
-681,495	-79,470	0,132	-0,033
-680,481	57,769	-0,091	-0,066
-679,466	-94,824	-0,152	0,030
-678,451	-61,561	-0,079	0,024
-677,437	-109,434	-0,073	-0,011
-676,422	229,583	-0,065	-0,079
-675,408	390,247	0,110	0,170
-674,393	-67,796	-0,049	0,014
-673,378	15,453	-0,118	-0,068
-672,364	-200,000	-0,010	-0,117
-671,349	37,399	-0,062	-0,041
-670,335	300,643	0,073	0,100
-669,320	-147,087	-0,145	0,009
-668,305	800,000	0,031	0,069
-667,291	528,203	0,030	-0,053
-666,276	14,626	-0,121	-0,070
-665,262	277,202	-0,012	-0,016
-664,247	190,152	-0,030	0,033
-663,232	-79,170	0,069	0,017
-662,218	-71,486	0,039	0,011
-661,203	-82,977	-0,065	0,015
-660,189	307,625	0,054	0,075
-659,174	338,225	-0,031	-0,045
-658,159	-200,000	0,009	0,049
-657,145	242,165	-0,071	-0,088
-656,130	29,009	0,106	0,067
-655,116	-200,000	0,010	0,100
-654,101	-5,056	0,051	0,026
-653,086	-200,000	-0,019	0,117
-652,072	79,586	0,078	0,062
-651,057	-168,385	-0,148	-0,004
-650,043	800,000	-0,034	-0,101
-649,028	24,608	-0,129	-0,079
-648,014	-114,517	0,048	0,007
-646,999	392,086	0,019	0,030
-645,984	-65,409	-0,075	0,022
-644,970	-200,000	0,003	-0,016
-643,955	94,796	-0,100	-0,085
-642,941	298,269	-0,072	-0,099
-641,926	800,000	0,042	0,100
-640,911	69,333	0,036	-0,027
-639,897	175,330	0,053	-0,058
-638,882	-133,664	-0,053	0,005
-637,868	66,335	0,082	-0,062
-636,853	343,282	-0,044	-0,064
-635,838	418,195	-0,025	-0,039
-634,824	-110,142	-0,120	0,018
-633,809	-200,000	-0,004	-0,116
-632,795	800,000	-0,046	0,125
-631,780	-130,366	-0,044	-0,004
-630,765	15,956	-0,055	0,032
-629,751	-200,000	-0,012	-0,066
-628,736	516,702	-0,070	-0,121
-627,722	-122,983	0,037	-0,004
-626,707	149,584	0,006	-0,006
-625,692	36,218	0,075	0,049
-624,678	193,419	-0,065	0,073
-623,663	-200,000	-0,000	0,080
-622,649	-200,000	0,027	0,139
-621,634	255,244	0,061	-0,078
-620,619	224,969	0,097	0,116
-619,605	-63,615	0,100	-0,030
-618,590	64,893	0,035	-0,026
-617,576	800,000	-0,031	-0,084
-616,561	51,348	0,047	0,033
-615,546	-200,000	0,013	0,059
-614,532	78,707	0,035	-0,028
-613,517	-99,585	0,090	-0,017
-612,503	232,006	-0,042	0,052
-611,488	-109,569	0,057	0,009
-610,474	-200,000	0,028	0,170
-609,459	-47,037	-0,087	0,031
-608,444	694,643	-0,026	-0,051
-607,430	184,134	-0,041	-0,046
-606,415	-200,000	-0,034	-0,145
-605,401	-200,000	-0,040	-0,161
-604,386	91,827	-0,087	-0,072
-603,371	2,754	0,093	0,050
-602,357	800,000	0,003	-0,010
-601,342	-104,211	0,047	-0,008
-600,328	-93,863	-0,102	0,021
-599,313	138,122	-0,132	-0,128
-598,298	-46,093	-0,091	-0,033
-597,284	-85,240	0,095	0,022
-596,269	376,774	0,080	0,122
-595,255	-200,000	-0,008	-0,068
-594,240	-200,000	0,027	0,111
-593,225	35,512	-0,041	-0,027
-592,211	-147,991	-0,057	0,003
-591,196	137,433	0,053	0,051
-590,182	104,215	-0,058	0,051
-589,167	-200,000	0,028	-0,101
-588,152	-10,931	-0,032	0,016
-587,138	140,610	0,115	0,112
-586,123	-32,084	-0,105	0,043
-585,109	705,896	0,013	0,025
-584,094	609,902	0,036	0,066
-583,079	800,000	0,013	0,041
-582,065	231,875	0,037	-0,045
-581,050	-200,000	0,018	-0,063
-580,036	498,640	-0,035	0,061
-579,021	-35,081	0,082	-0,033
-578,006	800,000	0,045	-0,100
-576,992	-200,000	-0,034	-0,121
-575,977	800,000	-0,027	-0,079
-574,963	261,241	0,081	0,104
-573,948	-67,923	-0,034	-0,010
-572,934	-70,562	-0,092	-0,026
-571,919	43,455	0,061	-0,041
-570,904	800,000	0,030	-0,085
-569,890	712,882	-0,030	0,059
-568,875	-63,632	0,016	-0,005
-567,861	-200,000	0,002	0,016
-566,846	-75,336	-0,052	-0,014
-565,831	-33,964	-0,104	-0,042
-564,817	-200,000	-0,010	-0,066
-563,802	-24,422	-0,014	0,006
-562,788	-200,000	-0,017	-0,093
-561,773	270,987	0,045	0,059
-560,758	-73,253	0,100	-0,027
-559,744	-200,000	-0,005	-0,041
-558,729	578,844	0,049	-0,089
-557,715	123,312	-0,039	0,036
-556,700	800,000	-0,081	0,172
-555,685	153,510	-0,087	-0,088
-554,671	800,000	-0,031	0,068
-553,656	-87,138	0,214	0,048
-552,642	43,662	0,069	0,047
-551,627	-200,000	0,010	0,086
-550,612	560,018	0,043	0,077
-549,598	-87,247	-0,081	-0,018
-548,583	-200,000	-0,007	-0,072
-547,569	62,513	0,100	-0,074
-546,554	438,696	-0,055	0,090
-545,539	290,410	0,064	-0,086
-544,525	-200,000	-0,027	-0,135
-543,510	-122,913	-0,077	-0,009
-542,496	435,268	-0,037	-0,060
-541,481	-200,000	-0,027	-0,099
-540,466	-200,000	-0,005	0,029
-539,452	-124,142	0,080	-0,009
-538,437	-200,000	-0,008	0,074
-537,423	543,741	0,094	0,166
-536,408	-81,484	-0,128	-0,031
-535,393	276,788	-0,028	0,037
-534,379	465,878	-0,080	0,132
-533,364	-60,420	0,045	-0,014
-532,350	271,560	0,038	0,050
-531,335	382,634	0,090	0,137
-530,321	800,000	-0,017	0,035
-529,306	-31,086	-0,087	0,036
-528,291	42,626	-0,150	-0,101
-527,277	800,000	-0,016	0,035
-526,262	-200,000	0,001	-0,073
-525,248	453,671	-0,037	-0,061
-524,233	800,000	0,009	0,024
-523,218	-200,000	-0,015	-0,064
-522,204	17,828	-0,079	-0,046
-521,189	-78,245	-0,120	0,030
-520,175	87,483	-0,093	0,076
-519,160	396,603	-0,053	0,083
-518,145	-114,246	-0,050	0,007
-517,131	-186,267	0,126	-0,001
-516,116	139,589	0,052	-0,051
-515,102	-70,877	-0,012	0,003
-514,087	354,011	-0,035	-0,052
-513,072	-200,000	-0,023	-0,138
-512,058	-200,000	-0,014	-0,154
-511,043	386,716	-0,039	-0,060
-510,029	505,904	0,046	-0,080
-509,014	-24,594	0,144	-0,063
-507,999	800,000	-0,041	-0,110
-506,985	11,129	-0,119	-0,067
-505,970	125,936	-0,069	0,065
-504,956	-200,000	-0,001	-0,008
-503,941	-200,000	-0,003	0,110
-502,926	19,223	0,125	-0,074
-501,912	97,505	-0,070	-0,059
-500,897	800,000	-0,022	-0,062
-499,883	479,523	0,026	0,043
-498,868	-58,316	-0,138	-0,044
-497,853	203,419	0,041	0,047
-496,839	110,965	0,039	0,034
-495,824	-200,000	0,032	0,118
-494,810	50,972	-0,087	0,061
-493,795	44,572	0,022	-0,015
-492,781	800,000	-0,038	-0,090
-491,766	-41,333	0,104	0,039
-490,751	-68,328	0,152	-0,043
-489,737	-200,000	-0,015	-0,051
-488,722	-21,934	0,174	-0,078
-487,708	-200,000	0,006	-0,094
-486,693	372,880	-0,056	0,084
-485,678	-200,000	0,007	0,073
-484,664	20,495	-0,114	0,068
-483,649	-200,000	-0,020	0,119
-482,635	-59,532	-0,092	-0,029
-481,620	-50,533	0,059	-0,021
-480,605	-200,000	-0,001	-0,010
-479,591	350,936	0,037	0,054
-478,576	-69,777	0,071	-0,020
-477,562	541,784	0,030	0,054
-476,547	119,042	-0,053	0,048
-475,532	49,311	-0,069	-0,047
-474,518	-200,000	0,013	0,079
-473,503	-17,260	0,139	-0,064
-472,489	-49,926	0,133	0,046
-471,474	-200,000	-0,029	-0,147
-470,459	-200,000	0,004	0,085
-469,445	-3,430	0,063	-0,032
-468,430	71,071	-0,122	-0,093
-467,416	-62,287	-0,023	-0,007
-466,401	268,247	0,043	-0,056
-465,386	30,952	0,126	-0,079
-464,372	-200,000	-0,020	-0,114
-463,357	-20,570	-0,041	0,019
-462,343	458,096	-0,029	-0,048
-461,328	-200,000	0,031	-0,172
-460,313	93,874	0,018	-0,015
-459,299	58,595	0,021	-0,015
-458,284	-200,000	0,004	0,072
-457,270	-200,000	-0,009	0,100
-456,255	-140,581	-0,078	-0,006
-455,241	123,273	-0,037	-0,034
-454,226	26,386	0,111	-0,068
-453,211	800,000	0,037	0,113
-452,197	800,000	0,042	0,131
-451,182	-122,368	0,076	-0,009
-450,168	743,170	0,028	-0,056
-449,153	-200,000	0,020	0,127
-448,138	800,000	0,029	0,060
-447,124	-33,827	-0,031	-0,013
-446,109	-42,838	0,025	0,009
-445,095	22,930	-0,133	-0,080
-444,080	329,156	-0,070	0,100
-443,065	-200,000	0,003	-0,034
-442,051	203,810	0,050	-0,057
-441,036	-6,616	-0,055	0,028
-440,022	421,701	0,053	0,085
-439,007	-200,000	-0,003	0,031
-437,992	-48,415	-0,042	-0,015
-436,978	-200,000	-0,017	0,077
-435,963	-200,000	0,011	0,051
-434,949	-200,000	-0,017	0,110
-433,934	500,697	0,102	-0,173
-432,919	800,000	-0,044	-0,093
-431,905	142,958	-0,085	0,083
-430,890	78,772	0,134	0,105
-429,876	800,000	-0,015	0,036
-428,861	-67,566	0,092	0,026
-427,846	86,877	-0,027	-0,022
-426,832	800,000	0,033	0,098
-425,817	198,359	-0,060	-0,068
-424,803	-200,000	0,012	0,079
-423,788	-200,000	0,004	-0,018
-422,773	-200,000	-0,000	-0,102
-421,759	19,830	0,036	-0,022
-420,744	800,000	-0,014	0,031
-419,730	251,776	-0,029	0,036
-418,715	218,735	-0,063	0,074
-417,701	52,090	-0,145	0,101
-416,686	65,489	0,086	0,064
-415,671	-47,605	0,062	-0,022
-414,657	8,477	0,063	0,035
-413,642	41,963	0,097	-0,065
-412,628	580,505	0,033	-0,060
-411,613	-200,000	-0,016	-0,213
-410,598	104,353	-0,105	-0,091
-409,584	-200,000	0,005	0,104
-408,569	-35,391	0,149	-0,059
-407,555	-200,000	-0,009	0,060
-406,540	-200,000	-0,003	0,051
-405,525	-200,000	0,021	0,083
-404,511	-200,000	-0,007	-0,055
-403,496	57,890	0,030	0,021
-402,482	662,143	0,043	0,082
-401,467	800,000	0,031	0,072
-400,452	-200,000	-0,013	0,075
-399,438	350,908	-0,060	-0,088
-398,423	-45,973	0,165	-0,059
-397,409	-200,000	-0,012	-0,101
-396,394	800,000	0,027	-0,076
-395,379	95,073	-0,127	-0,106
-394,365	800,000	-0,028	-0,066
-393,350	533,832	0,044	0,076
-392,336	261,266	-0,043	-0,055
-391,321	-106,955	0,164	0,026
-390,306	100,876	-0,128	-0,109
-389,292	-200,000	0,013	0,078
-388,277	800,000	0,027	-0,077
-387,263	-200,000	0,028	-0,099
-386,248	59,935	-0,073	0,053
-385,233	-74,076	0,086	0,023
-384,219	-200,000	-0,012	0,056
-383,204	800,000	0,023	0,070
-382,190	-55,473	-0,059	0,019
-381,175	-63,460	0,201	0,060
-380,160	262,696	0,047	-0,060
-379,146	279,141	0,029	0,038
-378,131	38,374	0,053	-0,035
-377,117	28,882	0,084	-0,052
-376,102	-200,000	0,003	0,069
-375,088	633,330	0,020	-0,037
-374,073	-200,000	0,005	-0,077
-373,058	-200,000	-0,013	-0,134
-372,044	14,829	0,049	0,028
-371,029	-200,000	0,024	0,099
-370,015	585,488	-0,048	0,087
-369,000	-200,000	-0,002	0,042
-367,985	800,000	0,059	-0,171
-366,971	110,268	-0,051	0,045
-365,956	-190,675	0,051	0,000
-364,942	135,195	0,060	0,057
-363,927	-105,049	-0,052	0,009
-362,912	800,000	0,040	-0,114
-361,898	-200,000	-0,017	0,080
-360,883	-200,000	0,013	0,076
-359,869	-200,000	-0,017	0,078
-358,854	-150,739	-0,086	0,005
-357,839	17,222	0,070	0,041
-356,825	-165,806	-0,107	0,003
-355,810	12,232	-0,098	-0,055
-354,796	-187,379	-0,125	-0,001
-353,781	800,000	0,003	-0,007
-352,766	800,000	-0,029	0,077
-351,752	800,000	-0,010	0,031
-350,737	-200,000	0,028	0,152
-349,723	321,499	-0,035	0,049
-348,708	98,663	0,050	-0,043
-347,693	-200,000	0,004	0,144
-346,679	-29,940	0,125	0,052
-345,664	157,008	-0,056	-0,057
-344,650	-200,000	0,063	0,000
-343,635	800,000	-0,047	0,111
-342,620	12,912	-0,013	0,007
-341,606	134,236	0,022	-0,021
-340,591	-6,090	0,062	-0,031
-339,577	800,000	0,034	0,095
-338,562	-143,871	-0,168	0,011
-337,548	800,000	0,021	0,044
-336,533	344,061	0,059	-0,085
-335,518	157,793	0,064	-0,065
-334,504	-114,541	0,127	-0,018
-333,489	201,433	0,041	0,047
-332,475	800,000	-0,021	0,056
-331,460	332,805	0,013	-0,018
-330,445	-200,000	0,014	0,131
-329,431	241,303	0,094	-0,115
-328,416	-22,509	-0,122	0,054
-327,402	49,684	-0,047	0,032
-326,387	160,219	-0,055	0,056
-325,372	605,434	0,041	0,075
-324,358	-200,000	0,006	0,090
-323,343	-200,000	-0,020	-0,129
-322,329	-57,913	0,087	-0,028
-321,314	-200,000	-0,017	0,158
-320,299	144,473	0,078	0,077
-319,285	-200,000	-0,001	0,060
-318,270	123,753	-0,116	-0,107
-317,256	-200,000	-0,023	0,136
-316,241	-109,511	0,041	-0,006
-315,226	106,036	-0,060	0,052
-314,212	-117,391	-0,161	0,021
-313,197	381,207	0,050	0,075
-312,183	-74,659	0,061	0,016
-311,168	-16,926	-0,161	0,074
-310,153	140,200	0,074	-0,072
-309,139	87,824	-0,073	-0,059
-308,124	416,667	-0,024	-0,038
-307,110	327,355	0,055	-0,078
-306,095	21,500	0,086	-0,051
-305,080	-23,185	-0,184	0,081
-304,066	-32,150	-0,048	0,020
-303,051	-125,087	-0,040	-0,004
-302,037	-55,539	-0,094	0,031
-301,022	-69,891	-0,120	0,033
-300,008	-83,407	0,210	0,049
-298,993	314,380	0,078	-0,108
-297,978	-127,453	0,015	-0,002
-296,964	236,196	0,054	0,066
-295,949	382,536	-0,050	0,075
-294,935	-30,201	0,102	0,042
-293,920	-110,993	0,005	0,001
-292,905	-72,347	-0,107	-0,029
-291,891	-99,791	-0,115	0,021
-290,876	800,000	-0,025	-0,081
-289,862	112,720	-0,133	0,118
-288,847	-73,375	-0,014	0,004
-287,832	-200,000	0,044	-0,159
-286,818	-200,000	-0,033	-0,111
-285,803	348,562	-0,037	0,054
-284,789	-30,209	0,149	-0,062
-283,774	-200,000	-0,016	-0,054
-282,759	198,102	-0,070	0,078
-281,745	-152,482	0,029	0,001
-280,730	134,265	0,042	-0,040
-279,716	-200,000	0,003	-0,036
-278,701	214,859	0,063	-0,074
-277,686	-61,353	0,106	0,032
-276,672	-102,116	0,081	0,014
-275,657	257,411	-0,090	-0,113
-274,643	56,267	-0,118	-0,084
-273,628	-73,904	-0,147	-0,039
-272,613	-200,000	0,000	0,047
-271,599	-27,509	0,101	0,043
-270,584	119,496	-0,014	-0,013
-269,570	-200,000	-0,003	0,023
-268,555	21,833	-0,078	0,046
-267,540	-62,080	0,137	-0,042
-266,526	60,856	0,097	0,070
-265,511	-115,435	0,053	-0,007
-264,497	197,868	-0,110	-0,123
-263,482	216,211	0,053	0,061
-262,467	463,636	-0,030	0,048
-261,453	531,589	-0,024	-0,042
-260,438	-20,725	-0,191	0,085
-259,424	-134,168	0,065	-0,006
-258,409	-200,000	0,010	-0,040
-257,395	800,000	-0,051	-0,144
-256,380	800,000	-0,017	-0,039
-255,365	-25,354	0,036	-0,016
-254,351	-200,000	0,008	-0,065
-253,336	-109,168	0,125	-0,019
-252,322	132,298	-0,067	0,063
-251,307	245,447	-0,021	0,026
-250,292	-20,451	0,139	0,062
-249,278	-22,068	0,091	-0,040
-248,263	497,086	-0,063	0,106
-247,249	156,800	-0,072	-0,073
-246,234	-55,655	-0,016	0,005
-245,219	-112,336	0,016	0,002
-244,205	-200,000	-0,038	-0,161
-243,190	278,829	-0,038	0,050
-242,176	-89,388	-0,129	0,028
-241,161	-104,575	0,131	-0,022
-240,146	-95,434	0,098	0,019
-239,132	653,905	-0,057	0,107
-238,117	-200,000	-0,005	0,076
-237,103	193,044	-0,008	-0,009
-236,088	775,647	0,042	-0,084
-235,073	465,122	0,046	0,076
-234,059	494,183	-0,027	0,045
-233,044	-64,467	0,030	0,009
-232,030	-0,606	0,117	0,061
-231,015	-52,896	0,057	0,019
-230,000	237,664	-0,064	-0,078
-228,986	120,607	-0,114	-0,104
-227,971	166,410	0,078	-0,081
-226,957	-200,000	0,002	-0,044
-225,942	313,255	-0,057	0,079
-224,927	0,556	-0,061	-0,032
-223,913	61,050	0,045	0,033
-222,898	800,000	-0,052	-0,107
-221,884	-200,000	-0,028	0,115
-220,869	-163,206	0,032	-0,001
-219,855	90,848	0,120	0,098
-218,840	-148,956	-0,097	-0,006
-217,825	121,905	0,026	-0,023
-216,811	-200,000	-0,024	0,111
-215,796	-200,000	0,011	-0,079
-214,782	-200,000	-0,023	-0,178
-213,767	-200,000	0,051	0,235
-212,752	-200,000	0,021	0,112
-211,738	592,779	0,054	0,097
-210,723	-55,655	-0,135	0,044
-209,709	-82,890	-0,083	0,019
-208,694	-25,221	-0,073	-0,031
-207,679	800,000	0,023	-0,060
-206,665	-129,416	0,129	0,013
-205,650	800,000	0,011	-0,032
-204,636	-200,000	0,015	0,051
-203,621	238,085	-0,058	0,070
-202,606	-200,000	-0,021	0,100
-201,592	-9,208	-0,003	-0,002
-200,577	202,130	-0,046	-0,052
-199,563	343,739	0,026	0,038
-198,548	32,066	0,106	-0,067
-197,533	105,243	-0,040	0,034
-196,519	-105,272	0,096	-0,016
-195,504	-48,961	-0,065	0,022
-194,490	510,392	-0,033	0,055
-193,475	-200,000	-0,013	0,059
-192,460	-200,000	0,009	-0,174
-191,446	-139,888	-0,097	0,007
-190,431	47,702	0,059	0,040
-189,417	800,000	-0,058	0,183
-188,402	-33,979	-0,045	-0,018
-187,387	-19,885	-0,042	0,019
-186,373	81,576	-0,074	-0,058
-185,358	461,987	0,056	-0,091
-184,344	-116,228	0,036	-0,005
-183,329	800,000	0,066	0,137
-182,315	14,328	-0,103	0,058
-181,300	-200,000	0,031	-0,179
-180,285	-200,000	0,013	-0,080
-179,271	-200,000	-0,015	-0,092
-178,256	71,296	0,028	0,021
-177,242	229,883	0,087	0,104
-176,227	-84,305	0,021	0,005
-175,212	97,289	-0,086	0,072
-174,198	-200,000	0,005	0,074
-173,183	111,397	-0,069	-0,060
-172,169	-200,000	0,011	-0,085
-171,154	-200,000	-0,003	-0,098
-170,139	-112,965	0,117	0,017
-169,125	164,255	0,016	0,017
-168,110	16,532	-0,060	-0,034
-167,096	478,552	-0,062	-0,103
-166,081	13,388	0,054	-0,030
-165,066	-102,391	-0,054	-0,009
-164,052	-200,000	-0,002	-0,110
-163,037	101,296	0,084	-0,071
-162,023	18,109	-0,025	0,015
-161,008	47,501	0,080	0,054
-159,993	800,000	-0,014	0,038
-158,979	705,548	-0,025	-0,048
-157,964	-48,942	0,067	0,023
-156,950	-200,000	-0,021	-0,117
-155,935	-105,355	-0,087	0,014
-154,920	800,000	0,027	-0,072
-153,906	-87,079	0,021	-0,005
-152,891	-200,000	-0,007	0,034
-151,877	331,098	0,059	-0,083
-150,862	-200,000	-0,021	-0,120
-149,847	665,750	-0,031	-0,059
-148,833	-30,787	0,100	0,041
-147,818	117,208	0,083	-0,074
-146,804	800,000	0,030	-0,085
-145,789	-200,000	-0,020	0,077
-144,775	800,000	-0,030	0,092
-143,760	-200,000	-0,005	0,040
-142,745	-118,186	0,128	0,016
-141,731	484,085	-0,059	0,097
-140,716	800,000	0,035	-0,076
-139,702	800,000	0,099	0,206
-138,687	-85,883	-0,097	-0,022
-137,672	-200,000	-0,010	-0,046
-136,658	103,696	0,012	0,010
-135,643	-63,050	0,058	-0,017
-134,629	237,668	0,046	-0,056
-133,614	800,000	0,009	0,020
-132,599	-200,000	0,023	0,091
-131,585	-93,883	0,089	0,018
-130,570	438,367	0,031	-0,049
-129,556	-35,511	0,090	-0,035
-128,541	-200,000	0,000	-0,033
-127,526	-64,789	-0,145	0,042
-126,512	-52,985	0,128	-0,043
-125,497	-200,000	-0,023	0,158
-124,483	507,620	-0,048	0,081
-123,468	800,000	0,068	-0,159
-122,453	-78,057	0,167	-0,041
-121,439	46,235	-0,102	0,068
-120,424	800,000	0,030	-0,084
-119,410	36,881	-0,086	-0,055
-118,395	-200,000	-0,039	0,150
-117,380	0,472	0,062	-0,032
-116,366	-76,842	0,045	0,011
-115,351	800,000	-0,003	0,009
-114,337	-121,430	-0,121	0,014
-113,322	-75,496	-0,042	-0,011
-112,307	-200,000	0,019	0,081
-111,293	-200,000	0,015	-0,076
-110,278	-56,415	-0,056	-0,018
-109,264	-48,703	-0,100	0,035
-108,249	44,812	-0,067	-0,045
-107,234	172,968	-0,064	0,067
-106,220	-200,000	0,018	-0,088
-105,205	-196,506	0,049	-0,000
-104,191	-200,000	-0,003	0,012
-103,176	800,000	0,026	0,073
-102,162	-58,974	0,112	0,035
-101,147	-200,000	-0,001	0,042
-100,132	800,000	0,067	-0,150
-99,118	187,919	-0,045	0,048
-98,103	-200,000	-0,004	-0,028
-97,089	-200,000	-0,011	-0,168
-96,074	-200,000	-0,015	0,066
-95,059	219,215	-0,031	-0,036
-94,045	438,516	0,042	0,066
-93,030	240,065	-0,065	0,079
-92,016	-71,017	-0,117	0,032
-91,001	30,703	0,049	-0,030
-89,986	778,612	0,055	-0,111
-88,972	3,723	0,056	0,030
-87,957	544,904	-0,029	0,051
-86,943	439,355	-0,040	0,064
-85,928	364,559	-0,087	-0,127
-84,913	-82,824	-0,070	-0,016
-83,899	800,000	0,029	0,078
-82,884	800,000	0,058	0,168
-81,870	375,415	0,086	0,128
-80,855	11,911	-0,025	-0,014
-79,840	-7,641	-0,046	0,023
-78,826	-19,265	-0,094	0,042
-77,811	4,936	-0,110	-0,059
-76,797	106,107	-0,055	-0,047
-75,782	163,232	0,046	-0,047
-74,767	-200,000	0,031	-0,194
-73,753	99,317	-0,048	-0,041
-72,738	-31,212	-0,041	-0,017
-71,724	-200,000	-0,002	0,040
-70,709	21,226	-0,008	0,005
-69,694	-200,000	-0,008	-0,030
-68,680	800,000	-0,013	0,032
-67,665	-200,000	-0,018	-0,105
-66,651	-200,000	0,009	0,082
-65,636	155,535	0,084	-0,084
-64,622	-200,000	-0,005	0,146
-63,607	-157,023	-0,073	0,003
-62,592	25,801	0,105	0,063
-61,578	134,664	-0,067	-0,063
-60,563	-36,670	-0,109	-0,042
-59,549	10,349	0,065	0,036
-58,534	-149,661	-1,437	-0,081
-57,519	391,405	-0,975	-1,474
-56,505	-200,000	-0,865	-4,411
-55,490	49,168	0,467	-0,318
-54,476	800,000	4,923	11,811
-53,461	-200,000	14,084	254,101
-52,446	-200,000	694,866	2262,973
-51,432	598,703	1624,753	2934,831
-50,417	117,581	1633,273	1457,644
-49,403	73,632	1287,222	977,037
-48,388	37,406	1023,604	656,821
-47,373	23,922	981,913	585,714
-46,359	23,179	971,325	576,937
-45,344	22,135	967,112	571,001
-44,330	22,059	965,658	569,873
-43,315	21,960	964,234	568,687
-42,300	21,904	963,224	567,888
-41,286	21,901	962,127	567,209
-40,271	21,908	961,055	566,576
-39,257	21,926	960,223	566,121
-38,242	21,908	959,368	565,537
-37,227	21,836	958,520	564,781
-36,213	21,843	957,725	564,314
-35,198	21,835	956,924	563,793
-34,184	21,875	956,219	563,485
-33,169	21,887	955,123	562,855
-32,154	21,845	954,316	562,222
-31,140	21,879	953,403	561,771
-30,125	21,955	952,577	561,508
-29,111	21,949	951,703	560,950
-28,096	21,939	951,105	560,543
-27,082	21,889	950,315	559,895
-26,067	21,954	949,664	559,696
-25,052	21,890	948,923	559,034
-24,038	21,955	948,150	558,762
-23,023	21,857	947,852	558,253
-22,009	21,926	947,029	557,967
-20,994	21,913	946,432	557,550
-19,979	21,896	945,773	557,087
-18,965	21,891	944,949	556,563
-17,950	21,956	944,464	556,461
-16,936	21,815	944,134	555,795
-15,921	21,840	943,124	555,258
-14,906	21,695	942,625	554,480
-13,892	21,754	941,656	554,077
-12,877	21,751	941,354	553,869
-11,863	21,756	940,384	553,290
-10,848	21,758	940,083	553,098
-9,833	21,856	939,509	553,049
-8,819	21,874	939,058	552,820
-7,804	21,754	938,458	552,062
-6,790	21,807	937,710	551,768
-5,775	21,810	937,097	551,396
-4,760	21,769	936,350	550,806
-3,746	21,792	935,698	550,473
-2,731	21,666	935,155	549,733
-1,717	21,597	934,341	549,016
-0,702	21,650	933,775	548,828
0,313	21,440	933,045	548,564
1,327	23,942	930,659	554,978
2,342	31,574	808,871	503,041
3,356	26,272	509,469	307,755
4,371	1,628	374,522	194,798
5,386	-1,310	357,421	182,274
6,400	-2,328	351,730	178,122
7,415	-2,700	348,776	176,163
8,429	-2,838	347,469	175,322
9,444	-2,905	346,531	174,753
10,459	-2,865	345,874	174,454
11,473	-2,815	345,197	174,156
12,488	-2,901	344,658	173,767
13,502	-2,907	344,072	173,448
14,517	-2,896	343,586	173,202
15,531	-2,856	343,104	172,990
16,546	-2,813	342,709	172,825
17,561	-2,856	342,191	172,499
18,575	-2,729	341,916	172,494
19,590	-2,930	341,571	172,068
20,604	-2,728	341,083	172,044
21,619	-2,857	340,789	171,729
22,634	-2,788	340,478	171,639
23,648	-2,902	340,052	171,275
24,663	-2,864	339,807	171,181
25,677	-2,708	339,379	171,132
26,692	-2,745	339,114	170,939
27,707	-2,811	338,914	170,747
28,721	-2,734	338,344	170,534
29,736	-2,799	338,134	170,337
30,750	-2,789	337,939	170,235
31,765	-2,721	337,536	170,097
32,780	-2,773	337,399	169,952
33,794	-2,776	337,136	169,801
34,809	-2,636	336,685	169,720
35,823	-2,727	336,362	169,437
36,838	-2,780	336,067	169,213
37,853	-2,797	335,973	169,130
38,867	-2,789	335,664	168,969
39,882	-2,838	335,469	168,800
40,896	-2,920	335,178	168,543
41,911	-2,627	334,728	168,639
42,926	-2,908	334,569	168,220
43,940	-2,803	334,266	168,174
44,955	-2,670	333,856	168,105
45,969	-2,701	333,685	167,968
46,984	-2,890	333,763	167,776
47,999	-2,709	333,261	167,717
49,013	-2,868	333,043	167,410
50,028	-2,924	332,843	167,230
51,042	-2,818	332,415	167,121
52,057	-2,958	332,293	166,885
53,071	-2,980	331,982	166,690
54,086	-2,979	331,679	166,524
55,101	-2,781	331,468	166,627
56,115	-2,740	331,269	166,560
57,130	-2,891	330,976	166,225
58,144	-2,868	330,790	166,143
59,159	-2,619	330,347	166,189
60,174	-2,776	330,029	165,836
61,188	-2,827	329,903	165,701
62,203	-2,809	329,591	165,549
63,217	-2,725	329,310	165,488
64,232	-2,758	329,109	165,335
65,247	-2,646	328,891	165,337
66,261	-2,733	328,593	165,074
67,276	-2,672	328,272	164,967
68,290	-2,640	328,036	164,870
69,305	-2,969	327,837	164,385
70,320	-2,654	327,510	164,560
71,334	-2,748	327,388	164,379
72,349	-2,842	327,070	164,099
73,363	-2,691	326,773	164,104
74,378	-2,730	326,540	163,929
75,393	-2,827	326,278	163,675
76,407	-2,582	325,910	163,749
77,422	-2,786	325,851	163,478
78,436	-2,733	325,564	163,378
79,451	-2,717	325,322	163,259
80,466	-2,815	325,118	163,033
81,480	-2,569	324,762	163,114
82,495	-2,841	324,600	162,715
83,509	-2,724	324,373	162,717
84,524	-2,730	324,279	162,648
85,539	-2,783	323,872	162,372
86,553	-2,680	323,489	162,280
87,568	-2,744	323,454	162,176
88,582	-2,644	323,174	162,132
89,597	-2,758	322,988	161,898
90,611	-2,903	322,649	161,554
91,626	-2,769	322,483	161,605
92,641	-2,765	322,226	161,466
93,655	-2,779	321,987	161,316
94,670	-2,632	321,637	161,288
95,684	-2,661	321,419	161,132
96,699	-2,819	321,167	160,818
97,714	-2,781	321,081	160,802
98,728	-2,798	320,830	160,644
99,743	-2,725	320,554	160,571
100,757	-2,861	320,400	160,330
101,772	-2,802	320,139	160,251
102,787	-2,672	319,850	160,233
103,801	-2,716	319,641	160,067
104,816	-2,688	319,355	159,939
105,830	-2,797	319,117	159,687
106,845	-2,790	319,059	159,652
107,860	-2,884	318,728	159,370
108,874	-2,790	318,477	159,332
109,889	-2,680	318,069	159,233
110,903	-2,731	318,050	159,154
111,918	-2,850	317,867	158,919
112,933	-2,773	317,472	158,791
113,947	-2,722	317,532	158,861
114,962	-2,670	317,132	158,704
115,976	-2,693	316,757	158,477
116,991	-2,623	316,559	158,440
118,006	-2,673	316,423	158,304
119,020	-2,631	316,197	158,222
120,035	-2,711	316,011	158,028
121,049	-2,638	315,866	158,021
122,064	-2,691	315,602	157,816
123,079	-2,749	315,390	157,634
124,093	-2,770	315,111	157,459
125,108	-2,669	314,870	157,432
126,122	-2,823	314,714	157,175
127,137	-2,799	314,414	157,037
128,151	-2,673	314,065	156,984
129,166	-2,822	314,001	156,778
130,181	-2,717	313,758	156,755
131,195	-2,743	313,490	156,580
132,210	-2,817	313,276	156,380
133,224	-2,827	313,192	156,314
134,239	-2,786	312,778	156,136
135,254	-2,788	312,552	156,007
136,268	-2,791	312,332	155,880
137,283	-2,747	312,072	155,784
138,297	-2,867	311,828	155,520
139,312	-2,860	311,787	155,493
140,327	-2,796	311,356	155,332
141,341	-2,671	311,070	155,309
142,356	-2,700	310,908	155,183
143,370	-2,643	310,829	155,190
144,385	-2,609	310,702	155,150
145,400	-2,551	310,276	154,984
146,414	-2,724	310,155	154,726
147,429	-2,653	309,827	154,624
148,443	-2,784	309,822	154,469
149,458	-2,757	309,607	154,378
150,473	-2,648	309,243	154,296
151,487	-2,681	309,072	154,163
152,502	-2,739	308,909	154,006
153,516	-2,687	308,691	153,939
154,531	-2,604	308,407	153,870
155,546	-2,632	308,176	153,713
156,560	-2,689	307,978	153,540
157,575	-2,684	307,786	153,436
158,589	-2,854	307,551	153,127
159,604	-2,655	307,363	153,229
160,619	-2,551	306,984	153,134
161,633	-2,611	306,893	153,013
162,648	-2,725	306,832	152,849
163,662	-2,619	306,586	152,824
164,677	-2,591	306,401	152,748
165,692	-2,512	306,094	152,662
166,706	-2,683	305,893	152,371
167,721	-2,453	305,730	152,515
168,735	-2,628	305,525	152,218
169,750	-2,601	305,365	152,152
170,764	-2,700	305,249	151,978
171,779	-2,806	305,129	151,794
172,794	-2,589	304,866	151,876
173,808	-2,577	304,589	151,736
174,823	-2,743	304,425	151,470
175,837	-2,746	304,200	151,341
176,852	-2,736	304,023	151,250
177,867	-2,567	303,612	151,206
178,881	-2,716	303,542	151,004
179,896	-2,819	303,513	150,870
180,910	-2,506	303,079	150,964
181,925	-2,735	303,010	150,679
182,940	-2,556	302,746	150,718
183,954	-2,555	302,429	150,549
184,969	-2,578	302,235	150,415
185,983	-2,684	302,125	150,239
186,998	-2,608	301,911	150,196
188,013	-2,478	301,759	150,241
189,027	-2,562	301,567	150,045
190,042	-2,672	301,332	149,802
191,056	-2,753	301,239	149,660
192,071	-2,577	300,835	149,626
193,086	-2,810	300,861	149,387
194,100	-2,576	300,430	149,399
195,115	-2,688	300,332	149,222
196,129	-2,610	300,081	149,164
197,144	-2,613	299,818	149,017
198,159	-2,571	299,568	148,922
199,173	-2,580	299,289	148,761
200,188	-2,585	299,129	148,663
201,202	-2,635	298,930	148,500
202,217	-2,634	298,732	148,390
203,232	-2,587	298,506	148,311
204,246	-2,673	298,370	148,144
205,261	-2,765	298,114	147,911
206,275	-2,811	297,945	147,767
207,290	-2,525	297,734	147,938
208,304	-2,409	297,507	147,928
209,319	-2,600	297,393	147,667
210,334	-2,570	297,236	147,606
211,348	-2,489	296,806	147,460
212,363	-2,625	296,717	147,266
213,377	-2,585	296,544	147,207
214,392	-2,669	296,309	146,993
215,407	-2,546	296,195	147,046
216,421	-2,639	295,971	146,829
217,436	-2,761	295,860	146,639
218,450	-2,591	295,589	146,662
219,465	-2,805	295,410	146,345
220,480	-2,488	295,142	146,516
221,494	-2,675	295,065	146,279
222,509	-2,604	294,916	146,263
223,523	-2,499	294,655	146,225
224,538	-2,471	294,395	146,111
225,553	-2,538	294,265	145,967
226,567	-2,570	294,154	145,867
227,582	-2,458	293,919	145,848
228,596	-2,591	293,780	145,634
229,611	-2,751	293,598	145,372
230,626	-2,488	293,287	145,466
231,640	-2,702	293,087	145,141
232,655	-2,699	292,820	145,000
233,669	-2,768	292,621	144,820
234,684	-2,571	292,421	144,903
235,699	-2,479	292,220	144,881
236,713	-2,627	292,181	144,703
237,728	-2,739	291,946	144,462
238,742	-2,746	291,818	144,380
239,757	-2,538	291,542	144,435
240,772	-2,488	291,317	144,360
241,786	-2,630	291,168	144,133
242,801	-2,691	290,962	143,959
243,815	-2,735	290,913	143,878
244,830	-2,576	290,642	143,887
245,844	-2,546	290,385	143,777
246,859	-2,589	290,121	143,592
247,874	-2,719	290,046	143,414
248,888	-2,660	289,838	143,356
249,903	-2,639	289,750	143,321
250,917	-2,710	289,621	143,175
251,932	-2,684	289,433	143,094
252,947	-2,774	289,133	142,846
253,961	-2,801	288,817	142,650
254,976	-2,814	288,517	142,477
255,990	-2,985	288,300	142,190
257,005	-2,508	288,369	142,675
258,020	-0,852	289,043	144,609
259,034	0,829	289,485	146,456
260,049	1,329	289,551	146,963
261,063	1,861	289,473	147,428
262,078	2,021	289,355	147,511
263,093	2,279	289,311	147,726
264,107	2,545	289,228	147,929
265,122	2,660	289,147	147,986
266,136	2,699	288,898	147,883
267,151	2,961	288,706	148,025
268,166	3,028	288,585	148,015
269,180	2,990	288,390	147,865
270,195	2,819	288,191	147,584
271,209	2,815	287,981	147,460
272,224	2,627	287,932	147,240
273,239	2,864	287,598	147,284
274,253	2,734	287,346	147,017
275,268	2,831	286,981	146,910
276,282	2,596	287,011	146,686
277,297	2,633	286,729	146,566
278,312	2,617	286,668	146,505
279,326	2,554	286,430	146,310
280,341	2,701	286,151	146,295
281,355	2,701	285,997	146,204
282,370	2,585	285,868	146,014
283,384	2,633	285,657	145,939
284,399	2,584	285,490	145,794
285,414	2,590	285,226	145,652
286,428	2,436	285,115	145,435
287,443	2,630	285,036	145,567
288,457	2,554	284,663	145,290
289,472	2,486	284,522	145,141
290,487	2,535	284,259	145,041
291,501	2,440	284,119	144,866
292,516	2,568	283,749	144,786
293,530	2,492	283,695	144,673
294,545	2,442	283,582	144,555
295,560	2,479	283,312	144,440
296,574	2,325	283,120	144,183
297,589	2,326	282,969	144,094
298,603	2,164	282,857	143,871
299,618	2,311	282,666	143,900
300,633	2,475	282,514	143,965
301,647	2,636	282,272	143,981
302,662	2,574	282,078	143,810
303,676	2,606	282,079	143,828
304,691	2,753	281,759	143,791
305,706	2,769	281,651	143,738
306,720	2,593	281,534	143,500
307,735	2,708	281,400	143,527
308,749	2,733	281,059	143,364
309,764	2,570	280,921	143,127
310,779	2,526	280,781	143,002
311,793	2,592	280,585	142,952
312,808	2,713	280,282	142,897
313,822	2,709	280,135	142,806
314,837	2,635	279,935	142,623
315,852	2,684	279,795	142,584
316,866	2,763	279,576	142,534
317,881	2,508	279,418	142,202
318,895	2,588	279,144	142,125
319,910	2,564	278,982	142,007
320,925	2,592	278,794	141,925
321,939	2,622	278,817	141,952
322,954	2,623	278,674	141,867
323,968	2,822	278,346	141,873
324,983	2,799	278,205	141,767
325,997	2,762	277,985	141,608
327,012	2,881	277,884	141,654
328,027	2,916	277,706	141,583
329,041	2,737	277,517	141,308
330,056	2,669	277,454	141,201
331,070	2,768	277,141	141,121
332,085	2,725	277,034	141,013
333,100	2,886	276,781	141,021
334,114	2,928	276,486	140,897
335,129	2,739	276,393	140,663
336,143	2,796	276,174	140,591
337,158	2,875	276,045	140,585
338,173	2,732	275,903	140,369
339,187	2,612	275,850	140,219
340,202	2,801	275,441	140,173
341,216	2,748	275,388	140,084
342,231	2,600	275,245	139,863
343,246	2,512	274,982	139,637
344,260	2,780	274,659	139,706
345,275	2,835	274,708	139,768
346,289	2,856	274,489	139,664
347,304	2,964	274,321	139,665
348,319	2,841	274,128	139,442
349,333	2,982	273,853	139,417
350,348	2,731	273,832	139,166
351,362	2,659	273,725	139,034
352,377	2,827	273,465	139,042
353,392	3,047	273,214	139,102
354,406	2,759	273,214	138,828
355,421	192,446	1347,981	1431,324
356,435	155,435	1479,021	1431,461
