DTS Sentinel unit serial number:	SN410029Multiplexer serial number:	ORYXHardware model number:	OX2-SRSoftware version number:	ORYX F/W v4,00 Oryx Data Collector v3.7.2.0data status	okinstallation	B4 Nyhavnadifferential loss correction	single-endedforward channel	channel 2reverse channel	N/Adate	2023/12/16time	04:55:13forward acquisition time	300,00reverse acquisition time	0,00gamma	499,1914k internal	0,3128k external	0,3128temperature offset calibration	1,0000default loss term (dB/km)	0,3820temperature slope calibration	1,0000multiplexer offset coefficient	1,0000multiplexer slope coefficient	1,0000fibre end	0,00T internal ref (°C)	22,03T ext. ref 1 (°C)	7,16T ext. ref 2 (°C)	7,38length (m)	temperature (°C)	Stokes	anti-Stokes-744,400	-200,000	0,035	-0,151
-743,385	-58,687	-0,131	0,042
-742,371	-62,400	-0,086	0,026
-741,356	-19,752	-0,109	0,050
-740,342	424,090	-0,040	0,064
-739,327	-196,958	-0,261	0,001
-738,312	6,882	0,153	0,084
-737,298	-9,911	-0,272	0,134
-736,283	-11,052	0,047	-0,023
-735,269	-52,573	-0,176	0,060
-734,254	-125,951	-0,080	0,009
-733,239	-93,190	-0,392	-0,080
-732,225	-48,800	0,243	0,086
-731,210	-200,000	-0,004	-0,049
-730,196	-129,763	-0,133	0,013
-729,181	625,243	-0,027	0,052
-728,167	-111,366	-0,061	-0,009
-727,152	800,000	0,012	0,031
-726,137	-0,398	-0,089	-0,047
-725,123	800,000	-0,053	-0,152
-724,108	410,256	-0,068	-0,107
-723,094	-200,000	-0,031	-0,231
-722,079	-105,310	-0,110	0,018
-721,064	-105,138	-0,137	0,023
-720,050	-75,191	0,092	-0,024
-719,035	-5,882	-0,104	0,053
-718,021	-24,702	-0,078	-0,035
-717,006	-3,825	-0,103	-0,053
-715,991	710,724	-0,026	-0,052
-714,977	-91,754	0,076	0,016
-713,962	-200,000	-0,009	-0,153
-712,948	-34,141	-0,121	0,049
-711,933	-200,000	0,001	-0,042
-710,918	800,000	-0,084	-0,184
-709,904	-200,000	0,015	-0,191
-708,889	240,796	-0,043	0,053
-707,875	-17,391	-0,130	0,060
-706,860	185,412	0,091	-0,101
-705,845	560,813	-0,054	0,097
-704,831	133,772	0,062	0,060
-703,816	263,198	0,017	0,023
-702,802	-12,351	-0,074	0,036
-701,787	-147,479	0,065	0,004
-700,772	800,000	-0,017	-0,043
-699,758	-180,294	-0,097	-0,001
-698,743	800,000	-0,003	0,007
-697,729	-200,000	0,018	0,067
-696,714	-200,000	-0,002	-0,048
-695,699	-200,000	-0,005	-0,021
-694,685	-128,177	-0,139	-0,015
-693,670	-39,957	-0,155	-0,060
-692,656	-28,135	0,050	0,022
-691,641	800,000	0,012	-0,030
-690,627	-79,053	-0,045	-0,011
-689,612	61,924	-0,065	-0,048
-688,597	800,000	0,033	-0,100
-687,583	132,066	-0,103	-0,099
-686,568	417,958	0,039	0,062
-685,554	-14,710	-0,064	0,031
-684,539	-200,000	0,008	-0,027
-683,524	639,613	0,047	0,088
-682,510	-200,000	0,008	-0,058
-681,495	-110,390	-0,024	0,004
-680,481	-200,000	-0,008	-0,105
-679,466	-24,515	0,018	0,008
-678,451	-121,241	-0,102	0,013
-677,437	800,000	-0,037	0,098
-676,422	93,348	0,102	0,086
-675,408	312,008	0,044	-0,062
-674,393	147,494	-0,157	0,157
-673,378	798,349	0,036	0,073
-672,364	661,536	-0,068	0,130
-671,349	-200,000	-0,129	0,000
-670,335	-200,000	0,024	-0,091
-669,320	-15,666	0,173	-0,082
-668,305	800,000	0,010	-0,025
-667,291	233,374	-0,109	0,133
-666,276	295,246	-0,070	-0,096
-665,262	94,579	0,010	-0,008
-664,247	588,815	0,038	-0,070
-663,232	-112,901	0,125	0,018
-662,218	-200,000	0,029	0,173
-661,203	-10,809	0,034	0,017
-660,189	-200,000	0,006	-0,025
-659,174	176,184	-0,028	-0,030
-658,159	800,000	-0,037	-0,078
-657,145	611,683	0,023	0,043
-656,130	396,866	-0,014	0,022
-655,116	-200,000	-0,015	-0,079
-654,101	800,000	-0,035	-0,074
-653,086	800,000	-0,019	-0,042
-652,072	210,091	-0,061	-0,071
-651,057	-10,947	-0,087	0,043
-650,043	-121,833	0,032	-0,004
-649,028	5,729	0,129	-0,071
-648,014	-200,000	-0,006	-0,036
-646,999	-96,783	-0,031	-0,006
-645,984	-71,977	-0,141	-0,039
-644,970	302,087	0,064	0,087
-643,955	-200,000	-0,043	-0,186
-642,941	-200,000	-0,012	-0,190
-641,926	529,571	-0,042	-0,074
-640,911	-200,000	0,011	0,058
-639,897	800,000	0,012	-0,026
-638,882	110,406	-0,076	0,068
-637,868	800,000	0,010	0,021
-636,853	-14,734	0,053	0,025
-635,838	68,318	0,133	-0,101
-634,824	697,824	-0,017	-0,033
-633,809	-0,405	-0,043	-0,022
-632,795	151,743	-0,035	-0,036
-631,780	-117,789	0,066	0,009
-630,765	100,937	-0,081	0,070
-629,751	-200,000	-0,009	0,040
-628,736	88,230	0,040	0,033
-627,722	-139,084	-0,068	-0,005
-626,707	-22,244	-0,090	0,040
-625,692	21,968	-0,047	-0,028
-624,678	-53,235	-0,201	-0,068
-623,663	-79,617	-0,062	0,015
-622,649	531,708	-0,072	-0,127
-621,634	42,268	-0,078	-0,052
-620,619	-55,997	0,098	-0,032
-619,605	288,882	-0,005	-0,007
-618,590	-200,000	0,023	0,139
-617,576	105,742	-0,083	0,073
-616,561	179,008	0,061	0,066
-615,546	613,427	-0,024	-0,045
-614,532	574,725	-0,042	-0,076
-613,517	800,000	-0,040	-0,100
-612,503	249,823	0,055	-0,069
-611,488	167,085	-0,043	-0,046
-610,474	-117,889	-0,094	-0,012
-609,459	-200,000	-0,015	0,074
-608,444	137,315	-0,040	-0,039
-607,430	135,837	0,012	0,011
-606,415	-63,223	0,061	0,018
-605,401	663,466	0,025	0,048
-604,386	21,184	0,161	0,096
-603,371	105,764	0,096	-0,084
-602,357	-200,000	0,005	-0,017
-601,342	16,687	-0,092	-0,054
-600,328	-148,453	0,026	0,002
-599,313	-63,561	-0,075	-0,023
-598,298	-46,615	-0,121	-0,043
-597,284	-17,507	0,096	0,044
-596,269	614,334	0,046	0,086
-595,255	-200,000	-0,022	0,087
-594,240	-103,940	-0,086	0,015
-593,225	-75,343	-0,037	0,010
-592,211	161,087	-0,070	-0,072
-591,196	332,157	0,023	-0,033
-590,182	197,868	-0,116	-0,131
-589,167	800,000	-0,028	0,069
-588,152	16,393	0,069	-0,040
-587,138	-200,000	0,007	0,092
-586,123	257,940	-0,098	-0,125
-585,109	800,000	0,058	-0,140
-584,094	-200,000	-0,141	-0,000
-583,079	-94,501	-0,102	0,020
-582,065	-57,165	-0,117	0,038
-581,050	-86,582	-0,160	0,036
-580,036	-92,575	0,119	-0,024
-579,021	-200,000	-0,021	-0,179
-578,006	-200,000	-0,027	-0,137
-576,992	57,527	-0,139	-0,100
-575,977	-91,362	-0,132	-0,028
-574,963	476,668	0,037	0,061
-573,948	-134,486	-0,026	-0,002
-572,934	-10,205	-0,042	-0,020
-571,919	-128,785	0,119	-0,012
-570,904	-106,058	-0,092	-0,015
-569,890	-200,000	-0,022	-0,120
-568,875	800,000	0,081	0,202
-567,861	221,044	0,042	0,050
-566,846	-200,000	0,013	-0,073
-565,831	329,925	0,072	0,103
-564,817	17,570	0,106	-0,062
-563,802	6,729	-0,069	-0,038
-562,788	-12,178	0,126	0,061
-561,773	250,501	0,121	-0,152
-560,758	-98,308	0,015	0,003
-559,744	-127,108	0,124	0,013
-558,729	-200,000	0,003	0,076
-557,715	39,197	-0,124	-0,082
-556,700	-200,000	-0,012	0,043
-555,685	537,039	0,040	-0,070
-554,671	800,000	-0,063	-0,137
-553,656	52,740	0,152	0,107
-552,642	397,822	-0,028	-0,043
-551,627	-3,552	0,084	0,043
-550,612	-200,000	0,012	-0,078
-549,598	-84,185	0,056	0,013
-548,583	619,398	0,039	-0,072
-547,569	800,000	-0,042	-0,093
-546,554	99,845	0,094	-0,081
-545,539	-200,000	0,012	0,047
-544,525	-200,000	-0,002	-0,057
-543,510	800,000	0,007	0,014
-542,496	800,000	-0,034	-0,094
-541,481	-50,774	-0,190	0,065
-540,466	-200,000	0,014	-0,070
-539,452	-62,701	0,150	0,046
-538,437	435,060	0,056	0,089
-537,423	-144,262	0,055	-0,004
-536,408	-200,000	-0,016	-0,059
-535,393	349,282	-0,048	-0,071
-534,379	-132,771	-0,076	0,007
-533,364	71,876	0,011	0,008
-532,350	-157,655	0,052	-0,002
-531,335	800,000	0,008	-0,016
-530,321	-61,660	0,074	-0,023
-529,306	-200,000	0,001	0,051
-528,291	226,030	0,006	0,007
-527,277	-31,314	0,081	-0,033
-526,262	284,257	0,035	-0,047
-525,248	-160,194	0,173	-0,007
-524,233	-2,796	0,120	0,062
-523,218	246,267	-0,083	0,104
-522,204	-18,615	0,097	-0,044
-521,189	756,074	-0,024	-0,048
-520,175	-39,272	-0,172	0,066
-519,160	550,309	0,033	0,059
-518,145	92,261	0,037	0,031
-517,131	-139,596	0,016	0,001
-516,116	-142,231	0,177	-0,013
-515,102	174,842	-0,058	0,062
-514,087	217,286	-0,035	-0,042
-513,072	-200,000	-0,006	0,111
-512,058	323,753	-0,038	-0,053
-511,043	64,755	0,019	-0,014
-510,029	-126,605	0,089	0,010
-509,014	217,797	0,036	0,042
-507,999	-3,842	-0,061	-0,031
-506,985	-50,778	-0,120	-0,042
-505,970	-200,000	-0,004	0,037
-504,956	464,375	0,063	0,104
-503,941	-61,918	0,024	-0,007
-502,926	541,677	0,060	0,106
-501,912	-200,000	0,025	-0,100
-500,897	99,826	-0,114	0,097
-499,883	-0,108	-0,046	0,024
-498,868	150,595	-0,055	0,055
-497,853	55,516	-0,117	0,083
-496,839	-200,000	0,046	-0,205
-495,824	-200,000	0,024	0,101
-494,810	387,329	0,040	0,062
-493,795	-46,861	-0,192	-0,069
-492,781	-69,587	-0,123	0,035
-491,766	-200,000	-0,016	-0,070
-490,751	-200,000	0,013	-0,050
-489,737	-12,869	0,022	-0,010
-488,722	95,110	0,056	-0,047
-487,708	158,192	0,105	0,108
-486,693	-200,000	-0,025	0,110
-485,678	-59,551	-0,077	-0,024
-484,664	-4,345	-0,151	-0,077
-483,649	66,780	0,093	0,070
-482,635	-70,939	0,155	0,043
-481,620	-163,765	0,097	0,003
-480,605	-124,671	0,226	0,026
-479,591	-54,795	-0,052	0,017
-478,576	-200,000	0,011	-0,087
-477,562	105,142	0,061	-0,053
-476,547	122,445	-0,066	-0,061
-475,532	-200,000	-0,001	0,010
-474,518	-66,549	0,090	0,026
-473,503	-200,000	0,017	-0,136
-472,489	-200,000	0,001	-0,008
-471,474	225,351	0,045	-0,054
-470,459	800,000	-0,037	-0,097
-469,445	-111,401	0,032	-0,005
-468,430	108,746	0,049	-0,043
-467,416	-200,000	0,010	0,149
-466,401	177,949	-0,029	-0,032
-465,386	800,000	0,025	-0,060
-464,372	83,468	0,065	-0,052
-463,357	295,807	-0,038	0,052
-462,343	87,268	-0,076	-0,062
-461,328	800,000	0,025	-0,082
-460,313	-137,724	0,017	-0,001
-459,299	144,607	0,039	0,038
-458,284	-200,000	-0,001	0,023
-457,270	196,372	-0,080	0,090
-456,255	-163,717	-0,063	-0,002
-455,241	434,391	-0,086	0,138
-454,226	-62,213	0,078	0,024
-453,211	-200,000	-0,010	0,196
-452,197	800,000	-0,004	-0,010
-451,182	-169,069	0,140	-0,004
-450,168	-200,000	-0,011	0,158
-449,153	-200,000	-0,004	0,016
-448,138	10,947	-0,097	-0,055
-447,124	10,550	0,136	-0,076
-446,109	-200,000	0,013	-0,094
-445,095	224,269	0,047	0,056
-444,080	-41,642	0,042	0,016
-443,065	-170,418	-0,131	-0,003
-442,051	-105,297	0,041	-0,007
-441,036	-155,268	0,040	0,002
-440,022	-52,414	-0,069	0,023
-439,007	2,558	-0,066	0,035
-437,992	800,000	0,033	-0,103
-436,978	800,000	0,022	-0,058
-435,963	800,000	-0,038	0,097
-434,949	-200,000	-0,006	-0,094
-433,934	27,830	-0,106	-0,066
-432,919	-112,009	-0,091	-0,013
-431,905	-73,436	-0,031	0,008
-430,890	800,000	0,044	0,131
-429,876	556,089	-0,071	0,126
-428,861	16,091	0,066	0,038
-427,846	90,951	-0,056	-0,046
-426,832	428,683	-0,021	0,034
-425,817	18,528	0,059	-0,035
-424,803	342,339	0,023	0,034
-423,788	265,854	0,117	0,151
-422,773	-200,000	0,036	0,204
-421,759	622,497	0,017	-0,031
-420,744	244,247	-0,045	-0,056
-419,730	201,551	0,094	-0,106
-418,715	-23,184	-0,085	0,038
-417,701	116,703	-0,107	-0,097
-416,686	-33,949	-0,133	-0,054
-415,671	33,197	0,104	-0,066
-414,657	800,000	-0,021	0,055
-413,642	-200,000	-0,003	-0,065
-412,628	-111,679	0,043	-0,006
-411,613	-113,772	-0,073	-0,010
-410,598	442,222	0,035	-0,056
-409,584	-70,265	0,072	-0,020
-408,569	-200,000	-0,006	0,034
-407,555	-200,000	0,016	0,147
-406,540	328,338	-0,033	0,046
-405,525	102,101	0,018	0,015
-404,511	-35,940	-0,123	-0,048
-403,496	800,000	0,022	-0,060
-402,482	268,236	0,047	0,060
-401,467	139,533	0,041	0,040
-400,452	-19,795	0,079	0,036
-399,438	800,000	0,031	0,081
-398,423	-124,310	-0,175	0,020
-397,409	40,815	0,095	-0,063
-396,394	168,499	-0,064	-0,067
-395,379	105,769	-0,054	0,047
-394,365	382,773	0,079	0,120
-393,350	-189,020	0,117	0,001
-392,336	87,887	-0,024	-0,020
-391,321	252,983	0,063	-0,079
-390,306	10,965	0,112	0,063
-389,292	-62,632	-0,060	0,018
-388,277	318,398	0,026	0,036
-387,263	161,037	0,145	0,149
-386,248	-36,055	0,130	-0,051
-385,233	800,000	-0,050	0,106
-384,219	-160,012	0,087	-0,003
-383,204	707,945	-0,083	-0,161
-382,190	800,000	0,016	0,047
-381,175	20,390	-0,062	0,036
-380,160	-142,845	0,124	-0,009
-379,146	695,581	-0,033	0,065
-378,131	-22,965	0,079	0,035
-377,117	374,667	-0,072	-0,108
-376,102	-102,094	0,157	0,027
-375,088	-200,000	0,001	-0,165
-374,073	-0,083	-0,138	0,072
-373,058	148,052	0,137	0,136
-372,044	197,760	0,022	0,025
-371,029	-64,415	0,083	-0,025
-370,015	-95,561	0,131	0,026
-369,000	-29,484	-0,105	-0,044
-367,985	139,859	0,126	-0,122
-366,971	800,000	0,058	-0,161
-365,956	-97,310	0,044	-0,008
-364,942	-200,000	0,002	-0,010
-363,927	238,902	-0,063	-0,077
-362,912	800,000	-0,014	-0,030
-361,898	-41,098	-0,178	0,067
-360,883	-81,748	0,115	-0,028
-359,869	52,482	0,081	-0,057
-358,854	800,000	-0,016	-0,038
-357,839	16,133	-0,043	0,025
-356,825	15,720	0,065	0,038
-355,810	0,529	-0,101	0,053
-354,796	-124,020	0,061	0,007
-353,781	-200,000	0,034	0,150
-352,766	39,850	-0,053	0,035
-351,752	-77,450	0,012	0,003
-350,737	167,437	0,106	0,111
-349,723	-121,997	-0,107	0,013
-348,708	180,570	0,047	0,051
-347,693	800,000	0,101	0,241
-346,679	241,603	-0,028	-0,035
-345,664	193,234	-0,081	-0,090
-344,650	-154,734	-0,078	0,004
-343,635	800,000	-0,035	0,078
-342,620	499,704	-0,112	0,190
-341,606	90,194	-0,101	-0,083
-340,591	-200,000	-0,014	0,107
-339,577	-200,000	-0,009	0,059
-338,562	800,000	-0,070	-0,206
-337,548	312,674	0,032	0,044
-336,533	-16,389	0,110	-0,051
-335,518	147,769	0,102	-0,101
-334,504	800,000	0,013	-0,026
-333,489	800,000	-0,017	0,047
-332,475	-200,000	-0,001	0,035
-331,460	79,293	0,026	0,021
-330,445	-51,776	0,051	-0,017
-329,431	-200,000	0,027	-0,092
-328,416	-200,000	-0,030	-0,101
-327,402	220,043	-0,028	-0,033
-326,387	-36,536	0,199	-0,078
-325,372	201,830	0,031	-0,035
-324,358	-200,000	0,002	-0,075
-323,343	379,815	0,045	0,067
-322,329	-200,000	0,034	0,123
-321,314	-111,567	-0,044	0,007
-320,299	-91,820	0,128	0,026
-319,285	-19,959	0,172	0,078
-318,270	22,574	0,113	0,068
-317,256	800,000	0,030	0,079
-316,241	489,670	0,064	-0,107
-315,226	800,000	0,034	-0,088
-314,212	371,341	0,031	-0,046
-313,197	-49,868	-0,075	-0,026
-312,183	-200,000	0,044	0,151
-311,168	52,071	0,123	0,085
-310,153	-115,163	-0,095	-0,013
-309,139	199,512	-0,053	0,059
-308,124	-200,000	0,020	-0,137
-307,110	152,645	0,058	0,058
-306,095	18,164	-0,141	0,082
-305,080	97,080	0,046	0,039
-304,066	-200,000	0,007	0,153
-303,051	-200,000	0,041	-0,135
-302,037	107,385	0,027	-0,023
-301,022	-200,000	-0,012	-0,113
-300,008	312,472	-0,058	0,080
-298,993	168,578	0,038	0,040
-297,978	86,933	0,069	0,055
-296,964	333,183	-0,073	-0,103
-295,949	326,632	-0,137	0,193
-294,935	-56,535	0,020	0,007
-293,920	-174,836	-0,098	0,002
-292,905	-50,062	0,112	0,038
-291,891	381,897	-0,045	-0,069
-290,876	-172,077	-0,125	-0,003
-289,862	743,659	0,073	0,145
-288,847	-62,694	0,057	-0,017
-287,832	45,611	-0,087	0,059
-286,818	-200,000	0,008	0,076
-285,803	-2,917	-0,027	0,014
-284,789	-200,000	0,021	0,088
-283,774	62,567	0,090	0,066
-282,759	-178,552	-0,109	-0,002
-281,745	-147,812	-0,032	-0,002
-280,730	86,044	-0,128	-0,103
-279,716	42,163	-0,173	0,115
-278,701	76,909	-0,048	-0,037
-277,686	418,842	-0,056	-0,087
-276,672	800,000	0,052	-0,126
-275,657	-200,000	-0,003	-0,102
-274,643	-70,539	-0,119	-0,033
-273,628	37,102	-0,113	-0,073
-272,613	222,147	-0,027	-0,031
-271,599	748,827	-0,004	-0,008
-270,584	-9,165	0,052	0,025
-269,570	-200,000	-0,033	0,129
-268,555	-200,000	-0,014	0,084
-267,540	445,581	0,049	-0,079
-266,526	76,449	0,046	0,035
-265,511	-131,425	-0,046	-0,004
-264,497	800,000	0,060	-0,124
-263,482	-22,078	-0,024	-0,011
-262,467	-26,383	-0,071	0,030
-261,453	-61,108	0,065	-0,020
-260,438	800,000	0,059	0,130
-259,424	-200,000	0,007	0,059
-258,409	-200,000	0,012	-0,092
-257,395	-18,461	-0,037	-0,017
-256,380	-200,000	-0,027	0,231
-255,365	-200,000	0,025	0,123
-254,351	-12,884	0,091	0,043
-253,336	183,920	-0,082	0,089
-252,322	-200,000	0,046	-0,175
-251,307	800,000	-0,082	-0,195
-250,292	-200,000	-0,038	-0,156
-249,278	150,809	0,162	0,160
-248,263	-200,000	0,017	0,065
-247,249	-173,547	0,057	0,001
-246,234	-151,829	-0,104	-0,005
-245,219	31,776	-0,050	0,032
-244,205	800,000	0,011	-0,032
-243,190	128,072	-0,044	0,041
-242,176	139,621	0,100	-0,096
-241,161	270,616	0,032	0,041
-240,146	745,909	-0,017	-0,033
-239,132	-67,866	-0,125	-0,035
-238,117	800,000	-0,011	0,031
-237,103	-60,509	-0,138	-0,043
-236,088	292,202	-0,012	-0,016
-235,073	-200,000	0,024	0,126
-234,059	114,784	0,110	0,098
-233,044	-200,000	0,014	0,099
-232,030	800,000	-0,047	-0,127
-231,015	800,000	0,010	-0,027
-230,000	196,282	-0,088	0,098
-228,986	36,278	-0,087	-0,056
-227,971	800,000	0,066	0,150
-226,957	196,791	-0,032	0,035
-225,942	130,569	-0,044	-0,041
-224,927	128,950	0,076	-0,071
-223,913	25,264	-0,067	-0,040
-222,898	800,000	-0,059	0,147
-221,884	48,115	0,045	0,031
-220,869	-77,876	-0,138	0,035
-219,855	153,837	0,108	0,108
-218,840	80,618	-0,172	0,135
-217,825	516,996	-0,013	-0,023
-216,811	562,158	-0,025	-0,044
-215,796	276,688	0,067	-0,087
-214,782	28,516	-0,045	0,028
-213,767	-193,405	-0,076	0,000
-212,752	-200,000	-0,016	0,065
-211,738	800,000	-0,028	-0,078
-210,723	-200,000	-0,018	-0,062
-209,709	-200,000	-0,020	-0,083
-208,694	26,557	-0,020	0,012
-207,679	-200,000	-0,000	0,066
-206,665	43,632	0,151	-0,101
-205,650	177,420	-0,063	0,067
-204,636	-10,761	0,068	0,033
-203,621	531,666	-0,066	-0,115
-202,606	800,000	-0,044	-0,122
-201,592	73,892	-0,101	-0,077
-200,577	369,613	0,035	-0,051
-199,563	800,000	0,025	-0,079
-198,548	-45,308	0,116	0,042
-197,533	-149,604	-0,052	0,003
-196,519	-200,000	0,017	0,059
-195,504	-200,000	-0,013	-0,041
-194,490	64,890	-0,070	-0,051
-193,475	800,000	0,032	0,076
-192,460	23,982	0,101	0,060
-191,446	246,541	-0,064	0,079
-190,431	62,995	0,080	0,058
-189,417	800,000	-0,048	0,154
-188,402	800,000	-0,023	-0,057
-187,387	-109,505	-0,142	-0,022
-186,373	-136,341	-0,056	-0,005
-185,358	-200,000	-0,005	-0,083
-184,344	-142,216	0,021	-0,001
-183,329	91,695	-0,039	0,032
-182,315	41,970	-0,097	-0,064
-181,300	-12,620	0,038	-0,018
-180,285	-200,000	-0,021	-0,093
-179,271	-123,618	-0,025	-0,003
-178,256	800,000	0,024	0,071
-177,242	88,138	-0,068	-0,055
-176,227	800,000	-0,021	0,066
-175,212	-128,331	0,185	0,019
-174,198	-200,000	0,002	-0,089
-173,183	-39,863	0,119	-0,045
-172,169	251,376	-0,076	-0,095
-171,154	800,000	0,048	0,103
-170,139	-32,966	-0,062	-0,025
-169,125	-200,000	-0,012	-0,069
-168,110	-57,808	0,101	0,032
-167,096	-200,000	-0,026	0,101
-166,081	-119,082	0,060	0,008
-165,066	-10,020	-0,070	-0,034
-164,052	-118,015	0,069	0,009
-163,037	-86,187	-0,070	-0,016
-162,023	-4,344	0,196	-0,098
-161,008	210,040	0,042	0,048
-159,993	154,800	-0,023	0,023
-158,979	-190,292	0,102	0,001
-157,964	-130,987	-0,087	0,008
-156,950	216,854	-0,035	-0,041
-155,935	-200,000	-0,004	-0,103
-154,920	800,000	-0,023	0,067
-153,906	-100,871	-0,073	0,013
-152,891	-200,000	0,015	-0,064
-151,877	-200,000	-0,006	-0,020
-150,862	-200,000	-0,003	-0,064
-149,847	-135,103	0,080	-0,007
-148,833	-200,000	0,008	-0,132
-147,818	800,000	-0,015	-0,041
-146,804	-200,000	0,000	0,119
-145,789	174,762	0,027	0,029
-144,775	77,010	0,047	-0,036
-143,760	-200,000	-0,019	-0,162
-142,745	-200,000	-0,023	-0,142
-141,731	-152,559	0,177	-0,009
-140,716	121,003	-0,112	-0,101
-139,702	-21,786	-0,095	0,042
-138,687	-104,935	0,168	-0,028
-137,672	-200,000	-0,008	0,094
-136,658	-200,000	-0,009	0,064
-135,643	-200,000	0,003	0,051
-134,629	-71,470	0,105	0,028
-133,614	-15,588	0,081	-0,038
-132,599	-90,677	0,055	0,011
-131,585	-200,000	0,020	0,140
-130,570	-200,000	-0,004	-0,044
-129,556	-183,606	-0,059	-0,001
-128,541	63,416	-0,124	-0,090
-127,526	66,926	-0,054	-0,040
-126,512	-20,492	0,087	-0,039
-125,497	-200,000	-0,009	-0,073
-124,483	800,000	-0,017	-0,041
-123,468	-200,000	-0,008	0,048
-122,453	81,795	-0,055	-0,043
-121,439	-112,964	-0,023	0,003
-120,424	50,285	0,040	0,027
-119,410	-200,000	-0,029	0,132
-118,395	-200,000	0,006	-0,036
-117,380	-71,075	0,187	0,051
-116,366	-135,769	0,039	-0,003
-115,351	33,018	0,021	-0,013
-114,337	733,056	-0,032	-0,062
-113,322	800,000	0,027	0,066
-112,307	-200,000	0,013	0,085
-111,293	549,103	0,057	0,100
-110,278	-93,013	0,008	-0,002
-109,264	-200,000	-0,011	0,085
-108,249	60,592	-0,103	0,074
-107,234	-27,667	-0,103	0,043
-106,220	800,000	-0,044	-0,137
-105,205	208,603	-0,072	0,082
-104,191	800,000	-0,047	0,142
-103,176	-73,771	-0,064	-0,017
-102,162	424,380	0,011	0,018
-101,147	-200,000	-0,018	0,125
-100,132	800,000	-0,037	0,104
-99,118	-200,000	0,007	-0,123
-98,103	800,000	-0,025	-0,068
-97,089	-91,832	0,174	0,035
-96,074	-86,319	0,087	0,019
-95,059	141,495	0,026	0,025
-94,045	10,226	-0,055	-0,030
-93,030	-200,000	0,019	-0,153
-92,016	800,000	0,054	-0,113
-91,001	190,527	0,085	0,093
-89,986	-74,860	0,094	0,024
-88,972	-81,660	0,129	0,030
-87,957	-144,528	-0,135	0,009
-86,943	57,770	-0,079	-0,056
-85,928	-12,887	-0,125	-0,059
-84,913	24,512	-0,082	0,049
-83,899	55,416	0,118	0,083
-82,884	-200,000	0,003	0,084
-81,870	-200,000	0,033	0,109
-80,855	225,283	-0,084	-0,099
-79,840	-200,000	-0,009	-0,181
-78,826	27,889	0,094	-0,057
-77,811	-178,667	0,117	-0,002
-76,797	800,000	0,004	0,012
-75,782	44,344	-0,079	-0,052
-74,767	-200,000	0,003	0,061
-73,753	18,370	-0,083	-0,048
-72,738	800,000	0,041	-0,085
-71,724	-200,000	-0,010	-0,086
-70,709	-147,137	-0,057	0,003
-69,694	47,895	-0,097	-0,066
-68,680	240,335	-0,110	0,133
-67,665	-80,679	0,056	-0,013
-66,651	7,452	-0,147	0,079
-65,636	440,233	-0,051	-0,080
-64,622	8,996	-0,115	-0,063
-63,607	48,852	0,081	-0,055
-62,592	-200,000	0,007	0,067
-61,578	-200,000	-0,019	-0,071
-60,563	324,457	-0,053	0,073
-59,549	-200,000	0,010	0,044
-58,534	-131,804	-1,411	-0,132
-57,519	540,790	-0,899	-1,557
-56,505	-200,000	-0,743	-4,451
-55,490	-8,828	0,514	-0,249
-54,476	800,000	4,680	11,533
-53,461	-200,000	14,119	252,627
-52,446	-200,000	692,630	2244,194
-51,432	584,336	1621,913	2898,294
-50,417	118,095	1631,455	1456,736
-49,403	73,913	1285,835	975,964
-48,388	37,830	1022,202	656,583
-47,373	24,071	980,432	584,628
-46,359	23,283	969,912	575,757
-45,344	22,256	965,598	569,826
-44,330	22,211	964,354	568,923
-43,315	22,058	962,764	567,466
-42,300	22,126	961,562	566,955
-41,286	22,006	960,823	566,110
-40,271	22,055	959,926	565,718
-39,257	22,059	958,793	565,040
-38,242	22,069	957,973	564,564
-37,227	22,086	956,926	563,983
-36,213	21,999	956,288	563,301
-35,198	22,007	955,429	562,801
-34,184	22,047	954,820	562,548
-33,169	22,004	953,866	561,823
-32,154	22,094	952,916	561,533
-31,140	22,115	952,006	561,042
-30,125	22,116	951,197	560,545
-29,111	22,059	950,407	559,875
-28,096	22,122	949,721	559,650
-27,082	22,107	948,928	559,112
-26,067	22,022	948,283	558,438
-25,052	22,051	947,700	558,166
-24,038	22,079	946,783	557,693
-23,023	22,109	946,299	557,482
-22,009	22,078	945,496	556,888
-20,994	22,051	945,004	556,491
-19,979	22,026	944,424	556,047
-18,965	22,087	943,722	555,804
-17,950	22,112	943,054	555,470
-16,936	22,010	942,490	554,790
-15,921	22,006	941,649	554,262
-14,906	21,973	940,935	553,714
-13,892	21,957	940,369	553,307
-12,877	21,932	939,799	552,871
-11,863	21,922	939,136	552,428
-10,848	21,970	938,439	552,149
-9,833	22,014	938,160	552,100
-8,819	22,049	937,562	551,837
-7,804	21,953	936,887	551,114
-6,790	21,948	936,322	550,744
-5,775	21,990	935,651	550,461
-4,760	21,962	935,160	550,064
-3,746	21,898	934,597	549,507
-2,731	21,790	933,751	548,648
-1,717	21,755	932,975	548,060
-0,702	21,701	932,421	547,544
0,313	21,630	931,713	547,732
1,327	24,231	929,233	554,374
2,342	31,957	807,283	502,490
3,356	27,005	507,762	307,610
4,371	2,942	372,555	195,227
5,386	-0,255	355,637	182,440
6,400	-1,557	349,353	177,635
7,415	-2,423	346,529	175,150
8,429	-2,693	345,098	174,091
9,444	-2,589	344,118	173,704
10,459	-2,531	343,241	173,314
11,473	-2,626	342,758	172,944
12,488	-2,384	342,451	173,059
13,502	-2,230	341,808	172,899
14,517	-2,367	341,255	172,443
15,531	-2,671	340,720	171,801
16,546	-2,542	340,116	171,632
17,561	-2,602	339,687	171,331
18,575	-2,426	339,320	171,335
19,590	-2,726	339,114	170,866
20,604	-2,327	338,515	171,014
21,619	-2,712	338,314	170,448
22,634	-2,585	337,891	170,368
23,648	-2,612	337,497	170,123
24,663	-2,565	337,213	170,019
25,677	-2,484	336,816	169,898
26,692	-2,558	336,556	169,666
27,707	-2,533	336,291	169,546
28,721	-2,588	336,027	169,334
29,736	-2,649	335,760	169,115
30,750	-2,628	335,360	168,922
31,765	-2,635	335,136	168,786
32,780	-2,705	334,840	168,541
33,794	-2,663	334,584	168,445
34,809	-2,656	334,255	168,273
35,823	-2,631	333,969	168,142
36,838	-2,673	333,626	167,906
37,853	-2,498	333,195	167,875
38,867	-2,502	332,922	167,717
39,882	-2,663	332,827	167,471
40,896	-2,558	332,560	167,443
41,911	-2,817	332,228	166,965
42,926	-2,684	332,027	167,001
43,940	-2,910	331,742	166,585
44,955	-2,651	331,351	166,667
45,969	-2,886	330,981	166,200
46,984	-2,798	330,839	166,214
47,999	-3,023	330,584	165,816
49,013	-3,191	330,327	165,482
50,028	-3,248	329,956	165,216
51,042	-3,259	329,658	165,040
52,057	-3,272	329,254	164,808
53,071	-3,122	328,991	164,831
54,086	-3,013	328,757	164,822
55,101	-3,039	328,636	164,718
56,115	-2,950	328,565	164,767
57,130	-2,613	328,350	165,024
58,144	-2,550	328,197	165,004
59,159	-2,366	327,812	165,002
60,174	-2,431	327,637	164,826
61,188	-2,465	327,354	164,631
62,203	-2,387	327,118	164,585
63,217	-2,409	326,870	164,421
64,232	-2,409	326,565	164,253
65,247	-2,401	326,414	164,171
66,261	-2,570	326,165	163,842
67,276	-2,739	325,768	163,440
68,290	-2,773	325,405	163,206
69,305	-2,799	325,152	163,035
70,320	-2,765	324,803	162,884
71,334	-2,692	324,673	162,885
72,349	-2,507	324,507	162,992
73,363	-2,377	324,263	163,000
74,378	-2,389	323,996	162,838
75,393	-2,561	323,848	162,558
76,407	-2,569	323,616	162,418
77,422	-2,485	323,420	162,398
78,436	-2,408	323,129	162,323
79,451	-2,435	322,753	162,090
80,466	-2,489	322,496	161,886
81,480	-2,820	322,192	161,355
82,495	-2,734	321,797	161,237
83,509	-2,711	321,718	161,208
84,524	-2,732	321,554	161,089
85,539	-2,888	321,108	160,680
86,553	-2,895	320,829	160,518
87,568	-2,957	320,666	160,354
88,582	-2,794	320,387	160,379
89,597	-2,740	320,156	160,308
90,611	-2,746	320,008	160,214
91,626	-2,675	319,950	160,248
92,641	-2,728	319,597	159,999
93,655	-2,781	319,327	159,791
94,670	-2,767	319,093	159,675
95,684	-2,658	318,869	159,668
96,699	-2,682	318,740	159,563
97,714	-2,736	318,502	159,370
98,728	-2,779	318,139	159,128
99,743	-2,808	317,928	158,977
100,757	-2,951	317,781	158,734
101,772	-2,800	317,347	158,667
102,787	-2,879	317,191	158,489
103,801	-2,617	316,910	158,617
104,816	-2,572	316,915	158,655
105,830	-2,506	316,806	158,658
106,845	-2,644	316,491	158,336
107,860	-2,582	316,154	158,221
108,874	-2,637	315,856	157,998
109,889	-2,650	315,482	157,784
110,903	-2,753	315,517	157,675
111,918	-2,733	315,146	157,498
112,933	-2,818	315,107	157,373
113,947	-2,337	314,749	157,697
114,962	-2,756	314,659	157,187
115,976	-2,741	314,474	157,097
116,991	-2,696	313,968	156,879
118,006	-2,619	313,848	156,887
119,020	-2,619	313,884	156,891
120,035	-2,638	313,731	156,780
121,049	-2,468	313,337	156,751
122,064	-2,642	313,191	156,478
123,079	-2,550	312,917	156,425
124,093	-2,467	312,699	156,391
125,108	-2,834	312,388	155,831
126,122	-2,831	312,117	155,685
127,137	-3,110	312,005	155,318
128,151	-2,951	311,475	155,210
129,166	-2,878	311,451	155,262
130,181	-2,885	311,332	155,181
131,195	-3,038	310,968	154,824
132,210	-2,736	310,697	154,994
133,224	-2,639	310,444	154,956
134,239	-2,814	310,470	154,771
135,254	-2,625	310,230	154,837
136,268	-2,671	309,943	154,632
137,283	-2,648	309,536	154,439
138,297	-2,969	309,337	153,988
139,312	-3,005	309,171	153,854
140,327	-2,695	309,125	154,143
141,341	-2,404	308,819	154,282
142,356	-2,459	308,874	154,239
143,370	-2,261	308,563	154,277
144,385	-2,200	308,200	154,146
145,400	-2,418	308,187	153,897
146,414	-2,348	307,823	153,775
147,429	-2,364	307,809	153,738
148,443	-2,339	307,517	153,604
149,458	-2,307	307,296	153,513
150,473	-2,242	307,145	153,492
151,487	-2,328	306,983	153,308
152,502	-2,340	306,660	153,121
153,516	-2,274	306,445	153,069
154,531	-2,454	306,241	152,765
155,546	-2,505	305,995	152,576
156,560	-2,297	305,807	152,684
157,575	-2,559	305,448	152,220
158,589	-2,428	305,183	152,210
159,604	-2,404	305,126	152,193
160,619	-2,322	304,852	152,128
161,633	-2,260	304,529	152,016
162,648	-2,360	304,415	151,843
163,662	-2,327	304,394	151,853
164,677	-2,270	303,982	151,693
165,692	-2,261	303,985	151,690
166,706	-2,405	303,784	151,428
167,721	-2,356	303,498	151,322
168,735	-2,258	303,244	151,283
169,750	-2,240	303,249	151,290
170,764	-2,186	303,114	151,265
171,779	-2,195	302,830	151,101
172,794	-2,098	302,630	151,087
173,808	-2,402	302,339	150,616
174,823	-2,645	301,989	150,180
175,837	-2,866	301,768	149,830
176,852	-2,562	301,745	150,116
177,867	-2,287	301,636	150,330
178,881	-2,182	301,337	150,275
179,896	-2,239	301,211	150,140
180,910	-2,162	301,101	150,151
181,925	-2,154	300,787	149,989
182,940	-2,151	300,564	149,868
183,954	-2,107	300,372	149,803
184,969	-2,348	300,283	149,500
185,983	-2,216	299,974	149,467
186,998	-2,294	299,772	149,275
188,013	-2,456	299,711	149,066
189,027	-2,319	299,424	149,049
190,042	-2,293	299,272	148,987
191,056	-2,197	299,053	148,961
192,071	-2,030	298,911	149,047
193,086	-2,214	298,597	148,691
194,100	-2,110	298,460	148,714
195,115	-2,030	298,194	148,649
196,129	-2,106	297,931	148,428
197,144	-2,116	297,810	148,344
198,159	-2,167	297,535	148,143
199,173	-2,116	297,448	148,137
200,188	-2,320	297,409	147,900
201,202	-2,402	296,894	147,548
202,217	-2,752	296,584	147,029
203,232	-2,755	296,328	146,886
204,246	-2,423	296,097	147,091
205,261	-2,396	296,143	147,128
206,275	-2,280	295,946	147,134
207,290	-2,122	295,844	147,228
208,304	-2,168	295,524	147,009
209,319	-2,015	295,243	147,009
210,334	-2,175	295,081	146,756
211,348	-2,233	294,852	146,571
212,363	-2,220	294,745	146,517
213,377	-2,111	294,594	146,538
214,392	-2,184	294,422	146,367
215,407	-2,522	294,123	145,869
216,421	-2,469	293,819	145,758
217,436	-2,411	293,514	145,651
218,450	-2,449	293,522	145,605
219,465	-2,379	293,399	145,600
220,480	-2,378	293,149	145,464
221,494	-2,362	292,973	145,380
222,509	-2,370	292,784	145,264
223,523	-2,175	292,550	145,329
224,538	-2,216	292,632	145,315
225,553	-2,100	292,242	145,224
226,567	-2,068	292,029	145,136
227,582	-2,135	292,046	145,065
228,596	-2,019	291,655	144,973
229,611	-2,124	291,643	144,850
230,626	-2,046	291,340	144,764
231,640	-2,496	290,991	144,135
232,655	-2,754	290,776	143,763
233,669	-2,806	290,497	143,561
234,684	-2,879	290,272	143,366
235,699	-2,831	290,323	143,425
236,713	-2,653	290,055	143,454
237,728	-2,441	289,908	143,576
238,742	-2,428	289,763	143,504
239,757	-2,337	289,629	143,514
240,772	-2,286	289,346	143,411
241,786	-2,402	289,222	143,223
242,801	-2,476	289,002	143,029
243,815	-2,456	288,765	142,919
244,830	-2,536	288,564	142,728
245,844	-2,400	288,285	142,710
246,859	-2,361	288,151	142,668
247,874	-2,479	288,134	142,533
248,888	-2,341	287,816	142,497
249,903	-2,293	287,839	142,542
250,917	-2,346	287,830	142,473
251,932	-2,021	287,634	142,679
252,947	-1,476	287,623	143,189
253,961	-1,704	287,264	142,776
254,976	-1,016	287,750	143,672
255,990	1,702	288,352	146,594
257,005	2,679	288,569	147,638
258,020	3,949	289,009	149,083
259,034	4,153	288,711	149,113
260,049	3,851	288,438	148,667
261,063	3,572	288,390	148,358
262,078	3,996	288,333	148,726
263,093	4,507	288,355	149,218
264,107	4,529	287,988	149,035
265,122	4,445	287,962	148,928
266,136	4,699	287,767	149,058
267,151	4,779	287,706	149,091
268,166	4,462	287,388	148,608
269,180	4,303	287,097	148,291
270,195	4,468	286,896	148,332
271,209	4,407	286,623	148,120
272,224	4,427	286,593	148,110
273,239	4,126	286,242	147,627
274,253	4,162	286,144	147,598
275,268	4,739	286,146	148,138
276,282	4,768	285,833	147,991
277,297	4,549	285,763	147,732
278,312	4,779	285,670	147,890
279,326	4,732	285,312	147,647
280,341	4,500	285,115	147,311
281,355	4,307	284,863	146,983
282,370	4,277	284,751	146,883
283,384	4,158	284,628	146,695
284,399	4,404	284,298	146,745
285,414	4,485	284,122	146,718
286,428	4,294	284,019	146,470
287,443	4,050	283,669	146,045
288,457	4,099	283,440	145,960
289,472	3,980	283,284	145,754
290,487	3,876	283,134	145,566
291,501	3,839	282,908	145,402
292,516	3,708	282,714	145,166
293,530	3,901	282,464	145,206
294,545	4,125	282,414	145,379
295,560	4,234	282,236	145,378
296,574	4,025	282,017	145,055
297,589	4,094	281,857	145,024
298,603	4,513	281,896	145,426
299,618	4,439	281,761	145,273
300,633	4,234	281,567	144,968
301,647	4,205	281,212	144,745
302,662	4,413	281,099	144,870
303,676	3,975	280,918	144,352
304,691	3,888	280,627	144,108
305,706	3,742	280,299	143,790
306,720	3,754	280,088	143,681
307,735	3,771	280,090	143,684
308,749	3,987	279,816	143,733
309,764	4,111	279,704	143,778
310,779	3,908	279,429	143,435
311,793	3,676	279,277	143,128
312,808	3,750	279,126	143,106
313,822	3,727	278,894	142,953
314,837	3,696	278,719	142,821
315,852	3,587	278,435	142,563
316,866	3,641	278,463	142,615
317,881	3,927	278,135	142,699
318,895	3,829	277,942	142,496
319,910	3,579	277,765	142,161
320,925	3,606	277,583	142,080
321,939	3,754	277,443	142,132
322,954	3,967	277,502	142,348
323,968	3,821	277,349	142,121
324,983	4,062	277,103	142,206
325,997	4,052	276,949	142,104
327,012	4,063	276,842	142,047
328,027	4,185	276,490	141,967
329,041	3,899	276,335	141,611
330,056	4,038	276,277	141,696
331,070	3,971	276,010	141,485
332,085	3,866	275,767	141,251
333,100	4,014	275,608	141,294
334,114	3,954	275,223	141,028
335,129	3,653	275,151	140,703
336,143	3,906	275,197	140,946
337,158	4,192	274,954	141,071
338,173	3,854	274,809	140,674
339,187	3,812	274,621	140,527
340,202	3,888	274,454	140,498
341,216	3,920	274,346	140,460
342,231	3,961	274,086	140,352
343,246	3,862	273,990	140,199
344,260	3,917	273,701	140,089
345,275	4,127	273,663	140,249
346,289	4,360	273,625	140,429
347,304	4,424	273,430	140,374
348,319	3,985	273,161	139,825
349,333	4,114	272,922	139,807
350,348	4,397	272,889	140,035
351,362	4,394	272,690	139,918
352,377	4,252	272,411	139,633
353,392	4,394	272,366	139,726
354,406	4,472	272,151	139,674
355,421	191,522	1330,819	1408,421
356,435	154,719	1459,896	1408,528
