DTS Sentinel unit serial number:	SN410029Multiplexer serial number:	ORYXHardware model number:	OX2-SRSoftware version number:	ORYX F/W v4,00 Oryx Data Collector v3.7.2.0data status	okinstallation	B4 Nyhavnadifferential loss correction	single-endedforward channel	channel 2reverse channel	N/Adate	2023/12/18time	19:55:13forward acquisition time	300,00reverse acquisition time	0,00gamma	499,1914k internal	0,3124k external	0,3124temperature offset calibration	1,0000default loss term (dB/km)	0,3820temperature slope calibration	1,0000multiplexer offset coefficient	1,0000multiplexer slope coefficient	1,0000fibre end	0,00T internal ref (°C)	21,87T ext. ref 1 (°C)	7,09T ext. ref 2 (°C)	7,12length (m)	temperature (°C)	Stokes	anti-Stokes-744,400	-116,807	0,091	0,012
-743,385	-165,526	-0,256	-0,008
-742,371	66,508	-0,044	-0,033
-741,356	346,697	-0,104	0,152
-740,342	800,000	-0,051	-0,107
-739,327	10,725	-0,162	0,092
-738,312	-27,284	0,136	-0,059
-737,298	94,216	-0,192	0,163
-736,283	800,000	-0,020	-0,054
-735,269	150,908	-0,129	0,131
-734,254	800,000	0,065	-0,139
-733,239	96,927	-0,229	-0,196
-732,225	800,000	0,037	-0,119
-731,210	25,576	-0,113	0,070
-730,196	361,351	-0,065	0,098
-729,181	-200,000	0,006	-0,039
-728,167	-57,796	-0,025	0,008
-727,152	800,000	-0,031	-0,068
-726,137	-120,222	-0,138	-0,017
-725,123	-200,000	-0,050	-0,170
-724,108	-200,000	0,013	-0,058
-723,094	61,667	-0,165	-0,122
-722,079	-38,867	-0,130	-0,051
-721,064	-34,859	-0,039	-0,016
-720,050	-27,072	0,055	-0,024
-719,035	-97,848	0,078	-0,015
-718,021	-200,000	-0,007	0,040
-717,006	800,000	-0,072	-0,152
-715,991	800,000	-0,057	-0,143
-714,977	207,923	-0,110	-0,129
-713,962	-200,000	-0,002	-0,065
-712,948	-87,375	-0,141	0,031
-711,933	800,000	-0,068	0,152
-710,918	51,084	-0,019	-0,013
-709,904	-200,000	0,017	-0,150
-708,889	800,000	0,015	0,048
-707,875	43,063	-0,057	-0,039
-706,860	98,163	-0,049	-0,042
-705,845	295,618	-0,054	0,074
-704,831	-113,449	-0,150	-0,022
-703,816	-200,000	-0,013	0,106
-702,802	800,000	0,024	-0,062
-701,787	564,523	0,028	-0,051
-700,772	-58,398	0,096	0,031
-699,758	259,060	-0,059	0,077
-698,743	-81,792	0,078	0,019
-697,729	579,328	-0,024	0,044
-696,714	363,684	0,042	0,063
-695,699	147,996	0,041	0,041
-694,685	-200,000	-0,002	-0,051
-693,670	512,978	-0,016	-0,029
-692,656	118,664	0,130	-0,120
-691,641	336,896	0,004	-0,006
-690,627	-131,135	0,040	0,004
-689,612	57,054	0,023	-0,017
-688,597	122,786	0,072	0,067
-687,583	39,992	-0,115	0,077
-686,568	155,327	-0,042	0,043
-685,554	100,081	-0,031	0,027
-684,539	225,190	0,092	-0,111
-683,524	800,000	-0,040	-0,102
-682,510	513,891	0,026	-0,046
-681,495	17,545	-0,065	0,038
-680,481	800,000	-0,029	-0,062
-679,466	-39,023	-0,184	0,072
-678,451	61,921	-0,051	0,038
-677,437	-144,953	0,117	-0,008
-676,422	-200,000	0,032	-0,188
-675,408	800,000	-0,014	0,030
-674,393	142,563	-0,110	0,109
-673,378	375,411	-0,024	0,037
-672,364	-200,000	0,031	-0,157
-671,349	234,510	-0,052	-0,064
-670,335	586,206	-0,059	0,108
-669,320	-86,619	0,029	-0,007
-668,305	-17,473	0,045	0,021
-667,291	800,000	0,054	0,163
-666,276	800,000	-0,051	-0,110
-665,262	105,985	0,075	0,066
-664,247	-76,283	0,035	0,009
-663,232	266,977	-0,048	0,063
-662,218	-129,423	0,082	0,008
-661,203	155,307	-0,087	-0,089
-660,189	294,541	0,038	0,052
-659,174	800,000	-0,024	0,077
-658,159	-200,000	-0,002	-0,206
-657,145	670,087	-0,013	-0,026
-656,130	-111,607	0,070	-0,011
-655,116	-182,566	0,118	0,002
-654,101	106,257	0,110	0,096
-653,086	-111,217	0,008	-0,001
-652,072	-11,327	-0,110	0,053
-651,057	92,058	-0,036	0,031
-650,043	56,180	-0,045	0,033
-649,028	-200,000	-0,004	-0,060
-648,014	800,000	0,019	-0,061
-646,999	-7,287	-0,040	-0,020
-645,984	-138,850	0,091	-0,007
-644,970	293,031	-0,056	-0,077
-643,955	103,610	-0,107	-0,093
-642,941	-154,806	0,111	-0,005
-641,926	-64,465	-0,099	-0,030
-640,911	-200,000	0,012	0,044
-639,897	198,498	0,077	0,088
-638,882	-136,087	-0,124	0,011
-637,868	-200,000	0,004	-0,037
-636,853	-200,000	-0,011	-0,136
-635,838	-19,959	0,043	-0,020
-634,824	39,143	0,100	-0,066
-633,809	206,119	-0,094	-0,109
-632,795	58,888	0,035	-0,026
-631,780	22,590	0,111	-0,067
-630,765	-200,000	0,003	-0,154
-629,751	381,590	-0,074	-0,114
-628,736	88,542	0,181	-0,149
-627,722	13,414	0,108	-0,062
-626,707	-200,000	0,013	0,135
-625,692	-70,044	0,092	0,026
-624,678	-200,000	-0,002	-0,032
-623,663	-19,306	-0,051	0,023
-622,649	23,079	-0,159	0,097
-621,634	240,202	-0,069	-0,086
-620,619	592,014	-0,026	-0,047
-619,605	-200,000	0,021	-0,078
-618,590	-24,348	-0,077	-0,034
-617,576	307,127	0,091	0,127
-616,561	110,418	0,095	0,084
-615,546	83,731	-0,049	-0,040
-614,532	-200,000	0,005	-0,060
-613,517	2,546	-0,202	-0,108
-612,503	800,000	-0,033	-0,082
-611,488	528,158	0,024	-0,042
-610,474	402,315	0,087	-0,136
-609,459	509,760	0,034	0,059
-608,444	414,855	-0,061	-0,097
-607,430	800,000	0,019	0,059
-606,415	-200,000	0,007	0,073
-605,401	133,284	-0,075	-0,072
-604,386	324,021	-0,070	-0,100
-603,371	428,470	0,121	0,194
-602,357	312,498	0,097	0,135
-601,342	15,410	0,028	-0,016
-600,328	-200,000	0,034	-0,133
-599,313	141,058	0,046	-0,045
-598,298	-200,000	0,021	-0,104
-597,284	-92,542	-0,034	0,007
-596,269	-43,132	-0,169	0,063
-595,255	-129,658	-0,188	-0,019
-594,240	-102,259	-0,059	-0,010
-593,225	14,221	-0,130	0,075
-592,211	133,590	-0,020	0,019
-591,196	-200,000	0,011	0,044
-590,182	39,994	-0,082	-0,054
-589,167	-105,540	0,082	0,014
-588,152	-119,853	-0,016	-0,002
-587,138	-200,000	-0,013	-0,080
-586,123	-200,000	-0,000	-0,206
-585,109	800,000	-0,045	-0,099
-584,094	-200,000	-0,042	0,142
-583,079	-26,700	-0,096	0,041
-582,065	-4,119	-0,043	-0,022
-581,050	-200,000	0,009	0,045
-580,036	11,107	0,084	0,048
-579,021	-129,186	0,050	0,005
-578,006	-43,611	-0,084	-0,031
-576,992	-106,731	-0,079	-0,013
-575,977	187,585	-0,092	0,102
-574,963	-200,000	-0,017	0,221
-573,948	-99,948	-0,052	-0,009
-572,934	207,939	-0,073	0,085
-571,919	57,660	0,056	-0,040
-570,904	-96,313	-0,189	0,037
-569,890	201,566	0,046	0,053
-568,875	640,875	0,037	0,070
-567,861	150,739	0,057	0,057
-566,846	800,000	0,060	0,158
-565,831	-89,385	0,100	0,022
-564,817	-31,973	-0,105	0,043
-563,802	289,962	0,042	-0,057
-562,788	800,000	-0,023	0,052
-561,773	72,166	0,121	0,093
-560,758	-200,000	-0,014	-0,052
-559,744	-200,000	-0,010	-0,077
-558,729	80,027	-0,096	0,076
-557,715	401,946	-0,030	-0,047
-556,700	-200,000	-0,004	-0,172
-555,685	-62,921	-0,101	-0,031
-554,671	47,036	-0,146	-0,100
-553,656	24,236	0,015	-0,009
-552,642	-200,000	0,005	0,158
-551,627	606,197	-0,046	0,085
-550,612	-29,909	0,075	0,031
-549,598	800,000	-0,068	-0,161
-548,583	-35,561	-0,057	0,023
-547,569	-200,000	0,007	0,110
-546,554	312,497	0,046	-0,065
-545,539	-200,000	0,010	0,047
-544,525	152,152	0,054	0,055
-543,510	-28,891	-0,137	0,058
-542,496	-88,227	-0,116	-0,025
-541,481	-200,000	-0,018	-0,233
-540,466	255,054	0,080	0,101
-539,452	-10,402	0,157	0,077
-538,437	746,006	0,037	0,075
-537,423	-200,000	0,002	0,083
-536,408	-71,210	-0,041	-0,011
-535,393	800,000	0,029	0,059
-534,379	540,027	-0,059	-0,104
-533,364	234,723	0,052	0,063
-532,350	634,806	-0,044	-0,082
-531,335	-200,000	0,007	0,038
-530,321	324,263	0,084	-0,119
-529,306	263,506	0,076	-0,098
-528,291	-58,615	0,082	0,026
-527,277	580,077	-0,075	-0,137
-526,262	-151,831	0,129	0,007
-525,248	-142,802	-0,036	-0,003
-524,233	-200,000	0,003	0,011
-523,218	43,739	-0,027	0,019
-522,204	109,653	0,055	-0,049
-521,189	-48,393	-0,104	0,037
-520,175	-5,160	-0,118	0,060
-519,160	-175,893	0,020	-0,000
-518,145	-12,275	0,056	0,027
-517,131	-78,154	0,077	-0,019
-516,116	658,254	0,032	0,061
-515,102	28,097	0,030	-0,019
-514,087	54,481	0,099	-0,070
-513,072	31,764	-0,098	0,062
-512,058	250,226	-0,061	-0,077
-511,043	-200,000	-0,007	-0,070
-510,029	85,137	0,084	0,068
-509,014	-108,444	-0,223	-0,035
-507,999	77,135	0,109	0,085
-506,985	452,326	0,031	-0,051
-505,970	237,538	-0,076	-0,093
-504,956	800,000	-0,059	0,146
-503,941	-128,130	0,023	0,002
-502,926	-23,248	0,179	0,079
-501,912	-50,863	-0,023	0,008
-500,897	246,792	0,106	0,133
-499,883	79,954	0,066	-0,053
-498,868	-31,563	-0,141	-0,058
-497,853	686,880	-0,047	-0,091
-496,839	-129,549	0,080	0,008
-495,824	245,065	0,045	0,056
-494,810	92,910	-0,072	0,060
-493,795	-133,567	0,183	0,017
-492,781	34,040	-0,078	-0,050
-491,766	279,822	0,032	-0,042
-490,751	-63,414	-0,126	0,038
-489,737	-103,490	0,082	-0,014
-488,722	48,113	-0,063	-0,043
-487,708	800,000	0,021	0,053
-486,693	100,517	-0,055	-0,047
-485,678	-51,915	-0,081	0,028
-484,664	61,595	-0,125	-0,092
-483,649	-18,127	0,105	-0,048
-482,635	-67,631	0,168	-0,048
-481,620	-44,288	0,101	-0,037
-480,605	178,325	0,016	0,017
-479,591	-115,677	-0,113	-0,015
-478,576	-42,007	-0,113	0,042
-477,562	-103,625	-0,143	0,025
-476,547	-200,000	-0,001	-0,074
-475,532	71,287	-0,081	-0,062
-474,518	-124,194	-0,091	-0,010
-473,503	-200,000	-0,012	-0,062
-472,489	-114,661	0,114	-0,016
-471,474	-200,000	0,006	0,082
-470,459	-200,000	-0,012	-0,050
-469,445	-113,845	-0,067	-0,009
-468,430	121,134	0,013	0,011
-467,416	347,228	-0,034	-0,050
-466,401	51,923	0,045	0,031
-465,386	-200,000	0,006	0,101
-464,372	-179,146	0,057	-0,001
-463,357	-200,000	0,010	-0,091
-462,343	70,760	0,066	-0,050
-461,328	-200,000	-0,002	-0,112
-460,313	138,370	0,085	-0,082
-459,299	800,000	-0,054	0,125
-458,284	86,472	0,148	-0,120
-457,270	800,000	0,013	-0,039
-456,255	-200,000	-0,048	-0,160
-455,241	-200,000	-0,017	-0,128
-454,226	306,089	-0,079	0,108
-453,211	196,326	0,009	0,011
-452,197	-136,669	0,088	0,007
-451,182	-200,000	0,021	0,125
-450,168	-200,000	0,035	0,140
-449,153	-5,081	-0,087	-0,044
-448,138	-54,443	0,014	0,005
-447,124	-200,000	0,003	-0,105
-446,109	-200,000	0,013	0,069
-445,095	-115,438	-0,059	-0,008
-444,080	-145,742	0,180	-0,012
-443,065	304,828	0,064	-0,088
-442,051	800,000	0,020	0,051
-441,036	111,488	-0,090	0,080
-440,022	166,843	-0,041	-0,043
-439,007	-200,000	-0,003	-0,068
-437,992	-200,000	0,037	-0,123
-436,978	-200,000	0,006	0,020
-435,963	103,701	-0,072	0,062
-434,949	471,114	-0,054	0,089
-433,934	418,302	-0,089	-0,141
-432,919	5,777	-0,055	-0,030
-431,905	800,000	0,003	0,007
-430,890	-200,000	-0,005	0,056
-429,876	669,244	0,046	0,088
-428,861	800,000	-0,026	0,070
-427,846	-123,724	0,135	-0,015
-426,832	-200,000	-0,013	0,051
-425,817	-74,840	-0,059	0,016
-424,803	94,806	0,190	-0,159
-423,788	-129,275	-0,021	-0,002
-422,773	22,708	-0,074	-0,044
-421,759	6,790	0,060	-0,033
-420,744	280,734	0,024	0,032
-419,730	-200,000	0,021	0,148
-418,715	27,223	-0,076	0,047
-417,701	-200,000	-0,015	-0,141
-416,686	-103,223	0,077	-0,013
-415,671	-200,000	-0,019	0,083
-414,657	-22,923	0,133	-0,059
-413,642	-200,000	-0,000	0,019
-412,628	-129,721	0,054	-0,005
-411,613	-30,738	0,060	-0,025
-410,598	-9,287	-0,029	-0,014
-409,584	800,000	-0,027	0,074
-408,569	-200,000	-0,015	0,063
-407,555	48,686	-0,030	0,021
-406,540	800,000	0,038	-0,098
-405,525	-200,000	0,029	-0,115
-404,511	-200,000	0,017	-0,148
-403,496	-200,000	0,006	0,131
-402,482	800,000	0,045	-0,098
-401,467	294,345	0,081	0,110
-400,452	578,106	0,063	0,114
-399,438	-200,000	0,007	0,113
-398,423	-90,882	-0,091	0,019
-397,409	800,000	0,037	0,091
-396,394	140,656	-0,022	-0,022
-395,379	-164,557	-0,127	-0,004
-394,365	31,344	0,065	0,041
-393,350	419,682	0,025	0,039
-392,336	-200,000	-0,040	0,170
-391,321	79,003	0,103	0,081
-390,306	432,270	-0,063	-0,100
-389,292	800,000	-0,028	0,084
-388,277	18,741	0,087	0,051
-387,263	-200,000	0,001	-0,112
-386,248	149,961	0,126	0,125
-385,233	-128,808	-0,155	0,016
-384,219	-82,112	-0,044	-0,010
-383,204	-4,036	0,085	-0,043
-382,190	380,339	-0,095	-0,144
-381,175	-131,850	0,095	-0,009
-380,160	-69,862	0,060	0,017
-379,146	11,197	0,144	-0,081
-378,131	247,857	0,025	-0,032
-377,117	800,000	0,033	0,087
-376,102	-172,145	0,040	0,001
-375,088	115,686	0,123	0,110
-374,073	-200,000	0,023	0,145
-373,058	53,072	-0,047	-0,033
-372,044	155,300	-0,079	0,080
-371,029	-200,000	-0,019	0,089
-370,015	-116,661	0,098	0,013
-369,000	800,000	-0,055	0,150
-367,985	-200,000	-0,004	-0,096
-366,971	-200,000	-0,031	-0,105
-365,956	18,112	0,021	0,012
-364,942	-73,532	-0,131	-0,035
-363,927	62,291	0,058	-0,043
-362,912	-200,000	-0,009	0,065
-361,898	73,267	0,136	-0,104
-360,883	-200,000	0,013	-0,105
-359,869	62,717	-0,100	-0,074
-358,854	40,397	0,106	0,070
-357,839	-200,000	-0,030	0,222
-356,825	-200,000	0,039	0,132
-355,810	-200,000	-0,026	0,140
-354,796	46,001	-0,036	-0,024
-353,781	800,000	0,041	-0,122
-352,766	-162,085	-0,061	-0,002
-351,752	201,008	0,024	-0,027
-350,737	228,883	0,027	-0,033
-349,723	-48,388	0,095	0,033
-348,708	-200,000	0,010	0,037
-347,693	-200,000	0,004	-0,060
-346,679	-200,000	0,000	-0,036
-345,664	-139,131	0,030	-0,002
-344,650	-200,000	-0,006	0,165
-343,635	115,000	0,150	0,134
-342,620	800,000	-0,050	0,155
-341,606	800,000	-0,027	0,057
-340,591	2,910	0,007	-0,004
-339,577	800,000	0,017	-0,042
-338,562	-125,050	0,196	0,022
-337,548	213,618	-0,066	-0,077
-336,533	445,883	0,096	-0,155
-335,518	277,027	0,107	0,140
-334,504	-95,604	-0,019	0,004
-333,489	800,000	0,028	0,058
-332,475	-121,528	0,087	-0,010
-331,460	800,000	-0,025	0,055
-330,445	-200,000	0,005	-0,064
-329,431	-81,358	0,147	0,035
-328,416	-200,000	-0,030	0,156
-327,402	-39,514	-0,130	-0,050
-326,387	-115,522	0,059	0,008
-325,372	102,942	0,129	-0,111
-324,358	16,717	-0,030	0,017
-323,343	-200,000	-0,002	-0,022
-322,329	19,348	0,068	0,040
-321,314	-200,000	-0,024	0,113
-320,299	800,000	-0,024	0,056
-319,285	162,649	-0,048	-0,050
-318,270	-200,000	0,008	0,048
-317,256	17,040	-0,068	-0,039
-316,241	-200,000	0,007	-0,084
-315,226	68,697	0,044	0,033
-314,212	30,371	0,048	-0,030
-313,197	736,468	-0,028	0,055
-312,183	800,000	-0,030	0,063
-311,168	104,245	0,128	0,110
-310,153	-135,066	-0,082	-0,007
-309,139	-200,000	-0,002	0,050
-308,124	681,327	-0,027	-0,051
-307,110	623,687	0,042	-0,077
-306,095	83,640	0,022	0,018
-305,080	800,000	0,022	0,066
-304,066	-200,000	0,021	-0,074
-303,051	-123,255	-0,112	-0,013
-302,037	228,376	-0,076	-0,091
-301,022	-51,506	-0,083	0,028
-300,008	-200,000	0,005	-0,065
-298,993	-40,753	-0,111	0,042
-297,978	114,388	0,090	0,081
-296,964	-200,000	0,026	-0,089
-295,949	-94,901	0,002	-0,000
-294,935	-138,844	0,144	0,011
-293,920	-200,000	-0,011	0,127
-292,905	704,692	0,053	-0,103
-291,891	800,000	0,025	0,074
-290,876	366,903	-0,098	0,145
-289,862	364,992	-0,023	0,034
-288,847	-144,155	-0,046	0,003
-287,832	357,501	0,009	-0,013
-286,818	-54,590	-0,084	0,028
-285,803	187,697	-0,073	-0,080
-284,789	471,073	0,069	0,115
-283,774	-200,000	-0,024	0,088
-282,759	800,000	0,037	-0,116
-281,745	-104,294	-0,075	0,013
-280,730	-200,000	-0,023	-0,082
-279,716	-68,772	-0,150	-0,042
-278,701	-137,898	0,101	0,008
-277,686	106,191	0,039	0,034
-276,672	-200,000	-0,008	0,028
-275,657	-200,000	-0,022	0,085
-274,643	-200,000	0,001	0,062
-273,628	80,175	0,035	0,027
-272,613	-200,000	0,006	0,021
-271,599	286,890	0,048	-0,064
-270,584	468,535	0,042	0,070
-269,570	-200,000	0,000	0,057
-268,555	166,408	0,103	-0,106
-267,540	-27,151	-0,117	0,050
-266,526	4,878	0,082	-0,044
-265,511	-200,000	-0,032	0,136
-264,497	-200,000	-0,013	0,069
-263,482	76,538	0,082	0,063
-262,467	-101,812	-0,105	0,018
-261,453	563,276	0,024	0,043
-260,438	96,496	-0,035	0,029
-259,424	526,080	-0,063	-0,108
-258,409	-200,000	0,016	0,091
-257,395	-152,825	0,171	-0,009
-256,380	138,721	0,067	-0,065
-255,365	-115,455	0,017	-0,002
-254,351	-84,847	0,040	-0,009
-253,336	147,901	0,092	0,090
-252,322	-7,334	0,013	0,006
-251,307	-150,019	0,059	-0,003
-250,292	800,000	-0,025	-0,061
-249,278	94,777	0,023	-0,019
-248,263	-199,588	0,130	-0,000
-247,249	800,000	0,028	0,090
-246,234	-86,331	0,058	0,013
-245,219	115,832	-0,046	-0,042
-244,205	-200,000	-0,001	-0,088
-243,190	373,360	0,065	-0,097
-242,176	-3,782	0,085	-0,043
-241,161	-200,000	-0,011	-0,093
-240,146	43,628	-0,147	-0,098
-239,132	800,000	-0,010	0,031
-238,117	-110,666	-0,102	-0,015
-237,103	201,033	0,034	-0,038
-236,088	182,771	0,019	-0,020
-235,073	-200,000	-0,013	-0,111
-234,059	31,467	0,072	0,045
-233,044	130,141	0,093	-0,087
-232,030	-22,035	-0,080	0,035
-231,015	99,669	-0,040	0,034
-230,000	182,136	0,094	-0,102
-228,986	-200,000	-0,006	-0,179
-227,971	39,048	-0,051	-0,034
-226,957	82,997	0,077	0,061
-225,942	-100,059	0,128	0,023
-224,927	-172,535	-0,017	-0,000
-223,913	143,363	-0,122	-0,118
-222,898	-183,175	-0,099	0,001
-221,884	-200,000	-0,053	0,265
-220,869	31,938	-0,070	-0,044
-219,855	-169,456	0,122	0,003
-218,840	-200,000	0,011	0,096
-217,825	36,405	-0,067	0,043
-216,811	-200,000	-0,008	-0,039
-215,796	800,000	0,054	-0,153
-214,782	-200,000	-0,024	-0,084
-213,767	-200,000	0,016	0,060
-212,752	676,688	0,038	0,073
-211,738	-99,213	-0,030	-0,006
-210,723	-200,000	0,005	-0,021
-209,709	134,171	-0,128	-0,121
-208,694	68,738	-0,064	0,048
-207,679	117,980	-0,061	-0,055
-206,665	800,000	-0,037	0,096
-205,650	-90,616	-0,080	-0,017
-204,636	91,603	-0,106	0,087
-203,621	-200,000	0,013	-0,075
-202,606	800,000	0,025	-0,076
-201,592	-200,000	-0,050	-0,183
-200,577	-200,000	-0,018	0,135
-199,563	-114,150	-0,064	0,009
-198,548	117,393	0,036	0,033
-197,533	-33,907	0,147	0,059
-196,519	-20,914	-0,119	-0,053
-195,504	-200,000	0,009	0,046
-194,490	-200,000	0,006	-0,084
-193,475	340,707	-0,083	-0,118
-192,460	36,528	-0,011	-0,007
-191,446	-19,739	0,126	-0,057
-190,431	-200,000	0,009	0,153
-189,417	735,161	0,049	0,096
-188,402	-38,854	-0,127	0,049
-187,387	49,074	0,051	0,035
-186,373	800,000	-0,060	0,122
-185,358	269,747	-0,097	0,125
-184,344	-71,209	0,189	-0,051
-183,329	800,000	-0,050	0,140
-182,315	48,478	0,091	0,062
-181,300	-200,000	-0,002	0,097
-180,285	342,993	-0,087	0,124
-179,271	166,120	-0,063	0,065
-178,256	-100,797	-0,034	-0,006
-177,242	-131,908	0,067	-0,006
-176,227	90,164	-0,042	0,034
-175,212	10,692	-0,111	0,062
-174,198	227,769	-0,081	-0,097
-173,183	-200,000	0,001	0,033
-172,169	26,542	-0,156	-0,095
-171,154	-200,000	0,017	0,068
-170,139	-200,000	-0,016	0,057
-169,125	2,921	-0,016	0,008
-168,110	177,367	-0,065	0,069
-167,096	45,105	-0,165	-0,111
-166,081	774,341	0,110	-0,219
-165,066	800,000	-0,061	-0,157
-164,052	-200,000	-0,023	-0,098
-163,037	800,000	0,039	0,086
-162,023	203,441	0,081	-0,092
-161,008	108,742	-0,051	0,045
-159,993	-200,000	0,003	-0,047
-158,979	523,295	0,044	0,076
-157,964	-200,000	0,014	-0,074
-156,950	-200,000	-0,052	-0,169
-155,935	12,609	-0,147	0,082
-154,920	-117,636	-0,034	-0,004
-153,906	277,379	0,111	-0,144
-152,891	-97,172	-0,055	0,010
-151,877	297,715	-0,040	-0,054
-150,862	75,478	-0,034	-0,026
-149,847	-200,000	-0,001	0,011
-148,833	800,000	0,046	0,103
-147,818	800,000	-0,046	0,099
-146,804	129,434	-0,065	-0,060
-145,789	345,538	-0,045	0,065
-144,775	-96,490	-0,060	-0,011
-143,760	589,871	-0,041	-0,073
-142,745	16,489	-0,112	0,064
-141,731	113,447	0,075	0,066
-140,716	132,769	-0,077	-0,072
-139,702	-17,542	0,038	0,017
-138,687	-200,000	0,020	0,079
-137,672	109,971	0,119	-0,104
-136,658	-85,818	-0,187	-0,042
-135,643	251,693	-0,078	0,096
-134,629	24,026	0,154	-0,092
-133,614	-144,243	-0,046	0,003
-132,599	149,229	-0,027	0,026
-131,585	-200,000	-0,029	0,108
-130,570	438,215	-0,037	-0,060
-129,556	-200,000	-0,013	0,082
-128,541	320,145	-0,087	0,120
-127,526	-73,385	0,083	-0,022
-126,512	-45,592	-0,101	0,036
-125,497	230,836	0,029	-0,034
-124,483	93,698	0,027	-0,022
-123,468	448,391	0,067	-0,107
-122,453	-6,016	-0,080	-0,039
-121,439	800,000	0,030	-0,064
-120,424	-200,000	0,063	-0,211
-119,410	-166,875	0,046	0,001
-118,395	141,523	0,066	0,063
-117,380	364,808	-0,005	-0,007
-116,366	-23,804	-0,073	-0,032
-115,351	261,803	-0,061	-0,078
-114,337	-200,000	0,019	0,062
-113,322	131,503	0,039	0,037
-112,307	-128,970	-0,059	-0,006
-111,293	-23,742	-0,042	0,018
-110,278	-200,000	-0,008	0,142
-109,264	800,000	0,062	0,147
-108,249	384,917	0,048	0,072
-107,234	-200,000	0,008	-0,033
-106,220	-200,000	-0,014	-0,295
-105,205	14,209	0,126	-0,071
-104,191	-181,226	-0,087	-0,001
-103,176	-120,721	0,179	0,022
-102,162	105,646	-0,023	0,020
-101,147	-200,000	0,002	0,066
-100,132	-81,442	-0,179	0,043
-99,118	-200,000	-0,001	0,064
-98,103	117,075	-0,030	0,027
-97,089	800,000	-0,034	0,086
-96,074	-67,989	-0,016	0,004
-95,059	-200,000	-0,004	0,035
-94,045	29,825	-0,093	-0,057
-93,030	-200,000	0,016	-0,123
-92,016	-75,595	-0,056	0,014
-91,001	-200,000	0,031	0,122
-89,986	-200,000	-0,004	-0,027
-88,972	-117,301	0,103	0,013
-87,957	705,343	-0,033	0,064
-86,943	-200,000	0,025	0,140
-85,928	800,000	-0,025	-0,075
-84,913	-81,293	0,072	-0,017
-83,899	-46,474	-0,049	-0,017
-82,884	3,993	0,038	0,020
-81,870	-40,824	-0,106	0,040
-80,855	-200,000	0,017	0,060
-79,840	130,752	0,024	0,022
-78,826	-94,041	-0,005	0,001
-77,811	800,000	0,028	-0,058
-76,797	169,671	0,128	0,133
-75,782	-16,124	0,101	0,046
-74,767	-200,000	0,007	0,035
-73,753	404,100	-0,080	-0,123
-72,738	-200,000	-0,004	0,019
-71,724	-135,108	-0,068	-0,006
-70,709	17,617	-0,030	0,017
-69,694	-200,000	-0,025	0,100
-68,680	-37,824	-0,073	0,028
-67,665	800,000	0,030	-0,070
-66,651	70,887	0,025	0,018
-65,636	-151,247	0,090	0,005
-64,622	-79,662	0,060	-0,015
-63,607	-177,282	-0,102	0,002
-62,592	-200,000	-0,017	-0,067
-61,578	-200,000	-0,014	0,114
-60,563	46,938	-0,029	-0,020
-59,549	-200,000	0,013	0,077
-58,534	-151,696	-1,361	-0,072
-57,519	549,541	-0,769	-1,343
-56,505	-200,000	-0,776	-4,282
-55,490	-4,430	0,582	-0,291
-54,476	800,000	4,963	11,750
-53,461	-200,000	13,981	254,023
-52,446	-200,000	693,936	2262,969
-51,432	599,947	1624,300	2936,787
-50,417	117,768	1633,508	1458,930
-49,403	73,549	1287,323	976,903
-48,388	37,403	1023,669	656,937
-47,373	23,952	981,973	585,923
-46,359	23,139	971,570	577,025
-45,344	22,124	967,213	571,099
-44,330	22,077	965,684	570,020
-43,315	21,982	964,180	568,799
-42,300	21,924	963,258	568,046
-41,286	21,934	962,325	567,503
-40,271	21,862	961,424	566,715
-39,257	21,865	960,422	566,115
-38,242	21,918	959,366	565,641
-37,227	21,924	958,635	565,207
-36,213	21,886	957,682	564,498
-35,198	21,804	956,975	563,794
-34,184	21,897	956,349	563,704
-33,169	21,832	955,453	562,945
-32,154	21,909	954,528	562,624
-31,140	21,955	953,481	562,133
-30,125	21,915	952,710	561,527
-29,111	21,927	951,841	561,033
-28,096	21,971	951,100	560,714
-27,082	21,919	950,411	560,119
-26,067	21,925	949,738	559,719
-25,052	21,933	949,071	559,329
-24,038	21,971	948,362	559,011
-23,023	21,894	947,853	558,441
-22,009	21,973	947,051	558,202
-20,994	21,851	946,457	557,440
-19,979	21,933	945,732	557,252
-18,965	21,897	945,234	556,822
-17,950	21,920	944,434	556,401
-16,936	21,856	943,816	555,811
-15,921	21,885	943,053	555,430
-14,906	21,799	942,355	554,726
-13,892	21,818	941,839	554,460
-12,877	21,820	941,074	553,994
-11,863	21,757	940,623	553,504
-10,848	21,768	940,224	553,283
-9,833	21,928	939,480	553,331
-8,819	21,876	938,981	552,850
-7,804	21,845	938,365	552,367
-6,790	21,720	938,004	551,737
-5,775	21,827	937,211	551,590
-4,760	21,757	936,492	550,920
-3,746	21,770	935,938	550,614
-2,731	21,612	935,192	549,656
-1,717	21,648	934,336	549,245
-0,702	21,601	933,797	548,757
0,313	21,451	933,068	548,683
1,327	23,882	930,696	554,883
2,342	31,446	809,123	502,914
3,356	26,171	509,837	307,842
4,371	1,855	374,800	195,261
5,386	-1,068	357,754	182,765
6,400	-1,992	351,691	178,532
7,415	-2,451	349,147	176,673
8,429	-2,436	347,756	175,971
9,444	-2,516	346,970	175,462
10,459	-2,455	346,224	175,142
11,473	-2,383	345,447	174,819
12,488	-2,501	344,910	174,391
13,502	-2,570	344,376	174,023
14,517	-2,538	343,979	173,846
15,531	-2,449	343,528	173,707
16,546	-2,324	343,100	173,622
17,561	-2,244	342,583	173,441
18,575	-2,201	342,172	173,268
19,590	-2,352	341,937	172,956
20,604	-2,241	341,556	172,877
21,619	-2,295	341,125	172,580
22,634	-2,275	340,715	172,382
23,648	-2,355	340,426	172,126
24,663	-2,417	340,113	171,880
25,677	-2,227	339,758	171,907
26,692	-2,305	339,539	171,690
27,707	-2,109	339,157	171,711
28,721	-2,256	338,694	171,289
29,736	-2,363	338,587	171,095
30,750	-2,329	338,341	170,995
31,765	-2,311	337,982	170,820
32,780	-2,448	337,734	170,521
33,794	-2,336	337,455	170,494
34,809	-2,251	337,092	170,394
35,823	-2,345	336,948	170,196
36,838	-2,293	336,420	169,975
37,853	-2,274	336,270	169,906
38,867	-2,412	336,067	169,628
39,882	-2,104	335,675	169,771
40,896	-2,318	335,490	169,416
41,911	-2,269	335,108	169,264
42,926	-2,272	334,893	169,137
43,940	-2,417	334,771	168,894
44,955	-2,438	334,332	168,633
45,969	-2,376	334,234	168,640
46,984	-2,311	333,896	168,528
47,999	-2,367	333,869	168,436
49,013	-2,333	333,441	168,244
50,028	-2,357	333,188	168,073
51,042	-2,391	332,834	167,841
52,057	-2,578	332,659	167,525
53,071	-2,435	332,390	167,537
54,086	-2,426	332,158	167,416
55,101	-2,269	331,729	167,363
56,115	-2,458	331,627	167,082
57,130	-2,315	331,312	167,071
58,144	-2,415	331,070	166,821
59,159	-2,334	330,771	166,746
60,174	-2,350	330,568	166,611
61,188	-2,419	330,238	166,352
62,203	-2,203	329,916	166,419
63,217	-2,242	329,751	166,277
64,232	-2,309	329,515	166,068
65,247	-2,399	329,206	165,795
66,261	-2,395	328,867	165,615
67,276	-2,325	328,661	165,575
68,290	-2,339	328,359	165,392
69,305	-2,359	328,076	165,212
70,320	-2,271	327,880	165,197
71,334	-2,251	327,682	165,106
72,349	-2,356	327,536	164,899
73,363	-2,313	327,150	164,739
74,378	-2,309	326,844	164,575
75,393	-2,300	326,625	164,460
76,407	-2,379	326,562	164,324
77,422	-2,408	326,133	164,062
78,436	-2,299	326,032	164,119
79,451	-2,308	325,552	163,851
80,466	-2,392	325,377	163,656
81,480	-2,302	325,117	163,610
82,495	-2,291	324,969	163,534
83,509	-2,291	324,752	163,410
84,524	-2,140	324,296	163,334
85,539	-2,248	324,247	163,174
86,553	-2,402	323,918	162,823
87,568	-2,321	323,744	162,811
88,582	-2,422	323,604	162,614
89,597	-2,392	323,278	162,469
90,611	-2,426	323,031	162,293
91,626	-2,283	322,851	162,346
92,641	-2,299	322,484	162,130
93,655	-2,144	322,239	162,163
94,670	-2,380	322,135	161,837
95,684	-2,381	321,807	161,656
96,699	-2,379	321,547	161,512
97,714	-2,375	321,328	161,393
98,728	-2,382	321,194	161,303
99,743	-2,219	320,765	161,252
100,757	-2,292	320,701	161,125
101,772	-2,311	320,431	160,955
102,787	-2,412	320,238	160,734
103,801	-2,404	320,073	160,644
104,816	-2,360	319,798	160,541
105,830	-2,154	319,443	160,573
106,845	-2,290	319,269	160,323
107,860	-2,378	319,035	160,096
108,874	-2,256	318,770	160,080
109,889	-2,452	318,655	159,795
110,903	-2,437	318,453	159,696
111,918	-2,396	318,141	159,570
112,933	-2,311	317,894	159,524
113,947	-2,204	317,686	159,522
114,962	-2,424	317,578	159,214
115,976	-2,298	317,142	159,118
116,991	-2,221	317,036	159,134
118,006	-2,338	316,802	158,876
119,020	-2,313	316,642	158,809
120,035	-2,360	316,590	158,717
121,049	-2,176	316,277	158,745
122,064	-2,218	315,896	158,495
123,079	-2,263	315,728	158,347
124,093	-2,273	315,389	158,153
125,108	-2,337	315,227	157,988
126,122	-2,143	314,903	158,021
127,137	-2,326	314,859	157,787
128,151	-2,262	314,640	157,732
129,166	-2,359	314,430	157,508
130,181	-2,353	314,159	157,365
131,195	-2,380	313,917	157,201
132,210	-2,312	313,641	157,122
133,224	-2,259	313,328	157,008
134,239	-2,304	313,107	156,835
135,254	-2,370	313,021	156,708
136,268	-2,230	312,673	156,669
137,283	-2,269	312,536	156,545
138,297	-2,279	312,249	156,376
139,312	-2,327	312,037	156,204
140,327	-2,440	311,830	155,967
141,341	-2,231	311,698	156,109
142,356	-2,295	311,422	155,889
143,370	-2,249	311,242	155,835
144,385	-2,184	311,018	155,776
145,400	-2,209	310,801	155,628
146,414	-2,205	310,477	155,456
147,429	-2,296	310,336	155,275
148,443	-2,350	310,238	155,156
149,458	-2,307	309,883	155,009
150,473	-2,200	309,868	155,101
151,487	-2,345	309,468	154,734
152,502	-2,245	309,234	154,708
153,516	-2,183	309,188	154,737
154,531	-2,263	308,819	154,454
155,546	-2,423	308,736	154,231
156,560	-2,209	308,427	154,288
157,575	-2,249	308,260	154,148
158,589	-2,314	307,958	153,915
159,604	-2,278	307,674	153,797
160,619	-2,122	307,552	153,885
161,633	-2,189	307,324	153,688
162,648	-2,217	307,235	153,600
163,662	-2,230	307,019	153,466
164,677	-2,292	306,798	153,277
165,692	-2,316	306,582	153,130
166,706	-2,156	306,282	153,133
167,721	-2,134	306,219	153,111
168,735	-2,152	305,983	152,960
169,750	-2,236	305,833	152,784
170,764	-2,209	305,465	152,615
171,779	-1,977	305,353	152,787
172,794	-2,269	305,238	152,412
173,808	-2,276	305,107	152,326
174,823	-2,323	304,757	152,089
175,837	-2,329	304,479	151,931
176,852	-2,365	304,370	151,825
177,867	-2,130	304,006	151,872
178,881	-2,345	304,080	151,674
179,896	-2,194	303,926	151,740
180,910	-2,195	303,407	151,466
181,925	-2,098	303,316	151,507
182,940	-2,232	303,186	151,291
183,954	-2,304	302,865	151,043
184,969	-2,128	302,714	151,135
185,983	-2,089	302,606	151,108
186,998	-2,132	302,424	150,960
188,013	-2,214	302,122	150,711
189,027	-2,204	301,861	150,577
190,042	-2,175	301,640	150,483
191,056	-2,257	301,396	150,265
192,071	-2,165	301,173	150,234
193,086	-2,286	301,013	150,017
194,100	-2,216	300,966	150,051
195,115	-2,259	300,671	149,848
196,129	-2,068	300,321	149,855
197,144	-2,144	300,232	149,719
198,159	-2,126	299,787	149,502
199,173	-2,323	299,802	149,296
200,188	-2,276	299,573	149,217
201,202	-2,241	299,336	149,120
202,217	-2,326	299,158	148,933
203,232	-2,263	298,738	148,774
204,246	-2,249	298,581	148,697
205,261	-2,253	298,600	148,688
206,275	-2,060	298,399	148,771
207,290	-2,140	298,159	148,556
208,304	-2,040	297,950	148,540
209,319	-2,036	297,746	148,429
210,334	-2,293	297,503	148,036
211,348	-2,216	297,320	148,009
212,363	-2,230	297,161	147,902
213,377	-2,003	296,916	147,996
214,392	-2,135	296,686	147,736
215,407	-2,114	296,479	147,640
216,421	-2,103	296,218	147,508
217,436	-2,260	296,037	147,247
218,450	-2,133	295,873	147,280
219,465	-2,192	295,706	147,124
220,480	-2,315	295,604	146,938
221,494	-2,161	295,376	146,965
222,509	-2,136	295,245	146,912
223,523	-2,147	295,135	146,834
224,538	-2,143	294,809	146,662
225,553	-2,183	294,680	146,545
226,567	-2,140	294,424	146,447
227,582	-2,167	294,324	146,357
228,596	-1,994	293,977	146,344
229,611	-2,197	293,948	146,115
230,626	-2,011	293,589	146,107
231,640	-2,188	293,495	145,872
232,655	-2,308	293,342	145,664
233,669	-2,186	293,058	145,632
234,684	-2,278	292,956	145,477
235,699	-2,323	292,723	145,304
236,713	-2,183	292,553	145,344
237,728	-2,420	292,528	145,085
238,742	-2,272	292,103	145,007
239,757	-2,219	291,896	144,943
240,772	-2,338	291,786	144,758
241,786	-2,346	291,475	144,584
242,801	-2,142	291,277	144,673
243,815	-2,242	291,208	144,528
244,830	-2,235	290,921	144,379
245,844	-2,332	290,850	144,235
246,859	-2,330	290,722	144,162
247,874	-2,356	290,299	143,913
248,888	-2,176	290,094	143,975
249,903	-2,368	289,984	143,719
250,917	-2,314	289,754	143,646
251,932	-2,164	289,574	143,690
252,947	-2,263	289,298	143,444
253,961	-2,622	288,850	142,859
254,976	-3,051	288,764	142,386
255,990	-3,299	288,503	142,004
257,005	-2,679	288,801	142,741
258,020	-0,445	289,592	145,300
259,034	1,095	289,878	146,933
260,049	1,748	289,810	147,522
261,063	2,130	289,809	147,880
262,078	2,424	289,720	148,108
263,093	2,692	289,652	148,321
264,107	2,847	289,601	148,432
265,122	3,157	289,395	148,615
266,136	3,312	289,375	148,741
267,151	3,262	289,115	148,547
268,166	3,277	289,029	148,503
269,180	3,256	288,721	148,311
270,195	3,249	288,572	148,216
271,209	3,239	288,215	148,009
272,224	3,050	288,135	147,771
273,239	2,953	288,087	147,641
274,253	2,923	287,698	147,398
275,268	2,930	287,475	147,278
276,282	2,869	287,262	147,097
277,297	2,910	287,132	147,056
278,312	2,906	287,013	146,979
279,326	3,045	286,796	146,988
280,341	3,077	286,620	146,916
281,355	2,971	286,444	146,711
282,370	2,998	286,159	146,578
283,384	3,025	285,929	146,472
284,399	3,014	285,795	146,380
285,414	2,869	285,683	146,172
286,428	2,717	285,490	145,914
287,443	2,756	285,279	145,830
288,457	2,639	285,139	145,634
289,472	2,819	284,838	145,639
290,487	2,784	284,568	145,455
291,501	2,707	284,387	145,276
292,516	2,840	284,213	145,301
293,530	2,656	284,198	145,105
294,545	2,741	284,041	145,092
295,560	2,461	283,726	144,652
296,574	2,529	283,621	144,651
297,589	2,613	283,304	144,556
298,603	2,625	283,084	144,442
299,618	2,789	282,954	144,518
300,633	2,870	282,863	144,535
301,647	2,661	282,799	144,292
302,662	2,870	282,381	144,263
303,676	2,813	282,421	144,217
304,691	3,064	282,160	144,308
305,706	3,119	282,117	144,325
306,720	3,135	281,860	144,195
307,735	3,055	281,724	144,038
308,749	2,982	281,613	143,900
309,764	3,157	281,290	143,886
310,779	3,107	281,134	143,747
311,793	3,097	280,885	143,597
312,808	2,827	280,738	143,256
313,822	2,897	280,559	143,218
314,837	3,008	280,266	143,159
315,852	2,742	280,271	142,900
316,866	3,078	279,884	143,004
317,881	2,959	279,632	142,751
318,895	2,907	279,640	142,694
319,910	2,790	279,439	142,470
320,925	2,869	279,217	142,417
321,939	2,896	278,999	142,318
322,954	3,080	278,948	142,451
323,968	2,928	278,826	142,235
324,983	3,162	278,481	142,264
325,997	3,051	278,392	142,102
327,012	2,969	278,373	142,004
328,027	3,099	278,100	141,972
329,041	3,116	277,884	141,865
330,056	3,097	277,797	141,790
331,070	3,125	277,638	141,723
332,085	3,048	277,383	141,508
333,100	3,163	277,158	141,487
334,114	2,966	277,075	141,250
335,129	3,116	276,825	141,249
336,143	3,052	276,683	141,105
337,158	3,159	276,353	141,022
338,173	3,143	276,228	140,931
339,187	3,025	276,004	140,696
340,202	3,014	276,008	140,675
341,216	2,997	275,800	140,542
342,231	2,993	275,567	140,407
343,246	3,123	275,385	140,421
344,260	3,200	275,309	140,440
345,275	3,106	275,039	140,204
346,289	3,232	274,872	140,222
347,304	3,048	274,618	139,910
348,319	2,982	274,609	139,833
349,333	3,275	274,339	139,952
350,348	3,112	274,138	139,687
351,362	3,090	273,937	139,552
352,377	3,279	273,887	139,687
353,392	3,026	273,688	139,343
354,406	3,013	273,463	139,204
355,421	191,530	1351,427	1432,137
356,435	154,640	1482,870	1432,268
