DTS Sentinel unit serial number:	SN410029Multiplexer serial number:	ORYXHardware model number:	OX2-SRSoftware version number:	ORYX F/W v4,00 Oryx Data Collector v3.7.2.0data status	okinstallation	B4 Nyhavnadifferential loss correction	single-endedforward channel	channel 2reverse channel	N/Adate	2023/12/16time	04:50:13forward acquisition time	300,00reverse acquisition time	0,00gamma	499,1914k internal	0,3128k external	0,3128temperature offset calibration	1,0000default loss term (dB/km)	0,3820temperature slope calibration	1,0000multiplexer offset coefficient	1,0000multiplexer slope coefficient	1,0000fibre end	0,00T internal ref (°C)	22,01T ext. ref 1 (°C)	7,19T ext. ref 2 (°C)	7,39length (m)	temperature (°C)	Stokes	anti-Stokes-744,400	-200,000	0,005	-0,102
-743,385	35,328	-0,105	0,068
-742,371	-200,000	-0,018	-0,094
-741,356	169,500	-0,183	0,194
-740,342	110,604	0,044	0,039
-739,327	-181,325	-0,170	-0,002
-738,312	-200,000	-0,026	-0,116
-737,298	-180,582	-0,235	-0,004
-736,283	-32,159	0,017	0,007
-735,269	49,898	-0,151	0,106
-734,254	327,586	0,080	-0,115
-733,239	-65,589	-0,476	-0,141
-732,225	-39,992	0,128	-0,049
-731,210	800,000	0,035	-0,100
-730,196	-44,708	-0,141	-0,052
-729,181	-200,000	0,006	-0,196
-728,167	565,006	0,035	0,064
-727,152	716,980	-0,055	-0,108
-726,137	800,000	-0,051	-0,109
-725,123	-7,020	-0,127	0,064
-724,108	-60,342	-0,115	0,036
-723,094	467,693	0,048	-0,080
-722,079	339,876	-0,037	-0,054
-721,064	190,668	0,054	-0,061
-720,050	47,274	-0,065	-0,045
-719,035	-10,768	-0,092	-0,045
-718,021	-28,345	0,036	-0,015
-717,006	-200,000	0,026	-0,168
-715,991	108,544	-0,075	0,067
-714,977	-75,709	0,048	-0,013
-713,962	-43,221	-0,128	-0,048
-712,948	-20,009	-0,058	0,027
-711,933	-200,000	0,055	0,191
-710,918	17,831	-0,102	0,060
-709,904	52,100	-0,058	-0,041
-708,889	-95,495	-0,125	-0,025
-707,875	17,485	0,065	0,038
-706,860	227,031	0,106	0,128
-705,845	19,156	0,050	0,029
-704,831	142,677	-0,114	-0,113
-703,816	-126,232	0,064	-0,007
-702,802	135,905	-0,017	-0,016
-701,787	237,589	-0,079	0,097
-700,772	237,739	0,046	-0,057
-699,758	14,530	-0,056	0,032
-698,743	147,827	-0,054	0,054
-697,729	153,063	0,026	0,027
-696,714	-200,000	-0,019	0,172
-695,699	-153,144	-0,069	0,004
-694,685	49,000	-0,088	-0,061
-693,670	105,524	0,058	-0,051
-692,656	-34,360	-0,042	-0,017
-691,641	47,515	0,079	0,054
-690,627	-200,000	-0,022	0,109
-689,612	534,979	0,086	0,152
-688,597	-134,650	0,111	-0,010
-687,583	-0,792	-0,176	-0,092
-686,568	-200,000	-0,004	-0,152
-685,554	-71,871	-0,091	0,025
-684,539	35,461	-0,047	0,031
-683,524	800,000	0,032	0,084
-682,510	-200,000	-0,091	0,000
-681,495	-11,346	0,070	-0,034
-680,481	-200,000	0,008	0,094
-679,466	-163,406	-0,125	-0,004
-678,451	89,865	-0,031	0,026
-677,437	-198,868	-0,107	0,000
-676,422	252,195	-0,179	0,227
-675,408	-200,000	-0,001	0,024
-674,393	775,684	0,069	-0,142
-673,378	-119,461	-0,148	0,019
-672,364	81,921	-0,083	-0,067
-671,349	155,019	-0,101	-0,103
-670,335	560,758	0,027	-0,050
-669,320	800,000	0,055	-0,147
-668,305	-62,831	-0,159	0,048
-667,291	465,896	0,024	0,039
-666,276	248,860	-0,065	0,082
-665,262	246,875	-0,060	0,075
-664,247	276,376	-0,052	-0,069
-663,232	-200,000	0,015	0,089
-662,218	-200,000	-0,022	0,113
-661,203	-200,000	0,009	0,043
-660,189	46,456	-0,031	-0,022
-659,174	51,924	-0,118	-0,083
-658,159	205,279	-0,168	-0,194
-657,145	101,653	0,080	-0,069
-656,130	-29,184	-0,045	-0,019
-655,116	281,383	-0,023	-0,031
-654,101	456,162	-0,049	0,081
-653,086	54,830	-0,025	-0,018
-652,072	-200,000	0,004	0,069
-651,057	167,951	-0,071	-0,075
-650,043	-18,360	-0,044	0,020
-649,028	100,914	-0,141	-0,121
-648,014	-66,020	0,045	0,013
-646,999	-200,000	-0,030	0,110
-645,984	-54,290	0,056	0,019
-644,970	-162,426	-0,108	-0,004
-643,955	795,467	-0,033	0,067
-642,941	493,342	-0,033	-0,056
-641,926	800,000	0,008	0,019
-640,911	-200,000	0,018	0,063
-639,897	-200,000	-0,021	-0,108
-638,882	28,814	-0,119	-0,075
-637,868	800,000	-0,026	-0,054
-636,853	-80,869	-0,062	-0,015
-635,838	261,306	-0,060	-0,077
-634,824	193,172	0,036	0,040
-633,809	800,000	-0,015	0,043
-632,795	259,561	-0,120	-0,154
-631,780	50,490	-0,069	-0,049
-630,765	73,877	0,112	-0,087
-629,751	-52,689	-0,137	-0,047
-628,736	94,503	-0,010	-0,009
-627,722	290,877	-0,021	0,029
-626,707	800,000	-0,059	0,122
-625,692	-70,856	-0,026	-0,007
-624,678	53,684	0,074	0,052
-623,663	-200,000	0,009	-0,105
-622,649	-200,000	-0,028	-0,107
-621,634	233,902	-0,040	-0,049
-620,619	800,000	-0,064	0,149
-619,605	92,258	-0,040	-0,034
-618,590	17,513	0,086	-0,050
-617,576	-200,000	0,036	0,131
-616,561	800,000	-0,040	-0,112
-615,546	703,400	0,091	-0,178
-614,532	-20,298	0,090	-0,041
-613,517	759,322	-0,052	-0,104
-612,503	-27,372	-0,134	0,057
-611,488	800,000	-0,062	0,137
-610,474	-200,000	-0,030	-0,135
-609,459	-109,853	0,139	-0,021
-608,444	11,136	-0,107	0,061
-607,430	-77,671	-0,048	0,012
-606,415	31,312	-0,111	-0,071
-605,401	601,029	-0,073	-0,135
-604,386	198,105	0,105	0,120
-603,371	70,511	0,050	-0,038
-602,357	92,083	0,060	0,050
-601,342	-200,000	-0,011	-0,089
-600,328	-200,000	0,024	-0,150
-599,313	518,208	-0,036	-0,063
-598,298	5,718	-0,123	-0,067
-597,284	313,888	-0,084	-0,117
-596,269	589,443	-0,047	-0,086
-595,255	800,000	-0,048	-0,126
-594,240	800,000	0,014	0,042
-593,225	56,695	-0,117	-0,084
-592,211	-82,366	-0,063	0,015
-591,196	800,000	-0,061	-0,142
-590,182	119,138	0,046	0,042
-589,167	800,000	0,014	0,033
-588,152	800,000	0,021	0,067
-587,138	245,913	-0,087	0,108
-586,123	-200,000	0,011	0,058
-585,109	60,611	-0,179	-0,131
-584,094	7,163	-0,034	-0,019
-583,079	52,278	0,019	-0,014
-582,065	63,645	0,047	-0,035
-581,050	-200,000	0,005	0,036
-580,036	-200,000	0,038	-0,162
-579,021	-12,965	-0,082	-0,039
-578,006	140,364	-0,160	-0,156
-576,992	13,280	0,093	-0,053
-575,977	-8,263	-0,119	-0,059
-574,963	417,524	-0,016	0,026
-573,948	-200,000	0,020	-0,068
-572,934	35,052	0,068	-0,044
-571,919	-129,956	0,042	-0,004
-570,904	-60,693	-0,143	-0,044
-569,890	12,258	0,113	-0,064
-568,875	-150,156	-0,166	0,009
-567,861	-200,000	-0,006	-0,035
-566,846	-200,000	0,004	0,056
-565,831	-69,067	0,053	-0,015
-564,817	-124,326	-0,013	0,001
-563,802	2,497	-0,116	-0,062
-562,788	-200,000	0,001	0,082
-561,773	84,163	0,134	0,108
-560,758	-96,423	0,091	0,018
-559,744	-200,000	0,028	-0,131
-558,729	-89,695	0,041	0,009
-557,715	-200,000	0,019	-0,158
-556,700	-200,000	-0,020	-0,243
-555,685	318,102	0,070	-0,098
-554,671	-69,361	-0,069	-0,019
-553,656	-58,859	-0,078	0,025
-552,642	-24,308	-0,087	-0,038
-551,627	-11,967	-0,144	-0,069
-550,612	800,000	-0,018	-0,042
-549,598	230,850	0,112	0,136
-548,583	-128,238	-0,049	0,005
-547,569	248,747	-0,076	-0,095
-546,554	800,000	0,034	-0,074
-545,539	-200,000	-0,017	0,059
-544,525	26,424	0,044	0,027
-543,510	328,190	-0,084	0,119
-542,496	-200,000	-0,017	-0,072
-541,481	-166,711	-0,115	0,003
-540,466	-113,298	-0,091	0,013
-539,452	319,192	-0,057	-0,080
-538,437	710,855	0,101	0,198
-537,423	-200,000	0,004	0,048
-536,408	-46,352	-0,070	-0,025
-535,393	-60,873	0,039	-0,012
-534,379	-153,288	0,106	0,005
-533,364	-200,000	-0,013	-0,071
-532,350	-200,000	-0,036	0,162
-531,335	-9,824	0,155	0,076
-530,321	672,248	0,020	0,039
-529,306	252,968	-0,109	-0,137
-528,291	-200,000	-0,007	0,098
-527,277	37,028	-0,051	-0,033
-526,262	-200,000	-0,009	-0,085
-525,248	51,271	-0,067	0,047
-524,233	348,430	0,028	0,040
-523,218	-74,970	-0,101	0,027
-522,204	-118,422	0,054	0,007
-521,189	-200,000	-0,037	-0,126
-520,175	-11,361	0,133	-0,064
-519,160	-200,000	-0,006	0,048
-518,145	168,035	0,066	0,069
-517,131	-200,000	-0,001	0,013
-516,116	800,000	-0,009	0,027
-515,102	269,996	0,049	0,064
-514,087	-43,262	0,036	-0,013
-513,072	87,736	-0,065	0,053
-512,058	-50,460	0,177	-0,061
-511,043	191,996	0,073	-0,081
-510,029	-167,156	0,226	-0,007
-509,014	74,028	0,071	0,055
-507,999	-200,000	-0,009	0,054
-506,985	-159,709	0,022	-0,001
-505,970	-120,299	-0,116	0,014
-504,956	-200,000	0,009	0,086
-503,941	-200,000	0,018	-0,061
-502,926	-200,000	-0,014	0,075
-501,912	98,777	0,038	0,032
-500,897	-200,000	-0,012	0,053
-499,883	-189,143	0,145	-0,001
-498,868	-110,193	-0,106	0,016
-497,853	185,769	0,039	0,043
-496,839	77,582	-0,056	-0,044
-495,824	800,000	0,023	0,049
-494,810	800,000	0,046	-0,096
-493,795	558,736	-0,069	-0,123
-492,781	-200,000	-0,042	-0,204
-491,766	-65,423	-0,019	0,006
-490,751	800,000	0,063	-0,138
-489,737	630,025	-0,019	0,035
-488,722	-29,786	-0,062	0,026
-487,708	499,779	-0,036	-0,061
-486,693	283,503	0,041	-0,054
-485,678	294,271	0,042	-0,057
-484,664	60,151	-0,045	0,033
-483,649	-24,924	-0,019	0,008
-482,635	95,085	0,063	0,053
-481,620	129,247	0,033	-0,031
-480,605	424,907	0,056	-0,089
-479,591	-200,000	0,000	0,056
-478,576	28,117	-0,092	0,057
-477,562	800,000	-0,020	0,047
-476,547	-103,349	-0,038	-0,007
-475,532	45,507	0,104	0,071
-474,518	-109,088	0,203	0,032
-473,503	-136,752	0,060	0,005
-472,489	203,118	0,124	0,142
-471,474	800,000	0,034	0,073
-470,459	56,445	-0,064	0,046
-469,445	-13,329	-0,075	-0,036
-468,430	305,544	-0,052	-0,071
-467,416	-142,814	-0,138	-0,010
-466,401	-157,640	0,050	-0,002
-465,386	-200,000	-0,015	-0,053
-464,372	800,000	0,024	-0,073
-463,357	146,351	-0,057	-0,057
-462,343	-200,000	-0,045	-0,249
-461,328	-200,000	-0,016	0,076
-460,313	0,954	0,086	-0,045
-459,299	-200,000	-0,010	0,069
-458,284	12,573	-0,061	0,034
-457,270	-122,307	0,083	-0,010
-456,255	125,258	0,073	-0,068
-455,241	-200,000	-0,000	-0,029
-454,226	-44,171	-0,038	-0,014
-453,211	-200,000	0,000	-0,042
-452,197	457,747	0,042	-0,069
-451,182	237,298	0,064	-0,078
-450,168	-88,194	0,033	-0,007
-449,153	-193,193	-0,077	0,000
-448,138	-10,591	0,036	-0,017
-447,124	130,501	0,042	-0,040
-446,109	252,596	0,041	0,052
-445,095	9,849	-0,119	0,066
-444,080	225,890	0,064	0,077
-443,065	199,159	-0,075	-0,084
-442,051	-200,000	0,008	0,042
-441,036	800,000	0,012	0,028
-440,022	800,000	-0,025	-0,058
-439,007	-200,000	0,005	0,035
-437,992	-200,000	0,003	-0,069
-436,978	800,000	0,034	0,070
-435,963	-151,083	0,141	-0,008
-434,949	206,342	-0,033	-0,037
-433,934	-6,519	-0,150	-0,075
-432,919	140,164	-0,076	-0,074
-431,905	-199,692	0,147	0,001
-430,890	-200,000	-0,001	0,047
-429,876	-44,122	0,201	0,074
-428,861	-200,000	0,011	0,055
-427,846	67,695	0,085	0,064
-426,832	800,000	0,050	-0,107
-425,817	-127,588	-0,101	0,011
-424,803	800,000	0,006	0,015
-423,788	-122,268	-0,036	-0,004
-422,773	800,000	-0,060	0,130
-421,759	6,570	0,039	0,021
-420,744	146,689	0,092	-0,091
-419,730	800,000	-0,042	-0,092
-418,715	40,344	-0,035	-0,023
-417,701	162,015	-0,071	0,073
-416,686	-200,000	0,002	0,145
-415,671	800,000	0,045	0,123
-414,657	800,000	-0,044	0,121
-413,642	232,514	-0,110	0,133
-412,628	-159,067	-0,049	-0,002
-411,613	-200,000	-0,017	-0,074
-410,598	626,663	-0,067	-0,125
-409,584	-131,851	-0,041	0,004
-408,569	155,739	0,084	0,085
-407,555	-200,000	-0,034	0,118
-406,540	-41,434	0,085	-0,032
-405,525	-200,000	0,020	0,078
-404,511	231,531	-0,093	0,113
-403,496	-193,255	-0,137	0,001
-402,482	504,521	0,065	-0,112
-401,467	-200,000	0,002	0,099
-400,452	508,777	-0,059	0,102
-399,438	323,076	-0,028	0,040
-398,423	748,000	0,016	0,032
-397,409	-147,660	0,217	-0,013
-396,394	142,800	-0,104	-0,102
-395,379	800,000	-0,015	-0,035
-394,365	626,415	-0,033	0,061
-393,350	-66,746	-0,053	-0,015
-392,336	-157,454	0,103	-0,004
-391,321	86,265	-0,105	-0,085
-390,306	241,056	0,073	-0,089
-389,292	-200,000	-0,002	-0,047
-388,277	763,230	-0,038	-0,076
-387,263	800,000	0,043	0,091
-386,248	65,593	0,052	0,039
-385,233	-200,000	0,014	0,060
-384,219	446,319	0,016	-0,025
-383,204	-164,651	-0,060	0,002
-382,190	607,567	-0,021	-0,038
-381,175	-108,741	0,046	0,007
-380,160	-145,529	0,102	0,007
-379,146	-54,161	-0,106	0,035
-378,131	253,422	0,085	-0,107
-377,117	-200,000	-0,041	0,148
-376,102	-200,000	-0,004	-0,103
-375,088	-104,270	-0,024	0,004
-374,073	-200,000	-0,010	-0,073
-373,058	-200,000	0,014	0,204
-372,044	188,849	-0,037	-0,041
-371,029	-200,000	-0,008	0,037
-370,015	-200,000	0,002	-0,009
-369,000	400,499	-0,111	0,171
-367,985	545,479	0,005	0,008
-366,971	-200,000	-0,005	0,040
-365,956	-200,000	0,014	0,108
-364,942	-36,725	0,140	0,055
-363,927	-200,000	-0,021	0,080
-362,912	36,525	-0,088	-0,057
-361,898	-3,751	0,060	0,031
-360,883	66,501	-0,095	-0,071
-359,869	184,120	0,034	0,036
-358,854	800,000	-0,091	0,205
-357,839	411,332	0,051	-0,079
-356,825	267,981	0,043	0,055
-355,810	-18,294	-0,028	-0,013
-354,796	121,602	0,075	0,069
-353,781	-5,126	0,092	0,046
-352,766	417,678	-0,071	0,111
-351,752	138,687	-0,035	-0,033
-350,737	-33,503	0,183	0,074
-349,723	800,000	-0,042	0,117
-348,708	168,540	0,096	-0,101
-347,693	306,290	0,060	0,082
-346,679	800,000	0,009	0,027
-345,664	-61,913	-0,019	0,006
-344,650	25,029	-0,016	-0,010
-343,635	-200,000	0,020	0,139
-342,620	39,640	-0,007	-0,005
-341,606	196,537	-0,008	0,009
-340,591	88,635	-0,037	0,030
-339,577	-200,000	-0,005	-0,062
-338,562	800,000	-0,033	-0,075
-337,548	-200,000	-0,018	0,061
-336,533	800,000	0,016	0,045
-335,518	190,228	-0,064	0,071
-334,504	-200,000	-0,019	0,113
-333,489	234,183	0,034	0,041
-332,475	-200,000	-0,017	0,055
-331,460	-200,000	-0,041	0,173
-330,445	145,794	0,060	0,059
-329,431	800,000	-0,017	0,045
-328,416	104,221	0,098	-0,084
-327,402	-119,510	0,124	0,016
-326,387	-6,554	0,050	-0,025
-325,372	-137,540	-0,074	-0,006
-324,358	55,395	-0,082	-0,058
-323,343	751,192	0,035	-0,070
-322,329	-64,343	0,165	0,049
-321,314	-200,000	0,023	0,106
-320,299	-32,024	0,163	-0,067
-319,285	-2,971	-0,107	0,054
-318,270	-38,169	0,127	0,049
-317,256	205,537	-0,027	0,031
-316,241	51,324	0,027	-0,019
-315,226	41,227	0,096	0,063
-314,212	358,081	0,060	0,088
-313,197	800,000	0,054	0,141
-312,183	-200,000	-0,011	-0,046
-311,168	236,588	0,051	-0,062
-310,153	-33,572	0,069	0,028
-309,139	-16,981	-0,071	0,033
-308,124	-200,000	-0,003	0,030
-307,110	-200,000	-0,017	0,100
-306,095	167,423	0,086	0,089
-305,080	-10,051	0,065	0,031
-304,066	470,675	0,017	0,028
-303,051	-26,990	-0,083	0,035
-302,037	800,000	-0,030	-0,093
-301,022	107,191	0,062	-0,054
-300,008	250,281	0,029	-0,036
-298,993	256,679	-0,043	-0,054
-297,978	-200,000	0,018	-0,139
-296,964	800,000	-0,024	-0,054
-295,949	77,293	0,043	0,033
-294,935	-200,000	-0,018	0,105
-293,920	333,404	-0,052	0,073
-292,905	-200,000	-0,004	-0,027
-291,891	-200,000	-0,002	0,047
-290,876	-200,000	-0,011	0,212
-289,862	87,794	0,042	-0,034
-288,847	83,090	-0,079	-0,063
-287,832	800,000	0,029	0,062
-286,818	191,984	-0,064	0,070
-285,803	-200,000	0,008	-0,073
-284,789	607,359	0,104	0,190
-283,774	99,780	0,031	0,026
-282,759	-3,043	0,022	-0,011
-281,745	675,181	0,050	-0,096
-280,730	-200,000	-0,003	-0,078
-279,716	-26,830	-0,061	-0,026
-278,701	92,958	0,056	0,046
-277,686	-172,408	0,052	0,001
-276,672	23,816	0,101	-0,061
-275,657	21,157	-0,052	-0,031
-274,643	800,000	0,021	-0,067
-273,628	-200,000	0,031	-0,149
-272,613	119,857	0,090	0,081
-271,599	-70,354	-0,011	0,003
-270,584	-140,450	0,081	-0,006
-269,570	-56,156	0,043	0,014
-268,555	-114,489	0,105	0,015
-267,540	-63,481	-0,092	-0,028
-266,526	420,915	-0,057	0,090
-265,511	1,018	0,086	-0,045
-264,497	-112,837	0,067	0,010
-263,482	-47,391	0,099	0,035
-262,467	800,000	0,012	-0,027
-261,453	-89,908	0,094	-0,020
-260,438	130,439	-0,099	-0,093
-259,424	-200,000	-0,003	-0,024
-258,409	-200,000	0,000	0,011
-257,395	-142,929	-0,079	0,005
-256,380	-200,000	0,036	0,127
-255,365	149,467	0,071	0,070
-254,351	-200,000	-0,017	0,055
-253,336	-148,403	-0,099	-0,006
-252,322	118,261	-0,034	0,030
-251,307	-200,000	-0,005	0,042
-250,292	-23,607	0,127	0,055
-249,278	558,763	0,035	0,063
-248,263	800,000	-0,027	0,061
-247,249	-160,685	0,023	-0,001
-246,234	-200,000	0,016	0,065
-245,219	251,439	0,041	0,051
-244,205	332,079	-0,032	0,046
-243,190	800,000	0,029	0,086
-242,176	38,335	0,014	-0,009
-241,161	770,273	-0,049	0,098
-240,146	-126,281	-0,142	0,015
-239,132	139,753	-0,076	-0,074
-238,117	-200,000	0,034	-0,121
-237,103	-200,000	-0,014	-0,064
-236,088	-200,000	0,015	-0,099
-235,073	185,394	0,095	0,103
-234,059	-200,000	0,046	0,163
-233,044	185,339	0,054	0,058
-232,030	-200,000	0,021	-0,126
-231,015	56,715	0,048	-0,034
-230,000	28,996	-0,191	-0,118
-228,986	-200,000	0,015	-0,050
-227,971	-47,045	-0,096	-0,034
-226,957	109,671	0,123	-0,108
-225,942	-200,000	0,011	0,106
-224,927	-1,795	-0,051	-0,026
-223,913	-145,498	-0,056	0,004
-222,898	-200,000	0,010	0,080
-221,884	344,636	0,031	-0,045
-220,869	135,634	-0,135	0,128
-219,855	215,622	0,030	0,035
-218,840	68,001	0,058	-0,044
-217,825	-200,000	0,003	0,023
-216,811	800,000	-0,057	-0,160
-215,796	-200,000	0,018	-0,213
-214,782	-169,396	0,123	0,003
-213,767	-141,044	0,067	-0,005
-212,752	773,537	0,080	-0,160
-211,738	-200,000	0,003	0,030
-210,723	-200,000	0,013	0,099
-209,709	-39,958	0,057	-0,021
-208,694	-130,668	-0,088	0,009
-207,679	-157,178	0,036	-0,002
-206,665	484,425	0,031	0,051
-205,650	159,684	-0,049	0,050
-204,636	109,944	-0,062	0,054
-203,621	-91,173	-0,040	-0,008
-202,606	-200,000	-0,003	0,099
-201,592	-89,659	0,053	0,011
-200,577	-140,442	-0,039	0,003
-199,563	800,000	0,001	-0,004
-198,548	-200,000	-0,017	0,084
-197,533	-200,000	0,012	-0,097
-196,519	306,773	0,031	-0,042
-195,504	-200,000	-0,021	0,146
-194,490	-200,000	0,017	-0,126
-193,475	109,189	-0,114	-0,100
-192,460	-200,000	-0,003	0,096
-191,446	-200,000	0,005	0,039
-190,431	491,963	0,029	0,049
-189,417	800,000	0,050	-0,117
-188,402	-200,000	-0,009	0,036
-187,387	-128,130	-0,134	-0,014
-186,373	800,000	0,021	-0,067
-185,358	89,220	-0,054	0,043
-184,344	-98,159	0,075	-0,014
-183,329	130,123	-0,022	-0,021
-182,315	182,485	-0,047	0,051
-181,300	58,805	-0,027	0,019
-180,285	213,017	0,007	-0,008
-179,271	415,903	0,069	-0,107
-178,256	-163,705	-0,110	-0,004
-177,242	-200,000	0,068	0,253
-176,227	-200,000	0,016	-0,174
-175,212	35,238	0,087	-0,055
-174,198	-113,533	-0,021	-0,003
-173,183	47,851	-0,044	-0,030
-172,169	735,828	0,018	0,035
-171,154	-195,014	0,050	0,000
-170,139	-67,347	-0,017	0,005
-169,125	-171,420	-0,016	-0,000
-168,110	-200,000	-0,022	0,094
-167,096	-67,083	0,058	0,017
-166,081	50,556	0,013	-0,009
-165,066	5,572	-0,150	-0,080
-164,052	-200,000	-0,021	0,152
-163,037	655,850	-0,055	-0,103
-162,023	800,000	0,016	0,043
-161,008	-151,231	0,138	0,007
-159,993	629,282	-0,060	-0,111
-158,979	137,128	-0,073	0,069
-157,964	8,073	-0,073	0,040
-156,950	-106,434	0,202	-0,032
-155,935	120,106	-0,116	-0,105
-154,920	83,163	0,129	-0,102
-153,906	-70,567	-0,017	0,005
-152,891	-38,692	-0,070	0,027
-151,877	-50,281	-0,150	0,051
-150,862	162,690	-0,096	-0,098
-149,847	800,000	0,069	-0,154
-148,833	-200,000	0,005	-0,015
-147,818	-84,545	-0,064	-0,014
-146,804	-200,000	0,008	-0,165
-145,789	134,011	-0,071	-0,067
-144,775	-4,202	-0,083	0,042
-143,760	-105,336	0,049	-0,008
-142,745	-47,293	-0,006	-0,002
-141,731	-113,411	0,120	0,017
-140,716	309,972	0,051	0,070
-139,702	-95,253	0,063	-0,012
-138,687	96,453	0,087	-0,073
-137,672	296,293	-0,073	-0,098
-136,658	-42,156	-0,079	-0,029
-135,643	-83,301	-0,030	-0,007
-134,629	506,327	-0,010	-0,016
-133,614	162,750	0,006	-0,006
-132,599	-125,082	0,080	0,009
-131,585	118,238	0,102	0,091
-130,570	-200,000	-0,002	-0,022
-129,556	-68,529	-0,129	0,036
-128,541	-67,828	-0,010	0,003
-127,526	338,165	-0,064	-0,090
-126,512	-200,000	-0,014	0,096
-125,497	545,704	-0,018	0,031
-124,483	800,000	-0,037	0,076
-123,468	332,381	0,052	0,074
-122,453	225,598	-0,068	0,080
-121,439	-91,903	0,134	0,027
-120,424	56,040	-0,157	0,111
-119,410	-200,000	-0,005	0,020
-118,395	-35,436	0,091	-0,036
-117,380	-23,710	0,070	0,030
-116,366	-186,646	-0,059	-0,001
-115,351	800,000	0,027	-0,081
-114,337	800,000	-0,026	-0,082
-113,322	800,000	0,019	-0,045
-112,307	800,000	-0,035	-0,105
-111,293	-23,080	0,095	0,042
-110,278	-9,562	0,060	0,029
-109,264	800,000	0,071	-0,151
-108,249	-71,848	-0,043	-0,012
-107,234	-200,000	0,024	-0,094
-106,220	469,955	0,040	-0,065
-105,205	-200,000	0,024	0,189
-104,191	546,691	0,058	-0,101
-103,176	674,124	0,019	-0,035
-102,162	-93,609	0,105	0,021
-101,147	-82,815	0,132	-0,031
-100,132	-28,086	-0,156	0,065
-99,118	-127,821	-0,074	-0,008
-98,103	240,106	-0,088	-0,107
-97,089	-57,348	-0,011	-0,003
-96,074	-36,088	-0,036	0,014
-95,059	104,174	0,079	-0,068
-94,045	116,027	-0,061	-0,054
-93,030	-200,000	-0,001	-0,021
-92,016	142,349	0,059	-0,057
-91,001	135,530	0,021	-0,020
-89,986	60,822	-0,151	-0,109
-88,972	120,829	0,097	0,088
-87,957	656,864	-0,005	0,010
-86,943	578,168	0,017	0,030
-85,928	387,208	-0,053	-0,080
-84,913	490,610	-0,042	0,070
-83,899	-19,045	0,060	-0,027
-82,884	-22,302	0,141	0,062
-81,870	-2,124	-0,040	0,020
-80,855	-200,000	0,003	0,032
-79,840	-69,631	0,083	-0,023
-78,826	-200,000	-0,013	-0,070
-77,811	-18,089	0,084	0,038
-76,797	-20,847	-0,034	-0,015
-75,782	34,833	0,052	-0,033
-74,767	88,253	0,164	0,132
-73,753	-200,000	0,006	-0,076
-72,738	-3,647	-0,117	0,059
-71,724	-200,000	-0,002	-0,030
-70,709	-200,000	-0,048	-0,184
-69,694	-126,533	-0,150	0,016
-68,680	120,274	0,028	0,025
-67,665	-200,000	0,011	0,043
-66,651	164,649	-0,060	-0,061
-65,636	38,808	-0,041	0,026
-64,622	408,893	0,077	-0,118
-63,607	207,275	0,033	0,038
-62,592	-66,617	-0,128	0,036
-61,578	-80,166	-0,042	-0,010
-60,563	-95,647	0,087	-0,017
-59,549	492,093	0,058	-0,096
-58,534	-107,732	-1,437	-0,225
-57,519	476,824	-0,870	-1,431
-56,505	-200,000	-0,824	-4,393
-55,490	-124,583	0,505	-0,056
-54,476	800,000	4,816	11,431
-53,461	-200,000	13,955	252,695
-52,446	-200,000	693,386	2244,463
-51,432	583,962	1622,361	2898,279
-50,417	117,963	1631,506	1456,117
-49,403	73,965	1285,950	976,235
-48,388	37,796	1022,434	656,597
-47,373	24,102	980,586	584,807
-46,359	23,284	970,296	575,973
-45,344	22,231	965,765	569,828
-44,330	22,207	964,436	568,945
-43,315	22,077	963,103	567,712
-42,300	22,035	961,780	566,772
-41,286	22,066	961,024	566,405
-40,271	22,078	959,824	565,715
-39,257	22,075	959,021	565,209
-38,242	21,990	958,048	564,338
-37,227	22,040	957,232	563,999
-36,213	22,007	956,452	563,408
-35,198	21,973	955,421	562,671
-34,184	22,014	955,012	562,540
-33,169	21,983	953,854	561,735
-32,154	22,098	953,138	561,661
-31,140	22,046	952,292	560,973
-30,125	22,052	951,486	560,496
-29,111	22,023	950,571	559,841
-28,096	22,025	949,895	559,425
-27,082	22,088	949,204	559,198
-26,067	22,082	948,410	558,691
-25,052	22,017	947,730	558,059
-24,038	21,966	947,285	557,611
-23,023	22,024	946,573	557,355
-22,009	22,080	945,844	557,083
-20,994	22,023	945,394	556,614
-19,979	22,073	944,627	556,301
-18,965	22,024	944,047	555,780
-17,950	22,030	943,287	555,331
-16,936	22,034	942,461	554,835
-15,921	22,041	941,852	554,475
-14,906	21,936	941,452	553,887
-13,892	21,977	940,673	553,534
-12,877	21,963	940,080	553,120
-11,863	21,935	939,178	552,479
-10,848	21,902	938,885	552,181
-9,833	22,040	938,313	552,257
-8,819	22,031	937,731	551,866
-7,804	21,950	937,219	551,287
-6,790	21,932	936,467	550,766
-5,775	22,013	935,782	550,595
-4,760	21,908	935,532	550,095
-3,746	21,867	934,848	549,543
-2,731	21,815	933,844	548,768
-1,717	21,744	933,303	548,203
-0,702	21,817	932,436	547,903
0,313	21,580	932,005	547,730
1,327	24,185	929,519	554,388
2,342	31,994	807,446	502,675
3,356	27,050	507,897	307,760
4,371	2,956	372,531	195,228
5,386	-0,160	355,525	182,493
6,400	-1,576	349,450	177,657
7,415	-2,375	346,503	175,190
8,429	-2,516	345,026	174,261
9,444	-2,635	344,127	173,650
10,459	-2,493	343,506	173,489
11,473	-2,488	342,792	173,119
12,488	-2,158	342,412	173,300
13,502	-2,264	341,855	172,878
14,517	-2,514	341,362	172,320
15,531	-2,417	340,764	172,117
16,546	-2,538	340,284	171,716
17,561	-2,552	339,837	171,460
18,575	-2,583	339,447	171,212
19,590	-2,613	339,018	170,945
20,604	-2,563	338,689	170,822
21,619	-2,670	338,410	170,542
22,634	-2,563	337,908	170,397
23,648	-2,626	337,670	170,190
24,663	-2,506	337,341	170,148
25,677	-2,542	337,024	169,930
26,692	-2,681	336,759	169,621
27,707	-2,499	336,372	169,622
28,721	-2,613	336,104	169,339
29,736	-2,497	335,682	169,245
30,750	-2,576	335,571	169,084
31,765	-2,584	335,179	168,862
32,780	-2,743	334,946	168,546
33,794	-2,649	334,637	168,484
34,809	-2,573	334,391	168,432
35,823	-2,424	333,939	168,361
36,838	-2,657	333,790	168,004
37,853	-2,609	333,223	167,757
38,867	-2,604	333,053	167,663
39,882	-2,590	332,833	167,553
40,896	-2,590	332,602	167,422
41,911	-2,704	332,315	167,132
42,926	-2,636	332,099	167,086
43,940	-2,690	331,789	166,855
44,955	-2,723	331,471	166,641
45,969	-2,828	331,185	166,364
46,984	-2,912	330,999	166,161
47,999	-3,111	330,653	165,746
49,013	-3,236	330,460	165,492
50,028	-3,146	329,978	165,338
51,042	-3,239	329,740	165,099
52,057	-3,370	329,416	164,774
53,071	-3,304	329,185	164,719
54,086	-3,230	328,942	164,665
55,101	-3,166	328,905	164,705
56,115	-2,966	328,653	164,790
57,130	-2,762	328,370	164,863
58,144	-2,582	328,176	164,953
59,159	-2,578	328,079	164,894
60,174	-2,606	327,744	164,679
61,188	-2,439	327,403	164,681
62,203	-2,357	327,165	164,638
63,217	-2,441	327,001	164,447
64,232	-2,358	326,651	164,349
65,247	-2,418	326,466	164,174
66,261	-2,455	326,070	163,918
67,276	-2,723	325,915	163,527
68,290	-2,963	325,543	163,059
69,305	-2,921	325,334	162,986
70,320	-2,792	325,070	162,983
71,334	-2,644	324,883	163,039
72,349	-2,461	324,677	163,125
73,363	-2,468	324,569	163,048
74,378	-2,493	324,072	162,756
75,393	-2,612	323,907	162,527
76,407	-2,670	323,551	162,269
77,422	-2,518	323,357	162,326
78,436	-2,549	323,115	162,156
79,451	-2,460	322,822	162,092
80,466	-2,549	322,389	161,762
81,480	-2,716	322,087	161,412
82,495	-2,845	322,139	161,282
83,509	-2,859	321,726	161,046
84,524	-2,703	321,458	161,069
85,539	-2,924	321,244	160,704
86,553	-3,078	321,036	160,417
87,568	-2,921	320,842	160,478
88,582	-2,877	320,445	160,313
89,597	-2,926	320,293	160,169
90,611	-2,701	320,080	160,294
91,626	-2,697	319,954	160,221
92,641	-2,567	319,666	160,205
93,655	-2,845	319,342	159,724
94,670	-2,796	319,234	159,710
95,684	-2,818	319,042	159,575
96,699	-2,769	318,682	159,435
97,714	-2,849	318,432	159,208
98,728	-2,729	318,170	159,194
99,743	-2,787	317,892	158,977
100,757	-2,756	317,676	158,889
101,772	-2,865	317,458	158,647
102,787	-2,828	317,228	158,558
103,801	-2,707	317,006	158,564
104,816	-2,570	316,961	158,676
105,830	-2,462	316,685	158,640
106,845	-2,597	316,516	158,395
107,860	-2,467	316,189	158,358
108,874	-2,593	315,904	158,065
109,889	-2,781	315,689	157,742
110,903	-2,746	315,419	157,630
111,918	-2,644	315,213	157,623
112,933	-2,683	315,164	157,543
113,947	-2,816	315,057	157,332
114,962	-2,515	314,569	157,397
115,976	-2,567	314,397	157,241
116,991	-2,651	314,240	157,058
118,006	-2,699	314,026	156,886
119,020	-2,530	313,894	156,987
120,035	-2,575	313,738	156,847
121,049	-2,665	313,557	156,646
122,064	-2,634	313,213	156,494
123,079	-2,626	312,898	156,331
124,093	-2,723	312,680	156,104
125,108	-2,803	312,344	155,838
126,122	-2,984	312,110	155,515
127,137	-2,946	311,960	155,467
128,151	-2,966	311,748	155,326
129,166	-2,831	311,550	155,357
130,181	-2,853	311,223	155,156
131,195	-3,059	311,150	154,888
132,210	-2,720	310,783	155,050
133,224	-2,580	310,609	155,097
134,239	-2,582	310,416	154,986
135,254	-2,656	310,228	154,799
136,268	-2,709	309,911	154,571
137,283	-2,860	309,650	154,268
138,297	-3,010	309,391	153,967
139,312	-2,829	309,136	154,017
140,327	-2,651	309,131	154,188
141,341	-2,477	309,120	154,353
142,356	-2,570	308,728	154,045
143,370	-2,257	308,565	154,279
144,385	-2,159	308,403	154,286
145,400	-2,389	308,243	153,951
146,414	-2,475	307,990	153,721
147,429	-2,318	307,747	153,751
148,443	-2,450	307,617	153,534
149,458	-2,310	307,292	153,505
150,473	-2,259	307,179	153,487
151,487	-2,428	306,804	153,110
152,502	-2,246	306,629	153,199
153,516	-2,150	306,481	153,210
154,531	-2,311	306,369	152,974
155,546	-2,338	306,161	152,829
156,560	-2,400	305,797	152,569
157,575	-2,508	305,471	152,280
158,589	-2,485	305,402	152,256
159,604	-2,392	305,179	152,227
160,619	-2,393	304,921	152,084
161,633	-2,436	304,789	151,960
162,648	-2,446	304,722	151,904
163,662	-2,162	304,343	151,994
164,677	-2,416	304,232	151,663
165,692	-2,594	304,120	151,410
166,706	-2,405	303,972	151,518
167,721	-2,439	303,710	151,339
168,735	-2,343	303,428	151,283
169,750	-2,208	303,319	151,355
170,764	-2,192	303,115	151,255
171,779	-2,166	302,896	151,160
172,794	-2,070	302,692	151,142
173,808	-2,486	302,595	150,654
174,823	-2,834	302,074	150,025
175,837	-2,941	301,758	149,744
176,852	-2,560	301,839	150,162
177,867	-2,128	301,743	150,542
178,881	-2,107	301,496	150,427
179,896	-2,105	301,273	150,304
180,910	-2,244	301,234	150,130
181,925	-2,193	300,919	150,011
182,940	-2,128	300,761	149,985
183,954	-2,172	300,547	149,820
184,969	-2,307	300,384	149,588
185,983	-2,288	300,167	149,487
186,998	-2,375	299,789	149,196
188,013	-2,304	299,659	149,190
189,027	-2,178	299,436	149,194
190,042	-2,214	299,198	149,026
191,056	-2,258	299,105	148,921
192,071	-2,160	299,077	148,993
193,086	-2,127	298,795	148,873
194,100	-2,080	298,554	148,787
195,115	-2,135	298,194	148,539
196,129	-2,168	297,931	148,361
197,144	-2,328	297,846	148,144
198,159	-2,024	297,615	148,323
199,173	-2,125	297,483	148,142
200,188	-2,091	297,257	148,050
201,202	-2,355	297,194	147,740
202,217	-2,776	296,701	147,060
203,232	-2,822	296,363	146,832
204,246	-2,463	296,324	147,160
205,261	-2,352	296,183	147,188
206,275	-2,273	296,032	147,179
207,290	-2,289	295,858	147,064
208,304	-2,289	295,684	146,964
209,319	-2,271	295,390	146,823
210,334	-2,309	295,192	146,673
211,348	-2,223	295,087	146,694
212,363	-2,256	294,803	146,507
213,377	-2,156	294,600	146,493
214,392	-2,280	294,441	146,277
215,407	-2,370	294,238	146,074
216,421	-2,443	293,883	145,811
217,436	-2,515	293,780	145,675
218,450	-2,644	293,521	145,407
219,465	-2,437	293,408	145,542
220,480	-2,294	293,162	145,550
221,494	-2,341	293,138	145,479
222,509	-2,435	292,812	145,211
223,523	-2,131	292,621	145,403
224,538	-2,245	292,621	145,277
225,553	-2,188	292,418	145,220
226,567	-2,145	292,218	145,150
227,582	-2,019	292,034	145,170
228,596	-2,099	291,834	144,979
229,611	-2,039	291,713	144,965
230,626	-2,316	291,571	144,609
231,640	-2,493	291,155	144,216
232,655	-2,735	290,660	143,721
233,669	-2,896	290,405	143,423
234,684	-2,781	290,339	143,491
235,699	-2,784	290,312	143,461
236,713	-2,692	290,213	143,490
237,728	-2,665	289,876	143,337
238,742	-2,512	289,659	143,366
239,757	-2,483	289,629	143,367
240,772	-2,451	289,638	143,390
241,786	-2,291	289,237	143,335
242,801	-2,493	289,001	143,009
243,815	-2,476	288,833	142,929
244,830	-2,377	288,719	142,957
245,844	-2,384	288,360	142,758
246,859	-2,584	288,429	142,586
247,874	-2,409	288,042	142,552
248,888	-2,537	287,853	142,321
249,903	-2,364	287,869	142,485
250,917	-2,462	287,771	142,328
251,932	-2,074	287,638	142,625
252,947	-1,310	287,603	143,335
253,961	-1,883	287,290	142,612
254,976	-0,764	287,672	143,873
255,990	1,685	288,498	146,649
257,005	2,716	288,845	147,812
258,020	3,839	289,180	149,059
259,034	3,906	289,062	149,050
260,049	3,913	288,638	148,825
261,063	3,721	288,333	148,469
262,078	4,032	288,308	148,744
263,093	4,584	288,365	149,293
264,107	4,509	288,189	149,116
265,122	4,649	288,058	149,170
266,136	4,778	287,784	149,140
267,151	4,505	287,636	148,786
268,166	4,511	287,430	148,672
269,180	4,484	287,093	148,459
270,195	4,437	286,833	148,266
271,209	4,493	286,807	148,293
272,224	4,375	286,532	148,025
273,239	4,057	286,457	147,668
274,253	4,311	286,131	147,729
275,268	4,883	286,201	148,300
276,282	4,764	285,876	148,005
277,297	4,490	285,822	147,702
278,312	4,824	285,625	147,906
279,326	4,792	285,505	147,800
280,341	4,505	285,087	147,297
281,355	4,369	284,856	147,035
282,370	4,272	284,708	146,853
283,384	4,265	284,614	146,785
284,399	4,524	284,298	146,855
285,414	4,327	284,273	146,642
286,428	4,364	283,985	146,515
287,443	4,092	283,808	146,153
288,457	4,019	283,633	145,981
289,472	4,068	283,277	145,830
290,487	4,087	283,224	145,808
291,501	4,080	282,983	145,664
292,516	3,768	282,701	145,211
293,530	3,761	282,553	145,116
294,545	4,050	282,631	145,415
295,560	4,137	282,449	145,392
296,574	4,031	282,193	145,147
297,589	4,077	281,878	145,015
298,603	4,495	281,932	145,424
299,618	4,498	281,748	145,319
300,633	4,387	281,405	145,024
301,647	4,303	281,312	144,884
302,662	4,350	281,093	144,803
303,676	4,085	280,871	144,427
304,691	3,788	280,593	143,993
305,706	3,631	280,413	143,741
306,720	3,930	280,135	143,865
307,735	3,706	279,997	143,572
308,749	3,949	279,947	143,761
309,764	3,964	279,854	143,714
310,779	3,889	279,529	143,465
311,793	3,685	279,233	143,110
312,808	3,690	279,081	143,024
313,822	3,817	278,935	143,054
314,837	3,661	278,773	142,813
315,852	3,574	278,547	142,604
316,866	3,797	278,357	142,700
317,881	3,792	278,233	142,620
318,895	3,773	278,037	142,489
319,910	3,587	277,850	142,208
320,925	3,554	277,670	142,073
321,939	3,868	277,393	142,209
322,954	4,106	277,434	142,438
323,968	3,852	277,299	142,120
324,983	3,911	277,282	142,154
325,997	3,959	276,929	142,005
327,012	4,238	276,690	142,127
328,027	4,030	276,563	141,857
329,041	3,898	276,400	141,639
330,056	4,094	276,293	141,753
331,070	3,835	276,077	141,391
332,085	3,758	275,757	141,144
333,100	4,007	275,640	141,300
334,114	3,836	275,460	141,038
335,129	3,648	275,245	140,743
336,143	4,020	275,237	141,067
337,158	4,258	275,145	141,225
338,173	4,052	274,943	140,920
339,187	3,953	274,701	140,693
340,202	4,065	274,459	140,659
341,216	4,001	274,337	140,526
342,231	4,076	274,144	140,483
343,246	4,076	273,943	140,367
344,260	3,847	273,784	140,065
345,275	4,220	273,653	140,325
346,289	4,480	273,652	140,549
347,304	4,348	273,594	140,386
348,319	4,256	273,122	140,048
349,333	4,040	272,982	139,767
350,348	4,437	272,806	140,025
351,362	4,341	272,747	139,895
352,377	4,238	272,507	139,665
353,392	4,201	272,525	139,629
354,406	4,319	272,333	139,625
355,421	192,781	1329,117	1410,670
356,435	155,805	1457,954	1410,778
