DTS Sentinel unit serial number:	SN410029Multiplexer serial number:	ORYXHardware model number:	OX2-SRSoftware version number:	ORYX F/W v4,00 Oryx Data Collector v3.7.2.0data status	okinstallation	B4 Nyhavnadifferential loss correction	single-endedforward channel	channel 2reverse channel	N/Adate	2023/12/18time	21:40:13forward acquisition time	300,00reverse acquisition time	0,00gamma	499,1914k internal	0,3124k external	0,3124temperature offset calibration	1,0000default loss term (dB/km)	0,3820temperature slope calibration	1,0000multiplexer offset coefficient	1,0000multiplexer slope coefficient	1,0000fibre end	0,00T internal ref (°C)	21,85T ext. ref 1 (°C)	7,19T ext. ref 2 (°C)	7,14length (m)	temperature (°C)	Stokes	anti-Stokes-744,400	88,851	0,099	-0,082
-743,385	-142,732	-0,145	0,010
-742,371	-76,260	0,156	-0,041
-741,356	-6,453	-0,204	0,103
-740,342	60,931	-0,029	-0,022
-739,327	-8,577	-0,292	0,146
-738,312	-200,000	0,008	-0,099
-737,298	-167,359	-0,169	-0,005
-736,283	-200,000	0,004	-0,083
-735,269	-187,762	-0,203	0,002
-734,254	800,000	0,053	-0,157
-733,239	-18,889	-0,424	-0,196
-732,225	-89,275	0,196	0,043
-731,210	-200,000	-0,003	0,030
-730,196	-3,928	0,027	0,014
-729,181	308,048	0,054	0,075
-728,167	-72,345	-0,120	0,033
-727,152	-105,800	0,119	0,020
-726,137	304,906	-0,073	0,101
-725,123	-43,769	-0,180	-0,067
-724,108	-35,357	-0,141	-0,057
-723,094	40,196	-0,111	-0,074
-722,079	-111,437	-0,062	0,009
-721,064	547,443	0,040	-0,072
-720,050	327,114	-0,056	0,080
-719,035	634,903	-0,007	-0,014
-718,021	-200,000	-0,004	-0,069
-717,006	413,593	-0,031	-0,050
-715,991	9,604	-0,091	0,051
-714,977	-200,000	0,004	-0,107
-713,962	-65,764	0,026	0,008
-712,948	74,291	-0,064	-0,050
-711,933	246,092	0,102	0,129
-710,918	311,277	-0,120	-0,168
-709,904	482,045	-0,031	-0,053
-708,889	59,524	-0,141	0,103
-707,875	25,084	-0,138	-0,085
-706,860	79,296	0,066	0,053
-705,845	542,401	-0,091	0,162
-704,831	-200,000	0,011	-0,151
-703,816	-75,197	-0,111	0,029
-702,802	-50,567	-0,118	-0,041
-701,787	-0,861	0,020	0,011
-700,772	120,646	0,069	0,064
-699,758	-76,384	-0,105	-0,027
-698,743	94,434	-0,039	-0,033
-697,729	-200,000	-0,005	0,022
-696,714	-153,973	0,119	0,006
-695,699	267,074	0,032	-0,041
-694,685	-200,000	0,002	0,044
-693,670	96,031	0,034	0,029
-692,656	-99,375	-0,045	0,008
-691,641	-43,743	0,151	0,056
-690,627	-200,000	0,002	-0,099
-689,612	1,026	-0,080	0,042
-688,597	17,030	-0,053	0,031
-687,583	-16,973	0,091	-0,043
-686,568	140,376	0,014	-0,014
-685,554	-56,293	-0,101	-0,033
-684,539	175,781	-0,045	-0,049
-683,524	748,102	-0,008	-0,015
-682,510	-87,440	0,074	0,017
-681,495	-200,000	0,018	-0,098
-680,481	-200,000	0,062	-0,238
-679,466	800,000	0,045	-0,111
-678,451	-200,000	0,008	0,074
-677,437	-72,823	0,052	-0,014
-676,422	424,669	0,051	0,082
-675,408	-200,000	-0,002	-0,039
-674,393	82,129	-0,069	-0,056
-673,378	74,450	0,036	-0,028
-672,364	800,000	0,019	0,054
-671,349	468,957	-0,114	0,190
-670,335	201,503	0,005	0,005
-669,320	123,649	-0,056	-0,052
-668,305	-200,000	0,002	-0,102
-667,291	751,642	0,028	0,057
-666,276	-200,000	0,036	-0,121
-665,262	722,023	-0,071	-0,141
-664,247	-77,643	0,155	0,040
-663,232	-200,000	-0,003	-0,134
-662,218	-134,634	0,009	-0,001
-661,203	-200,000	0,014	-0,070
-660,189	18,936	0,050	0,030
-659,174	-12,312	-0,078	-0,038
-658,159	-200,000	-0,057	-0,200
-657,145	84,297	-0,119	0,096
-656,130	7,111	-0,014	0,008
-655,116	-5,676	-0,080	0,040
-654,101	69,231	0,086	0,066
-653,086	-110,939	0,050	0,008
-652,072	42,842	-0,095	-0,064
-651,057	-83,678	-0,067	-0,016
-650,043	-200,000	0,003	0,087
-649,028	73,906	0,079	-0,061
-648,014	38,983	0,094	-0,063
-646,999	-160,596	0,092	0,004
-645,984	16,191	-0,111	-0,065
-644,970	-56,400	-0,182	0,060
-643,955	35,068	-0,022	-0,014
-642,941	-109,792	-0,083	0,013
-641,926	-10,845	0,049	-0,024
-640,911	-200,000	-0,032	-0,144
-639,897	-200,000	-0,008	-0,110
-638,882	-200,000	-0,005	-0,078
-637,868	371,667	-0,040	0,061
-636,853	-21,519	-0,110	0,049
-635,838	394,385	0,053	-0,082
-634,824	297,827	-0,044	-0,060
-633,809	-200,000	0,013	0,055
-632,795	86,513	0,054	0,044
-631,780	-200,000	0,006	-0,121
-630,765	800,000	-0,025	0,060
-629,751	-200,000	0,018	0,098
-628,736	224,623	-0,047	-0,057
-627,722	3,453	-0,111	-0,060
-626,707	800,000	-0,056	-0,143
-625,692	239,387	0,048	-0,059
-624,678	-114,069	-0,070	-0,010
-623,663	800,000	0,098	0,210
-622,649	-200,000	-0,012	-0,043
-621,634	-163,367	-0,119	-0,004
-620,619	-15,749	-0,110	-0,052
-619,605	161,329	-0,061	-0,064
-618,590	800,000	-0,073	0,153
-617,576	800,000	-0,036	-0,085
-616,561	-200,000	0,034	0,135
-615,546	-73,775	-0,097	-0,026
-614,532	800,000	-0,048	-0,112
-613,517	244,855	-0,077	-0,097
-612,503	86,595	-0,051	-0,042
-611,488	-127,378	-0,129	0,014
-610,474	800,000	-0,034	0,071
-609,459	134,087	-0,018	0,018
-608,444	-71,457	-0,210	0,058
-607,430	-5,922	-0,183	0,092
-606,415	171,719	-0,008	-0,009
-605,401	-200,000	0,009	-0,084
-604,386	-9,485	0,086	-0,043
-603,371	800,000	0,006	-0,018
-602,357	-200,000	0,024	0,180
-601,342	443,502	-0,011	-0,017
-600,328	179,216	-0,040	0,043
-599,313	176,540	-0,054	0,059
-598,298	63,645	0,056	-0,042
-597,284	65,389	0,063	-0,047
-596,269	418,098	0,049	0,078
-595,255	-200,000	0,013	0,056
-594,240	-200,000	0,003	-0,075
-593,225	113,845	-0,115	-0,104
-592,211	-200,000	0,008	0,168
-591,196	-200,000	-0,016	-0,141
-590,182	152,336	0,052	-0,052
-589,167	-132,603	0,098	-0,009
-588,152	-200,000	0,014	-0,056
-587,138	800,000	-0,042	0,110
-586,123	-199,841	0,128	0,000
-585,109	82,068	-0,033	-0,026
-584,094	800,000	0,027	-0,075
-583,079	379,546	-0,031	-0,047
-582,065	-200,000	-0,010	0,095
-581,050	124,516	-0,104	0,097
-580,036	318,232	0,023	-0,033
-579,021	374,600	0,068	-0,103
-578,006	800,000	-0,046	-0,114
-576,992	-200,000	-0,000	0,118
-575,977	800,000	0,005	-0,012
-574,963	-200,000	-0,002	0,035
-573,948	-106,648	0,127	-0,021
-572,934	-200,000	-0,007	0,040
-571,919	-200,000	0,017	-0,134
-570,904	396,273	-0,020	0,032
-569,890	162,736	0,092	-0,095
-568,875	-200,000	0,018	-0,094
-567,861	-200,000	-0,005	-0,047
-566,846	-200,000	0,040	-0,140
-565,831	-138,714	-0,111	0,009
-564,817	-200,000	-0,032	0,130
-563,802	44,340	-0,050	0,034
-562,788	31,920	-0,033	0,021
-561,773	719,492	0,044	0,087
-560,758	73,195	0,019	0,015
-559,744	412,767	-0,027	0,043
-558,729	-143,457	0,028	0,002
-557,715	77,815	0,155	-0,122
-556,700	39,409	-0,114	-0,075
-555,685	-5,303	-0,079	-0,040
-554,671	-44,376	-0,098	0,036
-553,656	800,000	-0,026	0,075
-552,642	-200,000	0,001	-0,087
-551,627	800,000	0,052	-0,119
-550,612	130,472	0,046	-0,044
-549,598	800,000	-0,024	0,069
-548,583	-51,840	-0,104	-0,036
-547,569	30,154	0,060	0,038
-546,554	-72,311	-0,056	-0,015
-545,539	609,804	0,030	0,056
-544,525	382,760	-0,053	-0,080
-543,510	-200,000	0,012	-0,046
-542,496	-112,989	0,026	0,004
-541,481	-168,176	0,032	0,001
-540,466	145,142	0,066	-0,065
-539,452	-200,000	0,007	0,037
-538,437	664,351	-0,042	0,080
-537,423	-26,426	0,046	-0,020
-536,408	641,842	0,034	-0,063
-535,393	-87,506	0,073	0,016
-534,379	120,394	0,071	-0,066
-533,364	-120,592	-0,139	0,017
-532,350	-126,797	0,161	-0,017
-531,335	-24,553	0,055	0,024
-530,321	23,335	0,101	0,061
-529,306	-200,000	-0,012	-0,098
-528,291	1,681	-0,108	0,057
-527,277	459,959	-0,052	-0,086
-526,262	-21,321	0,149	0,067
-525,248	323,003	0,048	0,067
-524,233	-200,000	0,005	-0,049
-523,218	-17,814	0,070	0,032
-522,204	-35,444	-0,208	-0,083
-521,189	-140,535	-0,125	0,009
-520,175	42,444	-0,101	-0,068
-519,160	-143,529	-0,028	-0,002
-518,145	209,850	0,071	-0,082
-517,131	193,560	-0,039	-0,043
-516,116	197,039	0,112	-0,126
-515,102	-6,982	-0,120	0,060
-514,087	-109,175	0,057	0,009
-513,072	-200,000	0,003	-0,093
-512,058	-200,000	0,011	-0,118
-511,043	6,619	-0,058	-0,031
-510,029	338,898	0,084	-0,121
-509,014	800,000	-0,023	0,070
-507,999	-200,000	-0,014	0,085
-506,985	800,000	-0,059	0,121
-505,970	-127,006	0,118	-0,013
-504,956	800,000	-0,012	0,033
-503,941	26,648	0,072	0,044
-502,926	241,578	-0,101	0,125
-501,912	152,300	-0,057	0,058
-500,897	87,148	0,120	-0,097
-499,883	4,650	-0,189	0,102
-498,868	-200,000	-0,019	-0,107
-497,853	146,945	0,052	-0,051
-496,839	-33,847	0,165	-0,067
-495,824	-103,289	-0,056	-0,010
-494,810	-200,000	0,025	-0,132
-493,795	-82,067	0,027	-0,006
-492,781	800,000	0,038	0,095
-491,766	-93,335	-0,164	0,033
-490,751	213,650	0,170	-0,198
-489,737	-200,000	-0,040	0,134
-488,722	-200,000	-0,002	-0,075
-487,708	100,199	-0,073	0,062
-486,693	-41,102	-0,125	0,047
-485,678	493,050	0,055	-0,093
-484,664	800,000	-0,020	-0,047
-483,649	800,000	-0,035	0,084
-482,635	2,454	0,103	-0,055
-481,620	-15,853	0,131	0,061
-480,605	339,236	0,111	0,160
-479,591	-70,728	0,103	0,028
-478,576	237,291	0,054	-0,066
-477,562	179,594	-0,135	-0,146
-476,547	171,142	-0,160	-0,169
-475,532	-75,688	0,031	0,008
-474,518	-105,222	0,116	0,019
-473,503	20,098	0,035	0,021
-472,489	-200,000	0,055	0,228
-471,474	-6,258	0,014	0,007
-470,459	-37,054	-0,023	0,009
-469,445	-15,309	-0,020	-0,010
-468,430	226,297	0,058	0,069
-467,416	-140,746	0,029	0,002
-466,401	-130,497	0,070	-0,007
-465,386	-97,445	0,094	-0,018
-464,372	206,648	0,029	0,033
-463,357	-81,172	-0,120	-0,029
-462,343	-200,000	-0,007	0,032
-461,328	-51,326	-0,109	-0,037
-460,313	-86,772	0,031	0,007
-459,299	-44,937	0,096	-0,035
-458,284	-200,000	-0,008	-0,074
-457,270	-200,000	-0,034	-0,152
-456,255	461,862	-0,031	0,051
-455,241	800,000	-0,031	-0,090
-454,226	152,367	0,036	0,036
-453,211	43,448	0,107	-0,072
-452,197	-115,099	-0,049	-0,007
-451,182	-66,204	0,087	0,025
-450,168	124,556	0,061	-0,057
-449,153	-142,455	0,118	-0,008
-448,138	-200,000	0,028	-0,191
-447,124	-81,100	-0,068	0,017
-446,109	800,000	0,021	0,060
-445,095	-121,294	0,165	0,020
-444,080	-41,690	0,116	0,044
-443,065	-84,593	0,058	-0,013
-442,051	-95,646	0,076	-0,015
-441,036	283,218	-0,063	0,084
-440,022	114,424	-0,069	0,062
-439,007	-200,000	0,012	0,098
-437,992	-51,114	0,113	-0,039
-436,978	-68,574	0,175	-0,050
-435,963	800,000	-0,049	-0,107
-434,949	408,213	-0,053	0,083
-433,934	-200,000	-0,015	0,154
-432,919	594,446	-0,039	0,072
-431,905	-127,007	0,010	0,001
-430,890	57,889	0,204	0,147
-429,876	434,087	-0,082	0,132
-428,861	-65,789	0,081	0,024
-427,846	-200,000	0,016	-0,099
-426,832	-45,951	0,107	0,039
-425,817	-153,964	-0,152	0,007
-424,803	-24,658	0,047	0,020
-423,788	-200,000	-0,025	-0,199
-422,773	-200,000	0,014	0,107
-421,759	161,894	0,090	0,093
-420,744	-16,981	0,164	-0,076
-419,730	137,888	-0,105	0,101
-418,715	617,085	0,043	0,080
-417,701	595,823	-0,026	0,047
-416,686	-116,945	0,070	-0,009
-415,671	-104,743	0,028	0,005
-414,657	-200,000	-0,009	0,066
-413,642	-200,000	0,006	-0,084
-412,628	800,000	-0,045	-0,140
-411,613	800,000	-0,021	-0,062
-410,598	407,099	0,043	0,066
-409,584	800,000	0,045	0,114
-408,569	800,000	0,023	0,073
-407,555	-90,913	0,052	-0,011
-406,540	360,021	0,080	0,118
-405,525	72,312	-0,058	0,045
-404,511	-173,075	-0,102	0,002
-403,496	800,000	0,047	-0,116
-402,482	22,915	0,098	0,059
-401,467	-200,000	-0,026	-0,118
-400,452	66,913	-0,083	-0,062
-399,438	-92,801	-0,019	0,004
-398,423	397,442	-0,027	0,042
-397,409	249,670	-0,096	-0,120
-396,394	310,040	-0,058	-0,080
-395,379	-11,999	-0,047	0,022
-394,365	800,000	-0,026	0,075
-393,350	-200,000	-0,017	0,076
-392,336	800,000	-0,045	0,101
-391,321	-22,323	-0,041	0,018
-390,306	800,000	-0,046	-0,120
-389,292	-200,000	-0,045	-0,275
-388,277	-200,000	-0,017	-0,119
-387,263	-200,000	0,040	0,152
-386,248	-66,728	0,012	0,003
-385,233	17,713	-0,052	0,030
-384,219	578,542	-0,026	0,046
-383,204	565,483	0,078	-0,139
-382,190	-169,425	-0,115	-0,003
-381,175	-200,000	0,021	0,132
-380,160	-124,178	0,113	-0,013
-379,146	93,266	0,071	-0,059
-378,131	-200,000	0,040	0,144
-377,117	-40,269	-0,026	-0,010
-376,102	48,109	-0,150	-0,103
-375,088	-200,000	0,008	0,101
-374,073	800,000	0,002	0,004
-373,058	-7,762	0,015	-0,008
-372,044	-200,000	-0,009	-0,067
-371,029	-115,679	0,030	-0,004
-370,015	-62,682	0,083	-0,025
-369,000	800,000	0,033	-0,090
-367,985	800,000	0,036	-0,100
-366,971	-200,000	0,007	-0,064
-365,956	800,000	0,042	-0,117
-364,942	-58,615	0,096	0,030
-363,927	460,205	0,053	0,086
-362,912	195,550	0,056	0,063
-361,898	-174,779	0,080	-0,002
-360,883	534,442	-0,098	-0,171
-359,869	409,055	-0,094	-0,147
-358,854	-200,000	0,001	0,182
-357,839	155,771	0,013	0,013
-356,825	215,311	0,054	0,063
-355,810	119,170	-0,038	0,035
-354,796	800,000	-0,050	-0,107
-353,781	-36,380	0,071	-0,028
-352,766	-200,000	-0,008	-0,060
-351,752	501,933	0,054	-0,092
-350,737	-15,097	-0,036	0,017
-349,723	33,025	-0,096	0,061
-348,708	-123,221	-0,040	0,005
-347,693	-200,000	-0,037	-0,130
-346,679	-0,962	0,189	-0,098
-345,664	800,000	-0,024	0,049
-344,650	55,347	-0,060	0,042
-343,635	-200,000	-0,006	0,090
-342,620	-103,232	0,173	0,030
-341,606	210,644	-0,004	0,004
-340,591	-59,578	0,030	-0,009
-339,577	-200,000	0,010	0,097
-338,562	-122,587	-0,036	-0,004
-337,548	-200,000	-0,026	-0,132
-336,533	105,430	-0,078	-0,067
-335,518	267,255	0,147	-0,189
-334,504	-200,000	-0,001	-0,136
-333,489	-62,611	-0,024	-0,007
-332,475	280,214	-0,131	0,172
-331,460	471,304	0,021	0,035
-330,445	136,034	0,053	0,051
-329,431	800,000	0,032	-0,086
-328,416	800,000	0,043	0,114
-327,402	-29,304	-0,023	-0,010
-326,387	800,000	0,044	0,128
-325,372	29,521	-0,074	-0,046
-324,358	-200,000	-0,008	-0,050
-323,343	-200,000	-0,002	0,010
-322,329	800,000	0,048	-0,117
-321,314	-200,000	-0,009	-0,044
-320,299	74,125	0,143	0,110
-319,285	-86,521	0,065	0,014
-318,270	20,915	-0,105	-0,062
-317,256	136,857	-0,060	-0,057
-316,241	-84,351	0,100	-0,023
-315,226	-72,165	-0,119	-0,032
-314,212	800,000	-0,009	0,022
-313,197	-200,000	0,007	0,151
-312,183	103,819	0,042	0,036
-311,168	245,837	0,139	0,172
-310,153	-200,000	0,003	-0,158
-309,139	-65,057	0,030	0,009
-308,124	-200,000	0,021	0,078
-307,110	-106,702	0,059	0,009
-306,095	323,758	-0,021	-0,029
-305,080	616,266	-0,023	0,043
-304,066	58,729	0,054	0,039
-303,051	-200,000	-0,020	0,086
-302,037	-130,179	-0,146	-0,014
-301,022	-200,000	0,007	0,124
-300,008	-200,000	0,005	-0,030
-298,993	800,000	-0,022	0,048
-297,978	-141,367	-0,045	-0,003
-296,964	100,815	0,075	0,064
-295,949	-81,631	-0,054	-0,013
-294,935	90,567	0,055	0,045
-293,920	163,331	-0,062	0,064
-292,905	-200,000	0,002	0,019
-291,891	102,094	-0,041	0,035
-290,876	-200,000	0,018	0,091
-289,862	237,179	0,081	-0,098
-288,847	-200,000	-0,061	0,000
-287,832	-200,000	0,011	0,000
-286,818	-200,000	0,011	0,087
-285,803	800,000	0,017	-0,047
-284,789	6,276	0,006	-0,003
-283,774	296,261	0,073	0,099
-282,759	703,191	-0,061	0,119
-281,745	800,000	-0,035	-0,098
-280,730	800,000	0,042	-0,088
-279,716	225,655	-0,082	0,098
-278,701	-200,000	0,003	-0,035
-277,686	-108,392	-0,021	-0,003
-276,672	64,915	0,091	-0,067
-275,657	800,000	0,018	-0,042
-274,643	-200,000	-0,019	-0,086
-273,628	-200,000	-0,001	-0,018
-272,613	-200,000	0,007	-0,027
-271,599	-177,773	-0,083	0,001
-270,584	-6,293	-0,038	0,019
-269,570	-200,000	0,016	0,062
-268,555	-200,000	0,033	0,194
-267,540	-113,465	-0,111	0,016
-266,526	800,000	0,029	-0,075
-265,511	800,000	0,017	0,048
-264,497	-20,607	0,101	-0,045
-263,482	-200,000	-0,004	0,097
-262,467	-200,000	-0,001	0,036
-261,453	-102,739	0,109	-0,019
-260,438	-200,000	-0,002	0,044
-259,424	79,094	-0,093	0,073
-258,409	-59,125	-0,021	0,007
-257,395	21,613	0,094	0,056
-256,380	-25,955	0,084	-0,036
-255,365	377,536	0,034	0,051
-254,351	-82,533	-0,198	0,047
-253,336	-93,942	-0,138	0,028
-252,322	800,000	-0,053	-0,124
-251,307	604,684	0,033	-0,061
-250,292	300,521	0,086	0,116
-249,278	122,774	0,128	0,117
-248,263	-87,360	-0,098	-0,022
-247,249	-200,000	0,007	0,086
-246,234	635,185	-0,069	0,129
-245,219	-99,936	-0,100	-0,018
-244,205	800,000	0,060	-0,187
-243,190	-88,595	0,103	-0,022
-242,176	-86,733	0,081	0,018
-241,161	-80,153	0,178	0,043
-240,146	800,000	-0,025	-0,060
-239,132	-44,029	0,058	-0,021
-238,117	-121,274	-0,130	-0,016
-237,103	-90,069	-0,188	0,040
-236,088	-200,000	0,024	0,154
-235,073	-88,395	-0,011	0,002
-234,059	114,814	-0,114	0,102
-233,044	-116,437	-0,034	-0,005
-232,030	800,000	-0,011	-0,027
-231,015	800,000	-0,041	0,083
-230,000	-82,433	-0,019	-0,004
-228,986	145,661	-0,070	0,069
-227,971	95,480	-0,086	0,072
-226,957	-51,859	-0,066	-0,022
-225,942	-200,000	-0,008	0,090
-224,927	-101,898	0,014	0,003
-223,913	800,000	-0,009	-0,023
-222,898	800,000	-0,044	-0,101
-221,884	-4,651	-0,063	-0,032
-220,869	-200,000	0,028	0,136
-219,855	401,999	0,076	-0,117
-218,840	-82,611	0,115	0,027
-217,825	-33,104	-0,040	-0,016
-216,811	-110,250	-0,101	0,015
-215,796	178,037	-0,077	0,083
-214,782	800,000	0,037	-0,088
-213,767	-200,000	-0,013	0,101
-212,752	-200,000	-0,021	0,086
-211,738	782,713	-0,038	-0,076
-210,723	643,064	-0,114	0,213
-209,709	-200,000	-0,011	0,053
-208,694	115,846	0,086	0,076
-207,679	800,000	0,047	-0,150
-206,665	-200,000	-0,003	0,078
-205,650	-165,298	0,041	0,001
-204,636	-200,000	-0,017	0,055
-203,621	186,020	0,066	-0,072
-202,606	235,674	-0,049	-0,059
-201,592	800,000	0,058	-0,119
-200,577	-200,000	0,021	-0,114
-199,563	330,626	-0,037	-0,052
-198,548	97,059	0,141	-0,118
-197,533	7,899	0,094	0,051
-196,519	103,663	-0,091	0,078
-195,504	155,092	-0,071	-0,071
-194,490	-6,082	-0,023	0,011
-193,475	-200,000	-0,021	-0,094
-192,460	-200,000	0,013	0,139
-191,446	-200,000	0,029	0,245
-190,431	-200,000	-0,006	0,066
-189,417	800,000	-0,024	-0,066
-188,402	-77,470	0,071	0,018
-187,387	-200,000	-0,013	-0,163
-186,373	-200,000	0,013	-0,097
-185,358	347,040	0,022	0,031
-184,344	113,886	0,060	-0,053
-183,329	144,663	0,035	-0,034
-182,315	470,049	-0,026	-0,043
-181,300	176,365	0,048	0,050
-180,285	800,000	-0,056	-0,158
-179,271	800,000	0,017	0,053
-178,256	327,446	0,066	-0,092
-177,242	295,643	-0,089	0,119
-176,227	133,260	0,050	0,047
-175,212	-200,000	-0,010	0,140
-174,198	66,039	-0,082	0,060
-173,183	250,237	-0,089	0,111
-172,169	800,000	0,011	-0,026
-171,154	-29,421	-0,093	-0,039
-170,139	-121,752	-0,107	0,013
-169,125	-83,506	0,079	0,018
-168,110	497,052	-0,055	0,093
-167,096	-115,130	0,057	0,008
-166,081	154,417	-0,049	0,049
-165,066	-156,193	0,091	0,004
-164,052	800,000	-0,019	-0,043
-163,037	-200,000	0,012	0,065
-162,023	-200,000	0,016	0,087
-161,008	-118,732	-0,088	-0,011
-159,993	-113,116	0,142	-0,020
-158,979	-200,000	-0,017	0,061
-157,964	800,000	-0,060	-0,148
-156,950	-200,000	0,008	-0,079
-155,935	-200,000	-0,001	-0,006
-154,920	32,507	-0,079	0,050
-153,906	505,703	-0,029	-0,049
-152,891	800,000	0,064	0,130
-151,877	-105,972	-0,158	0,026
-150,862	448,791	0,043	-0,069
-149,847	108,754	0,015	-0,013
-148,833	-200,000	-0,009	-0,041
-147,818	-107,014	0,023	0,004
-146,804	217,664	0,099	0,116
-145,789	-105,222	-0,085	-0,014
-144,775	-200,000	0,023	-0,078
-143,760	706,991	0,041	0,079
-142,745	-181,096	-0,130	-0,002
-141,731	-172,537	0,061	-0,001
-140,716	-41,158	-0,095	0,035
-139,702	53,870	0,039	-0,027
-138,687	141,249	0,140	0,135
-137,672	100,946	0,055	0,047
-136,658	444,370	0,066	-0,106
-135,643	237,520	-0,047	-0,057
-134,629	-135,258	0,045	0,004
-133,614	-200,000	-0,003	-0,069
-132,599	-200,000	0,059	0,239
-131,585	-70,126	0,103	0,028
-130,570	-200,000	0,008	0,080
-129,556	-200,000	0,020	0,093
-128,541	196,114	-0,028	-0,031
-127,526	800,000	-0,035	0,080
-126,512	19,008	0,043	0,025
-125,497	-89,385	0,034	0,007
-124,483	159,387	-0,064	-0,065
-123,468	207,650	-0,033	0,037
-122,453	189,694	-0,109	0,120
-121,439	241,215	0,066	0,080
-120,424	262,107	0,033	0,042
-119,410	245,667	0,060	0,073
-118,395	28,889	-0,049	0,030
-117,380	192,942	-0,078	0,086
-116,366	-41,555	0,053	0,020
-115,351	800,000	-0,049	0,123
-114,337	-26,508	0,108	0,046
-113,322	-73,340	-0,078	-0,020
-112,307	-58,306	0,031	-0,010
-111,293	56,265	0,068	0,048
-110,278	32,620	-0,051	0,032
-109,264	-200,000	-0,024	-0,102
-108,249	-158,916	-0,154	-0,006
-107,234	-200,000	-0,012	0,087
-106,220	53,592	-0,133	0,092
-105,205	233,447	-0,083	0,099
-104,191	-49,982	0,034	-0,012
-103,176	-52,767	-0,115	-0,038
-102,162	-94,036	-0,020	-0,004
-101,147	800,000	-0,024	0,074
-100,132	800,000	0,035	-0,086
-99,118	-60,662	-0,061	-0,019
-98,103	24,874	-0,068	0,041
-97,089	566,679	-0,062	-0,109
-96,074	-200,000	0,019	-0,073
-95,059	-200,000	0,006	-0,056
-94,045	800,000	-0,030	-0,077
-93,030	-31,137	0,132	0,054
-92,016	800,000	0,036	-0,084
-91,001	297,005	0,047	-0,063
-89,986	351,590	0,066	0,095
-88,972	-60,077	-0,114	0,035
-87,957	800,000	-0,026	0,063
-86,943	134,422	0,070	-0,066
-85,928	40,799	-0,101	-0,066
-84,913	-200,000	-0,019	-0,062
-83,899	-62,380	-0,075	0,022
-82,884	-200,000	-0,009	-0,034
-81,870	800,000	0,035	0,077
-80,855	-66,591	-0,122	-0,035
-79,840	660,076	-0,038	0,072
-78,826	-200,000	-0,003	-0,018
-77,811	25,729	0,074	0,045
-76,797	185,272	-0,078	-0,084
-75,782	-200,000	-0,004	-0,033
-74,767	-50,187	-0,036	-0,012
-73,753	300,269	0,125	0,168
-72,738	-200,000	0,001	-0,046
-71,724	-200,000	-0,000	0,026
-70,709	70,954	-0,077	0,058
-69,694	4,819	0,040	-0,021
-68,680	800,000	-0,029	0,085
-67,665	800,000	-0,016	-0,042
-66,651	148,675	0,045	0,044
-65,636	248,282	-0,050	0,062
-64,622	-120,695	-0,097	-0,012
-63,607	-194,677	0,060	-0,000
-62,592	-57,318	0,111	0,035
-61,578	-200,000	0,011	-0,082
-60,563	89,468	0,159	-0,128
-59,549	337,337	0,048	-0,068
-58,534	-119,422	-1,383	-0,172
-57,519	451,289	-0,926	-1,490
-56,505	-200,000	-0,977	-4,236
-55,490	-2,952	0,521	-0,263
-54,476	800,000	5,090	11,810
-53,461	-200,000	14,181	253,679
-52,446	-200,000	694,437	2261,433
-51,432	598,714	1624,392	2934,135
-50,417	117,552	1633,203	1457,409
-49,403	73,572	1287,101	976,678
-48,388	37,340	1023,523	656,529
-47,373	23,912	981,754	585,573
-46,359	23,156	971,224	576,789
-45,344	22,101	966,879	570,740
-44,330	22,030	965,602	569,734
-43,315	21,928	964,138	568,514
-42,300	21,931	962,960	567,806
-41,286	21,907	961,959	567,115
-40,271	21,852	961,130	566,426
-39,257	21,921	960,081	566,010
-38,242	21,892	959,200	565,373
-37,227	21,895	958,239	564,794
-36,213	21,829	957,404	564,067
-35,198	21,795	956,720	563,529
-34,184	21,866	956,011	563,321
-33,169	21,845	954,945	562,602
-32,154	21,898	954,205	562,316
-31,140	21,889	953,314	561,737
-30,125	21,974	952,429	561,469
-29,111	21,948	951,568	560,854
-28,096	21,932	950,841	560,351
-27,082	21,942	950,330	560,062
-26,067	21,923	949,613	559,556
-25,052	21,914	948,794	559,022
-24,038	21,872	948,124	558,470
-23,023	21,879	947,597	558,160
-22,009	21,825	946,894	557,550
-20,994	21,859	946,362	557,324
-19,979	21,891	945,571	556,937
-18,965	21,867	945,044	556,529
-17,950	21,893	944,399	556,210
-16,936	21,844	943,546	555,528
-15,921	21,801	942,994	555,045
-14,906	21,756	942,367	554,509
-13,892	21,793	941,624	554,171
-12,877	21,761	941,061	553,714
-11,863	21,723	940,259	553,101
-10,848	21,809	939,756	553,054
-9,833	21,836	939,350	552,880
-8,819	21,843	938,789	552,551
-7,804	21,757	938,127	551,864
-6,790	21,764	937,344	551,405
-5,775	21,823	936,959	551,343
-4,760	21,785	936,262	550,793
-3,746	21,746	935,712	550,321
-2,731	21,632	935,041	549,545
-1,717	21,574	934,326	548,922
-0,702	21,576	933,581	548,467
0,313	21,414	932,985	548,435
1,327	23,906	930,555	554,791
2,342	31,584	808,731	502,967
3,356	26,227	509,388	307,621
4,371	1,697	374,613	194,930
5,386	-1,211	357,534	182,449
6,400	-2,243	351,466	178,088
7,415	-2,767	348,990	176,187
8,429	-2,852	347,374	175,253
9,444	-2,882	346,558	174,789
10,459	-2,826	345,879	174,498
11,473	-2,987	345,444	174,072
12,488	-2,825	344,621	173,834
13,502	-2,873	344,060	173,479
14,517	-2,744	343,609	173,388
15,531	-2,847	343,270	173,081
16,546	-2,862	342,782	172,801
17,561	-2,638	342,158	172,735
18,575	-2,809	341,986	172,431
19,590	-2,856	341,523	172,127
20,604	-2,754	341,217	172,078
21,619	-2,754	340,794	171,848
22,634	-2,675	340,449	171,752
23,648	-2,833	340,059	171,355
24,663	-2,609	339,700	171,421
25,677	-3,004	339,533	170,860
26,692	-2,748	339,064	170,907
27,707	-2,679	338,895	170,887
28,721	-2,732	338,419	170,570
29,736	-2,613	338,188	170,577
30,750	-2,840	338,195	170,301
31,765	-2,750	337,741	170,162
32,780	-2,793	337,463	169,956
33,794	-2,808	337,266	169,825
34,809	-2,838	336,946	169,615
35,823	-2,791	336,464	169,411
36,838	-2,736	336,211	169,331
37,853	-2,764	335,970	169,163
38,867	-2,781	335,679	168,982
39,882	-2,750	335,421	168,872
40,896	-2,619	335,122	168,858
41,911	-2,695	335,041	168,714
42,926	-2,639	334,548	168,516
43,940	-2,770	334,195	168,172
44,955	-2,669	334,144	168,248
45,969	-2,747	333,765	167,952
46,984	-2,606	333,480	167,955
47,999	-2,788	333,356	167,670
49,013	-2,807	332,949	167,429
50,028	-2,811	332,707	167,287
51,042	-2,857	332,414	167,072
52,057	-2,869	332,225	166,949
53,071	-2,997	332,157	166,753
54,086	-2,857	331,735	166,687
55,101	-2,845	331,551	166,592
56,115	-2,782	331,362	166,555
57,130	-2,860	331,049	166,294
58,144	-2,890	330,593	166,016
59,159	-2,758	330,410	166,059
60,174	-2,852	330,188	165,826
61,188	-2,785	329,894	165,740
62,203	-2,625	329,608	165,762
63,217	-2,760	329,474	165,527
64,232	-2,818	329,193	165,306
65,247	-2,840	328,939	165,139
66,261	-2,851	328,517	164,899
67,276	-2,895	328,484	164,818
68,290	-2,675	327,918	164,767
69,305	-2,748	327,933	164,678
70,320	-2,713	327,498	164,484
71,334	-2,639	327,371	164,489
72,349	-2,762	327,183	164,242
73,363	-2,820	326,926	164,034
74,378	-2,703	326,558	163,965
75,393	-2,637	326,266	163,877
76,407	-2,807	326,136	163,607
77,422	-2,765	325,908	163,525
78,436	-2,475	325,485	163,622
79,451	-2,776	325,327	163,192
80,466	-2,699	325,131	163,166
81,480	-2,698	324,766	162,968
82,495	-2,719	324,646	162,870
83,509	-2,753	324,350	162,670
84,524	-2,741	324,146	162,566
85,539	-2,686	323,756	162,417
86,553	-2,821	323,571	162,161
87,568	-2,694	323,319	162,160
88,582	-2,729	323,186	162,040
89,597	-2,769	322,883	161,830
90,611	-2,749	322,752	161,772
91,626	-2,734	322,601	161,699
92,641	-2,762	322,249	161,476
93,655	-2,718	321,848	161,310
94,670	-2,708	321,807	161,286
95,684	-2,758	321,524	161,074
96,699	-2,741	321,204	160,919
97,714	-2,797	321,128	160,805
98,728	-2,757	320,839	160,689
99,743	-2,902	320,588	160,390
100,757	-2,668	320,287	160,482
101,772	-2,743	320,013	160,249
102,787	-2,800	319,894	160,112
103,801	-2,701	319,556	160,037
104,816	-2,785	319,454	159,879
105,830	-2,685	319,135	159,815
106,845	-2,649	318,889	159,717
107,860	-2,828	318,719	159,422
108,874	-2,836	318,550	159,314
109,889	-2,559	318,068	159,361
110,903	-2,621	317,835	159,162
111,918	-2,874	317,903	158,907
112,933	-2,704	317,552	158,902
113,947	-2,684	317,353	158,810
114,962	-2,641	317,090	158,711
115,976	-2,745	316,831	158,455
116,991	-2,808	316,774	158,344
118,006	-2,597	316,427	158,384
119,020	-2,600	316,167	158,237
120,035	-2,566	316,006	158,178
121,049	-2,645	315,865	158,009
122,064	-2,757	315,707	157,795
123,079	-2,861	315,547	157,590
124,093	-2,744	315,187	157,521
125,108	-2,668	314,913	157,452
126,122	-2,731	314,550	157,189
127,137	-2,675	314,461	157,190
128,151	-2,491	314,332	157,308
129,166	-2,769	314,044	156,852
130,181	-2,744	313,725	156,707
131,195	-2,804	313,535	156,534
132,210	-2,751	313,296	156,456
133,224	-2,646	312,929	156,371
134,239	-2,747	312,859	156,215
135,254	-2,683	312,565	156,122
136,268	-2,629	312,392	156,080
137,283	-2,825	312,152	155,737
138,297	-2,688	311,933	155,760
139,312	-2,863	311,674	155,431
140,327	-2,742	311,467	155,442
141,341	-2,739	311,211	155,304
142,356	-2,645	311,176	155,372
143,370	-2,705	310,868	155,141
144,385	-2,562	310,604	155,146
145,400	-2,631	310,484	154,999
146,414	-2,662	310,163	154,793
147,429	-2,735	309,915	154,578
148,443	-2,559	309,807	154,696
149,458	-2,707	309,643	154,444
150,473	-2,733	309,284	154,224
151,487	-2,702	309,080	154,141
152,502	-2,709	308,951	154,056
153,516	-2,747	308,727	153,890
154,531	-2,705	308,483	153,799
155,546	-2,487	308,162	153,855
156,560	-2,644	308,029	153,610
157,575	-2,767	307,824	153,365
158,589	-2,490	307,501	153,480
159,604	-2,660	307,303	153,189
160,619	-2,538	307,128	153,215
161,633	-2,565	307,050	153,136
162,648	-2,570	306,710	152,947
163,662	-2,636	306,603	152,811
164,677	-2,508	306,461	152,860
165,692	-2,565	306,164	152,639
166,706	-2,615	306,104	152,543
167,721	-2,633	305,703	152,311
168,735	-2,591	305,673	152,326
169,750	-2,619	305,526	152,211
170,764	-2,535	305,154	152,099
171,779	-2,667	304,910	151,827
172,794	-2,637	304,858	151,819
173,808	-2,656	304,576	151,644
174,823	-2,610	304,501	151,641
175,837	-2,695	304,126	151,354
176,852	-2,827	303,973	151,128
177,867	-2,662	303,793	151,194
178,881	-2,491	303,579	151,251
179,896	-2,681	303,600	151,053
180,910	-2,677	303,199	150,844
181,925	-2,491	302,829	150,837
182,940	-2,661	302,817	150,643
183,954	-2,575	302,563	150,591
184,969	-2,482	302,422	150,603
185,983	-2,661	302,275	150,333
186,998	-2,458	301,928	150,355
188,013	-2,427	301,725	150,272
189,027	-2,511	301,432	150,027
190,042	-2,667	301,398	149,837
191,056	-2,623	301,066	149,704
192,071	-2,677	301,037	149,621
193,086	-2,611	300,676	149,495
194,100	-2,521	300,490	149,481
195,115	-2,674	300,404	149,269
196,129	-2,546	300,092	149,232
197,144	-2,674	299,793	148,939
198,159	-2,651	299,679	148,892
199,173	-2,590	299,401	148,803
200,188	-2,678	299,238	148,620
201,202	-2,677	299,139	148,558
202,217	-2,586	298,858	148,497
203,232	-2,696	298,490	148,190
204,246	-2,552	298,301	148,229
205,261	-2,385	298,087	148,278
206,275	-2,617	297,988	147,980
207,290	-2,599	297,870	147,927
208,304	-2,528	297,568	147,835
209,319	-2,557	297,453	147,737
210,334	-2,544	297,169	147,595
211,348	-2,524	296,971	147,504
212,363	-2,518	296,808	147,416
213,377	-2,458	296,459	147,290
214,392	-2,573	296,458	147,160
215,407	-2,674	296,266	146,950
216,421	-2,606	295,967	146,858
217,436	-2,619	295,752	146,724
218,450	-2,675	295,553	146,556
219,465	-2,617	295,305	146,479
220,480	-2,675	295,179	146,345
221,494	-2,343	295,019	146,584
222,509	-2,553	294,849	146,277
223,523	-2,503	294,657	146,218
224,538	-2,610	294,598	146,070
225,553	-2,637	294,269	145,867
226,567	-2,575	294,093	145,828
227,582	-2,668	293,874	145,614
228,596	-2,570	293,774	145,649
229,611	-2,623	293,601	145,497
230,626	-2,542	293,374	145,453
231,640	-2,564	293,068	145,266
232,655	-2,480	292,879	145,243
233,669	-2,608	292,507	144,918
234,684	-2,566	292,488	144,937
235,699	-2,601	292,346	144,820
236,713	-2,588	292,256	144,775
237,728	-2,497	291,846	144,649
238,742	-2,630	291,801	144,483
239,757	-2,602	291,516	144,356
240,772	-2,631	291,356	144,235
241,786	-2,623	291,236	144,170
242,801	-2,607	291,034	144,074
243,815	-2,596	290,894	144,003
244,830	-2,587	290,665	143,885
245,844	-2,705	290,437	143,643
246,859	-2,699	290,260	143,549
247,874	-2,582	290,069	143,556
248,888	-2,679	289,940	143,385
249,903	-2,621	289,649	143,285
250,917	-2,686	289,474	143,122
251,932	-2,572	289,272	143,121
252,947	-2,725	288,992	142,821
253,961	-3,077	288,848	142,393
254,976	-3,102	288,467	142,168
255,990	-3,228	288,264	141,933
257,005	-2,816	288,366	142,372
258,020	-0,764	289,139	144,740
259,034	0,911	289,375	146,476
260,049	1,561	289,446	147,133
261,063	1,827	289,517	147,414
262,078	2,146	289,350	147,626
263,093	2,289	289,264	147,708
264,107	2,701	289,202	148,064
265,122	2,760	289,124	148,067
266,136	2,888	288,842	148,034
267,151	2,826	288,843	147,961
268,166	3,068	288,567	148,041
269,180	2,967	288,374	147,831
270,195	2,853	288,141	147,589
271,209	2,920	288,050	147,594
272,224	2,983	287,691	147,457
273,239	2,777	287,560	147,178
274,253	2,650	287,346	146,932
275,268	2,537	287,232	146,753
276,282	2,713	286,813	146,695
277,297	2,758	286,715	146,675
278,312	2,810	286,647	146,676
279,326	2,805	286,372	146,519
280,341	2,643	286,204	146,263
281,355	2,548	286,097	146,105
282,370	2,637	285,858	146,055
283,384	2,679	285,629	145,966
284,399	2,639	285,362	145,778
285,414	2,574	285,277	145,659
286,428	2,512	285,079	145,486
287,443	2,487	284,984	145,401
288,457	2,590	284,678	145,330
289,472	2,329	284,500	144,977
290,487	2,601	284,202	145,071
291,501	2,478	284,073	144,875
292,516	2,401	283,934	144,718
293,530	2,478	283,748	144,684
294,545	2,463	283,626	144,595
295,560	2,544	283,362	144,524
296,574	2,503	283,167	144,373
297,589	2,408	282,891	144,129
298,603	2,344	282,921	144,071
299,618	2,391	282,664	143,972
300,633	2,585	282,442	144,029
301,647	2,421	282,392	143,836
302,662	2,669	282,249	143,985
303,676	2,781	281,948	143,923
304,691	2,800	281,725	143,815
305,706	2,863	281,592	143,793
306,720	2,799	281,426	143,635
307,735	2,832	281,194	143,535
308,749	2,601	281,241	143,329
309,764	2,829	280,929	143,371
310,779	2,849	280,661	143,241
311,793	2,656	280,540	142,986
312,808	2,729	280,315	142,927
313,822	2,873	280,235	143,008
314,837	2,739	280,040	142,770
315,852	2,642	279,932	142,611
316,866	2,716	279,795	142,598
317,881	2,714	279,505	142,436
318,895	2,681	279,095	142,183
319,910	2,616	279,032	142,078
320,925	2,737	278,842	142,082
321,939	2,776	278,557	141,959
322,954	2,731	278,623	141,939
323,968	2,734	278,411	141,821
324,983	2,794	278,360	141,838
325,997	2,689	278,173	141,633
327,012	2,793	277,882	141,569
328,027	2,806	277,840	141,547
329,041	2,846	277,521	141,408
330,056	2,712	277,361	141,190
331,070	2,875	277,135	141,213
332,085	2,849	277,128	141,173
333,100	2,795	276,773	140,930
334,114	2,773	276,467	140,741
335,129	2,904	276,457	140,844
336,143	2,827	276,352	140,707
337,158	2,766	276,150	140,536
338,173	2,867	275,965	140,522
339,187	2,715	275,805	140,288
340,202	2,728	275,585	140,175
341,216	2,824	275,409	140,162
342,231	2,696	275,239	139,945
343,246	2,717	275,045	139,853
344,260	2,743	274,969	139,826
345,275	2,984	274,708	139,901
346,289	2,684	274,657	139,589
347,304	2,952	274,305	139,642
348,319	2,897	274,185	139,518
349,333	2,833	274,045	139,376
350,348	2,757	273,872	139,206
351,362	2,767	273,733	139,133
352,377	2,643	273,570	138,924
353,392	2,820	273,357	138,965
354,406	2,854	273,203	138,905
355,421	191,287	1349,893	1429,495
356,435	154,436	1481,175	1429,619
