DTS Sentinel unit serial number:	SN410029Multiplexer serial number:	ORYXHardware model number:	OX2-SRSoftware version number:	ORYX F/W v4,00 Oryx Data Collector v3.7.2.0data status	okinstallation	B4 Nyhavnadifferential loss correction	single-endedforward channel	channel 2reverse channel	N/Adate	2023/12/19time	03:15:13forward acquisition time	300,00reverse acquisition time	0,00gamma	499,1914k internal	0,3125k external	0,3125temperature offset calibration	1,0000default loss term (dB/km)	0,3820temperature slope calibration	1,0000multiplexer offset coefficient	1,0000multiplexer slope coefficient	1,0000fibre end	0,00T internal ref (°C)	21,17T ext. ref 1 (°C)	5,84T ext. ref 2 (°C)	5,83length (m)	temperature (°C)	Stokes	anti-Stokes-744,400	-141,296	0,110	-0,008
-743,385	51,136	-0,212	0,150
-742,371	-46,389	0,104	-0,038
-741,356	-39,315	-0,203	0,079
-740,342	-200,000	0,033	0,125
-739,327	-196,337	-0,237	0,001
-738,312	23,627	0,096	-0,059
-737,298	-41,031	-0,367	0,140
-736,283	800,000	-0,019	-0,048
-735,269	-119,681	-0,065	0,008
-734,254	258,469	-0,033	-0,042
-733,239	-92,719	-0,393	-0,081
-732,225	112,823	0,055	-0,050
-731,210	37,291	0,032	-0,021
-730,196	-80,758	-0,024	0,006
-729,181	31,992	0,045	0,029
-728,167	-200,000	0,001	-0,028
-727,152	800,000	-0,031	-0,082
-726,137	7,178	-0,119	0,066
-725,123	-26,663	0,080	-0,035
-724,108	800,000	-0,067	-0,187
-723,094	-200,000	-0,027	-0,108
-722,079	-200,000	0,034	-0,118
-721,064	106,135	0,027	-0,023
-720,050	12,801	-0,098	-0,056
-719,035	-200,000	-0,004	0,021
-718,021	-0,111	-0,110	-0,058
-717,006	-200,000	0,005	-0,042
-715,991	-200,000	-0,046	-0,155
-714,977	274,156	-0,045	-0,060
-713,962	800,000	0,034	-0,095
-712,948	169,701	-0,022	0,024
-711,933	363,127	0,021	-0,031
-710,918	-200,000	-0,023	0,139
-709,904	-200,000	0,038	0,185
-708,889	616,058	-0,080	0,149
-707,875	-200,000	-0,026	-0,098
-706,860	-61,774	-0,009	-0,003
-705,845	-31,885	0,090	0,037
-704,831	307,648	-0,094	-0,131
-703,816	221,161	0,067	-0,080
-702,802	-29,020	0,039	0,016
-701,787	-131,365	-0,121	-0,012
-700,772	118,335	-0,176	-0,161
-699,758	18,258	0,077	-0,045
-698,743	-169,210	0,101	-0,003
-697,729	-200,000	0,016	-0,105
-696,714	800,000	-0,015	0,048
-695,699	211,840	0,025	0,029
-694,685	73,907	-0,061	0,048
-693,670	-64,650	0,114	0,034
-692,656	-200,000	0,001	-0,126
-691,641	78,120	-0,096	-0,076
-690,627	-200,000	0,016	0,083
-689,612	81,065	-0,039	0,031
-688,597	6,645	0,006	0,003
-687,583	129,542	0,068	0,064
-686,568	800,000	0,034	0,100
-685,554	-55,711	-0,119	-0,039
-684,539	-200,000	0,033	0,117
-683,524	151,380	-0,036	-0,037
-682,510	-200,000	0,004	-0,018
-681,495	800,000	0,041	0,108
-680,481	-200,000	-0,007	0,039
-679,466	-44,260	-0,178	-0,066
-678,451	107,092	-0,161	-0,142
-677,437	-104,394	0,129	-0,022
-676,422	-147,534	0,060	-0,004
-675,408	800,000	-0,024	-0,051
-674,393	-2,477	-0,051	-0,026
-673,378	800,000	-0,034	0,075
-672,364	77,133	-0,111	-0,088
-671,349	-84,635	-0,105	0,024
-670,335	678,043	-0,029	-0,057
-669,320	800,000	-0,055	0,126
-668,305	-6,719	0,073	-0,037
-667,291	-18,258	0,109	0,050
-666,276	-200,000	0,008	-0,191
-665,262	120,140	0,087	-0,080
-664,247	-200,000	0,010	-0,040
-663,232	800,000	0,015	-0,048
-662,218	-200,000	0,008	0,071
-661,203	-200,000	-0,011	0,121
-660,189	86,184	-0,122	-0,100
-659,174	46,824	-0,050	-0,034
-658,159	-86,778	0,147	-0,033
-657,145	-15,484	0,080	-0,038
-656,130	5,809	0,099	-0,054
-655,116	121,867	0,072	-0,067
-654,101	-200,000	-0,003	-0,020
-653,086	95,950	-0,138	-0,117
-652,072	-200,000	-0,003	-0,011
-651,057	-119,213	-0,179	-0,023
-650,043	-131,464	0,084	0,008
-649,028	-200,000	0,007	-0,089
-648,014	-200,000	-0,001	-0,083
-646,999	-55,754	-0,077	-0,025
-645,984	-47,317	-0,022	0,008
-644,970	800,000	-0,059	-0,132
-643,955	-200,000	0,000	-0,021
-642,941	116,218	-0,121	-0,110
-641,926	-200,000	0,061	0,207
-640,911	246,957	0,053	0,066
-639,897	-0,949	0,048	-0,025
-638,882	100,670	0,053	0,046
-637,868	800,000	-0,009	-0,024
-636,853	-63,828	-0,058	-0,017
-635,838	-200,000	-0,009	0,113
-634,824	-81,253	0,088	-0,021
-633,809	-200,000	0,001	0,011
-632,795	99,891	0,069	0,059
-631,780	21,043	0,072	-0,043
-630,765	-115,792	0,059	0,008
-629,751	0,257	-0,031	-0,016
-628,736	-103,977	-0,015	0,003
-627,722	84,035	-0,095	-0,077
-626,707	285,911	-0,057	0,076
-625,692	-200,000	0,010	0,042
-624,678	297,844	-0,110	0,151
-623,663	-42,558	-0,097	-0,036
-622,649	439,743	-0,030	-0,049
-621,634	372,883	0,047	-0,071
-620,619	-200,000	0,011	0,052
-619,605	629,774	0,032	0,061
-618,590	-132,156	0,082	-0,008
-617,576	-200,000	0,006	0,051
-616,561	-88,957	0,098	0,021
-615,546	-200,000	-0,007	0,048
-614,532	-152,077	-0,173	0,009
-613,517	127,886	0,068	-0,064
-612,503	-200,000	0,003	-0,022
-611,488	-24,679	-0,114	-0,050
-610,474	230,970	0,047	0,057
-609,459	-200,000	0,011	-0,106
-608,444	-126,366	0,081	0,009
-607,430	-148,941	-0,107	-0,006
-606,415	-52,529	0,101	-0,034
-605,401	800,000	-0,040	0,123
-604,386	-61,736	-0,123	0,038
-603,371	-184,186	0,028	-0,000
-602,357	21,511	-0,065	0,039
-601,342	-122,652	-0,111	-0,013
-600,328	800,000	-0,024	0,078
-599,313	-58,523	-0,130	0,042
-598,298	-146,390	0,066	0,004
-597,284	556,781	0,104	0,187
-596,269	-11,723	0,078	0,038
-595,255	-95,812	0,016	0,003
-594,240	-200,000	-0,016	-0,077
-593,225	-52,077	-0,113	-0,039
-592,211	258,488	0,043	0,054
-591,196	277,072	-0,111	-0,146
-590,182	800,000	0,007	0,018
-589,167	-200,000	-0,021	0,092
-588,152	696,629	-0,048	0,095
-587,138	-89,968	-0,121	0,026
-586,123	800,000	0,050	0,134
-585,109	685,094	-0,010	0,019
-584,094	800,000	-0,051	-0,117
-583,079	-83,232	-0,062	0,015
-582,065	-96,654	0,173	0,033
-581,050	-6,754	0,042	0,021
-580,036	-186,106	-0,041	-0,000
-579,021	208,278	0,029	-0,034
-578,006	-107,247	0,013	-0,002
-576,992	-200,000	-0,021	-0,079
-575,977	264,472	-0,059	-0,076
-574,963	-162,017	0,197	0,007
-573,948	-200,000	0,011	-0,066
-572,934	59,264	0,047	-0,034
-571,919	208,939	-0,039	-0,046
-570,904	4,878	-0,089	0,048
-569,890	-200,000	-0,026	0,087
-568,875	7,125	0,043	-0,024
-567,861	211,674	-0,060	0,070
-566,846	-132,311	-0,034	0,003
-565,831	459,229	-0,050	-0,082
-564,817	-85,710	-0,130	0,030
-563,802	-65,354	0,010	0,003
-562,788	-28,146	-0,102	0,043
-561,773	474,223	0,043	-0,071
-560,758	-166,578	0,068	0,002
-559,744	196,869	0,054	0,061
-558,729	223,962	0,050	-0,060
-557,715	-200,000	0,023	-0,133
-556,700	81,232	-0,047	-0,038
-555,685	621,972	-0,007	0,013
-554,671	-200,000	0,140	-0,000
-553,656	800,000	-0,026	0,077
-552,642	-117,327	0,104	0,014
-551,627	163,378	0,045	0,047
-550,612	-31,622	-0,064	-0,027
-549,598	672,223	0,048	-0,092
-548,583	501,604	0,072	-0,123
-547,569	800,000	-0,008	0,023
-546,554	-44,532	-0,051	-0,019
-545,539	297,892	-0,010	-0,014
-544,525	-101,670	0,057	-0,010
-543,510	-15,436	-0,025	-0,012
-542,496	38,679	0,066	-0,044
-541,481	-72,949	-0,091	-0,025
-540,466	650,004	0,042	0,080
-539,452	-20,097	0,100	0,045
-538,437	-71,201	0,051	-0,014
-537,423	25,885	0,104	0,064
-536,408	-86,714	0,044	-0,010
-535,393	2,281	-0,060	-0,032
-534,379	-60,133	-0,039	0,012
-533,364	232,394	-0,036	-0,043
-532,350	141,809	0,050	0,049
-531,335	-143,814	0,047	-0,003
-530,321	50,386	-0,049	0,034
-529,306	152,177	-0,052	0,052
-528,291	-80,652	-0,067	0,016
-527,277	-200,000	0,009	0,088
-526,262	411,624	0,032	-0,050
-525,248	800,000	0,066	-0,146
-524,233	11,419	0,096	0,054
-523,218	-200,000	0,020	0,071
-522,204	800,000	0,006	-0,018
-521,189	29,619	-0,105	0,066
-520,175	199,324	0,056	-0,064
-519,160	-200,000	-0,018	-0,063
-518,145	-200,000	0,041	-0,213
-517,131	800,000	0,017	-0,049
-516,116	383,595	0,112	0,171
-515,102	616,286	0,033	0,062
-514,087	-200,000	0,009	0,068
-513,072	-137,762	-0,135	0,011
-512,058	-72,755	0,123	-0,033
-511,043	-49,224	-0,083	0,029
-510,029	161,220	0,068	0,070
-509,014	98,766	-0,083	-0,071
-507,999	800,000	0,021	0,052
-506,985	-200,000	0,023	-0,094
-505,970	-200,000	-0,007	-0,026
-504,956	-200,000	-0,002	0,062
-503,941	427,203	0,067	0,108
-502,926	800,000	0,091	-0,195
-501,912	-165,501	0,095	0,003
-500,897	215,633	-0,075	0,089
-499,883	293,076	0,036	-0,049
-498,868	224,555	-0,069	0,082
-497,853	29,672	-0,144	0,090
-496,839	-200,000	-0,017	0,059
-495,824	431,092	0,015	0,024
-494,810	54,836	0,061	0,044
-493,795	135,984	-0,117	0,113
-492,781	-62,660	0,043	0,013
-491,766	0,227	0,080	0,042
-490,751	-147,193	0,033	0,002
-489,737	800,000	0,028	0,059
-488,722	-200,000	0,020	0,174
-487,708	-200,000	-0,002	-0,141
-486,693	800,000	-0,025	-0,073
-485,678	-200,000	0,017	0,126
-484,664	-44,946	0,093	-0,034
-483,649	-70,876	-0,096	-0,026
-482,635	-200,000	-0,010	-0,134
-481,620	325,009	-0,071	-0,101
-480,605	800,000	0,015	0,037
-479,591	-200,000	-0,031	0,102
-478,576	419,888	0,060	0,095
-477,562	-151,428	-0,068	0,004
-476,547	800,000	0,059	-0,126
-475,532	355,814	0,135	-0,199
-474,518	-29,844	0,072	-0,030
-473,503	39,617	0,048	-0,032
-472,489	89,450	-0,091	-0,074
-471,474	-110,614	-0,097	-0,015
-470,459	800,000	0,041	-0,117
-469,445	-104,672	-0,113	-0,019
-468,430	800,000	-0,031	-0,082
-467,416	800,000	-0,020	-0,059
-466,401	-156,658	0,060	-0,003
-465,386	-200,000	-0,002	0,018
-464,372	-200,000	-0,037	0,142
-463,357	6,173	0,104	-0,056
-462,343	-138,769	-0,173	0,014
-461,328	-145,986	-0,086	0,005
-460,313	-16,223	0,053	-0,025
-459,299	-93,633	0,122	-0,025
-458,284	-12,453	0,071	0,034
-457,270	-200,000	-0,021	-0,097
-456,255	-175,756	0,118	-0,002
-455,241	0,653	0,050	0,026
-454,226	-86,619	-0,059	0,013
-453,211	318,892	0,051	0,072
-452,197	-200,000	-0,005	0,041
-451,182	81,506	0,053	0,042
-450,168	800,000	0,039	-0,113
-449,153	41,483	0,110	0,073
-448,138	-93,019	-0,133	-0,027
-447,124	800,000	-0,014	-0,044
-446,109	119,991	-0,140	0,128
-445,095	-118,925	-0,012	0,001
-444,080	-181,514	-0,138	0,002
-443,065	108,967	-0,071	0,063
-442,051	155,782	-0,144	-0,147
-441,036	-200,000	0,030	-0,194
-440,022	253,256	-0,071	-0,089
-439,007	403,730	0,018	0,029
-437,992	519,760	0,026	0,044
-436,978	-200,000	0,003	-0,101
-435,963	270,912	0,010	0,013
-434,949	800,000	-0,057	-0,159
-433,934	356,688	-0,083	-0,121
-432,919	-200,000	-0,004	-0,059
-431,905	-200,000	-0,167	-0,000
-430,890	-200,000	-0,010	-0,104
-429,876	-200,000	-0,020	0,108
-428,861	-103,325	0,067	-0,012
-427,846	-200,000	-0,001	-0,032
-426,832	-200,000	0,006	0,136
-425,817	-200,000	0,006	-0,093
-424,803	-69,589	0,046	-0,013
-423,788	51,636	-0,079	0,056
-422,773	72,419	-0,089	0,068
-421,759	21,904	0,021	0,012
-420,744	-154,386	0,074	-0,004
-419,730	-125,486	0,133	-0,015
-418,715	30,842	0,071	0,045
-417,701	800,000	-0,027	0,070
-416,686	-200,000	0,020	0,086
-415,671	800,000	0,051	0,123
-414,657	-128,881	-0,160	0,016
-413,642	-200,000	0,015	0,106
-412,628	-68,327	0,103	-0,029
-411,613	-160,276	0,083	-0,003
-410,598	-150,281	-0,014	-0,001
-409,584	800,000	0,063	0,147
-408,569	-39,370	0,021	-0,008
-407,555	-135,185	0,051	0,004
-406,540	-81,764	0,156	0,037
-405,525	73,214	-0,160	0,123
-404,511	-200,000	-0,031	0,141
-403,496	-200,000	0,000	0,022
-402,482	800,000	0,002	-0,006
-401,467	-200,000	-0,022	-0,122
-400,452	-200,000	-0,018	0,115
-399,438	28,935	0,083	-0,051
-398,423	283,466	0,066	-0,088
-397,409	800,000	-0,028	-0,082
-396,394	-43,873	-0,052	0,019
-395,379	198,408	0,100	-0,113
-394,365	199,501	-0,074	-0,083
-393,350	-25,095	-0,143	0,062
-392,336	800,000	-0,077	0,203
-391,321	-200,000	-0,021	-0,099
-390,306	800,000	0,058	-0,145
-389,292	-138,697	-0,091	-0,007
-388,277	82,879	-0,061	0,049
-387,263	90,853	0,109	0,090
-386,248	8,522	0,183	0,101
-385,233	-200,000	-0,015	0,097
-384,219	151,643	0,057	-0,057
-383,204	-17,088	-0,147	-0,068
-382,190	-39,957	-0,073	-0,028
-381,175	-116,887	-0,092	0,012
-380,160	-111,267	-0,037	0,005
-379,146	4,106	0,026	-0,014
-378,131	-39,755	-0,092	0,035
-377,117	4,671	0,080	0,043
-376,102	-200,000	0,002	0,057
-375,088	-200,000	-0,011	-0,053
-374,073	-72,328	0,087	-0,023
-373,058	14,784	0,090	-0,052
-372,044	-200,000	0,009	0,137
-371,029	-34,978	0,099	0,039
-370,015	-80,607	-0,102	-0,025
-369,000	-200,000	-0,021	-0,068
-367,985	-86,028	0,102	-0,023
-366,971	-200,000	-0,006	-0,044
-365,956	-59,859	-0,031	-0,010
-364,942	800,000	0,034	0,090
-363,927	-59,006	-0,041	0,013
-362,912	651,279	0,050	0,094
-361,898	-88,969	-0,071	0,015
-360,883	103,409	-0,049	-0,043
-359,869	234,558	0,063	-0,076
-358,854	-200,000	0,018	0,074
-357,839	-91,802	0,089	0,018
-356,825	-77,980	0,081	-0,020
-355,810	-200,000	-0,018	0,090
-354,796	22,097	0,026	-0,015
-353,781	800,000	-0,020	-0,054
-352,766	319,744	0,061	0,086
-351,752	631,716	-0,057	0,105
-350,737	138,727	-0,033	0,031
-349,723	639,448	-0,022	0,041
-348,708	-200,000	-0,005	0,016
-347,693	-200,000	-0,036	-0,139
-346,679	93,714	-0,089	0,074
-345,664	800,000	-0,068	-0,199
-344,650	8,662	0,049	-0,027
-343,635	800,000	0,053	0,110
-342,620	200,588	0,092	0,104
-341,606	394,260	0,042	0,065
-340,591	-45,452	-0,132	-0,048
-339,577	349,086	0,039	0,057
-338,562	-200,000	-0,004	-0,136
-337,548	197,422	-0,026	-0,030
-336,533	685,894	-0,059	0,113
-335,518	-200,000	0,021	0,134
-334,504	300,679	0,062	0,084
-333,489	-30,489	-0,117	-0,049
-332,475	-200,000	-0,013	-0,171
-331,460	-70,774	-0,089	-0,024
-330,445	-200,000	0,006	-0,079
-329,431	331,940	0,040	-0,057
-328,416	800,000	0,002	0,007
-327,402	89,438	0,081	0,066
-326,387	-200,000	0,026	-0,093
-325,372	108,239	0,079	-0,069
-324,358	800,000	-0,017	-0,042
-323,343	-3,268	-0,104	0,053
-322,329	-10,138	0,076	0,037
-321,314	606,452	-0,046	-0,084
-320,299	287,366	-0,035	0,047
-319,285	-200,000	0,005	-0,079
-318,270	30,368	0,071	-0,044
-317,256	-200,000	-0,048	-0,161
-316,241	422,409	0,095	0,150
-315,226	-45,295	-0,165	0,060
-314,212	-200,000	0,011	-0,051
-313,197	594,087	0,081	-0,147
-312,183	282,483	-0,085	0,111
-311,168	-57,948	-0,085	-0,027
-310,153	-100,675	0,129	-0,023
-309,139	-200,000	-0,022	0,106
-308,124	-80,692	0,071	-0,017
-307,110	-103,735	0,076	-0,013
-306,095	112,248	0,057	0,050
-305,080	-90,970	-0,054	0,011
-304,066	800,000	0,067	0,136
-303,051	-2,824	-0,192	-0,098
-302,037	86,746	-0,188	-0,152
-301,022	-11,412	0,125	-0,060
-300,008	-200,000	-0,009	-0,084
-298,993	717,944	0,069	0,135
-297,978	-200,000	-0,013	0,085
-296,964	-200,000	-0,013	0,071
-295,949	42,093	-0,093	-0,062
-294,935	-200,000	-0,003	-0,107
-293,920	145,007	0,085	-0,083
-292,905	800,000	0,031	0,065
-291,891	780,818	0,067	0,134
-290,876	-200,000	0,004	-0,046
-289,862	-200,000	-0,037	0,138
-288,847	-200,000	0,002	-0,080
-287,832	-27,300	0,046	-0,019
-286,818	147,961	-0,049	0,049
-285,803	481,165	0,011	0,019
-284,789	83,502	0,099	0,079
-283,774	-200,000	-0,009	-0,037
-282,759	800,000	-0,009	0,027
-281,745	-42,068	0,031	0,012
-280,730	134,311	-0,039	-0,037
-279,716	97,909	0,010	-0,009
-278,701	60,454	0,100	0,072
-277,686	141,483	-0,031	-0,030
-276,672	198,087	0,072	0,080
-275,657	308,106	-0,067	0,091
-274,643	-12,464	-0,132	0,063
-273,628	800,000	-0,073	-0,151
-272,613	8,195	-0,049	0,027
-271,599	294,897	-0,074	0,099
-270,584	-57,948	0,137	0,044
-269,570	-40,947	0,128	-0,048
-268,555	800,000	-0,023	0,049
-267,540	-67,055	-0,035	-0,010
-266,526	-148,956	-0,074	0,004
-265,511	206,211	-0,141	-0,161
-264,497	274,233	-0,023	-0,029
-263,482	386,006	0,033	0,051
-262,467	-121,351	0,031	-0,004
-261,453	565,809	0,035	0,062
-260,438	-135,007	-0,081	-0,007
-259,424	800,000	0,030	-0,062
-258,409	161,518	-0,044	-0,045
-257,395	800,000	-0,004	-0,008
-256,380	-106,105	0,073	-0,012
-255,365	-200,000	0,018	-0,160
-254,351	-200,000	0,012	-0,050
-253,336	-154,091	0,120	-0,006
-252,322	-18,032	-0,119	-0,054
-251,307	-200,000	-0,007	-0,069
-250,292	238,875	0,009	-0,011
-249,278	6,602	0,068	0,037
-248,263	-34,455	0,006	0,002
-247,249	182,785	-0,061	0,066
-246,234	635,713	0,064	0,120
-245,219	-68,581	-0,078	-0,022
-244,205	125,442	0,042	-0,039
-243,190	-200,000	0,007	0,186
-242,176	-112,506	0,179	0,026
-241,161	-200,000	0,010	-0,051
-240,146	251,579	-0,052	0,065
-239,132	-166,139	-0,146	0,004
-238,117	-200,000	-0,034	-0,134
-237,103	429,152	-0,045	-0,072
-236,088	289,376	-0,057	-0,075
-235,073	44,093	0,052	0,034
-234,059	-99,103	0,168	-0,031
-233,044	232,820	-0,055	-0,066
-232,030	-114,561	-0,076	0,010
-231,015	277,728	0,060	0,078
-230,000	66,239	-0,061	0,045
-228,986	-24,689	-0,070	-0,030
-227,971	8,004	0,087	-0,047
-226,957	-200,000	-0,006	0,076
-225,942	561,164	0,012	-0,022
-224,927	800,000	0,021	0,062
-223,913	-200,000	-0,002	-0,111
-222,898	-200,000	-0,013	-0,106
-221,884	29,198	-0,144	-0,089
-220,869	-32,101	0,074	0,030
-219,855	327,740	0,078	0,110
-218,840	800,000	0,050	0,126
-217,825	94,746	-0,104	0,087
-216,811	800,000	0,023	-0,071
-215,796	254,248	-0,106	-0,133
-214,782	-105,385	-0,111	0,018
-213,767	800,000	0,037	-0,106
-212,752	800,000	-0,059	0,125
-211,738	-200,000	-0,006	0,103
-210,723	-200,000	0,037	0,162
-209,709	800,000	-0,024	-0,068
-208,694	71,397	-0,083	-0,063
-207,679	-93,195	0,069	-0,014
-206,665	-6,814	0,160	-0,079
-205,650	-200,000	-0,018	-0,059
-204,636	63,257	0,100	-0,073
-203,621	415,858	-0,028	0,043
-202,606	495,664	0,067	0,113
-201,592	800,000	-0,017	0,048
-200,577	-200,000	0,031	-0,132
-199,563	-78,399	0,070	0,017
-198,548	340,792	0,043	0,062
-197,533	-200,000	-0,024	0,120
-196,519	800,000	-0,012	0,034
-195,504	193,930	-0,042	0,047
-194,490	133,057	0,045	0,042
-193,475	-14,344	-0,081	-0,038
-192,460	6,284	0,184	-0,099
-191,446	-200,000	-0,023	-0,075
-190,431	299,421	-0,064	0,086
-189,417	-10,141	-0,030	0,015
-188,402	800,000	-0,042	0,113
-187,387	344,882	-0,045	-0,065
-186,373	579,885	-0,055	-0,099
-185,358	-165,214	-0,117	-0,004
-184,344	54,973	0,063	-0,044
-183,329	391,876	-0,028	0,043
-182,315	-200,000	0,024	0,107
-181,300	172,521	0,029	0,031
-180,285	5,519	-0,083	-0,045
-179,271	306,613	-0,067	-0,092
-178,256	-200,000	0,014	-0,119
-177,242	-93,020	0,151	-0,030
-176,227	800,000	0,049	-0,098
-175,212	-24,284	0,127	-0,055
-174,198	-200,000	0,014	-0,089
-173,183	215,816	0,065	0,075
-172,169	800,000	0,017	-0,042
-171,154	-200,000	-0,025	-0,091
-170,139	-26,258	0,034	-0,015
-169,125	3,806	0,088	0,047
-168,110	-200,000	0,013	-0,101
-167,096	-200,000	0,016	-0,062
-166,081	-200,000	0,003	0,040
-165,066	-63,115	-0,129	0,039
-164,052	-200,000	-0,017	-0,063
-163,037	-127,327	-0,101	0,011
-162,023	-113,318	0,112	-0,016
-161,008	132,133	0,093	0,088
-159,993	168,509	-0,139	-0,144
-158,979	-200,000	0,007	-0,071
-157,964	-200,000	0,005	-0,095
-156,950	-32,002	0,056	0,023
-155,935	113,244	-0,021	0,019
-154,920	-200,000	0,014	0,050
-153,906	-200,000	-0,027	0,150
-152,891	-200,000	-0,020	0,089
-151,877	237,491	-0,005	-0,006
-150,862	340,067	-0,079	-0,113
-149,847	607,257	-0,027	-0,050
-148,833	274,280	0,057	0,074
-147,818	-200,000	-0,009	0,040
-146,804	-31,635	0,067	-0,027
-145,789	-144,043	-0,066	0,004
-144,775	-120,370	0,012	-0,002
-143,760	530,681	-0,058	-0,101
-142,745	248,629	-0,073	0,090
-141,731	-60,568	-0,033	0,010
-140,716	73,647	0,186	-0,141
-139,702	800,000	-0,044	0,092
-138,687	-62,638	0,077	-0,023
-137,672	290,101	-0,089	-0,118
-136,658	286,670	-0,104	0,137
-135,643	-200,000	-0,012	-0,111
-134,629	119,578	0,158	-0,143
-133,614	-44,008	0,177	0,064
-132,599	-157,825	0,030	0,001
-131,585	-63,134	0,040	-0,012
-130,570	425,229	-0,042	0,065
-129,556	-200,000	0,029	-0,111
-128,541	-200,000	0,006	-0,048
-127,526	99,095	0,105	0,088
-126,512	-200,000	0,044	0,219
-125,497	59,094	0,098	0,070
-124,483	23,488	-0,098	-0,058
-123,468	-130,753	-0,100	-0,010
-122,453	-200,000	0,009	-0,085
-121,439	800,000	-0,015	-0,040
-120,424	152,737	0,046	0,046
-119,410	14,130	0,017	-0,009
-118,395	62,993	-0,067	0,049
-117,380	-37,998	0,037	-0,014
-116,366	-33,980	-0,054	0,022
-115,351	288,727	-0,095	-0,125
-114,337	800,000	0,009	-0,028
-113,322	800,000	0,049	-0,129
-112,307	104,172	-0,071	0,061
-111,293	800,000	0,057	-0,151
-110,278	-49,604	-0,085	0,029
-109,264	-200,000	0,002	-0,043
-108,249	-200,000	-0,004	-0,090
-107,234	-8,616	0,058	-0,028
-106,220	-151,262	-0,081	0,004
-105,205	-36,216	0,043	0,017
-104,191	-47,398	0,114	0,040
-103,176	-12,061	0,023	0,011
-102,162	-200,000	0,011	-0,109
-101,147	50,125	0,063	0,043
-100,132	-80,603	0,078	-0,019
-99,118	77,068	-0,124	-0,096
-98,103	229,814	0,095	0,113
-97,089	764,354	0,032	-0,063
-96,074	206,684	0,043	-0,049
-95,059	-39,999	0,029	0,011
-94,045	58,673	-0,049	-0,035
-93,030	-200,000	0,005	-0,019
-92,016	800,000	0,026	0,054
-91,001	-149,232	0,197	0,011
-89,986	-200,000	-0,007	0,056
-88,972	-200,000	-0,006	0,056
-87,957	-88,690	0,167	0,036
-86,943	103,470	-0,044	-0,038
-85,928	800,000	-0,065	-0,132
-84,913	-28,741	-0,076	-0,032
-83,899	800,000	0,019	-0,056
-82,884	-200,000	0,010	0,105
-81,870	-74,938	0,049	-0,013
-80,855	191,815	0,123	0,135
-79,840	172,152	-0,013	-0,014
-78,826	-140,739	-0,123	-0,009
-77,811	-200,000	0,008	0,077
-76,797	-200,000	-0,017	-0,103
-75,782	800,000	0,018	-0,040
-74,767	-200,000	0,003	-0,036
-73,753	24,303	-0,075	-0,045
-72,738	-69,481	-0,008	0,002
-71,724	800,000	0,014	-0,031
-70,709	-74,056	-0,071	0,018
-69,694	-84,654	-0,029	-0,007
-68,680	-200,000	0,006	0,052
-67,665	531,548	0,070	0,121
-66,651	800,000	-0,032	0,098
-65,636	627,905	0,080	0,147
-64,622	334,850	-0,054	0,076
-63,607	-140,594	-0,080	-0,006
-62,592	800,000	-0,020	0,053
-61,578	321,651	-0,092	0,127
-60,563	0,453	0,114	0,059
-59,549	385,182	0,036	-0,054
-58,534	-122,188	-1,461	-0,171
-57,519	583,902	-0,742	-1,328
-56,505	-200,000	-0,896	-4,298
-55,490	-54,883	0,613	-0,199
-54,476	800,000	5,049	11,632
-53,461	-200,000	14,559	260,206
-52,446	-200,000	695,617	2277,147
-51,432	603,736	1622,628	2939,638
-50,417	117,795	1631,461	1456,549
-49,403	75,237	1285,047	981,540
-48,388	37,237	1022,444	655,280
-47,373	23,406	981,457	583,534
-46,359	22,557	970,957	574,483
-45,344	21,434	966,359	568,074
-44,330	21,374	965,044	567,081
-43,315	21,266	963,450	565,772
-42,300	21,204	962,520	565,002
-41,286	21,196	961,347	564,264
-40,271	21,180	960,358	563,609
-39,257	21,166	959,555	563,068
-38,242	21,149	958,605	562,435
-37,227	21,185	957,788	562,049
-36,213	21,210	956,863	561,565
-35,198	21,218	955,974	561,045
-34,184	21,202	955,388	560,629
-33,169	21,140	954,397	559,824
-32,154	21,223	953,405	559,488
-31,140	21,231	952,655	559,054
-30,125	21,223	951,941	558,584
-29,111	21,254	950,991	558,105
-28,096	21,177	950,520	557,558
-27,082	21,187	949,741	557,112
-26,067	21,181	948,908	556,582
-25,052	21,178	948,133	556,097
-24,038	21,175	947,458	555,670
-23,023	21,170	946,986	555,355
-22,009	21,240	946,307	555,158
-20,994	21,293	945,568	554,871
-19,979	21,209	945,102	554,306
-18,965	21,226	944,478	553,973
-17,950	21,194	943,851	553,482
-16,936	21,106	943,198	552,797
-15,921	21,194	942,346	552,556
-14,906	21,082	941,831	551,874
-13,892	21,166	940,870	551,556
-12,877	21,054	940,486	550,952
-11,863	21,060	939,805	550,553
-10,848	21,078	939,263	550,271
-9,833	21,194	938,939	550,425
-8,819	21,112	938,220	549,723
-7,804	21,137	937,468	549,341
-6,790	21,118	936,939	548,947
-5,775	21,057	936,453	548,448
-4,760	21,127	935,744	548,232
-3,746	21,063	935,236	547,711
-2,731	20,926	934,484	546,817
-1,717	20,937	933,717	546,380
-0,702	20,899	933,079	545,866
0,313	20,718	932,556	545,815
1,327	23,301	930,020	552,397
2,342	30,912	807,393	500,161
3,356	25,259	508,321	305,224
4,371	0,621	374,220	193,280
5,386	-2,389	357,340	180,842
6,400	-3,445	351,512	176,598
7,415	-3,765	349,006	174,938
8,429	-3,767	347,563	174,196
9,444	-3,820	346,775	173,722
10,459	-3,683	346,082	173,524
11,473	-3,703	345,354	173,119
12,488	-3,746	344,750	172,749
13,502	-3,848	344,196	172,336
14,517	-3,548	343,637	172,395
15,531	-3,677	343,215	172,016
16,546	-3,572	342,851	171,942
17,561	-3,690	342,442	171,583
18,575	-3,576	342,089	171,525
19,590	-3,552	341,511	171,248
20,604	-3,426	341,238	171,243
21,619	-3,726	341,004	170,759
22,634	-3,526	340,522	170,737
23,648	-3,582	340,169	170,479
24,663	-3,524	339,788	170,341
25,677	-3,649	339,563	170,066
26,692	-3,616	339,391	170,003
27,707	-3,558	339,075	169,898
28,721	-3,516	338,668	169,728
29,736	-3,521	338,395	169,570
30,750	-3,619	337,932	169,209
31,765	-3,505	337,735	169,228
32,780	-3,570	337,501	169,020
33,794	-3,549	337,085	168,821
34,809	-3,605	336,856	168,627
35,823	-3,544	336,649	168,579
36,838	-3,704	336,360	168,234
37,853	-3,579	336,028	168,196
38,867	-3,571	335,800	168,077
39,882	-3,661	335,487	167,802
40,896	-3,468	335,285	167,907
41,911	-3,567	335,017	167,645
42,926	-3,584	334,604	167,404
43,940	-3,551	334,420	167,334
44,955	-3,746	334,252	167,011
45,969	-3,672	334,020	166,965
46,984	-3,482	333,708	167,013
47,999	-3,665	333,528	166,698
49,013	-3,624	333,225	166,579
50,028	-3,579	332,918	166,461
51,042	-3,553	332,640	166,338
52,057	-3,485	332,339	166,250
53,071	-3,613	332,181	166,010
54,086	-3,594	331,874	165,864
55,101	-3,489	331,557	165,809
56,115	-3,563	331,321	165,593
57,130	-3,532	331,084	165,495
58,144	-3,484	330,785	165,385
59,159	-3,618	330,562	165,106
60,174	-3,755	330,352	164,832
61,188	-3,762	329,930	164,599
62,203	-3,744	329,792	164,536
63,217	-3,636	329,563	164,529
64,232	-3,736	329,390	164,314
65,247	-3,661	328,895	164,137
66,261	-3,615	328,664	164,060
67,276	-3,539	328,467	164,032
68,290	-3,685	328,312	163,776
69,305	-3,629	327,927	163,632
70,320	-3,472	327,675	163,669
71,334	-3,504	327,487	163,524
72,349	-3,616	327,187	163,234
73,363	-3,715	326,967	162,998
74,378	-3,577	326,496	162,903
75,393	-3,489	326,329	162,904
76,407	-3,600	326,289	162,745
77,422	-3,440	325,943	162,737
78,436	-3,650	325,671	162,352
79,451	-3,602	325,435	162,274
80,466	-3,609	325,182	162,125
81,480	-3,534	324,818	162,013
82,495	-3,539	324,586	161,878
83,509	-3,472	324,370	161,829
84,524	-3,407	324,183	161,794
85,539	-3,541	324,073	161,576
86,553	-3,401	323,646	161,504
87,568	-3,588	323,454	161,187
88,582	-3,611	323,276	161,058
89,597	-3,648	323,061	160,895
90,611	-3,562	322,573	160,733
91,626	-3,601	322,556	160,667
92,641	-3,642	322,172	160,416
93,655	-3,588	322,026	160,390
94,670	-3,644	321,740	160,171
95,684	-3,490	321,559	160,236
96,699	-3,506	321,260	160,054
97,714	-3,527	320,992	159,885
98,728	-3,576	320,886	159,764
99,743	-3,512	320,569	159,662
100,757	-3,509	320,274	159,503
101,772	-3,571	320,081	159,325
102,787	-3,575	319,805	159,169
103,801	-3,699	319,733	158,984
104,816	-3,597	319,454	158,942
105,830	-3,508	319,182	158,889
106,845	-3,331	318,872	158,914
107,860	-3,601	318,730	158,536
108,874	-3,512	318,442	158,474
109,889	-3,669	318,428	158,283
110,903	-3,618	318,229	158,225
111,918	-3,674	317,855	157,964
112,933	-3,639	317,652	157,887
113,947	-3,579	317,401	157,814
114,962	-3,633	317,086	157,584
115,976	-3,513	316,808	157,562
116,991	-3,610	316,664	157,372
118,006	-3,622	316,512	157,268
119,020	-3,624	316,424	157,209
120,035	-3,491	315,996	157,125
121,049	-3,542	315,801	156,959
122,064	-3,706	315,668	156,703
123,079	-3,472	315,249	156,732
124,093	-3,471	315,109	156,651
125,108	-3,711	315,010	156,329
126,122	-3,406	314,682	156,480
127,137	-3,538	314,597	156,282
128,151	-3,333	314,232	156,306
129,166	-3,435	313,920	156,028
130,181	-3,503	313,860	155,911
131,195	-3,477	313,574	155,784
132,210	-3,623	313,345	155,500
133,224	-3,567	312,963	155,356
134,239	-3,532	312,819	155,308
135,254	-3,403	312,640	155,342
136,268	-3,663	312,445	154,955
137,283	-3,507	312,311	155,041
138,297	-3,580	311,897	154,744
139,312	-3,567	311,804	154,697
140,327	-3,656	311,456	154,417
141,341	-3,585	311,333	154,417
142,356	-3,562	311,155	154,340
143,370	-3,352	310,888	154,416
144,385	-3,591	310,570	153,991
145,400	-3,319	310,389	154,176
146,414	-3,504	310,263	153,904
147,429	-3,605	310,005	153,655
148,443	-3,493	309,717	153,616
149,458	-3,645	309,607	153,389
150,473	-3,535	309,341	153,359
151,487	-3,510	309,145	153,274
152,502	-3,498	308,826	153,115
153,516	-3,624	308,646	152,880
154,531	-3,625	308,533	152,810
155,546	-3,355	308,189	152,909
156,560	-3,467	308,031	152,699
157,575	-3,644	307,966	152,468
158,589	-3,687	307,572	152,214
159,604	-3,388	307,146	152,302
160,619	-3,409	307,087	152,238
161,633	-3,363	306,857	152,158
162,648	-3,246	306,664	152,171
163,662	-3,574	306,596	151,781
164,677	-3,517	306,373	151,717
165,692	-3,532	306,186	151,596
166,706	-3,455	305,974	151,557
167,721	-3,553	305,756	151,333
168,735	-3,404	305,562	151,378
169,750	-3,477	305,397	151,207
170,764	-3,443	305,207	151,135
171,779	-3,623	305,055	150,860
172,794	-3,386	304,722	150,927
173,808	-3,446	304,565	150,773
174,823	-3,262	304,327	150,833
175,837	-3,430	304,159	150,563
176,852	-3,402	303,925	150,462
177,867	-3,425	303,645	150,286
178,881	-3,509	303,583	150,155
179,896	-3,355	303,277	150,149
180,910	-3,373	303,132	150,046
181,925	-3,444	302,837	149,813
182,940	-3,505	302,610	149,625
183,954	-3,373	302,459	149,673
184,969	-3,431	302,252	149,497
185,983	-3,401	302,058	149,419
186,998	-3,274	301,774	149,394
188,013	-3,424	301,772	149,227
189,027	-3,572	301,534	148,945
190,042	-3,401	301,189	148,936
191,056	-3,386	301,116	148,901
192,071	-3,478	300,824	148,650
193,086	-3,674	300,695	148,373
194,100	-3,565	300,495	148,372
195,115	-3,639	300,264	148,170
196,129	-3,424	299,954	148,222
197,144	-3,375	299,632	148,100
198,159	-3,513	299,460	147,862
199,173	-3,480	299,255	147,780
200,188	-3,432	298,954	147,667
201,202	-3,503	298,762	147,487
202,217	-3,422	298,781	147,565
203,232	-3,525	298,567	147,342
204,246	-3,401	298,271	147,308
205,261	-3,392	297,984	147,163
206,275	-3,498	297,920	147,011
207,290	-3,522	297,665	146,848
208,304	-3,307	297,516	146,978
209,319	-3,515	297,403	146,699
210,334	-3,345	297,076	146,696
211,348	-3,451	296,734	146,408
212,363	-3,266	296,655	146,542
213,377	-3,553	296,518	146,172
214,392	-3,418	296,215	146,145
215,407	-3,443	296,121	146,061
216,421	-3,450	295,928	145,946
217,436	-3,531	295,683	145,731
218,450	-3,679	295,463	145,461
219,465	-3,536	295,292	145,507
220,480	-3,485	295,134	145,467
221,494	-3,451	294,859	145,353
222,509	-3,471	294,722	145,253
223,523	-3,498	294,577	145,141
224,538	-3,568	294,330	144,937
225,553	-3,417	294,228	145,024
226,567	-3,391	293,852	144,851
227,582	-3,513	293,791	144,687
228,596	-3,448	293,608	144,649
229,611	-3,399	293,283	144,524
230,626	-3,515	293,260	144,385
231,640	-3,399	292,906	144,313
232,655	-3,429	292,767	144,201
233,669	-3,396	292,564	144,121
234,684	-3,375	292,349	144,023
235,699	-3,508	292,338	143,874
236,713	-3,433	291,941	143,740
237,728	-3,245	291,793	143,839
238,742	-3,356	291,519	143,582
239,757	-3,523	291,424	143,358
240,772	-3,542	291,317	143,274
241,786	-3,414	291,070	143,266
242,801	-3,397	290,846	143,159
243,815	-3,305	290,654	143,142
244,830	-3,362	290,613	143,053
245,844	-3,353	290,315	142,903
246,859	-3,518	290,229	142,686
247,874	-3,304	289,871	142,707
248,888	-3,412	289,663	142,486
249,903	-3,409	289,515	142,403
250,917	-3,190	289,240	142,468
251,932	-3,609	289,190	142,023
252,947	-3,962	288,898	141,522
253,961	-4,448	288,274	140,732
254,976	-4,981	287,918	140,027
255,990	-4,955	287,954	140,057
257,005	-3,072	288,382	142,085
258,020	-0,875	289,296	144,664
259,034	0,376	289,541	145,993
260,049	0,936	289,558	146,534
261,063	1,491	289,508	147,035
262,078	1,657	289,393	147,125
263,093	2,097	289,198	147,441
264,107	2,347	289,179	147,660
265,122	2,417	289,180	147,716
266,136	2,330	289,092	147,574
267,151	2,505	288,808	147,585
268,166	2,540	288,673	147,537
269,180	2,542	288,407	147,390
270,195	2,610	288,263	147,368
271,209	2,393	288,103	147,064
272,224	2,310	287,838	146,835
273,239	2,464	287,613	146,857
274,253	2,348	287,451	146,649
275,268	2,272	287,194	146,431
276,282	2,156	286,902	146,157
277,297	2,390	286,773	146,304
278,312	2,338	286,667	146,187
279,326	2,124	286,505	145,886
280,341	2,251	286,332	145,907
281,355	2,170	286,171	145,733
282,370	2,280	285,946	145,712
283,384	2,256	285,679	145,540
284,399	2,243	285,482	145,414
285,414	2,264	285,316	145,336
286,428	2,294	285,271	145,329
287,443	2,179	284,911	145,022
288,457	2,080	284,772	144,845
289,472	2,225	284,582	144,874
290,487	2,044	284,311	144,550
291,501	2,212	284,135	144,608
292,516	2,162	283,842	144,398
293,530	2,102	283,739	144,275
294,545	2,065	283,920	144,319
295,560	2,110	283,472	144,121
296,574	2,104	283,285	144,008
297,589	2,051	283,079	143,841
298,603	1,998	282,836	143,653
299,618	2,074	282,695	143,641
300,633	2,280	282,498	143,724
301,647	2,144	282,426	143,545
302,662	2,275	282,206	143,545
303,676	2,396	282,109	143,597
304,691	2,365	281,735	143,365
305,706	2,456	281,759	143,449
306,720	2,369	281,563	143,255
307,735	2,328	281,409	143,125
308,749	2,496	281,120	143,123
309,764	2,232	281,101	142,853
310,779	2,198	280,961	142,737
311,793	2,357	280,659	142,720
312,808	2,289	280,329	142,476
313,822	2,355	280,259	142,489
314,837	2,194	280,152	142,271
315,852	2,477	279,828	142,359
316,866	2,270	279,835	142,156
317,881	2,355	279,544	142,075
318,895	2,355	279,385	141,982
319,910	2,288	279,092	141,757
320,925	2,135	279,033	141,572
321,939	2,203	278,822	141,516
322,954	2,445	278,640	141,636
323,968	2,370	278,615	141,541
324,983	2,288	278,343	141,314
325,997	2,544	278,123	141,427
327,012	2,393	277,979	141,201
328,027	2,647	277,830	141,349
329,041	2,479	277,604	141,065
330,056	2,423	277,462	140,929
331,070	2,432	277,314	140,849
332,085	2,494	277,103	140,787
333,100	2,263	276,811	140,413
334,114	2,410	276,585	140,421
335,129	2,404	276,407	140,313
336,143	2,365	276,268	140,194
337,158	2,463	276,125	140,199
338,173	2,391	275,979	140,046
339,187	2,535	275,779	140,065
340,202	2,536	275,661	139,993
341,216	2,332	275,450	139,686
342,231	2,447	275,351	139,729
343,246	2,464	275,086	139,598
344,260	2,359	274,928	139,409
345,275	2,451	274,749	139,390
346,289	2,419	274,709	139,328
347,304	2,449	274,452	139,212
348,319	2,448	274,341	139,143
349,333	2,444	274,054	138,981
350,348	2,445	273,963	138,924
351,362	2,580	273,716	138,909
352,377	2,437	273,671	138,744
353,392	2,523	273,340	138,641
354,406	2,548	273,148	138,555
355,421	192,084	1348,801	1430,512
356,435	155,121	1479,948	1430,646
