DTS Sentinel unit serial number:	SN410029Multiplexer serial number:	ORYXHardware model number:	OX2-SRSoftware version number:	ORYX F/W v4,00 Oryx Data Collector v3.7.2.0data status	okinstallation	B4 Nyhavnadifferential loss correction	single-endedforward channel	channel 2reverse channel	N/Adate	2023/12/18time	22:55:13forward acquisition time	300,00reverse acquisition time	0,00gamma	499,1914k internal	0,3124k external	0,3124temperature offset calibration	1,0000default loss term (dB/km)	0,3820temperature slope calibration	1,0000multiplexer offset coefficient	1,0000multiplexer slope coefficient	1,0000fibre end	0,00T internal ref (°C)	21,98T ext. ref 1 (°C)	7,60T ext. ref 2 (°C)	7,72length (m)	temperature (°C)	Stokes	anti-Stokes-744,400	246,048	-0,042	-0,053
-743,385	143,020	-0,134	0,133
-742,371	800,000	-0,008	0,027
-741,356	175,558	-0,193	0,208
-740,342	23,330	0,106	-0,065
-739,327	92,155	-0,085	0,072
-738,312	-79,638	-0,048	0,012
-737,298	80,699	-0,211	0,170
-736,283	170,369	0,028	0,029
-735,269	18,487	-0,223	0,133
-734,254	74,367	-0,037	-0,029
-733,239	-90,985	-0,405	-0,086
-732,225	30,203	0,108	0,069
-731,210	-200,000	-0,001	0,135
-730,196	-200,000	0,047	-0,180
-729,181	-200,000	-0,003	-0,064
-728,167	-200,000	0,048	0,183
-727,152	-200,000	-0,028	-0,095
-726,137	-200,000	-0,016	-0,098
-725,123	-200,000	-0,013	0,000
-724,108	13,651	-0,130	-0,075
-723,094	71,595	0,040	-0,031
-722,079	118,940	-0,097	-0,089
-721,064	188,648	-0,069	0,077
-720,050	800,000	-0,009	-0,023
-719,035	-59,683	0,076	-0,024
-718,021	-156,938	-0,105	0,005
-717,006	-200,000	0,008	-0,038
-715,991	10,652	-0,101	-0,057
-714,977	59,650	-0,143	-0,105
-713,962	-57,500	-0,049	0,016
-712,948	-128,634	-0,024	-0,002
-711,933	216,504	0,077	0,092
-710,918	355,135	0,052	-0,077
-709,904	-40,930	-0,118	-0,045
-708,889	800,000	-0,048	-0,117
-707,875	-123,428	-0,034	-0,004
-706,860	-87,331	-0,129	0,029
-705,845	-200,000	0,024	0,081
-704,831	-200,000	-0,013	0,046
-703,816	79,553	-0,115	-0,092
-702,802	-19,594	0,052	-0,024
-701,787	39,510	-0,159	-0,106
-700,772	11,982	-0,018	0,010
-699,758	-21,426	-0,154	-0,070
-698,743	-41,947	0,046	0,018
-697,729	-200,000	0,054	0,207
-696,714	800,000	0,034	0,090
-695,699	-35,640	-0,127	-0,051
-694,685	-200,000	-0,019	0,145
-693,670	18,544	-0,060	-0,035
-692,656	-200,000	-0,012	-0,092
-691,641	-200,000	-0,012	0,064
-690,627	-70,571	-0,035	0,010
-689,612	-33,685	0,097	0,039
-688,597	13,681	-0,036	0,021
-687,583	800,000	-0,031	-0,082
-686,568	-115,631	-0,056	-0,008
-685,554	2,411	-0,071	-0,038
-684,539	-200,000	-0,018	-0,092
-683,524	-200,000	0,003	0,048
-682,510	-122,965	-0,133	-0,016
-681,495	800,000	0,091	0,216
-680,481	-144,974	-0,115	-0,008
-679,466	133,575	-0,034	0,033
-678,451	-200,000	0,023	-0,112
-677,437	222,862	-0,096	0,115
-676,422	-200,000	-0,022	-0,112
-675,408	-36,809	0,035	-0,014
-674,393	-200,000	0,009	-0,070
-673,378	-200,000	0,000	-0,102
-672,364	-200,000	0,002	-0,075
-671,349	-64,289	-0,024	0,007
-670,335	-4,950	-0,120	0,061
-669,320	748,888	0,048	0,096
-668,305	-19,487	-0,048	0,022
-667,291	-148,635	-0,113	-0,007
-666,276	800,000	-0,040	0,094
-665,262	-120,988	-0,128	0,016
-664,247	800,000	-0,020	0,060
-663,232	113,416	0,079	0,071
-662,218	800,000	-0,049	0,129
-661,203	-200,000	-0,025	0,119
-660,189	188,621	-0,080	-0,089
-659,174	-200,000	-0,014	0,077
-658,159	-192,236	-0,143	-0,001
-657,145	-39,140	-0,186	0,072
-656,130	214,493	0,070	0,083
-655,116	-200,000	-0,004	0,038
-654,101	-200,000	0,032	0,115
-653,086	459,266	-0,067	0,111
-652,072	-200,000	0,001	0,088
-651,057	679,266	-0,093	0,180
-650,043	-48,897	0,105	0,037
-649,028	-200,000	-0,025	-0,121
-648,014	-77,092	0,039	0,010
-646,999	800,000	0,013	-0,036
-645,984	297,599	-0,026	-0,035
-644,970	470,228	-0,063	-0,106
-643,955	800,000	0,039	0,083
-642,941	-24,112	-0,071	0,031
-641,926	800,000	-0,022	0,054
-640,911	800,000	-0,007	-0,021
-639,897	356,976	-0,047	-0,070
-638,882	-200,000	-0,006	0,176
-637,868	-200,000	-0,034	-0,161
-636,853	-93,055	-0,137	0,028
-635,838	-200,000	0,024	-0,156
-634,824	-200,000	0,010	0,040
-633,809	150,999	-0,082	0,083
-632,795	800,000	-0,068	0,157
-631,780	69,438	0,013	-0,010
-630,765	-121,945	-0,070	0,008
-629,751	-17,157	0,023	-0,011
-628,736	46,646	-0,055	-0,038
-627,722	-200,000	-0,032	-0,145
-626,707	-200,000	-0,014	0,079
-625,692	800,000	-0,046	0,103
-624,678	109,878	-0,027	0,024
-623,663	800,000	-0,021	-0,043
-622,649	800,000	-0,024	-0,068
-621,634	59,889	-0,153	-0,112
-620,619	-200,000	-0,001	-0,040
-619,605	96,173	0,102	0,086
-618,590	144,986	-0,098	0,097
-617,576	-200,000	-0,009	0,047
-616,561	402,897	0,084	-0,131
-615,546	111,397	-0,118	-0,106
-614,532	-23,103	-0,010	0,004
-613,517	-158,288	0,124	0,005
-612,503	172,693	0,044	-0,047
-611,488	-11,074	-0,098	-0,048
-610,474	800,000	0,023	-0,049
-609,459	-26,403	-0,085	-0,037
-608,444	800,000	0,016	0,036
-607,430	165,071	0,089	-0,094
-606,415	800,000	-0,028	-0,073
-605,401	63,673	0,034	0,026
-604,386	-200,000	-0,014	0,171
-603,371	800,000	0,006	0,018
-602,357	-115,419	-0,073	0,010
-601,342	-102,379	-0,133	-0,023
-600,328	800,000	-0,009	0,018
-599,313	4,095	-0,123	0,067
-598,298	-139,541	0,088	-0,007
-597,284	-129,137	0,135	-0,014
-596,269	-200,000	0,005	-0,017
-595,255	-78,862	0,038	-0,010
-594,240	211,729	0,045	-0,052
-593,225	800,000	0,036	-0,117
-592,211	171,284	-0,064	-0,068
-591,196	535,906	0,025	-0,045
-590,182	199,489	-0,090	-0,103
-589,167	-200,000	0,002	-0,008
-588,152	-200,000	0,009	0,082
-587,138	48,411	0,029	-0,020
-586,123	-194,748	-0,007	0,000
-585,109	800,000	-0,024	-0,065
-584,094	192,802	0,091	-0,102
-583,079	-107,573	-0,131	-0,021
-582,065	-140,280	-0,025	-0,002
-581,050	106,432	-0,031	-0,027
-580,036	800,000	-0,034	0,077
-579,021	-200,000	-0,009	-0,044
-578,006	-160,430	-0,157	0,006
-576,992	-200,000	-0,004	0,019
-575,977	-200,000	0,005	0,045
-574,963	330,025	-0,072	-0,103
-573,948	-200,000	-0,027	0,126
-572,934	-200,000	0,000	0,094
-571,919	-50,940	0,042	0,015
-570,904	-200,000	-0,011	-0,047
-569,890	800,000	0,021	-0,045
-568,875	324,696	-0,080	0,114
-567,861	606,071	-0,035	-0,065
-566,846	391,321	0,065	0,100
-565,831	209,858	-0,037	0,043
-564,817	-200,000	-0,015	-0,065
-563,802	-200,000	0,003	0,119
-562,788	-200,000	-0,004	-0,093
-561,773	-121,271	0,091	0,011
-560,758	556,616	0,020	-0,036
-559,744	800,000	0,012	-0,030
-558,729	20,621	-0,098	-0,059
-557,715	62,491	0,068	-0,050
-556,700	551,177	0,043	-0,076
-555,685	-104,197	-0,116	-0,020
-554,671	800,000	-0,027	-0,056
-553,656	800,000	-0,048	-0,101
-552,642	-200,000	0,001	0,090
-551,627	-200,000	0,015	0,053
-550,612	741,631	0,040	-0,080
-549,598	-59,818	-0,081	-0,026
-548,583	-16,055	-0,047	0,022
-547,569	-177,521	0,106	-0,002
-546,554	-200,000	0,015	0,109
-545,539	35,572	0,161	0,104
-544,525	-200,000	0,033	0,302
-543,510	155,051	-0,098	0,100
-542,496	-200,000	-0,004	-0,074
-541,481	-200,000	-0,032	-0,212
-540,466	800,000	-0,024	-0,076
-539,452	-200,000	-0,013	0,154
-538,437	-70,112	0,152	-0,042
-537,423	109,274	0,055	0,049
-536,408	-39,773	-0,099	-0,038
-535,393	103,903	-0,071	0,061
-534,379	147,858	-0,094	0,093
-533,364	256,752	0,095	0,121
-532,350	800,000	0,052	-0,115
-531,335	-200,000	0,000	-0,073
-530,321	-200,000	-0,011	0,114
-529,306	-26,972	-0,124	0,053
-528,291	-200,000	0,014	-0,091
-527,277	-185,012	-0,197	0,002
-526,262	-45,559	0,118	0,043
-525,248	-128,861	0,159	0,016
-524,233	-166,150	-0,134	-0,004
-523,218	120,384	0,031	0,029
-522,204	37,892	0,032	-0,021
-521,189	-15,295	-0,134	-0,063
-520,175	30,107	0,062	0,039
-519,160	450,826	-0,077	-0,126
-518,145	304,935	0,033	-0,046
-517,131	-122,780	0,167	0,020
-516,116	188,914	0,080	-0,089
-515,102	-76,977	0,063	-0,016
-514,087	800,000	0,030	0,082
-513,072	123,800	-0,083	-0,077
-512,058	-11,483	-0,056	0,027
-511,043	800,000	0,042	0,093
-510,029	800,000	0,028	-0,077
-509,014	-64,313	0,096	0,029
-507,999	60,861	-0,075	0,055
-506,985	-115,455	0,025	-0,003
-505,970	-200,000	-0,006	-0,027
-504,956	-72,183	0,025	-0,007
-503,941	227,492	-0,099	0,119
-502,926	425,849	0,097	0,154
-501,912	-200,000	0,006	-0,066
-500,897	369,276	0,092	-0,138
-499,883	6,473	-0,102	0,056
-498,868	-93,581	-0,140	-0,028
-497,853	-111,520	0,127	0,019
-496,839	85,152	0,060	-0,049
-495,824	-1,786	0,017	-0,009
-494,810	800,000	0,059	0,133
-493,795	247,764	0,094	-0,118
-492,781	0,561	0,050	0,026
-491,766	800,000	-0,023	0,059
-490,751	121,452	-0,101	-0,093
-489,737	782,401	-0,026	-0,053
-488,722	37,867	-0,110	0,072
-487,708	800,000	-0,028	0,068
-486,693	415,302	-0,015	-0,024
-485,678	-200,000	0,002	0,030
-484,664	-94,180	-0,049	0,010
-483,649	-126,868	-0,107	-0,011
-482,635	800,000	-0,034	-0,108
-481,620	800,000	0,031	-0,087
-480,605	319,669	-0,061	-0,085
-479,591	393,521	0,047	0,072
-478,576	-200,000	-0,012	-0,071
-477,562	-28,572	-0,117	-0,050
-476,547	-200,000	-0,009	-0,068
-475,532	-98,360	-0,044	0,008
-474,518	-200,000	-0,014	-0,134
-473,503	-99,281	0,121	-0,022
-472,489	33,581	-0,028	-0,018
-471,474	514,068	0,025	0,044
-470,459	2,826	-0,051	0,027
-469,445	-200,000	0,021	0,077
-468,430	800,000	0,071	-0,168
-467,416	-200,000	0,007	-0,080
-466,401	-45,198	0,060	0,022
-465,386	-31,712	-0,036	0,015
-464,372	547,890	-0,004	0,007
-463,357	63,631	-0,124	-0,092
-462,343	105,098	0,067	-0,058
-461,328	800,000	0,030	-0,071
-460,313	83,155	-0,022	0,018
-459,299	-134,525	0,079	0,007
-458,284	-179,972	-0,066	-0,001
-457,270	436,839	0,033	-0,053
-456,255	529,882	0,025	-0,043
-455,241	-200,000	0,004	0,070
-454,226	-71,046	0,086	0,024
-453,211	-78,108	0,048	0,012
-452,197	800,000	-0,057	0,180
-451,182	-4,701	-0,166	0,084
-450,168	193,161	-0,028	0,031
-449,153	-200,000	0,021	-0,111
-448,138	71,052	-0,057	-0,043
-447,124	-139,380	-0,025	-0,002
-446,109	354,301	0,065	-0,095
-445,095	231,966	0,040	-0,049
-444,080	398,795	0,002	-0,003
-443,065	37,700	0,079	0,051
-442,051	-123,334	-0,152	0,018
-441,036	107,434	0,090	-0,079
-440,022	-30,398	0,104	-0,043
-439,007	208,641	0,141	0,162
-437,992	-92,173	0,026	-0,005
-436,978	64,029	0,106	0,078
-435,963	-128,392	0,104	-0,011
-434,949	378,327	0,046	-0,069
-433,934	184,275	-0,060	-0,065
-432,919	237,638	-0,096	-0,117
-431,905	105,953	0,059	0,052
-430,890	-113,591	0,066	0,009
-429,876	396,521	0,068	0,104
-428,861	-108,217	0,032	0,005
-427,846	-200,000	0,009	-0,207
-426,832	45,707	-0,054	-0,036
-425,817	159,608	-0,025	-0,025
-424,803	627,474	0,020	-0,037
-423,788	749,620	-0,056	-0,112
-422,773	56,771	0,138	0,099
-421,759	-96,276	0,085	-0,016
-420,744	146,058	0,057	-0,057
-419,730	800,000	-0,026	-0,073
-418,715	800,000	-0,048	-0,100
-417,701	508,521	-0,029	0,050
-416,686	488,029	0,014	0,023
-415,671	-200,000	0,008	0,045
-414,657	274,916	-0,040	-0,053
-413,642	143,999	-0,054	-0,053
-412,628	371,253	-0,033	-0,050
-411,613	-130,277	-0,211	-0,021
-410,598	349,702	0,032	-0,047
-409,584	431,543	-0,028	-0,045
-408,569	-200,000	-0,007	-0,050
-407,555	157,068	0,062	0,063
-406,540	-128,902	-0,095	-0,010
-405,525	-56,425	-0,052	0,017
-404,511	-200,000	-0,010	-0,044
-403,496	74,951	0,190	-0,147
-402,482	67,764	0,016	-0,012
-401,467	380,470	0,085	0,128
-400,452	408,792	0,047	0,074
-399,438	579,677	-0,061	-0,110
-398,423	-96,187	0,059	-0,011
-397,409	800,000	-0,006	0,017
-396,394	-35,207	-0,042	0,017
-395,379	12,092	0,042	-0,023
-394,365	195,664	-0,060	0,067
-393,350	800,000	0,036	0,074
-392,336	121,800	0,100	0,092
-391,321	202,186	0,049	-0,056
-390,306	6,396	-0,093	0,051
-389,292	19,818	-0,018	-0,011
-388,277	-29,415	0,132	0,055
-387,263	184,488	0,101	0,110
-386,248	227,094	0,093	0,111
-385,233	-63,886	0,121	0,036
-384,219	56,620	-0,037	0,027
-383,204	-174,525	0,107	-0,002
-382,190	122,937	-0,137	-0,126
-381,175	-134,708	-0,058	-0,005
-380,160	14,755	0,124	0,071
-379,146	773,746	0,020	-0,041
-378,131	-73,143	0,040	0,011
-377,117	-123,947	0,069	0,008
-376,102	-21,046	-0,088	0,040
-375,088	-200,000	-0,001	-0,093
-374,073	182,379	-0,151	-0,164
-373,058	299,638	0,048	0,065
-372,044	-200,000	0,014	0,069
-371,029	-200,000	-0,004	0,210
-370,015	-4,988	-0,033	0,016
-369,000	88,496	0,060	-0,049
-367,985	-200,000	0,001	-0,057
-366,971	-3,953	-0,051	-0,026
-365,956	223,816	0,062	0,074
-364,942	800,000	-0,039	0,117
-363,927	365,560	0,100	0,149
-362,912	-200,000	-0,039	0,173
-361,898	65,007	-0,025	0,018
-360,883	-35,865	0,018	0,007
-359,869	163,900	0,067	-0,070
-358,854	-200,000	0,000	0,050
-357,839	-14,206	-0,045	0,021
-356,825	-165,071	0,002	0,000
-355,810	-2,924	0,089	0,046
-354,796	-25,663	-0,062	0,027
-353,781	-40,524	-0,069	-0,026
-352,766	-200,000	0,014	-0,056
-351,752	327,829	0,114	0,161
-350,737	-98,710	-0,156	0,029
-349,723	-47,123	-0,134	-0,048
-348,708	-55,953	0,056	-0,018
-347,693	-7,907	0,061	-0,030
-346,679	-6,135	-0,104	-0,052
-345,664	214,199	0,098	-0,114
-344,650	-155,293	0,024	-0,001
-343,635	461,723	-0,041	-0,067
-342,620	-43,147	0,088	0,032
-341,606	-200,000	0,001	0,097
-340,591	14,612	-0,051	-0,029
-339,577	739,370	-0,058	-0,114
-338,562	-79,173	0,044	-0,011
-337,548	-200,000	0,005	-0,034
-336,533	-144,326	0,091	0,006
-335,518	8,728	-0,085	0,047
-334,504	92,380	-0,040	0,033
-333,489	234,680	-0,038	-0,046
-332,475	91,512	0,036	0,030
-331,460	-200,000	-0,000	-0,084
-330,445	-200,000	0,017	0,069
-329,431	113,726	-0,042	0,037
-328,416	134,092	0,052	0,049
-327,402	-200,000	0,013	-0,076
-326,387	99,936	-0,129	0,110
-325,372	306,770	0,082	-0,112
-324,358	-46,699	-0,089	-0,032
-323,343	-64,195	-0,080	-0,024
-322,329	-200,000	-0,029	-0,129
-321,314	162,806	-0,063	0,065
-320,299	-200,000	-0,012	0,054
-319,285	116,987	-0,034	-0,030
-318,270	252,946	-0,032	-0,040
-317,256	356,033	-0,052	-0,076
-316,241	48,719	-0,090	-0,062
-315,226	104,079	0,084	-0,072
-314,212	280,838	0,087	-0,114
-313,197	-94,779	0,146	0,029
-312,183	341,008	-0,020	-0,029
-311,168	683,140	0,022	0,042
-310,153	-122,582	-0,028	0,003
-309,139	-38,332	-0,087	0,034
-308,124	-107,493	0,171	0,027
-307,110	-200,000	0,001	0,023
-306,095	258,660	-0,045	0,057
-305,080	-52,932	0,107	-0,036
-304,066	800,000	-0,033	-0,090
-303,051	228,045	-0,023	-0,027
-302,037	658,998	0,042	0,079
-301,022	220,713	-0,098	-0,115
-300,008	-175,872	0,100	0,002
-298,993	-200,000	-0,015	0,105
-297,978	-92,252	0,093	-0,019
-296,964	-35,250	-0,142	0,056
-295,949	-80,060	0,064	0,016
-294,935	-200,000	0,001	0,047
-293,920	800,000	-0,015	0,044
-292,905	38,362	0,057	0,037
-291,891	130,735	0,115	0,108
-290,876	-200,000	-0,010	0,055
-289,862	-200,000	-0,006	0,096
-288,847	276,997	-0,076	-0,100
-287,832	800,000	0,053	-0,127
-286,818	90,904	0,038	-0,031
-285,803	-4,668	-0,025	0,013
-284,789	-155,091	-0,046	0,002
-283,774	-53,177	0,080	-0,027
-282,759	-200,000	-0,017	0,080
-281,745	-200,000	0,007	-0,025
-280,730	2,055	0,020	0,011
-279,716	-200,000	-0,012	-0,043
-278,701	-8,890	0,165	0,081
-277,686	-171,671	-0,094	0,002
-276,672	-200,000	0,009	-0,041
-275,657	128,319	-0,067	-0,062
-274,643	2,121	0,055	-0,029
-273,628	33,010	0,037	0,023
-272,613	473,887	-0,041	0,067
-271,599	589,509	0,012	-0,022
-270,584	537,411	0,021	-0,037
-269,570	-200,000	-0,023	0,116
-268,555	628,727	-0,039	0,073
-267,540	383,059	0,067	-0,100
-266,526	85,349	-0,036	-0,029
-265,511	177,418	-0,067	0,071
-264,497	-200,000	-0,014	0,107
-263,482	-134,843	-0,123	0,011
-262,467	434,024	0,083	-0,132
-261,453	303,543	0,063	0,085
-260,438	-106,787	-0,099	0,016
-259,424	-200,000	0,035	-0,153
-258,409	407,579	0,074	0,115
-257,395	292,543	0,065	-0,086
-256,380	527,699	0,021	0,036
-255,365	-200,000	-0,041	0,204
-254,351	110,262	0,012	0,011
-253,336	-4,359	-0,133	0,067
-252,322	28,835	-0,048	-0,030
-251,307	-95,313	-0,160	-0,031
-250,292	-44,920	-0,066	0,024
-249,278	20,123	-0,029	-0,017
-248,263	2,770	0,089	0,047
-247,249	-200,000	-0,015	0,102
-246,234	-50,688	0,108	-0,037
-245,219	-200,000	0,026	0,156
-244,205	-200,000	0,004	0,174
-243,190	386,141	-0,073	-0,110
-242,176	241,021	0,075	0,092
-241,161	254,715	0,088	0,111
-240,146	43,258	0,035	0,024
-239,132	456,686	0,086	0,139
-238,117	-110,453	-0,227	-0,034
-237,103	127,515	-0,063	-0,059
-236,088	-76,581	0,065	0,017
-235,073	-82,133	0,040	0,009
-234,059	-200,000	0,022	0,147
-233,044	372,391	-0,031	0,046
-232,030	173,092	-0,019	0,020
-231,015	800,000	-0,041	-0,091
-230,000	51,237	-0,053	-0,037
-228,986	-200,000	-0,014	-0,133
-227,971	-200,000	-0,001	0,059
-226,957	43,473	-0,055	0,036
-225,942	-200,000	-0,031	0,187
-224,927	371,775	-0,048	0,071
-223,913	800,000	-0,024	0,051
-222,898	-33,890	0,029	0,012
-221,884	-66,323	-0,115	-0,033
-220,869	90,495	0,136	0,111
-219,855	-172,218	0,179	-0,004
-218,840	567,153	0,063	0,113
-217,825	-200,000	-0,040	0,150
-216,811	-200,000	0,013	-0,131
-215,796	173,378	-0,027	0,029
-214,782	-200,000	-0,006	-0,123
-213,767	25,610	0,096	-0,058
-212,752	-23,202	0,050	-0,022
-211,738	34,998	0,072	0,046
-210,723	25,899	-0,037	-0,022
-209,709	-71,491	-0,098	0,026
-208,694	800,000	-0,038	-0,103
-207,679	-1,079	-0,071	-0,036
-206,665	-126,240	0,153	0,016
-205,650	398,735	-0,020	-0,031
-204,636	645,678	0,045	0,084
-203,621	128,300	0,048	-0,045
-202,606	-60,865	-0,120	0,037
-201,592	-200,000	-0,016	-0,060
-200,577	-151,122	0,097	0,005
-199,563	37,622	-0,066	-0,043
-198,548	159,158	0,044	0,045
-197,533	-128,750	0,045	0,005
-196,519	-200,000	-0,009	-0,043
-195,504	-162,529	0,028	-0,001
-194,490	-85,373	-0,085	-0,019
-193,475	485,995	-0,029	-0,048
-192,460	-200,000	0,007	-0,036
-191,446	-29,286	0,051	-0,021
-190,431	11,608	-0,080	-0,045
-189,417	-94,277	0,001	-0,000
-188,402	-42,620	-0,026	-0,009
-187,387	116,017	0,065	0,058
-186,373	-200,000	0,021	-0,082
-185,358	-65,020	-0,048	-0,014
-184,344	293,251	0,050	0,067
-183,329	-200,000	-0,001	0,010
-182,315	-200,000	0,087	0,000
-181,300	-37,941	0,102	0,039
-180,285	147,517	0,148	-0,145
-179,271	-25,581	-0,114	-0,049
-178,256	33,713	-0,041	0,026
-177,242	-200,000	0,010	0,064
-176,227	-200,000	0,016	0,058
-175,212	800,000	0,060	-0,131
-174,198	-114,743	0,062	-0,009
-173,183	-115,597	-0,126	0,017
-172,169	-4,793	0,055	0,027
-171,154	-15,480	0,078	-0,036
-170,139	-156,735	-0,074	-0,003
-169,125	800,000	0,015	-0,037
-168,110	-200,000	0,021	-0,071
-167,096	-200,000	-0,006	-0,093
-166,081	411,870	0,040	0,063
-165,066	108,327	0,040	0,035
-164,052	800,000	-0,028	-0,090
-163,037	-110,453	-0,065	-0,010
-162,023	282,769	0,059	-0,077
-161,008	153,946	0,142	0,141
-159,993	-35,708	-0,058	0,023
-158,979	-200,000	0,016	0,062
-157,964	306,728	-0,025	0,034
-156,950	800,000	0,026	0,074
-155,935	-85,349	0,079	-0,018
-154,920	800,000	-0,022	0,049
-153,906	206,997	-0,081	0,092
-152,891	-200,000	-0,017	0,077
-151,877	422,443	-0,040	0,063
-150,862	-189,720	0,068	-0,001
-149,847	-108,538	0,108	0,017
-148,833	-89,630	-0,026	0,005
-147,818	90,828	0,166	0,136
-146,804	800,000	-0,038	0,085
-145,789	157,227	0,072	0,073
-144,775	137,756	-0,115	-0,110
-143,760	-2,364	0,074	0,037
-142,745	-7,587	-0,144	-0,071
-141,731	-129,523	-0,133	-0,013
-140,716	109,284	-0,045	-0,040
-139,702	189,594	-0,175	0,191
-138,687	313,929	0,063	0,086
-137,672	800,000	-0,039	-0,115
-136,658	494,476	-0,038	0,064
-135,643	-76,739	-0,017	-0,004
-134,629	345,698	-0,034	-0,048
-133,614	114,256	-0,031	-0,028
-132,599	58,095	0,085	-0,061
-131,585	413,804	0,038	0,060
-130,570	-135,439	0,105	-0,009
-129,556	166,533	-0,034	0,035
-128,541	-200,000	-0,008	0,099
-127,526	110,357	0,101	-0,088
-126,512	505,608	0,039	-0,065
-125,497	117,343	0,037	-0,033
-124,483	-150,917	-0,124	0,007
-123,468	-164,610	-0,078	-0,003
-122,453	22,165	-0,036	-0,021
-121,439	-158,609	-0,101	-0,004
-120,424	-200,000	0,022	-0,103
-119,410	461,218	0,097	0,158
-118,395	62,335	-0,091	-0,066
-117,380	-35,826	0,126	0,050
-116,366	303,352	-0,042	0,057
-115,351	-60,431	-0,125	-0,038
-114,337	126,441	-0,079	0,073
-113,322	-176,365	-0,096	-0,002
-112,307	-74,672	0,090	0,023
-111,293	800,000	0,060	0,188
-110,278	138,175	0,095	0,091
-109,264	-200,000	-0,002	0,116
-108,249	49,796	-0,171	0,117
-107,234	-71,517	-0,016	-0,004
-106,220	-200,000	0,007	-0,071
-105,205	-23,797	0,148	0,064
-104,191	265,174	-0,048	0,061
-103,176	465,670	0,087	0,143
-102,162	-58,595	0,092	-0,029
-101,147	-200,000	-0,026	0,140
-100,132	-200,000	0,024	-0,093
-99,118	800,000	-0,005	-0,013
-98,103	-200,000	0,004	0,019
-97,089	-185,532	0,147	0,002
-96,074	143,956	-0,062	0,060
-95,059	-157,164	0,084	0,004
-94,045	581,117	-0,046	-0,082
-93,030	-174,000	-0,085	-0,002
-92,016	-200,000	-0,014	-0,089
-91,001	-200,000	0,002	-0,051
-89,986	-200,000	-0,040	0,160
-88,972	221,702	0,110	0,129
-87,957	541,874	0,032	0,055
-86,943	-125,166	-0,203	0,022
-85,928	800,000	0,020	0,044
-84,913	800,000	-0,023	-0,069
-83,899	-161,729	-0,072	-0,003
-82,884	800,000	-0,021	0,049
-81,870	800,000	-0,073	0,160
-80,855	188,334	0,062	0,068
-79,840	10,901	0,062	0,034
-78,826	57,701	-0,023	0,016
-77,811	-200,000	-0,007	-0,030
-76,797	606,421	-0,034	-0,062
-75,782	800,000	-0,028	0,065
-74,767	-200,000	-0,001	0,035
-73,753	221,688	-0,023	0,027
-72,738	-31,435	0,021	-0,008
-71,724	-56,513	-0,066	0,021
-70,709	277,480	-0,039	-0,051
-69,694	-92,138	-0,080	-0,016
-68,680	-57,137	0,098	-0,031
-67,665	-140,008	0,071	0,005
-66,651	-200,000	-0,009	0,034
-65,636	-200,000	-0,006	-0,052
-64,622	362,545	0,034	-0,050
-63,607	-164,945	0,062	-0,002
-62,592	800,000	-0,069	0,173
-61,578	-200,000	-0,030	0,188
-60,563	412,985	-0,113	0,174
-59,549	800,000	0,131	0,267
-58,534	-185,550	-1,231	-0,013
-57,519	800,000	-0,763	-1,571
-56,505	-200,000	-0,808	-4,255
-55,490	36,099	0,519	-0,331
-54,476	800,000	4,945	11,735
-53,461	-200,000	13,880	251,959
-52,446	-200,000	692,352	2260,013
-51,432	601,516	1622,996	2937,333
-50,417	118,068	1632,821	1459,694
-49,403	73,566	1287,162	976,813
-48,388	37,532	1023,064	656,965
-47,373	23,988	981,497	585,736
-46,359	23,205	970,840	576,789
-45,344	22,243	966,512	571,052
-44,330	22,107	965,020	569,704
-43,315	22,027	963,589	568,579
-42,300	22,028	962,562	567,952
-41,286	21,996	961,621	567,271
-40,271	22,000	960,703	566,721
-39,257	21,998	959,693	566,093
-38,242	21,983	958,763	565,474
-37,227	22,021	957,875	565,051
-36,213	22,026	956,957	564,505
-35,198	21,908	956,456	563,805
-34,184	21,958	955,807	563,561
-33,169	22,029	954,546	563,025
-32,154	22,016	953,732	562,479
-31,140	22,016	952,938	561,990
-30,125	22,104	951,990	561,691
-29,111	22,086	951,105	561,088
-28,096	22,025	950,576	560,559
-27,082	22,034	949,803	560,110
-26,067	21,991	949,016	559,485
-25,052	22,041	948,304	559,204
-24,038	21,979	947,908	558,748
-23,023	22,039	947,073	558,428
-22,009	22,010	946,413	557,925
-20,994	22,039	945,713	557,581
-19,979	22,062	945,039	557,234
-18,965	21,993	944,467	556,656
-17,950	21,992	943,959	556,332
-16,936	21,986	943,280	555,888
-15,921	22,004	942,475	555,449
-14,906	21,858	941,791	554,559
-13,892	21,952	941,258	554,523
-12,877	21,929	940,544	554,009
-11,863	21,886	940,014	553,538
-10,848	21,884	939,380	553,137
-9,833	21,964	939,146	553,230
-8,819	21,864	938,482	552,498
-7,804	21,892	937,540	552,010
-6,790	21,896	937,067	551,722
-5,775	21,953	936,351	551,461
-4,760	21,895	935,926	551,004
-3,746	21,939	935,127	550,651
-2,731	21,759	934,522	549,706
-1,717	21,727	933,866	549,197
-0,702	21,663	933,180	548,569
0,313	21,535	932,495	548,592
1,327	24,087	930,187	555,201
2,342	31,999	808,745	504,158
3,356	27,121	509,266	309,113
4,371	2,703	374,210	196,038
5,386	-0,382	357,009	183,221
6,400	-1,759	350,978	178,446
7,415	-2,591	348,090	175,963
8,429	-2,834	346,450	174,828
9,444	-2,850	345,571	174,350
10,459	-2,967	344,931	173,873
11,473	-2,823	344,231	173,674
12,488	-2,858	343,858	173,430
13,502	-2,815	343,146	173,106
14,517	-2,922	342,718	172,749
15,531	-2,804	342,042	172,531
16,546	-2,892	341,758	172,269
17,561	-2,917	341,365	172,026
18,575	-2,864	341,003	171,891
19,590	-2,907	340,542	171,592
20,604	-2,728	340,210	171,620
21,619	-2,926	339,920	171,227
22,634	-2,874	339,507	171,064
23,648	-2,791	338,987	170,884
24,663	-2,929	338,761	170,593
25,677	-2,919	338,574	170,496
26,692	-2,832	338,244	170,415
27,707	-2,910	337,947	170,160
28,721	-2,805	337,579	170,081
29,736	-2,845	337,311	169,885
30,750	-2,802	336,857	169,691
31,765	-2,843	336,747	169,573
32,780	-2,881	336,444	169,361
33,794	-2,850	336,144	169,231
34,809	-2,710	335,588	169,098
35,823	-2,807	335,496	168,924
36,838	-2,865	335,143	168,665
37,853	-2,845	334,991	168,596
38,867	-2,864	334,703	168,414
39,882	-2,902	334,499	168,252
40,896	-2,896	334,304	168,147
41,911	-2,872	333,992	168,003
42,926	-2,859	333,719	167,865
43,940	-2,817	333,420	167,748
44,955	-2,948	333,159	167,451
45,969	-2,795	332,892	167,477
46,984	-2,785	332,630	167,342
47,999	-2,931	332,458	167,074
49,013	-2,833	332,040	166,960
50,028	-2,985	331,936	166,720
51,042	-2,975	331,587	166,542
52,057	-2,828	331,166	166,483
53,071	-3,112	331,063	166,093
54,086	-2,994	330,910	166,135
55,101	-2,894	330,514	166,035
56,115	-2,909	330,228	165,859
57,130	-2,808	330,098	165,894
58,144	-2,835	329,701	165,649
59,159	-2,875	329,522	165,499
60,174	-2,902	329,214	165,300
61,188	-2,831	329,000	165,257
62,203	-2,815	328,765	165,142
63,217	-2,819	328,476	164,978
64,232	-2,779	328,235	164,888
65,247	-2,872	327,969	164,634
66,261	-2,752	327,644	164,592
67,276	-2,817	327,365	164,363
68,290	-2,861	327,151	164,192
69,305	-2,989	326,868	163,891
70,320	-3,038	326,787	163,782
71,334	-2,773	326,425	163,883
72,349	-2,694	326,169	163,827
73,363	-2,742	325,753	163,550
74,378	-2,951	325,839	163,345
75,393	-2,848	325,396	163,224
76,407	-2,813	325,198	163,149
77,422	-2,830	324,877	162,954
78,436	-2,698	324,508	162,901
79,451	-2,617	324,317	162,881
80,466	-2,702	324,097	162,662
81,480	-2,739	323,826	162,470
82,495	-2,946	323,764	162,196
83,509	-2,758	323,357	162,185
84,524	-2,834	323,131	161,973
85,539	-2,761	322,880	161,913
86,553	-2,935	322,785	161,660
87,568	-2,859	322,422	161,547
88,582	-2,817	322,230	161,483
89,597	-2,863	322,048	161,326
90,611	-2,832	321,708	161,176
91,626	-2,732	321,523	161,178
92,641	-2,801	321,286	160,970
93,655	-2,757	321,040	160,880
94,670	-2,705	320,829	160,817
95,684	-2,764	320,609	160,628
96,699	-2,755	320,391	160,514
97,714	-2,873	320,210	160,280
98,728	-2,754	319,793	160,188
99,743	-2,623	319,549	160,194
100,757	-2,719	319,475	160,037
101,772	-2,759	319,109	159,796
102,787	-2,868	319,050	159,634
103,801	-2,878	318,758	159,462
104,816	-2,864	318,601	159,385
105,830	-2,799	318,355	159,318
106,845	-2,799	318,073	159,163
107,860	-2,863	317,910	158,998
108,874	-2,786	317,630	158,927
109,889	-2,902	317,282	158,613
110,903	-2,885	317,047	158,500
111,918	-2,796	316,781	158,449
112,933	-2,695	316,550	158,428
113,947	-2,831	316,441	158,213
114,962	-2,649	316,201	158,275
115,976	-2,647	315,998	158,162
116,991	-2,725	315,772	157,950
118,006	-2,660	315,515	157,878
119,020	-2,769	315,438	157,708
120,035	-2,829	315,123	157,472
121,049	-2,653	314,947	157,559
122,064	-2,875	314,788	157,227
123,079	-2,799	314,556	157,179
124,093	-2,720	314,304	157,123
125,108	-2,712	313,989	156,961
126,122	-2,843	313,755	156,689
127,137	-2,797	313,555	156,625
128,151	-2,792	313,379	156,528
129,166	-2,795	313,239	156,441
130,181	-2,807	312,873	156,232
131,195	-2,794	312,676	156,132
132,210	-2,998	312,617	155,872
133,224	-2,853	312,370	155,890
134,239	-2,795	312,168	155,836
135,254	-2,780	311,687	155,598
136,268	-2,929	311,570	155,368
137,283	-2,737	311,262	155,405
138,297	-2,875	311,144	155,185
139,312	-2,890	310,904	155,035
140,327	-2,817	310,646	154,971
141,341	-2,739	310,384	154,908
142,356	-2,819	310,311	154,773
143,370	-2,662	309,997	154,769
144,385	-2,690	309,876	154,665
145,400	-2,789	309,690	154,454
146,414	-2,711	309,356	154,356
147,429	-2,744	309,106	154,183
148,443	-2,772	308,910	154,041
149,458	-2,783	308,741	153,932
150,473	-2,661	308,361	153,857
151,487	-2,630	308,350	153,870
152,502	-2,825	308,105	153,529
153,516	-2,655	307,728	153,506
154,531	-2,673	307,587	153,404
155,546	-2,742	307,507	153,277
156,560	-2,752	307,211	153,106
157,575	-2,659	306,997	153,083
158,589	-2,636	306,584	152,887
159,604	-2,660	306,495	152,805
160,619	-2,769	306,238	152,549
161,633	-2,586	306,080	152,647
162,648	-2,561	305,817	152,528
163,662	-2,656	305,818	152,417
164,677	-2,742	305,564	152,187
165,692	-2,673	305,377	152,152
166,706	-2,637	305,168	152,072
167,721	-2,701	304,977	151,896
168,735	-2,730	304,771	151,750
169,750	-2,794	304,664	151,617
170,764	-2,554	304,376	151,708
171,779	-2,589	304,248	151,596
172,794	-2,566	304,010	151,486
173,808	-2,606	303,801	151,328
174,823	-2,734	303,460	151,012
175,837	-2,844	303,397	150,854
176,852	-2,731	303,115	150,817
177,867	-2,739	302,915	150,695
178,881	-2,525	302,767	150,829
179,896	-2,575	302,453	150,607
180,910	-2,616	302,312	150,482
181,925	-2,681	302,146	150,319
182,940	-2,759	302,006	150,156
183,954	-2,646	301,780	150,146
184,969	-2,572	301,551	150,094
185,983	-2,415	301,314	150,124
186,998	-2,610	301,065	149,787
188,013	-2,591	300,793	149,658
189,027	-2,635	300,770	149,588
190,042	-2,555	300,592	149,568
191,056	-2,752	300,348	149,232
192,071	-2,660	300,020	149,150
193,086	-2,488	299,820	149,211
194,100	-2,632	299,575	148,931
195,115	-2,477	299,334	148,955
196,129	-2,591	299,186	148,752
197,144	-2,629	299,011	148,613
198,159	-2,579	298,801	148,546
199,173	-2,698	298,632	148,328
200,188	-2,566	298,368	148,318
201,202	-2,596	298,122	148,152
202,217	-2,672	297,936	147,970
203,232	-2,723	297,744	147,809
204,246	-2,651	297,510	147,753
205,261	-2,568	297,274	147,706
206,275	-2,603	297,272	147,657
207,290	-2,741	297,085	147,411
208,304	-2,628	296,784	147,362
209,319	-2,555	296,630	147,346
210,334	-2,433	296,243	147,264
211,348	-2,621	296,144	147,012
212,363	-2,554	295,882	146,936
213,377	-2,603	295,667	146,767
214,392	-2,387	295,516	146,895
215,407	-2,514	295,370	146,682
216,421	-2,606	295,163	146,475
217,436	-2,658	295,070	146,364
218,450	-2,657	294,809	146,222
219,465	-2,532	294,546	146,204
220,480	-2,582	294,297	146,017
221,494	-2,500	294,221	146,048
222,509	-2,671	294,135	145,822
223,523	-2,619	293,980	145,784
224,538	-2,557	293,653	145,671
225,553	-2,557	293,413	145,539
226,567	-2,417	293,191	145,553
227,582	-2,461	292,934	145,370
228,596	-2,575	293,017	145,285
229,611	-2,594	292,808	145,150
230,626	-2,505	292,509	145,076
231,640	-2,706	292,239	144,731
232,655	-2,650	291,982	144,646
233,669	-2,535	291,778	144,646
234,684	-2,703	291,715	144,436
235,699	-2,588	291,522	144,441
236,713	-2,676	291,421	144,291
237,728	-2,634	291,150	144,185
238,742	-2,489	290,818	144,151
239,757	-2,790	290,809	143,837
240,772	-2,573	290,536	143,903
241,786	-2,509	290,343	143,857
242,801	-2,641	290,200	143,644
243,815	-2,673	289,985	143,494
244,830	-2,631	289,816	143,439
245,844	-2,546	289,647	143,425
246,859	-2,745	289,495	143,143
247,874	-2,586	289,124	143,101
248,888	-2,619	289,008	142,999
249,903	-2,543	288,953	143,033
250,917	-2,720	288,808	142,776
251,932	-2,428	288,469	142,880
252,947	-2,465	288,349	142,771
253,961	-2,165	288,230	142,992
254,976	-1,786	288,278	143,372
255,990	-2,026	288,118	143,046
257,005	-2,200	287,728	142,671
258,020	-0,808	288,366	144,327
259,034	0,643	288,632	145,857
260,049	1,196	288,650	146,390
261,063	1,834	288,618	146,980
262,078	2,024	288,495	147,089
263,093	2,224	288,567	147,306
264,107	2,594	288,370	147,551
265,122	2,553	288,286	147,454
266,136	2,673	288,249	147,539
267,151	2,830	287,942	147,520
268,166	2,629	287,775	147,228
269,180	3,024	287,557	147,485
270,195	2,897	287,288	147,211
271,209	2,694	287,123	146,917
272,224	2,721	287,016	146,875
273,239	2,638	286,886	146,717
274,253	2,644	286,552	146,538
275,268	2,869	286,339	146,632
276,282	2,503	286,219	146,205
277,297	2,657	285,914	146,185
278,312	2,542	285,825	146,016
279,326	2,521	285,657	145,897
280,341	2,647	285,478	145,913
281,355	2,574	285,365	145,773
282,370	2,519	285,055	145,549
283,384	2,629	284,902	145,563
284,399	2,431	284,759	145,288
285,414	2,524	284,517	145,240
286,428	2,521	284,337	145,133
287,443	2,534	284,161	145,042
288,457	2,363	283,855	144,710
289,472	2,412	283,771	144,700
290,487	2,493	283,348	144,549
291,501	2,474	283,310	144,499
292,516	2,455	283,112	144,367
293,530	2,301	283,026	144,164
294,545	2,435	282,820	144,173
295,560	2,376	282,559	143,972
296,574	2,373	282,362	143,856
297,589	2,254	282,239	143,667
298,603	2,385	282,021	143,667
299,618	2,495	281,868	143,681
300,633	2,431	281,647	143,495
301,647	2,373	281,631	143,419
302,662	2,470	281,422	143,392
303,676	2,666	281,176	143,438
304,691	2,642	280,993	143,309
305,706	2,776	280,875	143,362
306,720	2,643	280,717	143,143
307,735	2,634	280,571	143,048
308,749	2,481	280,396	142,803
309,764	2,779	280,022	142,879
310,779	2,707	279,894	142,733
311,793	2,631	279,723	142,562
312,808	2,484	279,618	142,358
313,822	2,607	279,404	142,352
314,837	2,574	279,116	142,162
315,852	2,645	279,039	142,176
316,866	2,575	279,050	142,103
317,881	2,367	278,871	141,805
318,895	2,602	278,446	141,796
319,910	2,645	278,359	141,778
320,925	2,582	278,202	141,628
321,939	2,527	277,991	141,456
322,954	2,670	277,839	141,499
323,968	2,816	277,738	141,571
324,983	2,664	277,481	141,286
325,997	2,753	277,257	141,241
327,012	2,549	277,184	141,003
328,027	2,779	276,934	141,076
329,041	2,712	276,821	140,944
330,056	2,798	276,528	140,862
331,070	2,594	276,460	140,626
332,085	2,764	276,302	140,690
333,100	2,755	276,030	140,530
334,114	2,649	275,869	140,339
335,129	2,852	275,724	140,439
336,143	2,652	275,558	140,159
337,158	2,863	275,252	140,184
338,173	2,860	275,132	140,107
339,187	2,791	275,076	140,003
340,202	2,695	274,845	139,785
341,216	2,718	274,565	139,651
342,231	2,676	274,667	139,652
343,246	2,655	274,337	139,453
344,260	2,695	274,169	139,392
345,275	2,772	273,938	139,332
346,289	2,776	273,878	139,293
347,304	2,610	273,691	139,034
348,319	2,723	273,362	138,958
349,333	2,646	273,292	138,839
350,348	2,782	273,160	138,883
351,362	2,824	272,832	138,743
352,377	2,687	272,786	138,582
353,392	2,751	272,512	138,489
354,406	2,741	272,455	138,438
355,421	192,283	1350,618	1433,717
356,435	155,256	1482,088	1433,865
