DTS Sentinel unit serial number:	SN410029Multiplexer serial number:	ORYXHardware model number:	OX2-SRSoftware version number:	ORYX F/W v4,00 Oryx Data Collector v3.7.2.0data status	okinstallation	B4 Nyhavnadifferential loss correction	single-endedforward channel	channel 2reverse channel	N/Adate	2023/12/15time	17:55:13forward acquisition time	300,00reverse acquisition time	0,00gamma	499,1914k internal	0,3141k external	0,3141temperature offset calibration	1,0000default loss term (dB/km)	0,3820temperature slope calibration	1,0000multiplexer offset coefficient	1,0000multiplexer slope coefficient	1,0000fibre end	0,00T internal ref (°C)	18,74T ext. ref 1 (°C)	4,66T ext. ref 2 (°C)	4,74length (m)	temperature (°C)	Stokes	anti-Stokes-744,400	-200,000	0,002	0,101
-743,385	87,132	-0,150	0,123
-742,371	-87,298	0,027	-0,006
-741,356	-154,869	-0,174	0,008
-740,342	262,741	0,006	-0,008
-739,327	-89,883	-0,099	-0,021
-738,312	33,851	0,071	0,046
-737,298	-37,033	-0,352	0,139
-736,283	35,179	0,104	-0,067
-735,269	-5,186	-0,309	0,157
-734,254	800,000	0,035	0,083
-733,239	-42,986	-0,454	-0,170
-732,225	224,362	0,073	-0,087
-731,210	-200,000	0,033	0,162
-730,196	800,000	0,066	-0,160
-729,181	-98,397	-0,097	-0,018
-728,167	800,000	-0,021	0,048
-727,152	-81,764	-0,256	0,062
-726,137	587,063	-0,102	-0,187
-725,123	800,000	0,039	-0,123
-724,108	121,311	-0,038	-0,035
-723,094	-40,238	-0,056	-0,022
-722,079	-84,721	-0,019	0,004
-721,064	-108,897	0,030	-0,005
-720,050	-69,414	-0,089	-0,025
-719,035	283,024	-0,065	0,087
-718,021	-85,173	-0,095	0,022
-717,006	527,980	-0,071	-0,125
-715,991	-43,585	0,067	0,025
-714,977	-200,000	0,050	-0,167
-713,962	-200,000	0,007	-0,045
-712,948	-152,266	0,163	-0,009
-711,933	-163,324	-0,023	0,001
-710,918	800,000	-0,019	0,042
-709,904	-52,659	-0,145	-0,049
-708,889	-200,000	0,012	-0,049
-707,875	-17,858	-0,231	0,107
-706,860	-23,695	-0,161	0,071
-705,845	-200,000	0,003	0,132
-704,831	405,800	0,029	0,045
-703,816	271,456	-0,023	-0,030
-702,802	-80,134	-0,115	-0,028
-701,787	800,000	-0,046	0,104
-700,772	749,510	-0,054	-0,108
-699,758	-132,767	-0,152	0,014
-698,743	69,502	0,083	0,064
-697,729	-135,568	0,068	0,006
-696,714	8,209	-0,157	-0,087
-695,699	-50,701	-0,226	-0,078
-694,685	-177,568	0,016	-0,000
-693,670	10,804	-0,024	0,014
-692,656	-46,965	-0,048	-0,017
-691,641	-144,366	-0,036	-0,002
-690,627	-200,000	0,040	0,143
-689,612	-55,904	0,082	0,027
-688,597	357,659	0,069	-0,102
-687,583	329,427	0,069	-0,099
-686,568	124,372	-0,041	-0,038
-685,554	-58,343	0,054	-0,017
-684,539	24,628	-0,047	0,029
-683,524	674,589	-0,046	-0,090
-682,510	-66,308	-0,162	-0,047
-681,495	40,938	-0,060	0,040
-680,481	-200,000	-0,016	-0,120
-679,466	144,412	-0,049	-0,049
-678,451	-95,387	-0,158	0,031
-677,437	676,916	0,075	0,144
-676,422	417,392	-0,085	0,135
-675,408	520,123	-0,022	-0,037
-674,393	-200,000	0,005	-0,026
-673,378	-200,000	0,015	-0,056
-672,364	21,758	0,118	-0,071
-671,349	-200,000	-0,072	0,000
-670,335	-164,524	0,113	-0,004
-669,320	63,870	-0,068	-0,050
-668,305	345,655	-0,043	-0,063
-667,291	-200,000	-0,037	0,127
-666,276	312,973	0,045	-0,063
-665,262	-200,000	-0,013	-0,063
-664,247	155,365	-0,094	0,096
-663,232	353,528	0,054	-0,079
-662,218	-42,537	0,074	0,028
-661,203	453,809	-0,017	0,027
-660,189	546,555	0,038	-0,068
-659,174	63,645	0,081	0,060
-658,159	800,000	-0,025	0,061
-657,145	-130,375	-0,258	-0,026
-656,130	-200,000	-0,008	-0,036
-655,116	56,343	0,079	0,057
-654,101	86,000	-0,114	0,093
-653,086	800,000	-0,045	-0,098
-652,072	129,096	0,079	0,074
-651,057	-101,365	0,086	0,015
-650,043	-55,812	-0,049	-0,016
-649,028	-200,000	0,020	0,071
-648,014	-188,875	0,118	-0,001
-646,999	-200,000	-0,000	-0,027
-645,984	-64,598	-0,070	0,021
-644,970	63,757	-0,072	-0,053
-643,955	75,073	-0,076	0,059
-642,941	-51,758	0,097	-0,033
-641,926	-200,000	-0,030	-0,131
-640,911	-4,171	0,105	-0,054
-639,897	-43,926	-0,051	-0,019
-638,882	246,444	-0,025	-0,031
-637,868	-155,509	-0,052	0,002
-636,853	-153,380	-0,204	0,010
-635,838	203,021	0,104	-0,119
-634,824	-123,301	-0,020	-0,002
-633,809	800,000	-0,026	-0,065
-632,795	-50,365	-0,002	0,001
-631,780	800,000	-0,046	-0,120
-630,765	-104,075	0,101	-0,017
-629,751	-106,661	-0,162	-0,026
-628,736	139,777	-0,176	-0,171
-627,722	-200,000	-0,022	-0,075
-626,707	-43,965	0,026	0,010
-625,692	582,511	-0,063	0,115
-624,678	-99,506	0,241	-0,044
-623,663	214,690	-0,026	-0,030
-622,649	-95,069	-0,092	-0,018
-621,634	365,102	0,034	-0,050
-620,619	800,000	-0,028	-0,084
-619,605	27,407	-0,093	-0,058
-618,590	-200,000	0,003	0,026
-617,576	211,041	0,018	0,020
-616,561	-14,378	0,050	0,024
-615,546	-200,000	-0,030	0,132
-614,532	-44,109	-0,116	0,043
-613,517	-115,032	0,035	0,005
-612,503	211,945	-0,092	-0,107
-611,488	127,687	-0,047	0,044
-610,474	-200,000	-0,003	0,043
-609,459	-42,332	0,076	-0,028
-608,444	220,846	-0,021	-0,024
-607,430	42,038	-0,121	0,081
-606,415	-71,219	-0,076	-0,021
-605,401	-44,973	0,062	-0,023
-604,386	72,756	0,083	-0,064
-603,371	-200,000	-0,009	-0,029
-602,357	800,000	-0,057	-0,117
-601,342	-200,000	-0,014	-0,048
-600,328	-200,000	-0,012	-0,069
-599,313	-93,016	0,030	0,006
-598,298	-122,950	-0,134	0,016
-597,284	121,601	-0,031	-0,029
-596,269	444,277	0,046	-0,075
-595,255	375,585	0,084	0,127
-594,240	-24,148	-0,169	-0,074
-593,225	-190,307	-0,144	0,001
-592,211	-123,999	0,037	-0,004
-591,196	-98,036	-0,055	0,010
-590,182	-200,000	-0,002	-0,062
-589,167	65,463	-0,055	-0,041
-588,152	800,000	0,013	0,043
-587,138	-79,977	-0,143	0,035
-586,123	800,000	-0,033	-0,093
-585,109	-93,627	-0,153	-0,031
-584,094	-109,720	0,106	-0,016
-583,079	800,000	-0,031	-0,080
-582,065	185,741	-0,071	0,078
-581,050	33,573	0,094	0,060
-580,036	-39,080	0,035	-0,014
-579,021	-8,046	0,022	0,011
-578,006	-200,000	-0,021	-0,081
-576,992	800,000	0,026	0,060
-575,977	796,148	-0,058	0,118
-574,963	285,734	-0,048	0,065
-573,948	-65,702	-0,058	0,017
-572,934	-94,820	-0,022	-0,004
-571,919	153,463	-0,078	-0,079
-570,904	-200,000	-0,004	-0,094
-569,890	208,739	-0,072	-0,083
-568,875	800,000	0,011	0,035
-567,861	-200,000	0,034	0,139
-566,846	12,201	-0,027	-0,015
-565,831	-170,043	0,087	-0,002
-564,817	-200,000	-0,023	-0,200
-563,802	-149,784	-0,128	0,007
-562,788	800,000	0,014	-0,039
-561,773	-155,775	-0,072	-0,003
-560,758	-82,875	0,090	0,021
-559,744	-86,687	-0,047	-0,011
-558,729	800,000	0,012	-0,038
-557,715	-52,061	0,080	-0,027
-556,700	-118,515	-0,118	0,015
-555,685	800,000	0,045	-0,104
-554,671	-116,640	0,113	0,015
-553,656	-82,998	-0,120	-0,028
-552,642	265,107	0,040	0,052
-551,627	5,095	0,087	0,047
-550,612	353,396	-0,030	-0,043
-549,598	52,063	0,081	-0,057
-548,583	-200,000	0,021	-0,171
-547,569	-66,008	0,047	-0,014
-546,554	541,756	0,075	0,131
-545,539	-200,000	0,016	0,101
-544,525	60,866	0,067	0,049
-543,510	800,000	-0,008	0,020
-542,496	-200,000	0,013	-0,133
-541,481	-200,000	0,012	-0,081
-540,466	-133,396	-0,088	-0,008
-539,452	-85,585	-0,121	0,027
-538,437	297,986	0,112	0,152
-537,423	-200,000	0,013	0,044
-536,408	-200,000	-0,003	-0,096
-535,393	-74,609	-0,063	-0,016
-534,379	-200,000	0,014	-0,074
-533,364	-166,012	-0,106	0,003
-532,350	-200,000	-0,005	0,103
-531,335	-152,448	0,058	-0,003
-530,321	174,871	-0,079	0,084
-529,306	683,504	-0,054	0,105
-528,291	-200,000	0,008	0,083
-527,277	434,714	-0,055	-0,088
-526,262	-200,000	-0,017	0,064
-525,248	794,638	-0,015	0,031
-524,233	689,287	-0,013	-0,025
-523,218	-129,643	0,029	-0,003
-522,204	-200,000	-0,015	-0,116
-521,189	55,693	0,050	0,035
-520,175	193,792	-0,042	-0,047
-519,160	-123,805	0,194	-0,022
-518,145	-200,000	0,016	0,154
-517,131	-76,387	0,169	0,043
-516,116	420,964	-0,082	-0,129
-515,102	-200,000	0,008	0,102
-514,087	36,763	-0,094	-0,061
-513,072	89,469	-0,053	-0,044
-512,058	-139,418	0,084	-0,007
-511,043	259,915	0,036	0,046
-510,029	-45,983	-0,089	0,032
-509,014	-164,424	0,159	0,005
-507,999	316,219	0,031	-0,043
-506,985	800,000	-0,048	0,120
-505,970	-51,241	0,064	0,022
-504,956	78,267	0,020	-0,016
-503,941	10,642	0,183	-0,102
-502,926	502,697	0,042	0,072
-501,912	70,454	0,153	0,116
-500,897	800,000	0,002	0,006
-499,883	409,970	-0,049	0,076
-498,868	-200,000	0,007	-0,180
-497,853	481,907	-0,058	-0,098
-496,839	-19,772	0,072	-0,033
-495,824	-60,363	0,076	-0,024
-494,810	31,097	0,045	0,028
-493,795	800,000	0,027	0,070
-492,781	-193,124	-0,114	-0,001
-491,766	330,391	0,026	0,036
-490,751	277,908	0,076	-0,100
-489,737	60,955	0,032	0,023
-488,722	151,420	0,047	-0,047
-487,708	254,854	-0,044	-0,056
-486,693	-33,356	0,079	0,032
-485,678	345,379	0,056	-0,081
-484,664	426,262	-0,134	0,213
-483,649	-200,000	0,018	-0,113
-482,635	-122,727	0,009	-0,001
-481,620	-20,548	-0,146	-0,065
-480,605	-125,333	0,122	0,014
-479,591	-60,848	0,036	0,011
-478,576	12,271	-0,134	0,075
-477,562	-200,000	0,005	0,075
-476,547	-127,494	-0,074	0,008
-475,532	349,877	0,044	-0,065
-474,518	529,401	-0,064	0,112
-473,503	-139,661	0,193	0,015
-472,489	-200,000	-0,002	0,090
-471,474	-47,014	0,023	-0,008
-470,459	-78,483	0,032	-0,008
-469,445	84,123	-0,096	-0,076
-468,430	800,000	-0,029	-0,069
-467,416	100,262	-0,096	-0,082
-466,401	800,000	0,026	0,078
-465,386	7,817	0,052	-0,028
-464,372	143,299	0,075	0,073
-463,357	-9,133	-0,090	-0,044
-462,343	800,000	-0,046	-0,149
-461,328	-200,000	0,022	-0,076
-460,313	-200,000	0,005	-0,102
-459,299	114,692	0,083	0,074
-458,284	176,037	-0,076	0,081
-457,270	371,689	-0,011	-0,017
-456,255	399,891	-0,033	0,052
-455,241	29,484	-0,073	-0,046
-454,226	465,655	-0,037	0,060
-453,211	-80,615	0,117	0,028
-452,197	800,000	0,013	0,027
-451,182	-5,677	-0,018	-0,009
-450,168	800,000	-0,024	0,068
-449,153	-113,079	-0,024	0,003
-448,138	800,000	0,024	-0,058
-447,124	-33,776	-0,194	-0,078
-446,109	-130,071	-0,082	0,008
-445,095	71,469	0,108	-0,082
-444,080	435,160	-0,047	0,075
-443,065	-200,000	0,018	0,066
-442,051	-137,996	0,080	-0,006
-441,036	7,874	0,095	0,052
-440,022	284,881	0,026	0,034
-439,007	610,552	0,079	-0,145
-437,992	-200,000	-0,029	0,148
-436,978	40,247	0,130	0,086
-435,963	-200,000	0,000	-0,034
-434,949	-27,308	-0,054	0,023
-433,934	-200,000	-0,003	0,030
-432,919	800,000	-0,069	-0,158
-431,905	800,000	0,049	-0,115
-430,890	46,623	0,043	-0,029
-429,876	437,621	0,121	0,193
-428,861	800,000	-0,013	-0,032
-427,846	-200,000	-0,009	0,040
-426,832	436,715	-0,029	0,046
-425,817	-200,000	-0,020	0,091
-424,803	168,283	-0,141	0,147
-423,788	101,818	0,115	0,098
-422,773	43,329	0,050	0,033
-421,759	171,185	-0,037	-0,039
-420,744	-58,694	0,058	-0,018
-419,730	787,925	0,039	0,079
-418,715	-110,956	-0,056	-0,008
-417,701	145,972	-0,028	-0,027
-416,686	-200,000	0,007	0,072
-415,671	-110,361	0,029	0,004
-414,657	214,832	0,090	0,104
-413,642	-48,290	-0,024	-0,008
-412,628	800,000	0,032	-0,082
-411,613	-200,000	-0,006	-0,062
-410,598	-35,770	0,140	0,055
-409,584	800,000	-0,033	-0,104
-408,569	2,247	-0,133	-0,070
-407,555	353,553	-0,058	-0,084
-406,540	521,826	0,040	0,069
-405,525	800,000	0,034	0,078
-404,511	0,106	0,032	0,017
-403,496	800,000	-0,043	-0,121
-402,482	607,311	-0,021	-0,038
-401,467	-200,000	-0,026	0,087
-400,452	-116,182	0,129	0,017
-399,438	241,322	-0,028	0,034
-398,423	281,597	0,041	0,054
-397,409	669,446	0,060	-0,114
-396,394	800,000	0,033	-0,075
-395,379	71,013	0,069	0,053
-394,365	-200,000	0,024	0,082
-393,350	186,126	-0,038	0,041
-392,336	-200,000	-0,001	-0,004
-391,321	783,712	0,094	-0,190
-390,306	-47,850	-0,170	-0,060
-389,292	403,378	0,042	0,064
-388,277	139,819	0,100	-0,096
-387,263	188,930	-0,053	-0,059
-386,248	-73,708	-0,044	-0,012
-385,233	33,089	-0,074	0,047
-384,219	42,844	-0,065	-0,043
-383,204	-54,945	-0,076	-0,025
-382,190	-200,000	-0,008	-0,026
-381,175	-39,111	0,159	-0,061
-380,160	-12,337	0,052	-0,025
-379,146	-127,518	-0,088	-0,009
-378,131	557,787	-0,024	-0,042
-377,117	800,000	-0,008	-0,017
-376,102	-200,000	0,002	-0,011
-375,088	-17,915	-0,148	0,068
-374,073	-35,369	-0,161	-0,064
-373,058	154,390	0,047	0,047
-372,044	800,000	0,044	0,094
-371,029	-104,988	0,056	0,009
-370,015	800,000	-0,036	0,093
-369,000	218,006	0,052	0,061
-367,985	120,782	-0,012	-0,011
-366,971	-200,000	0,007	-0,073
-365,956	-200,000	-0,009	-0,087
-364,942	-120,411	0,061	-0,008
-363,927	800,000	-0,019	0,044
-362,912	35,401	-0,130	-0,083
-361,898	21,563	0,031	-0,019
-360,883	137,428	-0,082	-0,079
-359,869	800,000	-0,024	-0,074
-358,854	-200,000	-0,002	-0,091
-357,839	-3,184	0,094	0,048
-356,825	184,728	-0,081	-0,087
-355,810	15,063	0,189	0,108
-354,796	787,923	-0,006	0,012
-353,781	-89,419	0,034	-0,007
-352,766	121,497	-0,047	0,042
-351,752	800,000	0,025	0,056
-350,737	77,319	-0,095	-0,073
-349,723	-49,649	0,091	-0,032
-348,708	800,000	0,034	0,108
-347,693	-200,000	0,002	-0,100
-346,679	693,813	0,027	0,052
-345,664	-200,000	0,021	0,136
-344,650	-23,725	0,046	-0,020
-343,635	248,389	0,025	0,031
-342,620	25,498	0,167	0,101
-341,606	-200,000	-0,001	0,058
-340,591	800,000	0,040	-0,100
-339,577	14,189	0,037	-0,021
-338,562	800,000	-0,048	0,128
-337,548	231,157	-0,061	0,073
-336,533	-200,000	0,023	-0,153
-335,518	489,947	-0,041	0,068
-334,504	202,360	-0,092	-0,104
-333,489	88,779	0,024	-0,020
-332,475	168,371	-0,066	-0,069
-331,460	254,875	0,028	0,035
-330,445	-200,000	-0,006	-0,041
-329,431	-147,066	-0,142	-0,009
-328,416	-36,019	0,118	0,046
-327,402	404,602	0,036	-0,055
-326,387	99,641	0,122	-0,103
-325,372	2,980	-0,073	0,039
-324,358	-200,000	0,010	0,086
-323,343	-200,000	-0,025	0,104
-322,329	-200,000	0,009	0,150
-321,314	45,887	0,083	-0,056
-320,299	-200,000	-0,004	0,099
-319,285	239,098	-0,036	-0,043
-318,270	59,205	0,075	-0,054
-317,256	456,255	-0,028	0,045
-316,241	-87,147	0,026	-0,006
-315,226	510,245	0,104	0,177
-314,212	-200,000	0,013	-0,047
-313,197	315,767	-0,074	0,102
-312,183	-200,000	0,025	0,084
-311,168	565,433	0,020	0,035
-310,153	-133,834	-0,247	-0,022
-309,139	-200,000	0,003	-0,116
-308,124	800,000	0,118	0,251
-307,110	-200,000	-0,033	0,133
-306,095	697,050	-0,030	0,058
-305,080	-200,000	-0,003	0,109
-304,066	155,013	-0,059	-0,059
-303,051	-51,100	-0,123	-0,042
-302,037	-106,706	-0,065	-0,010
-301,022	18,958	0,071	0,042
-300,008	-200,000	0,011	0,088
-298,993	-91,615	0,048	-0,010
-297,978	-200,000	-0,006	0,113
-296,964	-95,303	-0,145	0,028
-295,949	-155,527	-0,163	-0,008
-294,935	423,399	-0,058	-0,092
-293,920	-200,000	0,010	0,107
-292,905	-200,000	0,033	0,135
-291,891	800,000	0,002	-0,006
-290,876	-189,315	0,059	-0,000
-289,862	-200,000	0,005	0,200
-288,847	335,263	-0,069	-0,098
-287,832	321,300	0,079	-0,109
-286,818	260,156	-0,066	0,083
-285,803	24,977	0,141	0,085
-284,789	-200,000	-0,001	-0,015
-283,774	-200,000	-0,012	0,092
-282,759	-63,494	-0,054	0,016
-281,745	22,267	0,060	0,035
-280,730	560,554	0,113	-0,199
-279,716	66,795	0,023	-0,017
-278,701	430,854	-0,028	0,044
-277,686	-200,000	0,028	0,174
-276,672	48,850	-0,098	0,067
-275,657	574,301	0,018	-0,032
-274,643	-172,012	-0,091	0,002
-273,628	-1,948	-0,017	-0,009
-272,613	800,000	-0,022	-0,055
-271,599	800,000	0,028	-0,062
-270,584	52,079	0,051	-0,035
-269,570	-200,000	0,022	0,192
-268,555	61,791	0,087	-0,063
-267,540	-200,000	-0,033	-0,150
-266,526	800,000	-0,077	-0,185
-265,511	800,000	-0,022	-0,065
-264,497	-127,862	-0,046	0,005
-263,482	25,268	0,075	-0,045
-262,467	193,487	0,035	0,039
-261,453	438,124	0,033	0,053
-260,438	800,000	-0,044	-0,115
-259,424	151,186	0,050	0,049
-258,409	-43,637	-0,110	0,040
-257,395	-132,753	0,048	-0,004
-256,380	-51,231	0,043	0,014
-255,365	443,552	-0,046	0,073
-254,351	283,143	-0,149	0,195
-253,336	151,469	0,029	0,029
-252,322	-20,722	-0,119	-0,053
-251,307	-170,135	-0,053	0,001
-250,292	239,828	0,130	0,158
-249,278	-200,000	0,013	-0,062
-248,263	-200,000	-0,007	0,107
-247,249	435,301	0,018	-0,029
-246,234	463,201	-0,038	-0,061
-245,219	-200,000	-0,015	-0,076
-244,205	-200,000	0,012	-0,120
-243,190	-171,773	0,173	0,004
-242,176	4,021	0,149	0,079
-241,161	158,887	0,097	0,098
-240,146	-200,000	0,007	-0,098
-239,132	-200,000	-0,005	0,143
-238,117	597,768	-0,071	0,128
-237,103	-200,000	0,000	-0,087
-236,088	-18,676	0,010	0,005
-235,073	150,987	-0,025	-0,025
-234,059	-200,000	-0,004	0,088
-233,044	-26,706	-0,121	-0,051
-232,030	191,647	-0,028	0,030
-231,015	-4,165	-0,078	-0,039
-230,000	131,900	0,120	-0,112
-228,986	117,659	-0,063	-0,056
-227,971	-26,226	0,031	-0,013
-226,957	-21,573	0,030	-0,013
-225,942	-116,959	0,080	-0,011
-224,927	-200,000	-0,006	-0,024
-223,913	-200,000	-0,002	-0,138
-222,898	-110,542	-0,168	0,025
-221,884	-121,306	-0,057	0,007
-220,869	-110,908	-0,080	0,012
-219,855	-200,000	0,009	0,089
-218,840	800,000	0,008	0,024
-217,825	-159,364	-0,082	0,003
-216,811	639,103	0,039	-0,071
-215,796	281,311	0,064	0,084
-214,782	-193,615	-0,048	-0,000
-213,767	-113,838	0,096	0,013
-212,752	107,112	0,065	0,056
-211,738	424,793	0,092	0,144
-210,723	-200,000	0,003	-0,081
-209,709	-200,000	-0,007	0,043
-208,694	-200,000	-0,005	-0,056
-207,679	800,000	-0,024	-0,075
-206,665	633,475	0,083	-0,153
-205,650	-9,817	-0,128	0,061
-204,636	350,821	0,058	-0,084
-203,621	800,000	-0,025	-0,057
-202,606	-200,000	-0,042	-0,148
-201,592	-168,125	-0,135	0,004
-200,577	358,453	0,036	0,052
-199,563	-137,171	-0,027	-0,002
-198,548	126,176	0,096	0,089
-197,533	-200,000	0,003	-0,050
-196,519	-67,916	0,073	-0,021
-195,504	-25,978	-0,156	-0,066
-194,490	-160,261	0,009	0,000
-193,475	-89,824	-0,095	-0,020
-192,460	800,000	-0,006	-0,014
-191,446	-36,771	0,010	-0,004
-190,431	61,009	-0,034	-0,024
-189,417	-200,000	0,007	0,185
-188,402	258,487	-0,028	-0,035
-187,387	800,000	-0,044	0,093
-186,373	-83,797	0,115	0,026
-185,358	800,000	0,030	-0,073
-184,344	77,326	0,023	-0,018
-183,329	173,593	0,094	-0,099
-182,315	800,000	-0,036	-0,102
-181,300	191,821	0,049	-0,053
-180,285	-142,871	0,055	0,004
-179,271	-200,000	0,002	-0,023
-178,256	800,000	0,046	0,127
-177,242	76,403	0,104	0,080
-176,227	-200,000	-0,003	-0,008
-175,212	84,710	0,059	0,047
-174,198	-200,000	-0,002	-0,078
-173,183	-200,000	0,003	-0,169
-172,169	-200,000	0,022	0,101
-171,154	-200,000	-0,003	0,039
-170,139	-200,000	0,008	-0,039
-169,125	184,245	-0,025	0,027
-168,110	800,000	0,067	-0,141
-167,096	28,354	0,135	0,082
-166,081	-110,329	-0,247	-0,037
-165,066	74,366	0,041	0,031
-164,052	-182,522	-0,027	0,000
-163,037	488,112	-0,019	0,031
-162,023	435,022	0,012	0,018
-161,008	-183,970	0,150	0,002
-159,993	3,006	-0,057	-0,030
-158,979	-87,095	0,099	-0,022
-157,964	173,683	-0,074	0,078
-156,950	-200,000	0,006	0,024
-155,935	51,145	0,095	-0,065
-154,920	-200,000	0,022	0,090
-153,906	94,220	0,120	0,099
-152,891	-104,881	0,153	0,025
-151,877	-110,977	-0,045	0,007
-150,862	800,000	-0,051	-0,143
-149,847	-32,579	0,074	-0,030
-148,833	29,041	-0,031	0,019
-147,818	124,927	0,103	0,094
-146,804	-114,782	0,146	0,020
-145,789	27,900	0,065	0,040
-144,775	79,390	-0,122	0,095
-143,760	340,813	-0,028	0,040
-142,745	-200,000	-0,010	-0,056
-141,731	800,000	-0,038	-0,076
-140,716	163,609	-0,031	0,032
-139,702	104,015	0,035	0,030
-138,687	28,232	-0,043	-0,026
-137,672	2,020	-0,111	-0,058
-136,658	89,828	0,058	-0,047
-135,643	178,509	-0,024	0,026
-134,629	800,000	0,060	-0,129
-133,614	-135,691	-0,037	0,003
-132,599	380,572	0,091	0,136
-131,585	800,000	-0,041	0,104
-130,570	57,395	0,050	-0,035
-129,556	127,800	0,007	-0,006
-128,541	28,093	-0,023	-0,014
-127,526	-15,069	0,088	0,041
-126,512	-200,000	0,037	0,123
-125,497	800,000	0,017	0,037
-124,483	-64,640	-0,070	0,020
-123,468	110,446	-0,026	0,022
-122,453	-152,141	0,064	0,003
-121,439	13,406	0,075	-0,042
-120,424	800,000	-0,063	-0,182
-119,410	231,288	0,057	0,068
-118,395	116,338	0,081	-0,072
-117,380	-200,000	0,015	-0,069
-116,366	378,297	-0,047	0,070
-115,351	-200,000	0,019	-0,144
-114,337	-99,781	0,065	-0,012
-113,322	-29,104	-0,082	0,034
-112,307	-200,000	0,004	0,031
-111,293	-176,720	0,056	0,001
-110,278	776,142	0,073	0,145
-109,264	800,000	0,022	-0,048
-108,249	207,137	0,106	0,120
-107,234	74,690	0,043	0,033
-106,220	800,000	0,015	0,044
-105,205	80,741	0,035	-0,027
-104,191	-200,000	0,005	-0,064
-103,176	800,000	-0,037	0,088
-102,162	-80,009	0,138	0,033
-101,147	21,681	-0,071	-0,042
-100,132	-131,428	-0,065	-0,006
-99,118	-200,000	-0,014	0,137
-98,103	-68,566	0,126	0,035
-97,089	800,000	0,057	0,142
-96,074	227,857	0,095	0,112
-95,059	800,000	0,016	0,049
-94,045	485,014	0,089	-0,147
-93,030	358,481	-0,034	0,050
-92,016	800,000	-0,010	0,025
-91,001	-200,000	-0,006	-0,122
-89,986	-50,783	-0,019	0,007
-88,972	159,338	0,158	0,159
-87,957	800,000	-0,006	0,018
-86,943	202,674	-0,054	0,061
-85,928	800,000	0,013	-0,039
-84,913	-1,231	0,048	-0,024
-83,899	248,381	-0,125	-0,153
-82,884	-127,534	0,047	0,005
-81,870	800,000	-0,034	-0,072
-80,855	800,000	-0,008	-0,025
-79,840	-146,812	0,091	0,006
-78,826	78,537	-0,037	0,029
-77,811	-200,000	0,004	0,065
-76,797	-89,047	0,071	-0,015
-75,782	-200,000	0,019	-0,072
-74,767	307,537	0,071	-0,096
-73,753	-54,021	0,155	-0,051
-72,738	429,637	-0,073	-0,114
-71,724	-92,231	-0,098	-0,020
-70,709	107,589	0,081	0,069
-69,694	694,498	0,073	-0,139
-68,680	488,291	-0,043	-0,072
-67,665	690,650	-0,016	-0,031
-66,651	171,785	-0,048	0,050
-65,636	-200,000	0,013	-0,093
-64,622	71,337	-0,048	-0,036
-63,607	-28,948	0,142	-0,059
-62,592	-200,000	0,005	-0,182
-61,578	21,512	0,118	-0,069
-60,563	-92,190	0,140	0,028
-59,549	-99,819	0,148	-0,026
-58,534	-45,957	-1,730	-0,613
-57,519	800,000	-0,542	-1,267
-56,505	-200,000	-0,995	-4,735
-55,490	-145,805	0,749	0,047
-54,476	800,000	4,998	11,580
-53,461	-200,000	15,791	277,243
-52,446	-200,000	701,103	2256,984
-51,432	577,293	1616,802	2863,585
-50,417	122,650	1620,790	1462,660
-49,403	83,272	1280,937	1005,566
-48,388	37,192	1024,551	653,257
-47,373	21,837	986,334	578,354
-46,359	20,768	974,968	568,162
-45,344	19,029	970,918	560,086
-44,330	19,150	969,395	559,584
-43,315	18,828	967,794	557,585
-42,300	18,794	966,760	556,856
-41,286	18,779	965,771	556,214
-40,271	18,771	964,751	555,581
-39,257	18,781	963,963	555,138
-38,242	18,750	963,152	554,546
-37,227	18,781	962,470	554,233
-36,213	18,805	961,570	553,770
-35,198	18,731	960,690	553,002
-34,184	18,864	959,796	552,895
-33,169	18,695	959,073	551,911
-32,154	18,831	958,127	551,783
-31,140	18,831	957,227	551,243
-30,125	18,774	956,569	550,660
-29,111	18,791	955,774	550,235
-28,096	18,787	955,218	549,879
-27,082	18,777	954,240	549,262
-26,067	18,803	953,809	549,075
-25,052	18,782	952,995	548,518
-24,038	18,773	952,283	548,058
-23,023	18,820	951,496	547,734
-22,009	18,900	950,778	547,557
-20,994	18,807	950,251	546,933
-19,979	18,771	949,599	546,421
-18,965	18,755	949,158	546,093
-17,950	18,775	948,489	545,751
-16,936	18,741	947,912	545,290
-15,921	18,697	947,058	544,634
-14,906	18,605	946,648	544,083
-13,892	18,669	945,769	543,761
-12,877	18,601	945,158	543,174
-11,863	18,558	944,552	542,667
-10,848	18,628	944,087	542,601
-9,833	18,729	943,582	542,608
-8,819	18,746	942,838	542,215
-7,804	18,687	942,214	541,645
-6,790	18,605	941,703	541,070
-5,775	18,689	941,014	540,921
-4,760	18,696	940,535	540,646
-3,746	18,617	939,849	539,978
-2,731	18,523	939,124	539,243
-1,717	18,476	938,420	538,671
-0,702	18,479	937,738	538,266
0,313	18,293	937,082	538,114
1,327	20,774	934,930	544,649
2,342	27,986	808,825	490,703
3,356	22,636	511,592	301,181
4,371	0,227	381,198	195,404
5,386	-2,412	364,771	183,669
6,400	-3,729	358,454	178,853
7,415	-4,568	355,666	176,422
8,429	-4,734	354,152	175,453
9,444	-4,827	353,084	174,795
10,459	-4,919	352,445	174,352
11,473	-4,856	351,764	174,076
12,488	-4,719	351,180	173,937
13,502	-4,808	350,666	173,560
14,517	-5,007	349,974	172,962
15,531	-5,260	349,379	172,350
16,546	-5,393	348,904	171,940
17,561	-5,536	348,651	171,630
18,575	-5,242	347,904	171,598
19,590	-5,526	347,610	171,098
20,604	-5,258	347,183	171,192
21,619	-5,507	346,920	170,752
22,634	-5,320	346,575	170,789
23,648	-5,351	346,093	170,499
24,663	-5,443	345,705	170,183
25,677	-5,397	345,449	170,097
26,692	-5,409	345,150	169,920
27,707	-5,594	344,950	169,589
28,721	-5,509	344,473	169,439
29,736	-5,593	344,275	169,227
30,750	-5,579	344,011	169,098
31,765	-5,547	343,680	168,959
32,780	-5,559	343,346	168,765
33,794	-5,610	343,044	168,542
34,809	-5,627	342,923	168,448
35,823	-5,665	342,526	168,192
36,838	-5,619	342,325	168,133
37,853	-5,549	341,861	167,973
38,867	-5,595	341,731	167,840
39,882	-5,645	341,437	167,622
40,896	-5,551	340,995	167,500
41,911	-5,754	340,828	167,166
42,926	-5,639	340,402	167,076
43,940	-5,686	340,266	166,939
44,955	-5,616	339,884	166,818
45,969	-5,846	339,642	166,417
46,984	-5,956	339,422	166,167
47,999	-5,920	339,005	165,990
49,013	-6,096	338,782	165,662
50,028	-6,141	338,354	165,386
51,042	-6,208	338,141	165,189
52,057	-6,323	337,935	164,941
53,071	-6,182	337,566	164,909
54,086	-6,152	337,429	164,862
55,101	-6,171	337,210	164,718
56,115	-5,905	337,120	164,966
57,130	-5,550	336,745	165,177
58,144	-5,320	336,672	165,390
59,159	-5,384	336,446	165,192
60,174	-5,378	336,135	165,032
61,188	-5,304	335,833	164,953
62,203	-5,263	335,543	164,843
63,217	-5,387	335,216	164,526
64,232	-5,386	335,088	164,450
65,247	-5,181	334,748	164,502
66,261	-5,418	334,593	164,141
67,276	-5,661	334,147	163,629
68,290	-5,778	333,703	163,264
69,305	-5,730	333,744	163,324
70,320	-5,669	333,333	163,178
71,334	-5,690	333,082	163,017
72,349	-5,337	332,958	163,343
73,363	-5,043	332,618	163,496
74,378	-5,175	332,398	163,223
75,393	-5,535	332,265	162,735
76,407	-5,483	331,981	162,640
77,422	-5,353	331,512	162,543
78,436	-5,309	331,409	162,527
79,451	-5,267	331,188	162,453
80,466	-5,523	330,689	161,905
81,480	-5,689	330,545	161,632
82,495	-5,543	330,128	161,578
83,509	-5,581	330,079	161,497
84,524	-5,691	329,878	161,260
85,539	-5,828	329,384	160,851
86,553	-5,792	329,204	160,789
87,568	-5,690	329,018	160,798
88,582	-5,690	328,766	160,661
89,597	-5,726	328,552	160,502
90,611	-5,578	328,371	160,565
91,626	-5,477	328,215	160,587
92,641	-5,575	327,841	160,280
93,655	-5,540	327,611	160,192
94,670	-5,495	327,307	160,080
95,684	-5,608	327,137	159,856
96,699	-5,747	327,038	159,639
97,714	-5,575	326,675	159,639
98,728	-5,668	326,304	159,340
99,743	-5,856	326,129	159,031
100,757	-5,880	325,881	158,869
101,772	-5,811	325,681	158,834
102,787	-5,623	325,338	158,861
103,801	-5,502	325,103	158,866
104,816	-5,732	324,983	158,538
105,830	-5,519	324,939	158,739
106,845	-5,381	324,540	158,682
107,860	-5,411	324,337	158,536
108,874	-5,476	324,081	158,324
109,889	-5,540	323,913	158,158
110,903	-5,444	323,489	158,043
111,918	-5,535	323,290	157,831
112,933	-5,589	323,164	157,696
113,947	-5,466	322,843	157,661
114,962	-5,539	322,783	157,536
115,976	-5,614	322,591	157,347
116,991	-5,639	322,215	157,123
118,006	-5,510	321,919	157,106
119,020	-5,481	321,842	157,085
120,035	-5,339	321,643	157,130
121,049	-5,325	321,499	157,061
122,064	-5,297	321,197	156,930
123,079	-5,449	321,088	156,696
124,093	-5,668	320,868	156,336
125,108	-5,526	320,382	156,241
126,122	-5,867	320,230	155,780
127,137	-6,060	319,847	155,370
128,151	-5,920	319,873	155,521
129,166	-5,705	319,617	155,617
130,181	-5,756	319,275	155,381
131,195	-5,835	318,970	155,133
132,210	-5,593	318,826	155,312
133,224	-5,501	318,672	155,322
134,239	-5,564	318,519	155,165
135,254	-5,399	318,249	155,198
136,268	-5,557	317,852	154,820
137,283	-5,822	317,598	154,397
138,297	-6,010	317,346	154,058
139,312	-5,778	317,183	154,215
140,327	-5,559	316,997	154,346
141,341	-5,414	317,065	154,522
142,356	-5,150	316,811	154,669
143,370	-5,164	316,403	154,440
144,385	-4,944	316,225	154,576
145,400	-5,161	315,986	154,212
146,414	-5,101	315,698	154,123
147,429	-5,068	315,538	154,066
148,443	-5,118	315,339	153,902
149,458	-5,165	315,128	153,735
150,473	-5,173	314,997	153,649
151,487	-5,133	314,779	153,572
152,502	-5,073	314,513	153,492
153,516	-5,162	314,435	153,346
154,531	-5,040	314,025	153,261
155,546	-5,148	313,799	153,022
156,560	-5,246	313,542	152,779
157,575	-5,395	313,323	152,501
158,589	-5,210	313,103	152,577
159,604	-5,116	312,890	152,558
160,619	-5,224	312,743	152,359
161,633	-5,037	312,410	152,381
162,648	-4,958	312,386	152,439
163,662	-5,202	312,188	152,071
164,677	-5,139	312,030	152,047
165,692	-5,261	311,862	151,823
166,706	-5,027	311,556	151,907
167,721	-5,199	311,260	151,568
168,735	-5,038	311,236	151,712
169,750	-5,019	310,998	151,603
170,764	-4,833	310,805	151,691
171,779	-5,027	310,782	151,462
172,794	-4,933	310,444	151,383
173,808	-5,108	309,944	150,942
174,823	-5,462	309,764	150,469
175,837	-5,549	309,503	150,239
176,852	-5,282	309,481	150,494
177,867	-5,001	309,249	150,662
178,881	-4,907	309,165	150,706
179,896	-5,021	308,895	150,441
180,910	-4,996	308,812	150,414
181,925	-5,025	308,498	150,217
182,940	-4,908	308,446	150,300
183,954	-5,013	308,146	150,031
184,969	-4,939	307,842	149,947
185,983	-4,980	307,750	149,846
186,998	-4,944	307,378	149,689
188,013	-4,871	307,161	149,646
189,027	-4,752	307,051	149,702
190,042	-4,953	306,836	149,376
191,056	-4,681	306,663	149,560
192,071	-4,682	306,513	149,473
193,086	-4,717	306,346	149,342
194,100	-4,843	306,010	149,034
195,115	-4,787	305,849	149,001
196,129	-4,735	305,571	148,906
197,144	-4,916	305,408	148,626
198,159	-4,852	305,127	148,542
199,173	-4,644	304,824	148,596
200,188	-4,684	304,801	148,530
201,202	-5,060	304,447	147,957
202,217	-5,424	303,993	147,350
203,232	-5,658	303,797	147,002
204,246	-5,138	303,665	147,458
205,261	-4,919	303,645	147,660
206,275	-4,996	303,572	147,532
207,290	-4,900	303,367	147,517
208,304	-4,952	303,074	147,309
209,319	-4,869	302,839	147,266
210,334	-4,847	302,617	147,168
211,348	-4,907	302,437	147,005
212,363	-4,880	302,166	146,888
213,377	-4,784	302,091	146,937
214,392	-4,980	301,881	146,621
215,407	-5,210	301,558	146,218
216,421	-5,177	301,357	146,141
217,436	-5,206	301,116	145,982
218,450	-4,998	300,815	146,034
219,465	-4,980	300,813	146,037
220,480	-5,061	300,665	145,872
221,494	-4,977	300,469	145,848
222,509	-5,126	300,425	145,662
223,523	-5,048	300,221	145,630
224,538	-4,848	300,007	145,715
225,553	-4,878	299,682	145,514
226,567	-4,745	299,530	145,561
227,582	-4,831	299,420	145,408
228,596	-4,817	299,256	145,330
229,611	-4,809	299,038	145,219
230,626	-4,977	298,758	144,901
231,640	-5,362	298,387	144,321
232,655	-5,480	298,103	144,053
233,669	-5,676	297,978	143,783
234,684	-5,571	297,676	143,729
235,699	-5,388	297,455	143,793
236,713	-5,406	297,515	143,792
237,728	-5,116	297,169	143,901
238,742	-5,119	296,967	143,788
239,757	-4,865	296,859	143,976
240,772	-4,938	296,777	143,851
241,786	-4,996	296,599	143,694
242,801	-5,113	296,406	143,471
243,815	-5,096	296,258	143,403
244,830	-5,177	296,079	143,223
245,844	-5,348	295,882	142,945
246,859	-5,106	295,581	143,027
247,874	-5,004	295,270	142,965
248,888	-5,238	295,281	142,726
249,903	-4,862	295,138	143,016
250,917	-4,901	295,077	142,936
251,932	-4,534	294,913	143,207
252,947	-3,851	295,023	143,924
253,961	-3,887	294,610	143,675
254,976	-3,302	295,113	144,487
255,990	-1,221	295,566	146,759
257,005	-1,030	295,520	146,912
258,020	0,576	296,247	148,853
259,034	1,417	296,116	149,608
260,049	1,338	295,825	149,369
261,063	1,086	295,641	149,014
262,078	1,525	295,690	149,460
263,093	2,176	295,575	150,031
264,107	2,273	295,475	150,062
265,122	2,222	295,442	149,983
266,136	2,471	295,341	150,164
267,151	2,186	294,913	149,652
268,166	2,285	294,661	149,608
269,180	2,127	294,469	149,341
270,195	2,114	294,396	149,278
271,209	2,180	294,070	149,165
272,224	1,901	293,962	148,823
273,239	1,972	293,594	148,693
274,253	1,941	293,462	148,582
275,268	2,176	293,532	148,835
276,282	2,401	293,147	148,847
277,297	1,974	292,975	148,329
278,312	2,122	292,734	148,338
279,326	2,050	292,881	148,328
280,341	2,244	292,555	148,340
281,355	2,146	292,376	148,140
282,370	2,398	292,086	148,225
283,384	2,195	291,861	147,900
284,399	2,378	291,828	148,049
285,414	2,253	291,543	147,769
286,428	2,223	291,323	147,616
287,443	2,081	291,115	147,359
288,457	2,014	290,869	147,157
289,472	2,090	290,657	147,110
290,487	1,780	290,482	146,708
291,501	1,761	290,344	146,606
292,516	1,771	290,115	146,488
293,530	1,831	289,804	146,376
294,545	1,854	289,829	146,397
295,560	1,950	289,672	146,398
296,574	1,905	289,340	146,174
297,589	1,991	289,303	146,225
298,603	2,233	289,186	146,386
299,618	2,209	289,021	146,266
300,633	2,147	288,690	146,026
301,647	2,258	288,493	146,020
302,662	2,263	288,272	145,899
303,676	2,059	287,977	145,542
304,691	1,809	287,593	145,095
305,706	1,525	287,491	144,758
306,720	1,471	287,280	144,588
307,735	1,518	287,136	144,548
308,749	1,670	286,994	144,608
309,764	1,762	286,794	144,582
310,779	1,422	286,621	144,157
311,793	1,374	286,417	143,997
312,808	1,463	286,175	143,947
313,822	1,299	286,137	143,759
314,837	1,507	285,722	143,735
315,852	1,340	285,552	143,478
316,866	1,268	285,573	143,408
317,881	1,272	285,370	143,296
318,895	1,319	285,005	143,145
319,910	1,327	284,781	143,028
320,925	1,223	284,760	142,906
321,939	1,358	284,708	142,994
322,954	1,811	284,449	143,281
323,968	1,609	284,331	143,017
324,983	1,640	284,109	142,922
325,997	1,511	284,034	142,750
327,012	1,724	283,724	142,782
328,027	1,682	283,484	142,608
329,041	1,510	283,263	142,323
330,056	1,747	283,151	142,477
331,070	1,496	282,990	142,148
332,085	1,645	282,747	142,153
333,100	1,591	282,595	142,013
334,114	1,297	282,423	141,638
335,129	1,419	282,139	141,597
336,143	1,665	282,093	141,792
337,158	1,827	282,089	141,929
338,173	1,643	281,812	141,605
339,187	1,574	281,502	141,372
340,202	1,852	281,359	141,548
341,216	1,809	281,267	141,448
342,231	1,790	281,068	141,318
343,246	1,795	280,907	141,229
344,260	1,615	280,675	140,932
345,275	1,901	280,552	141,124
346,289	2,095	280,588	141,310
347,304	2,103	280,318	141,169
348,319	1,800	279,956	140,693
349,333	1,700	279,866	140,542
350,348	1,932	279,801	140,712
351,362	2,138	279,522	140,751
352,377	2,007	279,308	140,508
353,392	2,183	279,217	140,613
354,406	2,134	278,984	140,438
355,421	192,721	1326,631	1402,158
356,435	155,971	1454,305	1402,200
