DTS Sentinel unit serial number:	SN410029Multiplexer serial number:	ORYXHardware model number:	OX2-SRSoftware version number:	ORYX F/W v4,00 Oryx Data Collector v3.7.2.0data status	okinstallation	B4 Nyhavnadifferential loss correction	single-endedforward channel	channel 2reverse channel	N/Adate	2023/12/15time	17:00:13forward acquisition time	300,00reverse acquisition time	0,00gamma	499,1914k internal	0,3143k external	0,3143temperature offset calibration	1,0000default loss term (dB/km)	0,3820temperature slope calibration	1,0000multiplexer offset coefficient	1,0000multiplexer slope coefficient	1,0000fibre end	0,00T internal ref (°C)	17,97T ext. ref 1 (°C)	3,77T ext. ref 2 (°C)	3,89length (m)	temperature (°C)	Stokes	anti-Stokes-744,400	159,569	0,061	0,063
-743,385	-130,352	-0,240	0,024
-742,371	-104,375	0,133	0,023
-741,356	92,045	-0,184	0,153
-740,342	14,060	0,145	0,083
-739,327	-51,789	-0,365	0,125
-738,312	-58,129	0,073	-0,023
-737,298	33,985	-0,287	0,185
-736,283	31,812	0,023	0,015
-735,269	-154,761	-0,266	-0,013
-734,254	-175,019	-0,035	0,001
-733,239	-100,943	-0,606	-0,109
-732,225	14,068	0,098	0,057
-731,210	249,906	-0,107	-0,135
-730,196	765,673	-0,108	-0,219
-729,181	556,960	-0,047	-0,085
-728,167	-21,270	-0,084	0,038
-727,152	64,151	-0,120	-0,089
-726,137	219,949	-0,075	-0,089
-725,123	64,991	-0,070	-0,052
-724,108	189,578	-0,071	-0,079
-723,094	-71,232	-0,093	-0,026
-722,079	77,098	-0,061	-0,048
-721,064	-200,000	-0,001	-0,008
-720,050	-200,000	0,017	0,065
-719,035	41,530	-0,068	-0,045
-718,021	-96,861	-0,086	0,016
-717,006	-53,933	-0,118	-0,040
-715,991	177,745	-0,062	-0,067
-714,977	-200,000	-0,002	-0,056
-713,962	-37,228	-0,084	-0,033
-712,948	-200,000	0,032	0,125
-711,933	-127,176	-0,120	-0,013
-710,918	800,000	0,035	-0,095
-709,904	-168,541	-0,146	-0,004
-708,889	-104,785	-0,142	-0,024
-707,875	-12,715	-0,111	0,053
-706,860	699,110	-0,010	-0,020
-705,845	-200,000	0,000	-0,037
-704,831	-200,000	0,003	-0,043
-703,816	-65,952	-0,094	-0,028
-702,802	-7,332	-0,018	0,009
-701,787	45,772	-0,110	-0,075
-700,772	-73,245	0,063	-0,017
-699,758	-200,000	0,027	0,097
-698,743	-34,788	0,063	-0,025
-697,729	21,116	0,122	0,073
-696,714	-200,000	0,058	-0,198
-695,699	48,113	-0,023	0,016
-694,685	-200,000	0,012	0,081
-693,670	541,924	0,048	0,084
-692,656	205,967	0,115	0,132
-691,641	520,561	-0,032	0,056
-690,627	800,000	0,040	0,090
-689,612	665,307	-0,088	0,168
-688,597	-200,000	0,006	-0,022
-687,583	437,090	-0,100	-0,162
-686,568	11,195	-0,073	-0,041
-685,554	800,000	-0,044	0,095
-684,539	-112,577	-0,224	-0,033
-683,524	800,000	0,052	0,112
-682,510	209,523	-0,103	0,119
-681,495	800,000	0,035	-0,106
-680,481	708,975	-0,041	-0,081
-679,466	183,332	-0,059	-0,065
-678,451	16,949	0,080	0,047
-677,437	-200,000	-0,008	0,042
-676,422	-53,488	-0,050	-0,017
-675,408	-40,938	-0,110	0,042
-674,393	51,764	-0,105	-0,074
-673,378	185,441	-0,058	-0,064
-672,364	209,069	0,033	-0,038
-671,349	-71,622	-0,147	-0,040
-670,335	-200,000	-0,014	0,079
-669,320	-200,000	-0,008	-0,088
-668,305	-60,579	-0,128	0,040
-667,291	-164,086	0,114	-0,004
-666,276	-78,233	-0,067	0,017
-665,262	-28,646	-0,107	-0,045
-664,247	542,171	-0,041	-0,073
-663,232	110,930	-0,116	-0,103
-662,218	-38,478	-0,019	0,007
-661,203	-200,000	0,014	0,171
-660,189	322,736	-0,047	0,067
-659,174	800,000	0,021	0,067
-658,159	282,719	-0,020	-0,027
-657,145	309,906	-0,045	-0,063
-656,130	-26,531	0,079	-0,034
-655,116	-200,000	0,000	-0,085
-654,101	777,064	0,055	0,112
-653,086	252,942	0,014	0,018
-652,072	336,017	-0,059	-0,085
-651,057	-200,000	-0,026	0,126
-650,043	19,807	-0,122	-0,072
-649,028	25,868	0,034	-0,021
-648,014	286,228	0,043	-0,058
-646,999	227,045	0,022	0,026
-645,984	-200,000	-0,016	0,091
-644,970	-200,000	-0,044	-0,180
-643,955	739,714	-0,015	-0,029
-642,941	-200,000	-0,021	-0,076
-641,926	-200,000	-0,044	-0,215
-640,911	380,602	0,049	-0,074
-639,897	800,000	-0,037	0,081
-638,882	103,007	-0,046	0,040
-637,868	278,513	-0,030	-0,040
-636,853	800,000	-0,017	-0,052
-635,838	-64,379	-0,072	-0,021
-634,824	-200,000	0,009	0,040
-633,809	269,927	-0,037	0,049
-632,795	800,000	0,053	0,142
-631,780	-200,000	0,031	0,103
-630,765	31,691	0,099	-0,062
-629,751	-137,754	-0,114	0,009
-628,736	-108,846	-0,103	0,016
-627,722	-62,612	0,039	0,012
-626,707	82,484	0,145	0,116
-625,692	-200,000	-0,060	0,208
-624,678	166,650	-0,026	0,027
-623,663	-200,000	-0,016	0,139
-622,649	-103,345	-0,170	-0,029
-621,634	-107,555	-0,171	-0,027
-620,619	-135,026	-0,083	-0,007
-619,605	264,773	-0,024	-0,031
-618,590	33,126	0,092	-0,059
-617,576	-107,055	0,040	-0,006
-616,561	321,754	-0,044	-0,062
-615,546	646,796	-0,096	-0,181
-614,532	-73,357	-0,160	-0,043
-613,517	-32,650	-0,114	0,047
-612,503	-200,000	-0,021	-0,086
-611,488	110,538	0,073	0,065
-610,474	711,547	0,010	-0,020
-609,459	-200,000	0,007	0,028
-608,444	-127,390	-0,148	-0,016
-607,430	89,730	-0,088	-0,072
-606,415	-200,000	-0,016	-0,053
-605,401	-128,444	0,070	-0,007
-604,386	281,842	-0,029	-0,038
-603,371	84,021	-0,021	0,017
-602,357	-188,403	-0,102	-0,001
-601,342	-200,000	0,012	-0,122
-600,328	-200,000	0,005	-0,069
-599,313	643,189	-0,044	-0,083
-598,298	59,445	-0,031	0,023
-597,284	304,969	0,023	0,031
-596,269	-122,743	0,139	0,016
-595,255	-136,024	0,097	0,008
-594,240	647,022	0,057	0,107
-593,225	-23,252	0,060	0,026
-592,211	-0,207	-0,082	0,043
-591,196	-200,000	-0,001	0,083
-590,182	-200,000	-0,007	-0,055
-589,167	21,120	0,152	-0,091
-588,152	800,000	0,008	0,020
-587,138	111,365	0,098	0,087
-586,123	-9,173	-0,128	-0,063
-585,109	-80,364	-0,178	0,043
-584,094	-200,000	0,011	-0,156
-583,079	800,000	0,055	0,122
-582,065	-5,078	0,150	0,076
-581,050	93,758	-0,050	-0,041
-580,036	-200,000	-0,002	-0,009
-579,021	-200,000	-0,032	-0,119
-578,006	-55,251	-0,163	0,054
-576,992	-91,693	-0,060	0,012
-575,977	776,773	0,035	0,070
-574,963	-59,138	0,038	-0,012
-573,948	124,415	0,147	0,136
-572,934	-98,460	-0,067	-0,012
-571,919	-200,000	-0,002	0,099
-570,904	800,000	0,030	-0,077
-569,890	800,000	-0,004	0,012
-568,875	-51,406	-0,067	0,023
-567,861	229,649	-0,026	0,031
-566,846	-108,106	-0,049	-0,008
-565,831	95,950	-0,084	-0,071
-564,817	256,278	-0,122	-0,154
-563,802	-97,752	-0,155	-0,029
-562,788	201,903	0,064	0,073
-561,773	-200,000	0,024	0,126
-560,758	-173,043	0,119	0,003
-559,744	-200,000	0,004	0,027
-558,729	-9,342	0,037	0,018
-557,715	140,429	-0,153	0,148
-556,700	-32,332	-0,089	0,036
-555,685	-22,338	0,049	-0,022
-554,671	800,000	0,027	-0,069
-553,656	16,272	0,037	-0,021
-552,642	-200,000	-0,023	0,163
-551,627	-118,816	0,180	0,023
-550,612	164,449	-0,089	-0,092
-549,598	35,560	0,106	-0,068
-548,583	432,989	0,034	-0,054
-547,569	141,575	-0,062	-0,060
-546,554	-200,000	-0,012	0,086
-545,539	133,575	-0,039	0,038
-544,525	-200,000	-0,014	-0,045
-543,510	800,000	-0,023	0,050
-542,496	35,044	-0,118	-0,076
-541,481	-129,493	-0,075	-0,008
-540,466	-200,000	-0,005	0,027
-539,452	537,492	0,019	0,033
-538,437	787,254	0,043	0,086
-537,423	97,870	-0,088	0,074
-536,408	-89,229	-0,124	-0,027
-535,393	7,478	-0,016	-0,009
-534,379	-162,251	-0,076	0,003
-533,364	-43,708	0,077	0,028
-532,350	800,000	-0,050	0,139
-531,335	-200,000	0,010	0,041
-530,321	90,391	0,080	-0,066
-529,306	360,102	0,031	-0,046
-528,291	274,664	-0,068	0,089
-527,277	327,050	-0,047	-0,067
-526,262	96,967	0,083	-0,070
-525,248	-200,000	-0,011	-0,078
-524,233	79,211	0,083	0,065
-523,218	246,803	0,063	0,078
-522,204	165,499	0,054	0,056
-521,189	31,176	0,070	0,044
-520,175	-200,000	0,008	-0,071
-519,160	-140,105	-0,025	0,002
-518,145	-26,275	-0,069	0,030
-517,131	-32,526	0,109	-0,044
-516,116	800,000	0,037	-0,114
-515,102	-105,888	0,035	0,006
-514,087	-51,571	-0,103	-0,035
-513,072	-200,000	-0,018	-0,109
-512,058	88,869	-0,051	-0,041
-511,043	74,379	0,018	-0,014
-510,029	800,000	0,036	-0,086
-509,014	98,961	0,100	-0,085
-507,999	94,613	-0,028	-0,023
-506,985	687,137	-0,031	-0,061
-505,970	77,250	-0,177	-0,138
-504,956	800,000	0,012	0,037
-503,941	38,607	0,073	0,048
-502,926	-27,711	-0,088	-0,037
-501,912	469,908	-0,061	-0,101
-500,897	42,103	0,098	0,065
-499,883	253,837	-0,080	0,100
-498,868	164,341	-0,037	-0,039
-497,853	-200,000	-0,004	-0,052
-496,839	21,084	-0,128	-0,076
-495,824	-200,000	0,020	0,118
-494,810	215,090	0,091	0,106
-493,795	54,434	-0,059	0,042
-492,781	-136,028	-0,065	0,006
-491,766	-200,000	-0,001	0,128
-490,751	800,000	-0,032	-0,081
-489,737	220,599	-0,010	0,012
-488,722	-98,916	0,131	-0,024
-487,708	46,008	0,132	0,089
-486,693	-200,000	-0,009	0,074
-485,678	-77,263	0,172	0,043
-484,664	765,571	0,063	-0,126
-483,649	800,000	0,044	0,096
-482,635	251,510	0,019	0,023
-481,620	-200,000	-0,026	-0,185
-480,605	-86,004	0,126	0,028
-479,591	328,766	-0,038	0,054
-478,576	25,129	-0,089	0,054
-477,562	4,864	0,047	-0,025
-476,547	154,870	-0,119	-0,120
-475,532	-200,000	0,010	0,059
-474,518	800,000	-0,029	-0,093
-473,503	88,116	0,061	-0,050
-472,489	800,000	0,027	0,061
-471,474	-48,193	0,041	-0,014
-470,459	-200,000	0,004	0,026
-469,445	-65,271	0,067	-0,020
-468,430	-200,000	0,008	-0,067
-467,416	-200,000	-0,014	0,170
-466,401	-85,942	0,099	0,022
-465,386	76,102	0,086	0,066
-464,372	800,000	0,078	0,200
-463,357	-200,000	0,012	0,058
-462,343	-59,883	-0,075	-0,023
-461,328	-200,000	-0,013	-0,071
-460,313	-105,366	0,084	0,014
-459,299	800,000	0,024	0,064
-458,284	-120,969	-0,035	-0,004
-457,270	-200,000	-0,042	-0,138
-456,255	-200,000	-0,011	-0,064
-455,241	744,539	-0,045	-0,090
-454,226	800,000	0,051	-0,122
-453,211	-70,612	0,096	-0,026
-452,197	-200,000	-0,017	0,115
-451,182	595,607	0,029	0,052
-450,168	715,005	-0,053	0,104
-449,153	800,000	0,042	-0,120
-448,138	-200,000	0,016	-0,104
-447,124	-200,000	-0,017	0,069
-446,109	612,765	-0,043	-0,080
-445,095	-200,000	0,061	0,230
-444,080	-200,000	-0,003	0,107
-443,065	366,889	-0,036	0,054
-442,051	-125,174	-0,022	0,002
-441,036	-40,091	0,065	-0,025
-440,022	548,160	0,043	-0,075
-439,007	800,000	-0,025	-0,079
-437,992	795,952	-0,053	0,107
-436,978	26,215	0,078	0,048
-435,963	-200,000	-0,025	-0,120
-434,949	-87,328	-0,061	0,013
-433,934	-13,129	0,026	-0,012
-432,919	-7,500	-0,167	0,082
-431,905	-200,000	-0,009	0,102
-430,890	-123,542	0,184	-0,021
-429,876	800,000	-0,084	0,209
-428,861	-126,487	0,145	0,016
-427,846	-200,000	0,013	0,048
-426,832	-110,492	-0,025	0,004
-425,817	-49,473	0,094	-0,032
-424,803	-55,300	-0,246	0,080
-423,788	554,572	-0,063	-0,112
-422,773	40,202	0,089	0,059
-421,759	97,691	0,116	0,097
-420,744	-200,000	0,030	0,098
-419,730	-200,000	0,001	-0,045
-418,715	205,620	-0,043	-0,049
-417,701	413,797	0,003	0,004
-416,686	74,309	-0,095	0,073
-415,671	800,000	0,026	-0,061
-414,657	-200,000	-0,013	0,094
-413,642	800,000	-0,051	-0,126
-412,628	800,000	0,041	-0,114
-411,613	-74,977	-0,152	-0,040
-410,598	-200,000	0,008	-0,031
-409,584	-136,615	0,169	-0,014
-408,569	257,279	0,049	-0,062
-407,555	91,422	0,055	-0,045
-406,540	236,826	0,067	0,081
-405,525	-94,670	0,048	0,009
-404,511	-40,681	-0,070	-0,026
-403,496	-141,447	0,084	-0,006
-402,482	464,694	-0,063	-0,104
-401,467	127,581	0,109	0,101
-400,452	131,346	0,079	0,075
-399,438	-144,671	-0,082	0,005
-398,423	-200,000	0,007	-0,034
-397,409	-21,591	-0,097	-0,043
-396,394	21,694	0,077	0,046
-395,379	-151,045	0,133	-0,007
-394,365	-200,000	-0,025	0,193
-393,350	-200,000	0,012	-0,072
-392,336	-35,838	0,055	0,022
-391,321	-200,000	0,002	-0,056
-390,306	261,929	-0,015	-0,019
-389,292	-24,401	-0,153	0,066
-388,277	64,631	0,115	0,085
-387,263	134,012	0,069	-0,065
-386,248	-16,828	-0,031	-0,014
-385,233	201,631	-0,053	0,060
-384,219	-34,390	0,093	0,037
-383,204	-200,000	-0,005	0,060
-382,190	279,800	0,069	0,091
-381,175	-63,170	-0,138	0,041
-380,160	-53,917	0,084	0,028
-379,146	800,000	-0,025	0,053
-378,131	149,261	-0,025	0,025
-377,117	771,180	-0,033	-0,067
-376,102	-200,000	0,010	-0,118
-375,088	-16,335	-0,092	-0,042
-374,073	178,822	-0,086	0,092
-373,058	-21,219	0,062	-0,027
-372,044	185,871	0,027	0,029
-371,029	-200,000	0,005	0,044
-370,015	-200,000	-0,177	0,000
-369,000	-200,000	-0,041	-0,215
-367,985	8,820	-0,144	0,079
-366,971	109,499	0,083	-0,073
-365,956	-29,710	-0,063	0,026
-364,942	207,287	0,086	-0,098
-363,927	620,516	-0,029	-0,054
-362,912	-131,552	0,055	0,005
-361,898	248,114	-0,093	-0,115
-360,883	-36,291	0,099	0,039
-359,869	-200,000	-0,009	-0,156
-358,854	-200,000	0,013	-0,080
-357,839	-200,000	0,006	-0,035
-356,825	800,000	-0,015	0,038
-355,810	403,352	-0,134	0,207
-354,796	-200,000	0,039	0,148
-353,781	51,467	-0,187	-0,129
-352,766	-200,000	0,003	-0,072
-351,752	176,898	0,041	-0,043
-350,737	376,472	-0,102	-0,153
-349,723	60,620	0,071	0,051
-348,708	613,631	0,027	-0,050
-347,693	800,000	-0,014	0,041
-346,679	-200,000	0,004	-0,101
-345,664	1,786	-0,058	0,030
-344,650	152,341	-0,164	0,163
-343,635	43,694	0,139	0,093
-342,620	130,258	0,062	-0,058
-341,606	295,861	-0,046	0,061
-340,591	-200,000	0,009	0,118
-339,577	800,000	-0,056	0,134
-338,562	-77,333	-0,026	-0,007
-337,548	-200,000	-0,025	-0,095
-336,533	-122,179	0,144	0,017
-335,518	155,626	0,036	-0,037
-334,504	202,198	-0,074	-0,083
-333,489	60,205	-0,083	-0,060
-332,475	-200,000	-0,029	0,107
-331,460	479,423	0,008	0,013
-330,445	331,432	0,037	-0,053
-329,431	800,000	-0,013	-0,038
-328,416	-187,922	-0,053	0,000
-327,402	-200,000	0,022	-0,091
-326,387	-113,326	-0,124	-0,018
-325,372	800,000	-0,028	-0,059
-324,358	408,808	-0,047	0,072
-323,343	-200,000	0,033	-0,118
-322,329	25,249	0,078	0,047
-321,314	-105,924	0,067	-0,011
-320,299	51,589	-0,060	-0,042
-319,285	-57,151	0,088	-0,028
-318,270	323,628	0,032	0,044
-317,256	800,000	0,035	0,090
-316,241	-200,000	-0,009	-0,040
-315,226	-47,389	0,081	0,029
-314,212	77,203	0,146	0,113
-313,197	129,314	-0,082	0,076
-312,183	47,787	-0,076	-0,051
-311,168	-200,000	0,006	-0,105
-310,153	36,020	-0,093	-0,059
-309,139	-62,246	-0,091	0,028
-308,124	-17,719	0,030	0,014
-307,110	211,479	-0,036	-0,042
-306,095	593,772	0,083	0,150
-305,080	-65,250	-0,075	-0,022
-304,066	-66,806	-0,062	-0,018
-303,051	-11,872	-0,088	-0,042
-302,037	-60,042	-0,059	-0,018
-301,022	197,763	0,109	-0,121
-300,008	-119,310	0,082	0,010
-298,993	116,881	-0,038	0,034
-297,978	167,760	-0,081	0,084
-296,964	-200,000	0,004	-0,206
-295,949	149,627	-0,146	-0,145
-294,935	-8,247	-0,051	0,025
-293,920	73,261	0,203	0,154
-292,905	14,952	0,082	0,047
-291,891	600,059	0,050	-0,091
-290,876	-134,678	-0,100	-0,009
-289,862	90,215	-0,083	0,067
-288,847	756,189	0,038	0,075
-287,832	79,198	-0,083	0,064
-286,818	430,175	-0,036	0,057
-285,803	-200,000	-0,005	0,043
-284,789	-120,867	0,090	0,011
-283,774	216,258	0,063	-0,073
-282,759	419,363	-0,009	-0,014
-281,745	68,915	0,112	-0,084
-280,730	158,911	-0,015	-0,016
-279,716	344,290	-0,038	0,054
-278,701	-156,421	0,110	0,005
-277,686	355,918	-0,078	0,114
-276,672	-194,757	0,052	-0,000
-275,657	-200,000	0,001	0,003
-274,643	-107,439	0,133	0,021
-273,628	182,282	0,056	-0,060
-272,613	800,000	0,066	-0,147
-271,599	-200,000	-0,014	0,073
-270,584	-200,000	0,011	0,050
-269,570	-61,056	-0,046	-0,014
-268,555	-145,248	0,056	-0,004
-267,540	-26,031	-0,031	0,013
-266,526	567,068	0,101	-0,178
-265,511	-200,000	0,005	-0,117
-264,497	125,006	-0,022	-0,020
-263,482	688,965	-0,026	0,049
-262,467	297,081	-0,026	-0,035
-261,453	286,994	-0,066	0,087
-260,438	800,000	0,035	0,083
-259,424	-200,000	-0,027	0,095
-258,409	-200,000	0,017	-0,066
-257,395	-200,000	0,015	-0,093
-256,380	-200,000	0,028	0,129
-255,365	800,000	-0,030	0,060
-254,351	-106,280	0,049	-0,008
-253,336	135,647	-0,034	-0,032
-252,322	-200,000	0,008	0,038
-251,307	264,371	0,006	-0,008
-250,292	-200,000	-0,011	-0,151
-249,278	-193,009	0,111	0,001
-248,263	-200,000	-0,000	0,067
-247,249	-200,000	-0,011	-0,055
-246,234	-200,000	0,019	-0,156
-245,219	210,607	-0,090	-0,103
-244,205	800,000	-0,034	-0,097
-243,190	-75,562	0,167	0,043
-242,176	144,991	-0,064	0,062
-241,161	66,331	0,060	0,044
-240,146	800,000	-0,037	0,117
-239,132	-23,301	-0,057	-0,025
-238,117	469,725	0,046	-0,075
-237,103	-4,060	-0,086	-0,043
-236,088	7,194	0,069	0,037
-235,073	-200,000	0,012	0,068
-234,059	759,048	0,080	-0,159
-233,044	-77,740	-0,180	-0,045
-232,030	372,852	0,038	-0,056
-231,015	-200,000	0,021	-0,106
-230,000	-200,000	-0,040	-0,177
-228,986	-12,880	0,092	-0,043
-227,971	21,206	0,156	0,092
-226,957	119,671	0,054	0,048
-225,942	222,297	0,065	-0,076
-224,927	-57,281	-0,135	-0,043
-223,913	34,504	-0,098	-0,062
-222,898	-200,000	0,015	-0,049
-221,884	-9,742	-0,120	-0,058
-220,869	-107,752	0,193	0,030
-219,855	-200,000	-0,002	0,007
-218,840	-28,012	0,112	0,047
-217,825	800,000	-0,025	-0,055
-216,811	358,170	-0,029	0,042
-215,796	648,860	-0,042	-0,079
-214,782	243,045	0,090	0,110
-213,767	284,713	0,055	-0,073
-212,752	168,128	-0,036	0,037
-211,738	-88,453	-0,025	0,005
-210,723	-81,597	0,073	-0,017
-209,709	219,881	0,032	-0,037
-208,694	-200,000	-0,020	0,142
-207,679	159,822	0,042	0,043
-206,665	-200,000	0,027	0,192
-205,650	41,659	0,021	-0,013
-204,636	-200,000	0,018	0,131
-203,621	61,598	0,044	0,032
-202,606	0,960	-0,120	-0,062
-201,592	452,471	-0,089	-0,143
-200,577	-200,000	-0,022	-0,077
-199,563	647,343	0,065	-0,121
-198,548	-19,440	0,044	0,020
-197,533	-76,786	0,062	0,016
-196,519	56,757	0,079	-0,056
-195,504	800,000	0,008	0,024
-194,490	385,366	-0,088	0,132
-193,475	800,000	0,009	0,022
-192,460	543,803	-0,046	0,080
-191,446	-103,995	0,074	-0,012
-190,431	294,496	-0,029	0,038
-189,417	-200,000	-0,011	0,057
-188,402	-74,503	-0,043	0,011
-187,387	-200,000	-0,031	-0,150
-186,373	-70,630	-0,107	0,029
-185,358	432,951	0,067	0,106
-184,344	-179,088	0,147	0,002
-183,329	-200,000	-0,013	0,206
-182,315	-93,311	-0,024	0,005
-181,300	-200,000	-0,038	0,151
-180,285	-200,000	-0,006	-0,035
-179,271	-14,328	0,049	-0,023
-178,256	-87,450	-0,084	-0,018
-177,242	-111,720	0,056	0,008
-176,227	130,749	0,104	0,097
-175,212	67,571	-0,119	0,088
-174,198	115,963	0,036	-0,032
-173,183	164,113	0,064	-0,065
-172,169	-73,252	-0,115	-0,030
-171,154	55,054	0,060	-0,042
-170,139	-67,944	0,166	-0,047
-169,125	-5,760	0,032	0,016
-168,110	800,000	0,050	0,126
-167,096	-143,978	0,065	0,004
-166,081	-200,000	-0,009	-0,053
-165,066	-200,000	0,005	0,125
-164,052	-13,829	0,057	-0,027
-163,037	-33,200	-0,061	0,024
-162,023	301,700	0,032	0,042
-161,008	-51,251	-0,038	-0,013
-159,993	564,743	-0,053	-0,093
-158,979	-200,000	0,026	0,083
-157,964	-200,000	0,040	-0,206
-156,950	-200,000	-0,002	0,041
-155,935	140,784	-0,022	-0,021
-154,920	36,361	0,069	-0,044
-153,906	-117,404	0,110	0,014
-152,891	-150,617	-0,079	-0,004
-151,877	216,581	-0,080	-0,092
-150,862	-200,000	-0,002	-0,083
-149,847	-31,707	-0,136	-0,055
-148,833	163,633	0,043	-0,044
-147,818	171,141	-0,037	0,038
-146,804	43,498	0,109	0,072
-145,789	-63,188	-0,047	-0,014
-144,775	564,957	0,035	0,062
-143,760	472,362	-0,081	-0,133
-142,745	-178,058	-0,144	0,002
-141,731	54,619	0,106	0,074
-140,716	250,285	0,094	0,115
-139,702	-60,993	0,129	0,039
-138,687	124,958	0,068	0,062
-137,672	-90,305	0,135	-0,028
-136,658	-200,000	0,023	0,091
-135,643	-200,000	-0,009	0,059
-134,629	22,500	0,128	0,076
-133,614	-200,000	0,017	0,155
-132,599	800,000	0,037	-0,089
-131,585	481,390	-0,062	0,102
-130,570	284,319	-0,070	-0,092
-129,556	-200,000	0,000	-0,151
-128,541	-75,694	-0,182	0,046
-127,526	-200,000	-0,003	-0,032
-126,512	620,698	0,028	0,052
-125,497	236,975	0,036	-0,043
-124,483	637,191	0,035	0,064
-123,468	-180,986	0,057	-0,001
-122,453	-111,616	0,043	0,006
-121,439	-62,406	-0,066	-0,020
-120,424	-69,957	-0,092	-0,025
-119,410	-200,000	-0,006	-0,030
-118,395	-200,000	0,013	0,123
-117,380	18,043	0,130	-0,075
-116,366	158,643	0,109	0,109
-115,351	632,076	-0,066	0,122
-114,337	-200,000	0,002	-0,018
-113,322	-200,000	-0,007	0,181
-112,307	30,781	0,125	0,077
-111,293	800,000	0,028	-0,069
-110,278	92,471	-0,034	0,028
-109,264	-200,000	-0,011	-0,059
-108,249	-74,349	-0,170	-0,044
-107,234	-122,122	-0,103	-0,012
-106,220	234,394	-0,036	-0,043
-105,205	-200,000	-0,054	0,173
-104,191	-200,000	0,007	-0,089
-103,176	3,945	-0,052	0,028
-102,162	-200,000	-0,003	0,133
-101,147	372,908	-0,050	0,073
-100,132	-30,821	-0,134	-0,054
-99,118	-200,000	-0,000	-0,009
-98,103	-127,394	0,180	0,019
-97,089	-42,275	0,044	-0,016
-96,074	-49,273	-0,038	0,013
-95,059	-200,000	-0,002	0,040
-94,045	-200,000	-0,025	-0,090
-93,030	800,000	-0,018	-0,036
-92,016	7,388	0,005	0,003
-91,001	-77,437	0,082	-0,020
-89,986	-93,777	0,047	0,009
-88,972	800,000	-0,005	0,013
-87,957	800,000	0,030	0,064
-86,943	800,000	-0,013	0,027
-85,928	101,863	-0,076	-0,064
-84,913	-200,000	-0,023	-0,074
-83,899	11,908	-0,008	0,004
-82,884	-110,103	-0,112	-0,017
-81,870	643,437	0,102	0,189
-80,855	446,936	0,017	-0,028
-79,840	-33,256	0,117	0,047
-78,826	20,991	-0,105	0,061
-77,811	152,235	0,117	0,115
-76,797	800,000	-0,061	0,123
-75,782	527,257	-0,050	-0,085
-74,767	-94,301	0,049	-0,010
-73,753	-200,000	0,014	-0,088
-72,738	-2,783	0,068	0,034
-71,724	159,217	-0,115	0,116
-70,709	-200,000	0,001	0,055
-69,694	800,000	-0,035	-0,092
-68,680	44,421	0,060	-0,040
-67,665	-101,432	-0,108	0,019
-66,651	42,083	0,127	0,083
-65,636	-200,000	0,010	-0,055
-64,622	76,310	-0,065	0,049
-63,607	-43,062	-0,085	0,031
-62,592	767,821	-0,027	0,054
-61,578	-200,000	-0,019	0,143
-60,563	-103,720	0,153	-0,026
-59,549	673,785	-0,016	0,030
-58,534	-55,663	-1,794	-0,576
-57,519	800,000	-0,461	-1,167
-56,505	-200,000	-1,129	-4,805
-55,490	-31,313	0,687	0,278
-54,476	800,000	4,976	11,783
-53,461	-200,000	15,988	277,094
-52,446	800,000	706,352	2240,665
-51,432	568,455	1620,045	2849,591
-50,417	124,494	1619,745	1469,202
-49,403	87,512	1281,117	1021,650
-48,388	37,579	1026,697	655,453
-47,373	21,496	989,162	578,453
-46,359	20,184	977,785	567,461
-45,344	18,319	973,292	558,711
-44,330	18,453	972,269	558,541
-43,315	18,065	970,483	556,224
-42,300	18,070	969,381	555,588
-41,286	18,008	968,554	554,889
-40,271	18,056	967,474	554,405
-39,257	18,070	966,558	553,902
-38,242	18,048	966,020	553,500
-37,227	17,974	965,243	552,792
-36,213	17,976	964,169	552,161
-35,198	17,968	963,347	551,645
-34,184	18,028	962,565	551,369
-33,169	17,955	961,661	550,594
-32,154	18,047	960,698	550,319
-31,140	18,068	959,860	549,885
-30,125	18,018	959,318	549,391
-29,111	18,088	958,386	549,061
-28,096	18,016	957,800	548,470
-27,082	18,027	957,138	548,105
-26,067	17,961	956,371	547,431
-25,052	17,983	955,486	546,973
-24,038	17,931	954,801	546,391
-23,023	17,953	954,048	546,010
-22,009	18,053	953,423	545,954
-20,994	18,000	952,825	545,419
-19,979	18,014	952,038	544,992
-18,965	17,965	951,604	544,563
-17,950	17,984	950,866	544,182
-16,936	17,906	950,300	543,584
-15,921	17,942	949,860	543,429
-14,906	17,919	949,001	542,841
-13,892	17,892	948,420	542,401
-12,877	17,843	947,588	541,748
-11,863	17,821	946,906	541,266
-10,848	17,883	946,565	541,248
-9,833	17,966	945,938	541,132
-8,819	17,941	945,626	540,850
-7,804	17,929	944,668	540,243
-6,790	17,923	944,061	539,857
-5,775	17,890	943,817	539,591
-4,760	17,970	942,888	539,292
-3,746	17,889	942,495	538,789
-2,731	17,750	941,745	537,898
-1,717	17,709	941,109	537,381
-0,702	17,696	940,269	536,840
0,313	17,556	939,729	536,900
1,327	19,853	937,556	542,868
2,342	26,848	810,607	488,339
3,356	21,014	513,550	299,311
4,371	-1,045	384,018	195,033
5,386	-3,630	367,454	183,349
6,400	-4,590	361,249	179,047
7,415	-5,500	358,571	176,585
8,429	-5,738	357,002	175,505
9,444	-5,698	355,909	175,000
10,459	-5,809	355,314	174,558
11,473	-5,945	354,590	174,021
12,488	-5,653	354,079	174,108
13,502	-5,754	353,526	173,700
14,517	-6,045	352,887	173,017
15,531	-6,306	352,340	172,419
16,546	-6,381	351,691	171,995
17,561	-6,497	351,399	171,697
18,575	-6,364	350,878	171,587
19,590	-6,414	350,438	171,296
20,604	-6,438	350,180	171,127
21,619	-6,404	349,678	170,907
22,634	-6,332	349,349	170,816
23,648	-6,322	348,834	170,561
24,663	-6,558	348,698	170,199
25,677	-6,382	348,291	170,194
26,692	-6,416	348,132	170,061
27,707	-6,508	347,711	169,730
28,721	-6,575	347,373	169,470
29,736	-6,611	347,009	169,235
30,750	-6,594	346,827	169,151
31,765	-6,684	346,554	168,896
32,780	-6,660	346,369	168,819
33,794	-6,521	345,816	168,700
34,809	-6,502	345,547	168,576
35,823	-6,716	345,178	168,127
36,838	-6,569	344,953	168,177
37,853	-6,690	344,816	167,953
38,867	-6,693	344,384	167,723
39,882	-6,801	344,099	167,442
40,896	-6,606	343,832	167,526
41,911	-6,776	343,630	167,214
42,926	-6,804	343,265	166,989
43,940	-6,706	342,901	166,910
44,955	-6,841	342,625	166,603
45,969	-6,808	342,450	166,542
46,984	-7,071	342,110	166,055
47,999	-7,256	341,672	165,610
49,013	-7,194	341,325	165,500
50,028	-7,223	341,237	165,409
51,042	-7,235	340,915	165,224
52,057	-7,239	340,557	165,031
53,071	-7,310	340,483	164,897
54,086	-7,320	340,219	164,743
55,101	-7,079	339,884	164,846
56,115	-6,972	339,704	164,869
57,130	-6,561	339,428	165,197
58,144	-6,330	339,381	165,428
59,159	-6,338	339,079	165,257
60,174	-6,311	338,991	165,230
61,188	-6,480	338,642	164,850
62,203	-6,405	338,328	164,769
63,217	-6,412	338,073	164,622
64,232	-6,318	337,709	164,538
65,247	-6,114	337,598	164,704
66,261	-6,202	337,064	164,329
67,276	-6,711	336,795	163,597
68,290	-6,898	336,465	163,207
69,305	-6,733	336,240	163,273
70,320	-6,822	335,899	162,990
71,334	-6,628	335,745	163,124
72,349	-6,345	335,676	163,400
73,363	-5,967	335,308	163,639
74,378	-6,362	335,235	163,136
75,393	-6,280	334,839	163,024
76,407	-6,455	334,594	162,690
77,422	-6,333	334,283	162,663
78,436	-6,384	334,074	162,489
79,451	-6,359	333,898	162,417
80,466	-6,540	333,450	161,979
81,480	-6,850	333,047	161,417
82,495	-6,843	332,766	161,274
83,509	-6,776	332,713	161,310
84,524	-6,890	332,450	161,039
85,539	-6,901	332,049	160,817
86,553	-6,942	331,872	160,672
87,568	-6,860	331,747	160,689
88,582	-6,844	331,441	160,544
89,597	-6,868	331,004	160,292
90,611	-6,726	331,074	160,471
91,626	-6,549	330,877	160,561
92,641	-6,537	330,547	160,401
93,655	-6,569	330,312	160,236
94,670	-6,759	329,936	159,825
95,684	-6,649	329,719	159,829
96,699	-6,583	329,434	159,751
97,714	-6,796	329,230	159,399
98,728	-7,037	329,006	159,006
99,743	-6,870	328,518	158,943
100,757	-7,087	328,404	158,632
101,772	-6,899	328,133	158,697
102,787	-6,798	327,944	158,703
103,801	-6,595	327,803	158,848
104,816	-6,645	327,521	158,641
105,830	-6,519	327,385	158,702
106,845	-6,533	327,227	158,596
107,860	-6,446	326,773	158,458
108,874	-6,580	326,773	158,295
109,889	-6,537	326,401	158,148
110,903	-6,601	326,026	157,882
111,918	-6,661	325,880	157,730
112,933	-6,724	325,732	157,574
113,947	-6,581	325,356	157,536
114,962	-6,569	325,196	157,459
115,976	-6,564	324,955	157,333
116,991	-6,384	324,537	157,315
118,006	-6,502	324,485	157,146
119,020	-6,530	324,442	157,081
120,035	-6,402	324,273	157,125
121,049	-6,321	323,953	157,046
122,064	-6,641	323,755	156,584
123,079	-6,569	323,375	156,465
124,093	-6,768	323,193	156,145
125,108	-6,872	322,872	155,862
126,122	-7,249	322,655	155,329
127,137	-6,914	322,246	155,486
128,151	-6,782	321,990	155,493
129,166	-6,998	321,871	155,186
130,181	-6,695	321,578	155,361
131,195	-6,998	321,443	154,952
132,210	-6,765	321,261	155,104
133,224	-6,499	321,000	155,254
134,239	-6,561	320,899	155,124
135,254	-6,514	320,631	155,031
136,268	-6,667	320,315	154,698
137,283	-6,862	320,002	154,322
138,297	-6,887	319,715	154,142
139,312	-6,682	319,518	154,256
140,327	-6,655	319,640	154,330
141,341	-6,315	319,453	154,595
142,356	-6,175	319,367	154,691
143,370	-6,223	319,063	154,478
144,385	-6,119	318,860	154,479
145,400	-6,293	318,547	154,125
146,414	-6,054	318,253	154,227
147,429	-6,143	317,978	153,984
148,443	-6,170	317,936	153,921
149,458	-6,250	317,616	153,666
150,473	-6,048	317,440	153,785
151,487	-6,242	317,175	153,434
152,502	-6,075	316,900	153,467
153,516	-6,298	316,879	153,204
154,531	-6,082	316,549	153,262
155,546	-6,053	316,236	153,128
156,560	-6,213	315,883	152,772
157,575	-6,459	315,795	152,452
158,589	-6,196	315,435	152,546
159,604	-6,203	315,409	152,512
160,619	-6,202	315,164	152,381
161,633	-6,067	315,159	152,509
162,648	-6,092	314,886	152,337
163,662	-6,147	314,609	152,131
164,677	-6,041	314,350	152,105
165,692	-6,157	314,159	151,876
166,706	-6,253	314,005	151,686
167,721	-6,072	313,780	151,755
168,735	-5,966	313,548	151,743
169,750	-5,992	313,518	151,687
170,764	-6,011	313,215	151,507
171,779	-5,968	313,123	151,494
172,794	-5,952	312,895	151,388
173,808	-6,083	312,603	151,093
174,823	-6,715	312,263	150,248
175,837	-6,812	311,977	149,995
176,852	-6,243	312,025	150,605
177,867	-6,026	311,921	150,771
178,881	-5,831	311,613	150,814
179,896	-5,919	311,431	150,620
180,910	-5,855	311,025	150,477
181,925	-5,867	310,953	150,416
182,940	-6,075	310,921	150,169
183,954	-5,771	310,478	150,260
184,969	-5,957	310,313	149,972
185,983	-6,008	310,052	149,779
186,998	-6,044	309,909	149,659
188,013	-5,923	309,633	149,639
189,027	-5,807	309,430	149,649
190,042	-5,893	309,415	149,538
191,056	-5,844	309,245	149,494
192,071	-5,629	308,960	149,567
193,086	-5,678	308,687	149,371
194,100	-5,934	308,617	149,056
195,115	-5,870	308,193	148,906
196,129	-5,674	307,999	149,001
197,144	-5,813	307,730	148,714
198,159	-5,667	307,618	148,798
199,173	-5,836	307,368	148,488
200,188	-5,799	307,347	148,504
201,202	-5,879	306,750	148,119
202,217	-6,518	306,286	147,221
203,232	-6,496	306,176	147,178
204,246	-6,213	306,171	147,455
205,261	-5,932	306,058	147,677
206,275	-5,837	305,845	147,659
207,290	-5,855	305,649	147,534
208,304	-5,943	305,459	147,337
209,319	-5,839	305,193	147,303
210,334	-5,889	304,966	147,130
211,348	-5,880	304,872	147,080
212,363	-5,808	304,598	147,008
213,377	-5,812	304,424	146,908
214,392	-5,909	304,162	146,669
215,407	-6,096	303,898	146,336
216,421	-6,311	303,612	145,966
217,436	-6,267	303,386	145,889
218,450	-6,288	303,272	145,800
219,465	-6,032	302,986	145,911
220,480	-5,996	303,012	145,947
221,494	-5,950	302,730	145,845
222,509	-6,068	302,722	145,707
223,523	-6,040	302,634	145,681
224,538	-5,863	302,342	145,707
225,553	-5,771	302,097	145,670
226,567	-5,899	301,998	145,479
227,582	-5,882	301,890	145,431
228,596	-5,849	301,705	145,362
229,611	-5,933	301,500	145,166
230,626	-5,705	301,034	145,160
231,640	-6,254	300,648	144,405
232,655	-6,687	300,395	143,833
233,669	-6,803	300,179	143,600
234,684	-6,570	299,955	143,715
235,699	-6,512	299,843	143,706
236,713	-6,499	299,679	143,628
237,728	-6,400	299,607	143,681
238,742	-6,145	299,336	143,795
239,757	-5,903	299,168	143,945
240,772	-6,002	299,160	143,828
241,786	-6,201	299,008	143,543
242,801	-6,218	298,606	143,320
243,815	-6,376	298,509	143,102
244,830	-6,238	298,270	143,113
245,844	-6,138	298,004	143,072
246,859	-6,202	297,859	142,926
247,874	-6,283	297,805	142,807
248,888	-5,993	297,430	142,904
249,903	-6,116	297,305	142,708
250,917	-5,968	297,247	142,816
251,932	-5,711	297,201	143,037
252,947	-4,541	297,292	144,235
253,961	-4,486	297,064	144,167
254,976	-4,016	297,360	144,767
255,990	-2,997	297,557	145,867
257,005	-3,140	297,329	145,600
258,020	-0,963	297,890	148,034
259,034	-0,284	298,089	148,798
260,049	-0,265	298,000	148,759
261,063	0,050	297,964	149,042
262,078	0,482	297,767	149,360
263,093	0,599	297,783	149,471
264,107	0,414	297,420	149,091
265,122	0,471	297,364	149,107
266,136	0,543	297,222	149,094
267,151	0,683	296,851	149,033
268,166	0,556	296,852	148,895
269,180	0,547	296,544	148,718
270,195	0,677	296,216	148,669
271,209	0,393	296,251	148,393
272,224	0,440	296,108	148,354
273,239	0,666	295,736	148,377
274,253	0,670	295,706	148,353
275,268	0,794	295,445	148,331
276,282	0,418	295,345	147,897
277,297	0,631	295,065	147,953
278,312	0,728	294,900	147,953
279,326	0,691	294,737	147,822
280,341	0,512	294,478	147,503
281,355	0,544	294,341	147,452
282,370	0,682	294,191	147,500
283,384	0,423	293,980	147,126
284,399	0,335	293,903	146,989
285,414	0,705	293,464	147,118
286,428	0,503	293,380	146,865
287,443	0,719	293,190	146,968
288,457	0,705	292,957	146,825
289,472	0,607	292,676	146,575
290,487	0,634	292,606	146,554
291,501	0,574	292,163	146,260
292,516	0,569	292,080	146,201
293,530	0,580	291,988	146,152
294,545	0,623	291,841	146,107
295,560	0,620	291,699	146,020
296,574	0,543	291,453	145,809
297,589	0,637	291,261	145,792
298,603	0,587	291,070	145,634
299,618	0,649	290,953	145,623
300,633	0,612	290,625	145,410
301,647	0,678	290,459	145,377
302,662	0,432	290,347	145,071
303,676	0,475	290,091	144,971
304,691	0,323	289,896	144,715
305,706	0,513	289,621	144,747
306,720	0,576	289,530	144,749
307,735	0,495	289,470	144,629
308,749	0,544	289,089	144,473
309,764	0,357	289,083	144,276
310,779	0,394	288,834	144,175
311,793	0,520	288,620	144,176
312,808	0,432	288,391	143,965
313,822	0,628	288,177	144,034
314,837	0,469	287,956	143,758
315,852	0,389	287,815	143,598
316,866	0,594	287,646	143,696
317,881	0,483	287,496	143,502
318,895	0,518	287,282	143,417
319,910	0,598	287,103	143,391
320,925	0,449	286,910	143,140
321,939	0,374	286,769	142,985
322,954	0,408	286,565	142,903
323,968	0,716	286,319	143,060
324,983	0,679	286,041	142,874
325,997	0,575	285,930	142,707
327,012	0,524	285,762	142,562
328,027	0,609	285,553	142,525
329,041	0,728	285,377	142,538
330,056	0,368	285,428	142,209
331,070	0,650	285,118	142,309
332,085	0,644	284,788	142,126
333,100	0,603	284,597	141,980
334,114	0,553	284,488	141,865
335,129	0,756	284,217	141,908
336,143	0,692	284,095	141,775
337,158	0,592	283,972	141,606
338,173	0,592	283,767	141,492
339,187	0,628	283,538	141,399
340,202	0,538	283,465	141,265
341,216	0,607	283,341	141,255
342,231	0,551	283,092	141,066
343,246	0,656	282,916	141,065
344,260	0,516	282,764	140,845
345,275	0,753	282,630	140,987
346,289	0,697	282,416	140,816
347,304	0,614	282,246	140,641
348,319	0,596	281,950	140,464
349,333	0,572	281,839	140,374
350,348	0,529	281,718	140,261
351,362	0,807	281,445	140,372
352,377	0,696	281,337	140,202
353,392	0,720	281,153	140,121
354,406	0,799	281,001	140,105
355,421	192,013	1326,846	1399,066
356,435	155,433	1454,284	1399,100
