DTS Sentinel unit serial number:	SN410029Multiplexer serial number:	ORYXHardware model number:	OX2-SRSoftware version number:	ORYX F/W v4,00 Oryx Data Collector v3.7.2.0data status	okinstallation	B4 Nyhavnadifferential loss correction	single-endedforward channel	channel 2reverse channel	N/Adate	2023/12/19time	07:25:13forward acquisition time	300,00reverse acquisition time	0,00gamma	499,1914k internal	0,3126k external	0,3126temperature offset calibration	1,0000default loss term (dB/km)	0,3820temperature slope calibration	1,0000multiplexer offset coefficient	1,0000multiplexer slope coefficient	1,0000fibre end	0,00T internal ref (°C)	21,20T ext. ref 1 (°C)	6,16T ext. ref 2 (°C)	6,31length (m)	temperature (°C)	Stokes	anti-Stokes-744,400	743,597	-0,043	-0,086
-743,385	-172,101	-0,128	-0,003
-742,371	112,264	0,012	-0,011
-741,356	-198,037	-0,281	0,001
-740,342	366,386	0,044	0,067
-739,327	-10,962	-0,319	0,156
-738,312	-64,384	0,035	0,011
-737,298	-26,211	-0,241	0,105
-736,283	148,395	-0,101	-0,102
-735,269	763,899	-0,101	0,205
-734,254	74,521	-0,112	0,088
-733,239	-147,786	-0,452	-0,028
-732,225	99,722	0,097	0,084
-731,210	-158,535	-0,110	-0,005
-730,196	-200,000	0,011	0,061
-729,181	34,970	0,061	-0,040
-728,167	-200,000	0,004	-0,037
-727,152	114,909	-0,098	-0,089
-726,137	800,000	0,035	-0,082
-725,123	42,107	-0,055	-0,037
-724,108	-74,560	-0,153	-0,041
-723,094	358,554	-0,055	-0,082
-722,079	24,131	0,075	-0,046
-721,064	-118,264	0,099	0,013
-720,050	800,000	-0,064	-0,144
-719,035	-10,353	-0,065	0,032
-718,021	245,308	-0,079	0,099
-717,006	-57,811	-0,153	0,049
-715,991	177,178	-0,101	-0,109
-714,977	-200,000	-0,016	-0,087
-713,962	-68,085	0,048	0,014
-712,948	-200,000	0,010	0,186
-711,933	56,694	-0,069	0,050
-710,918	-88,556	-0,254	-0,056
-709,904	-37,926	-0,108	-0,042
-708,889	-93,192	0,090	-0,018
-707,875	-200,000	0,044	-0,168
-706,860	-200,000	0,023	-0,090
-705,845	-70,946	-0,136	-0,038
-704,831	-200,000	0,020	-0,097
-703,816	-200,000	-0,023	-0,172
-702,802	65,865	-0,129	-0,097
-701,787	22,845	0,028	-0,017
-700,772	161,046	-0,094	-0,097
-699,758	53,275	-0,104	-0,074
-698,743	-18,199	0,016	-0,007
-697,729	26,040	-0,113	0,070
-696,714	-200,000	0,003	-0,026
-695,699	-129,138	-0,155	-0,016
-694,685	-84,884	-0,092	-0,021
-693,670	44,840	-0,080	-0,055
-692,656	71,812	0,054	-0,042
-691,641	6,815	-0,108	-0,060
-690,627	-96,073	0,036	0,007
-689,612	707,991	0,063	-0,124
-688,597	-200,000	-0,001	-0,046
-687,583	-200,000	-0,041	-0,136
-686,568	-64,396	-0,047	0,014
-685,554	-146,612	-0,184	-0,012
-684,539	213,859	0,050	0,058
-683,524	-200,000	-0,011	0,056
-682,510	-143,411	-0,159	-0,011
-681,495	74,630	-0,213	-0,166
-680,481	-149,463	-0,084	0,005
-679,466	675,623	0,059	-0,114
-678,451	-86,699	-0,100	-0,023
-677,437	800,000	-0,021	-0,065
-676,422	-119,939	0,088	-0,011
-675,408	266,188	-0,025	-0,033
-674,393	50,773	-0,018	0,013
-673,378	5,785	-0,051	0,028
-672,364	-112,896	-0,103	-0,015
-671,349	137,001	0,101	-0,098
-670,335	330,483	0,036	0,052
-669,320	186,825	0,081	0,089
-668,305	800,000	0,023	0,071
-667,291	133,761	0,043	-0,041
-666,276	800,000	0,003	-0,007
-665,262	51,425	-0,058	-0,041
-664,247	-104,608	-0,093	-0,016
-663,232	680,902	0,050	-0,098
-662,218	-154,480	0,046	-0,002
-661,203	800,000	0,008	-0,024
-660,189	-22,643	0,031	-0,014
-659,174	-200,000	0,003	0,017
-658,159	-200,000	-0,018	-0,102
-657,145	800,000	-0,038	-0,081
-656,130	-88,840	0,149	-0,032
-655,116	80,797	-0,115	0,092
-654,101	83,080	0,046	0,037
-653,086	283,244	-0,097	-0,130
-652,072	-60,134	-0,096	0,030
-651,057	304,077	0,023	-0,032
-650,043	-68,953	-0,058	-0,016
-649,028	21,113	0,077	-0,046
-648,014	401,843	0,050	0,078
-646,999	166,342	-0,010	-0,010
-645,984	800,000	-0,064	-0,209
-644,970	227,144	0,059	-0,071
-643,955	-200,000	-0,013	-0,047
-642,941	447,702	-0,035	-0,058
-641,926	259,682	0,055	-0,070
-640,911	-200,000	0,017	-0,067
-639,897	370,090	0,075	0,114
-638,882	-1,355	-0,135	-0,071
-637,868	290,392	-0,057	0,076
-636,853	-1,304	-0,093	0,049
-635,838	-200,000	0,026	-0,175
-634,824	-63,123	-0,069	0,021
-633,809	578,740	0,096	-0,174
-632,795	-60,928	0,041	-0,013
-631,780	290,595	-0,059	-0,080
-630,765	355,623	0,014	-0,020
-629,751	139,416	-0,056	0,054
-628,736	-200,000	0,009	0,111
-627,722	49,402	0,015	-0,010
-626,707	-147,927	-0,087	0,005
-625,692	188,507	0,113	-0,125
-624,678	-21,388	0,165	0,074
-623,663	-109,192	-0,153	-0,024
-622,649	-127,465	-0,086	0,009
-621,634	800,000	-0,024	-0,053
-620,619	18,345	-0,100	0,059
-619,605	-126,720	-0,106	-0,011
-618,590	-140,093	0,030	-0,002
-617,576	66,693	0,029	0,022
-616,561	800,000	-0,042	-0,112
-615,546	-13,972	-0,085	-0,041
-614,532	800,000	-0,033	-0,091
-613,517	-200,000	0,037	-0,190
-612,503	144,179	0,056	0,056
-611,488	342,911	0,060	0,087
-610,474	-200,000	0,007	0,083
-609,459	482,678	0,091	-0,154
-608,444	161,708	-0,120	0,125
-607,430	800,000	-0,042	0,114
-606,415	19,362	-0,033	-0,020
-605,401	440,694	-0,031	-0,051
-604,386	-27,779	0,025	0,011
-603,371	-140,544	-0,029	0,002
-602,357	-92,026	0,138	0,029
-601,342	49,938	0,118	-0,082
-600,328	439,558	-0,057	0,092
-599,313	-51,214	0,087	-0,030
-598,298	-200,000	-0,027	-0,169
-597,284	-200,000	0,010	-0,117
-596,269	505,478	-0,060	-0,104
-595,255	-200,000	-0,024	-0,087
-594,240	-200,000	0,003	-0,066
-593,225	-200,000	-0,019	-0,106
-592,211	-200,000	-0,016	-0,079
-591,196	-13,151	-0,069	-0,033
-590,182	800,000	-0,020	-0,043
-589,167	800,000	0,022	-0,063
-588,152	426,693	0,020	0,032
-587,138	800,000	0,044	-0,135
-586,123	-200,000	-0,019	-0,165
-585,109	-148,099	0,052	-0,003
-584,094	236,388	0,093	0,115
-583,079	-200,000	-0,000	-0,059
-582,065	369,071	0,026	-0,038
-581,050	245,023	0,035	0,043
-580,036	415,777	-0,089	0,141
-579,021	227,674	-0,028	0,033
-578,006	83,515	0,083	-0,067
-576,992	-200,000	-0,007	0,044
-575,977	800,000	0,037	-0,093
-574,963	-134,137	0,064	0,006
-573,948	-200,000	0,002	-0,028
-572,934	-36,637	-0,144	0,057
-571,919	115,925	0,108	-0,098
-570,904	-200,000	-0,009	-0,178
-569,890	295,122	0,042	-0,057
-568,875	784,599	-0,082	-0,166
-567,861	363,488	-0,060	0,089
-566,846	616,499	0,069	0,128
-565,831	-200,000	0,000	0,034
-564,817	-137,248	0,091	-0,008
-563,802	125,966	-0,097	0,091
-562,788	202,389	0,059	0,068
-561,773	286,506	-0,039	-0,052
-560,758	175,741	0,088	0,095
-559,744	800,000	0,018	0,043
-558,729	-58,908	-0,098	-0,031
-557,715	-200,000	0,014	0,157
-556,700	190,638	-0,081	0,090
-555,685	444,637	-0,036	-0,059
-554,671	-75,453	0,078	0,020
-553,656	-159,225	-0,082	0,003
-552,642	143,553	0,106	0,104
-551,627	99,584	0,065	0,055
-550,612	800,000	0,031	-0,083
-549,598	-200,000	-0,033	-0,283
-548,583	-200,000	0,023	0,108
-547,569	192,916	-0,095	0,107
-546,554	-59,863	0,083	-0,026
-545,539	-200,000	-0,002	-0,042
-544,525	228,340	-0,068	0,082
-543,510	467,356	-0,085	0,142
-542,496	-32,209	-0,041	-0,017
-541,481	-200,000	-0,007	-0,180
-540,466	-200,000	-0,063	-0,231
-539,452	128,415	-0,089	0,084
-538,437	-161,413	0,165	0,006
-537,423	249,067	-0,019	-0,024
-536,408	-200,000	-0,018	-0,103
-535,393	299,228	0,103	-0,140
-534,379	-200,000	0,005	-0,049
-533,364	71,554	0,118	-0,091
-532,350	-100,225	0,122	-0,022
-531,335	-131,268	0,097	-0,009
-530,321	-57,553	-0,027	-0,009
-529,306	556,610	0,014	-0,024
-528,291	-12,778	-0,095	0,045
-527,277	-200,000	-0,007	0,068
-526,262	-45,779	-0,049	-0,018
-525,248	88,503	-0,028	0,023
-524,233	800,000	0,088	0,230
-523,218	320,946	0,070	0,098
-522,204	-107,689	-0,064	-0,010
-521,189	800,000	0,060	-0,129
-520,175	-48,227	-0,148	-0,053
-519,160	-200,000	-0,003	0,101
-518,145	-92,260	-0,082	-0,017
-517,131	800,000	0,023	-0,059
-516,116	294,415	0,024	-0,033
-515,102	800,000	-0,056	0,138
-514,087	-200,000	0,106	-0,000
-513,072	-14,902	-0,036	0,017
-512,058	-91,055	0,027	-0,006
-511,043	-56,075	0,105	-0,034
-510,029	60,754	-0,108	-0,079
-509,014	251,618	0,041	0,052
-507,999	384,100	-0,124	0,189
-506,985	-200,000	-0,006	-0,029
-505,970	800,000	-0,031	-0,073
-504,956	152,695	0,090	0,090
-503,941	25,741	-0,102	0,063
-502,926	-101,730	-0,154	-0,027
-501,912	800,000	-0,022	0,054
-500,897	36,611	0,062	-0,040
-499,883	800,000	-0,051	-0,112
-498,868	94,114	0,064	-0,053
-497,853	800,000	0,038	-0,093
-496,839	-41,263	-0,141	0,054
-495,824	70,013	0,069	0,052
-494,810	324,733	0,069	0,098
-493,795	77,044	0,100	-0,078
-492,781	800,000	0,035	0,088
-491,766	-200,000	0,020	-0,069
-490,751	138,052	0,086	-0,083
-489,737	-200,000	0,027	-0,107
-488,722	-200,000	0,007	-0,051
-487,708	201,520	0,073	0,083
-486,693	477,092	0,022	-0,036
-485,678	296,132	-0,073	0,099
-484,664	-76,921	0,062	-0,016
-483,649	-133,922	-0,076	0,007
-482,635	306,985	-0,040	-0,055
-481,620	800,000	-0,034	0,089
-480,605	46,717	0,059	0,040
-479,591	-200,000	0,048	0,163
-478,576	-200,000	0,035	-0,136
-477,562	33,540	-0,080	-0,051
-476,547	89,274	-0,099	0,081
-475,532	46,750	0,135	0,092
-474,518	-22,659	0,125	-0,056
-473,503	-112,837	-0,080	-0,012
-472,489	800,000	0,004	-0,010
-471,474	-56,512	-0,025	0,008
-470,459	140,614	-0,063	-0,061
-469,445	-30,880	-0,143	-0,059
-468,430	-85,405	-0,078	0,018
-467,416	510,475	-0,035	0,060
-466,401	-33,702	0,106	-0,043
-465,386	-111,359	0,156	0,023
-464,372	11,247	-0,103	-0,058
-463,357	800,000	-0,035	-0,076
-462,343	245,664	-0,055	-0,069
-461,328	800,000	0,053	-0,126
-460,313	0,668	-0,123	-0,065
-459,299	-36,376	0,149	0,059
-458,284	197,552	-0,059	0,067
-457,270	-38,268	0,055	0,021
-456,255	31,817	0,065	0,041
-455,241	-13,584	-0,112	-0,053
-454,226	-155,104	0,169	-0,008
-453,211	800,000	-0,024	0,065
-452,197	232,103	0,064	-0,077
-451,182	60,238	0,040	-0,029
-450,168	164,104	-0,092	0,095
-449,153	-90,723	0,127	-0,027
-448,138	-87,908	-0,136	-0,030
-447,124	129,593	-0,103	0,097
-446,109	-90,684	0,031	-0,006
-445,095	733,816	0,055	0,109
-444,080	-200,000	-0,012	0,043
-443,065	-166,500	0,097	0,003
-442,051	-22,681	0,042	-0,018
-441,036	-200,000	0,039	0,184
-440,022	28,956	0,034	-0,021
-439,007	800,000	-0,032	0,095
-437,992	-200,000	0,005	0,099
-436,978	-108,638	-0,060	0,009
-435,963	117,005	0,116	-0,105
-434,949	-200,000	0,016	-0,108
-433,934	-26,270	0,067	-0,029
-432,919	241,805	-0,093	-0,115
-431,905	800,000	0,079	-0,201
-430,890	66,756	0,100	0,075
-429,876	800,000	0,074	-0,182
-428,861	707,442	0,049	-0,095
-427,846	-138,560	0,155	-0,012
-426,832	-200,000	-0,005	-0,127
-425,817	-28,065	-0,153	0,065
-424,803	744,592	-0,024	0,048
-423,788	-58,576	0,031	0,010
-422,773	-159,046	0,138	0,006
-421,759	-20,207	-0,088	0,040
-420,744	-200,000	-0,012	-0,091
-419,730	-200,000	0,008	-0,101
-418,715	219,760	0,080	-0,095
-417,701	-71,762	-0,150	0,041
-416,686	48,685	0,081	0,056
-415,671	-200,000	-0,003	-0,020
-414,657	97,460	-0,127	-0,107
-413,642	85,805	-0,065	0,052
-412,628	-167,173	-0,070	-0,002
-411,613	-63,969	-0,145	-0,043
-410,598	-125,502	-0,092	-0,010
-409,584	60,194	0,019	0,014
-408,569	-93,268	0,191	-0,039
-407,555	800,000	-0,109	0,238
-406,540	-150,379	-0,119	0,007
-405,525	315,489	-0,035	0,049
-404,511	332,246	0,103	0,147
-403,496	-190,122	0,111	-0,001
-402,482	-200,000	-0,015	-0,133
-401,467	490,681	0,097	-0,163
-400,452	-200,000	-0,037	0,181
-399,438	-200,000	-0,013	-0,052
-398,423	-76,571	-0,086	0,022
-397,409	133,775	-0,094	-0,090
-396,394	800,000	-0,077	-0,169
-395,379	-59,835	0,072	-0,023
-394,365	521,836	0,032	-0,055
-393,350	800,000	0,044	0,092
-392,336	-40,659	0,035	-0,013
-391,321	59,327	0,117	-0,085
-390,306	-75,263	-0,132	-0,034
-389,292	-2,419	-0,044	-0,023
-388,277	800,000	0,037	0,095
-387,263	-124,089	0,073	-0,008
-386,248	-128,916	-0,062	-0,006
-385,233	-200,000	-0,001	0,045
-384,219	-200,000	0,010	0,035
-383,204	800,000	-0,032	-0,082
-382,190	-57,494	-0,035	-0,011
-381,175	-81,394	0,033	0,008
-380,160	-61,575	0,031	0,010
-379,146	-116,317	0,156	0,021
-378,131	219,934	0,059	0,070
-377,117	52,762	0,087	0,061
-376,102	-200,000	0,004	-0,024
-375,088	-200,000	-0,003	-0,018
-374,073	-85,890	-0,088	0,020
-373,058	-200,000	-0,002	0,030
-372,044	-200,000	-0,037	0,124
-371,029	488,822	0,033	0,056
-370,015	-200,000	0,027	0,135
-369,000	349,465	0,084	-0,122
-367,985	-200,000	0,003	0,127
-366,971	-84,864	-0,124	-0,028
-365,956	-67,315	-0,143	-0,041
-364,942	618,168	-0,051	0,094
-363,927	-200,000	0,029	0,109
-362,912	800,000	0,061	-0,127
-361,898	-200,000	-0,025	0,088
-360,883	681,927	0,040	0,076
-359,869	800,000	-0,036	-0,081
-358,854	800,000	-0,038	0,113
-357,839	159,226	0,099	-0,101
-356,825	217,137	-0,032	0,037
-355,810	-200,000	-0,007	0,186
-354,796	34,140	0,066	-0,042
-353,781	-200,000	-0,002	-0,040
-352,766	-200,000	0,023	-0,178
-351,752	-200,000	-0,021	-0,105
-350,737	287,927	0,073	0,098
-349,723	-177,006	0,049	0,001
-348,708	103,832	-0,064	0,055
-347,693	705,502	0,041	0,080
-346,679	-13,887	-0,072	-0,034
-345,664	-145,915	-0,079	-0,005
-344,650	478,941	-0,063	-0,104
-343,635	-200,000	0,019	0,070
-342,620	-200,000	-0,011	0,160
-341,606	-144,409	-0,192	0,013
-340,591	-58,513	0,137	0,043
-339,577	454,475	-0,053	0,087
-338,562	243,925	0,025	0,031
-337,548	-200,000	0,020	-0,112
-336,533	-84,412	0,047	-0,011
-335,518	30,968	0,055	-0,034
-334,504	334,469	0,056	0,080
-333,489	-16,782	-0,110	0,051
-332,475	-147,659	0,137	-0,008
-331,460	33,367	-0,081	0,051
-330,445	-200,000	0,006	0,066
-329,431	800,000	-0,011	0,026
-328,416	-128,504	-0,116	0,012
-327,402	800,000	0,055	0,118
-326,387	232,295	0,037	0,044
-325,372	800,000	-0,011	-0,026
-324,358	-181,987	-0,073	-0,001
-323,343	-158,408	0,150	0,006
-322,329	794,499	0,024	0,049
-321,314	-200,000	-0,006	0,075
-320,299	569,644	-0,031	-0,056
-319,285	-28,635	0,056	0,023
-318,270	727,546	0,047	-0,093
-317,256	48,013	-0,141	-0,097
-316,241	484,123	0,083	-0,139
-315,226	-72,976	-0,016	-0,004
-314,212	341,439	0,028	0,040
-313,197	683,112	0,052	0,100
-312,183	41,767	-0,076	0,050
-311,168	-200,000	-0,013	0,143
-310,153	135,353	0,069	-0,066
-309,139	-200,000	-0,029	0,182
-308,124	171,131	-0,073	0,076
-307,110	85,293	0,111	-0,089
-306,095	-41,924	-0,132	-0,049
-305,080	800,000	-0,028	-0,063
-304,066	27,653	-0,043	0,026
-303,051	69,038	-0,062	-0,047
-302,037	-78,741	0,145	0,036
-301,022	-200,000	-0,000	0,103
-300,008	-200,000	0,006	0,075
-298,993	-200,000	0,042	-0,171
-297,978	-135,771	0,024	-0,002
-296,964	61,434	-0,080	0,058
-295,949	800,000	0,034	-0,076
-294,935	353,079	-0,016	-0,024
-293,920	-200,000	-0,005	0,041
-292,905	-34,195	0,137	-0,055
-291,891	-87,945	-0,087	-0,019
-290,876	800,000	-0,016	0,043
-289,862	-200,000	-0,005	-0,096
-288,847	-200,000	-0,006	-0,029
-287,832	558,218	-0,051	-0,091
-286,818	-200,000	0,023	0,083
-285,803	800,000	0,058	-0,125
-284,789	-200,000	0,027	0,112
-283,774	-197,749	-0,054	-0,000
-282,759	568,261	-0,028	0,051
-281,745	800,000	-0,057	-0,152
-280,730	-200,000	0,001	-0,019
-279,716	800,000	0,007	0,015
-278,701	800,000	-0,042	0,089
-277,686	-77,818	0,119	-0,030
-276,672	-34,254	0,085	0,034
-275,657	112,958	0,096	-0,085
-274,643	155,176	-0,041	-0,042
-273,628	450,134	0,016	0,027
-272,613	-172,348	0,089	-0,002
-271,599	141,964	0,015	-0,015
-270,584	-60,125	0,163	-0,051
-269,570	-9,171	0,076	-0,037
-268,555	-38,650	-0,126	-0,049
-267,540	-200,000	-0,003	-0,099
-266,526	-200,000	-0,009	0,073
-265,511	248,046	-0,015	0,019
-264,497	62,190	0,135	-0,099
-263,482	-200,000	-0,024	-0,167
-262,467	720,325	-0,060	0,118
-261,453	-128,106	-0,035	0,004
-260,438	-32,928	-0,054	-0,022
-259,424	-13,725	-0,050	0,024
-258,409	461,449	0,025	-0,041
-257,395	79,267	0,124	0,097
-256,380	800,000	0,017	0,038
-255,365	757,909	-0,020	0,041
-254,351	-115,919	0,057	-0,008
-253,336	793,259	-0,036	0,073
-252,322	-72,912	-0,025	-0,007
-251,307	-200,000	0,082	0,000
-250,292	57,369	0,036	0,026
-249,278	-200,000	0,037	0,129
-248,263	-200,000	-0,004	0,203
-247,249	-200,000	0,003	0,031
-246,234	-200,000	-0,046	-0,155
-245,219	-200,000	0,019	-0,112
-244,205	-10,516	0,049	0,024
-243,190	-128,237	-0,044	0,005
-242,176	-20,223	-0,049	0,022
-241,161	-200,000	-0,022	0,183
-240,146	-200,000	-0,010	0,107
-239,132	57,550	-0,098	-0,070
-238,117	-200,000	0,005	0,025
-237,103	-86,589	0,073	-0,016
-236,088	-200,000	0,006	-0,080
-235,073	-11,900	-0,148	0,070
-234,059	130,972	0,098	-0,092
-233,044	-200,000	-0,003	0,118
-232,030	32,326	0,078	-0,049
-231,015	-65,109	-0,108	0,032
-230,000	800,000	0,011	-0,032
-228,986	-73,703	-0,197	0,052
-227,971	104,661	-0,056	0,048
-226,957	-137,949	0,147	-0,012
-225,942	800,000	0,022	-0,055
-224,927	-200,000	-0,010	-0,083
-223,913	-200,000	0,027	0,107
-222,898	137,850	-0,131	0,125
-221,884	-200,000	-0,038	0,154
-220,869	83,617	0,127	0,101
-219,855	531,819	-0,047	0,082
-218,840	-200,000	-0,011	0,074
-217,825	108,558	-0,011	-0,010
-216,811	-187,538	0,055	0,001
-215,796	301,645	-0,051	0,069
-214,782	28,781	0,053	-0,033
-213,767	-100,656	0,104	0,018
-212,752	711,001	0,012	-0,023
-211,738	-62,711	0,102	0,031
-210,723	380,178	-0,028	0,042
-209,709	800,000	-0,043	-0,096
-208,694	-15,924	-0,014	0,007
-207,679	241,064	-0,022	0,027
-206,665	611,571	-0,093	0,171
-205,650	800,000	0,021	0,050
-204,636	-200,000	-0,026	0,193
-203,621	-136,802	-0,108	0,009
-202,606	-128,267	0,072	0,007
-201,592	-78,358	-0,148	-0,037
-200,577	-200,000	0,002	0,077
-199,563	299,364	-0,040	0,053
-198,548	92,825	-0,067	0,055
-197,533	-123,883	0,108	-0,012
-196,519	103,326	-0,048	0,041
-195,504	-200,000	-0,026	-0,106
-194,490	-200,000	0,001	-0,005
-193,475	-200,000	-0,004	-0,082
-192,460	37,879	-0,173	0,112
-191,446	-200,000	0,011	0,111
-190,431	463,015	-0,042	0,069
-189,417	393,802	-0,036	-0,054
-188,402	671,702	-0,081	0,154
-187,387	-200,000	0,006	-0,033
-186,373	-200,000	0,008	-0,126
-185,358	80,354	-0,055	-0,043
-184,344	-200,000	0,001	0,074
-183,329	174,119	0,075	0,079
-182,315	800,000	-0,016	-0,034
-181,300	-42,402	-0,054	-0,020
-180,285	-200,000	0,012	0,055
-179,271	-200,000	0,012	0,087
-178,256	237,404	0,101	0,122
-177,242	-35,204	0,093	-0,037
-176,227	23,391	0,093	0,056
-175,212	361,219	-0,049	-0,071
-174,198	-38,184	-0,047	0,018
-173,183	145,613	-0,121	-0,118
-172,169	0,894	-0,117	-0,061
-171,154	79,052	0,041	0,032
-170,139	-200,000	0,038	-0,158
-169,125	310,804	0,093	0,127
-168,110	-200,000	-0,018	0,088
-167,096	800,000	-0,032	-0,075
-166,081	-121,323	-0,051	0,006
-165,066	777,215	-0,068	-0,136
-164,052	-42,032	-0,109	0,040
-163,037	96,497	-0,100	0,084
-162,023	90,942	-0,030	0,024
-161,008	-64,673	0,130	0,038
-159,993	344,235	0,079	0,113
-158,979	282,498	-0,063	0,083
-157,964	800,000	-0,059	-0,161
-156,950	107,232	0,120	-0,104
-155,935	249,277	0,096	-0,119
-154,920	-133,363	-0,057	0,005
-153,906	800,000	-0,024	0,067
-152,891	-200,000	0,001	0,027
-151,877	82,049	0,049	-0,039
-150,862	-200,000	0,000	-0,117
-149,847	-110,135	0,119	-0,018
-148,833	800,000	0,035	0,076
-147,818	-173,516	0,142	-0,003
-146,804	-39,888	0,022	0,008
-145,789	298,631	-0,061	0,082
-144,775	-102,310	0,062	-0,011
-143,760	-170,319	-0,073	0,002
-142,745	-38,659	-0,105	0,040
-141,731	800,000	0,068	-0,166
-140,716	229,428	0,053	0,063
-139,702	800,000	-0,038	0,099
-138,687	800,000	-0,027	-0,076
-137,672	313,286	0,034	0,047
-136,658	86,149	0,050	0,040
-135,643	33,048	-0,080	-0,050
-134,629	-200,000	-0,030	0,110
-133,614	46,192	0,107	0,072
-132,599	-81,560	-0,012	0,003
-131,585	-200,000	-0,004	-0,063
-130,570	-12,903	0,089	-0,042
-129,556	781,167	0,017	0,035
-128,541	-3,459	-0,106	-0,054
-127,526	92,491	-0,009	0,007
-126,512	-67,106	0,052	0,015
-125,497	-200,000	0,001	0,075
-124,483	-110,871	-0,097	-0,014
-123,468	241,811	0,100	-0,122
-122,453	12,049	-0,110	-0,061
-121,439	88,752	-0,097	-0,078
-120,424	198,898	-0,094	-0,105
-119,410	231,546	-0,050	0,060
-118,395	-200,000	-0,006	0,073
-117,380	-200,000	-0,051	0,170
-116,366	-200,000	0,000	-0,040
-115,351	-138,837	-0,101	0,008
-114,337	583,758	-0,049	-0,088
-113,322	46,935	-0,103	0,070
-112,307	74,498	0,107	-0,082
-111,293	-83,555	0,218	0,050
-110,278	408,130	0,040	0,062
-109,264	-15,234	0,087	0,040
-108,249	314,291	-0,150	-0,206
-107,234	-200,000	0,000	-0,042
-106,220	226,959	0,091	-0,108
-105,205	147,996	0,046	-0,045
-104,191	-96,835	-0,114	0,021
-103,176	-200,000	0,014	0,067
-102,162	305,297	-0,039	-0,053
-101,147	126,106	-0,039	-0,036
-100,132	-200,000	0,049	-0,178
-99,118	800,000	-0,016	-0,051
-98,103	-104,670	-0,109	-0,018
-97,089	492,466	-0,035	0,059
-96,074	-9,333	-0,052	0,025
-95,059	587,600	0,044	0,080
-94,045	-200,000	-0,005	0,099
-93,030	50,594	-0,029	0,020
-92,016	800,000	-0,026	-0,062
-91,001	-200,000	-0,020	0,087
-89,986	800,000	0,018	0,036
-88,972	800,000	-0,067	0,166
-87,957	150,317	-0,079	0,078
-86,943	77,075	-0,084	-0,065
-85,928	-200,000	0,004	-0,096
-84,913	800,000	0,011	-0,035
-83,899	-19,109	-0,055	0,025
-82,884	800,000	-0,010	0,020
-81,870	-184,029	-0,054	-0,001
-80,855	128,638	0,057	0,053
-79,840	791,548	-0,032	0,064
-78,826	776,351	-0,028	0,056
-77,811	-196,468	-0,111	-0,001
-76,797	800,000	0,053	-0,155
-75,782	304,016	0,022	0,030
-74,767	-135,877	-0,037	-0,003
-73,753	-53,077	-0,079	0,026
-72,738	-62,480	-0,033	0,010
-71,724	800,000	0,044	-0,096
-70,709	-111,626	-0,106	0,015
-69,694	-48,607	-0,121	-0,042
-68,680	-89,549	0,093	-0,020
-67,665	106,958	0,093	-0,080
-66,651	159,422	0,029	-0,030
-65,636	800,000	0,039	-0,120
-64,622	800,000	-0,020	0,059
-63,607	284,596	0,059	-0,078
-62,592	593,479	-0,069	-0,124
-61,578	-74,885	0,112	-0,029
-60,563	-200,000	-0,000	0,040
-59,549	-39,846	-0,096	0,036
-58,534	-133,346	-1,376	-0,124
-57,519	546,750	-0,874	-1,523
-56,505	-200,000	-0,946	-4,492
-55,490	-57,463	0,538	-0,170
-54,476	800,000	4,890	11,684
-53,461	-200,000	14,598	260,335
-52,446	-200,000	695,826	2275,214
-51,432	601,672	1622,948	2935,771
-50,417	117,847	1631,217	1456,330
-49,403	75,131	1285,146	981,020
-48,388	37,288	1022,393	655,308
-47,373	23,362	981,570	583,354
-46,359	22,634	970,729	574,504
-45,344	21,428	966,360	567,959
-44,330	21,383	965,083	567,037
-43,315	21,262	963,503	565,693
-42,300	21,271	962,415	565,060
-41,286	21,285	961,352	564,458
-40,271	21,181	960,489	563,593
-39,257	21,189	959,503	563,016
-38,242	21,183	958,574	562,432
-37,227	21,215	957,660	561,976
-36,213	21,184	956,727	561,305
-35,198	21,170	955,931	560,770
-34,184	21,259	955,347	560,694
-33,169	21,153	954,309	559,720
-32,154	21,287	953,406	559,601
-31,140	21,297	952,616	559,147
-30,125	21,302	951,829	558,679
-29,111	21,319	950,965	558,204
-28,096	21,206	950,393	557,482
-27,082	21,290	949,589	557,258
-26,067	21,286	948,893	556,817
-25,052	21,267	947,991	556,202
-24,038	21,269	947,665	555,996
-23,023	21,158	946,974	555,215
-22,009	21,299	946,096	555,127
-20,994	21,254	945,883	554,837
-19,979	21,230	944,983	554,211
-18,965	21,240	944,299	553,819
-17,950	21,232	943,806	553,481
-16,936	21,171	942,983	552,782
-15,921	21,179	942,445	552,470
-14,906	21,121	941,686	551,819
-13,892	21,124	940,961	551,384
-12,877	21,120	940,477	551,065
-11,863	21,049	939,793	550,418
-10,848	21,101	939,331	550,288
-9,833	21,233	938,628	550,275
-8,819	21,193	938,335	549,952
-7,804	21,096	937,625	549,210
-6,790	21,107	937,116	548,925
-5,775	21,172	936,345	548,656
-4,760	21,207	935,659	548,342
-3,746	21,070	935,102	547,560
-2,731	21,001	934,205	546,797
-1,717	20,927	933,658	546,221
-0,702	20,897	933,125	545,793
0,313	20,763	932,423	545,785
1,327	23,313	929,941	552,294
2,342	30,942	807,108	499,981
3,356	25,358	508,008	305,153
4,371	0,924	373,639	193,336
5,386	-2,109	356,708	180,835
6,400	-3,429	350,882	176,269
7,415	-3,928	348,272	174,344
8,429	-3,950	347,026	173,678
9,444	-3,899	345,921	173,171
10,459	-3,808	345,288	172,946
11,473	-3,856	344,616	172,539
12,488	-3,860	343,971	172,195
13,502	-4,047	343,668	171,806
14,517	-3,833	343,006	171,713
15,531	-3,761	342,708	171,634
16,546	-3,836	342,220	171,285
17,561	-3,691	341,701	171,181
18,575	-3,752	341,432	170,959
19,590	-3,949	340,968	170,480
20,604	-3,845	340,579	170,393
21,619	-3,720	340,203	170,336
22,634	-3,655	339,634	170,111
23,648	-3,612	339,382	170,021
24,663	-3,701	339,182	169,801
25,677	-3,781	338,941	169,573
26,692	-3,604	338,527	169,556
27,707	-3,743	338,385	169,308
28,721	-3,791	338,015	169,052
29,736	-3,638	337,634	169,024
30,750	-3,698	337,404	168,824
31,765	-3,676	337,084	168,674
32,780	-3,758	336,777	168,411
33,794	-3,750	336,515	168,274
34,809	-3,751	336,353	168,176
35,823	-3,587	336,021	168,186
36,838	-3,713	335,585	167,807
37,853	-3,848	335,521	167,604
38,867	-3,658	335,097	167,596
39,882	-3,805	334,902	167,315
40,896	-3,730	334,566	167,218
41,911	-3,742	334,317	167,065
42,926	-3,665	333,907	166,933
43,940	-3,637	333,791	166,893
44,955	-3,633	333,409	166,691
45,969	-3,763	333,289	166,467
46,984	-3,783	333,090	166,331
47,999	-3,589	332,913	166,448
49,013	-3,733	332,670	166,148
50,028	-3,575	332,310	166,134
51,042	-3,643	332,206	165,990
52,057	-3,716	331,790	165,684
53,071	-3,577	331,310	165,587
54,086	-3,690	331,352	165,465
55,101	-3,555	331,007	165,432
56,115	-3,769	330,780	165,060
57,130	-3,780	330,464	164,875
58,144	-3,845	330,170	164,640
59,159	-3,882	329,858	164,428
60,174	-3,798	329,615	164,387
61,188	-3,825	329,399	164,234
62,203	-3,723	329,078	164,175
63,217	-3,505	328,725	164,230
64,232	-3,750	328,653	163,903
65,247	-3,704	328,232	163,730
66,261	-3,646	328,031	163,680
67,276	-3,670	327,657	163,452
68,290	-3,764	327,609	163,308
69,305	-3,786	327,253	163,091
70,320	-3,647	327,083	163,149
71,334	-3,715	326,807	162,920
72,349	-3,597	326,336	162,803
73,363	-3,816	326,228	162,489
74,378	-3,692	325,918	162,459
75,393	-3,616	325,685	162,414
76,407	-3,740	325,409	162,123
77,422	-3,586	325,162	162,158
78,436	-3,610	325,039	162,054
79,451	-3,638	324,686	161,833
80,466	-3,712	324,592	161,690
81,480	-3,608	324,243	161,617
82,495	-3,694	323,962	161,367
83,509	-3,750	323,843	161,232
84,524	-3,725	323,510	161,078
85,539	-3,627	323,292	161,065
86,553	-3,718	323,113	160,860
87,568	-3,828	322,893	160,614
88,582	-3,703	322,533	160,559
89,597	-3,771	322,355	160,380
90,611	-3,639	322,093	160,381
91,626	-3,640	321,791	160,216
92,641	-3,574	321,576	160,167
93,655	-3,493	321,337	160,123
94,670	-3,565	321,100	159,912
95,684	-3,677	320,962	159,706
96,699	-3,878	320,731	159,356
97,714	-3,845	320,522	159,274
98,728	-3,689	320,231	159,285
99,743	-3,709	320,002	159,136
100,757	-3,570	319,656	159,102
101,772	-3,641	319,420	158,893
102,787	-3,803	319,288	158,636
103,801	-3,689	318,965	158,586
104,816	-3,735	318,621	158,351
105,830	-3,787	318,704	158,321
106,845	-3,652	318,243	158,225
107,860	-3,666	318,048	158,099
108,874	-3,703	317,942	157,991
109,889	-3,784	317,498	157,668
110,903	-3,694	317,159	157,584
111,918	-3,548	317,072	157,684
112,933	-3,645	316,854	157,458
113,947	-3,725	316,698	157,279
114,962	-3,637	316,508	157,266
115,976	-3,579	316,289	157,205
116,991	-3,705	315,982	156,903
118,006	-3,657	315,708	156,804
119,020	-3,707	315,621	156,693
120,035	-3,812	315,494	156,504
121,049	-3,598	315,301	156,624
122,064	-3,692	314,893	156,307
123,079	-3,598	314,768	156,331
124,093	-3,729	314,523	156,056
125,108	-3,608	314,129	155,976
126,122	-3,670	314,062	155,862
127,137	-3,483	313,729	155,883
128,151	-3,660	313,511	155,571
129,166	-3,708	313,419	155,461
130,181	-3,605	313,081	155,389
131,195	-3,649	312,849	155,213
132,210	-3,713	312,755	155,085
133,224	-3,806	312,381	154,786
134,239	-3,667	312,153	154,807
135,254	-3,701	311,979	154,671
136,268	-3,684	311,796	154,585
137,283	-3,542	311,407	154,529
138,297	-3,571	311,295	154,428
139,312	-3,642	311,086	154,236
140,327	-3,613	310,746	154,084
141,341	-3,526	310,562	154,071
142,356	-3,823	310,402	153,664
143,370	-3,594	310,157	153,771
144,385	-3,736	309,915	153,487
145,400	-3,544	309,627	153,533
146,414	-3,677	309,358	153,246
147,429	-3,669	309,238	153,182
148,443	-3,616	308,967	153,089
149,458	-3,570	308,868	153,075
150,473	-3,759	308,745	152,802
151,487	-3,481	308,313	152,866
152,502	-3,582	308,154	152,667
153,516	-3,544	307,986	152,611
154,531	-3,593	307,714	152,411
155,546	-3,476	307,473	152,400
156,560	-3,567	307,299	152,205
157,575	-3,568	307,061	152,073
158,589	-3,759	306,903	151,782
159,604	-3,579	306,530	151,771
160,619	-3,512	306,328	151,728
161,633	-3,508	306,199	151,655
162,648	-3,633	306,014	151,419
163,662	-3,540	305,828	151,411
164,677	-3,656	305,641	151,184
165,692	-3,563	305,389	151,142
166,706	-3,743	305,157	150,827
167,721	-3,484	304,876	150,944
168,735	-3,493	304,760	150,863
169,750	-3,578	304,803	150,783
170,764	-3,642	304,503	150,555
171,779	-3,676	304,265	150,389
172,794	-3,675	304,039	150,265
173,808	-3,509	303,828	150,318
174,823	-3,717	303,759	150,056
175,837	-3,677	303,408	149,910
176,852	-3,629	303,243	149,865
177,867	-3,780	303,175	149,663
178,881	-3,547	302,747	149,677
179,896	-3,530	302,458	149,539
180,910	-3,628	302,447	149,419
181,925	-3,724	302,210	149,190
182,940	-3,559	301,925	149,205
183,954	-3,644	301,831	149,059
184,969	-3,617	301,611	148,965
185,983	-3,430	301,475	149,076
186,998	-3,560	301,245	148,815
188,013	-3,656	301,163	148,664
189,027	-3,691	300,712	148,392
190,042	-3,602	300,681	148,454
191,056	-3,645	300,341	148,229
192,071	-3,470	300,049	148,250
193,086	-3,668	299,906	147,965
194,100	-3,655	299,649	147,838
195,115	-3,584	299,469	147,808
196,129	-3,526	299,324	147,782
197,144	-3,587	298,961	147,528
198,159	-3,752	298,835	147,286
199,173	-3,759	298,630	147,164
200,188	-3,669	298,425	147,141
201,202	-3,621	298,179	147,056
202,217	-3,649	298,098	146,974
203,232	-3,495	297,917	147,027
204,246	-3,502	297,540	146,821
205,261	-3,517	297,358	146,703
206,275	-3,730	297,163	146,379
207,290	-3,552	296,964	146,447
208,304	-3,388	296,808	146,522
209,319	-3,582	296,596	146,209
210,334	-3,628	296,359	146,033
211,348	-3,634	296,240	145,956
212,363	-3,572	295,947	145,860
213,377	-3,495	295,752	145,828
214,392	-3,547	295,524	145,651
215,407	-3,603	295,423	145,533
216,421	-3,573	295,334	145,505
217,436	-3,621	295,004	145,281
218,450	-3,691	294,974	145,185
219,465	-3,578	294,615	145,107
220,480	-3,609	294,444	144,979
221,494	-3,695	294,321	144,820
222,509	-3,503	293,938	144,809
223,523	-3,515	293,805	144,719
224,538	-3,556	293,591	144,560
225,553	-3,582	293,508	144,481
226,567	-3,609	293,334	144,355
227,582	-3,642	292,963	144,127
228,596	-3,420	292,894	144,300
229,611	-3,734	292,812	143,936
230,626	-3,527	292,469	143,960
231,640	-3,486	292,324	143,915
232,655	-3,430	292,052	143,825
233,669	-3,458	291,934	143,725
234,684	-3,504	291,768	143,586
235,699	-3,472	291,430	143,438
236,713	-3,481	291,409	143,407
237,728	-3,575	291,198	143,197
238,742	-3,714	291,003	142,952
239,757	-3,599	290,567	142,837
240,772	-3,553	290,400	142,788
241,786	-3,424	290,358	142,881
242,801	-3,626	290,235	142,610
243,815	-3,540	289,914	142,523
244,830	-3,474	289,738	142,488
245,844	-3,535	289,536	142,317
246,859	-3,573	289,449	142,225
247,874	-3,565	289,176	142,085
248,888	-3,670	289,066	141,916
249,903	-3,608	288,948	141,906
250,917	-3,532	288,634	141,813
251,932	-3,611	288,489	141,652
252,947	-3,959	288,092	141,107
253,961	-4,418	287,652	140,433
254,976	-4,600	287,420	140,131
255,990	-4,685	287,377	140,015
257,005	-3,190	287,603	141,563
258,020	-0,815	288,369	144,234
259,034	0,155	288,717	145,338
260,049	0,767	288,597	145,858
261,063	1,046	288,866	146,253
262,078	1,319	288,757	146,449
263,093	1,610	288,703	146,691
264,107	2,100	288,533	147,066
265,122	2,409	288,532	147,352
266,136	2,252	288,210	147,023
267,151	2,378	288,086	147,068
268,166	2,315	287,923	146,911
269,180	2,274	287,755	146,773
270,195	2,355	287,499	146,707
271,209	2,278	287,297	146,516
272,224	2,306	287,245	146,504
273,239	2,341	286,948	146,373
274,253	2,280	286,566	146,107
275,268	2,170	286,612	146,011
276,282	2,100	286,364	145,804
277,297	2,126	286,173	145,720
278,312	2,314	286,080	145,840
279,326	2,157	285,751	145,508
280,341	2,173	285,722	145,496
281,355	2,258	285,380	145,390
282,370	2,215	285,172	145,230
283,384	2,255	284,998	145,167
284,399	2,214	284,848	145,038
285,414	2,109	284,681	144,841
286,428	2,040	284,381	144,609
287,443	2,119	284,228	144,593
288,457	1,966	284,234	144,438
289,472	2,068	283,957	144,381
290,487	2,006	283,617	144,136
291,501	1,936	283,550	144,023
292,516	1,834	283,469	143,873
293,530	1,791	283,261	143,713
294,545	1,902	282,973	143,659
295,560	2,159	282,825	143,815
296,574	1,863	282,645	143,430
297,589	2,013	282,442	143,457
298,603	1,835	282,260	143,183
299,618	1,814	282,071	143,055
300,633	2,008	281,851	143,113
301,647	2,020	281,875	143,124
302,662	2,159	281,639	143,122
303,676	2,139	281,475	143,007
304,691	2,346	281,088	142,992
305,706	2,340	281,024	142,942
306,720	2,200	280,863	142,716
307,735	2,195	280,660	142,595
308,749	2,186	280,558	142,521
309,764	2,094	280,329	142,307
310,779	2,165	280,008	142,197
311,793	2,232	279,912	142,198
312,808	2,325	279,685	142,158
313,822	2,170	279,547	141,930
314,837	2,054	279,338	141,703
315,852	2,137	279,381	141,789
316,866	2,244	279,049	141,708
317,881	2,259	278,826	141,597
318,895	2,092	278,676	141,352
319,910	2,052	278,509	141,218
320,925	2,280	278,280	141,301
321,939	2,276	278,077	141,181
322,954	2,331	277,938	141,150
323,968	2,236	277,772	140,965
324,983	2,168	277,775	140,890
325,997	2,138	277,515	140,718
327,012	2,133	277,345	140,615
328,027	2,201	277,134	140,558
329,041	1,948	277,007	140,246
330,056	2,195	276,825	140,371
331,070	2,217	276,550	140,239
332,085	2,177	276,433	140,130
333,100	2,228	276,175	140,034
334,114	2,203	276,064	139,943
335,129	2,287	275,761	139,854
336,143	2,181	275,540	139,631
337,158	2,265	275,543	139,697
338,173	2,276	275,372	139,608
339,187	2,175	275,120	139,376
340,202	2,341	274,929	139,419
341,216	2,010	274,827	139,052
342,231	2,215	274,652	139,138
343,246	2,197	274,549	139,057
344,260	2,197	274,389	138,964
345,275	2,248	274,147	138,875
346,289	2,429	273,991	138,949
347,304	2,261	273,716	138,644
348,319	2,273	273,598	138,583
349,333	2,180	273,277	138,323
350,348	2,174	273,210	138,272
351,362	2,214	273,145	138,262
352,377	2,361	272,925	138,273
353,392	2,358	272,850	138,220
354,406	2,423	272,526	138,102
355,421	191,005	1348,448	1426,333
356,435	154,187	1479,631	1426,460
