DTS Sentinel unit serial number:	SN410029Multiplexer serial number:	ORYXHardware model number:	OX2-SRSoftware version number:	ORYX F/W v4,00 Oryx Data Collector v3.7.2.0data status	okinstallation	B4 Nyhavnadifferential loss correction	single-endedforward channel	channel 2reverse channel	N/Adate	2023/12/16time	06:15:13forward acquisition time	300,00reverse acquisition time	0,00gamma	499,1914k internal	0,3127k external	0,3127temperature offset calibration	1,0000default loss term (dB/km)	0,3820temperature slope calibration	1,0000multiplexer offset coefficient	1,0000multiplexer slope coefficient	1,0000fibre end	0,00T internal ref (°C)	22,25T ext. ref 1 (°C)	7,55T ext. ref 2 (°C)	7,73length (m)	temperature (°C)	Stokes	anti-Stokes-744,400	-200,000	-0,013	-0,188
-743,385	-125,025	-0,238	0,027
-742,371	-53,276	-0,021	-0,007
-741,356	-43,274	-0,191	0,072
-740,342	-106,137	-0,020	-0,003
-739,327	-178,090	-0,219	-0,004
-738,312	800,000	0,036	-0,098
-737,298	-93,574	-0,225	-0,046
-736,283	-200,000	-0,025	-0,096
-735,269	185,460	-0,122	0,136
-734,254	337,748	0,025	0,037
-733,239	-143,545	-0,336	-0,023
-732,225	-25,849	0,238	-0,104
-731,210	627,359	0,044	0,084
-730,196	-83,036	-0,071	-0,017
-729,181	48,069	0,112	-0,078
-728,167	-200,000	0,010	0,041
-727,152	-15,319	-0,021	0,010
-726,137	-200,000	-0,030	-0,106
-725,123	41,985	-0,048	0,032
-724,108	-59,052	-0,137	-0,044
-723,094	-200,000	-0,009	-0,120
-722,079	187,002	-0,055	-0,061
-721,064	535,022	0,028	0,049
-720,050	8,922	0,017	0,010
-719,035	-200,000	0,006	0,026
-718,021	-134,604	0,109	-0,010
-717,006	36,941	0,051	-0,033
-715,991	-130,532	-0,227	0,023
-714,977	800,000	0,045	-0,145
-713,962	286,320	0,047	-0,064
-712,948	40,613	-0,074	0,050
-711,933	800,000	-0,014	0,041
-710,918	3,631	-0,102	-0,055
-709,904	453,052	-0,072	-0,119
-708,889	-136,091	-0,082	0,007
-707,875	133,314	-0,095	-0,092
-706,860	517,652	-0,061	-0,107
-705,845	52,653	-0,062	0,044
-704,831	64,686	0,045	0,034
-703,816	-28,319	-0,105	0,045
-702,802	-28,228	-0,110	0,047
-701,787	800,000	-0,035	-0,095
-700,772	169,249	-0,069	-0,074
-699,758	68,688	0,021	-0,016
-698,743	745,004	-0,027	0,054
-697,729	-200,000	-0,006	-0,027
-696,714	172,751	-0,097	0,104
-695,699	-76,462	0,201	0,052
-694,685	800,000	0,031	-0,095
-693,670	43,632	-0,070	-0,047
-692,656	800,000	-0,099	-0,210
-691,641	10,585	0,105	-0,060
-690,627	-200,000	0,042	0,164
-689,612	-200,000	-0,012	0,118
-688,597	-122,060	-0,138	0,017
-687,583	107,130	-0,055	0,049
-686,568	103,789	0,060	-0,052
-685,554	101,973	0,061	0,053
-684,539	-170,010	-0,166	-0,004
-683,524	800,000	0,015	-0,041
-682,510	236,793	0,045	0,056
-681,495	-55,117	0,104	-0,034
-680,481	591,717	-0,088	-0,162
-679,466	429,710	0,063	0,102
-678,451	143,607	-0,139	-0,138
-677,437	54,024	-0,082	-0,058
-676,422	333,805	-0,106	-0,152
-675,408	-200,000	0,015	0,108
-674,393	-200,000	-0,009	0,049
-673,378	-4,573	-0,109	-0,056
-672,364	749,142	-0,050	-0,101
-671,349	353,759	-0,074	-0,110
-670,335	49,544	-0,106	0,074
-669,320	-82,615	-0,128	-0,031
-668,305	51,709	-0,103	0,073
-667,291	287,911	-0,025	-0,033
-666,276	257,520	-0,030	0,038
-665,262	88,180	-0,045	-0,037
-664,247	-169,218	-0,105	0,003
-663,232	800,000	0,037	0,085
-662,218	800,000	0,044	0,103
-661,203	-139,578	0,020	0,002
-660,189	-74,707	-0,098	0,026
-659,174	162,649	-0,025	-0,026
-658,159	733,374	-0,058	-0,115
-657,145	587,362	-0,085	-0,156
-656,130	-89,370	-0,079	-0,017
-655,116	-14,459	0,168	0,080
-654,101	31,734	-0,127	0,081
-653,086	152,756	-0,073	-0,074
-652,072	-105,726	-0,097	0,016
-651,057	-18,472	-0,114	-0,053
-650,043	-45,748	-0,101	0,037
-649,028	-200,000	-0,016	-0,119
-648,014	-200,000	0,003	0,019
-646,999	415,827	0,032	0,051
-645,984	98,096	-0,011	0,010
-644,970	-11,037	-0,090	-0,044
-643,955	-200,000	0,016	-0,150
-642,941	401,561	0,028	-0,044
-641,926	73,571	0,071	0,055
-640,911	800,000	0,040	0,126
-639,897	140,033	-0,080	0,078
-638,882	800,000	0,039	-0,089
-637,868	-112,195	-0,042	0,006
-636,853	-13,144	-0,037	-0,018
-635,838	800,000	0,035	-0,078
-634,824	-200,000	-0,031	-0,105
-633,809	800,000	-0,019	-0,063
-632,795	800,000	-0,007	-0,019
-631,780	800,000	0,050	-0,139
-630,765	-120,036	-0,101	-0,013
-629,751	-125,931	-0,094	0,010
-628,736	-200,000	-0,043	0,000
-627,722	125,737	-0,092	-0,086
-626,707	14,818	-0,089	-0,052
-625,692	126,087	-0,062	0,058
-624,678	544,014	-0,098	0,173
-623,663	94,112	-0,019	-0,016
-622,649	-58,209	-0,115	-0,037
-621,634	800,000	0,013	0,035
-620,619	-200,000	-0,008	-0,109
-619,605	-24,131	-0,052	-0,023
-618,590	104,595	-0,064	0,056
-617,576	-200,000	0,020	0,183
-616,561	323,195	-0,129	0,183
-615,546	334,865	0,042	0,061
-614,532	36,953	-0,040	0,026
-613,517	244,906	0,052	-0,064
-612,503	800,000	-0,035	-0,074
-611,488	615,475	-0,046	0,086
-610,474	-62,466	0,092	0,028
-609,459	-200,000	0,028	0,152
-608,444	-23,869	-0,129	-0,057
-607,430	54,885	-0,107	0,077
-606,415	-12,276	-0,101	-0,049
-605,401	221,967	0,037	-0,044
-604,386	-200,000	-0,021	-0,099
-603,371	-200,000	0,035	0,150
-602,357	800,000	0,045	0,102
-601,342	-174,252	0,077	-0,002
-600,328	800,000	-0,013	0,039
-599,313	-200,000	-0,005	0,168
-598,298	24,383	-0,046	-0,028
-597,284	-4,825	-0,099	0,051
-596,269	-200,000	-0,005	0,087
-595,255	-12,467	0,218	0,105
-594,240	-200,000	-0,011	-0,100
-593,225	-108,072	-0,101	0,016
-592,211	242,960	-0,060	-0,074
-591,196	800,000	-0,029	-0,063
-590,182	108,458	0,109	0,096
-589,167	-200,000	-0,028	-0,107
-588,152	-200,000	0,031	-0,125
-587,138	-108,793	0,035	0,006
-586,123	-92,134	-0,028	0,006
-585,109	-24,839	-0,050	-0,022
-584,094	-121,949	-0,082	-0,010
-583,079	-21,468	-0,050	0,023
-582,065	-200,000	0,010	0,041
-581,050	159,558	0,001	-0,001
-580,036	-148,104	-0,103	-0,006
-579,021	-200,000	0,028	-0,103
-578,006	375,570	-0,131	-0,198
-576,992	23,666	-0,168	0,102
-575,977	-200,000	0,017	-0,095
-574,963	309,072	0,049	0,068
-573,948	-200,000	-0,020	0,109
-572,934	-23,750	-0,123	-0,054
-571,919	-89,858	0,011	-0,002
-570,904	-200,000	-0,002	-0,074
-569,890	-146,490	-0,150	-0,010
-568,875	800,000	0,051	-0,153
-567,861	84,223	0,041	-0,033
-566,846	-200,000	-0,076	0,274
-565,831	58,289	0,044	0,032
-564,817	-200,000	0,033	-0,132
-563,802	-200,000	-0,005	0,070
-562,788	230,243	0,028	-0,034
-561,773	246,937	-0,073	-0,091
-560,758	-200,000	0,018	-0,070
-559,744	156,809	-0,049	0,050
-558,729	313,829	0,018	-0,025
-557,715	659,814	-0,040	-0,076
-556,700	800,000	-0,011	-0,028
-555,685	800,000	-0,018	-0,041
-554,671	-13,007	0,078	-0,038
-553,656	284,486	-0,038	0,051
-552,642	169,827	0,018	-0,019
-551,627	800,000	0,067	0,155
-550,612	87,341	-0,087	-0,071
-549,598	165,606	-0,047	-0,049
-548,583	-200,000	-0,010	-0,109
-547,569	31,737	0,040	0,025
-546,554	-54,962	0,208	0,069
-545,539	414,188	-0,112	0,176
-544,525	244,111	0,104	0,130
-543,510	800,000	0,013	0,028
-542,496	64,209	-0,036	0,027
-541,481	-9,939	0,085	-0,042
-540,466	-121,780	0,066	-0,008
-539,452	800,000	-0,046	-0,117
-538,437	84,733	0,038	0,031
-537,423	-200,000	-0,001	0,078
-536,408	-150,035	-0,038	0,002
-535,393	-200,000	0,010	-0,083
-534,379	800,000	-0,029	-0,091
-533,364	-32,480	0,054	0,022
-532,350	-49,519	-0,126	-0,044
-531,335	347,480	-0,014	-0,021
-530,321	278,999	0,050	-0,066
-529,306	72,321	0,125	-0,096
-528,291	-30,663	-0,039	-0,016
-527,277	68,689	-0,056	-0,042
-526,262	47,926	0,143	-0,098
-525,248	305,280	0,052	0,072
-524,233	50,468	0,121	0,085
-523,218	433,568	0,022	0,035
-522,204	381,917	0,031	-0,047
-521,189	139,677	0,071	-0,069
-520,175	105,498	-0,049	-0,043
-519,160	96,151	-0,061	-0,051
-518,145	-200,000	0,002	-0,079
-517,131	-33,802	-0,059	0,024
-516,116	58,406	-0,128	-0,093
-515,102	431,797	-0,047	-0,076
-514,087	136,800	0,068	0,065
-513,072	-45,229	-0,099	0,036
-512,058	-200,000	-0,003	-0,024
-511,043	153,293	0,168	-0,169
-510,029	40,447	-0,073	0,049
-509,014	-200,000	-0,003	0,058
-507,999	168,954	-0,016	-0,016
-506,985	-200,000	0,008	-0,030
-505,970	67,809	-0,101	-0,076
-504,956	116,406	0,034	0,030
-503,941	252,295	0,011	0,014
-502,926	329,467	0,054	0,077
-501,912	264,341	-0,024	-0,031
-500,897	141,907	-0,006	-0,006
-499,883	87,326	-0,142	-0,116
-498,868	-197,490	-0,088	0,000
-497,853	90,528	0,071	-0,058
-496,839	733,242	0,033	-0,066
-495,824	12,918	0,029	0,016
-494,810	124,785	0,025	0,023
-493,795	46,851	0,061	-0,042
-492,781	-28,076	0,090	-0,038
-491,766	-83,667	0,059	-0,014
-490,751	-200,000	-0,037	-0,152
-489,737	-10,295	-0,047	0,023
-488,722	-200,000	0,002	0,145
-487,708	126,048	0,049	-0,045
-486,693	261,435	0,037	-0,047
-485,678	570,642	-0,051	-0,091
-484,664	-168,739	-0,050	0,001
-483,649	1,361	0,016	-0,008
-482,635	-65,180	0,079	0,023
-481,620	-124,473	-0,063	-0,007
-480,605	-200,000	0,022	-0,075
-479,591	-53,866	0,076	-0,025
-478,576	22,989	-0,018	0,011
-477,562	800,000	-0,013	0,027
-476,547	237,943	-0,018	-0,022
-475,532	369,587	-0,066	0,099
-474,518	404,125	0,015	0,024
-473,503	-200,000	0,000	0,156
-472,489	-84,512	0,018	-0,004
-471,474	-137,454	0,105	-0,009
-470,459	-200,000	0,001	-0,094
-469,445	800,000	-0,052	0,112
-468,430	-50,303	-0,074	0,026
-467,416	800,000	0,024	0,068
-466,401	83,983	-0,063	-0,051
-465,386	800,000	0,027	0,085
-464,372	-200,000	-0,031	0,117
-463,357	-200,000	-0,013	0,045
-462,343	-23,032	-0,095	-0,042
-461,328	-200,000	-0,005	-0,139
-460,313	-171,368	0,043	0,001
-459,299	-139,651	0,187	0,014
-458,284	-200,000	0,030	0,144
-457,270	800,000	-0,051	-0,107
-456,255	-31,938	-0,047	-0,019
-455,241	-200,000	-0,031	0,148
-454,226	800,000	-0,012	0,030
-453,211	-196,773	0,115	0,001
-452,197	-200,000	0,000	-0,123
-451,182	-133,756	-0,061	-0,006
-450,168	800,000	0,018	0,048
-449,153	790,289	0,039	-0,080
-448,138	482,826	-0,029	0,049
-447,124	-5,034	0,025	-0,013
-446,109	302,446	0,026	-0,035
-445,095	221,343	0,037	0,044
-444,080	-151,117	0,164	0,009
-443,065	-200,000	-0,001	0,063
-442,051	19,273	-0,081	0,048
-441,036	-200,000	0,022	-0,091
-440,022	59,923	0,014	0,010
-439,007	119,667	0,034	-0,031
-437,992	214,193	-0,030	-0,035
-436,978	308,177	-0,072	0,099
-435,963	-70,743	0,180	0,050
-434,949	227,867	-0,068	-0,082
-433,934	-200,000	0,038	-0,143
-432,919	-200,000	0,022	-0,118
-431,905	406,025	0,085	0,133
-430,890	800,000	-0,092	-0,214
-429,876	-122,465	0,138	-0,016
-428,861	-200,000	0,008	0,070
-427,846	88,357	-0,136	0,111
-426,832	800,000	0,038	0,086
-425,817	667,044	-0,032	-0,061
-424,803	409,678	-0,054	-0,085
-423,788	245,540	0,068	-0,084
-422,773	-90,001	0,086	-0,018
-421,759	-174,370	-0,012	-0,000
-420,744	-200,000	0,012	-0,088
-419,730	631,619	0,077	-0,144
-418,715	-114,236	-0,135	-0,019
-417,701	51,698	-0,065	0,045
-416,686	-200,000	0,039	-0,127
-415,671	-44,899	-0,076	-0,028
-414,657	633,409	0,095	0,177
-413,642	-200,000	0,022	0,102
-412,628	800,000	-0,056	0,142
-411,613	-200,000	0,013	-0,059
-410,598	406,431	0,034	-0,054
-409,584	246,801	-0,066	0,083
-408,569	-119,791	0,142	0,018
-407,555	96,498	0,039	0,033
-406,540	223,387	-0,046	0,055
-405,525	94,078	-0,017	0,014
-404,511	-200,000	-0,003	-0,100
-403,496	-200,000	-0,004	-0,027
-402,482	-98,423	-0,138	-0,026
-401,467	-47,590	0,041	0,015
-400,452	-40,298	-0,030	0,011
-399,438	788,721	0,055	-0,112
-398,423	49,223	0,038	0,026
-397,409	646,005	0,052	0,098
-396,394	-20,308	-0,032	-0,014
-395,379	273,641	0,030	-0,039
-394,365	-200,000	0,009	-0,130
-393,350	24,679	-0,070	0,042
-392,336	800,000	0,036	-0,095
-391,321	50,865	-0,073	0,051
-390,306	-94,650	-0,061	0,012
-389,292	-200,000	-0,011	0,076
-388,277	-200,000	0,000	-0,058
-387,263	354,971	-0,047	-0,068
-386,248	14,048	0,041	-0,023
-385,233	-107,597	0,171	0,027
-384,219	-200,000	-0,020	0,066
-383,204	49,443	0,142	-0,098
-382,190	-99,748	0,125	0,023
-381,175	-200,000	0,016	0,120
-380,160	4,734	-0,063	-0,034
-379,146	142,575	0,121	0,118
-378,131	-200,000	-0,010	0,057
-377,117	-65,569	-0,046	-0,014
-376,102	747,256	-0,045	0,089
-375,088	188,467	0,083	0,092
-374,073	-200,000	-0,017	0,059
-373,058	291,387	-0,050	0,067
-372,044	-88,128	0,153	0,033
-371,029	413,516	-0,050	0,078
-370,015	800,000	0,032	0,066
-369,000	372,855	-0,081	0,121
-367,985	371,565	-0,016	-0,024
-366,971	-26,869	0,053	-0,023
-365,956	-14,461	-0,071	0,033
-364,942	800,000	0,080	0,173
-363,927	-108,237	-0,110	-0,017
-362,912	-31,520	0,023	-0,010
-361,898	-19,137	-0,040	0,018
-360,883	-77,753	0,168	-0,042
-359,869	-75,953	-0,141	-0,036
-358,854	20,965	-0,106	-0,063
-357,839	57,700	-0,048	0,035
-356,825	-62,348	0,055	-0,017
-355,810	-104,167	0,022	0,004
-354,796	166,955	0,024	0,025
-353,781	78,678	-0,072	-0,056
-352,766	80,117	-0,035	-0,027
-351,752	-200,000	0,004	-0,060
-350,737	-99,420	0,148	-0,027
-349,723	-200,000	0,009	0,128
-348,708	195,030	-0,156	0,174
-347,693	-114,400	-0,159	0,022
-346,679	425,135	0,034	-0,054
-345,664	123,101	-0,054	0,050
-344,650	176,558	-0,086	0,092
-343,635	-127,070	-0,030	-0,003
-342,620	-41,588	-0,042	0,016
-341,606	-200,000	-0,014	0,103
-340,591	-72,496	0,063	-0,017
-339,577	-81,196	0,076	0,018
-338,562	-36,262	0,063	0,025
-337,548	-200,000	-0,015	0,076
-336,533	-125,100	0,152	0,017
-335,518	4,180	0,147	0,079
-334,504	107,253	0,070	0,061
-333,489	255,554	-0,071	0,089
-332,475	90,583	-0,084	-0,069
-331,460	516,976	-0,043	0,073
-330,445	579,297	0,048	0,087
-329,431	800,000	0,037	0,119
-328,416	-200,000	0,004	0,051
-327,402	-156,302	-0,096	0,004
-326,387	582,633	-0,021	-0,039
-325,372	16,538	-0,070	0,040
-324,358	-32,149	-0,176	-0,072
-323,343	483,291	0,077	0,128
-322,329	-90,175	-0,022	-0,005
-321,314	800,000	0,047	0,134
-320,299	-41,856	-0,069	0,026
-319,285	-67,764	0,166	-0,047
-318,270	-200,000	-0,032	0,141
-317,256	-120,097	-0,123	0,015
-316,241	428,525	-0,003	0,004
-315,226	-47,541	-0,060	0,021
-314,212	206,821	0,077	-0,088
-313,197	-124,528	-0,060	-0,007
-312,183	-62,737	-0,031	-0,009
-311,168	-200,000	0,000	-0,028
-310,153	-200,000	-0,014	0,065
-309,139	467,455	-0,029	-0,047
-308,124	359,670	-0,066	0,096
-307,110	-137,697	0,148	0,012
-306,095	800,000	0,074	-0,196
-305,080	211,631	-0,062	0,071
-304,066	-200,000	-0,003	0,037
-303,051	800,000	0,013	0,032
-302,037	-63,065	-0,071	-0,021
-301,022	-200,000	0,016	-0,080
-300,008	38,816	0,076	-0,049
-298,993	409,955	-0,031	0,049
-297,978	-200,000	-0,019	-0,104
-296,964	-200,000	-0,037	-0,220
-295,949	-200,000	0,019	-0,165
-294,935	-47,974	-0,009	-0,003
-293,920	-30,906	0,094	-0,038
-292,905	800,000	-0,040	-0,105
-291,891	-160,079	0,134	-0,005
-290,876	535,984	0,034	0,059
-289,862	800,000	0,050	-0,115
-288,847	107,501	-0,109	-0,095
-287,832	149,845	-0,040	0,040
-286,818	-200,000	-0,021	-0,107
-285,803	800,000	0,034	0,072
-284,789	366,903	0,068	-0,100
-283,774	134,945	-0,076	0,072
-282,759	-106,998	0,058	0,009
-281,745	-65,106	-0,145	-0,042
-280,730	528,053	0,007	0,011
-279,716	-200,000	-0,012	0,081
-278,701	416,528	0,033	-0,052
-277,686	-42,279	0,176	0,066
-276,672	-66,448	0,177	0,051
-275,657	276,756	0,028	0,037
-274,643	-200,000	-0,003	-0,064
-273,628	56,586	0,039	0,028
-272,613	-200,000	0,036	0,134
-271,599	-63,486	0,046	0,014
-270,584	800,000	0,105	0,235
-269,570	240,838	0,035	0,042
-268,555	-200,000	-0,004	0,209
-267,540	213,261	0,033	-0,038
-266,526	117,753	0,042	-0,037
-265,511	172,330	0,100	-0,105
-264,497	-29,783	-0,087	0,036
-263,482	-73,934	-0,008	-0,002
-262,467	-89,174	-0,110	0,024
-261,453	-131,992	-0,024	0,002
-260,438	36,956	-0,087	-0,056
-259,424	-200,000	-0,004	-0,028
-258,409	-200,000	0,019	0,081
-257,395	-108,438	0,273	-0,042
-256,380	-200,000	0,022	0,081
-255,365	800,000	-0,032	0,072
-254,351	-183,086	0,145	-0,002
-253,336	-112,069	-0,079	-0,011
-252,322	-44,248	-0,091	0,033
-251,307	-200,000	-0,018	0,088
-250,292	-200,000	0,004	-0,091
-249,278	-145,643	0,033	-0,002
-248,263	-40,971	0,140	0,053
-247,249	414,612	0,062	0,097
-246,234	-94,741	0,153	0,030
-245,219	-31,286	0,083	0,034
-244,205	455,819	-0,047	-0,076
-243,190	-200,000	-0,004	-0,058
-242,176	800,000	-0,006	0,016
-241,161	800,000	-0,031	0,084
-240,146	235,590	-0,041	0,049
-239,132	-22,763	0,078	-0,034
-238,117	-200,000	0,003	-0,078
-237,103	-20,846	-0,182	-0,081
-236,088	-71,509	-0,076	-0,021
-235,073	-98,461	0,131	0,024
-234,059	297,465	0,073	0,099
-233,044	-200,000	0,019	0,144
-232,030	-154,511	-0,031	-0,002
-231,015	-200,000	0,020	-0,120
-230,000	800,000	-0,055	-0,134
-228,986	-200,000	-0,021	-0,072
-227,971	-108,505	0,090	0,014
-226,957	-200,000	0,030	0,118
-225,942	-152,670	-0,049	-0,002
-224,927	29,687	0,037	-0,023
-223,913	103,918	-0,099	0,085
-222,898	396,114	0,062	-0,094
-221,884	-13,082	0,060	-0,028
-220,869	20,149	0,082	0,048
-219,855	-26,219	-0,043	0,018
-218,840	-200,000	0,004	0,035
-217,825	130,238	-0,081	-0,076
-216,811	5,912	-0,069	0,037
-215,796	800,000	0,050	0,151
-214,782	428,744	0,053	0,084
-213,767	-200,000	0,014	-0,048
-212,752	-36,464	0,115	-0,045
-211,738	197,079	0,030	-0,033
-210,723	172,481	-0,047	0,050
-209,709	-141,673	-0,097	-0,007
-208,694	-99,100	-0,064	0,012
-207,679	164,171	-0,061	-0,062
-206,665	-152,430	0,036	-0,002
-205,650	-103,189	-0,027	0,005
-204,636	137,034	-0,044	0,042
-203,621	-78,608	-0,092	0,023
-202,606	-200,000	-0,008	-0,043
-201,592	-200,000	0,023	0,076
-200,577	139,739	-0,028	-0,027
-199,563	174,543	0,040	0,042
-198,548	-200,000	-0,048	0,168
-197,533	236,430	0,060	0,072
-196,519	800,000	0,027	0,059
-195,504	800,000	0,066	-0,186
-194,490	-134,175	-0,071	0,006
-193,475	-200,000	-0,012	0,056
-192,460	-32,989	0,074	0,030
-191,446	581,170	0,036	-0,064
-190,431	-200,000	0,001	-0,006
-189,417	306,517	0,060	-0,081
-188,402	245,106	-0,073	0,089
-187,387	-200,000	0,001	-0,024
-186,373	-200,000	-0,014	-0,152
-185,358	-150,458	0,118	0,006
-184,344	409,786	-0,027	0,042
-183,329	800,000	0,023	-0,048
-182,315	112,338	-0,089	-0,078
-181,300	-200,000	0,009	0,181
-180,285	800,000	-0,072	-0,146
-179,271	-200,000	0,012	-0,055
-178,256	118,112	-0,048	-0,043
-177,242	715,265	0,010	0,019
-176,227	232,328	0,004	-0,005
-175,212	40,730	0,042	0,027
-174,198	140,080	-0,091	-0,087
-173,183	800,000	-0,079	-0,243
-172,169	-200,000	-0,009	-0,147
-171,154	103,893	-0,088	-0,075
-170,139	68,691	-0,100	-0,075
-169,125	-137,381	0,130	-0,011
-168,110	-34,886	0,070	0,028
-167,096	-197,345	-0,122	0,001
-166,081	-11,575	0,036	-0,017
-165,066	-200,000	0,026	-0,135
-164,052	351,826	-0,090	-0,131
-163,037	-55,473	0,063	-0,020
-162,023	-200,000	-0,010	0,078
-161,008	-200,000	-0,008	0,068
-159,993	350,724	0,038	0,055
-158,979	563,885	0,040	-0,072
-157,964	-76,018	0,067	-0,017
-156,950	462,163	0,051	-0,084
-155,935	800,000	-0,026	-0,070
-154,920	-200,000	0,017	0,142
-153,906	270,018	0,056	0,071
-152,891	800,000	0,059	-0,130
-151,877	294,186	-0,018	0,024
-150,862	-146,422	-0,064	-0,004
-149,847	208,322	0,047	-0,053
-148,833	-31,754	-0,122	-0,050
-147,818	53,887	-0,015	0,010
-146,804	-200,000	-0,009	-0,098
-145,789	-200,000	-0,003	-0,068
-144,775	-59,788	-0,074	0,023
-143,760	-148,864	-0,065	0,004
-142,745	-172,684	-0,130	-0,003
-141,731	-177,139	-0,094	-0,002
-140,716	277,045	0,044	0,056
-139,702	-200,000	-0,005	-0,032
-138,687	-129,413	0,062	0,006
-137,672	483,583	-0,020	-0,033
-136,658	-27,159	-0,080	0,034
-135,643	-49,783	0,038	-0,013
-134,629	800,000	-0,030	0,063
-133,614	261,335	-0,025	0,032
-132,599	7,277	0,092	0,050
-131,585	86,998	0,029	-0,023
-130,570	496,401	-0,004	-0,007
-129,556	-47,894	-0,108	-0,038
-128,541	-86,984	-0,104	-0,023
-127,526	-76,593	0,061	0,016
-126,512	2,875	-0,033	0,017
-125,497	-183,716	0,102	-0,001
-124,483	132,695	0,104	-0,097
-123,468	154,041	0,076	-0,076
-122,453	182,004	0,032	-0,035
-121,439	272,798	-0,104	-0,133
-120,424	83,630	0,040	0,032
-119,410	-60,439	0,148	0,045
-118,395	637,529	-0,043	0,080
-117,380	2,832	0,008	0,004
-116,366	-92,609	0,045	-0,009
-115,351	-58,872	0,132	0,041
-114,337	69,772	-0,025	0,018
-113,322	-59,481	-0,107	-0,033
-112,307	-200,000	0,013	-0,170
-111,293	-69,926	0,074	0,020
-110,278	-200,000	0,009	0,057
-109,264	-109,517	0,109	0,017
-108,249	342,785	-0,070	-0,100
-107,234	800,000	-0,059	-0,164
-106,220	-53,194	-0,078	0,026
-105,205	51,830	-0,026	0,018
-104,191	710,741	0,033	0,063
-103,176	800,000	0,035	0,088
-102,162	15,891	-0,047	-0,027
-101,147	387,502	-0,038	-0,057
-100,132	-200,000	0,015	-0,068
-99,118	800,000	-0,055	-0,120
-98,103	-200,000	0,001	-0,071
-97,089	375,875	-0,053	0,078
-96,074	325,471	0,047	0,065
-95,059	240,078	0,078	-0,094
-94,045	-88,818	-0,063	0,014
-93,030	267,802	-0,087	-0,111
-92,016	156,953	-0,132	-0,132
-91,001	-17,198	0,016	0,007
-89,986	82,091	-0,163	0,128
-88,972	-78,893	0,096	0,024
-87,957	-21,942	-0,054	-0,024
-86,943	573,408	0,067	-0,120
-85,928	85,504	0,075	0,060
-84,913	-72,420	-0,105	-0,028
-83,899	-200,000	-0,015	0,060
-82,884	86,125	-0,101	0,080
-81,870	-110,867	-0,067	-0,010
-80,855	-103,473	-0,142	0,024
-79,840	474,103	-0,055	0,090
-78,826	-33,981	0,067	0,027
-77,811	87,271	-0,012	0,009
-76,797	-32,728	-0,052	-0,021
-75,782	-125,278	-0,093	-0,010
-74,767	81,714	-0,038	0,029
-73,753	193,110	-0,022	-0,024
-72,738	-26,195	0,096	-0,041
-71,724	-200,000	0,004	-0,017
-70,709	11,498	-0,163	-0,091
-69,694	-103,811	-0,114	0,019
-68,680	-160,965	0,094	0,004
-67,665	1,835	0,101	0,053
-66,651	256,334	0,091	-0,113
-65,636	-6,669	0,076	0,037
-64,622	301,636	-0,089	-0,119
-63,607	400,489	-0,091	-0,139
-62,592	-42,759	0,123	0,045
-61,578	7,352	0,068	0,037
-60,563	-200,000	0,007	0,029
-59,549	-200,000	-0,009	0,075
-58,534	-152,022	-1,432	-0,074
-57,519	762,613	-0,798	-1,577
-56,505	-200,000	-0,896	-4,440
-55,490	8,009	0,576	-0,312
-54,476	800,000	4,790	11,509
-53,461	-200,000	13,753	251,307
-52,446	-200,000	690,007	2246,043
-51,432	589,292	1620,281	2905,569
-50,417	118,923	1631,859	1461,276
-49,403	74,101	1286,313	977,253
-48,388	38,093	1022,511	657,782
-47,373	24,259	980,521	585,403
-46,359	23,425	970,198	576,489
-45,344	22,413	965,898	570,613
-44,330	22,461	964,318	569,812
-43,315	22,329	962,846	568,492
-42,300	22,309	961,707	567,730
-41,286	22,298	961,104	567,317
-40,271	22,252	959,982	566,482
-39,257	22,296	958,999	566,023
-38,242	22,270	958,003	565,330
-37,227	22,233	957,239	564,735
-36,213	22,254	956,433	564,305
-35,198	22,268	955,582	563,825
-34,184	22,296	954,858	563,466
-33,169	22,291	953,860	562,839
-32,154	22,331	953,113	562,505
-31,140	22,269	952,237	561,767
-30,125	22,257	951,458	561,245
-29,111	22,264	950,624	560,754
-28,096	22,301	949,977	560,469
-27,082	22,296	949,130	559,930
-26,067	22,264	948,481	559,423
-25,052	22,232	947,783	558,886
-24,038	22,288	947,073	558,624
-23,023	22,261	946,421	558,131
-22,009	22,352	945,676	557,960
-20,994	22,286	945,368	557,547
-19,979	22,353	944,555	557,259
-18,965	22,312	943,873	556,705
-17,950	22,261	943,329	556,198
-16,936	22,254	942,697	555,780
-15,921	22,327	941,733	555,423
-14,906	22,210	941,274	554,760
-13,892	22,166	940,503	554,143
-12,877	22,193	939,886	553,842
-11,863	22,159	939,244	553,336
-10,848	22,185	938,682	553,064
-9,833	22,222	938,427	553,011
-8,819	22,192	937,804	552,527
-7,804	22,167	937,067	551,990
-6,790	22,205	936,472	551,738
-5,775	22,264	935,828	551,524
-4,760	22,203	935,190	550,933
-3,746	22,156	934,440	550,321
-2,731	22,027	934,097	549,691
-1,717	22,001	933,221	549,073
-0,702	22,031	932,432	548,681
0,313	21,854	931,875	548,625
1,327	24,366	929,487	555,042
2,342	32,128	807,965	503,459
3,356	27,424	508,305	308,705
4,371	3,264	372,887	195,846
5,386	0,154	355,814	183,062
6,400	-1,338	349,444	177,975
7,415	-2,164	346,649	175,551
8,429	-2,459	345,133	174,417
9,444	-2,372	344,248	174,056
10,459	-2,203	343,589	173,908
11,473	-2,233	342,836	173,475
12,488	-1,949	342,438	173,593
13,502	-1,891	341,954	173,401
14,517	-2,091	341,480	172,910
15,531	-2,499	340,950	172,148
16,546	-2,397	340,428	171,989
17,561	-2,366	339,879	171,732
18,575	-2,322	339,625	171,639
19,590	-2,435	339,168	171,262
20,604	-2,265	338,847	171,282
21,619	-2,325	338,571	171,057
22,634	-2,243	338,149	170,925
23,648	-2,270	337,713	170,658
24,663	-2,319	337,481	170,468
25,677	-2,377	337,254	170,271
26,692	-2,218	336,798	170,210
27,707	-2,262	336,500	169,993
28,721	-2,246	336,176	169,833
29,736	-2,311	335,840	169,572
30,750	-2,337	335,757	169,486
31,765	-2,459	335,429	169,165
32,780	-2,421	335,123	169,039
33,794	-2,316	334,742	168,953
34,809	-2,309	334,381	168,763
35,823	-2,351	334,305	168,662
36,838	-2,473	333,954	168,329
37,853	-2,498	333,692	168,154
38,867	-2,360	333,300	168,100
39,882	-2,408	333,053	167,905
40,896	-2,586	332,827	167,572
41,911	-2,497	332,621	167,555
42,926	-2,394	332,201	167,446
43,940	-2,462	331,881	167,193
44,955	-2,451	331,623	167,060
45,969	-2,480	331,467	166,934
46,984	-2,537	331,034	166,636
47,999	-2,745	330,707	166,221
49,013	-2,906	330,467	165,903
50,028	-3,045	330,203	165,598
51,042	-3,094	329,871	165,361
52,057	-3,175	329,558	165,098
53,071	-3,081	329,495	165,158
54,086	-3,008	329,272	165,114
55,101	-2,998	328,958	164,953
56,115	-2,695	328,836	165,219
57,130	-2,325	328,598	165,501
58,144	-2,156	328,356	165,555
59,159	-2,277	328,150	165,300
60,174	-2,232	327,884	165,202
61,188	-2,256	327,666	165,050
62,203	-2,215	327,432	164,963
63,217	-2,246	327,193	164,793
64,232	-2,187	326,765	164,630
65,247	-2,147	326,757	164,656
66,261	-2,141	326,423	164,479
67,276	-2,528	326,048	163,844
68,290	-2,628	325,625	163,505
69,305	-2,710	325,573	163,373
70,320	-2,537	325,055	163,291
71,334	-2,357	325,069	163,484
72,349	-2,275	324,951	163,501
73,363	-2,256	324,616	163,339
74,378	-2,205	324,302	163,224
75,393	-2,156	324,133	163,177
76,407	-2,221	323,793	162,920
77,422	-2,386	323,594	162,623
78,436	-2,056	323,203	162,777
79,451	-2,231	323,171	162,553
80,466	-2,353	322,765	162,199
81,480	-2,520	322,496	161,865
82,495	-2,554	322,308	161,719
83,509	-2,455	321,920	161,619
84,524	-2,527	321,715	161,422
85,539	-2,451	321,391	161,329
86,553	-2,806	321,259	160,858
87,568	-2,721	321,156	160,886
88,582	-2,689	320,793	160,724
89,597	-2,599	320,586	160,705
90,611	-2,506	320,459	160,729
91,626	-2,454	320,218	160,650
92,641	-2,441	320,015	160,549
93,655	-2,411	319,761	160,440
94,670	-2,460	319,310	160,146
95,684	-2,621	319,305	159,954
96,699	-2,467	318,914	159,911
97,714	-2,557	318,659	159,671
98,728	-2,750	318,478	159,355
99,743	-2,582	318,085	159,328
100,757	-2,707	317,980	159,125
101,772	-2,616	317,628	159,034
102,787	-2,552	317,477	159,012
103,801	-2,590	317,383	158,911
104,816	-2,419	317,096	158,938
105,830	-2,279	316,963	159,009
106,845	-2,394	316,872	158,825
107,860	-2,272	316,416	158,713
108,874	-2,388	316,083	158,407
109,889	-2,497	315,949	158,209
110,903	-2,578	315,760	158,012
111,918	-2,500	315,462	157,933
112,933	-2,440	315,285	157,895
113,947	-2,451	314,945	157,699
114,962	-2,326	314,844	157,769
115,976	-2,402	314,603	157,552
116,991	-2,370	314,331	157,436
118,006	-2,589	314,261	157,152
119,020	-2,447	314,086	157,203
120,035	-2,274	313,936	157,299
121,049	-2,274	313,614	157,123
122,064	-2,362	313,470	156,943
123,079	-2,349	313,123	156,769
124,093	-2,488	312,891	156,491
125,108	-2,618	312,642	156,214
126,122	-2,710	312,316	155,939
127,137	-2,875	312,192	155,688
128,151	-2,853	312,001	155,603
129,166	-2,529	311,614	155,739
130,181	-2,617	311,290	155,470
131,195	-2,734	311,176	155,275
132,210	-2,489	310,981	155,424
133,224	-2,357	310,865	155,492
134,239	-2,364	310,715	155,395
135,254	-2,269	310,440	155,344
136,268	-2,545	310,152	154,895
137,283	-2,604	309,844	154,665
138,297	-2,801	309,635	154,340
139,312	-2,804	309,262	154,136
140,327	-2,516	309,236	154,413
141,341	-2,258	309,234	154,669
142,356	-2,309	309,388	154,679
143,370	-1,983	308,862	154,745
144,385	-1,955	308,592	154,625
145,400	-1,994	308,386	154,467
146,414	-2,154	308,265	154,225
147,429	-2,120	307,940	154,084
148,443	-2,097	307,746	153,998
149,458	-2,049	307,545	153,933
150,473	-1,941	307,368	153,944
151,487	-2,046	307,139	153,706
152,502	-2,189	307,005	153,476
153,516	-2,001	306,745	153,528
154,531	-2,071	306,480	153,309
155,546	-1,949	306,196	153,280
156,560	-2,137	306,100	153,023
157,575	-2,237	305,716	152,713
158,589	-2,218	305,587	152,655
159,604	-2,095	305,395	152,674
160,619	-2,199	305,171	152,440
161,633	-2,228	304,905	152,263
162,648	-2,107	304,746	152,296
163,662	-2,065	304,503	152,204
164,677	-2,162	304,319	151,998
165,692	-2,008	304,236	152,103
166,706	-1,999	304,122	152,041
167,721	-2,169	303,784	151,684
168,735	-2,193	303,568	151,537
169,750	-2,001	303,488	151,681
170,764	-1,936	303,320	151,650
171,779	-1,920	303,196	151,592
172,794	-1,778	302,931	151,592
173,808	-2,104	302,676	151,116
174,823	-2,509	302,190	150,445
175,837	-2,608	301,936	150,203
176,852	-2,354	302,154	150,558
177,867	-1,912	301,870	150,856
178,881	-1,951	301,869	150,803
179,896	-1,962	301,463	150,574
180,910	-1,886	301,350	150,582
181,925	-1,818	301,012	150,469
182,940	-1,858	300,790	150,305
183,954	-1,908	300,664	150,177
184,969	-2,103	300,542	149,904
185,983	-1,931	300,311	149,950
186,998	-2,080	300,124	149,692
188,013	-2,108	299,946	149,561
189,027	-1,913	299,740	149,643
190,042	-2,074	299,584	149,389
191,056	-1,894	299,328	149,431
192,071	-1,835	299,271	149,448
193,086	-1,706	299,001	149,431
194,100	-1,770	298,756	149,230
195,115	-1,960	298,445	148,870
196,129	-2,095	298,273	148,635
197,144	-1,919	298,179	148,753
198,159	-1,720	297,801	148,751
199,173	-1,938	297,661	148,448
200,188	-1,872	297,533	148,438
201,202	-2,073	297,303	148,108
202,217	-2,440	296,836	147,493
203,232	-2,620	296,765	147,264
204,246	-2,256	296,661	147,564
205,261	-1,930	296,269	147,683
206,275	-1,895	296,228	147,684
207,290	-1,960	296,047	147,516
208,304	-2,034	295,960	147,385
209,319	-1,946	295,640	147,300
210,334	-2,119	295,472	147,031
211,348	-1,906	295,207	147,099
212,363	-1,973	295,009	146,920
213,377	-1,822	294,824	146,965
214,392	-1,978	294,638	146,704
215,407	-2,171	294,416	146,388
216,421	-2,407	294,145	146,006
217,436	-2,244	293,812	145,990
218,450	-2,165	293,706	146,002
219,465	-2,147	293,705	146,007
220,480	-1,983	293,587	146,097
221,494	-2,048	293,367	145,911
222,509	-2,239	293,152	145,602
223,523	-2,094	293,074	145,694
224,538	-1,814	292,710	145,776
225,553	-1,816	292,592	145,702
226,567	-2,051	292,657	145,489
227,582	-1,874	292,309	145,478
228,596	-1,797	292,071	145,422
229,611	-1,785	291,994	145,383
230,626	-1,784	291,610	145,180
231,640	-2,257	291,331	144,563
232,655	-2,585	291,004	144,065
233,669	-2,533	290,701	143,954
234,684	-2,719	290,667	143,742
235,699	-2,572	290,507	143,794
236,713	-2,211	290,340	144,052
237,728	-2,266	290,181	143,906
238,742	-2,104	289,910	143,918
239,757	-2,169	289,842	143,807
240,772	-2,091	289,806	143,853
241,786	-2,189	289,530	143,608
242,801	-2,156	289,297	143,512
243,815	-2,256	289,082	143,295
244,830	-2,196	289,031	143,316
245,844	-2,212	288,739	143,142
246,859	-2,287	288,591	142,983
247,874	-2,423	288,361	142,724
248,888	-2,178	288,165	142,852
249,903	-2,162	288,076	142,811
250,917	-1,925	287,750	142,867
251,932	-1,822	287,854	143,005
252,947	-1,233	287,840	143,557
253,961	-1,631	287,303	142,891
254,976	-0,718	287,859	144,039
255,990	1,982	288,598	147,016
257,005	2,591	288,863	147,728
258,020	3,877	289,323	149,199
259,034	4,079	289,059	149,246
260,049	3,935	288,741	148,929
261,063	3,473	288,572	148,381
262,078	3,964	288,511	148,811
263,093	4,695	288,443	149,470
264,107	4,631	288,136	149,235
265,122	4,584	288,189	149,205
266,136	4,746	288,022	149,261
267,151	4,697	287,867	149,120
268,166	4,426	287,537	148,675
269,180	4,462	287,217	148,531
270,195	4,509	287,138	148,522
271,209	4,517	287,001	148,446
272,224	4,361	286,936	148,249
273,239	4,314	286,475	147,953
274,253	4,385	286,330	147,932
275,268	4,701	286,258	148,185
276,282	4,849	286,041	148,201
277,297	4,437	285,923	147,732
278,312	4,745	285,860	147,981
279,326	4,687	285,551	147,752
280,341	4,535	285,483	147,559
281,355	4,394	285,065	147,195
282,370	4,281	284,914	146,996
283,384	4,550	284,698	147,128
284,399	4,505	284,509	146,975
285,414	4,507	284,366	146,889
286,428	4,445	284,286	146,776
287,443	4,156	283,866	146,272
288,457	3,988	283,595	145,960
289,472	4,311	283,457	146,182
290,487	4,103	283,341	145,912
291,501	3,939	283,071	145,605
292,516	3,869	282,864	145,418
293,530	3,843	282,768	145,333
294,545	4,127	282,695	145,550
295,560	4,319	282,503	145,619
296,574	3,929	282,339	145,154
297,589	4,188	282,136	145,280
298,603	4,574	282,061	145,593
299,618	4,619	281,915	145,547
300,633	4,413	281,568	145,161
301,647	4,212	281,453	144,900
302,662	4,543	281,172	145,053
303,676	4,229	281,000	144,657
304,691	3,794	280,636	144,049
305,706	3,873	280,445	144,012
306,720	3,874	280,415	143,985
307,735	3,940	280,169	143,907
308,749	4,078	279,989	143,931
309,764	4,329	279,808	144,060
310,779	3,766	279,689	143,460
311,793	3,688	279,485	143,269
312,808	3,701	279,318	143,183
313,822	3,839	278,908	143,089
314,837	3,737	278,896	142,975
315,852	3,848	278,643	142,936
316,866	3,915	278,514	142,919
317,881	3,998	278,302	142,874
318,895	3,957	278,143	142,742
319,910	3,715	277,912	142,387
320,925	3,600	277,647	142,131
321,939	3,732	277,774	142,306
322,954	3,976	277,533	142,396
323,968	4,116	277,332	142,410
324,983	3,978	277,344	142,275
325,997	4,184	277,082	142,319
327,012	4,095	276,838	142,099
328,027	4,121	276,713	142,045
329,041	3,971	276,651	141,862
330,056	3,837	276,442	141,620
331,070	4,022	276,217	141,662
332,085	4,032	275,954	141,523
333,100	4,172	275,775	141,548
334,114	3,917	275,670	141,247
335,129	3,811	275,401	141,000
336,143	4,092	275,341	141,214
337,158	4,136	275,325	141,233
338,173	4,175	275,001	141,091
339,187	4,016	274,771	140,814
340,202	4,045	274,588	140,735
341,216	4,130	274,469	140,738
342,231	4,222	274,305	140,726
343,246	4,085	274,024	140,444
344,260	3,907	274,016	140,266
345,275	4,222	273,816	140,437
346,289	4,623	273,622	140,690
347,304	4,494	273,432	140,463
348,319	4,156	273,203	140,026
349,333	4,171	272,981	139,913
350,348	4,366	272,926	140,049
351,362	4,521	272,736	140,080
352,377	4,297	272,556	139,772
353,392	4,275	272,529	139,726
354,406	4,364	272,476	139,767
355,421	191,303	1331,791	1408,974
356,435	154,542	1460,943	1409,097
