DTS Sentinel unit serial number:	SN410029Multiplexer serial number:	ORYXHardware model number:	OX2-SRSoftware version number:	ORYX F/W v4,00 Oryx Data Collector v3.7.2.0data status	okinstallation	B4 Nyhavnadifferential loss correction	single-endedforward channel	channel 2reverse channel	N/Adate	2023/12/15time	15:50:13forward acquisition time	300,00reverse acquisition time	0,00gamma	499,1914k internal	0,3150k external	0,3150temperature offset calibration	1,0000default loss term (dB/km)	0,3820temperature slope calibration	1,0000multiplexer offset coefficient	1,0000multiplexer slope coefficient	1,0000fibre end	0,00T internal ref (°C)	16,80T ext. ref 1 (°C)	3,05T ext. ref 2 (°C)	3,16length (m)	temperature (°C)	Stokes	anti-Stokes-744,400	-200,000	0,000	-0,051
-743,385	-76,511	-0,198	0,051
-742,371	-200,000	-0,008	0,050
-741,356	63,136	-0,099	0,073
-740,342	-52,404	0,046	-0,016
-739,327	-18,968	-0,196	0,090
-738,312	800,000	0,035	0,079
-737,298	-152,474	-0,206	-0,011
-736,283	235,518	0,037	-0,045
-735,269	50,026	-0,207	-0,144
-734,254	-108,203	-0,033	0,005
-733,239	-167,155	-0,604	0,018
-732,225	-200,000	0,002	0,062
-731,210	-200,000	0,013	0,070
-730,196	-45,201	0,077	0,028
-729,181	34,069	-0,096	-0,062
-728,167	176,357	-0,093	-0,100
-727,152	34,887	-0,110	-0,071
-726,137	591,125	-0,039	0,071
-725,123	-119,071	-0,049	-0,006
-724,108	-200,000	-0,013	-0,098
-723,094	-50,556	-0,033	-0,011
-722,079	-118,421	-0,058	-0,008
-721,064	-127,544	0,019	-0,002
-720,050	295,279	0,022	-0,030
-719,035	50,725	-0,106	0,074
-718,021	-200,000	-0,020	-0,080
-717,006	-167,061	0,009	0,000
-715,991	266,534	-0,051	-0,066
-714,977	12,127	-0,115	0,065
-713,962	-94,415	0,135	-0,027
-712,948	327,675	0,016	0,023
-711,933	-73,468	-0,094	0,025
-710,918	800,000	-0,048	-0,110
-709,904	290,079	-0,040	-0,054
-708,889	-136,605	-0,044	-0,004
-707,875	-121,109	-0,008	-0,001
-706,860	-200,000	0,024	-0,097
-705,845	736,105	-0,046	-0,091
-704,831	-200,000	0,011	0,037
-703,816	502,727	-0,082	0,141
-702,802	-200,000	-0,018	0,081
-701,787	-6,598	0,102	-0,051
-700,772	-200,000	0,001	0,039
-699,758	-200,000	0,004	0,071
-698,743	260,197	-0,048	-0,061
-697,729	-102,537	0,146	0,025
-696,714	-172,974	-0,109	-0,002
-695,699	-127,666	-0,056	0,006
-694,685	800,000	-0,021	0,057
-693,670	64,684	0,097	0,072
-692,656	314,883	-0,014	0,020
-691,641	800,000	-0,027	0,087
-690,627	79,858	-0,077	0,061
-689,612	-92,228	0,043	-0,009
-688,597	-200,000	-0,010	-0,051
-687,583	308,875	-0,057	-0,078
-686,568	132,079	-0,046	-0,044
-685,554	81,475	0,143	0,114
-684,539	182,792	0,110	0,120
-683,524	-200,000	-0,017	0,165
-682,510	-200,000	0,005	0,115
-681,495	438,995	0,059	0,094
-680,481	152,864	0,033	-0,034
-679,466	301,186	-0,098	-0,134
-678,451	-192,111	-0,120	-0,001
-677,437	126,721	-0,020	0,019
-676,422	-200,000	-0,004	0,114
-675,408	351,821	-0,042	0,062
-674,393	12,109	0,056	0,032
-673,378	590,166	-0,017	-0,031
-672,364	-200,000	-0,031	-0,117
-671,349	-40,894	-0,121	-0,046
-670,335	-193,867	-0,083	-0,000
-669,320	-48,726	-0,074	-0,026
-668,305	39,744	0,074	0,049
-667,291	311,379	-0,037	-0,051
-666,276	800,000	-0,023	-0,070
-665,262	-200,000	0,008	-0,028
-664,247	-7,289	-0,118	0,059
-663,232	-200,000	0,000	-0,010
-662,218	-78,646	0,074	0,018
-661,203	-39,949	-0,021	0,008
-660,189	-200,000	0,004	0,115
-659,174	57,820	0,064	-0,046
-658,159	800,000	0,015	0,041
-657,145	-10,978	-0,105	-0,051
-656,130	-80,128	-0,082	0,020
-655,116	-39,847	0,039	0,015
-654,101	-200,000	-0,036	0,144
-653,086	-71,811	-0,154	0,042
-652,072	507,621	0,012	0,021
-651,057	-200,000	0,021	-0,075
-650,043	-10,511	0,024	0,012
-649,028	-200,000	-0,002	-0,060
-648,014	800,000	-0,036	0,084
-646,999	-25,547	0,085	0,037
-645,984	7,408	-0,107	-0,059
-644,970	-200,000	-0,012	0,063
-643,955	-134,441	-0,165	-0,015
-642,941	97,929	-0,062	-0,053
-641,926	407,255	0,042	-0,066
-640,911	-54,843	-0,094	-0,031
-639,897	203,057	0,050	-0,057
-638,882	219,371	0,076	-0,090
-637,868	237,501	-0,053	-0,065
-636,853	108,654	0,058	-0,051
-635,838	-200,000	-0,018	-0,189
-634,824	-200,000	0,008	-0,084
-633,809	-200,000	0,024	-0,118
-632,795	-160,361	0,114	0,004
-631,780	-147,122	-0,020	0,001
-630,765	-156,788	-0,085	0,004
-629,751	-143,049	-0,087	0,006
-628,736	31,048	-0,137	-0,086
-627,722	5,825	-0,025	0,014
-626,707	-113,685	-0,150	-0,021
-625,692	-145,662	0,096	-0,006
-624,678	-200,000	-0,039	0,206
-623,663	800,000	-0,014	0,037
-622,649	-40,216	-0,110	-0,042
-621,634	-119,768	0,043	0,005
-620,619	22,489	-0,080	-0,048
-619,605	264,666	-0,020	0,025
-618,590	540,597	0,031	0,054
-617,576	-26,485	0,142	-0,061
-616,561	-200,000	0,001	0,083
-615,546	-200,000	0,006	-0,036
-614,532	-200,000	-0,014	0,097
-613,517	330,057	0,015	0,021
-612,503	98,185	-0,028	-0,023
-611,488	307,133	0,111	0,152
-610,474	-200,000	0,001	0,004
-609,459	339,552	-0,035	-0,051
-608,444	-41,444	-0,024	0,009
-607,430	-200,000	0,001	0,008
-606,415	-3,397	0,022	0,011
-605,401	279,192	-0,073	0,096
-604,386	132,899	0,061	-0,058
-603,371	-200,000	-0,021	-0,212
-602,357	478,381	-0,044	0,073
-601,342	800,000	-0,041	-0,114
-600,328	44,457	-0,092	-0,062
-599,313	771,996	0,031	-0,063
-598,298	-200,000	0,015	0,094
-597,284	536,994	0,045	-0,080
-596,269	-57,668	0,054	0,017
-595,255	702,697	0,022	-0,043
-594,240	724,790	-0,094	-0,185
-593,225	-109,882	-0,056	0,008
-592,211	45,020	-0,123	-0,083
-591,196	-200,000	0,018	0,062
-590,182	106,803	-0,042	0,036
-589,167	-165,442	0,064	-0,002
-588,152	123,674	-0,096	0,088
-587,138	99,037	0,077	-0,065
-586,123	-200,000	0,002	0,055
-585,109	3,401	-0,069	0,037
-584,094	160,949	-0,103	-0,106
-583,079	-8,845	-0,130	-0,064
-582,065	-200,000	-0,050	-0,174
-581,050	67,308	-0,110	0,082
-580,036	800,000	-0,052	-0,117
-579,021	-200,000	-0,009	-0,056
-578,006	-142,670	-0,106	-0,007
-576,992	224,551	0,024	0,028
-575,977	138,058	0,020	0,019
-574,963	800,000	-0,027	0,082
-573,948	-96,422	0,052	-0,010
-572,934	-200,000	0,007	0,167
-571,919	190,942	-0,091	0,100
-570,904	-200,000	-0,022	-0,087
-569,890	-200,000	0,016	0,114
-568,875	800,000	-0,010	-0,022
-567,861	-16,218	-0,045	0,021
-566,846	315,483	0,062	-0,086
-565,831	-167,197	0,063	0,002
-564,817	-200,000	0,017	-0,104
-563,802	-200,000	0,037	-0,167
-562,788	115,050	-0,088	0,078
-561,773	-200,000	0,016	0,102
-560,758	-66,934	0,069	0,020
-559,744	800,000	0,019	0,051
-558,729	772,350	0,005	0,010
-557,715	-200,000	-0,023	0,137
-556,700	-83,280	-0,115	-0,027
-555,685	800,000	0,029	-0,062
-554,671	119,709	0,035	-0,032
-553,656	-37,133	0,121	-0,047
-552,642	-89,138	-0,104	-0,022
-551,627	64,404	-0,016	0,012
-550,612	188,874	0,064	-0,070
-549,598	-93,668	-0,166	-0,033
-548,583	444,381	0,044	0,072
-547,569	199,501	0,073	-0,082
-546,554	240,570	-0,100	-0,122
-545,539	445,067	0,086	0,139
-544,525	-200,000	-0,017	0,073
-543,510	-25,940	0,052	0,022
-542,496	-47,296	-0,127	-0,045
-541,481	800,000	0,021	-0,049
-540,466	-21,359	0,073	0,033
-539,452	79,900	0,014	0,011
-538,437	-137,119	0,028	-0,002
-537,423	145,733	0,082	0,081
-536,408	483,755	0,075	-0,125
-535,393	-68,278	-0,059	-0,017
-534,379	-86,435	-0,131	-0,029
-533,364	522,851	0,046	-0,079
-532,350	-151,718	-0,048	-0,003
-531,335	-55,819	0,087	0,028
-530,321	254,544	0,060	0,075
-529,306	261,624	-0,060	-0,077
-528,291	61,951	-0,019	-0,014
-527,277	-173,846	-0,072	-0,002
-526,262	-168,736	0,118	-0,003
-525,248	227,619	0,050	0,060
-524,233	45,011	0,085	-0,057
-523,218	38,760	0,105	-0,069
-522,204	238,458	-0,046	0,057
-521,189	-77,276	0,027	0,007
-520,175	79,415	-0,041	0,032
-519,160	25,161	-0,072	0,043
-518,145	-200,000	0,055	-0,192
-517,131	198,252	-0,051	0,057
-516,116	-171,864	0,094	0,002
-515,102	-63,867	-0,073	-0,022
-514,087	58,811	0,098	-0,070
-513,072	800,000	-0,013	-0,029
-512,058	631,196	-0,041	0,077
-511,043	800,000	0,024	-0,052
-510,029	367,266	0,007	0,010
-509,014	-110,459	-0,042	-0,006
-507,999	-40,500	0,054	-0,020
-506,985	-200,000	-0,019	-0,095
-505,970	-67,106	0,114	-0,033
-504,956	20,902	0,089	-0,053
-503,941	-93,924	0,179	0,036
-502,926	90,232	0,068	0,055
-501,912	-159,658	0,039	0,002
-500,897	-33,385	0,037	0,015
-499,883	-39,260	-0,059	-0,023
-498,868	800,000	0,033	-0,079
-497,853	370,640	-0,079	-0,118
-496,839	-129,847	0,133	0,013
-495,824	303,762	0,019	0,026
-494,810	-82,802	0,108	0,025
-493,795	11,038	-0,109	0,061
-492,781	-200,000	0,018	0,151
-491,766	103,635	-0,075	-0,064
-490,751	800,000	0,017	0,037
-489,737	-28,492	-0,042	0,018
-488,722	-200,000	0,006	0,021
-487,708	-20,567	-0,141	0,063
-486,693	3,316	0,098	0,052
-485,678	-29,843	-0,168	0,070
-484,664	-200,000	0,011	-0,043
-483,649	-86,498	-0,132	0,029
-482,635	-61,748	-0,083	0,025
-481,620	-200,000	-0,004	0,140
-480,605	-76,594	0,106	0,027
-479,591	152,896	0,061	0,061
-478,576	495,064	-0,057	0,097
-477,562	800,000	-0,046	-0,115
-476,547	-99,546	-0,146	-0,027
-475,532	225,776	-0,043	-0,051
-474,518	-200,000	-0,001	-0,014
-473,503	350,659	0,062	0,091
-472,489	82,892	0,049	0,039
-471,474	119,283	0,064	0,058
-470,459	400,941	-0,033	-0,051
-469,445	208,496	0,108	-0,123
-468,430	-102,806	-0,020	0,003
-467,416	-200,000	0,048	0,210
-466,401	-99,582	-0,055	0,010
-465,386	-26,932	0,066	0,028
-464,372	-200,000	-0,002	0,090
-463,357	413,519	-0,041	-0,065
-462,343	800,000	0,017	-0,049
-461,328	-200,000	0,015	-0,081
-460,313	-200,000	-0,004	-0,014
-459,299	-200,000	-0,003	0,126
-458,284	31,619	-0,037	-0,023
-457,270	-78,370	-0,099	-0,025
-456,255	800,000	-0,016	0,038
-455,241	-200,000	0,019	-0,095
-454,226	-200,000	0,000	-0,064
-453,211	-118,303	0,115	0,015
-452,197	-89,311	-0,118	-0,025
-451,182	-6,000	0,137	0,068
-450,168	188,853	0,087	0,095
-449,153	272,550	-0,070	-0,090
-448,138	-35,512	0,148	0,059
-447,124	377,813	-0,041	0,062
-446,109	426,723	0,061	0,096
-445,095	-0,297	0,051	0,027
-444,080	-22,027	-0,077	0,034
-443,065	-200,000	0,028	0,150
-442,051	-200,000	0,001	-0,103
-441,036	523,041	-0,052	-0,090
-440,022	414,175	0,051	-0,080
-439,007	149,418	-0,069	0,068
-437,992	10,579	0,036	0,020
-436,978	-200,000	-0,022	0,108
-435,963	93,429	0,078	0,064
-434,949	230,748	-0,018	0,021
-433,934	-61,541	-0,120	0,037
-432,919	-200,000	-0,035	-0,149
-431,905	113,648	-0,161	-0,142
-430,890	-88,183	-0,051	0,011
-429,876	-122,374	-0,047	-0,006
-428,861	204,796	0,079	0,090
-427,846	107,039	0,039	0,034
-426,832	-200,000	-0,007	0,122
-425,817	-173,415	-0,015	0,000
-424,803	-188,590	0,078	0,001
-423,788	-200,000	0,007	-0,054
-422,773	-200,000	0,009	0,186
-421,759	269,814	-0,020	-0,026
-420,744	800,000	-0,036	-0,076
-419,730	-93,808	-0,045	0,009
-418,715	-200,000	-0,000	-0,013
-417,701	800,000	0,018	0,049
-416,686	-200,000	0,008	0,088
-415,671	-20,252	0,130	-0,058
-414,657	-200,000	-0,011	-0,062
-413,642	-200,000	0,012	0,173
-412,628	271,610	0,050	0,065
-411,613	310,828	0,046	-0,063
-410,598	292,080	-0,048	0,063
-409,584	-200,000	0,003	-0,032
-408,569	-120,715	0,085	0,010
-407,555	760,938	-0,023	0,045
-406,540	-200,000	-0,010	0,060
-405,525	-200,000	0,011	0,074
-404,511	470,535	-0,007	0,011
-403,496	-114,511	0,060	-0,008
-402,482	-200,000	-0,012	-0,061
-401,467	331,849	-0,061	0,086
-400,452	-200,000	-0,001	0,061
-399,438	-183,424	0,237	-0,003
-398,423	80,343	-0,118	0,092
-397,409	42,083	0,044	-0,029
-396,394	312,548	-0,090	-0,124
-395,379	-78,462	0,093	-0,023
-394,365	-80,888	0,044	-0,011
-393,350	166,008	0,067	-0,069
-392,336	-2,874	0,051	-0,026
-391,321	-169,287	0,078	-0,002
-390,306	-200,000	-0,006	-0,061
-389,292	142,176	-0,068	0,065
-388,277	386,228	0,025	-0,037
-387,263	-200,000	0,004	0,033
-386,248	130,248	-0,060	0,056
-385,233	-102,179	0,212	-0,037
-384,219	40,936	0,094	-0,061
-383,204	-200,000	-0,010	-0,052
-382,190	800,000	-0,031	-0,065
-381,175	195,669	-0,058	0,064
-380,160	-38,049	-0,055	0,021
-379,146	623,481	0,025	0,047
-378,131	666,333	0,124	0,235
-377,117	-200,000	0,014	0,083
-376,102	-85,633	-0,137	-0,031
-375,088	-11,116	-0,037	0,017
-374,073	5,332	-0,111	-0,059
-373,058	-200,000	0,016	-0,114
-372,044	123,945	0,091	-0,083
-371,029	-200,000	-0,014	0,054
-370,015	-95,005	-0,107	-0,021
-369,000	16,285	0,068	-0,039
-367,985	-200,000	0,004	0,031
-366,971	-200,000	-0,015	-0,060
-365,956	800,000	0,016	-0,035
-364,942	-48,057	0,095	0,033
-363,927	107,254	0,084	0,073
-362,912	329,893	0,049	0,069
-361,898	-200,000	0,010	-0,096
-360,883	28,962	0,059	0,036
-359,869	786,270	0,023	0,046
-358,854	800,000	0,004	0,011
-357,839	232,195	0,027	-0,033
-356,825	-200,000	-0,001	-0,024
-355,810	136,455	0,081	0,077
-354,796	-200,000	-0,003	-0,073
-353,781	129,595	0,058	-0,054
-352,766	568,823	-0,069	0,123
-351,752	64,000	-0,052	-0,038
-350,737	3,509	-0,046	0,024
-349,723	800,000	-0,016	-0,039
-348,708	-147,412	0,009	-0,001
-347,693	162,374	-0,089	-0,091
-346,679	-200,000	-0,022	-0,091
-345,664	-200,000	-0,013	-0,055
-344,650	-134,502	0,058	0,005
-343,635	-104,851	0,064	-0,011
-342,620	-113,928	-0,131	-0,018
-341,606	126,210	0,033	-0,030
-340,591	-14,799	-0,044	-0,020
-339,577	114,837	-0,106	-0,094
-338,562	-61,066	0,099	-0,030
-337,548	800,000	-0,065	0,138
-336,533	-200,000	0,027	0,091
-335,518	37,803	-0,063	0,041
-334,504	-100,602	-0,064	0,011
-333,489	-184,019	-0,085	0,001
-332,475	-200,000	-0,015	-0,054
-331,460	2,796	-0,096	-0,050
-330,445	800,000	-0,035	-0,072
-329,431	-200,000	-0,002	-0,019
-328,416	-43,083	-0,070	-0,026
-327,402	-31,924	0,024	0,010
-326,387	270,749	0,094	-0,121
-325,372	280,078	-0,075	0,098
-324,358	-200,000	-0,008	-0,099
-323,343	95,960	0,020	0,017
-322,329	457,479	-0,038	0,061
-321,314	-200,000	0,000	0,010
-320,299	158,016	0,055	-0,056
-319,285	-200,000	0,002	0,075
-318,270	6,215	0,109	-0,058
-317,256	-200,000	-0,008	0,094
-316,241	-200,000	0,003	0,113
-315,226	74,029	0,056	0,042
-314,212	-200,000	0,002	0,080
-313,197	-200,000	-0,010	0,107
-312,183	376,004	-0,067	0,100
-311,168	34,683	0,053	-0,034
-310,153	-77,786	-0,160	0,040
-309,139	191,366	0,030	0,033
-308,124	157,617	0,084	-0,084
-307,110	132,915	-0,047	0,044
-306,095	-80,164	0,093	-0,022
-305,080	184,104	0,017	0,019
-304,066	-200,000	0,009	-0,264
-303,051	-35,376	-0,145	-0,057
-302,037	-65,759	-0,133	0,039
-301,022	-197,058	0,110	-0,000
-300,008	420,002	0,039	0,060
-298,993	43,488	-0,059	-0,039
-297,978	-200,000	-0,055	-0,197
-296,964	669,725	0,043	0,082
-295,949	-200,000	0,006	0,039
-294,935	457,311	-0,030	-0,049
-293,920	-125,574	-0,038	0,004
-292,905	-200,000	-0,014	0,071
-291,891	-137,335	0,114	0,009
-290,876	-200,000	0,002	0,078
-289,862	-71,566	-0,093	-0,025
-288,847	-200,000	0,000	-0,178
-287,832	-112,604	-0,014	0,002
-286,818	800,000	0,050	0,125
-285,803	139,209	-0,095	0,091
-284,789	-143,192	0,078	-0,005
-283,774	-88,047	-0,053	-0,011
-282,759	78,319	0,085	0,065
-281,745	-128,570	0,048	0,005
-280,730	67,477	-0,123	-0,091
-279,716	315,404	0,062	0,085
-278,701	-113,205	0,198	0,028
-277,686	-21,605	0,146	0,064
-276,672	-100,035	0,082	0,015
-275,657	-76,379	0,101	0,025
-274,643	303,137	0,070	0,094
-273,628	-78,702	0,049	-0,012
-272,613	-200,000	0,005	0,040
-271,599	-200,000	0,010	0,075
-270,584	-200,000	-0,007	-0,075
-269,570	-168,392	0,091	0,002
-268,555	52,320	-0,060	-0,042
-267,540	-193,438	-0,069	0,000
-266,526	-57,399	0,052	-0,017
-265,511	118,725	-0,040	-0,036
-264,497	234,860	0,071	-0,085
-263,482	72,307	-0,016	0,012
-262,467	110,381	0,116	0,101
-261,453	-200,000	-0,002	0,069
-260,438	6,565	-0,116	0,062
-259,424	800,000	0,032	-0,069
-258,409	-85,370	-0,178	0,040
-257,395	23,185	0,043	-0,025
-256,380	161,061	0,049	0,050
-255,365	-64,406	0,171	-0,050
-254,351	-200,000	0,004	0,042
-253,336	316,143	-0,046	-0,064
-252,322	-22,375	-0,099	-0,043
-251,307	-142,562	-0,110	-0,008
-250,292	388,045	-0,109	-0,164
-249,278	89,856	-0,043	-0,035
-248,263	-14,651	0,076	-0,035
-247,249	-45,125	-0,016	-0,006
-246,234	313,860	-0,047	0,064
-245,219	-200,000	0,008	-0,054
-244,205	-200,000	-0,014	0,090
-243,190	-200,000	-0,022	0,135
-242,176	-37,089	-0,108	0,042
-241,161	-200,000	0,000	0,212
-240,146	800,000	-0,040	0,092
-239,132	-200,000	-0,016	0,071
-238,117	280,867	0,053	0,069
-237,103	-200,000	-0,039	0,128
-236,088	800,000	-0,023	0,051
-235,073	-200,000	-0,015	-0,086
-234,059	-200,000	0,031	0,162
-233,044	343,386	-0,031	-0,044
-232,030	800,000	0,031	0,081
-231,015	-200,000	-0,005	0,021
-230,000	800,000	0,016	0,045
-228,986	785,311	0,014	0,027
-227,971	370,833	-0,073	0,108
-226,957	-83,920	0,108	0,025
-225,942	41,166	0,100	-0,065
-224,927	107,704	-0,091	-0,079
-223,913	270,935	0,031	-0,040
-222,898	-200,000	-0,010	-0,169
-221,884	-200,000	0,022	-0,074
-220,869	800,000	-0,028	0,081
-219,855	230,912	0,061	0,072
-218,840	800,000	-0,036	-0,074
-217,825	-200,000	-0,010	-0,083
-216,811	-79,347	0,100	0,024
-215,796	-200,000	0,014	-0,069
-214,782	759,026	-0,009	-0,018
-213,767	-200,000	0,020	-0,085
-212,752	342,158	-0,062	-0,088
-211,738	153,024	-0,007	0,007
-210,723	96,097	0,119	-0,098
-209,709	642,009	-0,019	-0,036
-208,694	-124,621	-0,092	-0,010
-207,679	21,723	0,206	-0,121
-206,665	-200,000	-0,022	0,130
-205,650	-200,000	-0,016	0,091
-204,636	-160,480	-0,043	-0,002
-203,621	-200,000	0,011	-0,042
-202,606	-200,000	-0,022	-0,079
-201,592	-45,320	-0,089	-0,032
-200,577	23,700	-0,103	-0,061
-199,563	-133,615	0,205	-0,018
-198,548	61,479	0,059	-0,043
-197,533	-88,936	-0,062	0,013
-196,519	-34,600	0,084	-0,033
-195,504	-128,390	-0,042	-0,004
-194,490	-200,000	0,014	-0,147
-193,475	220,474	-0,113	-0,131
-192,460	-200,000	0,008	0,095
-191,446	93,472	0,029	0,024
-190,431	232,490	-0,045	-0,054
-189,417	-200,000	-0,019	-0,146
-188,402	281,055	-0,132	-0,171
-187,387	-148,369	0,126	0,007
-186,373	185,544	-0,026	-0,027
-185,358	800,000	-0,040	0,091
-184,344	4,460	-0,047	-0,025
-183,329	-134,520	0,074	-0,006
-182,315	-45,666	-0,046	0,016
-181,300	-53,348	0,137	0,045
-180,285	800,000	0,013	-0,029
-179,271	-200,000	-0,019	-0,075
-178,256	-200,000	-0,020	0,096
-177,242	-133,136	-0,037	-0,003
-176,227	1,315	-0,026	0,013
-175,212	-63,636	-0,016	-0,005
-174,198	116,785	0,067	0,059
-173,183	475,652	0,102	-0,168
-172,169	440,592	0,070	-0,111
-171,154	-145,342	0,058	-0,004
-170,139	-37,289	-0,114	-0,044
-169,125	192,518	-0,048	0,053
-168,110	-200,000	0,003	0,119
-167,096	193,827	-0,085	0,093
-166,081	800,000	-0,014	0,033
-165,066	-113,141	0,069	-0,010
-164,052	27,719	0,083	-0,050
-163,037	183,365	0,032	-0,035
-162,023	227,268	0,075	0,088
-161,008	800,000	0,029	0,083
-159,993	17,026	-0,022	0,012
-158,979	157,523	-0,080	-0,080
-157,964	800,000	-0,037	0,081
-156,950	119,216	-0,104	0,093
-155,935	800,000	-0,087	0,176
-154,920	-112,109	0,116	-0,017
-153,906	268,929	0,049	0,063
-152,891	800,000	0,057	-0,117
-151,877	-48,383	-0,091	-0,031
-150,862	-164,993	-0,135	0,004
-149,847	800,000	0,049	0,151
-148,833	40,573	-0,092	-0,060
-147,818	337,173	-0,041	-0,058
-146,804	-80,969	0,072	-0,017
-145,789	325,220	-0,055	-0,077
-144,775	397,154	-0,044	-0,066
-143,760	-148,238	-0,083	-0,005
-142,745	-200,000	-0,018	0,098
-141,731	645,299	-0,037	0,069
-140,716	124,835	0,124	-0,113
-139,702	-200,000	0,006	0,064
-138,687	512,170	0,045	0,076
-137,672	169,806	-0,078	0,081
-136,658	-75,644	-0,045	0,011
-135,643	800,000	-0,034	-0,068
-134,629	-48,139	0,087	-0,030
-133,614	21,879	0,104	-0,061
-132,599	800,000	-0,018	0,050
-131,585	66,203	0,039	0,029
-130,570	800,000	-0,011	-0,030
-129,556	-200,000	0,001	0,017
-128,541	-200,000	0,015	-0,095
-127,526	115,808	-0,011	0,010
-126,512	72,476	0,048	0,036
-125,497	309,190	-0,023	0,031
-124,483	800,000	-0,039	0,078
-123,468	-200,000	-0,030	-0,265
-122,453	-107,595	-0,075	0,012
-121,439	-200,000	0,018	0,092
-120,424	-200,000	-0,001	-0,087
-119,410	-136,008	-0,125	0,010
-118,395	556,131	-0,036	0,063
-117,380	-200,000	-0,026	0,084
-116,366	800,000	0,048	0,119
-115,351	-155,031	-0,176	0,008
-114,337	-31,017	-0,058	0,024
-113,322	608,704	0,028	-0,050
-112,307	-200,000	0,016	0,073
-111,293	441,845	0,019	-0,031
-110,278	800,000	0,023	-0,064
-109,264	-13,883	-0,095	-0,044
-108,249	-56,459	-0,016	0,005
-107,234	-200,000	-0,005	-0,081
-106,220	800,000	-0,045	-0,140
-105,205	-200,000	0,019	-0,149
-104,191	800,000	0,040	0,113
-103,176	39,004	0,012	0,008
-102,162	-200,000	0,019	-0,073
-101,147	-168,943	0,049	-0,001
-100,132	-93,267	0,173	-0,034
-99,118	-200,000	-0,037	-0,168
-98,103	-200,000	-0,025	-0,088
-97,089	-200,000	-0,016	0,100
-96,074	58,639	-0,040	0,028
-95,059	-167,664	-0,162	0,005
-94,045	32,941	-0,056	0,035
-93,030	209,063	0,067	-0,075
-92,016	270,557	-0,005	0,006
-91,001	201,746	-0,025	0,028
-89,986	800,000	0,040	0,100
-88,972	257,167	0,054	-0,068
-87,957	-200,000	0,000	0,048
-86,943	800,000	-0,038	-0,095
-85,928	412,962	-0,080	-0,123
-84,913	-120,490	-0,055	0,007
-83,899	-200,000	0,001	0,024
-82,884	-185,793	-0,176	-0,002
-81,870	-114,703	0,098	0,013
-80,855	-200,000	-0,005	0,020
-79,840	-200,000	-0,008	-0,075
-78,826	-200,000	-0,026	-0,139
-77,811	-200,000	0,014	0,089
-76,797	-200,000	0,003	-0,064
-75,782	112,727	-0,032	-0,028
-74,767	800,000	-0,044	-0,107
-73,753	322,241	-0,066	0,091
-72,738	176,145	0,045	0,047
-71,724	-110,190	-0,072	0,011
-70,709	113,269	0,055	0,048
-69,694	240,775	-0,039	-0,046
-68,680	162,757	-0,045	0,045
-67,665	105,848	0,046	0,039
-66,651	-149,036	0,103	-0,006
-65,636	800,000	-0,055	-0,156
-64,622	111,577	-0,064	-0,056
-63,607	48,447	-0,039	-0,026
-62,592	282,832	-0,090	0,116
-61,578	800,000	0,038	0,081
-60,563	66,842	0,028	-0,021
-59,549	722,537	0,029	-0,056
-58,534	-16,077	-1,892	-0,862
-57,519	800,000	-0,503	-1,040
-56,505	-200,000	-1,224	-4,825
-55,490	1,775	0,814	0,421
-54,476	800,000	5,074	11,816
-53,461	-200,000	16,902	273,248
-52,446	800,000	716,144	2192,721
-51,432	541,473	1629,434	2804,197
-50,417	115,365	1624,424	1427,489
-49,403	80,098	1285,340	993,489
-48,388	34,562	1031,694	646,932
-47,373	20,798	994,174	577,780
-46,359	19,461	982,394	566,500
-45,344	17,107	978,232	556,326
-44,330	17,313	976,920	556,238
-43,315	16,892	975,166	553,832
-42,300	16,819	974,195	553,018
-41,286	16,815	973,092	552,359
-40,271	16,850	972,059	551,863
-39,257	16,781	971,399	551,241
-38,242	16,854	970,495	550,947
-37,227	16,851	969,667	550,444
-36,213	16,790	968,869	549,772
-35,198	16,826	967,927	549,330
-34,184	16,899	967,166	549,117
-33,169	16,799	966,198	548,219
-32,154	16,890	965,399	548,039
-31,140	16,848	964,331	547,275
-30,125	16,885	963,702	547,015
-29,111	16,855	962,744	546,355
-28,096	16,839	962,181	545,959
-27,082	16,826	961,535	545,529
-26,067	16,852	960,646	545,088
-25,052	16,873	959,791	544,651
-24,038	16,787	959,290	544,066
-23,023	16,800	958,594	543,691
-22,009	16,843	957,878	543,402
-20,994	16,817	957,404	543,028
-19,979	16,899	956,606	542,820
-18,965	16,830	956,064	542,266
-17,950	16,840	955,384	541,892
-16,936	16,826	954,640	541,402
-15,921	16,771	954,050	540,871
-14,906	16,716	953,304	540,250
-13,892	16,662	952,689	539,707
-12,877	16,676	951,970	539,323
-11,863	16,713	951,357	539,072
-10,848	16,678	951,085	538,784
-9,833	16,862	950,374	538,949
-8,819	16,771	949,635	538,218
-7,804	16,735	949,163	537,815
-6,790	16,686	948,550	537,290
-5,775	16,662	948,169	536,976
-4,760	16,700	947,354	536,612
-3,746	16,674	946,688	536,131
-2,731	16,563	945,976	535,354
-1,717	16,545	945,316	534,901
-0,702	16,564	944,762	534,629
0,313	16,421	943,998	534,547
1,327	18,939	941,703	541,185
2,342	25,824	814,597	486,887
3,356	19,840	519,027	299,797
4,371	-2,014	391,432	197,066
5,386	-4,464	374,925	185,597
6,400	-5,736	368,845	180,964
7,415	-6,359	365,938	178,741
8,429	-6,616	364,345	177,627
9,444	-6,694	363,257	176,984
10,459	-6,720	362,455	176,545
11,473	-6,980	361,712	175,844
12,488	-7,100	361,333	175,497
13,502	-7,184	360,506	174,975
14,517	-7,379	360,115	174,530
15,531	-7,488	359,397	174,032
16,546	-7,441	358,744	173,758
17,561	-7,588	358,413	173,402
18,575	-7,588	358,049	173,210
19,590	-7,668	357,623	172,891
20,604	-7,525	357,140	172,817
21,619	-7,618	356,787	172,517
22,634	-7,569	356,276	172,315
23,648	-7,687	356,024	172,033
24,663	-7,684	355,709	171,870
25,677	-7,752	355,400	171,623
26,692	-7,748	355,051	171,443
27,707	-7,730	354,767	171,312
28,721	-7,670	354,328	171,158
29,736	-7,671	354,120	171,041
30,750	-7,741	353,702	170,739
31,765	-7,856	353,529	170,501
32,780	-7,634	353,029	170,513
33,794	-7,653	352,788	170,358
34,809	-7,540	352,348	170,266
35,823	-7,688	352,139	169,973
36,838	-7,718	351,885	169,798
37,853	-7,769	351,562	169,567
38,867	-7,778	351,122	169,328
39,882	-7,917	351,021	169,097
40,896	-7,910	350,747	168,959
41,911	-7,703	350,313	168,983
42,926	-7,770	349,947	168,711
43,940	-7,924	349,813	168,447
44,955	-7,866	349,445	168,325
45,969	-7,991	349,135	168,010
46,984	-8,198	348,919	167,646
47,999	-8,095	348,555	167,578
49,013	-8,037	348,290	167,505
50,028	-8,158	348,047	167,228
51,042	-8,150	347,835	167,121
52,057	-8,251	347,539	166,844
53,071	-8,216	347,230	166,723
54,086	-8,182	346,940	166,609
55,101	-8,245	346,704	166,406
56,115	-8,157	346,429	166,364
57,130	-7,756	346,340	166,780
58,144	-7,667	346,184	166,795
59,159	-7,429	345,727	166,841
60,174	-7,475	345,435	166,631
61,188	-7,529	345,310	166,492
62,203	-7,525	344,924	166,296
63,217	-7,759	344,813	165,952
64,232	-7,618	344,405	165,907
65,247	-7,337	344,238	166,141
66,261	-7,531	343,997	165,783
67,276	-7,771	343,401	165,199
68,290	-7,848	343,140	164,970
69,305	-7,771	342,830	164,896
70,320	-7,904	342,632	164,630
71,334	-7,858	342,481	164,597
72,349	-7,452	342,301	164,969
73,363	-7,394	342,156	164,952
74,378	-7,459	341,852	164,716
75,393	-7,604	341,514	164,369
76,407	-7,682	341,170	164,099
77,422	-7,666	340,840	163,944
78,436	-7,594	340,808	163,997
79,451	-7,558	340,320	163,790
80,466	-7,747	339,966	163,386
81,480	-7,874	339,687	163,090
82,495	-7,972	339,376	162,813
83,509	-8,012	339,345	162,737
84,524	-8,004	338,986	162,560
85,539	-8,092	338,601	162,259
86,553	-7,938	338,317	162,286
87,568	-7,943	338,078	162,152
88,582	-7,858	337,694	162,050
89,597	-7,992	337,604	161,838
90,611	-7,693	337,356	162,049
91,626	-7,706	337,223	161,955
92,641	-7,687	336,915	161,815
93,655	-7,650	336,689	161,734
94,670	-7,963	336,510	161,276
95,684	-7,838	336,068	161,193
96,699	-7,782	335,999	161,209
97,714	-7,846	335,733	160,993
98,728	-7,983	335,507	160,714
99,743	-7,971	335,121	160,528
100,757	-7,973	334,824	160,369
101,772	-8,037	334,640	160,194
102,787	-7,880	334,345	160,217
103,801	-7,837	334,165	160,166
104,816	-7,798	334,060	160,145
105,830	-7,675	333,757	160,125
106,845	-7,610	333,581	160,101
107,860	-7,753	333,297	159,788
108,874	-7,812	333,030	159,579
109,889	-7,790	332,622	159,395
110,903	-7,875	332,465	159,209
111,918	-7,784	332,311	159,223
112,933	-7,756	331,968	159,077
113,947	-7,893	331,838	158,846
114,962	-7,801	331,600	158,822
115,976	-7,821	331,420	158,698
116,991	-7,737	331,029	158,591
118,006	-7,817	330,979	158,463
119,020	-7,673	330,769	158,510
120,035	-7,720	330,576	158,351
121,049	-7,650	330,326	158,296
122,064	-7,642	330,042	158,155
123,079	-7,616	329,669	157,990
124,093	-7,862	329,547	157,643
125,108	-8,080	329,105	157,174
126,122	-7,989	328,928	157,177
127,137	-8,056	328,573	156,919
128,151	-8,014	328,374	156,856
129,166	-7,975	328,180	156,793
130,181	-7,975	327,878	156,634
131,195	-8,061	327,687	156,434
132,210	-7,757	327,539	156,687
133,224	-7,678	327,170	156,584
134,239	-7,708	327,055	156,482
135,254	-7,747	326,961	156,380
136,268	-7,748	326,597	156,191
137,283	-7,823	326,372	155,986
138,297	-7,899	325,907	155,667
139,312	-7,930	325,739	155,537
140,327	-7,635	325,470	155,721
141,341	-7,336	325,574	156,086
142,356	-7,232	325,530	156,167
143,370	-7,141	325,173	156,081
144,385	-7,240	325,058	155,903
145,400	-7,176	324,584	155,732
146,414	-7,337	324,508	155,505
147,429	-7,324	324,254	155,384
148,443	-7,373	323,856	155,125
149,458	-7,363	323,851	155,120
150,473	-7,238	323,430	155,042
151,487	-7,365	323,328	154,839
152,502	-7,395	323,097	154,683
153,516	-7,317	322,778	154,601
154,531	-7,383	322,699	154,477
155,546	-7,418	322,467	154,314
156,560	-7,434	322,020	154,069
157,575	-7,627	321,869	153,773
158,589	-7,425	321,573	153,838
159,604	-7,326	321,441	153,868
160,619	-7,105	321,237	153,997
161,633	-7,116	320,992	153,854
162,648	-7,346	321,109	153,647
163,662	-7,388	320,709	153,396
164,677	-7,524	320,327	153,053
165,692	-7,497	320,334	153,071
166,706	-7,208	319,985	153,203
167,721	-7,148	319,722	153,129
168,735	-7,117	319,752	153,163
169,750	-7,112	319,621	153,092
170,764	-7,177	319,387	152,896
171,779	-7,117	319,019	152,771
172,794	-6,945	318,889	152,880
173,808	-7,361	318,608	152,285
174,823	-7,735	318,134	151,643
175,837	-7,993	318,078	151,324
176,852	-7,612	318,081	151,721
177,867	-7,254	317,706	151,914
178,881	-7,199	317,670	151,942
179,896	-7,165	317,522	151,894
180,910	-7,099	317,092	151,746
181,925	-7,111	316,788	151,574
182,940	-7,183	316,796	151,487
183,954	-7,072	316,537	151,468
184,969	-7,147	316,414	151,316
185,983	-7,025	316,198	151,329
186,998	-7,152	315,898	151,037
188,013	-7,079	315,577	150,947
189,027	-7,163	315,365	150,743
190,042	-7,102	315,245	150,737
191,056	-6,959	315,061	150,788
192,071	-7,073	314,809	150,533
193,086	-7,007	314,726	150,550
194,100	-7,078	314,442	150,325
195,115	-6,951	314,253	150,356
196,129	-6,873	313,918	150,264
197,144	-6,814	313,627	150,174
198,159	-7,119	313,472	149,765
199,173	-7,170	313,267	149,600
200,188	-7,029	313,129	149,669
201,202	-7,224	312,721	149,255
202,217	-7,629	312,419	148,671
203,232	-7,649	312,075	148,473
204,246	-7,264	312,062	148,859
205,261	-7,140	311,891	148,894
206,275	-7,127	311,811	148,856
207,290	-6,976	311,477	148,842
208,304	-7,183	311,348	148,550
209,319	-7,142	311,031	148,428
210,334	-7,085	310,868	148,398
211,348	-7,030	310,812	148,415
212,363	-7,088	310,558	148,219
213,377	-7,083	310,265	148,071
214,392	-7,027	310,054	148,016
215,407	-7,410	309,761	147,463
216,421	-7,623	309,453	147,082
217,436	-7,537	309,357	147,113
218,450	-7,590	308,991	146,871
219,465	-7,402	308,875	146,998
220,480	-7,248	308,913	147,163
221,494	-7,452	308,805	146,886
222,509	-7,430	308,335	146,673
223,523	-7,309	308,218	146,730
224,538	-7,165	308,048	146,785
225,553	-7,010	307,949	146,885
226,567	-7,090	307,679	146,660
227,582	-7,040	307,522	146,623
228,596	-6,934	307,312	146,620
229,611	-7,024	307,270	146,494
230,626	-7,168	306,885	146,149
231,640	-7,409	306,357	145,636
232,655	-7,765	306,201	145,182
233,669	-7,644	305,946	145,174
234,684	-7,733	305,682	144,943
235,699	-7,879	305,679	144,779
236,713	-7,570	305,420	144,960
237,728	-7,600	305,316	144,868
238,742	-7,529	305,203	144,874
239,757	-7,395	304,901	144,855
240,772	-7,344	304,691	144,794
241,786	-7,317	304,503	144,720
242,801	-7,479	304,355	144,471
243,815	-7,356	304,143	144,483
244,830	-7,451	303,966	144,289
245,844	-7,342	303,752	144,286
246,859	-7,355	303,520	144,150
247,874	-7,436	303,369	143,983
248,888	-7,295	303,039	143,956
249,903	-7,209	303,008	144,016
250,917	-7,112	302,964	144,081
251,932	-6,900	302,774	144,194
252,947	-6,433	302,932	144,730
253,961	-6,330	302,711	144,716
254,976	-5,535	302,886	145,594
255,990	-4,897	302,749	146,162
257,005	-4,302	302,954	146,852
258,020	-1,860	303,834	149,746
259,034	-0,775	304,116	150,975
260,049	-0,521	304,168	151,245
261,063	-0,067	304,293	151,755
262,078	0,310	304,185	152,070
263,093	0,403	303,888	152,003
264,107	0,423	303,827	151,979
265,122	0,574	303,454	151,931
266,136	0,276	303,474	151,627
267,151	0,656	303,130	151,825
268,166	0,615	303,116	151,764
269,180	0,645	302,856	151,650
270,195	0,506	302,717	151,426
271,209	0,512	302,302	151,211
272,224	0,606	302,097	151,191
273,239	0,775	302,105	151,350
274,253	0,785	301,688	151,138
275,268	0,794	301,608	151,094
276,282	0,579	301,531	150,826
277,297	0,734	301,285	150,845
278,312	0,591	301,038	150,565
279,326	0,640	300,798	150,480
280,341	0,423	300,723	150,212
281,355	0,671	300,484	150,328
282,370	0,645	300,282	150,187
283,384	0,484	300,106	149,924
284,399	0,581	299,866	149,887
285,414	0,471	299,621	149,642
286,428	0,657	299,396	149,702
287,443	0,450	299,286	149,428
288,457	0,589	299,021	149,420
289,472	0,581	298,819	149,298
290,487	0,632	298,577	149,215
291,501	0,615	298,489	149,140
292,516	0,529	298,256	148,925
293,530	0,416	298,263	148,803
294,545	0,428	297,939	148,640
295,560	0,710	297,716	148,795
296,574	0,563	297,565	148,560
297,589	0,491	297,282	148,335
298,603	0,463	297,103	148,205
299,618	0,390	296,948	148,043
300,633	0,541	296,718	148,063
301,647	0,652	296,636	148,119
302,662	0,527	296,451	147,890
303,676	0,485	296,172	147,696
304,691	0,490	295,858	147,532
305,706	0,541	295,884	147,581
306,720	0,602	295,689	147,531
307,735	0,436	295,481	147,251
308,749	0,543	295,220	147,213
309,764	0,559	294,891	147,051
310,779	0,538	294,774	146,959
311,793	0,572	294,625	146,906
312,808	0,495	294,456	146,732
313,822	0,401	294,247	146,523
314,837	0,603	294,101	146,634
315,852	0,461	293,905	146,386
316,866	0,590	293,733	146,412
317,881	0,551	293,587	146,289
318,895	0,679	293,198	146,207
319,910	0,573	293,242	146,112
320,925	0,652	292,970	146,040
321,939	0,575	292,795	145,865
322,954	0,639	292,573	145,804
323,968	0,706	292,285	145,712
324,983	0,575	292,269	145,564
325,997	0,685	291,923	145,486
327,012	0,472	291,915	145,262
328,027	0,628	291,626	145,257
329,041	0,621	291,338	145,093
330,056	0,605	291,252	145,022
331,070	0,601	291,116	144,938
332,085	0,471	290,828	144,656
333,100	0,721	290,595	144,768
334,114	0,734	290,363	144,652
335,129	0,486	290,335	144,386
336,143	0,543	290,289	144,406
337,158	0,675	289,929	144,340
338,173	0,682	289,792	144,266
339,187	0,556	289,655	144,064
340,202	0,699	289,448	144,085
341,216	0,501	289,323	143,821
342,231	0,689	289,025	143,840
343,246	0,692	288,844	143,740
344,260	0,764	288,709	143,728
345,275	0,676	288,545	143,550
346,289	0,566	288,300	143,310
347,304	0,592	288,201	143,272
348,319	0,760	287,843	143,242
349,333	0,775	287,630	143,138
350,348	0,658	287,479	142,939
351,362	0,914	287,342	143,100
352,377	0,965	287,151	143,042
353,392	0,689	287,156	142,769
354,406	0,860	286,911	142,797
355,421	193,149	1326,615	1399,414
356,435	156,580	1453,289	1399,426
