DTS Sentinel unit serial number:	SN410029Multiplexer serial number:	ORYXHardware model number:	OX2-SRSoftware version number:	ORYX F/W v4,00 Oryx Data Collector v3.7.2.0data status	okinstallation	B4 Nyhavnadifferential loss correction	single-endedforward channel	channel 2reverse channel	N/Adate	2023/12/18time	15:20:13forward acquisition time	300,00reverse acquisition time	0,00gamma	499,1914k internal	0,3166k external	0,3166temperature offset calibration	1,0000default loss term (dB/km)	0,3820temperature slope calibration	1,0000multiplexer offset coefficient	1,0000multiplexer slope coefficient	1,0000fibre end	0,00T internal ref (°C)	13,88T ext. ref 1 (°C)	7,04T ext. ref 2 (°C)	7,15length (m)	temperature (°C)	Stokes	anti-Stokes-744,400	132,429	0,065	-0,062
-743,385	-170,489	-0,282	0,007
-742,371	-75,879	0,143	-0,037
-741,356	-77,806	-0,180	0,045
-740,342	-93,362	0,075	0,015
-739,327	-56,187	-0,298	0,097
-738,312	-27,505	0,115	0,049
-737,298	-193,549	-0,341	-0,002
-736,283	-86,502	0,218	-0,049
-735,269	29,366	-0,165	0,103
-734,254	550,703	0,043	0,076
-733,239	-9,791	-0,577	-0,282
-732,225	-113,608	0,257	-0,037
-731,210	565,197	0,042	-0,074
-730,196	-34,392	-0,054	0,022
-729,181	43,321	0,067	-0,045
-728,167	-88,905	-0,113	0,025
-727,152	180,118	-0,053	-0,057
-726,137	-200,000	0,012	-0,067
-725,123	231,918	-0,066	-0,080
-724,108	-200,000	0,021	-0,112
-723,094	-8,756	-0,114	-0,056
-722,079	215,797	-0,063	-0,074
-721,064	39,241	-0,108	-0,071
-720,050	-18,662	-0,104	-0,047
-719,035	-200,000	0,033	-0,135
-718,021	-162,483	-0,188	-0,007
-717,006	-200,000	0,016	-0,226
-715,991	-200,000	0,001	-0,210
-714,977	544,107	-0,084	-0,148
-713,962	800,000	-0,054	-0,148
-712,948	17,117	0,109	-0,063
-711,933	-200,000	-0,014	-0,084
-710,918	-200,000	-0,029	0,108
-709,904	-112,072	-0,148	-0,022
-708,889	352,484	-0,053	-0,077
-707,875	-40,810	0,039	-0,015
-706,860	140,914	0,074	-0,072
-705,845	-2,523	0,032	0,016
-704,831	-200,000	0,000	-0,026
-703,816	-200,000	0,012	0,068
-702,802	-200,000	-0,000	0,017
-701,787	59,865	-0,176	0,127
-700,772	-83,472	-0,077	-0,018
-699,758	800,000	-0,011	0,022
-698,743	-200,000	0,039	0,209
-697,729	-200,000	0,013	0,056
-696,714	-200,000	0,005	0,029
-695,699	301,315	-0,020	-0,027
-694,685	-101,067	-0,118	-0,021
-693,670	89,326	-0,050	0,041
-692,656	334,183	-0,082	-0,117
-691,641	247,271	0,089	-0,110
-690,627	-10,801	-0,170	-0,082
-689,612	-200,000	0,002	-0,054
-688,597	-200,000	-0,001	-0,069
-687,583	800,000	-0,019	-0,046
-686,568	113,248	0,058	0,051
-685,554	129,823	0,132	-0,124
-684,539	228,743	0,126	0,150
-683,524	40,242	-0,166	0,109
-682,510	-200,000	-0,009	0,072
-681,495	-200,000	0,009	0,046
-680,481	-200,000	0,012	0,120
-679,466	-119,605	-0,059	0,007
-678,451	-37,710	-0,105	-0,041
-677,437	125,125	-0,041	-0,038
-676,422	-200,000	-0,001	0,066
-675,408	224,947	-0,050	0,059
-674,393	-79,227	0,083	-0,020
-673,378	-82,910	-0,124	0,029
-672,364	-25,309	0,079	-0,034
-671,349	800,000	-0,067	-0,153
-670,335	-137,274	-0,049	-0,004
-669,320	-125,510	-0,128	-0,014
-668,305	-177,427	-0,133	0,002
-667,291	-200,000	-0,038	-0,146
-666,276	-77,869	0,120	-0,030
-665,262	-120,998	-0,093	-0,011
-664,247	-76,917	0,122	0,031
-663,232	-117,982	-0,087	-0,011
-662,218	473,219	0,023	-0,038
-661,203	800,000	-0,037	0,093
-660,189	-200,000	0,025	0,095
-659,174	800,000	-0,048	-0,148
-658,159	-7,535	-0,094	0,046
-657,145	-200,000	0,002	0,118
-656,130	136,676	-0,023	-0,022
-655,116	-116,765	-0,053	-0,007
-654,101	-13,268	-0,130	-0,062
-653,086	-200,000	0,026	-0,107
-652,072	800,000	-0,028	-0,063
-651,057	-119,544	-0,087	0,011
-650,043	732,930	0,047	-0,093
-649,028	-200,000	0,003	0,009
-648,014	59,710	0,109	-0,079
-646,999	341,004	-0,025	-0,036
-645,984	489,513	-0,066	0,111
-644,970	-200,000	-0,010	0,057
-643,955	-39,099	-0,076	0,029
-642,941	56,016	-0,041	-0,029
-641,926	-200,000	0,004	-0,016
-640,911	-166,109	0,085	0,003
-639,897	275,453	-0,110	0,143
-638,882	305,854	-0,035	-0,048
-637,868	-200,000	-0,027	-0,102
-636,853	570,056	0,080	-0,143
-635,838	181,097	-0,114	-0,123
-634,824	800,000	0,028	0,065
-633,809	-200,000	0,007	0,041
-632,795	800,000	-0,018	0,051
-631,780	-200,000	-0,009	0,164
-630,765	-171,179	-0,044	0,001
-629,751	-200,000	0,025	-0,122
-628,736	-200,000	0,045	-0,168
-627,722	-200,000	0,007	-0,089
-626,707	-16,152	-0,089	0,041
-625,692	519,962	0,052	-0,090
-624,678	-200,000	-0,026	0,093
-623,663	252,524	-0,063	0,079
-622,649	-173,277	-0,104	0,002
-621,634	-67,467	0,155	0,044
-620,619	16,939	-0,171	-0,099
-619,605	-200,000	-0,017	0,129
-618,590	-200,000	-0,007	0,103
-617,576	-92,273	0,072	0,015
-616,561	-56,557	0,089	-0,029
-615,546	-7,220	-0,199	-0,098
-614,532	52,160	-0,124	0,086
-613,517	-200,000	0,003	0,015
-612,503	189,460	0,079	0,087
-611,488	160,840	-0,032	-0,033
-610,474	-13,202	0,038	0,018
-609,459	-145,059	-0,022	-0,001
-608,444	-200,000	0,007	0,037
-607,430	-153,479	-0,053	0,003
-606,415	-125,853	0,040	0,004
-605,401	-125,779	-0,100	-0,011
-604,386	257,699	-0,011	-0,014
-603,371	106,714	0,023	-0,020
-602,357	-200,000	-0,038	0,172
-601,342	-200,000	0,004	0,033
-600,328	417,681	0,039	-0,061
-599,313	-200,000	0,024	-0,082
-598,298	800,000	-0,021	-0,049
-597,284	-200,000	-0,007	-0,109
-596,269	-200,000	-0,014	0,111
-595,255	-88,174	-0,055	-0,012
-594,240	-200,000	-0,003	0,038
-593,225	-187,852	-0,031	0,000
-592,211	68,024	0,029	-0,021
-591,196	142,619	0,011	-0,011
-590,182	-118,837	0,113	0,014
-589,167	800,000	0,010	-0,020
-588,152	192,355	0,047	0,052
-587,138	-59,025	0,059	-0,018
-586,123	17,731	-0,145	0,084
-585,109	-200,000	0,042	-0,165
-584,094	44,157	-0,032	-0,021
-583,079	-92,958	0,040	0,008
-582,065	-90,599	0,138	0,029
-581,050	42,421	0,008	0,005
-580,036	-14,283	-0,022	0,010
-579,021	177,576	-0,031	-0,033
-578,006	43,286	-0,101	-0,067
-576,992	166,326	-0,035	-0,037
-575,977	-132,498	-0,095	0,009
-574,963	157,956	-0,049	0,050
-573,948	-32,867	-0,096	-0,039
-572,934	77,420	0,037	-0,029
-571,919	-200,000	-0,007	-0,087
-570,904	285,564	0,038	-0,049
-569,890	282,918	0,040	-0,053
-568,875	143,802	-0,076	-0,074
-567,861	-200,000	-0,007	0,042
-566,846	-200,000	-0,025	-0,087
-565,831	-190,185	-0,150	0,001
-564,817	-200,000	0,020	0,067
-563,802	39,300	-0,108	-0,070
-562,788	-200,000	0,013	-0,055
-561,773	574,057	0,064	-0,114
-560,758	94,465	-0,043	-0,035
-559,744	120,325	-0,100	-0,090
-558,729	-200,000	0,038	-0,125
-557,715	-111,883	-0,067	0,010
-556,700	800,000	-0,013	-0,036
-555,685	-200,000	0,013	-0,164
-554,671	135,322	0,066	-0,063
-553,656	-124,921	-0,064	0,007
-552,642	-158,337	0,095	0,004
-551,627	-102,773	-0,073	0,013
-550,612	-200,000	-0,009	0,060
-549,598	-200,000	-0,004	-0,087
-548,583	-200,000	0,028	0,151
-547,569	113,756	0,102	0,091
-546,554	-200,000	-0,001	0,088
-545,539	800,000	0,050	0,118
-544,525	418,657	-0,056	0,088
-543,510	270,526	0,073	-0,094
-542,496	-27,585	0,070	0,029
-541,481	329,003	-0,135	-0,190
-540,466	161,601	0,076	0,078
-539,452	-200,000	0,011	0,099
-538,437	800,000	-0,024	-0,063
-537,423	-125,001	0,107	-0,012
-536,408	-134,450	-0,117	-0,010
-535,393	15,251	0,091	-0,052
-534,379	-126,315	-0,108	-0,012
-533,364	192,654	0,066	-0,073
-532,350	-41,196	-0,014	0,005
-531,335	-105,338	0,102	0,017
-530,321	-43,500	-0,131	0,048
-529,306	131,226	-0,013	0,012
-528,291	78,269	-0,131	-0,102
-527,277	24,001	-0,047	0,028
-526,262	104,039	-0,109	-0,093
-525,248	232,149	0,020	-0,024
-524,233	800,000	-0,036	-0,077
-523,218	-200,000	0,021	-0,068
-522,204	800,000	-0,033	0,088
-521,189	-200,000	-0,013	0,087
-520,175	-33,927	-0,086	-0,034
-519,160	148,764	-0,042	0,042
-518,145	112,154	0,009	0,008
-517,131	135,800	0,093	0,088
-516,116	-19,215	0,044	-0,020
-515,102	128,709	-0,094	0,087
-514,087	-156,078	0,065	-0,003
-513,072	381,914	-0,053	-0,080
-512,058	-200,000	-0,004	-0,029
-511,043	-40,625	-0,028	-0,011
-510,029	206,434	0,075	0,085
-509,014	105,833	0,046	-0,040
-507,999	-113,934	-0,037	-0,005
-506,985	432,062	-0,060	-0,094
-505,970	52,656	-0,118	0,082
-504,956	659,143	-0,037	-0,069
-503,941	800,000	-0,043	-0,092
-502,926	-91,666	0,173	-0,036
-501,912	-200,000	0,021	-0,102
-500,897	-99,760	-0,099	-0,018
-499,883	-200,000	-0,010	-0,068
-498,868	258,211	-0,126	-0,159
-497,853	-46,291	-0,024	0,009
-496,839	800,000	-0,003	-0,010
-495,824	-200,000	0,003	-0,085
-494,810	-200,000	0,014	0,089
-493,795	40,829	0,048	0,032
-492,781	-200,000	0,009	0,111
-491,766	-117,759	-0,060	0,008
-490,751	188,051	-0,109	-0,118
-489,737	-158,269	0,024	-0,001
-488,722	230,511	0,031	0,037
-487,708	-80,991	0,070	-0,017
-486,693	-49,397	0,073	0,025
-485,678	13,698	0,082	-0,046
-484,664	619,403	-0,051	-0,094
-483,649	-200,000	-0,005	0,045
-482,635	800,000	0,048	0,138
-481,620	800,000	0,032	-0,072
-480,605	-200,000	-0,012	-0,057
-479,591	-200,000	-0,006	0,113
-478,576	-151,672	0,147	0,008
-477,562	-81,576	-0,104	-0,025
-476,547	-50,847	-0,041	-0,014
-475,532	-200,000	-0,014	-0,128
-474,518	800,000	-0,010	-0,030
-473,503	-119,685	0,121	0,015
-472,489	3,530	0,078	0,041
-471,474	-200,000	0,041	0,000
-470,459	86,727	-0,104	-0,083
-469,445	-200,000	0,005	0,066
-468,430	800,000	0,018	0,042
-467,416	505,514	-0,011	-0,019
-466,401	800,000	-0,028	0,071
-465,386	-63,402	-0,010	0,003
-464,372	-84,977	0,116	-0,026
-463,357	-18,756	0,068	0,031
-462,343	137,465	-0,163	-0,155
-461,328	267,058	-0,082	-0,105
-460,313	499,603	-0,050	-0,084
-459,299	800,000	0,015	0,041
-458,284	109,758	0,077	0,067
-457,270	-165,241	0,087	-0,003
-456,255	-123,998	0,078	-0,009
-455,241	-5,885	0,060	-0,030
-454,226	-181,532	-0,148	0,002
-453,211	-108,681	0,091	0,014
-452,197	-200,000	0,014	-0,066
-451,182	46,805	-0,107	-0,072
-450,168	-94,070	0,098	0,019
-449,153	800,000	0,030	-0,062
-448,138	29,728	-0,079	-0,049
-447,124	91,956	0,094	0,077
-446,109	800,000	-0,038	0,092
-445,095	6,919	-0,103	0,055
-444,080	-200,000	0,053	0,224
-443,065	120,009	-0,070	0,063
-442,051	361,416	-0,006	-0,009
-441,036	-200,000	-0,012	0,056
-440,022	-200,000	0,002	-0,039
-439,007	54,585	0,071	-0,049
-437,992	-180,588	0,075	-0,001
-436,978	-200,000	0,011	0,071
-435,963	725,583	0,064	0,124
-434,949	-75,627	-0,134	-0,034
-433,934	-200,000	-0,012	-0,069
-432,919	-200,000	-0,009	0,031
-431,905	-83,363	0,144	0,033
-430,890	-200,000	-0,002	0,010
-429,876	177,076	0,051	0,054
-428,861	496,239	0,059	0,098
-427,846	111,390	-0,042	0,037
-426,832	-66,090	-0,123	-0,035
-425,817	460,440	-0,015	-0,024
-424,803	-200,000	-0,019	0,135
-423,788	419,753	-0,041	0,064
-422,773	-200,000	-0,000	-0,070
-421,759	-158,860	0,069	-0,003
-420,744	-174,315	0,098	0,002
-419,730	-191,469	-0,138	-0,001
-418,715	164,375	-0,067	0,069
-417,701	301,980	-0,062	-0,083
-416,686	270,869	0,071	0,091
-415,671	800,000	0,043	0,115
-414,657	-200,000	0,012	0,112
-413,642	155,824	-0,059	-0,059
-412,628	138,010	-0,052	-0,050
-411,613	-20,564	-0,082	-0,037
-410,598	-200,000	-0,020	0,000
-409,584	140,522	0,132	0,126
-408,569	-110,272	-0,055	0,008
-407,555	55,665	0,045	-0,032
-406,540	16,716	-0,116	0,066
-405,525	92,451	0,086	0,070
-404,511	-200,000	-0,030	-0,117
-403,496	-200,000	-0,012	0,066
-402,482	29,470	0,167	-0,103
-401,467	-200,000	-0,021	0,073
-400,452	51,870	-0,040	0,028
-399,438	28,736	0,063	-0,039
-398,423	133,830	-0,041	0,039
-397,409	-124,594	0,101	0,011
-396,394	-45,857	0,039	-0,014
-395,379	-200,000	0,028	0,128
-394,365	-200,000	0,000	0,021
-393,350	800,000	-0,049	0,106
-392,336	-200,000	0,025	0,100
-391,321	800,000	0,051	0,155
-390,306	-79,646	-0,155	0,038
-389,292	8,603	0,033	0,018
-388,277	321,637	0,055	0,077
-387,263	77,834	0,109	-0,084
-386,248	40,838	-0,025	0,016
-385,233	167,961	0,095	0,098
-384,219	130,226	-0,061	0,056
-383,204	1,320	-0,074	-0,039
-382,190	-112,748	-0,082	0,012
-381,175	-200,000	-0,017	0,053
-380,160	707,743	0,061	0,118
-379,146	445,986	0,078	0,125
-378,131	-200,000	-0,011	-0,055
-377,117	-40,647	-0,087	0,033
-376,102	800,000	0,038	-0,115
-375,088	74,968	-0,165	-0,125
-374,073	800,000	0,058	-0,137
-373,058	193,626	0,077	-0,084
-372,044	-200,000	-0,005	0,043
-371,029	-35,192	-0,128	-0,050
-370,015	-107,716	0,123	0,019
-369,000	-200,000	-0,006	-0,054
-367,985	2,546	-0,033	-0,017
-366,971	754,599	-0,065	-0,127
-365,956	-12,104	0,083	0,039
-364,942	-55,962	0,189	0,061
-363,927	181,165	0,051	0,055
-362,912	-200,000	0,023	-0,160
-361,898	-200,000	0,003	0,038
-360,883	245,928	-0,059	0,072
-359,869	800,000	0,051	0,141
-358,854	-36,940	-0,135	-0,052
-357,839	-200,000	-0,004	-0,104
-356,825	-63,187	0,202	0,060
-355,810	255,249	-0,118	-0,147
-354,796	115,956	-0,082	0,073
-353,781	0,978	0,097	-0,050
-352,766	247,468	-0,149	-0,182
-351,752	146,640	0,037	-0,036
-350,737	-200,000	-0,002	-0,006
-349,723	111,766	0,045	-0,040
-348,708	-200,000	0,031	0,167
-347,693	315,611	0,030	-0,041
-346,679	-200,000	0,019	-0,085
-345,664	-78,274	-0,084	-0,021
-344,650	34,759	-0,068	-0,043
-343,635	3,536	0,069	-0,036
-342,620	153,783	0,154	0,153
-341,606	218,037	0,019	0,022
-340,591	-200,000	0,015	0,076
-339,577	390,622	0,053	0,080
-338,562	-200,000	0,024	-0,093
-337,548	71,538	-0,020	0,015
-336,533	23,088	0,155	-0,092
-335,518	-200,000	0,008	-0,115
-334,504	-200,000	0,002	0,128
-333,489	-200,000	0,027	0,088
-332,475	-100,880	-0,193	0,034
-331,460	-200,000	0,041	-0,149
-330,445	305,236	0,064	-0,087
-329,431	190,553	0,095	-0,104
-328,416	18,003	-0,157	-0,090
-327,402	-120,180	0,020	0,002
-326,387	423,288	-0,026	0,040
-325,372	-200,000	-0,039	-0,161
-324,358	-200,000	0,004	-0,061
-323,343	-200,000	0,006	0,041
-322,329	147,177	0,080	-0,078
-321,314	214,559	0,047	0,054
-320,299	529,399	-0,033	-0,056
-319,285	-173,887	0,017	-0,000
-318,270	312,557	-0,052	0,071
-317,256	26,680	-0,107	0,065
-316,241	800,000	0,032	-0,071
-315,226	800,000	0,048	0,107
-314,212	-37,068	0,142	-0,055
-313,197	39,635	-0,094	-0,061
-312,183	-200,000	-0,018	-0,113
-311,168	115,720	0,037	-0,033
-310,153	-200,000	0,030	-0,137
-309,139	-200,000	-0,002	-0,034
-308,124	-77,515	0,039	0,010
-307,110	529,193	-0,032	-0,055
-306,095	-1,662	-0,026	-0,013
-305,080	-57,107	0,136	-0,043
-304,066	86,195	0,045	-0,036
-303,051	29,851	-0,152	-0,093
-302,037	65,541	-0,080	0,059
-301,022	312,331	0,017	0,023
-300,008	782,084	-0,038	0,075
-298,993	800,000	0,022	0,053
-297,978	63,953	-0,081	-0,059
-296,964	-4,432	0,040	-0,020
-295,949	-200,000	-0,002	-0,025
-294,935	-179,981	-0,077	0,001
-293,920	26,412	0,060	0,036
-292,905	131,476	0,146	-0,135
-291,891	-200,000	-0,017	-0,088
-290,876	800,000	0,066	0,134
-289,862	82,854	-0,095	-0,074
-288,847	117,096	-0,159	-0,141
-287,832	-154,741	-0,057	0,003
-286,818	0,042	0,096	0,049
-285,803	-200,000	0,011	0,062
-284,789	66,597	-0,075	0,055
-283,774	103,722	-0,120	0,101
-282,759	60,157	0,027	0,020
-281,745	16,375	0,055	-0,031
-280,730	800,000	-0,034	-0,088
-279,716	-200,000	0,003	-0,105
-278,701	-9,476	-0,023	0,011
-277,686	160,626	0,020	-0,021
-276,672	-200,000	0,012	0,199
-275,657	-156,079	-0,063	-0,003
-274,643	75,815	0,023	0,018
-273,628	296,500	0,011	0,015
-272,613	-103,283	-0,064	0,011
-271,599	-200,000	-0,007	0,093
-270,584	80,207	0,135	0,105
-269,570	800,000	-0,015	0,041
-268,555	136,321	0,009	0,008
-267,540	800,000	0,014	-0,031
-266,526	194,060	-0,066	0,072
-265,511	27,033	0,139	-0,084
-264,497	-200,000	0,003	-0,070
-263,482	258,555	0,077	0,097
-262,467	348,723	-0,033	0,048
-261,453	800,000	0,027	0,064
-260,438	21,123	0,022	-0,013
-259,424	137,553	0,095	-0,089
-258,409	15,232	-0,068	-0,038
-257,395	90,459	0,122	0,098
-256,380	1,299	0,052	0,027
-255,365	623,905	0,072	0,131
-254,351	-200,000	-0,001	0,024
-253,336	-93,801	0,120	-0,024
-252,322	-92,582	-0,104	-0,021
-251,307	595,446	-0,013	-0,023
-250,292	441,793	0,062	0,098
-249,278	-94,041	0,139	0,027
-248,263	-14,182	0,069	0,032
-247,249	-64,138	0,084	-0,025
-246,234	431,482	-0,100	-0,157
-245,219	-28,690	-0,048	-0,020
-244,205	245,529	-0,056	-0,069
-243,190	377,609	0,060	-0,089
-242,176	47,631	0,054	0,036
-241,161	29,956	-0,086	-0,053
-240,146	305,431	0,024	0,032
-239,132	615,289	-0,088	0,159
-238,117	392,197	-0,076	0,115
-237,103	131,364	0,079	0,073
-236,088	-200,000	-0,004	0,030
-235,073	637,934	-0,036	-0,067
-234,059	-148,008	0,037	-0,002
-233,044	-121,477	0,112	-0,013
-232,030	574,822	0,029	0,051
-231,015	2,311	-0,120	-0,062
-230,000	-164,106	0,101	0,003
-228,986	230,192	0,070	0,082
-227,971	470,149	0,101	-0,164
-226,957	291,349	0,064	-0,084
-225,942	800,000	-0,038	0,094
-224,927	-70,330	-0,042	0,011
-223,913	-31,363	-0,021	-0,008
-222,898	-200,000	-0,001	-0,004
-221,884	68,481	0,035	-0,026
-220,869	-25,106	-0,041	-0,017
-219,855	-93,352	0,072	-0,014
-218,840	175,128	-0,108	0,113
-217,825	369,163	0,039	-0,057
-216,811	-1,986	0,063	0,032
-215,796	185,177	-0,155	-0,166
-214,782	281,791	-0,085	-0,110
-213,767	-18,189	0,051	-0,023
-212,752	800,000	0,012	-0,034
-211,738	-200,000	0,012	0,072
-210,723	-200,000	0,009	-0,031
-209,709	-145,572	-0,050	0,003
-208,694	-200,000	-0,011	-0,060
-207,679	-75,843	-0,041	0,010
-206,665	-200,000	0,048	0,161
-205,650	182,165	-0,034	-0,036
-204,636	-20,479	-0,120	-0,053
-203,621	-6,386	0,121	0,059
-202,606	-200,000	0,009	-0,158
-201,592	780,427	-0,041	-0,081
-200,577	-121,585	0,104	-0,012
-199,563	-158,269	0,107	0,004
-198,548	-200,000	-0,009	-0,053
-197,533	800,000	0,044	-0,134
-196,519	86,356	-0,058	-0,046
-195,504	-200,000	0,022	0,081
-194,490	-200,000	-0,005	0,042
-193,475	83,898	0,092	0,072
-192,460	-200,000	0,005	0,119
-191,446	202,733	0,043	0,048
-190,431	277,830	-0,021	0,027
-189,417	-32,692	-0,093	-0,037
-188,402	427,927	-0,066	0,102
-187,387	98,970	-0,080	0,066
-186,373	-165,023	0,066	-0,002
-185,358	-107,958	-0,107	0,016
-184,344	800,000	0,019	-0,052
-183,329	522,339	0,071	-0,121
-182,315	-59,695	-0,081	0,025
-181,300	-200,000	-0,047	0,201
-180,285	722,636	-0,020	-0,038
-179,271	65,017	-0,037	0,027
-178,256	16,725	-0,149	-0,084
-177,242	269,824	0,105	0,133
-176,227	-200,000	0,008	-0,106
-175,212	-87,051	0,163	0,035
-174,198	-20,379	-0,065	0,029
-173,183	122,228	-0,039	0,035
-172,169	-200,000	0,003	0,036
-171,154	95,326	-0,066	-0,054
-170,139	-200,000	-0,028	0,188
-169,125	315,876	0,053	0,072
-168,110	-2,964	-0,055	0,028
-167,096	-7,936	0,039	0,019
-166,081	27,333	0,042	0,025
-165,066	800,000	-0,021	0,052
-164,052	36,749	0,095	-0,060
-163,037	-200,000	-0,002	0,043
-162,023	800,000	0,052	0,129
-161,008	-135,492	0,144	-0,012
-159,993	-200,000	0,003	-0,021
-158,979	106,226	-0,068	0,058
-157,964	800,000	0,036	0,108
-156,950	104,424	-0,083	0,070
-155,935	111,875	0,058	0,051
-154,920	-80,524	0,080	0,019
-153,906	-200,000	-0,004	0,028
-152,891	402,508	0,054	0,082
-151,877	-119,043	-0,039	-0,005
-150,862	74,977	0,051	0,039
-149,847	396,868	-0,068	0,102
-148,833	-200,000	-0,001	-0,009
-147,818	173,814	-0,033	-0,034
-146,804	390,407	0,007	0,011
-145,789	604,361	0,045	0,082
-144,775	-200,000	0,005	0,095
-143,760	-42,587	-0,075	-0,027
-142,745	-0,886	0,120	-0,061
-141,731	800,000	0,060	0,133
-140,716	669,796	-0,058	0,109
-139,702	800,000	0,038	0,111
-138,687	59,894	-0,111	0,079
-137,672	208,769	-0,027	0,030
-136,658	-200,000	-0,008	-0,079
-135,643	190,815	-0,069	-0,074
-134,629	42,963	0,111	-0,072
-133,614	525,214	-0,032	0,054
-132,599	-67,098	0,141	-0,040
-131,585	-200,000	-0,007	0,066
-130,570	-200,000	0,008	0,217
-129,556	238,761	-0,021	0,025
-128,541	-200,000	0,000	-0,126
-127,526	-45,846	-0,051	0,018
-126,512	186,493	0,080	0,085
-125,497	439,025	0,012	-0,019
-124,483	336,615	-0,063	0,088
-123,468	-137,957	0,031	0,002
-122,453	-68,926	-0,127	0,035
-121,439	8,120	-0,036	-0,019
-120,424	800,000	-0,052	0,160
-119,410	-200,000	-0,003	-0,032
-118,395	800,000	-0,053	0,138
-117,380	800,000	0,042	0,096
-116,366	268,821	0,007	-0,008
-115,351	-200,000	-0,013	-0,097
-114,337	-200,000	-0,000	-0,029
-113,322	-110,316	-0,102	-0,015
-112,307	36,642	0,077	-0,049
-111,293	800,000	-0,019	0,043
-110,278	-68,648	0,065	0,018
-109,264	800,000	0,020	0,045
-108,249	-57,424	-0,051	-0,016
-107,234	-200,000	-0,007	0,083
-106,220	-39,001	-0,125	0,047
-105,205	-152,194	0,080	-0,004
-104,191	-15,362	0,092	0,042
-103,176	97,814	-0,016	0,013
-102,162	800,000	0,081	-0,194
-101,147	633,217	-0,104	-0,190
-100,132	-200,000	0,038	-0,121
-99,118	-68,992	0,168	-0,046
-98,103	-200,000	-0,006	0,049
-97,089	107,420	0,065	-0,056
-96,074	800,000	-0,026	-0,055
-95,059	-200,000	-0,066	0,228
-94,045	119,963	0,082	-0,073
-93,030	-65,931	-0,086	-0,024
-92,016	800,000	-0,035	-0,100
-91,001	-94,019	-0,031	-0,006
-89,986	-200,000	-0,012	-0,040
-88,972	800,000	0,015	0,031
-87,957	74,946	-0,035	-0,027
-86,943	108,173	-0,063	-0,054
-85,928	136,457	-0,038	0,036
-84,913	11,376	-0,088	0,048
-83,899	-200,000	0,015	-0,103
-82,884	800,000	0,014	0,044
-81,870	187,174	0,070	-0,075
-80,855	-39,841	-0,067	0,025
-79,840	611,435	-0,061	0,110
-78,826	800,000	-0,019	0,058
-77,811	-200,000	-0,001	-0,138
-76,797	-197,167	-0,050	-0,000
-75,782	800,000	-0,052	-0,129
-74,767	36,245	0,049	0,031
-73,753	66,982	0,191	0,139
-72,738	1,198	-0,036	0,018
-71,724	695,800	0,030	-0,058
-70,709	-103,648	0,047	0,008
-69,694	61,509	0,115	-0,082
-68,680	134,980	0,024	-0,022
-67,665	-170,436	0,029	0,001
-66,651	210,351	0,048	0,055
-65,636	64,143	0,063	0,045
-64,622	-200,000	-0,002	0,021
-63,607	-200,000	-0,001	0,106
-62,592	-41,795	-0,104	-0,038
-61,578	800,000	-0,016	0,043
-60,563	143,617	0,098	0,093
-59,549	65,767	-0,168	-0,121
-58,534	-3,983	-2,036	-1,007
-57,519	800,000	-0,320	-1,002
-56,505	-200,000	-1,154	-5,084
-55,490	178,950	0,580	0,607
-54,476	800,000	5,100	11,892
-53,461	-200,000	17,777	287,516
-52,446	800,000	726,965	2233,164
-51,432	550,929	1638,474	2824,904
-50,417	110,760	1625,617	1399,382
-49,403	76,929	1279,789	971,554
-48,388	31,163	1023,733	627,139
-47,373	18,657	986,138	563,074
-46,359	16,937	974,307	550,683
-45,344	14,228	970,169	539,501
-44,330	14,434	968,526	539,235
-43,315	13,992	966,707	536,766
-42,300	13,864	965,659	535,748
-41,286	13,883	964,662	535,235
-40,271	13,905	963,686	534,742
-39,257	13,893	962,796	534,187
-38,242	13,942	961,922	533,841
-37,227	13,922	961,136	533,318
-36,213	13,914	960,290	532,802
-35,198	13,899	959,333	532,201
-34,184	13,959	958,719	532,034
-33,169	13,875	957,713	531,185
-32,154	13,958	956,857	530,954
-31,140	13,958	956,025	530,473
-30,125	13,851	955,264	529,685
-29,111	13,851	954,324	529,142
-28,096	13,909	953,578	528,893
-27,082	13,898	952,921	528,474
-26,067	13,883	952,100	527,949
-25,052	13,893	951,516	527,637
-24,038	13,905	950,756	527,231
-23,023	13,828	950,158	526,636
-22,009	13,923	949,456	526,527
-20,994	13,929	949,044	526,297
-19,979	13,878	948,488	525,805
-18,965	13,918	947,947	525,613
-17,950	13,970	946,895	525,174
-16,936	13,843	946,345	524,444
-15,921	13,905	945,613	524,213
-14,906	13,742	945,034	523,355
-13,892	13,781	944,290	523,046
-12,877	13,766	943,773	522,691
-11,863	13,766	943,029	522,258
-10,848	13,791	942,648	522,106
-9,833	13,908	941,989	522,091
-8,819	13,907	941,396	521,736
-7,804	13,949	940,812	521,525
-6,790	13,875	940,339	521,009
-5,775	13,924	939,680	520,778
-4,760	13,909	939,153	520,418
-3,746	13,931	938,314	520,002
-2,731	13,660	937,791	518,838
-1,717	13,630	937,094	518,337
-0,702	13,635	936,438	517,969
0,313	13,461	935,723	517,808
1,327	16,762	934,120	527,229
2,342	25,609	806,526	478,983
3,356	22,260	509,367	296,802
4,371	1,635	381,733	195,917
5,386	-0,563	365,544	184,863
6,400	-0,821	359,759	181,607
7,415	-0,629	357,523	180,695
8,429	-0,628	356,066	179,944
9,444	-0,593	355,101	179,482
10,459	-0,473	354,568	179,342
11,473	-0,611	353,977	178,862
12,488	-0,388	353,329	178,785
13,502	-0,334	352,748	178,539
14,517	-0,269	352,446	178,449
15,531	0,110	351,826	178,571
16,546	0,126	351,514	178,416
17,561	0,036	351,108	178,087
18,575	0,018	350,820	177,904
19,590	0,161	350,329	177,809
20,604	0,239	349,967	177,702
21,619	0,124	349,608	177,368
22,634	0,185	349,240	177,237
23,648	0,203	348,763	177,000
24,663	0,239	348,475	176,882
25,677	0,066	348,345	176,595
26,692	0,113	347,853	176,385
27,707	0,216	347,529	176,326
28,721	0,218	347,235	176,164
29,736	0,082	347,144	175,942
30,750	0,228	346,661	175,853
31,765	0,232	346,344	175,682
32,780	0,096	346,115	175,390
33,794	0,175	345,764	175,289
34,809	0,208	345,597	175,227
35,823	0,238	345,282	175,087
36,838	0,175	344,878	174,793
37,853	0,085	344,631	174,548
38,867	0,136	344,312	174,429
39,882	0,230	344,152	174,442
40,896	0,170	343,864	174,211
41,911	0,195	343,572	174,077
42,926	0,081	343,052	173,665
43,940	0,120	343,026	173,682
44,955	0,223	342,620	173,581
45,969	0,135	342,395	173,349
46,984	-0,027	342,302	173,098
47,999	0,034	342,025	173,014
49,013	0,071	341,690	172,871
50,028	-0,001	341,240	172,546
51,042	-0,085	341,034	172,329
52,057	-0,085	340,801	172,196
53,071	-0,149	340,547	171,979
54,086	-0,212	340,444	171,839
55,101	-0,038	340,088	171,844
56,115	0,065	339,817	171,810
57,130	-0,062	339,726	171,603
58,144	-0,010	339,266	171,415
59,159	0,147	338,888	171,388
60,174	0,115	338,673	171,227
61,188	0,067	338,376	171,007
62,203	0,114	338,202	170,958
63,217	0,079	337,979	170,790
64,232	0,014	337,667	170,542
65,247	-0,025	337,339	170,317
66,261	0,119	337,047	170,319
67,276	0,143	336,763	170,187
68,290	0,053	336,606	169,990
69,305	-0,017	336,303	169,743
70,320	0,161	336,000	169,777
71,334	0,184	335,706	169,639
72,349	0,157	335,530	169,505
73,363	-0,097	335,384	169,129
74,378	0,077	334,943	169,087
75,393	-0,001	334,822	168,922
76,407	0,163	334,528	168,944
77,422	0,189	334,307	168,848
78,436	0,084	334,130	168,625
79,451	0,243	333,608	168,525
80,466	0,032	333,578	168,258
81,480	0,043	333,293	168,111
82,495	0,224	333,031	168,167
83,509	0,099	332,809	167,900
84,524	0,292	332,465	167,928
85,539	0,131	332,360	167,679
86,553	0,001	332,066	167,371
87,568	0,105	331,909	167,393
88,582	0,217	331,518	167,306
89,597	0,079	331,315	167,035
90,611	0,145	331,055	166,962
91,626	0,230	330,877	166,953
92,641	0,206	330,599	166,770
93,655	0,236	330,395	166,686
94,670	0,109	330,235	166,449
95,684	0,030	329,979	166,217
96,699	-0,032	329,739	166,013
97,714	0,176	329,465	166,091
98,728	0,093	329,228	165,864
99,743	0,189	329,027	165,855
100,757	0,113	328,690	165,586
101,772	0,271	328,439	165,619
102,787	0,087	328,259	165,311
103,801	0,027	327,934	165,066
104,816	0,139	327,840	165,128
105,830	0,181	327,498	164,987
106,845	0,200	327,315	164,901
107,860	0,097	327,140	164,685
108,874	0,126	326,756	164,508
109,889	0,070	326,476	164,291
110,903	-0,145	326,419	164,012
111,918	-0,079	326,166	163,942
112,933	0,091	325,895	163,979
113,947	0,068	325,646	163,813
114,962	0,148	325,316	163,720
115,976	0,107	325,300	163,652
116,991	0,159	325,064	163,576
118,006	0,131	324,736	163,366
119,020	-0,061	324,719	163,133
120,035	0,072	324,432	163,119
121,049	-0,035	324,335	162,940
122,064	0,246	323,937	163,031
123,079	0,212	323,653	162,836
124,093	0,108	323,456	162,610
125,108	0,133	323,095	162,441
126,122	0,055	322,982	162,285
127,137	0,183	322,706	162,271
128,151	0,060	322,500	162,020
129,166	0,278	322,193	162,086
130,181	0,111	322,042	161,815
131,195	0,009	321,885	161,611
132,210	0,062	321,704	161,564
133,224	0,010	321,354	161,318
134,239	-0,106	321,091	161,046
135,254	-0,071	320,919	160,984
136,268	0,080	320,736	161,040
137,283	0,089	320,446	160,889
138,297	0,173	320,044	160,763
139,312	-0,071	319,854	160,391
140,327	-0,001	319,723	160,386
141,341	0,162	319,365	160,367
142,356	0,038	319,259	160,167
143,370	-0,012	319,111	160,025
144,385	0,184	318,845	160,087
145,400	0,137	318,715	159,958
146,414	0,185	318,472	159,872
147,429	0,068	318,133	159,563
148,443	0,304	318,025	159,747
149,458	0,100	317,714	159,358
150,473	0,130	317,557	159,298
151,487	0,016	317,323	159,045
152,502	0,067	317,045	158,946
153,516	0,212	316,950	159,038
154,531	0,074	316,675	158,738
155,546	0,036	316,499	158,597
156,560	0,105	316,214	158,513
157,575	0,101	315,923	158,348
158,589	0,180	315,627	158,270
159,604	0,100	315,536	158,125
160,619	0,160	315,406	158,110
161,633	0,247	315,144	158,056
162,648	0,244	314,982	157,957
163,662	0,306	314,663	157,848
164,677	0,183	314,377	157,561
165,692	0,143	314,240	157,436
166,706	0,262	313,973	157,414
167,721	0,265	313,886	157,360
168,735	0,224	313,729	157,224
169,750	0,127	313,407	156,946
170,764	0,056	313,275	156,792
171,779	0,032	313,137	156,684
172,794	0,136	312,911	156,665
173,808	0,231	312,585	156,588
174,823	0,062	312,384	156,296
175,837	-0,090	312,226	156,044
176,852	0,020	312,076	156,071
177,867	0,073	311,893	156,020
178,881	0,143	311,562	155,914
179,896	0,034	311,486	155,749
180,910	0,240	311,096	155,754
181,925	0,055	310,960	155,480
182,940	-0,002	310,780	155,316
183,954	0,145	310,537	155,333
184,969	0,231	310,351	155,316
185,983	0,300	310,105	155,250
186,998	0,327	309,940	155,182
188,013	0,155	309,837	154,938
189,027	0,184	309,419	154,746
190,042	-0,037	309,314	154,451
191,056	-0,089	308,986	154,219
192,071	-0,146	308,864	154,086
193,086	-0,034	308,603	154,057
194,100	0,043	308,307	153,976
195,115	0,056	308,214	153,928
196,129	0,091	307,948	153,819
197,144	-0,032	307,649	153,529
198,159	0,026	307,560	153,530
199,173	-0,033	307,422	153,387
200,188	-0,137	307,046	153,079
201,202	-0,137	306,786	152,936
202,217	0,094	306,566	153,048
203,232	-0,046	306,433	152,826
204,246	0,036	306,244	152,802
205,261	0,107	306,013	152,745
206,275	0,050	305,980	152,657
207,290	0,080	305,820	152,594
208,304	0,161	305,576	152,541
209,319	0,119	305,296	152,345
210,334	0,123	305,049	152,213
211,348	0,056	304,883	152,048
212,363	0,143	304,677	152,020
213,377	0,057	304,554	151,858
214,392	0,025	304,338	151,704
215,407	0,148	304,068	151,681
216,421	-0,047	303,895	151,384
217,436	-0,006	303,761	151,345
218,450	0,052	303,578	151,298
219,465	-0,054	303,437	151,108
220,480	-0,086	303,042	150,865
221,494	-0,048	302,944	150,842
222,509	0,025	302,807	150,832
223,523	0,031	302,569	150,707
224,538	-0,100	302,356	150,456
225,553	-0,061	302,241	150,424
226,567	-0,085	302,011	150,271
227,582	0,024	301,665	150,196
228,596	0,067	301,513	150,150
229,611	0,046	301,288	150,004
230,626	0,116	301,168	150,001
231,640	0,128	301,021	149,926
232,655	-0,040	300,769	149,619
233,669	0,097	300,439	149,579
234,684	0,209	300,404	149,659
235,699	0,247	300,146	149,556
236,713	0,032	300,035	149,273
237,728	0,009	299,744	149,091
238,742	-0,124	299,685	148,917
239,757	-0,052	299,401	148,834
240,772	0,045	299,140	148,787
241,786	-0,142	298,944	148,490
242,801	-0,014	298,704	148,485
243,815	0,192	298,483	148,567
244,830	-0,006	298,330	148,281
245,844	-0,067	298,146	148,116
246,859	-0,102	297,955	147,973
247,874	-0,034	297,855	147,977
248,888	-0,056	297,583	147,807
249,903	-0,217	297,364	147,526
250,917	-0,097	297,213	147,556
251,932	-0,064	296,909	147,425
252,947	-0,550	296,589	146,774
253,961	-1,197	296,182	145,922
254,976	-0,393	296,347	146,783
255,990	0,644	296,450	147,841
257,005	1,342	296,724	148,653
258,020	2,932	297,132	150,411
259,034	3,407	297,286	150,943
260,049	3,565	297,017	150,950
261,063	3,715	296,905	151,026
262,078	4,043	296,740	151,251
263,093	4,081	296,786	151,298
264,107	4,352	296,596	151,455
265,122	4,418	296,466	151,439
266,136	4,608	296,455	151,607
267,151	4,719	296,181	151,561
268,166	4,406	295,975	151,136
269,180	4,560	295,699	151,132
270,195	4,375	295,443	150,807
271,209	4,302	295,336	150,668
272,224	4,141	295,123	150,389
273,239	4,075	294,861	150,177
274,253	4,235	294,524	150,148
275,268	4,371	294,531	150,271
276,282	4,215	294,241	149,958
277,297	4,176	294,141	149,856
278,312	4,426	293,890	149,957
279,326	4,445	293,615	149,822
280,341	4,199	293,633	149,579
281,355	4,154	293,393	149,399
282,370	4,148	293,093	149,227
283,384	4,123	293,020	149,153
284,399	4,139	292,802	149,044
285,414	4,221	292,606	149,010
286,428	4,140	292,432	148,830
287,443	3,931	292,105	148,449
288,457	3,941	292,083	148,434
289,472	3,988	291,713	148,278
290,487	3,957	291,460	148,106
291,501	3,966	291,303	148,022
292,516	3,850	291,187	147,839
293,530	3,932	290,843	147,729
294,545	3,832	290,939	147,669
295,560	3,956	290,554	147,579
296,574	3,850	290,141	147,255
297,589	3,844	290,084	147,207
298,603	3,652	289,969	146,951
299,618	3,722	289,724	146,881
300,633	3,868	289,645	146,968
301,647	3,804	289,471	146,805
302,662	4,072	289,245	146,933
303,676	4,067	289,236	146,911
304,691	4,082	288,972	146,778
305,706	4,128	288,980	146,813
306,720	4,340	288,667	146,843
307,735	4,043	288,569	146,497
308,749	4,363	288,285	146,644
309,764	4,142	288,093	146,323
310,779	4,091	287,797	146,112
311,793	4,155	287,578	146,048
312,808	4,219	287,464	146,038
313,822	4,111	287,370	145,874
314,837	4,172	287,065	145,764
315,852	4,238	286,801	145,680
316,866	4,183	286,867	145,649
317,881	4,219	286,682	145,576
318,895	4,179	286,448	145,405
319,910	4,197	286,079	145,223
320,925	4,094	286,072	145,109
321,939	3,968	285,946	144,913
322,954	4,088	285,670	144,874
323,968	4,400	285,517	145,076
324,983	4,336	285,286	144,886
325,997	4,280	285,202	144,777
327,012	4,339	285,017	144,726
328,027	4,479	284,871	144,770
329,041	4,394	284,662	144,571
330,056	4,252	284,511	144,349
331,070	4,142	284,397	144,175
332,085	4,355	284,177	144,250
333,100	4,441	283,838	144,146
334,114	4,290	283,756	143,951
335,129	4,294	283,680	143,902
336,143	4,325	283,370	143,762
337,158	4,416	283,267	143,781
338,173	4,184	283,055	143,445
339,187	4,137	282,881	143,300
340,202	4,201	282,637	143,223
341,216	4,261	282,538	143,216
342,231	4,286	282,370	143,141
343,246	4,215	282,151	142,952
344,260	4,190	281,919	142,798
345,275	4,187	281,855	142,751
346,289	4,541	281,557	142,914
347,304	4,338	281,462	142,666
348,319	4,404	281,144	142,552
349,333	4,118	281,140	142,273
350,348	4,207	280,954	142,248
351,362	4,595	280,692	142,461
352,377	4,329	280,477	142,095
353,392	4,220	280,340	141,912
354,406	4,216	280,253	141,851
355,421	193,657	1345,760	1413,886
356,435	156,682	1475,567	1413,890
