DTS Sentinel unit serial number:	SN410029Multiplexer serial number:	ORYXHardware model number:	OX2-SRSoftware version number:	ORYX F/W v4,00 Oryx Data Collector v3.7.2.0data status	okinstallation	B4 Nyhavnadifferential loss correction	single-endedforward channel	channel 2reverse channel	N/Adate	2023/12/16time	06:45:13forward acquisition time	300,00reverse acquisition time	0,00gamma	499,1914k internal	0,3127k external	0,3127temperature offset calibration	1,0000default loss term (dB/km)	0,3820temperature slope calibration	1,0000multiplexer offset coefficient	1,0000multiplexer slope coefficient	1,0000fibre end	0,00T internal ref (°C)	22,31T ext. ref 1 (°C)	7,58T ext. ref 2 (°C)	7,77length (m)	temperature (°C)	Stokes	anti-Stokes-744,400	64,309	0,096	0,072
-743,385	-38,736	-0,139	0,054
-742,371	-28,347	0,073	0,031
-741,356	-35,347	-0,115	0,046
-740,342	800,000	-0,016	-0,043
-739,327	-129,692	-0,196	-0,020
-738,312	-121,898	0,122	0,015
-737,298	105,656	-0,166	0,146
-736,283	212,234	0,034	-0,040
-735,269	-40,456	-0,149	0,057
-734,254	-61,645	0,085	-0,026
-733,239	-28,575	-0,300	-0,128
-732,225	-200,000	0,003	-0,162
-731,210	-200,000	0,000	-0,198
-730,196	-200,000	-0,030	-0,139
-729,181	97,764	0,123	-0,105
-728,167	-200,000	-0,022	0,133
-727,152	-200,000	-0,016	-0,055
-726,137	-101,493	-0,174	0,031
-725,123	800,000	0,012	-0,038
-724,108	-7,004	-0,069	-0,035
-723,094	27,788	-0,035	-0,022
-722,079	800,000	-0,055	-0,123
-721,064	-83,228	0,100	0,024
-720,050	-41,657	-0,132	-0,050
-719,035	-79,146	-0,019	0,005
-718,021	800,000	-0,021	-0,049
-717,006	91,843	-0,201	-0,168
-715,991	-2,602	0,085	0,044
-714,977	-27,645	0,095	-0,041
-713,962	84,243	-0,080	0,065
-712,948	800,000	0,081	-0,179
-711,933	35,508	-0,010	-0,007
-710,918	-200,000	-0,017	-0,144
-709,904	-117,941	0,157	0,021
-708,889	162,513	0,023	0,024
-707,875	21,832	-0,126	0,076
-706,860	89,257	0,056	-0,046
-705,845	82,934	0,095	-0,077
-704,831	-200,000	-0,002	-0,130
-703,816	451,033	-0,032	0,052
-702,802	22,066	-0,148	-0,090
-701,787	-172,613	0,085	0,002
-700,772	-92,153	0,135	-0,028
-699,758	800,000	0,057	-0,127
-698,743	196,308	0,018	0,021
-697,729	-5,676	0,090	0,046
-696,714	207,889	0,024	0,028
-695,699	120,148	-0,071	0,066
-694,685	-200,000	-0,006	-0,184
-693,670	-200,000	-0,011	0,039
-692,656	-200,000	0,008	0,041
-691,641	-111,939	-0,046	0,007
-690,627	-200,000	-0,019	-0,063
-689,612	800,000	-0,015	0,041
-688,597	-200,000	-0,023	-0,132
-687,583	7,131	-0,057	-0,031
-686,568	8,054	-0,044	-0,025
-685,554	-61,474	0,044	0,014
-684,539	-132,600	0,082	-0,008
-683,524	-200,000	-0,002	-0,012
-682,510	592,713	-0,026	-0,049
-681,495	-200,000	-0,026	-0,090
-680,481	92,149	-0,010	-0,008
-679,466	800,000	-0,032	-0,077
-678,451	800,000	-0,022	-0,065
-677,437	-2,057	-0,087	-0,045
-676,422	-200,000	-0,029	0,113
-675,408	659,880	0,014	-0,026
-674,393	49,603	-0,085	-0,060
-673,378	235,686	-0,099	-0,121
-672,364	-200,000	-0,017	-0,058
-671,349	138,159	-0,040	-0,039
-670,335	184,222	0,145	-0,159
-669,320	19,642	0,041	-0,025
-668,305	154,153	0,099	-0,101
-667,291	-97,262	0,053	0,010
-666,276	252,659	-0,010	-0,012
-665,262	-200,000	0,021	-0,110
-664,247	-200,000	-0,006	-0,106
-663,232	-156,886	-0,099	0,004
-662,218	127,977	-0,116	0,110
-661,203	-83,727	-0,027	-0,006
-660,189	41,188	0,103	-0,069
-659,174	93,876	-0,056	0,047
-658,159	135,534	-0,146	-0,141
-657,145	-50,395	-0,188	0,066
-656,130	-200,000	-0,016	0,113
-655,116	800,000	-0,021	0,053
-654,101	-200,000	0,016	-0,072
-653,086	-200,000	-0,015	0,089
-652,072	120,522	-0,080	0,074
-651,057	-46,031	-0,091	0,033
-650,043	-132,063	-0,051	-0,005
-649,028	598,707	0,060	-0,111
-648,014	72,167	-0,108	-0,083
-646,999	453,269	0,039	0,064
-645,984	64,332	0,039	-0,029
-644,970	165,798	-0,040	0,042
-643,955	225,864	-0,137	-0,165
-642,941	-200,000	-0,001	-0,050
-641,926	200,329	-0,062	0,071
-640,911	184,888	0,076	-0,084
-639,897	-78,680	0,094	-0,024
-638,882	8,138	-0,073	-0,040
-637,868	226,859	-0,049	-0,059
-636,853	213,286	-0,034	-0,040
-635,838	-59,651	0,077	-0,024
-634,824	500,267	-0,027	0,046
-633,809	123,507	0,112	-0,104
-632,795	-200,000	0,000	0,096
-631,780	-200,000	-0,032	-0,128
-630,765	64,170	-0,022	0,017
-629,751	23,451	0,053	0,032
-628,736	-158,884	-0,039	-0,002
-627,722	-156,481	-0,050	-0,002
-626,707	19,624	-0,148	-0,088
-625,692	800,000	0,023	-0,054
-624,678	130,229	0,075	0,071
-623,663	252,770	0,046	-0,059
-622,649	-3,919	-0,142	-0,073
-621,634	161,516	-0,158	-0,164
-620,619	-149,970	-0,089	0,005
-619,605	-200,000	-0,006	0,023
-618,590	-51,630	0,032	-0,011
-617,576	800,000	-0,052	0,126
-616,561	-200,000	-0,040	0,000
-615,546	677,368	0,050	-0,096
-614,532	34,881	-0,120	-0,078
-613,517	227,218	-0,073	-0,088
-612,503	-200,000	0,004	0,128
-611,488	265,552	-0,072	0,093
-610,474	-200,000	-0,000	0,093
-609,459	480,325	-0,089	-0,150
-608,444	87,699	-0,058	0,048
-607,430	582,459	-0,059	-0,108
-606,415	800,000	0,043	-0,136
-605,401	117,912	-0,045	-0,041
-604,386	42,599	0,087	-0,059
-603,371	170,701	0,062	0,066
-602,357	-200,000	0,009	-0,121
-601,342	-145,190	-0,018	-0,001
-600,328	-200,000	-0,016	0,105
-599,313	-18,440	-0,058	-0,027
-598,298	-200,000	0,041	0,168
-597,284	-31,843	0,072	0,030
-596,269	-15,115	0,026	0,012
-595,255	800,000	0,019	-0,038
-594,240	-15,704	-0,192	-0,090
-593,225	-28,675	-0,095	0,040
-592,211	112,415	-0,106	-0,095
-591,196	220,069	0,072	-0,086
-590,182	-189,630	-0,025	-0,000
-589,167	-110,646	-0,020	-0,003
-588,152	-200,000	-0,025	0,097
-587,138	78,203	-0,018	-0,014
-586,123	-48,907	-0,034	-0,012
-585,109	-200,000	-0,012	-0,045
-584,094	158,841	-0,013	-0,013
-583,079	-200,000	0,002	0,056
-582,065	175,662	0,026	0,028
-581,050	-200,000	0,021	-0,085
-580,036	-200,000	-0,015	-0,125
-579,021	-200,000	-0,005	-0,084
-578,006	-200,000	-0,017	-0,149
-576,992	-200,000	-0,009	-0,093
-575,977	337,126	-0,067	-0,096
-574,963	-77,775	-0,157	0,040
-573,948	-200,000	-0,021	0,105
-572,934	-198,698	-0,056	-0,000
-571,919	331,208	-0,061	-0,087
-570,904	-131,836	0,062	0,006
-569,890	41,724	0,060	-0,040
-568,875	-35,008	-0,109	-0,044
-567,861	-81,791	-0,110	0,026
-566,846	61,334	0,086	0,063
-565,831	-49,764	-0,054	-0,019
-564,817	-30,822	0,063	-0,026
-563,802	-200,000	-0,008	-0,036
-562,788	227,891	-0,034	-0,041
-561,773	-62,295	0,093	-0,028
-560,758	753,870	-0,077	0,155
-559,744	82,269	-0,049	-0,039
-558,729	74,397	0,068	-0,053
-557,715	240,776	0,035	-0,043
-556,700	443,948	-0,062	-0,101
-555,685	-200,000	0,033	0,149
-554,671	-200,000	-0,018	0,138
-553,656	-4,192	-0,036	0,019
-552,642	111,467	0,069	0,062
-551,627	275,033	-0,039	0,051
-550,612	-200,000	-0,006	0,039
-549,598	135,119	0,105	0,101
-548,583	-200,000	0,003	-0,031
-547,569	-200,000	0,022	-0,089
-546,554	393,956	0,060	0,092
-545,539	-188,084	-0,057	-0,001
-544,525	-66,400	-0,140	-0,041
-543,510	317,858	-0,061	-0,085
-542,496	-200,000	0,006	-0,022
-541,481	54,191	0,085	-0,060
-540,466	89,010	-0,103	-0,085
-539,452	64,128	0,077	-0,057
-538,437	-5,147	0,140	0,071
-537,423	113,776	0,066	0,059
-536,408	-57,898	-0,137	-0,044
-535,393	-67,667	0,085	-0,024
-534,379	136,179	-0,112	-0,108
-533,364	281,343	0,067	-0,089
-532,350	800,000	0,040	-0,101
-531,335	-27,314	0,072	-0,031
-530,321	-106,022	0,277	-0,045
-529,306	316,108	-0,083	-0,116
-528,291	169,399	-0,009	-0,010
-527,277	-63,634	-0,130	0,039
-526,262	405,975	-0,084	-0,132
-525,248	-74,170	0,105	-0,028
-524,233	-57,574	0,156	-0,050
-523,218	203,938	0,020	-0,023
-522,204	800,000	-0,026	0,072
-521,189	151,545	-0,081	-0,081
-520,175	61,644	-0,057	0,041
-519,160	293,960	0,038	-0,051
-518,145	800,000	-0,014	0,041
-517,131	408,528	0,062	0,098
-516,116	800,000	0,046	0,111
-515,102	229,719	-0,061	-0,074
-514,087	58,067	0,028	0,020
-513,072	-61,542	-0,174	-0,053
-512,058	15,121	0,064	0,037
-511,043	-200,000	0,014	-0,051
-510,029	-44,981	0,010	0,004
-509,014	138,379	0,090	0,087
-507,999	-34,897	0,088	-0,035
-506,985	373,064	-0,048	0,073
-505,970	234,882	0,075	0,091
-504,956	141,006	0,055	0,054
-503,941	-129,557	0,047	-0,005
-502,926	121,583	0,058	0,053
-501,912	-108,488	0,131	0,021
-500,897	103,320	-0,066	0,057
-499,883	374,856	-0,101	-0,152
-498,868	-90,181	-0,044	0,009
-497,853	-200,000	0,011	-0,053
-496,839	-200,000	-0,007	-0,030
-495,824	56,118	-0,085	0,060
-494,810	-107,345	0,119	0,019
-493,795	-129,678	0,055	0,006
-492,781	190,141	0,046	0,050
-491,766	-200,000	-0,043	-0,190
-490,751	-200,000	-0,025	-0,142
-489,737	0,216	-0,095	0,050
-488,722	51,006	0,059	0,041
-487,708	-49,162	-0,063	-0,022
-486,693	-200,000	0,017	0,057
-485,678	800,000	-0,072	-0,150
-484,664	800,000	-0,030	-0,064
-483,649	-19,065	-0,119	-0,054
-482,635	186,716	0,035	0,038
-481,620	-200,000	0,005	0,127
-480,605	-151,196	0,098	0,005
-479,591	-99,939	0,090	0,016
-478,576	800,000	0,022	-0,060
-477,562	-79,319	0,078	0,019
-476,547	-159,258	-0,042	-0,002
-475,532	-163,311	0,084	0,003
-474,518	-181,556	-0,061	-0,001
-473,503	105,929	0,055	0,048
-472,489	-71,839	-0,151	0,041
-471,474	800,000	0,034	0,096
-470,459	118,853	0,055	0,050
-469,445	-81,947	-0,048	0,011
-468,430	-200,000	0,002	-0,050
-467,416	456,100	0,102	-0,168
-466,401	-200,000	0,006	-0,059
-465,386	582,135	0,053	0,096
-464,372	-200,000	0,008	-0,050
-463,357	-200,000	-0,006	-0,049
-462,343	-102,328	0,124	0,022
-461,328	-73,989	0,016	0,004
-460,313	-71,953	-0,054	0,015
-459,299	-200,000	-0,021	0,081
-458,284	19,890	0,018	-0,011
-457,270	-107,846	0,112	0,018
-456,255	-22,640	-0,070	-0,031
-455,241	151,890	-0,145	-0,145
-454,226	174,290	0,047	-0,050
-453,211	56,122	-0,028	0,020
-452,197	-200,000	0,014	0,186
-451,182	380,583	0,079	0,120
-450,168	206,598	0,073	-0,084
-449,153	10,280	0,066	-0,037
-448,138	-9,053	0,008	0,004
-447,124	329,229	-0,023	0,033
-446,109	379,666	-0,029	0,045
-445,095	124,073	-0,041	-0,037
-444,080	484,366	0,021	-0,035
-443,065	-171,015	0,124	-0,003
-442,051	21,847	-0,079	-0,047
-441,036	141,927	-0,096	0,093
-440,022	-144,997	-0,095	-0,006
-439,007	32,646	-0,060	0,038
-437,992	151,324	0,085	0,085
-436,978	-200,000	-0,005	-0,044
-435,963	-71,739	0,101	0,028
-434,949	-109,633	-0,103	-0,016
-433,934	201,092	-0,140	0,158
-432,919	11,981	0,080	0,045
-431,905	425,277	-0,094	-0,150
-430,890	247,338	0,147	0,183
-429,876	-137,290	0,118	-0,010
-428,861	-200,000	0,062	0,000
-427,846	273,330	-0,072	-0,094
-426,832	-61,758	-0,121	0,037
-425,817	108,045	-0,058	-0,051
-424,803	-113,770	-0,098	0,014
-423,788	-200,000	-0,006	0,094
-422,773	33,479	0,096	0,061
-421,759	-115,529	0,085	0,012
-420,744	-66,643	-0,012	0,003
-419,730	45,304	0,080	-0,054
-418,715	800,000	-0,012	-0,036
-417,701	800,000	-0,021	0,043
-416,686	-168,209	-0,136	-0,004
-415,671	25,604	0,134	-0,082
-414,657	-200,000	0,013	0,080
-413,642	-91,544	-0,062	-0,013
-412,628	182,054	0,056	-0,061
-411,613	-66,985	0,132	0,038
-410,598	34,320	-0,097	-0,062
-409,584	89,262	-0,107	-0,087
-408,569	-200,000	0,037	-0,127
-407,555	286,814	-0,078	0,103
-406,540	261,036	0,036	0,046
-405,525	-200,000	0,035	0,122
-404,511	-33,519	-0,060	0,024
-403,496	156,051	-0,068	0,069
-402,482	36,306	0,101	-0,065
-401,467	30,089	0,034	-0,021
-400,452	800,000	0,023	0,052
-399,438	161,480	-0,078	0,081
-398,423	800,000	-0,081	-0,224
-397,409	800,000	-0,031	-0,067
-396,394	-200,000	0,034	-0,201
-395,379	-99,276	-0,048	-0,009
-394,365	57,077	0,024	-0,017
-393,350	130,071	-0,123	0,116
-392,336	35,535	0,005	0,003
-391,321	-200,000	0,035	0,233
-390,306	665,128	0,058	0,110
-389,292	-200,000	-0,006	0,036
-388,277	-20,570	0,128	0,058
-387,263	800,000	-0,015	-0,041
-386,248	-45,679	0,099	0,036
-385,233	-200,000	-0,007	0,088
-384,219	-2,570	0,072	0,037
-383,204	800,000	-0,032	-0,089
-382,190	-28,615	-0,143	-0,060
-381,175	35,335	-0,143	-0,092
-380,160	133,591	-0,065	-0,062
-379,146	-105,306	0,080	0,013
-378,131	800,000	-0,007	0,021
-377,117	-200,000	-0,029	0,157
-376,102	800,000	-0,073	0,216
-375,088	-200,000	-0,012	0,183
-374,073	-200,000	0,009	-0,069
-373,058	637,413	-0,030	0,055
-372,044	48,362	-0,047	0,032
-371,029	800,000	0,040	0,117
-370,015	230,832	-0,116	0,140
-369,000	92,335	0,133	-0,110
-367,985	76,820	-0,062	0,049
-366,971	-92,028	0,153	-0,031
-365,956	75,062	-0,053	0,041
-364,942	800,000	-0,047	0,099
-363,927	-200,000	-0,018	0,079
-362,912	159,307	0,043	-0,044
-361,898	114,298	-0,120	0,107
-360,883	800,000	-0,064	-0,199
-359,869	645,144	-0,060	-0,113
-358,854	-161,148	-0,123	-0,005
-357,839	-73,176	-0,121	0,032
-356,825	-69,969	-0,053	0,015
-355,810	-82,063	0,214	0,051
-354,796	50,299	0,113	-0,078
-353,781	-200,000	-0,004	0,023
-352,766	800,000	0,021	0,066
-351,752	-81,025	-0,089	-0,021
-350,737	305,571	0,024	-0,032
-349,723	-79,328	0,007	0,002
-348,708	800,000	-0,026	0,059
-347,693	-62,600	-0,077	0,023
-346,679	800,000	-0,039	-0,109
-345,664	-200,000	-0,016	-0,100
-344,650	-143,203	0,078	-0,005
-343,635	184,079	0,076	0,082
-342,620	-200,000	-0,020	-0,113
-341,606	-70,568	0,059	0,016
-340,591	-200,000	0,005	-0,072
-339,577	-200,000	-0,017	-0,058
-338,562	-16,461	0,046	-0,021
-337,548	473,309	0,095	-0,157
-336,533	-200,000	-0,011	0,097
-335,518	85,580	-0,088	0,070
-334,504	51,583	-0,029	0,020
-333,489	-119,606	-0,055	0,007
-332,475	270,745	0,059	-0,077
-331,460	26,868	0,111	0,068
-330,445	-200,000	0,013	0,087
-329,431	-52,141	0,119	0,040
-328,416	-64,806	-0,088	0,026
-327,402	-132,415	0,087	-0,008
-326,387	203,227	-0,045	-0,051
-325,372	-200,000	0,004	-0,097
-324,358	-53,087	0,176	-0,059
-323,343	81,062	0,007	-0,006
-322,329	-122,279	0,163	0,019
-321,314	-200,000	-0,005	0,060
-320,299	800,000	0,019	0,050
-319,285	23,636	0,142	0,086
-318,270	-200,000	0,004	-0,075
-317,256	145,690	-0,032	0,031
-316,241	800,000	0,043	-0,132
-315,226	-42,337	0,160	-0,059
-314,212	-121,451	-0,105	-0,013
-313,197	-200,000	-0,008	0,155
-312,183	766,461	0,032	-0,064
-311,168	31,721	-0,059	0,037
-310,153	249,709	0,040	-0,050
-309,139	-200,000	0,011	0,048
-308,124	157,044	-0,046	-0,047
-307,110	800,000	-0,046	0,145
-306,095	-178,522	-0,045	-0,001
-305,080	107,266	-0,034	0,030
-304,066	245,484	-0,058	0,071
-303,051	-200,000	0,014	0,051
-302,037	-60,607	-0,058	-0,018
-301,022	800,000	0,057	-0,166
-300,008	800,000	0,044	0,128
-298,993	147,964	-0,062	-0,061
-297,978	49,365	-0,101	0,069
-296,964	800,000	-0,060	0,122
-295,949	16,266	0,050	0,029
-294,935	171,490	-0,025	-0,026
-293,920	-200,000	0,017	0,085
-292,905	-88,151	0,084	-0,018
-291,891	800,000	0,034	0,084
-290,876	62,390	0,167	0,122
-289,862	-200,000	0,009	0,189
-288,847	-200,000	-0,063	0,000
-287,832	-142,865	-0,076	0,005
-286,818	800,000	-0,017	-0,045
-285,803	541,372	0,084	0,147
-284,789	55,482	-0,071	0,050
-283,774	-200,000	0,016	-0,115
-282,759	-200,000	-0,021	0,131
-281,745	-11,344	0,062	0,030
-280,730	-200,000	-0,020	-0,109
-279,716	-63,799	-0,127	-0,038
-278,701	800,000	0,005	-0,015
-277,686	-157,706	0,108	-0,005
-276,672	89,009	-0,070	0,057
-275,657	22,929	-0,113	0,068
-274,643	-200,000	0,039	0,143
-273,628	-200,000	0,012	0,061
-272,613	482,947	0,027	0,045
-271,599	225,237	-0,066	0,079
-270,584	52,454	0,049	-0,034
-269,570	17,081	0,037	-0,021
-268,555	88,738	-0,061	0,049
-267,540	376,764	-0,076	-0,114
-266,526	68,588	0,076	-0,057
-265,511	27,881	-0,102	-0,062
-264,497	-200,000	0,018	0,084
-263,482	-200,000	0,020	0,083
-262,467	-132,202	0,074	-0,007
-261,453	355,238	-0,050	-0,073
-260,438	-113,469	0,073	-0,010
-259,424	-11,392	-0,093	0,045
-258,409	33,073	-0,059	0,037
-257,395	692,476	0,051	-0,098
-256,380	522,628	0,076	0,130
-255,365	268,313	0,071	0,091
-254,351	762,852	0,109	0,217
-253,336	-200,000	-0,027	0,134
-252,322	800,000	-0,057	-0,143
-251,307	-200,000	-0,005	0,097
-250,292	-200,000	-0,005	-0,160
-249,278	-146,488	-0,055	0,003
-248,263	800,000	-0,023	0,056
-247,249	-57,345	0,092	-0,029
-246,234	593,414	-0,086	-0,156
-245,219	800,000	-0,064	-0,160
-244,205	442,523	0,042	-0,068
-243,190	391,151	0,117	-0,178
-242,176	-130,612	0,210	-0,020
-241,161	-151,896	-0,132	0,007
-240,146	-110,329	-0,040	0,006
-239,132	-18,608	0,095	-0,043
-238,117	113,277	0,041	0,036
-237,103	-200,000	0,023	0,146
-236,088	273,084	-0,025	0,032
-235,073	-200,000	-0,006	-0,024
-234,059	74,218	-0,015	0,011
-233,044	-200,000	0,052	0,221
-232,030	-200,000	-0,015	0,162
-231,015	-200,000	-0,021	-0,073
-230,000	238,954	0,022	0,027
-228,986	234,832	-0,073	0,088
-227,971	33,102	0,093	0,059
-226,957	-51,850	0,066	0,022
-225,942	98,841	0,043	0,037
-224,927	800,000	0,045	0,128
-223,913	-20,368	0,121	-0,054
-222,898	-97,402	-0,024	0,004
-221,884	138,950	0,100	0,095
-220,869	-200,000	-0,011	0,073
-219,855	522,742	-0,069	0,119
-218,840	225,779	-0,034	0,041
-217,825	-200,000	0,013	-0,202
-216,811	239,373	-0,043	-0,053
-215,796	-200,000	-0,035	-0,114
-214,782	583,802	0,037	-0,067
-213,767	-164,156	0,108	0,004
-212,752	121,584	0,113	0,103
-211,738	239,302	0,050	-0,061
-210,723	275,214	0,055	-0,072
-209,709	-127,007	-0,087	-0,009
-208,694	-86,449	0,080	-0,018
-207,679	208,778	-0,053	0,061
-206,665	-73,932	0,115	-0,030
-205,650	800,000	-0,020	0,048
-204,636	-200,000	-0,023	0,100
-203,621	120,889	0,064	0,058
-202,606	-188,828	0,039	0,000
-201,592	-200,000	-0,025	-0,146
-200,577	-200,000	-0,036	-0,177
-199,563	429,935	-0,049	-0,077
-198,548	-200,000	0,003	0,169
-197,533	-17,858	0,070	-0,032
-196,519	800,000	0,032	-0,071
-195,504	-200,000	-0,008	-0,103
-194,490	35,294	-0,093	-0,060
-193,475	-200,000	-0,005	-0,075
-192,460	-112,602	-0,026	0,004
-191,446	800,000	-0,053	0,123
-190,431	122,800	-0,090	0,082
-189,417	-72,029	0,119	0,032
-188,402	435,101	0,061	-0,097
-187,387	253,362	-0,043	0,054
-186,373	-200,000	0,018	-0,089
-185,358	65,141	-0,128	-0,094
-184,344	81,388	0,076	0,060
-183,329	800,000	0,079	0,172
-182,315	-149,659	0,078	-0,004
-181,300	-193,031	-0,153	0,001
-180,285	-200,000	-0,008	-0,067
-179,271	119,499	-0,044	0,040
-178,256	223,248	-0,065	-0,076
-177,242	-35,362	-0,032	0,013
-176,227	178,742	0,093	-0,100
-175,212	756,075	0,053	-0,105
-174,198	278,784	-0,052	0,068
-173,183	177,108	0,058	-0,061
-172,169	93,324	-0,151	0,124
-171,154	88,320	-0,059	0,047
-170,139	-200,000	0,015	-0,127
-169,125	452,024	-0,045	-0,072
-168,110	128,052	0,103	-0,096
-167,096	582,061	-0,052	0,093
-166,081	84,580	0,097	-0,077
-165,066	-200,000	-0,003	-0,029
-164,052	-110,927	0,138	-0,020
-163,037	276,749	-0,038	0,050
-162,023	46,441	0,018	-0,012
-161,008	16,730	-0,040	0,023
-159,993	-60,980	0,069	0,021
-158,979	-200,000	-0,016	0,052
-157,964	453,335	0,021	0,034
-156,950	174,523	-0,038	0,040
-155,935	-83,261	0,126	0,029
-154,920	-128,226	0,088	0,009
-153,906	800,000	-0,016	0,050
-152,891	-94,984	-0,136	0,026
-151,877	592,485	0,035	0,063
-150,862	694,740	0,074	-0,141
-149,847	-200,000	0,002	-0,066
-148,833	800,000	-0,024	-0,048
-147,818	-200,000	-0,025	-0,085
-146,804	477,574	0,067	0,111
-145,789	800,000	-0,027	-0,063
-144,775	-171,337	0,072	0,002
-143,760	-200,000	0,036	-0,144
-142,745	125,340	-0,072	-0,066
-141,731	434,169	-0,033	-0,052
-140,716	-96,135	0,125	0,024
-139,702	511,361	0,052	0,088
-138,687	-90,678	0,158	-0,033
-137,672	-200,000	-0,017	0,067
-136,658	-17,051	-0,092	0,042
-135,643	-200,000	0,058	-0,243
-134,629	-200,000	-0,003	-0,067
-133,614	-164,410	0,223	0,007
-132,599	278,319	0,048	-0,063
-131,585	-82,285	0,147	0,034
-130,570	706,515	0,024	0,047
-129,556	-81,847	-0,092	0,022
-128,541	271,006	-0,030	-0,038
-127,526	210,164	0,048	-0,055
-126,512	-125,065	0,111	-0,012
-125,497	626,072	0,023	-0,043
-124,483	79,320	0,135	-0,105
-123,468	16,036	-0,051	-0,029
-122,453	-200,000	0,014	-0,049
-121,439	211,685	0,030	0,034
-120,424	-200,000	0,024	-0,112
-119,410	145,110	-0,033	0,032
-118,395	-200,000	0,013	0,084
-117,380	301,028	0,073	-0,098
-116,366	-200,000	0,007	-0,049
-115,351	800,000	-0,040	0,103
-114,337	59,005	-0,152	-0,108
-113,322	-163,929	0,179	0,006
-112,307	-200,000	0,008	0,102
-111,293	-91,198	0,126	0,026
-110,278	664,833	-0,010	-0,019
-109,264	-94,994	0,156	-0,030
-108,249	800,000	-0,022	-0,057
-107,234	-200,000	-0,016	0,142
-106,220	-200,000	0,026	-0,123
-105,205	-64,799	-0,100	0,029
-104,191	176,066	0,032	-0,034
-103,176	800,000	-0,066	0,154
-102,162	10,271	0,057	-0,031
-101,147	298,239	0,040	0,054
-100,132	-200,000	-0,013	-0,080
-99,118	-200,000	-0,010	0,033
-98,103	186,887	-0,019	-0,021
-97,089	800,000	-0,014	0,039
-96,074	91,905	0,119	-0,097
-95,059	-200,000	0,005	0,089
-94,045	312,040	-0,068	0,092
-93,030	800,000	-0,064	-0,134
-92,016	489,197	0,075	-0,126
-91,001	-116,028	-0,083	0,011
-89,986	-15,418	-0,088	-0,041
-88,972	-200,000	-0,029	0,093
-87,957	-74,976	0,032	-0,008
-86,943	450,447	0,023	0,036
-85,928	-60,118	0,129	-0,040
-84,913	263,944	0,033	0,042
-83,899	-200,000	-0,027	-0,128
-82,884	-71,380	-0,103	0,028
-81,870	224,610	-0,071	-0,084
-80,855	800,000	-0,041	-0,113
-79,840	-44,480	-0,223	0,081
-78,826	468,427	-0,025	-0,040
-77,811	607,690	-0,048	-0,088
-76,797	800,000	-0,030	-0,070
-75,782	-82,400	0,046	-0,011
-74,767	-200,000	-0,011	0,067
-73,753	-200,000	-0,003	0,094
-72,738	59,609	0,051	0,036
-71,724	556,966	-0,015	-0,027
-70,709	323,198	-0,047	-0,065
-69,694	-147,277	0,036	-0,002
-68,680	-73,470	0,038	-0,010
-67,665	4,949	0,080	0,043
-66,651	124,521	0,094	-0,086
-65,636	-200,000	0,005	0,091
-64,622	96,433	0,027	-0,022
-63,607	-200,000	-0,026	0,098
-62,592	552,273	-0,030	0,052
-61,578	455,335	0,038	0,061
-60,563	199,065	0,070	-0,078
-59,549	38,317	0,021	-0,014
-58,534	-183,189	-1,413	-0,018
-57,519	574,612	-0,830	-1,473
-56,505	-200,000	-0,787	-4,302
-55,490	13,039	0,578	-0,323
-54,476	800,000	4,730	11,546
-53,461	-200,000	13,739	251,253
-52,446	-200,000	689,280	2247,940
-51,432	591,223	1619,854	2908,731
-50,417	119,279	1631,722	1462,930
-49,403	74,255	1286,563	978,122
-48,388	38,202	1022,459	658,158
-47,373	24,375	980,503	585,808
-46,359	23,531	970,052	576,780
-45,344	22,488	965,734	570,792
-44,330	22,503	964,214	569,920
-43,315	22,281	962,970	568,441
-42,300	22,363	961,722	567,949
-41,286	22,404	960,864	567,551
-40,271	22,315	959,869	566,655
-39,257	22,278	959,068	566,039
-38,242	22,309	958,016	565,497
-37,227	22,268	957,306	564,923
-36,213	22,330	956,286	564,497
-35,198	22,273	955,548	563,854
-34,184	22,382	954,835	563,765
-33,169	22,304	954,033	563,016
-32,154	22,392	952,906	562,610
-31,140	22,279	952,282	561,857
-30,125	22,356	951,401	561,562
-29,111	22,327	950,563	560,954
-28,096	22,364	949,907	560,664
-27,082	22,413	949,239	560,402
-26,067	22,326	948,450	559,638
-25,052	22,371	947,571	559,239
-24,038	22,420	947,008	559,040
-23,023	22,372	946,383	558,498
-22,009	22,363	945,684	558,034
-20,994	22,381	945,067	557,704
-19,979	22,394	944,441	557,355
-18,965	22,321	944,054	556,873
-17,950	22,378	943,204	556,529
-16,936	22,306	942,566	555,903
-15,921	22,299	941,785	555,398
-14,906	22,265	941,211	554,929
-13,892	22,221	940,570	554,389
-12,877	22,254	939,965	554,116
-11,863	22,224	939,336	553,627
-10,848	22,187	938,803	553,175
-9,833	22,320	938,242	553,243
-8,819	22,348	937,707	552,993
-7,804	22,214	937,098	552,189
-6,790	22,179	936,712	551,829
-5,775	22,255	935,889	551,561
-4,760	22,257	935,232	551,160
-3,746	22,285	934,601	550,854
-2,731	22,121	933,763	549,822
-1,717	22,062	933,216	549,292
-0,702	22,087	932,634	549,008
0,313	21,834	931,929	548,626
1,327	24,358	929,444	555,025
2,342	32,053	807,791	503,179
3,356	27,243	507,755	308,081
4,371	3,218	372,518	195,605
5,386	0,194	355,413	182,915
6,400	-1,315	349,162	177,869
7,415	-2,239	346,344	175,317
8,429	-2,302	344,933	174,511
9,444	-2,289	343,925	174,001
10,459	-2,248	343,234	173,685
11,473	-2,334	342,768	173,332
12,488	-1,953	342,356	173,557
13,502	-1,807	341,612	173,337
14,517	-1,803	341,037	173,034
15,531	-2,186	340,542	172,319
16,546	-2,111	340,044	172,139
17,561	-2,210	339,727	171,847
18,575	-2,065	339,294	171,783
19,590	-2,205	338,814	171,361
20,604	-2,144	338,524	171,270
21,619	-2,269	338,352	171,022
22,634	-2,219	337,867	170,820
23,648	-2,129	337,468	170,707
24,663	-2,187	337,163	170,471
25,677	-2,218	337,061	170,367
26,692	-2,280	336,622	170,059
27,707	-2,258	336,427	169,971
28,721	-2,117	335,928	169,867
29,736	-2,201	335,740	169,659
30,750	-2,271	335,283	169,333
31,765	-2,251	335,039	169,217
32,780	-2,326	334,772	168,981
33,794	-2,306	334,610	168,907
34,809	-2,166	334,181	168,837
35,823	-2,292	333,892	168,530
36,838	-2,331	333,721	168,385
37,853	-2,331	333,295	168,155
38,867	-2,358	333,114	168,018
39,882	-2,283	332,693	167,875
40,896	-2,193	332,508	167,871
41,911	-2,511	332,327	167,401
42,926	-2,296	331,894	167,413
43,940	-2,350	331,694	167,235
44,955	-2,404	331,497	167,061
45,969	-2,312	331,202	167,001
46,984	-2,487	330,816	166,593
47,999	-2,725	330,604	166,202
49,013	-2,850	330,158	165,821
50,028	-2,951	330,038	165,631
51,042	-2,987	329,665	165,389
52,057	-2,983	329,483	165,287
53,071	-2,878	329,111	165,204
54,086	-2,860	328,900	165,104
55,101	-2,841	328,626	164,974
56,115	-2,568	328,586	165,246
57,130	-2,405	328,434	165,339
58,144	-2,211	328,120	165,384
59,159	-2,151	327,936	165,343
60,174	-2,101	327,724	165,279
61,188	-2,040	327,344	165,140
62,203	-2,094	327,174	164,979
63,217	-2,204	326,844	164,675
64,232	-2,110	326,627	164,656
65,247	-2,010	326,417	164,647
66,261	-2,155	326,189	164,355
67,276	-2,197	325,777	164,087
68,290	-2,472	325,419	163,584
69,305	-2,487	325,264	163,476
70,320	-2,351	324,922	163,441
71,334	-2,335	324,864	163,415
72,349	-2,029	324,799	163,707
73,363	-1,896	324,377	163,628
74,378	-2,114	324,148	163,256
75,393	-1,964	323,847	163,257
76,407	-2,045	323,655	163,055
77,422	-2,230	323,389	162,702
78,436	-2,205	323,198	162,619
79,451	-1,962	322,745	162,645
80,466	-2,186	322,665	162,343
81,480	-2,461	322,377	161,880
82,495	-2,505	321,929	161,592
83,509	-2,337	321,767	161,681
84,524	-2,521	321,446	161,304
85,539	-2,583	321,188	161,092
86,553	-2,582	320,939	160,953
87,568	-2,521	320,782	160,927
88,582	-2,353	320,477	160,944
89,597	-2,505	320,338	160,693
90,611	-2,423	320,198	160,698
91,626	-2,362	320,094	160,699
92,641	-2,272	319,780	160,624
93,655	-2,393	319,466	160,320
94,670	-2,405	319,239	160,179
95,684	-2,307	318,956	160,130
96,699	-2,383	318,809	159,959
97,714	-2,419	318,548	159,775
98,728	-2,370	318,202	159,640
99,743	-2,563	318,003	159,317
100,757	-2,666	317,666	159,022
101,772	-2,483	317,473	159,110
102,787	-2,376	317,334	159,141
103,801	-2,475	317,002	158,854
104,816	-2,365	316,953	158,934
105,830	-2,350	316,800	158,859
106,845	-2,225	316,676	158,918
107,860	-2,280	316,363	158,687
108,874	-2,284	316,022	158,498
109,889	-2,297	315,787	158,352
110,903	-2,422	315,707	158,163
111,918	-2,495	315,384	157,909
112,933	-2,243	315,108	158,027
113,947	-2,287	314,965	157,894
114,962	-2,461	314,779	157,600
115,976	-2,151	314,491	157,775
116,991	-2,282	314,112	157,429
118,006	-2,087	313,942	157,539
119,020	-2,339	313,890	157,229
120,035	-2,130	313,625	157,306
121,049	-2,189	313,415	157,124
122,064	-2,143	313,172	157,037
123,079	-2,124	312,957	156,936
124,093	-2,317	312,730	156,602
125,108	-2,524	312,510	156,257
126,122	-2,588	312,091	155,966
127,137	-2,709	311,808	155,681
128,151	-2,568	311,746	155,787
129,166	-2,458	311,462	155,748
130,181	-2,562	311,356	155,570
131,195	-2,564	311,059	155,407
132,210	-2,352	310,750	155,462
133,224	-2,282	310,650	155,473
134,239	-2,237	310,446	155,404
135,254	-2,150	310,205	155,361
136,268	-2,397	310,012	154,991
137,283	-2,490	309,654	154,700
138,297	-2,676	309,483	154,404
139,312	-2,725	309,293	154,244
140,327	-2,500	309,235	154,438
141,341	-2,117	308,981	154,701
142,356	-2,092	308,962	154,703
143,370	-1,874	308,710	154,793
144,385	-1,833	308,453	154,692
145,400	-1,920	308,263	154,493
146,414	-1,935	308,115	154,389
147,429	-1,824	307,740	154,303
148,443	-1,909	307,697	154,179
149,458	-1,916	307,385	154,002
150,473	-1,840	307,094	153,921
151,487	-2,038	306,880	153,594
152,502	-1,997	306,629	153,497
153,516	-2,014	306,528	153,415
154,531	-1,956	306,356	153,376
155,546	-1,995	306,034	153,161
156,560	-2,158	305,923	152,921
157,575	-2,213	305,478	152,628
158,589	-2,150	305,368	152,625
159,604	-1,912	304,992	152,670
160,619	-1,990	304,983	152,572
161,633	-2,024	304,728	152,395
162,648	-2,077	304,707	152,316
163,662	-2,003	304,500	152,275
164,677	-2,125	304,189	151,981
165,692	-1,954	304,114	152,105
166,706	-1,936	303,851	151,979
167,721	-2,111	303,554	151,637
168,735	-1,965	303,465	151,730
169,750	-1,972	303,391	151,672
170,764	-1,870	303,202	151,668
171,779	-1,824	302,990	151,597
172,794	-1,808	302,738	151,473
173,808	-2,117	302,660	151,104
174,823	-2,428	302,125	150,504
175,837	-2,354	301,869	150,438
176,852	-2,033	301,662	150,650
177,867	-2,076	301,865	150,694
178,881	-2,044	301,608	150,586
179,896	-1,866	301,485	150,693
180,910	-1,848	301,322	150,616
181,925	-1,892	300,946	150,370
182,940	-1,852	300,827	150,338
183,954	-1,902	300,463	150,092
184,969	-1,812	300,311	150,094
185,983	-2,025	300,274	149,846
186,998	-1,887	299,971	149,821
188,013	-1,871	299,700	149,688
189,027	-1,768	299,425	149,642
190,042	-1,876	299,286	149,449
191,056	-1,757	299,116	149,473
192,071	-1,793	298,982	149,356
193,086	-1,662	298,747	149,357
194,100	-1,772	298,585	149,152
195,115	-1,700	298,288	149,063
196,129	-1,862	298,069	148,776
197,144	-1,854	297,870	148,672
198,159	-1,810	297,717	148,627
199,173	-1,790	297,422	148,487
200,188	-1,788	297,353	148,441
201,202	-1,831	297,004	148,210
202,217	-2,423	296,533	147,368
203,232	-2,321	296,188	147,286
204,246	-2,055	296,438	147,663
205,261	-1,880	296,202	147,708
206,275	-1,838	295,995	147,634
207,290	-1,793	295,773	147,555
208,304	-1,821	295,678	147,466
209,319	-1,901	295,405	147,237
210,334	-1,901	295,220	147,132
211,348	-1,849	294,935	147,029
212,363	-1,994	294,776	146,792
213,377	-1,971	294,688	146,757
214,392	-1,841	294,496	146,779
215,407	-1,897	294,277	146,600
216,421	-2,180	293,915	146,126
217,436	-2,195	293,665	145,974
218,450	-2,222	293,627	145,915
219,465	-1,937	293,369	146,056
220,480	-2,006	293,122	145,852
221,494	-1,927	292,992	145,853
222,509	-2,078	292,811	145,600
223,523	-1,854	292,793	145,799
224,538	-2,018	292,697	145,576
225,553	-1,787	292,425	145,657
226,567	-1,919	292,170	145,386
227,582	-1,770	292,066	145,468
228,596	-1,921	291,913	145,230
229,611	-1,771	291,692	145,255
230,626	-1,770	291,369	145,083
231,640	-2,137	291,107	144,579
232,655	-2,433	290,825	144,135
233,669	-2,450	290,499	143,944
234,684	-2,425	290,205	143,810
235,699	-2,223	290,172	143,979
236,713	-2,322	290,178	143,872
237,728	-2,184	289,953	143,882
238,742	-2,011	289,819	143,972
239,757	-1,986	289,664	143,906
240,772	-1,942	289,495	143,852
241,786	-2,026	289,248	143,636
242,801	-1,989	288,902	143,487
243,815	-2,013	288,853	143,426
244,830	-2,139	288,660	143,195
245,844	-2,115	288,507	143,130
246,859	-2,222	288,349	142,934
247,874	-2,190	288,043	142,801
248,888	-2,158	287,953	142,774
249,903	-2,106	287,827	142,750
250,917	-1,872	287,724	142,913
251,932	-1,724	287,594	142,979
252,947	-1,213	287,458	143,393
253,961	-1,842	287,149	142,618
254,976	-0,904	287,667	143,771
255,990	1,547	288,361	146,482
257,005	2,359	288,646	147,401
258,020	3,921	288,884	149,025
259,034	4,205	288,746	149,215
260,049	4,029	288,551	148,931
261,063	3,867	288,117	148,537
262,078	4,011	288,287	148,750
263,093	4,665	288,275	149,363
264,107	4,605	288,022	149,160
265,122	4,574	287,878	149,042
266,136	4,806	287,896	149,263
267,151	4,836	287,454	149,049
268,166	4,555	287,273	148,671
269,180	4,592	287,092	148,600
270,195	4,535	286,932	148,450
271,209	4,714	286,792	148,535
272,224	4,419	286,443	148,058
273,239	4,225	286,428	147,851
274,253	4,400	286,198	147,887
275,268	4,833	286,066	148,220
276,282	4,736	285,830	147,992
277,297	4,706	285,567	147,814
278,312	4,925	285,446	147,948
279,326	4,766	285,394	147,756
280,341	4,517	285,194	147,401
281,355	4,461	284,824	147,143
282,370	4,453	284,662	147,039
283,384	4,433	284,595	146,972
284,399	4,511	284,384	146,925
285,414	4,535	284,109	146,793
286,428	4,266	283,970	146,452
287,443	4,309	283,588	146,283
288,457	4,175	283,365	146,027
289,472	4,213	283,202	145,966
290,487	4,273	283,097	145,956
291,501	3,975	282,876	145,547
292,516	4,076	282,586	145,480
293,530	3,854	282,461	145,193
294,545	4,155	282,577	145,524
295,560	4,231	282,216	145,397
296,574	4,116	282,005	145,167
297,589	4,101	282,006	145,140
298,603	4,473	281,801	145,372
299,618	4,555	281,693	145,381
300,633	4,496	281,366	145,144
301,647	4,456	281,167	144,990
302,662	4,408	281,035	144,864
303,676	4,186	280,817	144,531
304,691	4,077	280,456	144,230
305,706	3,962	280,157	143,956
306,720	4,012	280,038	143,928
307,735	3,908	279,911	143,754
308,749	4,015	279,864	143,817
309,764	4,177	279,629	143,834
310,779	3,772	279,410	143,330
311,793	3,798	279,160	143,214
312,808	3,831	278,994	143,147
313,822	3,955	278,761	143,130
314,837	3,786	278,589	142,871
315,852	3,764	278,338	142,710
316,866	3,886	278,199	142,739
317,881	3,911	278,057	142,676
318,895	3,870	277,993	142,593
319,910	3,782	277,682	142,339
320,925	3,707	277,345	142,084
321,939	3,963	277,418	142,346
322,954	4,070	277,282	142,362
323,968	3,982	277,167	142,210
324,983	4,212	276,948	142,296
325,997	4,062	276,801	142,070
327,012	4,273	276,561	142,128
328,027	4,211	276,318	141,934
329,041	4,168	276,404	141,925
330,056	4,022	276,178	141,663
331,070	4,166	275,910	141,645
332,085	4,116	275,820	141,540
333,100	4,114	275,632	141,429
334,114	4,103	275,395	141,286
335,129	4,061	275,105	141,086
336,143	4,074	275,109	141,086
337,158	4,255	274,963	141,165
338,173	4,075	274,901	140,955
339,187	4,202	274,469	140,837
340,202	4,184	274,401	140,774
341,216	4,441	274,228	140,908
342,231	4,100	274,094	140,514
343,246	4,185	273,786	140,422
344,260	3,997	273,701	140,194
345,275	4,368	273,548	140,441
346,289	4,383	273,534	140,435
347,304	4,539	273,361	140,476
348,319	4,256	273,116	140,081
349,333	4,172	272,857	139,858
350,348	4,332	272,827	139,975
351,362	4,377	272,786	139,983
352,377	4,428	272,469	139,854
353,392	4,368	272,274	139,688
354,406	4,389	272,175	139,643
355,421	191,719	1331,181	1409,767
356,435	154,885	1460,304	1409,883
