DTS Sentinel unit serial number:	SN410029Multiplexer serial number:	ORYXHardware model number:	OX2-SRSoftware version number:	ORYX F/W v4,00 Oryx Data Collector v3.7.2.0data status	okinstallation	B4 Nyhavnadifferential loss correction	single-endedforward channel	channel 2reverse channel	N/Adate	2023/12/16time	14:05:13forward acquisition time	300,00reverse acquisition time	0,00gamma	499,1914k internal	0,3125k external	0,3125temperature offset calibration	1,0000default loss term (dB/km)	0,3820temperature slope calibration	1,0000multiplexer offset coefficient	1,0000multiplexer slope coefficient	1,0000fibre end	0,00T internal ref (°C)	25,22T ext. ref 1 (°C)	11,36T ext. ref 2 (°C)	11,53length (m)	temperature (°C)	Stokes	anti-Stokes-744,400	271,508	0,023	-0,030
-743,385	535,297	-0,146	0,259
-742,371	357,475	-0,082	-0,122
-741,356	-24,796	-0,174	0,077
-740,342	563,648	-0,023	0,041
-739,327	-35,570	-0,211	0,085
-738,312	116,532	-0,040	-0,036
-737,298	247,193	-0,127	0,159
-736,283	282,730	0,033	-0,044
-735,269	96,333	-0,194	0,166
-734,254	-139,305	0,114	0,009
-733,239	-175,188	-0,393	-0,008
-732,225	800,000	0,066	-0,175
-731,210	39,324	-0,087	0,058
-730,196	-200,000	0,010	-0,050
-729,181	-159,263	-0,151	-0,006
-728,167	283,388	-0,073	-0,098
-727,152	-200,000	0,011	0,072
-726,137	800,000	0,022	-0,062
-725,123	-200,000	-0,008	-0,096
-724,108	244,822	-0,092	-0,116
-723,094	-200,000	-0,003	0,029
-722,079	92,362	0,066	0,056
-721,064	-88,053	-0,079	-0,018
-720,050	668,683	-0,023	-0,044
-719,035	509,165	0,026	0,044
-718,021	-200,000	0,001	-0,037
-717,006	800,000	-0,040	-0,128
-715,991	800,000	-0,047	-0,110
-714,977	23,859	0,030	0,019
-713,962	141,297	0,054	-0,054
-712,948	643,284	0,050	-0,095
-711,933	484,264	-0,005	0,008
-710,918	410,458	0,057	0,091
-709,904	211,348	0,064	-0,075
-708,889	-68,858	-0,135	0,039
-707,875	800,000	0,052	-0,139
-706,860	-166,066	-0,082	0,003
-705,845	12,042	0,171	0,097
-704,831	-200,000	0,000	-0,074
-703,816	-22,104	-0,084	-0,038
-702,802	9,878	-0,112	-0,063
-701,787	-200,000	-0,028	-0,113
-700,772	55,770	0,055	0,039
-699,758	477,970	0,041	-0,069
-698,743	-75,460	-0,070	0,019
-697,729	168,691	0,030	0,031
-696,714	393,751	-0,022	0,034
-695,699	117,344	-0,119	0,109
-694,685	-200,000	-0,002	0,100
-693,670	-72,783	0,032	-0,009
-692,656	250,171	-0,086	-0,109
-691,641	180,575	-0,033	-0,036
-690,627	-64,275	-0,014	-0,004
-689,612	800,000	-0,020	-0,044
-688,597	-200,000	-0,042	-0,148
-687,583	-135,857	-0,153	-0,013
-686,568	120,349	0,019	-0,018
-685,554	208,458	-0,085	-0,099
-684,539	-200,000	-0,008	-0,050
-683,524	43,411	-0,059	0,040
-682,510	786,149	0,032	0,066
-681,495	-200,000	0,013	0,096
-680,481	-200,000	-0,019	0,079
-679,466	212,117	0,101	0,118
-678,451	-39,801	-0,075	0,029
-677,437	181,632	0,100	0,109
-676,422	-14,385	-0,059	0,028
-675,408	186,323	0,051	0,057
-674,393	-50,492	-0,116	0,040
-673,378	-200,000	-0,018	0,156
-672,364	800,000	-0,050	-0,149
-671,349	-139,140	0,110	-0,009
-670,335	95,244	0,064	0,054
-669,320	800,000	-0,051	-0,111
-668,305	-131,625	0,044	0,004
-667,291	590,121	-0,060	-0,110
-666,276	800,000	-0,042	-0,088
-665,262	-71,964	-0,107	0,029
-664,247	-126,686	-0,029	0,003
-663,232	800,000	-0,033	-0,087
-662,218	-200,000	-0,000	0,010
-661,203	73,579	0,086	0,067
-660,189	-156,608	-0,095	0,004
-659,174	-200,000	0,007	-0,042
-658,159	152,696	0,016	-0,016
-657,145	-200,000	0,010	-0,047
-656,130	36,323	-0,064	-0,042
-655,116	800,000	0,005	0,013
-654,101	98,882	0,037	-0,031
-653,086	7,746	-0,185	-0,103
-652,072	-200,000	-0,030	0,157
-651,057	-200,000	-0,007	-0,060
-650,043	122,890	-0,088	-0,082
-649,028	-86,492	-0,053	-0,012
-648,014	411,900	0,029	0,045
-646,999	310,747	0,057	0,079
-645,984	-200,000	-0,013	0,132
-644,970	138,566	-0,109	0,106
-643,955	358,665	-0,043	0,065
-642,941	-200,000	-0,046	-0,198
-641,926	98,744	-0,040	0,034
-640,911	56,381	0,126	0,090
-639,897	177,065	0,048	-0,052
-638,882	800,000	-0,019	-0,048
-637,868	61,723	-0,067	0,049
-636,853	-3,314	-0,031	-0,016
-635,838	-155,132	-0,005	-0,000
-634,824	45,159	-0,078	0,053
-633,809	100,641	0,056	0,048
-632,795	-200,000	-0,003	0,122
-631,780	-81,507	0,070	0,017
-630,765	505,650	0,043	-0,074
-629,751	539,593	-0,025	-0,044
-628,736	-109,189	-0,077	0,012
-627,722	397,291	0,023	0,036
-626,707	137,286	0,024	-0,023
-625,692	569,599	-0,006	0,011
-624,678	-38,991	-0,106	-0,041
-623,663	408,377	-0,047	-0,075
-622,649	137,325	-0,136	0,132
-621,634	288,890	-0,036	-0,048
-620,619	-200,000	-0,009	0,040
-619,605	195,629	-0,055	0,062
-618,590	-200,000	-0,007	-0,041
-617,576	-200,000	0,042	0,151
-616,561	702,006	0,049	0,095
-615,546	-200,000	-0,016	-0,081
-614,532	800,000	-0,041	-0,133
-613,517	-200,000	0,064	-0,213
-612,503	-200,000	-0,001	-0,032
-611,488	-33,918	0,027	-0,011
-610,474	-72,715	-0,082	0,022
-609,459	346,932	-0,053	0,078
-608,444	39,526	-0,096	-0,063
-607,430	800,000	-0,042	-0,132
-606,415	-38,504	-0,038	-0,015
-605,401	-200,000	0,031	-0,143
-604,386	800,000	0,034	-0,078
-603,371	20,934	0,010	-0,006
-602,357	-172,008	0,076	0,002
-601,342	800,000	-0,061	-0,179
-600,328	286,391	-0,065	-0,088
-599,313	178,761	-0,035	-0,038
-598,298	47,881	0,052	0,036
-597,284	772,819	0,024	0,048
-596,269	-70,247	-0,056	0,016
-595,255	-142,725	-0,163	0,012
-594,240	800,000	-0,035	0,082
-593,225	86,469	-0,111	-0,090
-592,211	-200,000	-0,001	-0,014
-591,196	79,074	-0,040	-0,032
-590,182	-25,424	0,150	0,066
-589,167	-139,576	0,128	-0,010
-588,152	-200,000	-0,019	-0,082
-587,138	569,386	0,037	0,067
-586,123	10,063	-0,120	0,068
-585,109	-8,270	-0,089	0,044
-584,094	-200,000	0,044	0,145
-583,079	-200,000	0,007	0,043
-582,065	-92,911	0,129	-0,026
-581,050	800,000	-0,020	0,057
-580,036	-22,879	-0,101	-0,045
-579,021	-111,418	0,103	-0,015
-578,006	800,000	-0,024	0,069
-576,992	-139,574	-0,045	-0,003
-575,977	800,000	-0,043	-0,131
-574,963	-63,238	0,086	0,026
-573,948	-73,014	0,051	0,014
-572,934	800,000	0,054	0,128
-571,919	-200,000	-0,012	0,044
-570,904	103,802	0,024	0,021
-569,890	558,953	0,006	-0,011
-568,875	800,000	0,039	-0,086
-567,861	513,881	0,041	-0,071
-566,846	171,407	-0,079	0,084
-565,831	-200,000	-0,008	-0,172
-564,817	800,000	-0,097	-0,267
-563,802	13,248	-0,050	-0,029
-562,788	-83,192	0,072	-0,017
-561,773	-200,000	-0,004	-0,021
-560,758	-127,480	0,119	0,013
-559,744	-84,892	0,086	0,020
-558,729	-200,000	-0,002	-0,072
-557,715	-30,810	0,080	0,033
-556,700	-149,269	0,064	-0,004
-555,685	112,576	-0,063	-0,057
-554,671	800,000	-0,050	-0,105
-553,656	247,897	-0,074	-0,093
-552,642	-200,000	0,017	0,057
-551,627	-106,371	-0,039	-0,006
-550,612	52,508	0,081	0,057
-549,598	-200,000	0,019	-0,171
-548,583	146,199	-0,112	-0,111
-547,569	-122,517	0,076	0,009
-546,554	-200,000	0,004	0,045
-545,539	-200,000	-0,006	-0,090
-544,525	-87,883	0,128	0,028
-543,510	-63,768	0,060	-0,018
-542,496	125,809	-0,063	-0,059
-541,481	-67,679	-0,087	0,025
-540,466	305,898	0,079	0,109
-539,452	91,281	0,064	0,053
-538,437	550,900	0,057	0,102
-537,423	-200,000	0,004	0,124
-536,408	14,425	-0,104	0,060
-535,393	-200,000	0,003	-0,047
-534,379	-43,402	0,062	-0,023
-533,364	-200,000	-0,027	0,125
-532,350	-200,000	0,012	-0,067
-531,335	587,375	-0,043	-0,078
-530,321	-25,556	0,093	0,040
-529,306	227,275	0,076	0,092
-528,291	166,380	0,008	0,008
-527,277	800,000	-0,033	0,096
-526,262	124,167	-0,109	0,101
-525,248	33,988	0,028	0,018
-524,233	25,198	-0,049	0,030
-523,218	-24,849	0,019	0,008
-522,204	-200,000	0,028	0,183
-521,189	-51,707	-0,156	0,053
-520,175	480,044	0,048	-0,081
-519,160	800,000	-0,026	-0,056
-518,145	800,000	0,021	0,063
-517,131	95,359	0,052	-0,044
-516,116	-90,820	0,094	0,020
-515,102	-200,000	-0,013	0,074
-514,087	-200,000	-0,021	0,162
-513,072	205,396	-0,043	0,050
-512,058	241,013	-0,035	-0,043
-511,043	-200,000	-0,014	0,047
-510,029	-200,000	-0,003	0,053
-509,014	-33,934	0,098	0,039
-507,999	-200,000	-0,004	0,075
-506,985	50,833	-0,018	0,012
-505,970	40,562	-0,108	-0,072
-504,956	72,003	-0,105	0,080
-503,941	555,921	-0,003	-0,006
-502,926	800,000	-0,052	0,112
-501,912	-17,890	-0,039	-0,018
-500,897	800,000	0,036	-0,083
-499,883	-200,000	0,002	-0,075
-498,868	-82,214	-0,115	0,027
-497,853	644,553	-0,027	-0,051
-496,839	414,305	-0,036	0,057
-495,824	-47,174	0,044	0,016
-494,810	-200,000	0,009	0,068
-493,795	-26,632	0,155	0,067
-492,781	-200,000	-0,024	0,121
-491,766	79,434	-0,137	-0,109
-490,751	-200,000	0,004	-0,034
-489,737	40,503	0,174	-0,116
-488,722	-200,000	0,020	-0,084
-487,708	800,000	0,026	0,065
-486,693	800,000	0,036	0,096
-485,678	-150,837	-0,082	0,004
-484,664	-47,481	-0,030	-0,011
-483,649	639,058	0,045	-0,085
-482,635	-200,000	-0,043	0,141
-481,620	-108,713	0,080	-0,013
-480,605	-22,563	0,125	0,056
-479,591	-200,000	0,012	0,102
-478,576	-200,000	0,005	0,069
-477,562	0,807	-0,125	-0,066
-476,547	-65,442	0,025	-0,007
-475,532	208,934	0,016	0,019
-474,518	-72,812	0,047	-0,013
-473,503	-200,000	-0,000	0,002
-472,489	216,673	0,063	0,075
-471,474	-200,000	0,028	0,169
-470,459	-79,234	-0,087	-0,022
-469,445	800,000	-0,027	0,076
-468,430	-6,550	0,042	0,021
-467,416	483,198	0,032	0,053
-466,401	-63,079	-0,040	0,012
-465,386	-200,000	-0,009	0,122
-464,372	-200,000	-0,023	0,116
-463,357	-200,000	0,017	0,129
-462,343	800,000	-0,026	0,086
-461,328	-15,012	0,078	0,037
-460,313	-8,065	-0,063	0,031
-459,299	88,737	0,048	-0,039
-458,284	-103,075	0,172	0,030
-457,270	61,758	-0,144	0,105
-456,255	-200,000	-0,006	0,042
-455,241	-141,027	-0,062	-0,005
-454,226	13,592	-0,106	-0,060
-453,211	476,314	0,047	0,079
-452,197	-82,659	0,065	-0,015
-451,182	-36,366	0,112	0,044
-450,168	266,038	0,040	0,051
-449,153	337,622	-0,018	-0,025
-448,138	22,708	-0,103	-0,062
-447,124	800,000	0,016	-0,041
-446,109	800,000	0,016	0,052
-445,095	800,000	0,031	-0,095
-444,080	-200,000	0,002	0,125
-443,065	77,728	0,085	0,067
-442,051	-140,696	-0,143	0,011
-441,036	-7,361	-0,056	-0,028
-440,022	-200,000	-0,000	0,034
-439,007	336,703	-0,083	-0,119
-437,992	181,307	0,038	0,042
-436,978	499,075	0,033	0,057
-435,963	-86,128	-0,122	0,027
-434,949	256,453	0,042	0,053
-433,934	669,662	0,027	-0,051
-432,919	50,281	-0,079	-0,055
-431,905	-84,051	0,041	0,010
-430,890	-21,680	0,032	-0,014
-429,876	169,447	0,037	0,039
-428,861	-200,000	0,036	0,135
-427,846	800,000	-0,019	0,061
-426,832	-68,817	-0,101	-0,028
-425,817	-195,106	0,248	-0,001
-424,803	800,000	0,023	-0,051
-423,788	-200,000	0,015	0,061
-422,773	100,583	0,081	0,069
-421,759	-200,000	0,010	0,116
-420,744	38,031	0,080	0,052
-419,730	-200,000	-0,022	0,140
-418,715	307,601	-0,036	0,049
-417,701	800,000	0,059	-0,144
-416,686	800,000	0,033	-0,104
-415,671	112,121	0,159	-0,141
-414,657	0,477	0,078	-0,041
-413,642	-146,161	0,121	-0,008
-412,628	10,275	-0,090	-0,050
-411,613	691,647	0,096	-0,186
-410,598	-70,640	-0,124	-0,034
-409,584	72,783	0,094	-0,072
-408,569	-6,721	0,087	-0,044
-407,555	800,000	0,029	-0,084
-406,540	-200,000	0,006	0,106
-405,525	61,813	0,035	-0,025
-404,511	800,000	-0,029	0,089
-403,496	-181,480	-0,051	0,001
-402,482	435,932	-0,062	-0,100
-401,467	124,431	0,049	-0,046
-400,452	212,317	0,099	0,115
-399,438	800,000	0,047	-0,114
-398,423	-200,000	-0,001	-0,040
-397,409	-200,000	-0,006	-0,043
-396,394	-200,000	0,017	-0,066
-395,379	-51,857	0,085	0,029
-394,365	-200,000	-0,013	-0,068
-393,350	157,824	0,015	0,016
-392,336	374,840	-0,033	-0,049
-391,321	611,085	0,031	0,057
-390,306	-200,000	-0,005	-0,144
-389,292	-200,000	-0,047	-0,236
-388,277	800,000	0,033	-0,073
-387,263	486,645	0,061	0,102
-386,248	58,204	-0,135	0,097
-385,233	64,144	0,112	0,083
-384,219	-200,000	-0,009	0,029
-383,204	800,000	0,028	0,075
-382,190	123,039	0,091	-0,084
-381,175	693,451	-0,036	-0,070
-380,160	-142,222	-0,053	-0,004
-379,146	-0,420	-0,078	-0,040
-378,131	277,120	0,087	-0,114
-377,117	8,686	-0,018	-0,010
-376,102	-61,741	0,023	-0,007
-375,088	65,475	-0,105	-0,078
-374,073	-200,000	-0,003	-0,083
-373,058	-62,494	0,104	-0,032
-372,044	3,841	-0,158	-0,085
-371,029	358,652	0,059	-0,087
-370,015	-200,000	0,010	-0,062
-369,000	-60,970	-0,041	-0,013
-367,985	-200,000	-0,022	-0,081
-366,971	-55,452	-0,076	-0,025
-365,956	117,363	-0,058	-0,053
-364,942	-200,000	0,005	-0,057
-363,927	264,325	0,070	0,089
-362,912	800,000	0,023	-0,049
-361,898	-195,066	0,092	0,000
-360,883	215,117	0,131	-0,152
-359,869	-96,431	0,017	0,003
-358,854	-33,591	-0,065	-0,026
-357,839	-36,830	-0,066	-0,026
-356,825	276,000	-0,080	0,104
-355,810	800,000	-0,014	-0,037
-354,796	-145,160	-0,095	0,006
-353,781	252,557	0,063	-0,079
-352,766	-74,033	-0,129	0,034
-351,752	233,689	0,034	0,041
-350,737	97,521	0,110	0,093
-349,723	-43,436	0,150	0,055
-348,708	-200,000	-0,002	0,194
-347,693	163,705	-0,048	0,050
-346,679	-200,000	-0,025	-0,145
-345,664	44,287	-0,129	-0,087
-344,650	-30,479	0,038	-0,016
-343,635	101,631	0,054	0,046
-342,620	182,997	-0,006	0,006
-341,606	-200,000	-0,023	0,081
-340,591	225,272	-0,044	0,053
-339,577	343,704	-0,050	-0,072
-338,562	-72,165	0,137	0,037
-337,548	-85,591	0,241	0,055
-336,533	-113,755	-0,050	-0,007
-335,518	128,669	0,006	0,005
-334,504	295,588	0,003	0,004
-333,489	-164,214	0,074	0,002
-332,475	-200,000	-0,017	-0,067
-331,460	-200,000	-0,024	0,161
-330,445	-200,000	-0,008	0,062
-329,431	800,000	-0,071	0,149
-328,416	493,585	-0,055	0,093
-327,402	223,754	-0,040	-0,047
-326,387	37,949	0,086	0,056
-325,372	471,294	-0,014	-0,022
-324,358	-200,000	0,012	-0,095
-323,343	-200,000	0,005	-0,042
-322,329	143,587	-0,059	-0,057
-321,314	112,007	0,077	-0,068
-320,299	-33,346	-0,004	0,002
-319,285	-200,000	-0,015	-0,060
-318,270	-200,000	0,011	-0,159
-317,256	-200,000	-0,025	-0,134
-316,241	-200,000	-0,015	-0,166
-315,226	31,927	-0,060	-0,038
-314,212	127,899	0,119	0,111
-313,197	543,129	-0,029	-0,051
-312,183	1,933	-0,062	0,033
-311,168	-200,000	0,000	-0,004
-310,153	-60,753	0,087	0,027
-309,139	-200,000	-0,004	0,145
-308,124	74,314	0,074	-0,057
-307,110	-0,060	-0,140	0,073
-306,095	-57,608	-0,037	-0,012
-305,080	258,669	0,048	0,060
-304,066	800,000	0,074	-0,170
-303,051	800,000	-0,048	-0,152
-302,037	169,877	0,085	-0,089
-301,022	184,480	0,083	-0,090
-300,008	800,000	-0,020	-0,044
-298,993	74,164	0,140	0,107
-297,978	163,791	-0,060	0,062
-296,964	144,611	-0,053	-0,052
-295,949	800,000	-0,067	-0,167
-294,935	-200,000	0,024	-0,122
-293,920	-163,017	-0,145	0,005
-292,905	-19,610	0,092	-0,042
-291,891	-33,293	0,106	0,043
-290,876	-45,062	0,049	-0,018
-289,862	56,396	-0,115	0,082
-288,847	800,000	0,021	0,051
-287,832	-113,097	-0,094	0,013
-286,818	-200,000	-0,006	0,045
-285,803	250,445	0,059	0,073
-284,789	-200,000	0,025	0,105
-283,774	-47,339	0,043	0,015
-282,759	800,000	-0,041	-0,097
-281,745	-168,564	-0,069	-0,002
-280,730	-200,000	-0,005	0,026
-279,716	-27,709	0,033	-0,014
-278,701	-200,000	-0,024	0,101
-277,686	9,264	0,082	-0,045
-276,672	72,976	-0,045	0,035
-275,657	-200,000	0,003	-0,090
-274,643	-104,283	-0,065	0,011
-273,628	-102,722	-0,225	-0,039
-272,613	25,987	0,081	-0,049
-271,599	-61,273	0,090	0,028
-270,584	-66,447	-0,021	-0,006
-269,570	800,000	-0,057	0,135
-268,555	38,258	-0,032	0,021
-267,540	-200,000	-0,002	0,021
-266,526	166,710	0,016	0,016
-265,511	209,739	0,031	0,036
-264,497	-75,382	-0,073	0,019
-263,482	534,488	-0,052	0,091
-262,467	13,711	-0,098	0,055
-261,453	800,000	-0,018	0,050
-260,438	-141,563	0,078	0,006
-259,424	785,800	0,027	-0,055
-258,409	85,938	-0,070	-0,056
-257,395	-200,000	0,013	-0,133
-256,380	-73,683	0,149	-0,039
-255,365	-107,829	0,078	-0,012
-254,351	-200,000	0,008	-0,029
-253,336	-200,000	-0,017	0,214
-252,322	309,052	-0,032	0,043
-251,307	-15,534	-0,065	-0,030
-250,292	-143,547	-0,034	-0,002
-249,278	166,780	0,048	-0,050
-248,263	-128,558	0,150	0,015
-247,249	-53,326	0,068	-0,023
-246,234	-200,000	0,002	-0,100
-245,219	48,267	0,085	-0,058
-244,205	494,506	-0,082	-0,139
-243,190	173,406	0,047	0,049
-242,176	800,000	0,064	0,137
-241,161	800,000	-0,061	0,174
-240,146	-200,000	0,015	-0,055
-239,132	226,606	0,050	0,060
-238,117	-200,000	-0,000	-0,186
-237,103	466,698	-0,027	-0,045
-236,088	28,833	0,099	0,061
-235,073	-14,948	0,108	0,050
-234,059	-109,781	-0,124	0,019
-233,044	-200,000	0,017	-0,062
-232,030	375,394	0,020	-0,030
-231,015	61,488	-0,104	-0,075
-230,000	699,175	-0,025	-0,049
-228,986	-51,633	0,160	-0,054
-227,971	648,427	-0,011	-0,020
-226,957	113,403	-0,012	0,011
-225,942	-11,877	0,152	0,073
-224,927	284,393	-0,068	0,090
-223,913	-200,000	0,008	-0,100
-222,898	-106,616	-0,051	-0,008
-221,884	-17,064	0,085	0,039
-220,869	-200,000	0,008	-0,061
-219,855	-200,000	0,005	-0,132
-218,840	-200,000	0,008	0,043
-217,825	-200,000	-0,022	-0,074
-216,811	-48,589	-0,124	0,043
-215,796	81,489	-0,124	0,098
-214,782	-200,000	0,000	0,060
-213,767	239,653	-0,086	0,105
-212,752	-64,783	0,040	0,012
-211,738	169,678	-0,066	-0,068
-210,723	-62,762	0,085	-0,025
-209,709	800,000	0,042	0,131
-208,694	13,580	-0,146	-0,083
-207,679	437,931	0,039	0,063
-206,665	111,757	-0,007	0,006
-205,650	-200,000	-0,003	-0,061
-204,636	-200,000	0,032	0,211
-203,621	-200,000	-0,006	0,091
-202,606	-75,768	0,043	-0,011
-201,592	-123,397	-0,161	-0,019
-200,577	218,873	-0,079	-0,092
-199,563	67,971	0,050	-0,038
-198,548	-169,603	0,048	0,001
-197,533	80,562	-0,084	-0,066
-196,519	57,113	-0,048	0,034
-195,504	800,000	-0,016	-0,044
-194,490	-200,000	0,009	-0,123
-193,475	224,449	-0,106	-0,125
-192,460	-153,979	0,061	-0,003
-191,446	-79,747	-0,146	0,036
-190,431	-100,544	0,127	0,023
-189,417	-146,595	0,082	0,005
-188,402	-200,000	0,002	0,033
-187,387	251,492	-0,035	0,043
-186,373	-200,000	0,028	-0,176
-185,358	-200,000	0,002	-0,060
-184,344	-119,741	-0,051	-0,006
-183,329	800,000	0,020	0,055
-182,315	88,194	0,032	0,026
-181,300	-162,751	0,014	0,000
-180,285	479,110	0,076	-0,126
-179,271	239,431	-0,056	0,068
-178,256	-67,905	-0,101	-0,029
-177,242	-13,139	-0,118	0,056
-176,227	129,921	0,071	0,066
-175,212	90,236	-0,035	0,029
-174,198	-145,620	-0,182	-0,012
-173,183	-123,499	-0,017	0,002
-172,169	-200,000	-0,006	0,030
-171,154	269,791	-0,054	0,069
-170,139	272,160	-0,047	0,061
-169,125	78,167	0,046	0,035
-168,110	-111,986	0,129	0,019
-167,096	116,171	-0,019	-0,017
-166,081	800,000	-0,079	-0,168
-165,066	241,677	-0,024	0,029
-164,052	-171,850	-0,025	-0,001
-163,037	800,000	-0,037	0,088
-162,023	641,175	0,029	-0,055
-161,008	-38,952	0,101	-0,038
-159,993	-200,000	0,029	0,121
-158,979	123,272	-0,064	-0,058
-157,964	116,349	-0,136	-0,121
-156,950	635,087	-0,014	0,025
-155,935	800,000	-0,044	-0,103
-154,920	33,502	0,084	0,053
-153,906	-168,321	0,045	-0,001
-152,891	-200,000	-0,003	0,052
-151,877	-30,288	0,118	0,049
-150,862	-39,947	0,059	-0,022
-149,847	235,009	-0,048	-0,058
-148,833	-200,000	0,025	-0,112
-147,818	800,000	0,054	0,124
-146,804	-200,000	-0,011	0,163
-145,789	-200,000	-0,017	-0,055
-144,775	480,533	0,060	-0,099
-143,760	800,000	-0,062	-0,141
-142,745	-141,240	-0,038	0,003
-141,731	206,696	-0,063	-0,071
-140,716	328,539	0,054	0,075
-139,702	-93,363	0,075	0,015
-138,687	-13,421	0,095	0,045
-137,672	-145,856	-0,101	0,006
-136,658	-200,000	-0,001	0,140
-135,643	59,981	0,068	0,049
-134,629	-200,000	0,008	-0,080
-133,614	133,665	0,121	-0,114
-132,599	-94,469	-0,044	-0,009
-131,585	-200,000	0,010	-0,056
-130,570	-75,397	-0,102	0,026
-129,556	-200,000	0,032	0,181
-128,541	-71,302	-0,063	-0,017
-127,526	-151,105	0,027	-0,001
-126,512	-66,230	-0,075	0,022
-125,497	12,990	-0,005	-0,003
-124,483	-64,756	-0,084	0,025
-123,468	-52,237	-0,052	0,017
-122,453	-12,945	0,021	-0,010
-121,439	-200,000	-0,011	-0,085
-120,424	240,955	0,071	0,086
-119,410	800,000	0,029	0,088
-118,395	-54,332	0,068	0,022
-117,380	-200,000	0,016	-0,088
-116,366	320,426	-0,060	-0,083
-115,351	-78,214	-0,070	-0,017
-114,337	71,036	-0,061	-0,046
-113,322	-28,746	-0,098	-0,041
-112,307	800,000	0,024	0,069
-111,293	37,567	0,039	0,025
-110,278	-72,130	0,067	0,018
-109,264	173,547	-0,070	-0,074
-108,249	-16,655	-0,097	-0,045
-107,234	410,276	0,111	0,171
-106,220	-200,000	0,011	-0,061
-105,205	800,000	-0,057	-0,160
-104,191	800,000	-0,023	0,047
-103,176	-35,621	-0,073	0,029
-102,162	-200,000	-0,012	-0,078
-101,147	94,625	0,057	-0,047
-100,132	185,250	-0,029	0,032
-99,118	510,030	0,036	0,061
-98,103	527,372	-0,037	-0,063
-97,089	141,333	0,043	0,042
-96,074	-88,335	0,060	-0,013
-95,059	-200,000	-0,039	0,148
-94,045	497,520	-0,062	0,104
-93,030	-34,683	-0,020	0,008
-92,016	-107,598	0,105	0,017
-91,001	277,784	-0,040	0,052
-89,986	-6,335	0,072	-0,035
-88,972	791,591	0,066	0,132
-87,957	8,585	-0,100	0,054
-86,943	59,057	-0,066	0,047
-85,928	104,545	0,084	-0,072
-84,913	143,850	-0,098	-0,095
-83,899	-200,000	0,009	-0,041
-82,884	-175,695	-0,060	0,001
-81,870	335,286	-0,032	-0,045
-80,855	100,714	-0,159	0,134
-79,840	-25,300	-0,024	0,010
-78,826	-200,000	-0,018	-0,072
-77,811	-98,684	-0,119	0,022
-76,797	84,497	-0,092	-0,073
-75,782	45,000	0,052	-0,035
-74,767	-200,000	-0,039	0,137
-73,753	800,000	-0,063	0,143
-72,738	328,711	-0,096	0,135
-71,724	43,858	0,068	-0,045
-70,709	800,000	0,035	-0,073
-69,694	286,892	0,030	-0,039
-68,680	-5,047	-0,071	0,036
-67,665	-200,000	-0,013	0,043
-66,651	-200,000	-0,004	0,063
-65,636	-119,722	-0,042	-0,005
-64,622	-74,609	-0,081	-0,021
-63,607	186,748	-0,044	0,048
-62,592	-49,389	0,149	-0,051
-61,578	124,272	0,077	-0,070
-60,563	146,571	0,057	0,056
-59,549	800,000	0,045	0,138
-58,534	-92,780	-1,083	0,218
-57,519	670,010	-0,898	-1,694
-56,505	-200,000	-0,798	-4,105
-55,490	290,950	0,390	-0,516
-54,476	800,000	4,681	11,339
-53,461	-200,000	11,606	225,011
-52,446	-200,000	672,478	2204,002
-51,432	596,354	1623,265	2926,930
-50,417	124,663	1655,291	1510,928
-49,403	76,686	1309,975	1006,645
-48,388	41,627	1040,377	681,971
-47,373	26,945	996,014	604,124
-46,359	26,075	986,143	595,230
-45,344	25,462	982,017	590,690
-44,330	25,352	980,264	589,249
-43,315	25,316	978,840	588,251
-42,300	25,311	977,677	587,510
-41,286	25,341	976,758	587,035
-40,271	25,229	975,979	586,176
-39,257	25,237	975,111	585,656
-38,242	25,290	974,071	585,184
-37,227	25,266	973,388	584,672
-36,213	25,275	972,450	584,114
-35,198	25,206	971,557	583,329
-34,184	25,294	970,633	583,037
-33,169	25,199	969,766	582,182
-32,154	25,227	968,807	581,677
-31,140	25,300	967,761	581,264
-30,125	25,266	967,180	580,781
-29,111	25,313	966,239	580,343
-28,096	25,227	965,753	579,750
-27,082	25,283	964,818	579,347
-26,067	25,288	964,042	578,873
-25,052	25,316	963,318	578,509
-24,038	25,298	962,715	578,065
-23,023	25,270	962,123	577,597
-22,009	25,264	961,325	577,075
-20,994	25,279	960,677	576,711
-19,979	25,265	959,964	576,214
-18,965	25,271	959,189	575,744
-17,950	25,290	958,468	575,351
-16,936	25,196	958,079	574,794
-15,921	25,167	957,411	574,274
-14,906	25,129	956,729	573,721
-13,892	25,157	955,935	573,314
-12,877	25,145	955,206	572,812
-11,863	25,079	954,684	572,266
-10,848	25,090	954,429	572,127
-9,833	25,210	953,742	572,076
-8,819	25,152	953,270	571,585
-7,804	25,183	952,481	571,188
-6,790	25,115	951,993	570,655
-5,775	25,158	951,331	570,371
-4,760	25,230	950,781	570,250
-3,746	25,121	950,205	569,533
-2,731	24,968	949,564	568,640
-1,717	24,894	948,834	567,944
-0,702	25,015	947,904	567,748
0,313	24,785	947,326	567,528
1,327	27,277	945,192	574,123
2,342	35,316	825,167	523,353
3,356	31,424	519,798	322,899
4,371	6,915	379,006	203,961
5,386	3,749	361,451	190,574
6,400	2,266	355,172	185,437
7,415	1,200	352,241	182,601
8,429	1,206	350,670	181,776
9,444	1,308	349,720	181,391
10,459	1,204	349,104	180,930
11,473	1,088	348,427	180,425
12,488	1,275	348,068	180,446
13,502	1,514	347,357	180,347
14,517	1,338	346,885	179,876
15,531	1,003	346,265	179,140
16,546	1,083	345,795	178,976
17,561	1,056	345,311	178,677
18,575	0,952	344,874	178,311
19,590	1,057	344,550	178,252
20,604	1,003	344,322	178,055
21,619	0,855	343,958	177,676
22,634	0,903	343,665	177,565
23,648	0,941	343,152	177,330
24,663	0,904	342,917	177,149
25,677	1,034	342,397	177,017
26,692	1,032	342,330	176,964
27,707	0,892	341,994	176,611
28,721	0,904	341,633	176,422
29,736	0,866	341,300	176,190
30,750	0,985	341,100	176,210
31,765	0,929	340,646	175,895
32,780	0,910	340,402	175,731
33,794	1,006	340,115	175,679
34,809	1,058	339,782	175,552
35,823	0,991	339,446	175,285
36,838	0,890	339,311	175,082
37,853	0,978	338,880	174,946
38,867	0,979	338,611	174,793
39,882	0,899	338,363	174,556
40,896	0,693	338,222	174,229
41,911	0,930	337,930	174,338
42,926	0,829	337,620	174,046
43,940	0,881	337,249	173,899
44,955	0,695	337,045	173,563
45,969	0,740	336,743	173,444
46,984	0,647	336,566	173,231
47,999	0,304	336,111	172,585
49,013	0,393	335,749	172,486
50,028	0,230	335,575	172,194
51,042	0,123	335,181	171,854
52,057	0,106	335,016	171,734
53,071	0,075	334,703	171,524
54,086	0,210	334,426	171,521
55,101	0,219	334,340	171,471
56,115	0,626	334,090	171,794
57,130	0,709	334,052	171,854
58,144	1,044	333,776	172,080
59,159	1,007	333,584	171,922
60,174	1,134	333,341	171,927
61,188	1,064	333,090	171,703
62,203	0,930	332,886	171,430
63,217	0,969	332,608	171,315
64,232	0,960	332,405	171,185
65,247	1,086	331,993	171,101
66,261	1,070	331,828	170,983
67,276	0,767	331,310	170,358
68,290	0,607	331,110	170,057
69,305	0,757	330,731	170,018
70,320	0,652	330,564	169,798
71,334	0,841	330,345	169,884
72,349	1,139	330,224	170,143
73,363	1,165	329,942	170,011
74,378	1,159	329,581	169,804
75,393	1,148	329,521	169,745
76,407	1,032	329,058	169,361
77,422	0,981	328,988	169,253
78,436	1,069	328,689	169,182
79,451	1,056	328,373	168,990
80,466	1,089	327,938	168,788
81,480	0,783	327,874	168,398
82,495	0,643	327,613	168,092
83,509	0,905	327,253	168,186
84,524	0,763	327,066	167,916
85,539	0,759	326,597	167,655
86,553	0,583	326,521	167,405
87,568	0,703	326,363	167,443
88,582	0,751	326,162	167,378
89,597	0,582	325,874	167,027
90,611	0,960	325,687	167,337
91,626	1,032	325,507	167,310
92,641	0,984	325,312	167,141
93,655	0,725	325,115	166,737
94,670	0,838	324,741	166,657
95,684	0,814	324,431	166,456
96,699	0,967	324,260	166,522
97,714	0,752	324,054	166,164
98,728	0,675	323,706	165,885
99,743	0,514	323,628	165,653
100,757	0,420	323,217	165,325
101,772	0,706	322,890	165,457
102,787	0,696	322,748	165,359
103,801	0,672	322,698	165,292
104,816	0,606	322,590	165,150
105,830	0,975	322,363	165,424
106,845	1,056	322,159	165,393
107,860	0,927	321,902	165,105
108,874	0,737	321,633	164,744
109,889	0,897	321,350	164,760
110,903	0,846	321,037	164,529
111,918	0,679	320,915	164,269
112,933	0,886	320,595	164,316
113,947	0,836	320,439	164,167
114,962	0,888	320,332	164,155
115,976	0,995	320,001	164,088
116,991	0,850	319,829	163,826
118,006	0,991	319,471	163,782
119,020	0,845	319,395	163,570
120,035	0,911	319,289	163,572
121,049	1,072	319,070	163,620
122,064	1,019	318,830	163,425
123,079	0,953	318,453	163,146
124,093	1,140	318,059	163,132
125,108	0,860	317,900	162,733
126,122	0,547	317,663	162,259
127,137	0,329	317,591	161,972
128,151	0,394	317,249	161,854
129,166	0,639	317,032	161,992
130,181	0,551	316,689	161,707
131,195	0,605	316,398	161,603
132,210	0,773	316,340	161,740
133,224	1,077	316,062	161,909
134,239	0,829	316,051	161,624
135,254	1,072	315,795	161,738
136,268	0,977	315,425	161,433
137,283	0,515	315,126	160,771
138,297	0,484	314,938	160,627
139,312	0,427	314,653	160,406
140,327	0,886	314,609	160,860
141,341	1,185	314,492	161,106
142,356	1,376	314,237	161,165
143,370	1,231	314,060	160,905
144,385	1,284	313,897	160,864
145,400	1,210	313,648	160,642
146,414	1,144	313,385	160,424
147,429	1,080	313,313	160,304
148,443	1,208	313,060	160,297
149,458	1,255	312,842	160,221
150,473	1,356	312,502	160,139
151,487	1,136	312,457	159,868
152,502	1,149	312,058	159,665
153,516	1,257	311,904	159,685
154,531	1,282	311,774	159,631
155,546	1,307	311,474	159,490
156,560	1,243	311,323	159,331
157,575	0,945	311,006	158,840
158,589	1,038	310,829	158,833
159,604	1,329	310,450	158,932
160,619	1,212	310,231	158,683
161,633	1,109	310,240	158,564
162,648	1,117	310,057	158,465
163,662	1,282	309,806	158,496
164,677	1,322	309,637	158,438
165,692	1,306	309,407	158,289
166,706	1,173	309,308	158,084
167,721	1,203	309,069	157,980
168,735	1,257	308,792	157,881
169,750	1,424	308,592	157,940
170,764	1,450	308,528	157,919
171,779	1,426	308,447	157,839
172,794	1,557	308,152	157,810
173,808	1,271	307,791	157,313
174,823	1,001	307,360	156,798
175,837	0,542	307,292	156,271
176,852	1,119	307,154	156,787
177,867	1,427	306,972	157,001
178,881	1,320	306,913	156,845
179,896	1,397	306,714	156,810
180,910	1,296	306,451	156,556
181,925	1,437	306,203	156,562
182,940	1,451	305,996	156,456
183,954	1,663	305,541	156,430
184,969	1,407	305,673	156,219
185,983	1,236	305,536	155,957
186,998	1,339	305,231	155,894
188,013	1,267	305,138	155,758
189,027	1,456	304,799	155,766
190,042	1,377	304,552	155,545
191,056	1,500	304,404	155,582
192,071	1,611	304,189	155,572
193,086	1,518	304,078	155,406
194,100	1,708	303,747	155,419
195,115	1,641	303,533	155,226
196,129	1,454	303,346	154,925
197,144	1,400	303,161	154,761
198,159	1,565	302,980	154,824
199,173	1,358	302,766	154,489
200,188	1,456	302,626	154,504
201,202	1,370	302,223	154,197
202,217	0,838	301,859	153,454
203,232	0,851	301,609	153,327
204,246	1,063	301,498	153,473
205,261	1,432	301,507	153,839
206,275	1,470	301,321	153,769
207,290	1,446	301,304	153,723
208,304	1,551	301,020	153,671
209,319	1,530	300,744	153,495
210,334	1,622	300,456	153,428
211,348	1,534	300,274	153,232
212,363	1,484	300,128	153,093
213,377	1,514	299,957	153,023
214,392	1,454	299,774	152,855
215,407	1,320	299,445	152,538
216,421	1,210	299,100	152,238
217,436	0,981	299,002	151,943
218,450	0,985	298,797	151,830
219,465	1,226	298,685	152,002
220,480	1,292	298,612	152,018
221,494	1,406	298,373	151,997
222,509	1,248	297,963	151,616
223,523	1,456	297,984	151,823
224,538	1,540	297,886	151,844
225,553	1,553	297,634	151,715
226,567	1,329	297,494	151,404
227,582	1,492	297,210	151,410
228,596	1,572	297,079	151,410
229,611	1,615	296,880	151,338
230,626	1,641	296,597	151,206
231,640	1,045	296,324	150,458
232,655	0,699	295,873	149,870
233,669	0,556	295,750	149,652
234,684	0,593	295,568	149,584
235,699	0,843	295,246	149,656
236,713	0,889	295,266	149,699
237,728	1,001	295,118	149,722
238,742	1,148	295,082	149,836
239,757	1,247	295,039	149,900
240,772	1,503	294,703	149,970
241,786	1,474	294,282	149,713
242,801	1,136	294,190	149,319
243,815	1,322	293,972	149,378
244,830	1,263	293,805	149,222
245,844	1,080	293,610	148,929
246,859	1,170	293,452	148,924
247,874	0,901	293,353	148,595
248,888	0,989	293,143	148,562
249,903	1,379	292,956	148,838
250,917	1,428	292,882	148,837
251,932	1,427	292,837	148,800
252,947	2,257	292,789	149,579
253,961	2,085	292,404	149,199
254,976	1,905	292,327	148,970
255,990	2,890	292,558	150,042
257,005	3,589	292,758	150,820
258,020	4,457	292,934	151,751
259,034	4,228	292,598	151,338
260,049	4,176	292,369	151,155
261,063	4,150	292,123	150,988
262,078	4,326	292,228	151,202
263,093	4,980	292,232	151,831
264,107	4,818	292,024	151,551
265,122	4,953	291,794	151,550
266,136	5,186	291,691	151,711
267,151	5,131	291,358	151,471
268,166	4,870	291,148	151,093
269,180	4,669	291,029	150,822
270,195	4,875	290,759	150,870
271,209	4,878	290,650	150,803
272,224	4,931	290,181	150,597
273,239	4,593	290,005	150,164
274,253	4,690	289,963	150,223
275,268	5,243	289,962	150,746
276,282	4,991	289,716	150,360
277,297	5,062	289,687	150,401
278,312	5,205	289,292	150,320
279,326	4,979	289,199	150,040
280,341	4,864	288,977	149,800
281,355	4,851	288,622	149,590
282,370	4,672	288,405	149,292
283,384	4,652	288,321	149,216
284,399	4,801	288,126	149,246
285,414	4,856	287,877	149,156
286,428	4,625	287,784	148,872
287,443	4,439	287,404	148,483
288,457	4,291	287,319	148,284
289,472	4,415	287,108	148,280
290,487	4,513	286,920	148,264
291,501	4,403	286,789	148,078
292,516	4,119	286,354	147,569
293,530	4,230	286,293	147,630
294,545	4,550	286,226	147,888
295,560	4,627	286,048	147,857
296,574	4,345	285,816	147,454
297,589	4,365	285,662	147,380
298,603	4,903	285,667	147,884
299,618	4,869	285,468	147,735
300,633	4,709	285,185	147,423
301,647	4,649	284,938	147,225
302,662	4,826	284,758	147,288
303,676	4,619	284,554	146,972
304,691	4,334	284,269	146,541
305,706	4,243	284,088	146,349
306,720	4,337	283,753	146,252
307,735	4,056	283,771	145,982
308,749	4,454	283,611	146,263
309,764	4,461	283,461	146,180
310,779	4,272	283,141	145,823
311,793	4,274	282,944	145,711
312,808	4,235	282,869	145,622
313,822	4,257	282,785	145,586
314,837	4,389	282,416	145,508
315,852	4,172	282,269	145,214
316,866	4,186	281,989	145,071
317,881	4,213	281,936	145,056
318,895	4,373	281,657	145,050
319,910	4,189	281,443	144,753
320,925	4,150	281,143	144,550
321,939	4,233	281,226	144,658
322,954	4,344	281,121	144,695
323,968	4,429	280,864	144,629
324,983	4,271	280,762	144,416
325,997	4,597	280,603	144,626
327,012	4,586	280,585	144,594
328,027	4,500	280,244	144,325
329,041	4,624	279,938	144,271
330,056	4,514	279,879	144,125
331,070	4,495	279,735	144,020
332,085	4,254	279,429	143,625
333,100	4,443	279,382	143,765
334,114	4,412	279,009	143,530
335,129	4,390	278,791	143,385
336,143	4,517	278,784	143,487
337,158	4,670	278,701	143,573
338,173	4,504	278,479	143,292
339,187	4,398	278,114	142,994
340,202	4,507	278,051	143,049
341,216	4,478	277,968	142,967
342,231	4,627	277,615	142,910
343,246	4,498	277,538	142,738
344,260	4,401	277,404	142,568
345,275	4,528	277,372	142,656
346,289	5,043	277,103	142,979
347,304	4,897	276,858	142,705
348,319	4,621	276,751	142,384
349,333	4,642	276,480	142,251
350,348	4,788	276,487	142,376
351,362	4,920	276,220	142,347
352,377	4,737	276,002	142,054
353,392	4,889	275,805	142,079
354,406	4,886	275,782	142,052
355,421	190,549	1336,335	1412,420
356,435	153,976	1465,698	1412,604
