DTS Sentinel unit serial number:	SN410029Multiplexer serial number:	ORYXHardware model number:	OX2-SRSoftware version number:	ORYX F/W v4,00 Oryx Data Collector v3.7.2.0data status	okinstallation	B4 Nyhavnadifferential loss correction	single-endedforward channel	channel 2reverse channel	N/Adate	2023/12/16time	08:25:13forward acquisition time	300,00reverse acquisition time	0,00gamma	499,1914k internal	0,3127k external	0,3127temperature offset calibration	1,0000default loss term (dB/km)	0,3820temperature slope calibration	1,0000multiplexer offset coefficient	1,0000multiplexer slope coefficient	1,0000fibre end	0,00T internal ref (°C)	22,55T ext. ref 1 (°C)	8,44T ext. ref 2 (°C)	8,59length (m)	temperature (°C)	Stokes	anti-Stokes-744,400	28,047	0,090	-0,056
-743,385	65,147	-0,185	0,139
-742,371	-10,550	0,095	0,047
-741,356	511,975	-0,125	0,218
-740,342	-99,103	0,097	0,018
-739,327	-176,463	-0,313	-0,006
-738,312	-200,000	0,023	-0,114
-737,298	-13,394	-0,266	0,128
-736,283	-200,000	-0,014	0,112
-735,269	-104,676	-0,124	0,021
-734,254	-153,203	-0,160	-0,008
-733,239	34,400	-0,345	-0,224
-732,225	-29,704	0,142	-0,060
-731,210	86,014	0,089	-0,073
-730,196	43,559	-0,035	0,024
-729,181	34,139	-0,123	-0,079
-728,167	283,764	-0,012	-0,016
-727,152	-200,000	0,027	-0,116
-726,137	-200,000	-0,013	-0,221
-725,123	-200,000	-0,016	-0,124
-724,108	40,984	0,008	0,006
-723,094	-200,000	-0,010	-0,140
-722,079	-151,673	-0,122	0,007
-721,064	590,956	-0,046	-0,084
-720,050	-200,000	0,002	-0,035
-719,035	75,152	0,056	0,044
-718,021	93,250	0,063	0,053
-717,006	800,000	-0,097	-0,202
-715,991	800,000	-0,053	-0,144
-714,977	-175,478	-0,041	-0,001
-713,962	-200,000	-0,023	-0,106
-712,948	800,000	0,032	0,093
-711,933	-129,543	-0,012	0,001
-710,918	470,013	0,017	-0,028
-709,904	-200,000	0,025	-0,101
-708,889	194,009	0,051	-0,058
-707,875	195,647	-0,121	-0,137
-706,860	800,000	-0,017	-0,040
-705,845	-200,000	-0,001	0,056
-704,831	-77,633	-0,114	-0,029
-703,816	-200,000	0,001	0,064
-702,802	235,301	-0,124	-0,153
-701,787	150,085	-0,080	-0,080
-700,772	-2,781	-0,019	0,010
-699,758	-18,429	0,071	0,033
-698,743	-62,781	-0,155	0,047
-697,729	155,981	-0,067	-0,068
-696,714	-135,736	-0,161	0,014
-695,699	320,870	0,087	-0,123
-694,685	-200,000	-0,003	-0,043
-693,670	-200,000	0,004	-0,091
-692,656	-156,135	-0,130	-0,006
-691,641	31,418	0,152	-0,097
-690,627	-200,000	0,010	0,112
-689,612	-131,281	-0,107	-0,010
-688,597	287,368	0,033	-0,045
-687,583	-104,987	-0,054	-0,009
-686,568	195,395	-0,096	0,108
-685,554	173,435	-0,061	-0,065
-684,539	-65,288	-0,141	-0,042
-683,524	-200,000	-0,032	-0,130
-682,510	289,822	-0,065	-0,088
-681,495	146,963	-0,064	0,064
-680,481	81,780	-0,051	-0,041
-679,466	450,990	-0,069	-0,113
-678,451	24,873	-0,069	-0,042
-677,437	800,000	0,043	-0,104
-676,422	116,803	-0,076	-0,069
-675,408	16,957	-0,160	-0,094
-674,393	-50,622	-0,071	-0,025
-673,378	359,109	-0,076	-0,112
-672,364	194,855	-0,057	-0,064
-671,349	178,502	-0,084	0,091
-670,335	-19,706	-0,095	-0,043
-669,320	8,360	0,137	-0,076
-668,305	-200,000	-0,015	-0,051
-667,291	-97,285	-0,033	-0,006
-666,276	800,000	-0,021	0,051
-665,262	-32,331	-0,050	0,020
-664,247	-188,251	-0,089	0,001
-663,232	705,642	0,014	-0,027
-662,218	-3,425	-0,033	0,017
-661,203	-76,022	-0,150	0,039
-660,189	-26,020	-0,140	-0,061
-659,174	-104,473	-0,121	-0,021
-658,159	53,902	-0,106	-0,076
-657,145	-75,876	-0,099	-0,026
-656,130	800,000	-0,026	-0,082
-655,116	-200,000	-0,013	-0,077
-654,101	23,281	-0,057	0,034
-653,086	-85,591	0,060	0,014
-652,072	-110,931	-0,137	0,021
-651,057	-49,561	0,109	0,038
-650,043	-200,000	-0,010	-0,057
-649,028	170,127	0,076	-0,080
-648,014	-25,350	0,103	0,045
-646,999	311,904	0,048	0,067
-645,984	57,714	-0,090	-0,065
-644,970	-131,848	0,077	-0,007
-643,955	-200,000	-0,014	0,052
-642,941	9,778	-0,091	0,051
-641,926	0,230	0,079	0,042
-640,911	-71,511	-0,055	-0,015
-639,897	313,297	-0,030	0,042
-638,882	-200,000	-0,001	0,008
-637,868	-114,793	-0,119	-0,017
-636,853	800,000	-0,019	-0,044
-635,838	800,000	0,049	-0,157
-634,824	-148,627	0,027	0,002
-633,809	800,000	0,038	-0,104
-632,795	99,649	-0,034	-0,030
-631,780	-193,130	0,076	-0,000
-630,765	-121,949	-0,125	0,015
-629,751	144,082	-0,093	-0,092
-628,736	215,650	-0,057	0,067
-627,722	103,127	-0,067	-0,058
-626,707	207,051	-0,054	-0,063
-625,692	106,212	0,037	0,032
-624,678	800,000	-0,019	-0,041
-623,663	-200,000	0,007	-0,067
-622,649	141,357	-0,025	-0,025
-621,634	421,499	-0,100	-0,160
-620,619	-200,000	-0,020	-0,139
-619,605	-116,993	0,025	0,003
-618,590	73,388	0,072	-0,056
-617,576	800,000	0,050	0,136
-616,561	59,765	-0,100	-0,073
-615,546	-200,000	-0,015	0,052
-614,532	42,158	0,103	-0,069
-613,517	800,000	0,016	0,052
-612,503	-26,847	0,128	-0,055
-611,488	22,136	0,191	-0,115
-610,474	430,972	-0,080	-0,129
-609,459	-200,000	0,016	-0,072
-608,444	-4,617	0,042	0,021
-607,430	800,000	-0,037	-0,090
-606,415	-39,847	-0,100	0,039
-605,401	160,820	0,088	-0,091
-604,386	123,931	0,064	-0,060
-603,371	-200,000	0,003	-0,068
-602,357	500,862	-0,016	-0,028
-601,342	55,284	-0,075	0,054
-600,328	136,942	-0,142	-0,137
-599,313	592,776	-0,085	0,155
-598,298	483,314	-0,035	0,059
-597,284	-16,832	0,081	0,038
-596,269	213,059	0,041	0,048
-595,255	247,106	0,018	-0,022
-594,240	56,593	0,058	0,042
-593,225	800,000	0,038	-0,123
-592,211	3,461	-0,107	-0,058
-591,196	-200,000	0,006	-0,081
-590,182	-200,000	0,009	-0,082
-589,167	800,000	-0,037	-0,078
-588,152	83,456	0,093	0,075
-587,138	60,337	0,045	-0,033
-586,123	372,378	-0,034	-0,051
-585,109	102,570	0,069	-0,059
-584,094	223,075	-0,092	0,110
-583,079	800,000	0,037	0,081
-582,065	-80,574	0,096	-0,024
-581,050	-200,000	0,015	0,058
-580,036	-200,000	-0,034	-0,156
-579,021	-200,000	-0,016	-0,084
-578,006	-187,660	0,046	0,000
-576,992	800,000	-0,036	0,100
-575,977	-113,884	0,057	-0,008
-574,963	177,092	-0,082	0,088
-573,948	-13,512	-0,130	-0,062
-572,934	73,677	0,114	-0,088
-571,919	-200,000	0,014	-0,077
-570,904	280,058	-0,039	0,052
-569,890	-10,428	-0,121	0,059
-568,875	249,102	0,059	-0,073
-567,861	181,856	0,087	-0,095
-566,846	58,957	0,015	-0,011
-565,831	-5,888	-0,033	0,017
-564,817	800,000	-0,049	-0,153
-563,802	-200,000	0,011	-0,073
-562,788	800,000	0,025	-0,062
-561,773	462,323	0,071	0,117
-560,758	-200,000	0,004	0,016
-559,744	800,000	0,003	-0,007
-558,729	132,777	0,013	-0,013
-557,715	-159,998	-0,071	-0,003
-556,700	-200,000	-0,029	-0,117
-555,685	-123,614	-0,159	0,018
-554,671	-73,825	-0,065	-0,017
-553,656	-200,000	0,028	0,168
-552,642	13,236	0,089	-0,051
-551,627	800,000	0,057	0,137
-550,612	7,073	0,067	-0,037
-549,598	-15,241	0,072	-0,034
-548,583	-200,000	-0,011	0,130
-547,569	-62,925	-0,127	-0,039
-546,554	12,602	0,106	0,060
-545,539	520,274	0,040	0,070
-544,525	-200,000	-0,034	0,222
-543,510	-77,204	-0,065	0,017
-542,496	-149,406	0,035	-0,002
-541,481	-42,750	-0,119	-0,044
-540,466	800,000	0,031	-0,069
-539,452	462,468	0,078	0,129
-538,437	-200,000	-0,011	0,054
-537,423	237,839	-0,096	-0,118
-536,408	204,676	-0,009	-0,011
-535,393	258,697	-0,031	0,039
-534,379	-84,762	-0,103	0,024
-533,364	419,679	-0,030	-0,048
-532,350	800,000	-0,009	0,027
-531,335	-147,633	0,180	-0,011
-530,321	-62,933	-0,054	0,016
-529,306	-23,020	0,054	-0,024
-528,291	-123,647	0,091	-0,011
-527,277	169,722	-0,063	-0,067
-526,262	30,652	0,045	0,028
-525,248	82,966	-0,032	0,026
-524,233	385,785	0,052	-0,079
-523,218	15,683	0,059	-0,034
-522,204	18,114	0,062	-0,036
-521,189	152,354	0,045	-0,046
-520,175	-200,000	0,017	-0,064
-519,160	-200,000	-0,019	-0,115
-518,145	155,856	0,057	0,058
-517,131	-200,000	-0,001	-0,136
-516,116	414,648	0,069	0,108
-515,102	386,185	-0,034	-0,052
-514,087	-185,421	-0,084	0,001
-513,072	-200,000	0,017	0,098
-512,058	-43,665	-0,073	0,027
-511,043	81,790	-0,153	0,122
-510,029	-188,419	0,162	-0,001
-509,014	-200,000	0,011	0,058
-507,999	-69,870	0,093	-0,026
-506,985	-137,789	-0,154	0,013
-505,970	8,229	0,051	-0,028
-504,956	-121,067	0,052	-0,006
-503,941	800,000	0,015	0,033
-502,926	800,000	-0,041	0,110
-501,912	-68,506	-0,075	-0,021
-500,897	800,000	0,016	-0,043
-499,883	9,786	-0,080	0,044
-498,868	269,573	-0,096	0,124
-497,853	-200,000	0,005	-0,035
-496,839	131,248	0,046	0,044
-495,824	-200,000	0,073	0,239
-494,810	417,096	-0,050	0,078
-493,795	348,917	-0,055	-0,080
-492,781	97,514	-0,076	0,065
-491,766	800,000	-0,030	0,072
-490,751	800,000	0,002	0,006
-489,737	568,678	-0,054	-0,097
-488,722	-85,340	-0,125	0,029
-487,708	-60,278	0,072	0,022
-486,693	800,000	0,028	0,063
-485,678	800,000	-0,057	0,173
-484,664	-5,415	-0,046	0,023
-483,649	800,000	-0,031	-0,081
-482,635	-68,431	-0,045	-0,013
-481,620	-37,711	0,101	-0,039
-480,605	-136,294	-0,155	0,013
-479,591	518,771	-0,033	-0,057
-478,576	-119,435	-0,070	-0,009
-477,562	-49,341	-0,107	-0,038
-476,547	800,000	-0,046	-0,105
-475,532	194,764	0,027	-0,030
-474,518	220,235	0,103	0,122
-473,503	-200,000	-0,039	-0,167
-472,489	35,980	-0,171	-0,111
-471,474	800,000	-0,040	-0,128
-470,459	-82,371	-0,051	-0,012
-469,445	-200,000	-0,027	-0,111
-468,430	-48,564	-0,014	-0,005
-467,416	-155,782	-0,099	-0,005
-466,401	113,609	-0,069	0,062
-465,386	800,000	0,041	0,118
-464,372	99,017	0,052	-0,044
-463,357	-37,424	0,122	-0,048
-462,343	128,475	-0,062	0,058
-461,328	-200,000	-0,009	0,163
-460,313	-88,698	0,138	-0,030
-459,299	-179,128	0,138	-0,002
-458,284	-68,000	0,034	0,010
-457,270	-74,673	-0,114	-0,030
-456,255	800,000	0,036	-0,113
-455,241	226,394	-0,090	-0,108
-454,226	-27,778	-0,141	0,060
-453,211	-122,780	-0,045	0,005
-452,197	95,579	0,113	0,095
-451,182	658,121	0,014	0,027
-450,168	-200,000	0,008	-0,036
-449,153	-200,000	-0,016	0,074
-448,138	-56,879	0,132	-0,043
-447,124	800,000	0,005	-0,016
-446,109	-39,182	0,089	-0,034
-445,095	800,000	0,095	0,255
-444,080	296,550	0,138	0,187
-443,065	12,614	0,037	-0,021
-442,051	-14,429	-0,070	0,033
-441,036	115,291	-0,048	0,043
-440,022	-200,000	0,013	0,083
-439,007	-50,719	-0,084	-0,029
-437,992	78,260	0,088	0,069
-436,978	-200,000	-0,002	-0,027
-435,963	800,000	-0,017	-0,039
-434,949	58,039	-0,126	0,090
-433,934	617,976	-0,033	-0,062
-432,919	-200,000	-0,000	-0,066
-431,905	-200,000	-0,019	-0,145
-430,890	235,757	-0,036	-0,044
-429,876	-200,000	0,015	0,135
-428,861	-8,497	-0,048	0,024
-427,846	-200,000	0,028	-0,101
-426,832	179,132	-0,053	-0,057
-425,817	200,147	-0,077	-0,086
-424,803	-200,000	0,036	-0,119
-423,788	-200,000	-0,001	-0,072
-422,773	-200,000	-0,027	0,140
-421,759	800,000	0,039	-0,092
-420,744	-200,000	-0,005	-0,115
-419,730	-1,846	-0,152	-0,078
-418,715	62,831	-0,074	0,054
-417,701	-82,217	-0,049	0,012
-416,686	127,463	0,071	0,066
-415,671	-87,540	0,197	0,044
-414,657	800,000	0,012	-0,034
-413,642	413,093	-0,065	-0,102
-412,628	-200,000	-0,001	0,014
-411,613	-51,943	-0,111	-0,038
-410,598	148,106	0,062	0,062
-409,584	-200,000	0,001	-0,046
-408,569	-40,274	0,042	0,016
-407,555	42,097	0,095	0,063
-406,540	-42,120	-0,178	0,067
-405,525	-30,469	0,031	0,013
-404,511	-200,000	-0,009	-0,120
-403,496	50,195	-0,007	0,005
-402,482	64,004	0,079	-0,058
-401,467	47,333	0,050	0,034
-400,452	57,684	-0,112	0,080
-399,438	-79,458	0,117	-0,029
-398,423	-37,951	0,044	-0,017
-397,409	21,182	-0,026	-0,015
-396,394	-200,000	-0,014	0,076
-395,379	502,747	-0,013	0,023
-394,365	-7,306	0,094	-0,046
-393,350	120,836	0,069	-0,063
-392,336	-84,793	-0,100	-0,023
-391,321	760,703	-0,045	-0,090
-390,306	-1,133	-0,097	0,050
-389,292	198,522	0,053	0,060
-388,277	56,696	0,057	-0,041
-387,263	-200,000	0,009	-0,072
-386,248	-200,000	0,006	-0,038
-385,233	339,409	-0,034	-0,049
-384,219	800,000	-0,050	-0,140
-383,204	-200,000	-0,016	-0,101
-382,190	123,251	0,006	-0,006
-381,175	-200,000	-0,021	-0,081
-380,160	-200,000	-0,020	-0,167
-379,146	-107,983	0,169	-0,027
-378,131	171,895	-0,077	0,081
-377,117	324,484	0,028	0,039
-376,102	-83,934	0,066	-0,015
-375,088	800,000	-0,017	0,037
-374,073	-200,000	0,012	0,123
-373,058	-162,198	-0,144	-0,005
-372,044	-90,517	0,170	-0,036
-371,029	-200,000	0,006	0,089
-370,015	-200,000	-0,019	0,192
-369,000	-200,000	0,002	0,104
-367,985	-42,966	-0,112	-0,041
-366,971	329,273	-0,026	0,037
-365,956	563,838	0,112	0,199
-364,942	800,000	-0,046	-0,108
-363,927	-21,109	0,095	0,042
-362,912	-144,079	-0,026	0,002
-361,898	-17,123	-0,045	-0,021
-360,883	159,588	0,042	-0,043
-359,869	-200,000	0,014	-0,099
-358,854	-200,000	0,037	0,119
-357,839	40,867	-0,065	0,043
-356,825	-200,000	-0,021	0,102
-355,810	-6,711	-0,093	0,046
-354,796	172,159	0,091	-0,096
-353,781	800,000	-0,029	-0,061
-352,766	-27,282	-0,182	0,078
-351,752	-141,943	-0,070	-0,005
-350,737	800,000	-0,046	0,094
-349,723	-87,290	0,120	-0,026
-348,708	800,000	-0,013	-0,041
-347,693	800,000	0,025	-0,078
-346,679	25,648	-0,051	0,031
-345,664	193,630	0,080	-0,089
-344,650	80,456	-0,089	0,070
-343,635	800,000	0,057	0,144
-342,620	-104,147	0,065	0,011
-341,606	-151,299	-0,063	0,003
-340,591	49,286	-0,191	0,132
-339,577	279,716	-0,076	-0,100
-338,562	182,164	-0,038	-0,041
-337,548	456,888	-0,050	-0,081
-336,533	-145,965	-0,076	-0,005
-335,518	-200,000	0,027	-0,109
-334,504	-141,189	0,029	-0,002
-333,489	-64,610	-0,118	0,035
-332,475	-200,000	0,008	-0,204
-331,460	744,063	-0,033	0,066
-330,445	40,463	0,062	0,040
-329,431	-200,000	0,045	0,168
-328,416	71,978	0,082	0,062
-327,402	118,260	0,052	0,047
-326,387	184,640	0,123	0,133
-325,372	354,472	-0,081	-0,119
-324,358	182,510	-0,043	-0,047
-323,343	-125,959	-0,112	0,012
-322,329	-120,696	0,216	0,026
-321,314	-36,771	-0,079	0,031
-320,299	409,379	0,086	0,134
-319,285	-200,000	-0,001	0,057
-318,270	-200,000	-0,004	-0,074
-317,256	-200,000	-0,008	-0,038
-316,241	800,000	-0,054	-0,173
-315,226	-144,480	0,109	0,007
-314,212	3,429	-0,096	0,051
-313,197	800,000	-0,015	-0,042
-312,183	794,586	0,021	-0,042
-311,168	-164,585	-0,171	0,006
-310,153	93,293	0,028	-0,023
-309,139	-200,000	0,050	-0,169
-308,124	184,548	0,087	-0,095
-307,110	800,000	-0,005	0,015
-306,095	-50,945	0,173	0,059
-305,080	-200,000	0,009	0,042
-304,066	800,000	0,032	-0,098
-303,051	-155,192	-0,125	0,006
-302,037	-200,000	0,005	-0,100
-301,022	800,000	-0,054	0,163
-300,008	-200,000	0,011	0,091
-298,993	-84,008	0,070	0,016
-297,978	2,526	0,058	0,031
-296,964	366,957	0,074	0,110
-295,949	-200,000	0,033	0,110
-294,935	49,674	-0,067	-0,046
-293,920	-200,000	0,026	-0,090
-292,905	-200,000	-0,021	-0,113
-291,891	-88,743	0,133	-0,029
-290,876	-90,759	0,185	0,039
-289,862	43,438	0,111	-0,074
-288,847	-200,000	0,022	-0,096
-287,832	-36,251	-0,121	0,048
-286,818	-153,982	0,045	0,002
-285,803	558,875	-0,047	-0,083
-284,789	78,328	0,037	-0,029
-283,774	-200,000	-0,013	0,051
-282,759	154,038	-0,053	0,053
-281,745	-145,224	0,046	0,003
-280,730	574,136	-0,095	0,169
-279,716	52,729	-0,041	0,029
-278,701	-76,699	0,163	0,042
-277,686	143,872	0,041	-0,040
-276,672	-200,000	-0,002	0,109
-275,657	76,576	-0,060	-0,046
-274,643	-200,000	-0,010	-0,085
-273,628	-92,281	-0,079	0,016
-272,613	-200,000	0,000	0,044
-271,599	-30,989	0,070	0,029
-270,584	-90,511	0,065	0,014
-269,570	800,000	0,062	-0,146
-268,555	-67,393	-0,057	0,016
-267,540	-51,565	-0,054	0,018
-266,526	800,000	0,051	-0,123
-265,511	352,170	-0,077	-0,112
-264,497	-138,726	-0,035	-0,003
-263,482	800,000	-0,040	0,086
-262,467	205,086	-0,049	-0,056
-261,453	-36,419	-0,061	0,024
-260,438	60,545	0,152	0,110
-259,424	-30,361	0,090	0,037
-258,409	336,481	0,041	-0,058
-257,395	135,288	0,031	0,030
-256,380	100,265	-0,064	0,054
-255,365	-200,000	-0,018	0,062
-254,351	-200,000	-0,051	0,175
-253,336	-86,622	-0,030	0,007
-252,322	-200,000	-0,008	-0,119
-251,307	139,802	-0,079	0,076
-250,292	-200,000	0,007	0,056
-249,278	-200,000	-0,009	0,053
-248,263	62,967	-0,132	0,096
-247,249	-173,815	0,051	0,001
-246,234	151,539	-0,051	0,051
-245,219	800,000	0,014	0,034
-244,205	-64,948	-0,192	0,056
-243,190	800,000	0,045	0,128
-242,176	-54,248	0,044	-0,015
-241,161	-200,000	0,008	0,048
-240,146	12,044	-0,057	0,032
-239,132	-95,475	0,065	-0,013
-238,117	800,000	-0,012	0,038
-237,103	-52,068	0,154	0,052
-236,088	-200,000	-0,007	-0,113
-235,073	-13,768	0,072	-0,034
-234,059	-77,593	0,116	0,029
-233,044	-83,263	0,078	-0,018
-232,030	-200,000	-0,019	0,064
-231,015	800,000	0,034	-0,071
-230,000	800,000	0,011	-0,035
-228,986	-15,657	-0,072	-0,033
-227,971	-200,000	-0,019	0,082
-226,957	-101,772	-0,044	-0,008
-225,942	22,164	-0,048	0,028
-224,927	-108,416	0,071	-0,011
-223,913	-57,646	-0,070	-0,022
-222,898	-200,000	-0,003	-0,036
-221,884	-98,063	0,082	0,015
-220,869	800,000	-0,014	-0,039
-219,855	-38,857	0,061	0,023
-218,840	178,119	-0,080	0,086
-217,825	-200,000	-0,047	-0,178
-216,811	-155,414	-0,112	-0,005
-215,796	30,575	0,035	-0,022
-214,782	615,634	-0,082	-0,151
-213,767	-118,616	0,070	0,009
-212,752	800,000	0,025	0,074
-211,738	-58,495	0,043	0,014
-210,723	74,513	0,091	0,069
-209,709	-108,724	-0,006	-0,001
-208,694	256,742	0,012	0,015
-207,679	197,277	0,004	-0,005
-206,665	-200,000	-0,039	0,151
-205,650	734,862	0,069	-0,136
-204,636	69,253	0,072	0,054
-203,621	54,037	0,134	0,094
-202,606	-200,000	0,023	0,111
-201,592	-122,357	-0,216	-0,025
-200,577	68,703	0,026	-0,019
-199,563	193,992	0,014	0,015
-198,548	-200,000	-0,001	0,164
-197,533	-200,000	0,019	0,107
-196,519	202,020	0,041	-0,046
-195,504	-76,223	0,187	-0,048
-194,490	-40,508	-0,099	0,037
-193,475	-142,333	0,043	-0,003
-192,460	800,000	0,041	0,105
-191,446	-59,875	-0,071	-0,022
-190,431	-87,200	-0,057	0,013
-189,417	-200,000	-0,000	-0,040
-188,402	800,000	0,026	-0,063
-187,387	-48,496	-0,068	0,024
-186,373	99,030	0,108	0,091
-185,358	800,000	0,019	0,047
-184,344	67,958	-0,114	-0,085
-183,329	122,106	0,082	-0,074
-182,315	-124,077	-0,068	-0,008
-181,300	285,587	-0,066	0,087
-180,285	800,000	0,057	0,145
-179,271	800,000	0,034	0,096
-178,256	-200,000	-0,006	0,035
-177,242	-154,831	0,065	-0,003
-176,227	-63,543	0,084	-0,025
-175,212	38,969	-0,046	0,030
-174,198	800,000	0,058	0,129
-173,183	17,892	-0,042	-0,024
-172,169	-174,788	0,118	-0,002
-171,154	-200,000	-0,009	-0,055
-170,139	-76,432	0,062	-0,016
-169,125	-23,315	-0,021	-0,009
-168,110	-12,245	0,148	-0,070
-167,096	119,876	-0,005	-0,004
-166,081	370,720	0,067	-0,099
-165,066	-3,056	-0,037	0,019
-164,052	458,093	-0,079	-0,129
-163,037	-200,000	-0,005	-0,063
-162,023	61,365	0,164	0,119
-161,008	-71,459	0,112	0,030
-159,993	796,673	0,050	0,101
-158,979	96,751	-0,070	-0,058
-157,964	800,000	-0,046	-0,103
-156,950	147,589	-0,041	-0,041
-155,935	95,547	-0,098	-0,082
-154,920	800,000	-0,057	0,141
-153,906	800,000	-0,022	0,063
-152,891	-40,465	0,182	0,069
-151,877	-10,413	-0,087	-0,042
-150,862	-67,261	-0,033	0,009
-149,847	503,117	-0,067	0,113
-148,833	286,138	0,108	0,142
-147,818	-200,000	-0,023	0,088
-146,804	800,000	0,082	-0,201
-145,789	463,113	0,045	0,073
-144,775	55,499	-0,076	0,054
-143,760	596,778	-0,006	0,010
-142,745	25,534	0,224	0,135
-141,731	42,605	-0,137	-0,090
-140,716	451,193	-0,036	-0,059
-139,702	58,638	-0,050	0,036
-138,687	81,057	0,153	0,120
-137,672	-200,000	0,005	0,056
-136,658	-200,000	0,014	-0,127
-135,643	-6,743	-0,138	-0,068
-134,629	-50,345	0,138	-0,047
-133,614	800,000	0,033	0,084
-132,599	5,763	0,126	0,068
-131,585	800,000	-0,037	0,080
-130,570	4,875	0,079	0,042
-129,556	-69,140	0,031	-0,009
-128,541	248,824	0,087	0,108
-127,526	800,000	-0,046	-0,110
-126,512	-200,000	0,001	0,054
-125,497	615,069	-0,011	0,019
-124,483	15,404	0,060	-0,034
-123,468	-125,011	-0,037	0,004
-122,453	203,995	-0,087	-0,098
-121,439	-107,598	0,120	-0,019
-120,424	49,972	-0,103	-0,071
-119,410	-200,000	0,008	0,061
-118,395	-61,997	-0,024	0,007
-117,380	62,381	0,079	0,057
-116,366	34,114	-0,131	0,083
-115,351	-200,000	0,007	-0,111
-114,337	-139,251	0,179	0,014
-113,322	674,419	0,023	0,044
-112,307	50,983	-0,128	-0,088
-111,293	-200,000	0,017	0,086
-110,278	-31,006	0,059	-0,024
-109,264	195,382	0,066	0,073
-108,249	-200,000	0,016	-0,078
-107,234	10,408	-0,083	0,046
-106,220	800,000	-0,023	0,070
-105,205	-7,011	-0,046	0,023
-104,191	-103,279	0,089	0,015
-103,176	-200,000	0,007	0,176
-102,162	598,545	0,050	0,090
-101,147	341,099	-0,010	0,014
-100,132	800,000	-0,061	-0,124
-99,118	-110,091	-0,074	0,011
-98,103	-200,000	0,004	-0,029
-97,089	61,699	-0,100	-0,072
-96,074	156,129	0,083	-0,083
-95,059	-32,906	-0,075	0,030
-94,045	-200,000	0,004	0,075
-93,030	103,491	0,031	-0,026
-92,016	-200,000	-0,019	-0,235
-91,001	-143,620	-0,043	-0,003
-89,986	96,187	0,030	-0,025
-88,972	800,000	0,047	-0,110
-87,957	-76,969	-0,108	-0,027
-86,943	20,857	-0,043	0,025
-85,928	-96,713	-0,184	0,035
-84,913	-200,000	-0,005	0,039
-83,899	-90,958	-0,160	0,033
-82,884	-200,000	0,018	0,091
-81,870	800,000	-0,033	-0,092
-80,855	788,425	-0,014	0,028
-79,840	-200,000	-0,022	-0,088
-78,826	800,000	0,023	-0,073
-77,811	123,295	0,083	0,075
-76,797	97,236	-0,056	0,046
-75,782	800,000	0,018	0,044
-74,767	800,000	-0,022	0,060
-73,753	-92,256	0,011	0,002
-72,738	66,232	0,026	0,019
-71,724	-2,797	0,051	0,026
-70,709	-200,000	0,023	-0,099
-69,694	148,608	0,036	0,035
-68,680	38,848	-0,109	0,071
-67,665	800,000	-0,036	0,076
-66,651	-200,000	0,001	-0,074
-65,636	70,938	-0,142	-0,107
-64,622	11,402	-0,090	0,050
-63,607	-65,326	-0,068	0,020
-62,592	-76,804	-0,023	-0,006
-61,578	131,479	-0,042	-0,039
-60,563	59,733	0,010	-0,007
-59,549	-113,478	-0,047	-0,007
-58,534	-129,476	-1,332	-0,132
-57,519	697,652	-0,822	-1,574
-56,505	-200,000	-0,821	-4,403
-55,490	-74,285	0,633	-0,165
-54,476	800,000	4,800	11,553
-53,461	-200,000	13,581	251,147
-52,446	-200,000	687,075	2255,507
-51,432	598,360	1618,053	2919,181
-50,417	120,438	1631,831	1468,471
-49,403	74,731	1286,644	980,080
-48,388	38,530	1022,606	659,343
-47,373	24,528	980,683	586,404
-46,359	23,755	970,069	577,507
-45,344	22,731	966,024	571,739
-44,330	22,735	964,422	570,783
-43,315	22,575	963,121	569,470
-42,300	22,610	961,822	568,790
-41,286	22,623	960,909	568,272
-40,271	22,658	959,895	567,763
-39,257	22,581	959,091	567,014
-38,242	22,556	958,212	566,393
-37,227	22,537	957,377	565,814
-36,213	22,462	956,508	565,037
-35,198	22,576	955,419	564,738
-34,184	22,567	954,887	564,374
-33,169	22,526	954,252	563,842
-32,154	22,634	953,170	563,530
-31,140	22,595	952,264	562,845
-30,125	22,636	951,563	562,542
-29,111	22,569	950,586	561,724
-28,096	22,584	950,078	561,452
-27,082	22,600	949,221	560,972
-26,067	22,615	948,443	560,540
-25,052	22,632	947,620	560,085
-24,038	22,633	947,074	559,744
-23,023	22,581	946,410	559,163
-22,009	22,650	945,679	558,929
-20,994	22,632	945,148	558,536
-19,979	22,622	944,465	558,077
-18,965	22,611	943,910	557,693
-17,950	22,596	943,289	557,256
-16,936	22,517	942,755	556,666
-15,921	22,517	942,013	556,208
-14,906	22,499	941,292	555,701
-13,892	22,507	940,719	555,367
-12,877	22,490	940,177	554,971
-11,863	22,408	939,432	554,251
-10,848	22,455	938,855	554,038
-9,833	22,573	938,383	554,109
-8,819	22,573	937,902	553,803
-7,804	22,441	937,143	552,914
-6,790	22,474	936,589	552,670
-5,775	22,514	935,685	552,241
-4,760	22,536	935,234	552,024
-3,746	22,471	934,644	551,449
-2,731	22,367	934,045	550,744
-1,717	22,361	933,209	550,212
-0,702	22,276	932,644	549,591
0,313	22,139	931,887	549,542
1,327	24,604	929,556	555,846
2,342	32,377	808,282	504,342
3,356	27,876	508,580	309,651
4,371	3,933	373,107	196,823
5,386	1,024	355,989	184,221
6,400	-0,318	349,678	179,326
7,415	-1,271	346,814	176,704
8,429	-1,514	345,341	175,650
9,444	-1,581	344,398	175,075
10,459	-1,546	343,676	174,734
11,473	-1,618	343,180	174,380
12,488	-1,249	342,617	174,514
13,502	-1,210	342,103	174,282
14,517	-1,274	341,461	173,865
15,531	-1,700	340,898	173,064
16,546	-1,627	340,370	172,866
17,561	-1,728	339,943	172,515
18,575	-1,742	339,656	172,338
19,590	-1,840	339,133	171,943
20,604	-1,697	338,827	171,939
21,619	-1,814	338,460	171,601
22,634	-1,722	338,083	171,501
23,648	-1,838	337,857	171,236
24,663	-1,635	337,417	171,234
25,677	-1,910	337,293	170,837
26,692	-1,773	336,882	170,772
27,707	-1,723	336,425	170,583
28,721	-1,648	336,220	170,550
29,736	-1,822	336,015	170,230
30,750	-1,724	335,801	170,219
31,765	-1,655	335,187	169,973
32,780	-1,716	334,984	169,784
33,794	-1,856	334,858	169,545
34,809	-1,799	334,547	169,438
35,823	-1,794	334,214	169,259
36,838	-1,717	333,828	169,137
37,853	-1,778	333,730	169,002
38,867	-1,749	333,424	168,866
39,882	-1,875	333,167	168,576
40,896	-1,889	332,840	168,380
41,911	-1,781	332,482	168,307
42,926	-2,011	332,300	167,938
43,940	-1,865	331,942	167,908
44,955	-1,818	331,748	167,849
45,969	-2,020	331,470	167,463
46,984	-2,155	331,187	167,152
47,999	-2,345	331,006	166,830
49,013	-2,339	330,514	166,574
50,028	-2,361	330,223	166,387
51,042	-2,428	329,841	166,105
52,057	-2,522	329,598	165,861
53,071	-2,417	329,386	165,859
54,086	-2,437	329,146	165,700
55,101	-2,427	329,041	165,643
56,115	-2,086	328,707	165,846
57,130	-1,818	328,740	166,149
58,144	-1,655	328,577	166,235
59,159	-1,534	328,165	166,147
60,174	-1,587	328,035	166,007
61,188	-1,594	327,786	165,858
62,203	-1,697	327,601	165,634
63,217	-1,726	327,240	165,405
64,232	-1,602	326,962	165,389
65,247	-1,591	326,769	165,289
66,261	-1,508	326,355	165,157
67,276	-1,731	325,997	164,712
68,290	-1,910	325,805	164,401
69,305	-1,833	325,456	164,296
70,320	-2,064	325,299	163,945
71,334	-1,866	325,235	164,119
72,349	-1,515	325,093	164,423
73,363	-1,546	324,699	164,175
74,378	-1,504	324,425	164,067
75,393	-1,611	324,219	163,830
76,407	-1,737	324,040	163,585
77,422	-1,675	323,759	163,497
78,436	-1,549	323,559	163,521
79,451	-1,551	323,175	163,311
80,466	-1,673	322,712	162,927
81,480	-1,779	322,453	162,665
82,495	-2,028	322,335	162,317
83,509	-2,020	322,152	162,219
84,524	-2,049	321,939	162,065
85,539	-2,027	321,456	161,832
86,553	-2,088	321,249	161,647
87,568	-2,185	321,244	161,523
88,582	-1,952	320,908	161,595
89,597	-1,979	320,587	161,389
90,611	-1,951	320,517	161,371
91,626	-1,728	320,270	161,477
92,641	-1,666	319,973	161,379
93,655	-1,754	319,722	161,142
94,670	-1,918	319,689	160,932
95,684	-1,967	319,271	160,654
96,699	-1,851	319,111	160,685
97,714	-1,950	318,929	160,472
98,728	-2,070	318,463	160,093
99,743	-2,162	318,341	159,916
100,757	-1,991	317,921	159,877
101,772	-2,160	317,766	159,601
102,787	-2,051	317,711	159,677
103,801	-1,779	317,448	159,827
104,816	-1,851	317,248	159,633
105,830	-1,733	317,183	159,714
106,845	-1,647	316,826	159,613
107,860	-1,658	316,517	159,431
108,874	-1,785	316,364	159,203
109,889	-1,804	316,135	159,053
110,903	-1,800	315,860	158,905
111,918	-1,840	315,505	158,669
112,933	-1,813	315,424	158,644
113,947	-1,759	315,141	158,545
114,962	-1,725	315,057	158,525
115,976	-1,802	314,816	158,307
116,991	-1,916	314,623	158,073
118,006	-1,702	314,341	158,147
119,020	-1,951	314,185	157,788
120,035	-1,599	314,107	158,111
121,049	-1,705	313,944	157,902
122,064	-1,688	313,706	157,786
123,079	-1,808	313,247	157,413
124,093	-1,949	313,064	157,157
125,108	-2,075	312,711	156,831
126,122	-2,240	312,502	156,537
127,137	-2,205	312,208	156,413
128,151	-2,124	312,015	156,388
129,166	-2,018	311,879	156,419
130,181	-1,938	311,566	156,333
131,195	-2,154	311,276	155,944
132,210	-1,887	311,182	156,166
133,224	-1,900	311,101	156,098
134,239	-1,734	310,898	156,157
135,254	-1,607	310,644	156,150
136,268	-1,826	310,363	155,764
137,283	-2,176	309,973	155,186
138,297	-2,265	309,794	154,988
139,312	-2,131	309,556	154,997
140,327	-1,830	309,378	155,210
141,341	-1,568	309,398	155,482
142,356	-1,479	309,216	155,470
143,370	-1,334	309,012	155,506
144,385	-1,300	308,825	155,434
145,400	-1,395	308,469	155,141
146,414	-1,492	308,394	154,988
147,429	-1,395	308,118	154,937
148,443	-1,475	308,074	154,818
149,458	-1,418	307,849	154,750
150,473	-1,294	307,590	154,736
151,487	-1,323	307,380	154,586
152,502	-1,415	307,068	154,320
153,516	-1,386	306,811	154,206
154,531	-1,428	306,612	154,049
155,546	-1,454	306,483	153,943
156,560	-1,491	306,180	153,739
157,575	-1,501	305,924	153,587
158,589	-1,467	305,621	153,456
159,604	-1,468	305,628	153,445
160,619	-1,456	305,202	153,230
161,633	-1,533	305,238	153,154
162,648	-1,510	305,065	153,077
163,662	-1,442	304,920	153,062
164,677	-1,506	304,672	152,857
165,692	-1,439	304,450	152,802
166,706	-1,542	304,268	152,590
167,721	-1,592	304,047	152,415
168,735	-1,580	303,850	152,314
169,750	-1,188	303,684	152,622
170,764	-1,304	303,525	152,408
171,779	-1,342	303,447	152,316
172,794	-1,288	303,156	152,212
173,808	-1,526	302,983	151,868
174,823	-1,783	302,348	151,272
175,837	-2,069	302,178	150,880
176,852	-1,548	302,266	151,445
177,867	-1,259	302,225	151,707
178,881	-1,102	301,840	151,660
179,896	-1,200	301,759	151,506
180,910	-1,316	301,464	151,227
181,925	-1,101	301,251	151,325
182,940	-1,045	301,042	151,264
183,954	-1,313	301,010	150,961
184,969	-1,435	300,698	150,667
185,983	-1,298	300,412	150,649
186,998	-1,262	300,103	150,518
188,013	-1,340	300,084	150,415
189,027	-1,341	299,887	150,302
190,042	-1,405	299,689	150,125
191,056	-1,211	299,649	150,287
192,071	-1,168	299,446	150,216
193,086	-1,124	299,212	150,130
194,100	-1,095	298,740	149,909
195,115	-1,353	298,667	149,598
196,129	-1,220	298,409	149,590
197,144	-1,341	298,174	149,338
198,159	-1,111	298,093	149,515
199,173	-1,226	297,871	149,275
200,188	-0,986	297,570	149,352
201,202	-1,361	297,227	148,789
202,217	-1,860	297,039	148,181
203,232	-1,863	296,714	148,003
204,246	-1,542	296,556	148,233
205,261	-1,270	296,572	148,500
206,275	-1,221	296,409	148,455
207,290	-1,223	296,163	148,316
208,304	-1,373	296,071	148,107
209,319	-1,345	295,992	148,081
210,334	-1,130	295,522	148,048
211,348	-1,396	295,376	147,696
212,363	-1,294	295,199	147,696
213,377	-1,231	295,010	147,652
214,392	-1,339	294,928	147,489
215,407	-1,577	294,490	147,020
216,421	-1,614	294,265	146,859
217,436	-1,745	294,229	146,697
218,450	-1,638	294,079	146,716
219,465	-1,353	293,664	146,778
220,480	-1,429	293,664	146,689
221,494	-1,353	293,504	146,672
222,509	-1,539	293,296	146,371
223,523	-1,150	293,114	146,652
224,538	-1,334	293,119	146,459
225,553	-1,207	292,759	146,392
226,567	-1,180	292,620	146,336
227,582	-1,093	292,433	146,315
228,596	-1,090	292,253	146,215
229,611	-1,012	292,157	146,231
230,626	-0,994	291,814	146,064
231,640	-1,497	291,316	145,306
232,655	-1,937	291,208	144,808
233,669	-1,905	290,992	144,719
234,684	-2,013	290,646	144,428
235,699	-1,905	290,522	144,459
236,713	-1,842	290,689	144,591
237,728	-1,471	290,239	144,717
238,742	-1,489	290,153	144,644
239,757	-1,291	289,988	144,743
240,772	-1,357	289,961	144,652
241,786	-1,303	289,542	144,483
242,801	-1,572	289,417	144,145
243,815	-1,551	289,316	144,103
244,830	-1,385	289,019	144,103
245,844	-1,509	288,855	143,888
246,859	-1,513	288,597	143,743
247,874	-1,497	288,423	143,658
248,888	-1,609	288,338	143,495
249,903	-1,284	288,081	143,670
250,917	-1,113	288,094	143,829
251,932	-0,956	287,997	143,919
252,947	-0,206	288,027	144,649
253,961	-0,199	287,945	144,602
254,976	0,472	288,191	145,363
255,990	2,444	288,718	147,530
257,005	3,010	288,769	148,091
258,020	4,081	289,092	149,282
259,034	4,195	289,025	149,344
260,049	4,098	288,607	149,021
261,063	3,776	288,524	148,653
262,078	4,280	288,420	149,075
263,093	4,943	288,411	149,697
264,107	4,787	288,249	149,449
265,122	4,748	288,043	149,291
266,136	5,091	287,856	149,512
267,151	5,008	287,666	149,320
268,166	4,725	287,524	148,961
269,180	4,610	287,293	148,716
270,195	4,704	287,070	148,679
271,209	4,621	286,831	148,462
272,224	4,723	286,543	148,397
273,239	4,502	286,494	148,147
274,253	4,455	286,345	148,011
275,268	4,882	286,313	148,391
276,282	4,844	286,059	148,209
277,297	4,701	285,766	147,907
278,312	5,001	285,594	148,092
279,326	4,894	285,407	147,879
280,341	4,811	285,238	147,700
281,355	4,502	285,027	147,283
282,370	4,398	284,934	147,122
283,384	4,577	284,662	147,139
284,399	4,484	284,586	146,998
285,414	4,516	284,261	146,847
286,428	4,564	284,006	146,749
287,443	4,225	283,854	146,335
288,457	4,076	283,589	146,044
289,472	4,145	283,435	146,017
290,487	4,261	283,164	145,975
291,501	4,326	282,908	145,891
292,516	4,114	282,725	145,583
293,530	4,115	282,558	145,485
294,545	4,402	282,535	145,731
295,560	4,448	282,433	145,709
296,574	4,114	282,186	145,254
297,589	4,188	282,127	145,281
298,603	4,668	282,061	145,686
299,618	4,607	281,829	145,496
300,633	4,448	281,408	145,116
301,647	4,505	281,378	145,141
302,662	4,483	281,208	145,019
303,676	4,176	281,106	144,666
304,691	4,255	280,563	144,447
305,706	3,885	280,488	144,049
306,720	3,917	280,360	144,001
307,735	4,102	280,098	144,026
308,749	4,096	279,992	143,953
309,764	4,409	279,708	144,086
310,779	4,141	279,669	143,804
311,793	3,877	279,166	143,286
312,808	4,125	279,116	143,478
313,822	4,210	279,055	143,514
314,837	4,069	278,850	143,264
315,852	4,012	278,451	142,994
316,866	3,980	278,389	142,919
317,881	4,115	278,316	142,994
318,895	4,117	278,156	142,901
319,910	3,948	277,780	142,539
320,925	3,694	277,697	142,248
321,939	4,138	277,540	142,566
322,954	4,146	277,416	142,497
323,968	4,176	277,253	142,428
324,983	4,197	277,232	142,424
325,997	4,159	277,088	142,302
327,012	4,320	276,966	142,376
328,027	4,409	276,617	142,266
329,041	4,351	276,559	142,169
330,056	4,226	276,380	141,950
331,070	4,255	276,033	141,786
332,085	4,099	275,877	141,549
333,100	4,234	275,681	141,560
334,114	4,198	275,514	141,429
335,129	4,051	275,072	141,055
336,143	4,337	275,238	141,389
337,158	4,532	275,072	141,470
338,173	4,210	274,922	141,086
339,187	4,106	274,681	140,854
340,202	4,227	274,596	140,909
341,216	4,228	274,391	140,792
342,231	4,287	274,104	140,686
343,246	4,097	274,063	140,480
344,260	4,228	273,760	140,431
345,275	4,454	273,740	140,613
346,289	4,634	273,674	140,731
347,304	4,654	273,370	140,581
348,319	4,106	273,344	140,056
349,333	4,472	272,982	140,190
350,348	4,693	272,887	140,330
351,362	4,673	272,785	140,247
352,377	4,480	272,496	139,911
353,392	4,479	272,406	139,851
354,406	4,460	272,240	139,737
355,421	190,930	1331,330	1407,309
356,435	154,219	1460,465	1407,433
