DTS Sentinel unit serial number:	SN410029Multiplexer serial number:	ORYXHardware model number:	OX2-SRSoftware version number:	ORYX F/W v4,00 Oryx Data Collector v3.7.2.0data status	okinstallation	B4 Nyhavnadifferential loss correction	single-endedforward channel	channel 2reverse channel	N/Adate	2023/12/19time	03:20:13forward acquisition time	300,00reverse acquisition time	0,00gamma	499,1914k internal	0,3125k external	0,3125temperature offset calibration	1,0000default loss term (dB/km)	0,3820temperature slope calibration	1,0000multiplexer offset coefficient	1,0000multiplexer slope coefficient	1,0000fibre end	0,00T internal ref (°C)	21,14T ext. ref 1 (°C)	5,78T ext. ref 2 (°C)	5,72length (m)	temperature (°C)	Stokes	anti-Stokes-744,400	131,645	0,041	0,040
-743,385	9,138	-0,213	0,120
-742,371	-52,230	0,131	-0,045
-741,356	-126,101	-0,288	-0,032
-740,342	-200,000	0,005	0,059
-739,327	-90,279	-0,360	-0,077
-738,312	-200,000	-0,008	-0,123
-737,298	-108,351	-0,341	0,054
-736,283	-83,522	0,062	0,015
-735,269	129,535	-0,145	0,138
-734,254	-98,651	0,121	0,023
-733,239	-74,277	-0,385	-0,103
-732,225	713,792	0,049	-0,096
-731,210	404,188	0,052	0,081
-730,196	-126,886	0,045	-0,005
-729,181	-200,000	0,019	-0,211
-728,167	281,832	0,043	0,058
-727,152	-200,000	0,001	0,039
-726,137	-200,000	0,010	-0,116
-725,123	-200,000	-0,017	-0,077
-724,108	200,125	-0,156	-0,179
-723,094	-18,083	-0,096	-0,045
-722,079	800,000	-0,042	-0,129
-721,064	-55,948	0,073	0,024
-720,050	800,000	-0,029	-0,085
-719,035	800,000	-0,031	-0,086
-718,021	64,230	0,070	-0,052
-717,006	-31,117	-0,249	0,104
-715,991	-200,000	0,009	-0,132
-714,977	19,611	0,067	-0,040
-713,962	800,000	-0,029	-0,071
-712,948	-38,750	0,094	-0,037
-711,933	800,000	-0,046	-0,124
-710,918	147,043	-0,089	-0,089
-709,904	800,000	-0,040	-0,123
-708,889	800,000	-0,031	-0,102
-707,875	800,000	-0,025	-0,073
-706,860	136,677	-0,021	0,020
-705,845	-200,000	-0,011	-0,050
-704,831	224,249	-0,103	-0,124
-703,816	503,231	0,022	-0,037
-702,802	-10,675	-0,071	0,035
-701,787	274,974	-0,048	-0,063
-700,772	226,496	-0,025	0,030
-699,758	800,000	-0,026	0,057
-698,743	-113,450	-0,119	-0,017
-697,729	800,000	-0,005	0,016
-696,714	112,498	0,097	-0,088
-695,699	18,034	-0,176	0,104
-694,685	61,712	0,039	0,029
-693,670	98,850	0,061	0,052
-692,656	353,326	-0,035	0,052
-691,641	76,494	0,015	-0,012
-690,627	-13,319	-0,022	0,010
-689,612	-33,692	0,041	-0,017
-688,597	800,000	-0,026	0,076
-687,583	-14,349	0,100	-0,048
-686,568	121,953	0,125	-0,116
-685,554	630,557	0,058	-0,110
-684,539	435,508	0,077	-0,125
-683,524	147,147	-0,051	0,051
-682,510	-176,673	0,118	-0,002
-681,495	800,000	-0,042	0,088
-680,481	262,305	-0,064	-0,082
-679,466	283,056	-0,077	-0,103
-678,451	-44,348	-0,051	0,019
-677,437	191,732	0,085	0,095
-676,422	539,826	0,012	0,021
-675,408	-102,310	0,095	0,017
-674,393	282,452	-0,081	0,108
-673,378	800,000	0,021	0,056
-672,364	-95,169	0,048	0,009
-671,349	-110,590	-0,064	0,010
-670,335	-169,700	0,179	0,005
-669,320	-200,000	0,003	-0,080
-668,305	-85,086	0,053	-0,012
-667,291	60,707	0,067	-0,049
-666,276	11,703	-0,086	-0,049
-665,262	-80,368	-0,019	0,005
-664,247	-180,620	-0,089	-0,001
-663,232	71,589	-0,141	0,108
-662,218	629,726	0,019	0,036
-661,203	187,435	-0,048	-0,054
-660,189	-165,133	0,049	0,002
-659,174	-200,000	-0,007	0,102
-658,159	800,000	-0,074	-0,191
-657,145	666,805	-0,059	-0,113
-656,130	108,130	0,037	-0,033
-655,116	373,708	0,028	-0,043
-654,101	-32,656	0,032	0,013
-653,086	-125,504	-0,053	-0,006
-652,072	47,959	-0,140	-0,097
-651,057	171,695	-0,084	-0,089
-650,043	83,727	-0,146	0,118
-649,028	128,756	0,053	-0,050
-648,014	49,971	0,121	-0,085
-646,999	269,271	0,055	-0,071
-645,984	259,786	0,033	0,042
-644,970	204,517	-0,058	0,067
-643,955	-200,000	0,012	0,067
-642,941	0,136	0,042	-0,022
-641,926	-107,677	0,048	0,008
-640,911	74,192	-0,087	0,068
-639,897	-71,387	0,194	0,053
-638,882	-95,343	-0,073	-0,014
-637,868	-200,000	0,000	-0,029
-636,853	88,252	0,024	0,020
-635,838	-200,000	0,020	-0,072
-634,824	-189,915	-0,071	-0,001
-633,809	-60,726	-0,076	0,024
-632,795	800,000	-0,031	0,098
-631,780	800,000	-0,037	-0,089
-630,765	-100,652	0,138	-0,025
-629,751	-15,427	-0,167	0,079
-628,736	800,000	-0,032	-0,090
-627,722	57,486	-0,163	-0,118
-626,707	77,233	-0,040	-0,032
-625,692	382,003	0,050	0,076
-624,678	98,700	0,102	-0,088
-623,663	115,776	-0,160	-0,145
-622,649	-200,000	-0,030	-0,117
-621,634	-2,020	0,035	0,018
-620,619	-175,133	-0,084	0,002
-619,605	-71,548	0,064	-0,018
-618,590	-107,707	-0,101	-0,016
-617,576	179,532	-0,051	-0,056
-616,561	-200,000	0,017	0,090
-615,546	-200,000	0,020	0,175
-614,532	-118,921	-0,079	0,010
-613,517	-200,000	-0,014	-0,084
-612,503	-45,671	0,060	0,022
-611,488	800,000	-0,052	-0,111
-610,474	-68,691	-0,067	0,019
-609,459	-28,410	-0,106	-0,045
-608,444	-70,329	0,120	-0,034
-607,430	180,015	-0,090	0,097
-606,415	-41,834	0,008	-0,003
-605,401	-49,182	-0,126	0,044
-604,386	-200,000	0,016	0,198
-603,371	244,289	0,030	-0,037
-602,357	799,059	0,043	0,089
-601,342	121,890	-0,090	-0,083
-600,328	-27,267	-0,053	-0,023
-599,313	-200,000	0,021	-0,073
-598,298	137,088	0,100	0,096
-597,284	-200,000	-0,006	0,031
-596,269	359,426	-0,040	0,060
-595,255	-166,278	0,055	0,002
-594,240	-200,000	-0,007	0,067
-593,225	-132,438	-0,109	-0,010
-592,211	238,113	-0,033	0,040
-591,196	-91,731	0,066	-0,014
-590,182	800,000	0,035	0,075
-589,167	800,000	0,035	0,104
-588,152	-96,779	0,116	0,022
-587,138	86,556	0,085	0,070
-586,123	-200,000	0,006	-0,114
-585,109	21,093	-0,087	-0,052
-584,094	36,860	-0,040	-0,026
-583,079	-200,000	0,000	0,093
-582,065	800,000	0,011	0,026
-581,050	416,913	-0,067	0,106
-580,036	-71,357	-0,083	-0,023
-579,021	-54,095	-0,101	-0,034
-578,006	794,660	-0,106	-0,216
-576,992	62,816	0,026	-0,019
-575,977	87,551	0,127	-0,104
-574,963	-200,000	0,005	-0,041
-573,948	-58,327	0,061	-0,019
-572,934	164,817	0,044	-0,046
-571,919	-38,851	-0,048	0,019
-570,904	800,000	0,009	0,024
-569,890	-91,665	-0,035	-0,007
-568,875	800,000	-0,016	-0,036
-567,861	202,155	0,045	0,052
-566,846	67,643	-0,077	0,058
-565,831	-67,101	-0,042	0,012
-564,817	184,139	-0,063	-0,069
-563,802	-87,234	-0,025	-0,006
-562,788	-143,110	-0,108	-0,008
-561,773	4,247	-0,071	0,039
-560,758	233,259	0,045	0,055
-559,744	261,924	0,054	0,070
-558,729	-200,000	0,009	0,030
-557,715	-141,716	-0,153	0,011
-556,700	-200,000	0,006	0,109
-555,685	-200,000	-0,009	-0,038
-554,671	-200,000	0,005	0,036
-553,656	439,959	0,037	0,060
-552,642	-64,781	-0,167	0,050
-551,627	179,609	-0,030	-0,032
-550,612	398,121	0,030	-0,047
-549,598	-138,720	-0,025	0,002
-548,583	10,600	-0,093	-0,052
-547,569	800,000	-0,065	-0,203
-546,554	-100,680	0,099	-0,018
-545,539	-111,018	-0,070	0,011
-544,525	77,028	0,076	0,060
-543,510	-37,114	-0,019	0,007
-542,496	162,844	0,010	-0,010
-541,481	-9,647	-0,092	-0,045
-540,466	-200,000	-0,016	-0,084
-539,452	239,936	0,051	-0,063
-538,437	144,647	0,049	-0,048
-537,423	-95,082	0,041	0,008
-536,408	-151,445	0,219	-0,012
-535,393	27,931	-0,131	-0,081
-534,379	-138,004	-0,049	0,004
-533,364	-59,654	0,048	-0,015
-532,350	127,207	0,064	0,060
-531,335	800,000	0,029	0,083
-530,321	800,000	0,007	-0,023
-529,306	544,427	0,054	0,096
-528,291	-31,882	-0,118	0,048
-527,277	800,000	-0,014	-0,042
-526,262	136,632	-0,067	-0,064
-525,248	2,472	-0,095	0,050
-524,233	-135,991	0,189	0,016
-523,218	243,878	-0,076	0,094
-522,204	571,743	-0,067	0,121
-521,189	66,820	-0,118	-0,089
-520,175	211,177	-0,043	0,050
-519,160	87,201	0,124	-0,101
-518,145	-180,292	-0,038	-0,001
-517,131	-101,394	0,111	-0,020
-516,116	-105,985	-0,119	0,020
-515,102	-31,514	-0,007	0,003
-514,087	-42,659	0,041	0,015
-513,072	-98,402	0,083	-0,016
-512,058	262,908	-0,072	0,092
-511,043	636,877	-0,029	-0,055
-510,029	-149,232	-0,050	0,003
-509,014	17,872	0,089	0,052
-507,999	-86,175	0,126	0,028
-506,985	-168,627	-0,113	0,003
-505,970	35,216	-0,042	0,027
-504,956	108,261	0,054	0,048
-503,941	164,258	0,036	-0,037
-502,926	-155,354	0,122	-0,006
-501,912	-200,000	-0,012	0,064
-500,897	-63,271	0,032	0,010
-499,883	4,674	0,021	0,011
-498,868	-40,551	-0,108	-0,041
-497,853	-200,000	0,047	-0,159
-496,839	-200,000	0,012	0,045
-495,824	-94,347	0,095	-0,019
-494,810	-99,611	-0,094	-0,017
-493,795	173,374	0,112	-0,120
-492,781	360,937	0,080	0,119
-491,766	-85,882	0,175	0,040
-490,751	-18,847	-0,058	-0,026
-489,737	-135,490	0,112	-0,010
-488,722	800,000	-0,037	0,113
-487,708	555,634	0,080	0,142
-486,693	-120,715	0,120	0,015
-485,678	-200,000	0,004	0,030
-484,664	-31,748	-0,188	-0,077
-483,649	-166,875	0,048	-0,001
-482,635	8,621	-0,101	-0,056
-481,620	800,000	0,019	0,046
-480,605	-200,000	0,009	0,091
-479,591	800,000	-0,018	-0,049
-478,576	-144,318	-0,140	-0,009
-477,562	-200,000	0,003	-0,022
-476,547	-14,094	0,036	0,017
-475,532	-200,000	-0,015	0,124
-474,518	-65,699	0,015	0,004
-473,503	-200,000	-0,025	0,134
-472,489	43,004	-0,051	0,034
-471,474	-155,828	0,051	0,002
-470,459	-108,459	-0,051	0,008
-469,445	-132,043	-0,027	-0,003
-468,430	20,002	-0,041	0,024
-467,416	205,056	-0,041	0,047
-466,401	523,812	0,044	0,076
-465,386	68,645	-0,043	0,032
-464,372	-54,521	0,100	0,033
-463,357	73,784	-0,054	-0,042
-462,343	-39,599	-0,127	0,049
-461,328	357,698	0,063	-0,093
-460,313	-200,000	-0,006	-0,153
-459,299	12,872	0,079	-0,045
-458,284	103,140	-0,002	-0,002
-457,270	21,232	-0,027	0,016
-456,255	-200,000	-0,001	-0,054
-455,241	60,000	0,147	0,107
-454,226	-200,000	-0,000	-0,054
-453,211	-111,061	-0,060	0,009
-452,197	-2,582	0,065	0,033
-451,182	-31,890	-0,061	-0,025
-450,168	-25,934	-0,067	0,029
-449,153	53,996	-0,040	-0,028
-448,138	-151,226	-0,081	0,004
-447,124	-24,249	-0,049	-0,021
-446,109	-70,847	-0,131	0,036
-445,095	800,000	0,018	0,051
-444,080	-131,081	0,054	0,005
-443,065	-85,371	-0,027	-0,006
-442,051	800,000	-0,059	-0,123
-441,036	692,482	-0,041	0,080
-440,022	-0,166	-0,244	0,127
-439,007	-32,724	-0,075	0,030
-437,992	-34,533	0,156	-0,062
-436,978	299,700	-0,059	0,081
-435,963	238,088	0,049	0,060
-434,949	-160,564	-0,120	0,005
-433,934	-200,000	-0,004	0,030
-432,919	-54,277	-0,068	-0,023
-431,905	-191,851	-0,072	0,001
-430,890	437,226	-0,057	0,091
-429,876	170,087	-0,118	0,124
-428,861	-200,000	-0,012	0,148
-427,846	-79,937	0,024	-0,006
-426,832	712,186	0,049	-0,096
-425,817	-128,822	-0,171	0,017
-424,803	800,000	0,046	-0,097
-423,788	-200,000	0,012	-0,123
-422,773	-200,000	0,036	0,131
-421,759	31,109	0,045	0,028
-420,744	593,890	0,048	-0,088
-419,730	800,000	0,056	0,146
-418,715	-200,000	0,008	0,046
-417,701	-100,439	-0,081	0,015
-416,686	-194,384	0,088	0,001
-415,671	178,131	0,084	-0,090
-414,657	-200,000	-0,004	0,062
-413,642	-35,873	0,113	-0,045
-412,628	-92,841	0,090	0,018
-411,613	618,331	-0,028	0,051
-410,598	167,827	0,038	-0,040
-409,584	-200,000	0,025	0,095
-408,569	-46,820	0,054	0,019
-407,555	-99,063	-0,101	-0,019
-406,540	-200,000	0,005	0,027
-405,525	123,295	0,025	-0,023
-404,511	160,884	-0,114	-0,117
-403,496	90,324	-0,076	-0,062
-402,482	-200,000	-0,005	-0,041
-401,467	-156,205	0,082	-0,004
-400,452	130,222	0,103	0,097
-399,438	-200,000	-0,004	0,090
-398,423	-47,430	-0,107	-0,038
-397,409	-41,990	-0,132	0,049
-396,394	120,404	0,012	-0,011
-395,379	-200,000	0,010	-0,108
-394,365	800,000	-0,026	-0,067
-393,350	-200,000	0,033	-0,150
-392,336	419,406	0,092	-0,145
-391,321	800,000	-0,061	-0,137
-390,306	34,422	-0,114	-0,073
-389,292	100,423	0,074	0,063
-388,277	-91,786	0,144	0,030
-387,263	-6,081	0,171	-0,085
-386,248	482,318	0,042	-0,071
-385,233	800,000	0,032	-0,077
-384,219	-200,000	0,010	0,067
-383,204	-58,665	0,078	-0,025
-382,190	57,646	0,056	-0,040
-381,175	-108,974	-0,013	0,002
-380,160	59,444	-0,100	0,073
-379,146	320,565	0,066	0,092
-378,131	42,532	0,058	0,039
-377,117	246,271	0,094	0,117
-376,102	-23,525	-0,033	0,015
-375,088	-176,858	-0,147	0,003
-374,073	16,680	0,015	0,009
-373,058	-200,000	-0,029	-0,158
-372,044	777,375	0,056	0,113
-371,029	-200,000	0,013	-0,062
-370,015	-200,000	0,013	0,071
-369,000	-200,000	-0,007	-0,050
-367,985	482,467	0,062	-0,104
-366,971	-200,000	-0,007	-0,034
-365,956	-200,000	-0,019	-0,143
-364,942	74,226	0,102	0,078
-363,927	140,629	-0,084	0,081
-362,912	-45,813	0,069	-0,025
-361,898	493,477	0,086	0,146
-360,883	101,331	-0,134	-0,115
-359,869	-200,000	0,024	-0,249
-358,854	245,289	-0,035	-0,043
-357,839	49,315	-0,009	0,006
-356,825	800,000	-0,026	0,067
-355,810	107,162	0,074	-0,064
-354,796	-200,000	-0,005	-0,091
-353,781	100,782	0,029	0,025
-352,766	-1,807	-0,045	-0,023
-351,752	-200,000	0,024	-0,083
-350,737	-200,000	0,011	-0,066
-349,723	800,000	-0,025	-0,064
-348,708	800,000	0,039	-0,124
-347,693	-74,793	0,194	-0,051
-346,679	0,360	-0,064	-0,034
-345,664	-200,000	0,000	-0,086
-344,650	-200,000	-0,023	-0,175
-343,635	168,243	0,021	0,022
-342,620	-126,923	0,139	-0,015
-341,606	-8,447	-0,083	-0,041
-340,591	-200,000	0,007	0,079
-339,577	-24,627	-0,107	-0,047
-338,562	-38,556	0,058	-0,022
-337,548	61,628	0,097	-0,071
-336,533	-200,000	0,010	-0,290
-335,518	381,968	0,026	-0,039
-334,504	-150,833	0,125	-0,007
-333,489	-200,000	-0,008	0,073
-332,475	-200,000	0,007	0,031
-331,460	800,000	-0,044	0,133
-330,445	142,575	0,063	-0,062
-329,431	273,914	-0,029	0,038
-328,416	-200,000	-0,014	0,174
-327,402	-200,000	0,000	-0,080
-326,387	211,582	0,056	0,065
-325,372	153,466	0,024	0,024
-324,358	39,373	-0,058	0,038
-323,343	-200,000	-0,017	0,073
-322,329	-22,083	0,087	0,039
-321,314	800,000	-0,030	0,063
-320,299	104,332	-0,026	0,022
-319,285	-68,845	-0,090	0,025
-318,270	355,195	0,047	0,069
-317,256	-113,723	-0,155	-0,022
-316,241	-200,000	-0,011	-0,112
-315,226	800,000	0,051	0,119
-314,212	-81,876	0,023	-0,005
-313,197	-200,000	0,029	0,240
-312,183	352,644	-0,035	0,050
-311,168	239,334	-0,033	-0,041
-310,153	423,053	-0,019	-0,030
-309,139	800,000	-0,046	-0,110
-308,124	15,986	0,056	-0,032
-307,110	-200,000	0,007	0,044
-306,095	-67,222	0,079	-0,022
-305,080	-44,719	0,100	-0,036
-304,066	-200,000	-0,008	0,085
-303,051	-200,000	-0,003	-0,166
-302,037	800,000	0,013	-0,037
-301,022	-56,819	-0,041	-0,013
-300,008	-115,619	0,207	0,028
-298,993	-87,464	0,055	0,012
-297,978	-200,000	0,007	0,035
-296,964	-157,305	-0,012	0,001
-295,949	787,371	-0,015	-0,030
-294,935	800,000	-0,016	-0,045
-293,920	-200,000	0,012	-0,048
-292,905	-200,000	0,026	0,111
-291,891	122,779	0,144	-0,132
-290,876	-200,000	0,002	-0,010
-289,862	-54,609	-0,089	0,029
-288,847	120,631	0,055	-0,050
-287,832	-70,146	0,024	-0,007
-286,818	-136,755	0,059	-0,005
-285,803	26,903	0,127	0,077
-284,789	78,880	0,013	-0,010
-283,774	800,000	0,053	-0,155
-282,759	-200,000	-0,002	-0,027
-281,745	-106,984	-0,078	-0,013
-280,730	10,194	-0,091	-0,051
-279,716	-79,671	-0,031	-0,008
-278,701	-54,428	0,084	0,028
-277,686	-160,935	0,111	0,004
-276,672	16,075	-0,095	-0,055
-275,657	146,795	0,062	-0,061
-274,643	-50,554	-0,173	0,059
-273,628	245,108	-0,049	-0,060
-272,613	-200,000	0,004	-0,097
-271,599	-200,000	0,016	0,123
-270,584	800,000	0,020	0,058
-269,570	-122,452	0,069	-0,008
-268,555	-34,282	-0,139	0,056
-267,540	383,823	-0,035	-0,052
-266,526	60,594	-0,141	-0,102
-265,511	800,000	0,040	-0,125
-264,497	800,000	0,013	0,041
-263,482	-200,000	0,001	-0,086
-262,467	-200,000	0,016	0,080
-261,453	209,588	-0,125	0,144
-260,438	-200,000	-0,017	-0,098
-259,424	-200,000	-0,004	0,020
-258,409	255,786	0,065	-0,081
-257,395	332,206	0,048	0,069
-256,380	800,000	-0,058	0,140
-255,365	-200,000	0,038	0,151
-254,351	797,989	0,038	-0,077
-253,336	-200,000	0,005	-0,058
-252,322	179,472	-0,101	-0,108
-251,307	800,000	-0,014	-0,037
-250,292	120,715	-0,051	-0,046
-249,278	133,866	-0,052	-0,050
-248,263	6,152	0,162	0,088
-247,249	-113,536	0,076	-0,011
-246,234	40,552	0,066	-0,043
-245,219	-200,000	-0,029	0,128
-244,205	512,657	0,030	-0,051
-243,190	-59,765	0,076	0,024
-242,176	-200,000	0,006	-0,088
-241,161	111,831	-0,101	0,089
-240,146	-200,000	-0,021	0,174
-239,132	-165,019	0,046	0,001
-238,117	165,033	0,043	0,045
-237,103	652,417	-0,059	0,111
-236,088	3,587	0,012	-0,006
-235,073	497,432	0,053	0,090
-234,059	-79,558	0,020	0,005
-233,044	800,000	0,012	-0,028
-232,030	170,072	0,030	-0,031
-231,015	-69,243	-0,045	-0,013
-230,000	69,948	0,108	-0,082
-228,986	-51,252	-0,091	-0,031
-227,971	740,186	-0,049	0,096
-226,957	-200,000	-0,034	0,150
-225,942	-200,000	-0,007	0,082
-224,927	-84,569	-0,162	-0,037
-223,913	-13,393	0,050	0,024
-222,898	-200,000	-0,006	0,042
-221,884	-200,000	-0,002	-0,065
-220,869	75,576	0,109	0,084
-219,855	171,971	0,066	-0,069
-218,840	-200,000	0,022	0,105
-217,825	-110,131	-0,111	0,017
-216,811	411,106	0,093	0,144
-215,796	800,000	-0,023	0,069
-214,782	-200,000	-0,038	-0,205
-213,767	800,000	-0,075	0,154
-212,752	-69,515	0,034	-0,009
-211,738	382,086	0,101	0,152
-210,723	-156,047	-0,160	-0,007
-209,709	-83,292	-0,077	0,018
-208,694	-118,138	-0,137	0,018
-207,679	96,552	0,023	-0,019
-206,665	-145,432	0,119	-0,008
-205,650	174,804	0,099	0,104
-204,636	-200,000	0,016	0,079
-203,621	36,102	-0,099	-0,063
-202,606	-151,652	0,103	0,005
-201,592	-16,024	-0,030	0,014
-200,577	-157,706	0,181	-0,008
-199,563	-16,438	0,129	0,060
-198,548	-96,402	0,098	0,019
-197,533	-200,000	-0,041	-0,153
-196,519	-200,000	0,023	0,127
-195,504	-91,019	0,100	0,021
-194,490	-19,730	0,065	-0,029
-193,475	-115,054	0,072	0,010
-192,460	-91,099	-0,084	0,017
-191,446	39,129	0,083	-0,054
-190,431	-32,940	-0,067	-0,027
-189,417	305,823	0,020	0,027
-188,402	-137,333	-0,108	-0,009
-187,387	800,000	0,044	-0,138
-186,373	91,452	-0,096	0,078
-185,358	-200,000	-0,010	-0,056
-184,344	-118,531	0,049	-0,006
-183,329	-200,000	0,022	0,081
-182,315	260,258	-0,066	0,083
-181,300	-53,484	-0,063	0,021
-180,285	-200,000	-0,004	-0,064
-179,271	800,000	0,068	-0,171
-178,256	356,353	0,026	-0,038
-177,242	-46,338	-0,047	0,017
-176,227	3,850	0,095	0,050
-175,212	-200,000	0,009	0,056
-174,198	-200,000	-0,008	0,068
-173,183	42,627	-0,088	-0,058
-172,169	-29,300	-0,025	-0,011
-171,154	475,709	-0,099	-0,164
-170,139	800,000	0,024	0,062
-169,125	-200,000	-0,025	0,082
-168,110	41,008	0,089	0,058
-167,096	800,000	0,015	0,039
-166,081	-200,000	-0,004	-0,031
-165,066	36,460	-0,161	-0,103
-164,052	394,814	-0,071	0,108
-163,037	-12,784	0,231	-0,109
-162,023	-70,711	0,101	0,028
-161,008	800,000	-0,032	0,068
-159,993	-200,000	-0,001	-0,050
-158,979	404,144	-0,073	-0,113
-157,964	358,746	0,067	-0,098
-156,950	774,212	-0,069	0,138
-155,935	-200,000	-0,010	-0,069
-154,920	-39,679	0,087	-0,033
-153,906	270,009	0,004	-0,006
-152,891	173,164	-0,060	-0,063
-151,877	800,000	-0,011	0,029
-150,862	-200,000	-0,019	-0,072
-149,847	-200,000	-0,023	-0,111
-148,833	126,031	-0,047	-0,043
-147,818	185,165	0,047	0,050
-146,804	367,598	-0,080	0,118
-145,789	800,000	-0,052	0,115
-144,775	-200,000	-0,000	-0,022
-143,760	-200,000	-0,045	-0,170
-142,745	-200,000	0,004	0,023
-141,731	263,790	0,027	0,034
-140,716	64,994	0,061	-0,045
-139,702	-35,369	-0,042	0,017
-138,687	-57,681	0,060	0,019
-137,672	800,000	-0,075	0,155
-136,658	-200,000	0,021	-0,095
-135,643	-28,062	-0,098	-0,041
-134,629	321,829	-0,014	0,020
-133,614	-94,113	-0,127	0,025
-132,599	-200,000	-0,003	-0,073
-131,585	-200,000	-0,013	0,082
-130,570	-200,000	-0,021	-0,079
-129,556	-10,748	-0,060	0,029
-128,541	158,121	-0,072	-0,073
-127,526	-156,391	0,067	0,003
-126,512	-136,846	0,073	0,006
-125,497	-143,368	-0,135	0,009
-124,483	-200,000	0,042	0,147
-123,468	-200,000	0,007	-0,115
-122,453	-39,856	-0,151	0,057
-121,439	244,911	-0,071	0,087
-120,424	42,345	0,054	0,036
-119,410	-106,166	0,124	-0,020
-118,395	15,668	-0,091	0,052
-117,380	-98,581	0,034	0,006
-116,366	116,245	0,107	0,095
-115,351	154,769	-0,013	-0,013
-114,337	-99,670	-0,165	0,030
-113,322	193,892	0,033	0,036
-112,307	55,115	0,101	0,071
-111,293	-179,361	0,142	0,002
-110,278	515,344	0,061	-0,104
-109,264	755,972	-0,033	-0,065
-108,249	191,502	-0,038	-0,042
-107,234	486,953	-0,023	-0,039
-106,220	82,490	-0,122	0,096
-105,205	73,058	0,100	0,076
-104,191	-200,000	0,004	-0,110
-103,176	580,291	-0,035	-0,063
-102,162	62,415	0,080	0,058
-101,147	77,420	-0,084	-0,065
-100,132	-156,018	0,069	0,003
-99,118	-10,633	-0,104	-0,050
-98,103	311,731	0,010	-0,013
-97,089	-200,000	0,009	-0,083
-96,074	800,000	-0,028	0,078
-95,059	347,922	0,060	0,086
-94,045	191,547	0,147	-0,161
-93,030	273,492	0,110	-0,142
-92,016	-82,948	-0,043	-0,010
-91,001	-76,729	0,044	0,011
-89,986	445,108	0,049	0,078
-88,972	290,669	-0,069	-0,092
-87,957	-200,000	-0,010	0,062
-86,943	-200,000	0,048	0,182
-85,928	-200,000	-0,020	-0,088
-84,913	368,256	0,094	-0,139
-83,899	17,212	-0,058	-0,034
-82,884	-110,106	-0,095	-0,014
-81,870	53,214	0,107	0,075
-80,855	75,756	-0,057	0,043
-79,840	618,921	-0,045	0,083
-78,826	-69,741	0,020	0,006
-77,811	387,581	0,060	0,091
-76,797	247,912	0,053	0,065
-75,782	67,237	0,102	0,076
-74,767	800,000	0,018	0,047
-73,753	-77,834	0,169	0,042
-72,738	130,940	-0,084	-0,078
-71,724	-0,127	-0,071	-0,037
-70,709	-30,863	0,080	0,032
-69,694	-45,372	-0,058	-0,021
-68,680	800,000	0,060	0,124
-67,665	142,719	0,070	0,068
-66,651	-17,880	0,071	0,032
-65,636	283,947	0,013	0,016
-64,622	419,580	0,046	-0,072
-63,607	-127,031	0,049	-0,005
-62,592	83,104	-0,038	-0,030
-61,578	55,335	0,140	-0,098
-60,563	102,690	-0,076	0,065
-59,549	154,607	-0,051	0,051
-58,534	-129,762	-1,363	-0,134
-57,519	436,708	-0,856	-1,356
-56,505	-200,000	-0,745	-4,428
-55,490	5,307	0,461	-0,246
-54,476	800,000	5,083	11,918
-53,461	-200,000	14,444	260,389
-52,446	-200,000	695,199	2277,417
-51,432	604,480	1622,359	2940,605
-50,417	117,946	1631,257	1457,099
-49,403	75,334	1285,109	981,990
-48,388	37,287	1022,322	655,377
-47,373	23,376	981,452	583,438
-46,359	22,478	970,973	574,241
-45,344	21,366	966,474	567,924
-44,330	21,431	964,799	567,132
-43,315	21,206	963,438	565,573
-42,300	21,191	962,501	564,953
-41,286	21,253	961,169	564,351
-40,271	21,180	960,402	563,640
-39,257	21,190	959,421	563,075
-38,242	21,107	958,646	562,330
-37,227	21,151	957,692	561,890
-36,213	21,134	956,815	561,297
-35,198	21,102	955,973	560,677
-34,184	21,153	955,377	560,471
-33,169	21,189	954,291	559,928
-32,154	21,175	953,508	559,402
-31,140	21,210	952,533	558,919
-30,125	21,220	951,884	558,548
-29,111	21,213	950,953	557,958
-28,096	21,250	950,127	557,571
-27,082	21,112	949,717	556,865
-26,067	21,192	948,884	556,609
-25,052	21,157	948,130	556,035
-24,038	21,196	947,461	555,745
-23,023	21,156	946,838	555,229
-22,009	21,218	946,264	555,069
-20,994	21,229	945,570	554,675
-19,979	21,200	945,115	554,294
-18,965	21,150	944,447	553,718
-17,950	21,131	943,784	553,250
-16,936	21,137	943,100	552,845
-15,921	21,134	942,190	552,280
-14,906	21,054	941,714	551,723
-13,892	21,116	941,050	551,511
-12,877	21,066	940,423	550,962
-11,863	21,019	939,817	550,437
-10,848	21,081	939,311	550,316
-9,833	21,090	938,860	550,057
-8,819	21,085	938,289	549,684
-7,804	21,119	937,521	549,319
-6,790	21,041	936,945	548,714
-5,775	21,059	936,462	548,467
-4,760	21,054	935,815	548,049
-3,746	20,993	935,255	547,509
-2,731	20,879	934,444	546,650
-1,717	20,908	933,663	546,264
-0,702	20,879	932,995	545,761
0,313	20,670	932,548	545,666
1,327	23,201	930,032	552,097
2,342	30,814	807,528	499,985
3,356	25,167	508,391	305,112
4,371	0,460	374,059	192,992
5,386	-2,531	357,204	180,600
6,400	-3,617	351,451	176,360
7,415	-3,878	348,827	174,714
8,429	-3,692	347,440	174,226
9,444	-3,879	346,663	173,597
10,459	-3,833	346,063	173,337
11,473	-3,655	345,355	173,178
12,488	-3,806	344,708	172,659
13,502	-3,822	344,088	172,315
14,517	-3,766	343,792	172,217
15,531	-3,628	343,127	172,032
16,546	-3,777	343,018	171,786
17,561	-3,620	342,366	171,630
18,575	-3,479	342,022	171,607
19,590	-3,635	341,575	171,184
20,604	-3,602	341,312	171,076
21,619	-3,545	340,828	170,885
22,634	-3,632	340,455	170,581
23,648	-3,588	340,076	170,428
24,663	-3,601	339,786	170,252
25,677	-3,719	339,562	169,986
26,692	-3,617	339,284	169,951
27,707	-3,628	338,898	169,729
28,721	-3,571	338,560	169,611
29,736	-3,527	338,254	169,495
30,750	-3,747	338,155	169,174
31,765	-3,650	337,904	169,146
32,780	-3,568	337,551	169,049
33,794	-3,593	337,214	168,836
34,809	-3,667	336,923	168,590
35,823	-3,632	336,580	168,444
36,838	-3,608	336,173	168,253
37,853	-3,715	336,172	168,114
38,867	-3,698	335,771	167,918
39,882	-3,638	335,418	167,796
40,896	-3,667	335,290	167,683
41,911	-3,730	335,021	167,462
42,926	-3,620	334,657	167,390
43,940	-3,641	334,433	167,240
44,955	-3,687	334,169	167,040
45,969	-3,652	333,984	166,972
46,984	-3,591	333,543	166,807
47,999	-3,595	333,487	166,759
49,013	-3,754	333,241	166,440
50,028	-3,680	332,919	166,348
51,042	-3,560	332,616	166,319
52,057	-3,656	332,441	166,108
53,071	-3,646	332,188	165,978
54,086	-3,429	331,866	166,049
55,101	-3,662	331,728	165,700
56,115	-3,573	331,444	165,644
57,130	-3,546	331,037	165,457
58,144	-3,667	330,750	165,162
59,159	-3,744	330,488	164,930
60,174	-3,579	330,201	164,957
61,188	-3,651	329,943	164,733
62,203	-3,478	329,519	164,702
63,217	-3,633	329,546	164,526
64,232	-3,671	329,170	164,280
65,247	-3,735	328,972	164,094
66,261	-3,737	328,803	163,994
67,276	-3,778	328,438	163,750
68,290	-3,580	328,232	163,856
69,305	-3,665	328,102	163,681
70,320	-3,671	327,722	163,470
71,334	-3,690	327,411	163,280
72,349	-3,668	327,097	163,132
73,363	-3,724	326,908	162,961
74,378	-3,646	326,603	162,881
75,393	-3,669	326,404	162,742
76,407	-3,639	326,204	162,661
77,422	-3,727	325,850	162,373
78,436	-3,596	325,583	162,371
79,451	-3,640	325,252	162,142
80,466	-3,645	325,182	162,087
81,480	-3,649	324,902	161,928
82,495	-3,435	324,466	161,935
83,509	-3,543	324,371	161,754
84,524	-3,566	324,175	161,616
85,539	-3,501	323,874	161,522
86,553	-3,512	323,717	161,418
87,568	-3,644	323,394	161,096
88,582	-3,506	323,119	161,098
89,597	-3,477	322,809	160,961
90,611	-3,629	322,839	160,793
91,626	-3,605	322,492	160,633
92,641	-3,497	322,197	160,590
93,655	-3,728	322,062	160,255
94,670	-3,709	321,793	160,127
95,684	-3,583	321,484	160,098
96,699	-3,627	321,253	159,921
97,714	-3,631	321,026	159,788
98,728	-3,555	320,718	159,705
99,743	-3,498	320,613	159,700
100,757	-3,631	320,486	159,477
101,772	-3,586	319,968	159,255
102,787	-3,626	319,935	159,179
103,801	-3,651	319,567	158,955
104,816	-3,581	319,327	158,898
105,830	-3,521	319,244	158,909
106,845	-3,647	318,939	158,605
107,860	-3,662	318,635	158,423
108,874	-3,620	318,376	158,327
109,889	-3,683	318,173	158,143
110,903	-3,669	317,994	158,055
111,918	-3,532	317,675	158,031
112,933	-3,633	317,629	157,884
113,947	-3,558	317,209	157,743
114,962	-3,677	317,051	157,521
115,976	-3,589	316,774	157,465
116,991	-3,625	316,552	157,302
118,006	-3,662	316,451	157,197
119,020	-3,582	316,283	157,186
120,035	-3,738	316,170	156,948
121,049	-3,584	315,932	156,981
122,064	-3,506	315,590	156,881
123,079	-3,713	315,438	156,569
124,093	-3,627	315,132	156,495
125,108	-3,590	315,015	156,464
126,122	-3,545	314,674	156,328
127,137	-3,641	314,651	156,200
128,151	-3,536	314,177	156,063
129,166	-3,346	313,928	156,129
130,181	-3,431	313,812	155,967
131,195	-3,594	313,434	155,591
132,210	-3,614	313,174	155,426
133,224	-3,568	312,988	155,369
134,239	-3,526	312,747	155,280
135,254	-3,687	312,646	155,045
136,268	-3,563	312,374	155,028
137,283	-3,625	312,297	154,910
138,297	-3,521	311,895	154,808
139,312	-3,608	311,857	154,682
140,327	-3,482	311,483	154,617
141,341	-3,690	311,339	154,311
142,356	-3,606	311,146	154,290
143,370	-3,646	310,930	154,128
144,385	-3,591	310,578	153,998
145,400	-3,479	310,362	153,994
146,414	-3,641	310,214	153,736
147,429	-3,693	309,969	153,547
148,443	-3,556	309,635	153,512
149,458	-3,535	309,517	153,461
150,473	-3,655	309,378	153,253
151,487	-3,547	309,144	153,237
152,502	-3,456	308,888	153,192
153,516	-3,581	308,620	152,914
154,531	-3,565	308,460	152,838
155,546	-3,606	308,357	152,730
156,560	-3,731	308,021	152,419
157,575	-3,549	307,732	152,453
158,589	-3,568	307,522	152,316
159,604	-3,737	307,397	152,064
160,619	-3,297	307,012	152,319
161,633	-3,482	306,960	152,086
162,648	-3,556	306,911	151,971
163,662	-3,442	306,487	151,866
164,677	-3,492	306,297	151,707
165,692	-3,516	306,103	151,573
166,706	-3,495	305,918	151,489
167,721	-3,558	305,636	151,270
168,735	-3,324	305,423	151,394
169,750	-3,483	305,265	151,137
170,764	-3,664	305,127	150,868
171,779	-3,479	305,020	150,994
172,794	-3,528	304,758	150,799
173,808	-3,465	304,451	150,699
174,823	-3,350	304,271	150,716
175,837	-3,548	304,246	150,485
176,852	-3,433	303,859	150,399
177,867	-3,653	303,618	150,039
178,881	-3,481	303,571	150,180
179,896	-3,481	303,110	149,939
180,910	-3,475	302,969	149,862
181,925	-3,688	302,940	149,615
182,940	-3,466	302,693	149,707
183,954	-3,430	302,349	149,562
184,969	-3,644	302,182	149,246
185,983	-3,328	302,082	149,507
186,998	-3,528	301,922	149,209
188,013	-3,537	301,660	149,058
189,027	-3,397	301,353	149,036
190,042	-3,408	301,322	148,996
191,056	-3,521	300,918	148,667
192,071	-3,673	300,889	148,485
193,086	-3,529	300,448	148,400
194,100	-3,612	300,315	148,237
195,115	-3,457	300,208	148,328
196,129	-3,532	299,975	148,125
197,144	-3,582	299,770	147,959
198,159	-3,614	299,565	147,812
199,173	-3,463	299,104	147,725
200,188	-3,565	299,020	147,566
201,202	-3,589	298,791	147,416
202,217	-3,461	298,673	147,474
203,232	-3,435	298,454	147,380
204,246	-3,463	298,199	147,212
205,261	-3,538	298,026	147,038
206,275	-3,472	297,833	146,996
207,290	-3,642	297,761	146,776
208,304	-3,447	297,441	146,802
209,319	-3,438	297,162	146,660
210,334	-3,460	297,067	146,577
211,348	-3,392	296,740	146,471
212,363	-3,461	296,630	146,336
213,377	-3,502	296,463	146,199
214,392	-3,497	296,218	146,069
215,407	-3,448	296,057	146,026
216,421	-3,578	295,911	145,812
217,436	-3,409	295,658	145,843
218,450	-3,625	295,527	145,549
219,465	-3,406	295,086	145,537
220,480	-3,563	295,076	145,363
221,494	-3,509	294,845	145,290
222,509	-3,455	294,746	145,282
223,523	-3,492	294,461	145,092
224,538	-3,644	294,345	144,870
225,553	-3,462	294,061	144,898
226,567	-3,400	293,904	144,869
227,582	-3,390	293,717	144,775
228,596	-3,484	293,521	144,571
229,611	-3,624	293,375	144,348
230,626	-3,470	293,243	144,423
231,640	-3,421	292,906	144,292
232,655	-3,649	292,861	144,032
233,669	-3,461	292,548	144,050
234,684	-3,265	292,328	144,124
235,699	-3,383	292,176	143,919
236,713	-3,562	292,035	143,660
237,728	-3,454	291,775	143,626
238,742	-3,492	291,503	143,442
239,757	-3,659	291,314	143,172
240,772	-3,501	291,103	143,210
241,786	-3,550	291,022	143,110
242,801	-3,394	290,784	143,133
243,815	-3,331	290,581	143,082
244,830	-3,518	290,371	142,783
245,844	-3,561	290,239	142,663
246,859	-3,523	289,982	142,561
247,874	-3,551	289,794	142,428
248,888	-3,507	289,628	142,378
249,903	-3,581	289,453	142,207
250,917	-3,606	289,289	142,089
251,932	-3,595	289,095	141,991
252,947	-3,891	288,763	141,527
253,961	-4,368	288,156	140,753
254,976	-4,843	288,057	140,230
255,990	-4,830	287,798	140,104
257,005	-3,205	288,331	141,932
258,020	-0,906	289,215	144,595
259,034	0,564	289,432	146,123
260,049	0,835	289,647	146,482
261,063	1,322	289,524	146,881
262,078	1,524	289,491	147,047
263,093	1,873	289,343	147,298
264,107	2,329	289,281	147,697
265,122	2,329	289,039	147,560
266,136	2,372	288,867	147,501
267,151	2,420	288,782	147,491
268,166	2,350	288,583	147,309
269,180	2,535	288,466	147,415
270,195	2,500	288,138	147,200
271,209	2,381	288,101	147,053
272,224	2,497	287,823	147,011
273,239	2,249	287,564	146,626
274,253	2,273	287,309	146,505
275,268	2,332	287,111	146,448
276,282	2,207	286,972	146,244
277,297	2,236	286,803	146,173
278,312	2,437	286,615	146,257
279,326	2,191	286,520	145,959
280,341	2,286	286,219	145,883
281,355	2,121	286,113	145,658
282,370	2,244	285,943	145,677
283,384	2,201	285,767	145,533
284,399	2,211	285,503	145,395
285,414	2,201	285,284	145,261
286,428	2,170	285,151	145,151
287,443	2,035	284,901	144,882
288,457	2,297	284,552	144,941
289,472	2,147	284,406	144,711
290,487	2,064	284,340	144,585
291,501	2,073	284,106	144,462
292,516	2,093	283,925	144,376
293,530	2,135	283,758	144,318
294,545	2,030	283,516	144,083
295,560	2,025	283,451	144,032
296,574	2,175	283,210	144,039
297,589	1,990	283,005	143,747
298,603	2,060	282,839	143,716
299,618	2,211	282,548	143,698
300,633	2,185	282,412	143,592
301,647	2,178	282,333	143,532
302,662	2,216	282,162	143,468
303,676	2,364	281,946	143,484
304,691	2,350	281,716	143,342
305,706	2,226	281,668	143,188
306,720	2,307	281,394	143,113
307,735	2,165	281,392	142,964
308,749	2,125	281,146	142,789
309,764	2,357	280,934	142,887
310,779	2,155	280,791	142,612
311,793	2,109	280,613	142,465
312,808	2,250	280,432	142,493
313,822	2,321	280,097	142,377
314,837	2,252	280,010	142,255
315,852	2,251	279,930	142,201
316,866	2,340	279,648	142,128
317,881	2,322	279,340	141,942
318,895	2,278	279,203	141,819
319,910	2,184	278,968	141,599
320,925	2,249	278,862	141,593
321,939	2,258	278,771	141,543
322,954	2,293	278,528	141,439
323,968	2,312	278,421	141,390
324,983	2,215	278,215	141,183
325,997	2,403	278,035	141,253
327,012	2,046	277,981	140,882
328,027	2,177	277,714	140,855
329,041	2,180	277,572	140,774
330,056	2,449	277,349	140,897
331,070	2,191	277,183	140,562
332,085	2,189	277,198	140,555
333,100	2,277	276,947	140,497
334,114	2,261	276,601	140,293
335,129	2,273	276,329	140,154
336,143	2,317	276,301	140,167
337,158	2,348	276,109	140,087
338,173	2,232	276,027	139,925
339,187	2,328	275,858	139,915
340,202	2,228	275,617	139,689
341,216	2,320	275,381	139,641
342,231	2,368	275,311	139,637
343,246	2,334	275,063	139,469
344,260	2,305	274,959	139,377
345,275	2,351	274,744	139,297
346,289	2,321	274,648	139,209
347,304	2,571	274,363	139,280
348,319	2,413	274,162	139,022
349,333	2,460	274,080	139,010
350,348	2,465	273,813	138,867
351,362	2,221	273,812	138,631
352,377	2,494	273,298	138,608
353,392	2,471	273,284	138,567
354,406	2,447	273,174	138,477
355,421	192,449	1349,604	1432,584
356,435	155,422	1480,849	1432,709
