DTS Sentinel unit serial number:	SN410029Multiplexer serial number:	ORYXHardware model number:	OX2-SRSoftware version number:	ORYX F/W v4,00 Oryx Data Collector v3.7.2.0data status	okinstallation	B4 Nyhavnadifferential loss correction	single-endedforward channel	channel 2reverse channel	N/Adate	2023/12/15time	21:25:13forward acquisition time	300,00reverse acquisition time	0,00gamma	499,1914k internal	0,3133k external	0,3133temperature offset calibration	1,0000default loss term (dB/km)	0,3820temperature slope calibration	1,0000multiplexer offset coefficient	1,0000multiplexer slope coefficient	1,0000fibre end	0,00T internal ref (°C)	20,95T ext. ref 1 (°C)	6,19T ext. ref 2 (°C)	6,38length (m)	temperature (°C)	Stokes	anti-Stokes-744,400	-200,000	0,000	0,068
-743,385	-26,370	-0,231	0,100
-742,371	4,943	0,125	0,068
-741,356	42,461	-0,200	0,135
-740,342	112,316	-0,048	-0,043
-739,327	-12,142	-0,187	0,090
-738,312	146,587	0,062	-0,062
-737,298	72,922	-0,173	0,134
-736,283	-200,000	0,001	0,019
-735,269	381,376	-0,141	0,215
-734,254	-73,714	0,117	0,031
-733,239	-117,005	-0,445	-0,060
-732,225	-95,023	0,124	0,025
-731,210	232,792	-0,040	0,049
-730,196	800,000	-0,055	-0,168
-729,181	-200,000	-0,004	0,022
-728,167	-50,656	-0,160	0,056
-727,152	-108,216	0,065	0,010
-726,137	-100,235	0,062	0,011
-725,123	36,458	-0,142	-0,093
-724,108	323,246	-0,067	-0,095
-723,094	-157,210	-0,149	0,007
-722,079	-200,000	-0,025	-0,146
-721,064	-200,000	-0,007	-0,123
-720,050	-91,061	-0,105	-0,022
-719,035	-68,120	0,099	0,028
-718,021	800,000	-0,023	0,053
-717,006	-63,682	-0,090	0,027
-715,991	462,896	-0,033	-0,054
-714,977	-200,000	-0,008	0,072
-713,962	-96,262	-0,213	0,041
-712,948	25,210	0,113	-0,069
-711,933	-200,000	0,006	-0,075
-710,918	800,000	-0,029	-0,080
-709,904	121,373	0,041	-0,038
-708,889	-184,224	-0,046	-0,001
-707,875	-116,623	-0,138	-0,019
-706,860	762,478	-0,014	0,028
-705,845	-48,985	0,085	0,030
-704,831	-200,000	-0,003	-0,069
-703,816	800,000	0,027	-0,058
-702,802	-200,000	0,001	-0,119
-701,787	800,000	0,035	-0,107
-700,772	-200,000	-0,013	0,075
-699,758	-33,679	-0,093	0,038
-698,743	220,149	-0,112	0,133
-697,729	3,018	-0,074	-0,040
-696,714	-200,000	0,009	0,117
-695,699	-200,000	-0,005	-0,060
-694,685	-200,000	0,011	0,037
-693,670	121,501	-0,021	-0,019
-692,656	-200,000	0,007	-0,187
-691,641	-200,000	0,036	0,138
-690,627	175,315	0,115	0,124
-689,612	-36,584	-0,084	-0,033
-688,597	159,516	-0,065	-0,067
-687,583	-107,398	-0,187	-0,030
-686,568	-136,610	0,041	0,003
-685,554	179,514	-0,066	-0,072
-684,539	624,675	0,061	-0,115
-683,524	-108,805	-0,074	0,012
-682,510	-58,786	-0,068	-0,022
-681,495	-41,275	-0,054	-0,020
-680,481	561,591	-0,056	-0,101
-679,466	-49,072	-0,228	-0,081
-678,451	110,781	-0,025	-0,023
-677,437	222,375	-0,047	-0,056
-676,422	223,044	0,066	-0,079
-675,408	134,171	0,165	0,159
-674,393	185,756	-0,071	-0,079
-673,378	-200,000	0,017	-0,082
-672,364	-98,486	0,018	-0,003
-671,349	46,573	-0,165	-0,113
-670,335	756,596	0,073	0,147
-669,320	-200,000	0,010	0,115
-668,305	-56,356	0,027	0,009
-667,291	650,028	0,021	0,041
-666,276	-122,424	-0,040	0,005
-665,262	152,274	-0,049	-0,049
-664,247	-54,728	-0,098	0,033
-663,232	286,689	0,048	-0,065
-662,218	189,711	-0,026	0,029
-661,203	-200,000	0,001	0,101
-660,189	-113,848	0,076	0,011
-659,174	-200,000	-0,012	-0,046
-658,159	-200,000	0,019	-0,105
-657,145	-12,547	0,065	-0,031
-656,130	800,000	-0,030	-0,081
-655,116	8,603	0,091	0,050
-654,101	-200,000	0,023	-0,122
-653,086	521,924	0,068	-0,118
-652,072	800,000	-0,038	-0,092
-651,057	-200,000	-0,010	-0,054
-650,043	800,000	0,045	-0,136
-649,028	37,943	-0,047	-0,031
-648,014	105,216	0,086	0,075
-646,999	-200,000	-0,025	0,170
-645,984	-200,000	-0,023	-0,105
-644,970	483,489	-0,077	-0,130
-643,955	800,000	-0,020	-0,056
-642,941	564,206	-0,034	-0,061
-641,926	-200,000	-0,020	-0,093
-640,911	-200,000	0,001	-0,057
-639,897	122,563	0,049	0,045
-638,882	800,000	0,008	-0,022
-637,868	800,000	0,046	-0,098
-636,853	17,374	-0,110	0,064
-635,838	-3,378	-0,027	-0,014
-634,824	800,000	0,051	-0,107
-633,809	-197,943	0,254	-0,001
-632,795	292,414	0,080	-0,108
-631,780	-106,134	0,161	0,027
-630,765	181,187	-0,093	-0,101
-629,751	-75,006	-0,060	-0,016
-628,736	-200,000	-0,007	-0,123
-627,722	165,019	-0,037	-0,039
-626,707	14,506	0,023	0,014
-625,692	67,224	0,096	0,072
-624,678	-200,000	0,001	0,101
-623,663	78,102	0,042	0,033
-622,649	144,831	-0,077	-0,076
-621,634	42,535	-0,107	0,072
-620,619	-200,000	0,019	0,102
-619,605	-177,048	-0,071	0,001
-618,590	-64,021	0,032	0,010
-617,576	101,778	-0,063	0,054
-616,561	147,455	-0,021	-0,021
-615,546	612,650	-0,057	0,106
-614,532	800,000	-0,039	0,112
-613,517	39,176	-0,065	-0,043
-612,503	800,000	0,040	0,091
-611,488	-200,000	-0,001	0,068
-610,474	-95,023	0,077	0,015
-609,459	649,746	0,035	0,066
-608,444	-167,107	-0,063	0,002
-607,430	-200,000	-0,066	-0,268
-606,415	-200,000	0,013	-0,080
-605,401	-155,351	0,053	0,002
-604,386	-200,000	0,002	-0,040
-603,371	-200,000	-0,016	0,054
-602,357	-147,050	-0,061	0,004
-601,342	621,703	0,028	-0,052
-600,328	-82,655	-0,074	-0,018
-599,313	437,210	-0,084	0,136
-598,298	-87,427	0,023	0,005
-597,284	800,000	-0,040	-0,091
-596,269	-88,211	-0,141	0,031
-595,255	119,443	0,087	-0,079
-594,240	800,000	-0,015	-0,040
-593,225	134,116	-0,115	0,111
-592,211	262,543	-0,071	0,092
-591,196	800,000	-0,044	-0,114
-590,182	-200,000	0,003	0,041
-589,167	-88,253	0,038	0,008
-588,152	-200,000	-0,019	0,127
-587,138	-200,000	0,005	-0,072
-586,123	463,968	0,065	-0,108
-585,109	289,210	0,030	-0,040
-584,094	-43,217	0,067	0,025
-583,079	55,678	0,116	0,083
-582,065	-200,000	0,004	-0,065
-581,050	-57,697	0,080	0,026
-580,036	-139,078	0,055	0,004
-579,021	-27,723	-0,057	0,024
-578,006	800,000	0,031	0,071
-576,992	308,947	0,014	-0,019
-575,977	-33,017	0,069	-0,028
-574,963	-93,298	0,022	0,004
-573,948	-15,491	-0,030	0,014
-572,934	176,185	0,091	0,097
-571,919	3,723	0,055	0,030
-570,904	-63,858	0,046	-0,014
-569,890	-200,000	-0,007	-0,092
-568,875	-117,110	0,143	-0,019
-567,861	449,714	0,038	-0,063
-566,846	131,222	-0,024	0,023
-565,831	62,136	-0,097	-0,071
-564,817	710,522	-0,042	-0,081
-563,802	-70,782	-0,046	-0,013
-562,788	-200,000	-0,032	-0,132
-561,773	-104,720	0,050	0,008
-560,758	800,000	-0,035	-0,103
-559,744	427,851	0,032	0,052
-558,729	-200,000	-0,024	0,082
-557,715	-51,563	-0,062	0,021
-556,700	-123,577	-0,073	0,008
-555,685	69,919	-0,099	0,075
-554,671	524,679	0,053	0,093
-553,656	800,000	-0,024	-0,077
-552,642	552,780	-0,054	0,096
-551,627	800,000	0,035	0,110
-550,612	0,556	0,118	-0,062
-549,598	-127,751	-0,060	0,006
-548,583	298,897	0,057	0,077
-547,569	-200,000	0,028	-0,126
-546,554	-200,000	0,008	-0,044
-545,539	190,145	-0,060	-0,067
-544,525	169,990	0,065	0,069
-543,510	304,830	-0,079	-0,108
-542,496	-2,801	-0,181	-0,093
-541,481	-190,831	-0,075	0,001
-540,466	651,201	-0,091	-0,172
-539,452	-157,356	-0,051	-0,002
-538,437	-128,565	-0,024	0,002
-537,423	-59,855	0,146	0,046
-536,408	-127,705	-0,092	-0,010
-535,393	-27,114	-0,093	0,040
-534,379	-200,000	-0,051	-0,187
-533,364	538,478	0,066	0,117
-532,350	78,003	0,091	0,072
-531,335	105,348	0,039	-0,034
-530,321	-200,000	0,013	0,047
-529,306	-200,000	-0,016	0,112
-528,291	800,000	0,068	-0,169
-527,277	359,635	-0,061	-0,091
-526,262	-200,000	-0,042	0,164
-525,248	-200,000	-0,005	0,065
-524,233	-92,396	0,235	0,048
-523,218	800,000	0,028	-0,058
-522,204	800,000	0,040	0,102
-521,189	800,000	-0,013	-0,038
-520,175	316,076	0,068	0,094
-519,160	104,799	0,035	-0,030
-518,145	800,000	-0,021	-0,067
-517,131	359,935	0,042	0,062
-516,116	194,781	-0,053	0,059
-515,102	-200,000	-0,008	-0,065
-514,087	449,694	0,021	0,035
-513,072	259,568	0,059	-0,075
-512,058	-92,924	0,047	0,009
-511,043	206,563	-0,057	-0,065
-510,029	-41,448	0,013	0,005
-509,014	40,317	0,095	0,063
-507,999	89,663	0,098	0,080
-506,985	-200,000	-0,035	0,123
-505,970	300,702	0,090	-0,122
-504,956	-136,188	-0,086	-0,007
-503,941	-70,187	0,019	0,005
-502,926	-63,898	-0,189	0,057
-501,912	139,586	0,083	-0,081
-500,897	115,575	-0,042	-0,038
-499,883	-141,588	-0,062	0,005
-498,868	798,641	0,018	-0,037
-497,853	-200,000	0,016	0,065
-496,839	-143,882	-0,029	0,002
-495,824	-41,288	-0,080	0,030
-494,810	-32,933	0,062	0,025
-493,795	-200,000	-0,006	-0,037
-492,781	800,000	0,032	0,073
-491,766	-200,000	0,001	-0,170
-490,751	44,397	0,014	-0,010
-489,737	-200,000	0,008	-0,039
-488,722	-200,000	0,031	-0,101
-487,708	-200,000	0,004	-0,060
-486,693	800,000	-0,060	0,132
-485,678	602,647	0,041	-0,075
-484,664	283,123	-0,177	-0,234
-483,649	-174,283	-0,031	0,001
-482,635	-200,000	0,011	0,065
-481,620	228,443	0,016	-0,020
-480,605	94,351	0,085	0,071
-479,591	76,991	-0,070	-0,055
-478,576	128,948	0,002	0,002
-477,562	-144,043	0,097	0,007
-476,547	-94,516	-0,143	-0,028
-475,532	-91,151	0,036	0,008
-474,518	135,289	0,015	0,015
-473,503	-112,769	-0,129	-0,019
-472,489	286,192	-0,090	0,120
-471,474	5,084	-0,124	0,067
-470,459	800,000	-0,019	-0,050
-469,445	800,000	-0,043	-0,114
-468,430	167,713	0,090	-0,094
-467,416	549,114	-0,100	-0,177
-466,401	-22,556	0,130	-0,058
-465,386	0,243	-0,218	-0,114
-464,372	501,796	0,046	-0,078
-463,357	98,127	0,070	0,060
-462,343	-88,757	-0,068	0,015
-461,328	-113,100	0,081	-0,012
-460,313	459,812	0,031	-0,052
-459,299	177,192	-0,059	0,063
-458,284	-129,980	0,192	0,019
-457,270	-200,000	-0,037	0,132
-456,255	-53,444	-0,109	0,036
-455,241	-200,000	-0,008	-0,135
-454,226	-191,677	-0,157	0,001
-453,211	170,076	0,074	0,078
-452,197	-196,019	-0,037	-0,000
-451,182	-29,764	0,132	0,055
-450,168	202,542	-0,016	-0,018
-449,153	-47,240	0,059	-0,021
-448,138	426,130	-0,013	-0,020
-447,124	-70,627	0,081	0,022
-446,109	-200,000	0,009	0,077
-445,095	-3,177	-0,129	-0,066
-444,080	116,568	0,162	0,146
-443,065	-84,896	-0,070	-0,016
-442,051	-149,575	0,116	0,007
-441,036	-104,839	0,105	0,018
-440,022	800,000	-0,042	-0,092
-439,007	800,000	-0,047	0,121
-437,992	-181,468	0,087	0,001
-436,978	-57,272	0,050	-0,016
-435,963	363,390	0,040	0,059
-434,949	-200,000	0,026	0,162
-433,934	-200,000	-0,001	-0,075
-432,919	-32,532	-0,220	-0,090
-431,905	13,472	0,084	-0,048
-430,890	800,000	0,033	0,075
-429,876	160,107	0,028	-0,029
-428,861	-64,910	0,075	0,022
-427,846	564,776	0,036	0,065
-426,832	-200,000	-0,025	-0,090
-425,817	-49,168	0,077	0,027
-424,803	237,949	0,050	-0,061
-423,788	-123,109	0,164	0,019
-422,773	800,000	0,080	0,169
-421,759	781,410	0,037	0,075
-420,744	-200,000	-0,003	0,055
-419,730	-70,798	0,067	0,018
-418,715	800,000	0,052	0,163
-417,701	783,260	0,054	-0,108
-416,686	537,414	-0,006	-0,010
-415,671	1,039	0,119	-0,062
-414,657	34,178	0,049	-0,031
-413,642	-74,888	-0,050	-0,013
-412,628	99,811	-0,060	-0,051
-411,613	-75,810	0,021	-0,005
-410,598	-28,009	-0,028	0,012
-409,584	520,147	0,044	0,077
-408,569	-200,000	0,011	0,045
-407,555	-58,083	-0,060	0,019
-406,540	-200,000	-0,016	-0,156
-405,525	-106,242	-0,116	0,019
-404,511	-24,777	-0,041	-0,018
-403,496	-67,761	-0,107	-0,031
-402,482	800,000	0,012	0,033
-401,467	456,281	-0,028	0,046
-400,452	68,756	0,065	0,049
-399,438	349,194	0,100	0,145
-398,423	800,000	0,060	-0,126
-397,409	-200,000	-0,002	-0,031
-396,394	-123,078	-0,111	0,013
-395,379	800,000	0,051	-0,120
-394,365	410,893	0,055	0,086
-393,350	18,339	0,010	0,006
-392,336	-200,000	-0,019	0,136
-391,321	-162,436	0,174	0,006
-390,306	116,167	0,121	0,109
-389,292	7,549	0,071	-0,039
-388,277	80,345	-0,039	-0,031
-387,263	800,000	-0,016	-0,052
-386,248	80,348	-0,059	-0,047
-385,233	800,000	0,036	-0,095
-384,219	724,603	0,017	0,034
-383,204	-200,000	-0,021	-0,184
-382,190	643,226	-0,068	-0,127
-381,175	-68,594	-0,095	-0,027
-380,160	-49,310	0,142	-0,049
-379,146	800,000	0,044	0,092
-378,131	157,389	0,026	0,026
-377,117	214,317	-0,071	0,082
-376,102	-0,919	-0,069	0,035
-375,088	68,708	0,139	-0,105
-374,073	-40,793	-0,042	-0,016
-373,058	-9,702	0,062	0,030
-372,044	301,805	-0,076	-0,104
-371,029	-82,582	0,046	0,011
-370,015	531,794	0,068	0,119
-369,000	620,703	-0,014	0,026
-367,985	11,793	-0,073	-0,041
-366,971	159,707	-0,092	-0,094
-365,956	800,000	-0,040	-0,092
-364,942	73,092	0,086	0,066
-363,927	732,686	-0,024	0,046
-362,912	118,134	-0,108	0,097
-361,898	-49,331	-0,084	-0,029
-360,883	252,149	0,038	0,047
-359,869	-200,000	-0,005	-0,033
-358,854	690,945	0,022	-0,043
-357,839	-142,552	-0,058	0,004
-356,825	379,875	0,033	-0,050
-355,810	77,525	0,083	0,065
-354,796	-200,000	0,003	0,123
-353,781	-200,000	-0,011	-0,042
-352,766	435,814	-0,053	0,084
-351,752	-200,000	-0,017	-0,085
-350,737	-200,000	-0,015	-0,063
-349,723	-154,194	0,098	0,005
-348,708	-60,738	0,104	0,032
-347,693	-90,396	-0,194	-0,041
-346,679	-126,891	0,028	-0,003
-345,664	329,825	-0,085	-0,120
-344,650	800,000	0,057	0,141
-343,635	-200,000	0,041	0,144
-342,620	-200,000	-0,005	0,150
-341,606	171,926	0,057	0,060
-340,591	11,925	-0,058	-0,032
-339,577	-200,000	-0,002	-0,099
-338,562	271,158	0,022	0,029
-337,548	-200,000	-0,015	0,050
-336,533	-200,000	-0,002	0,068
-335,518	800,000	0,034	0,070
-334,504	7,721	-0,025	-0,013
-333,489	93,026	0,066	-0,055
-332,475	-200,000	0,017	-0,063
-331,460	800,000	0,047	-0,109
-330,445	-61,144	0,050	0,015
-329,431	-63,772	0,201	0,060
-328,416	800,000	0,046	-0,100
-327,402	800,000	-0,018	-0,051
-326,387	-31,859	0,029	0,012
-325,372	-56,044	-0,071	0,023
-324,358	800,000	-0,010	-0,029
-323,343	-200,000	0,017	-0,068
-322,329	214,540	0,043	0,050
-321,314	1,266	-0,082	0,043
-320,299	91,911	0,114	0,093
-319,285	800,000	0,047	0,108
-318,270	-178,767	-0,071	-0,001
-317,256	-200,000	-0,029	-0,113
-316,241	-200,000	0,025	-0,115
-315,226	274,728	0,061	-0,079
-314,212	178,985	0,057	0,061
-313,197	122,707	0,069	0,063
-312,183	-200,000	-0,043	0,169
-311,168	71,977	-0,090	0,068
-310,153	134,509	-0,062	-0,058
-309,139	-200,000	-0,021	-0,161
-308,124	-190,099	-0,113	0,001
-307,110	694,872	0,098	0,188
-306,095	-200,000	-0,033	0,129
-305,080	662,875	-0,052	0,098
-304,066	-37,641	-0,033	0,013
-303,051	178,200	0,112	-0,120
-302,037	390,629	-0,081	-0,123
-301,022	-200,000	-0,012	-0,056
-300,008	-128,624	0,123	0,013
-298,993	-156,868	0,015	0,001
-297,978	-76,266	-0,077	-0,020
-296,964	-200,000	0,000	0,085
-295,949	800,000	0,031	-0,096
-294,935	59,419	-0,008	0,005
-293,920	-29,971	-0,059	-0,024
-292,905	-200,000	0,015	-0,071
-291,891	-79,475	0,009	-0,002
-290,876	-62,077	0,153	0,046
-289,862	61,478	-0,132	0,096
-288,847	37,526	-0,053	0,034
-287,832	49,553	-0,057	0,039
-286,818	-28,697	0,086	-0,036
-285,803	463,736	0,078	-0,127
-284,789	-200,000	-0,034	0,116
-283,774	800,000	0,045	0,109
-282,759	701,131	-0,054	0,105
-281,745	-200,000	-0,015	0,049
-280,730	800,000	0,042	0,117
-279,716	-42,663	0,061	0,023
-278,701	38,936	-0,091	0,059
-277,686	-63,436	0,099	0,029
-276,672	-178,881	0,074	-0,001
-275,657	-84,837	-0,115	-0,026
-274,643	-100,393	-0,130	-0,023
-273,628	-200,000	-0,010	-0,105
-272,613	-200,000	-0,011	0,049
-271,599	100,625	-0,112	0,095
-270,584	800,000	-0,014	-0,036
-269,570	-76,436	0,061	-0,016
-268,555	-197,932	-0,104	-0,000
-267,540	137,363	-0,112	0,107
-266,526	57,137	0,095	0,067
-265,511	-200,000	0,010	-0,115
-264,497	-53,185	0,094	-0,031
-263,482	-77,481	0,063	0,016
-262,467	420,097	0,060	0,094
-261,453	20,309	-0,081	-0,047
-260,438	-18,515	0,026	0,012
-259,424	-145,874	-0,131	0,008
-258,409	-200,000	-0,011	-0,091
-257,395	-39,103	-0,060	-0,023
-256,380	-200,000	0,005	0,060
-255,365	800,000	-0,050	0,110
-254,351	-200,000	0,002	0,058
-253,336	257,644	-0,125	-0,157
-252,322	432,985	-0,021	-0,033
-251,307	625,241	0,027	-0,050
-250,292	207,991	0,016	0,018
-249,278	-200,000	0,043	0,147
-248,263	-6,538	0,069	0,034
-247,249	-99,891	0,091	-0,016
-246,234	5,029	-0,170	-0,091
-245,219	-161,944	-0,125	-0,005
-244,205	800,000	-0,034	-0,073
-243,190	64,982	0,050	-0,037
-242,176	45,945	0,100	0,067
-241,161	-200,000	0,015	0,107
-240,146	-120,984	0,117	-0,014
-239,132	-19,320	0,154	-0,069
-238,117	-18,504	0,035	-0,016
-237,103	-200,000	-0,010	-0,067
-236,088	-110,415	0,115	0,017
-235,073	15,845	0,114	-0,065
-234,059	-145,871	0,076	0,005
-233,044	800,000	0,023	0,061
-232,030	141,860	-0,153	-0,148
-231,015	-200,000	-0,005	-0,045
-230,000	-200,000	-0,024	-0,149
-228,986	4,228	-0,119	-0,063
-227,971	71,758	0,044	0,033
-226,957	-32,774	0,096	0,039
-225,942	13,694	-0,077	0,043
-224,927	-93,409	-0,084	0,017
-223,913	286,160	0,080	-0,106
-222,898	96,036	-0,060	-0,050
-221,884	148,684	-0,121	0,120
-220,869	800,000	0,017	-0,054
-219,855	-33,714	-0,032	-0,013
-218,840	134,792	0,055	-0,052
-217,825	-200,000	-0,038	0,153
-216,811	13,410	0,068	0,038
-215,796	573,212	-0,008	0,014
-214,782	109,147	0,070	-0,061
-213,767	649,545	0,063	-0,119
-212,752	-200,000	-0,007	-0,029
-211,738	216,604	-0,075	0,087
-210,723	800,000	-0,041	0,087
-209,709	42,137	-0,052	0,034
-208,694	-200,000	0,023	0,076
-207,679	-200,000	0,002	0,021
-206,665	800,000	0,033	-0,090
-205,650	-129,733	-0,134	-0,013
-204,636	144,377	0,035	0,034
-203,621	-2,829	-0,053	-0,027
-202,606	84,378	-0,075	-0,060
-201,592	-103,002	-0,087	0,015
-200,577	104,970	-0,078	-0,067
-199,563	-72,807	-0,026	0,007
-198,548	90,164	0,095	0,077
-197,533	-143,691	0,100	-0,007
-196,519	52,536	-0,106	0,074
-195,504	800,000	-0,027	0,063
-194,490	12,218	-0,086	-0,048
-193,475	-200,000	0,001	-0,188
-192,460	360,764	0,049	-0,071
-191,446	-200,000	-0,013	0,041
-190,431	82,228	0,054	0,042
-189,417	110,300	0,058	0,050
-188,402	-48,024	-0,059	-0,021
-187,387	453,411	-0,062	0,101
-186,373	11,810	0,027	-0,015
-185,358	-163,432	-0,156	-0,005
-184,344	192,193	0,122	0,134
-183,329	-95,607	-0,039	0,008
-182,315	-8,902	-0,058	0,028
-181,300	800,000	-0,044	0,109
-180,285	560,617	-0,075	-0,133
-179,271	333,997	0,044	-0,061
-178,256	800,000	-0,014	-0,044
-177,242	800,000	0,047	0,125
-176,227	311,417	0,085	0,117
-175,212	46,787	0,028	0,019
-174,198	151,266	-0,096	0,095
-173,183	-200,000	0,000	-0,222
-172,169	-200,000	-0,024	-0,144
-171,154	75,314	-0,021	0,016
-170,139	-200,000	-0,010	0,032
-169,125	205,456	0,105	-0,118
-168,110	61,462	0,038	0,028
-167,096	800,000	-0,038	0,104
-166,081	800,000	0,027	-0,068
-165,066	343,117	-0,121	0,173
-164,052	-200,000	-0,056	0,000
-163,037	139,312	-0,040	-0,039
-162,023	800,000	-0,010	0,025
-161,008	-200,000	-0,004	0,081
-159,993	-200,000	0,031	0,148
-158,979	-200,000	0,004	-0,032
-157,964	-182,033	-0,046	-0,001
-156,950	-41,826	-0,090	-0,033
-155,935	-122,701	0,069	0,008
-154,920	230,894	-0,079	-0,094
-153,906	-163,545	0,071	0,002
-152,891	-71,541	-0,080	0,022
-151,877	142,747	-0,052	-0,050
-150,862	-150,058	-0,093	-0,005
-149,847	-200,000	0,008	0,117
-148,833	-93,946	-0,202	-0,040
-147,818	-200,000	-0,038	-0,128
-146,804	-93,705	-0,082	0,016
-145,789	722,196	-0,027	0,052
-144,775	-112,149	0,032	-0,005
-143,760	238,570	0,012	-0,014
-142,745	800,000	-0,025	0,075
-141,731	-169,221	0,100	0,003
-140,716	80,582	-0,098	0,076
-139,702	-50,711	0,117	-0,040
-138,687	800,000	0,040	-0,121
-137,672	-177,389	-0,203	-0,004
-136,658	89,087	-0,084	-0,068
-135,643	-10,899	0,118	-0,056
-134,629	800,000	0,041	-0,106
-133,614	800,000	-0,057	0,181
-132,599	144,095	0,087	0,084
-131,585	-33,695	-0,069	0,028
-130,570	399,656	0,078	0,119
-129,556	-200,000	0,019	0,199
-128,541	-200,000	-0,036	0,131
-127,526	800,000	-0,008	-0,019
-126,512	-3,186	0,076	-0,038
-125,497	-47,211	0,060	0,021
-124,483	-25,401	0,019	-0,008
-123,468	800,000	0,051	-0,113
-122,453	-200,000	0,008	-0,077
-121,439	257,920	-0,023	-0,028
-120,424	79,169	-0,066	0,051
-119,410	-60,312	-0,158	0,048
-118,395	-200,000	-0,060	-0,206
-117,380	334,735	-0,048	0,067
-116,366	311,868	-0,061	-0,083
-115,351	197,948	0,064	0,071
-114,337	-132,287	-0,063	-0,006
-113,322	-26,473	0,035	-0,015
-112,307	1,207	0,045	-0,023
-111,293	800,000	0,052	0,164
-110,278	800,000	-0,017	0,041
-109,264	741,322	0,031	-0,060
-108,249	800,000	-0,051	-0,106
-107,234	49,543	0,091	0,062
-106,220	800,000	-0,053	-0,167
-105,205	-54,146	0,084	0,028
-104,191	170,160	0,022	-0,022
-103,176	-114,466	0,046	0,006
-102,162	800,000	-0,049	0,104
-101,147	177,008	-0,128	0,135
-100,132	-200,000	-0,004	0,086
-99,118	-200,000	0,002	-0,021
-98,103	-200,000	0,004	0,017
-97,089	-124,633	0,187	0,021
-96,074	126,443	0,064	-0,059
-95,059	800,000	0,035	-0,070
-94,045	260,927	-0,058	-0,072
-93,030	-200,000	0,006	0,031
-92,016	-31,975	0,129	0,052
-91,001	167,710	0,046	-0,048
-89,986	12,121	-0,014	-0,008
-88,972	91,443	0,039	0,032
-87,957	-66,570	0,023	0,007
-86,943	232,923	-0,083	-0,099
-85,928	120,554	-0,125	-0,113
-84,913	-200,000	-0,048	-0,205
-83,899	18,472	-0,065	-0,038
-82,884	-200,000	0,024	0,079
-81,870	-200,000	0,013	0,088
-80,855	88,828	-0,069	-0,055
-79,840	800,000	0,030	-0,069
-78,826	-183,015	-0,088	0,001
-77,811	-54,331	-0,035	0,012
-76,797	-200,000	-0,007	0,088
-75,782	800,000	-0,079	-0,158
-74,767	-75,702	0,062	0,016
-73,753	168,156	-0,019	-0,020
-72,738	339,816	0,093	0,132
-71,724	223,028	-0,102	0,119
-70,709	-141,447	-0,045	0,003
-69,694	113,125	-0,075	0,065
-68,680	800,000	0,031	0,099
-67,665	0,604	-0,060	-0,031
-66,651	800,000	-0,013	-0,036
-65,636	184,207	-0,107	-0,114
-64,622	119,704	-0,072	-0,064
-63,607	368,813	-0,053	0,078
-62,592	3,301	0,058	0,031
-61,578	27,717	-0,031	0,019
-60,563	1,845	0,027	-0,014
-59,549	800,000	0,028	0,056
-58,534	-89,408	-1,498	-0,316
-57,519	800,000	-0,692	-1,484
-56,505	-200,000	-1,010	-4,412
-55,490	-89,346	0,614	-0,130
-54,476	800,000	4,912	11,556
-53,461	-200,000	14,588	260,394
-52,446	-200,000	694,332	2248,075
-51,432	581,178	1618,501	2881,083
-50,417	119,158	1626,826	1455,163
-49,403	76,852	1281,104	982,521
-48,388	37,731	1019,524	653,417
-47,373	23,267	978,868	580,060
-46,359	22,386	968,267	570,880
-45,344	21,169	963,861	564,304
-44,330	21,151	962,470	563,409
-43,315	21,044	960,937	562,144
-42,300	21,028	959,964	561,501
-41,286	21,068	958,708	560,872
-40,271	20,965	957,974	560,088
-39,257	20,966	957,063	559,534
-38,242	21,010	956,006	559,038
-37,227	21,006	955,214	558,538
-36,213	20,997	954,221	557,907
-35,198	20,921	953,280	557,092
-34,184	21,050	952,683	557,133
-33,169	20,940	951,845	556,269
-32,154	20,931	951,123	555,796
-31,140	20,981	950,105	555,341
-30,125	21,024	949,516	555,110
-29,111	21,005	948,493	554,431
-28,096	21,056	947,767	554,146
-27,082	20,980	947,312	553,614
-26,067	20,988	946,495	553,143
-25,052	20,969	945,572	552,521
-24,038	20,990	945,102	552,290
-23,023	21,000	944,368	551,872
-22,009	21,014	943,709	551,507
-20,994	20,993	943,329	551,197
-19,979	21,017	942,549	550,798
-18,965	21,047	941,858	550,467
-17,950	21,016	941,253	549,994
-16,936	20,906	940,780	549,345
-15,921	20,910	939,960	548,857
-14,906	20,806	939,226	548,079
-13,892	20,903	938,708	548,060
-12,877	20,883	937,914	547,513
-11,863	20,878	937,295	547,113
-10,848	20,915	936,733	546,881
-9,833	20,959	936,277	546,732
-8,819	20,926	935,872	546,369
-7,804	20,883	935,067	545,742
-6,790	20,864	934,611	545,395
-5,775	20,825	934,111	544,957
-4,760	20,820	933,572	544,607
-3,746	20,896	932,807	544,377
-2,731	20,770	931,968	543,472
-1,717	20,741	931,284	542,959
-0,702	20,733	930,689	542,564
0,313	20,494	930,088	542,283
1,327	22,951	927,857	548,621
2,342	30,458	805,140	496,279
3,356	25,386	507,148	303,963
4,371	1,938	373,729	194,224
5,386	-0,888	356,459	181,776
6,400	-2,339	350,490	176,969
7,415	-3,146	347,556	174,508
8,429	-3,474	345,974	173,309
9,444	-3,608	345,061	172,677
10,459	-3,433	344,254	172,465
11,473	-3,506	343,712	172,091
12,488	-3,403	343,298	171,989
13,502	-3,230	342,615	171,836
14,517	-3,574	342,181	171,199
15,531	-3,783	341,582	170,639
16,546	-3,677	340,972	170,443
17,561	-3,758	340,611	170,152
18,575	-3,707	340,085	169,934
19,590	-3,678	339,810	169,815
20,604	-3,631	339,442	169,671
21,619	-3,985	339,018	169,032
22,634	-3,703	338,792	169,233
23,648	-3,703	338,358	169,001
24,663	-3,781	337,982	168,707
25,677	-3,840	337,925	168,595
26,692	-3,894	337,454	168,283
27,707	-3,813	337,129	168,199
28,721	-3,883	336,856	167,967
29,736	-4,030	336,534	167,621
30,750	-3,991	336,198	167,485
31,765	-3,837	335,991	167,544
32,780	-3,735	335,523	167,413
33,794	-3,825	335,318	167,191
34,809	-3,810	335,134	167,102
35,823	-3,831	334,780	166,887
36,838	-3,908	334,497	166,643
37,853	-3,875	334,167	166,502
38,867	-3,865	334,061	166,446
39,882	-3,882	333,764	166,263
40,896	-3,830	333,473	166,163
41,911	-3,845	333,006	165,898
42,926	-3,904	332,830	165,728
43,940	-3,936	332,596	165,561
44,955	-3,891	332,153	165,377
45,969	-4,034	332,041	165,143
46,984	-4,039	331,658	164,932
47,999	-4,112	331,337	164,674
49,013	-4,416	331,195	164,245
50,028	-4,290	330,702	164,128
51,042	-4,415	330,641	163,941
52,057	-4,400	330,266	163,758
53,071	-4,225	329,868	163,744
54,086	-4,400	329,833	163,514
55,101	-4,251	329,575	163,540
56,115	-4,112	329,403	163,597
57,130	-3,824	329,190	163,802
58,144	-3,728	329,001	163,800
59,159	-3,745	328,804	163,669
60,174	-3,751	328,412	163,452
61,188	-3,554	328,147	163,527
62,203	-3,916	328,008	163,037
63,217	-3,754	327,669	163,035
64,232	-3,860	327,490	162,814
65,247	-3,686	327,381	162,939
66,261	-3,618	326,884	162,754
67,276	-3,678	326,415	162,439
68,290	-3,851	326,305	162,176
69,305	-4,000	326,062	161,875
70,320	-4,113	325,939	161,674
71,334	-3,749	325,620	161,906
72,349	-3,653	325,340	161,859
73,363	-3,825	325,072	161,520
74,378	-3,654	324,825	161,573
75,393	-3,585	324,451	161,449
76,407	-3,723	324,379	161,246
77,422	-3,842	324,236	161,028
78,436	-3,698	323,865	160,990
79,451	-3,681	323,680	160,902
80,466	-3,921	323,376	160,471
81,480	-3,819	322,952	160,358
82,495	-3,910	322,743	160,141
83,509	-3,801	322,587	160,169
84,524	-4,018	322,314	159,780
85,539	-4,158	322,024	159,468
86,553	-3,925	321,734	159,566
87,568	-3,976	321,549	159,405
88,582	-4,082	321,368	159,184
89,597	-3,799	320,948	159,273
90,611	-3,803	320,907	159,233
91,626	-3,755	320,816	159,226
92,641	-3,624	320,386	159,142
93,655	-3,864	320,118	158,733
94,670	-3,934	319,882	158,524
95,684	-3,802	319,714	158,572
96,699	-3,762	319,428	158,459
97,714	-3,720	319,126	158,340
98,728	-3,972	319,079	158,029
99,743	-3,956	318,656	157,823
100,757	-4,036	318,362	157,577
101,772	-3,981	318,170	157,527
102,787	-4,054	318,165	157,431
103,801	-3,942	317,766	157,342
104,816	-3,899	317,583	157,283
105,830	-3,778	317,431	157,324
106,845	-3,918	317,476	157,181
107,860	-3,849	316,958	156,986
108,874	-3,827	316,756	156,896
109,889	-3,911	316,434	156,632
110,903	-3,677	316,111	156,709
111,918	-3,809	315,917	156,457
112,933	-3,880	315,834	156,326
113,947	-3,806	315,469	156,211
114,962	-3,851	315,327	156,078
115,976	-3,796	315,060	155,991
116,991	-3,918	314,928	155,781
118,006	-3,919	314,785	155,694
119,020	-3,755	314,600	155,765
120,035	-3,798	314,407	155,610
121,049	-3,598	314,169	155,692
122,064	-3,764	314,036	155,434
123,079	-3,780	313,740	155,258
124,093	-3,717	313,379	155,132
125,108	-3,918	313,124	154,778
126,122	-4,125	312,842	154,404
127,137	-4,163	312,671	154,266
128,151	-4,108	312,367	154,161
129,166	-3,808	312,200	154,383
130,181	-4,097	311,995	153,961
131,195	-4,028	311,726	153,888
132,210	-3,857	311,690	154,038
133,224	-3,796	311,380	153,936
134,239	-3,810	311,124	153,780
135,254	-3,838	310,979	153,666
136,268	-3,840	310,446	153,387
137,283	-4,081	310,466	153,127
138,297	-4,035	310,147	153,005
139,312	-4,022	309,947	152,907
140,327	-3,767	309,843	153,110
141,341	-3,668	309,688	153,125
142,356	-3,595	309,496	153,092
143,370	-3,559	309,331	153,036
144,385	-3,624	309,208	152,892
145,400	-3,622	308,797	152,677
146,414	-3,532	308,673	152,697
147,429	-3,437	308,368	152,632
148,443	-3,543	308,167	152,408
149,458	-3,444	307,889	152,361
150,473	-3,495	307,632	152,167
151,487	-3,648	307,425	151,891
152,502	-3,586	307,305	151,883
153,516	-3,562	307,087	151,786
154,531	-3,551	306,867	151,676
155,546	-3,499	306,664	151,616
156,560	-3,621	306,558	151,423
157,575	-3,739	306,163	151,092
158,589	-3,584	306,113	151,215
159,604	-3,378	305,654	151,187
160,619	-3,385	305,552	151,116
161,633	-3,509	305,377	150,888
162,648	-3,591	305,127	150,666
163,662	-3,635	305,127	150,607
164,677	-3,628	304,838	150,459
165,692	-3,549	304,581	150,400
166,706	-3,575	304,491	150,316
167,721	-3,495	304,194	150,238
168,735	-3,358	303,937	150,238
169,750	-3,450	303,920	150,122
170,764	-3,296	303,756	150,186
171,779	-3,447	303,528	149,904
172,794	-3,426	303,269	149,784
173,808	-3,414	303,010	149,656
174,823	-3,887	302,373	148,844
175,837	-3,968	302,563	148,840
176,852	-3,678	302,461	149,075
177,867	-3,431	302,262	149,216
178,881	-3,352	301,941	149,125
179,896	-3,486	301,820	148,915
180,910	-3,348	301,447	148,858
181,925	-3,513	301,406	148,657
182,940	-3,343	301,265	148,748
183,954	-3,314	300,948	148,607
184,969	-3,547	300,888	148,326
185,983	-3,365	300,596	148,354
186,998	-3,250	300,397	148,360
188,013	-3,388	300,187	148,103
189,027	-3,221	299,956	148,146
190,042	-3,288	299,818	147,996
191,056	-3,309	299,630	147,869
192,071	-3,248	299,395	147,802
193,086	-3,210	299,249	147,754
194,100	-3,246	299,109	147,636
195,115	-3,412	298,885	147,344
196,129	-3,426	298,652	147,202
197,144	-3,363	298,411	147,134
198,159	-3,290	298,095	147,038
199,173	-3,294	297,944	146,947
200,188	-3,099	297,695	147,008
201,202	-3,355	297,518	146,649
202,217	-3,719	297,106	146,067
203,232	-3,832	296,940	145,860
204,246	-3,651	296,786	145,952
205,261	-3,440	296,586	146,052
206,275	-3,512	296,561	145,955
207,290	-3,418	296,420	145,967
208,304	-3,288	296,085	145,918
209,319	-3,373	295,949	145,754
210,334	-3,195	295,678	145,785
211,348	-3,429	295,567	145,484
212,363	-3,359	295,367	145,442
213,377	-3,418	295,087	145,232
214,392	-3,348	294,897	145,195
215,407	-3,471	294,611	144,920
216,421	-3,712	294,347	144,537
217,436	-3,548	294,173	144,602
218,450	-3,688	294,027	144,378
219,465	-3,571	293,950	144,444
220,480	-3,425	293,594	144,400
221,494	-3,529	293,574	144,274
222,509	-3,584	293,428	144,136
223,523	-3,361	293,075	144,171
224,538	-3,336	292,979	144,135
225,553	-3,331	292,874	144,075
226,567	-3,154	292,670	144,137
227,582	-3,266	292,386	143,874
228,596	-3,330	292,385	143,796
229,611	-3,245	292,110	143,732
230,626	-3,441	292,018	143,481
231,640	-3,643	291,598	143,063
232,655	-3,919	291,247	142,608
233,669	-3,881	291,139	142,579
234,684	-3,714	291,028	142,677
235,699	-3,653	290,718	142,571
236,713	-3,862	290,723	142,356
237,728	-3,536	290,534	142,570
238,742	-3,580	290,395	142,447
239,757	-3,498	290,295	142,464
240,772	-3,473	289,983	142,323
241,786	-3,504	289,823	142,201
242,801	-3,525	289,579	142,049
243,815	-3,566	289,343	141,880
244,830	-3,549	289,198	141,814
245,844	-3,710	289,070	141,581
246,859	-3,526	288,666	141,550
247,874	-3,708	288,646	141,350
248,888	-3,588	288,497	141,381
249,903	-3,382	288,417	141,530
250,917	-3,294	288,290	141,540
251,932	-3,149	288,114	141,581
252,947	-2,435	288,293	142,349
253,961	-2,539	287,851	142,018
254,976	-1,592	288,151	143,070
255,990	0,956	288,915	145,909
257,005	1,132	288,981	146,100
258,020	2,530	289,234	147,570
259,034	3,123	289,379	148,206
260,049	2,995	289,149	147,951
261,063	2,714	288,973	147,576
262,078	3,026	288,797	147,775
263,093	3,599	289,036	148,438
264,107	3,597	288,783	148,293
265,122	3,571	288,675	148,199
266,136	3,683	288,462	148,185
267,151	3,573	288,323	147,993
268,166	3,557	287,876	147,736
269,180	3,478	287,876	147,647
270,195	3,648	287,486	147,597
271,209	3,538	287,574	147,524
272,224	3,517	287,289	147,344
273,239	3,560	286,984	147,215
274,253	3,324	286,758	146,860
275,268	3,481	286,698	146,967
276,282	3,639	286,466	146,986
277,297	3,459	286,433	146,783
278,312	3,875	286,184	147,041
279,326	3,748	285,915	146,768
280,341	3,556	285,777	146,501
281,355	3,628	285,459	146,393
282,370	3,403	285,299	146,084
283,384	3,735	285,042	146,255
284,399	3,442	285,038	145,961
285,414	3,635	284,790	146,004
286,428	3,456	284,653	145,752
287,443	3,370	284,311	145,482
288,457	3,405	284,057	145,372
289,472	3,263	283,918	145,153
290,487	3,196	283,710	144,971
291,501	3,023	283,359	144,614
292,516	2,902	283,367	144,491
293,530	2,970	283,124	144,419
294,545	2,971	283,259	144,475
295,560	3,440	282,839	144,691
296,574	3,055	282,724	144,256
297,589	3,383	282,566	144,472
298,603	3,685	282,434	144,676
299,618	3,586	282,201	144,451
300,633	3,397	282,084	144,200
301,647	3,238	281,950	143,969
302,662	3,574	281,660	144,124
303,676	3,288	281,494	143,758
304,691	2,929	281,157	143,236
305,706	2,755	280,927	142,943
306,720	2,983	280,641	142,998
307,735	2,888	280,510	142,830
308,749	2,901	280,502	142,825
309,764	3,056	280,209	142,808
310,779	2,977	279,968	142,598
311,793	2,725	279,823	142,277
312,808	2,873	279,621	142,300
313,822	3,105	279,472	142,427
314,837	2,726	279,212	141,929
315,852	2,733	278,999	141,815
316,866	2,907	278,877	141,902
317,881	2,871	278,922	141,878
318,895	2,768	278,520	141,566
319,910	2,931	278,180	141,532
320,925	2,643	278,076	141,199
321,939	2,906	277,932	141,357
322,954	3,172	277,832	141,539
323,968	2,912	277,795	141,267
324,983	3,161	277,582	141,377
325,997	3,081	277,378	141,186
327,012	3,018	277,253	141,052
328,027	2,971	277,050	140,893
329,041	3,063	276,881	140,879
330,056	3,199	276,717	140,908
331,070	3,057	276,469	140,639
332,085	3,122	276,305	140,602
333,100	3,033	276,170	140,440
334,114	2,946	276,048	140,285
335,129	2,898	275,762	140,083
336,143	2,971	275,766	140,140
337,158	3,326	275,671	140,404
338,173	3,097	275,369	140,028
339,187	3,124	275,122	139,915
340,202	2,943	275,028	139,690
341,216	3,241	274,834	139,851
342,231	3,365	274,644	139,855
343,246	3,323	274,343	139,651
344,260	3,015	274,234	139,302
345,275	3,488	274,107	139,656
346,289	3,620	273,968	139,693
347,304	3,503	273,842	139,510
348,319	3,315	273,563	139,184
349,333	3,156	273,481	138,986
350,348	3,477	273,386	139,216
351,362	3,727	273,178	139,325
352,377	3,309	272,965	138,825
353,392	3,535	272,803	138,935
354,406	3,554	272,771	138,923
355,421	192,489	1328,956	1407,200
356,435	155,572	1457,701	1407,290
