DTS Sentinel unit serial number:	SN410029Multiplexer serial number:	ORYXHardware model number:	OX2-SRSoftware version number:	ORYX F/W v4,00 Oryx Data Collector v3.7.2.0data status	okinstallation	B4 Nyhavnadifferential loss correction	single-endedforward channel	channel 2reverse channel	N/Adate	2023/12/19time	13:00:13forward acquisition time	300,00reverse acquisition time	0,00gamma	499,1914k internal	0,3128k external	0,3128temperature offset calibration	1,0000default loss term (dB/km)	0,3820temperature slope calibration	1,0000multiplexer offset coefficient	1,0000multiplexer slope coefficient	1,0000fibre end	0,00T internal ref (°C)	19,43T ext. ref 1 (°C)	4,44T ext. ref 2 (°C)	4,42length (m)	temperature (°C)	Stokes	anti-Stokes-744,400	-112,576	0,133	-0,020
-743,385	90,480	-0,236	0,196
-742,371	187,634	0,042	-0,046
-741,356	-10,335	-0,130	-0,064
-740,342	800,000	0,011	0,028
-739,327	-29,399	-0,279	0,118
-738,312	-200,000	-0,016	-0,123
-737,298	-100,955	-0,251	0,045
-736,283	24,949	0,158	-0,098
-735,269	-84,320	-0,270	0,063
-734,254	800,000	0,081	-0,185
-733,239	-47,674	-0,442	-0,159
-732,225	-110,089	0,140	0,022
-731,210	275,143	-0,033	-0,043
-730,196	-200,000	0,003	-0,100
-729,181	33,595	-0,022	0,014
-728,167	-200,000	-0,006	-0,052
-727,152	60,221	-0,038	0,028
-726,137	317,137	-0,092	-0,129
-725,123	-74,977	-0,065	-0,017
-724,108	5,639	-0,101	0,055
-723,094	6,430	0,065	-0,036
-722,079	-200,000	0,011	-0,080
-721,064	-200,000	0,017	-0,090
-720,050	-58,279	0,068	0,022
-719,035	-53,964	0,015	-0,005
-718,021	151,740	-0,058	0,059
-717,006	68,419	-0,074	-0,057
-715,991	-200,000	-0,011	-0,115
-714,977	-200,000	-0,058	-0,192
-713,962	-102,428	-0,026	-0,005
-712,948	-19,540	0,117	-0,054
-711,933	628,022	0,083	-0,156
-710,918	764,273	0,016	-0,031
-709,904	-200,000	0,005	-0,194
-708,889	-200,000	0,001	-0,126
-707,875	-149,931	-0,091	0,005
-706,860	800,000	0,035	-0,094
-705,845	491,236	0,104	-0,178
-704,831	-200,000	-0,017	0,069
-703,816	-144,029	-0,154	-0,011
-702,802	-200,000	-0,011	-0,171
-701,787	-200,000	0,006	0,053
-700,772	-81,363	0,089	0,022
-699,758	-81,572	-0,039	0,009
-698,743	-200,000	0,011	0,163
-697,729	-58,482	0,046	0,015
-696,714	57,301	-0,032	0,023
-695,699	-82,891	-0,094	-0,022
-694,685	334,681	-0,103	0,149
-693,670	-13,504	-0,076	-0,037
-692,656	246,354	-0,021	0,026
-691,641	4,955	0,230	-0,125
-690,627	-200,000	-0,020	0,080
-689,612	272,335	0,047	-0,062
-688,597	-122,989	-0,070	0,008
-687,583	-81,997	-0,240	-0,058
-686,568	41,454	-0,028	-0,019
-685,554	220,461	-0,026	-0,031
-684,539	-39,417	0,031	0,012
-683,524	125,269	0,096	-0,090
-682,510	-200,000	-0,027	-0,104
-681,495	250,095	-0,073	-0,093
-680,481	800,000	-0,013	-0,042
-679,466	356,028	-0,018	-0,027
-678,451	-49,791	0,046	-0,016
-677,437	24,199	-0,172	-0,105
-676,422	-200,000	-0,058	0,191
-675,408	205,480	0,073	0,084
-674,393	543,474	-0,026	-0,046
-673,378	800,000	-0,029	-0,087
-672,364	98,489	0,046	0,039
-671,349	800,000	-0,031	-0,083
-670,335	800,000	-0,056	-0,119
-669,320	7,403	-0,116	-0,064
-668,305	-144,206	-0,031	-0,002
-667,291	-64,231	0,111	-0,033
-666,276	551,049	0,039	0,069
-665,262	-39,472	-0,089	0,034
-664,247	3,392	-0,019	0,010
-663,232	337,447	-0,030	-0,044
-662,218	86,714	-0,054	0,044
-661,203	-65,697	0,102	0,030
-660,189	102,048	-0,086	0,074
-659,174	-49,866	-0,024	-0,008
-658,159	230,449	-0,082	-0,100
-657,145	40,886	-0,037	-0,025
-656,130	122,571	-0,037	-0,035
-655,116	-75,032	0,048	0,013
-654,101	301,429	-0,076	0,105
-653,086	-200,000	0,024	-0,099
-652,072	159,090	0,065	0,067
-651,057	-63,610	-0,112	0,034
-650,043	800,000	0,041	0,126
-649,028	271,326	0,063	-0,082
-648,014	800,000	0,036	0,084
-646,999	-39,212	-0,156	0,060
-645,984	800,000	0,036	0,088
-644,970	-164,414	-0,150	0,005
-643,955	331,066	-0,079	-0,113
-642,941	-118,434	-0,187	-0,024
-641,926	-145,193	0,022	-0,001
-640,911	374,788	0,093	0,141
-639,897	131,885	0,078	0,074
-638,882	-63,963	-0,080	0,024
-637,868	436,033	0,075	-0,121
-636,853	508,695	-0,104	-0,179
-635,838	-200,000	0,008	-0,157
-634,824	800,000	-0,057	0,121
-633,809	800,000	-0,010	-0,024
-632,795	-124,932	0,091	0,010
-631,780	-200,000	0,075	-0,000
-630,765	32,185	-0,114	0,073
-629,751	-200,000	0,005	-0,117
-628,736	800,000	-0,035	-0,071
-627,722	366,150	-0,053	-0,080
-626,707	-200,000	-0,017	-0,131
-625,692	800,000	-0,040	0,094
-624,678	126,931	0,010	0,009
-623,663	-200,000	0,004	0,085
-622,649	-200,000	0,008	0,055
-621,634	-90,575	-0,047	-0,010
-620,619	450,708	0,039	-0,064
-619,605	-81,190	-0,105	-0,026
-618,590	108,323	0,032	0,028
-617,576	-200,000	0,032	-0,121
-616,561	-200,000	0,021	-0,093
-615,546	194,705	-0,042	-0,048
-614,532	-200,000	-0,010	-0,154
-613,517	-68,638	-0,038	-0,011
-612,503	-139,771	0,169	0,013
-611,488	-200,000	-0,012	0,122
-610,474	800,000	0,044	-0,097
-609,459	2,493	0,069	-0,037
-608,444	-200,000	-0,007	0,031
-607,430	44,379	0,128	0,087
-606,415	6,332	-0,191	-0,105
-605,401	-26,872	0,034	-0,015
-604,386	-85,944	-0,046	-0,010
-603,371	-200,000	-0,006	-0,061
-602,357	30,496	-0,028	-0,018
-601,342	760,799	0,014	-0,028
-600,328	-200,000	0,018	-0,063
-599,313	800,000	0,049	-0,153
-598,298	-30,775	0,111	-0,046
-597,284	58,118	-0,025	0,018
-596,269	800,000	-0,047	-0,149
-595,255	-27,674	0,088	-0,038
-594,240	-98,766	-0,123	0,023
-593,225	800,000	0,018	0,037
-592,211	-45,803	-0,178	-0,065
-591,196	-200,000	0,011	-0,133
-590,182	800,000	0,013	0,029
-589,167	394,885	0,043	-0,067
-588,152	-73,864	-0,027	0,007
-587,138	-45,639	-0,210	-0,077
-586,123	-200,000	0,011	-0,048
-585,109	800,000	0,046	-0,109
-584,094	-200,000	-0,024	-0,114
-583,079	111,738	-0,055	-0,049
-582,065	-200,000	0,003	0,016
-581,050	-186,217	0,182	0,002
-580,036	-200,000	-0,027	0,101
-579,021	-200,000	0,001	-0,026
-578,006	275,793	0,050	-0,066
-576,992	-12,705	0,075	0,036
-575,977	403,815	-0,068	0,106
-574,963	-56,383	0,107	0,035
-573,948	38,973	-0,063	-0,042
-572,934	-165,095	-0,031	-0,001
-571,919	61,028	0,108	0,079
-570,904	280,180	-0,058	-0,077
-569,890	110,684	-0,086	0,077
-568,875	-200,000	0,002	0,083
-567,861	-99,407	0,065	-0,012
-566,846	329,780	0,131	0,187
-565,831	800,000	-0,032	0,077
-564,817	37,865	-0,022	-0,014
-563,802	-40,822	0,061	0,023
-562,788	-37,871	-0,029	-0,011
-561,773	-64,258	-0,117	-0,035
-560,758	696,309	0,036	0,070
-559,744	-80,639	-0,100	0,024
-558,729	157,705	0,049	0,050
-557,715	-19,568	0,064	-0,029
-556,700	-200,000	0,038	-0,123
-555,685	800,000	-0,056	-0,152
-554,671	15,113	0,044	-0,025
-553,656	123,078	0,027	-0,025
-552,642	-79,961	-0,112	0,028
-551,627	800,000	0,025	0,077
-550,612	-27,085	0,031	0,013
-549,598	104,383	-0,042	0,037
-548,583	460,535	-0,092	0,151
-547,569	-200,000	-0,026	0,099
-546,554	-200,000	0,018	0,103
-545,539	-96,266	0,154	0,030
-544,525	-200,000	0,011	-0,087
-543,510	-200,000	-0,009	-0,145
-542,496	36,340	-0,008	-0,005
-541,481	64,036	-0,080	-0,059
-540,466	150,621	-0,145	0,145
-539,452	-52,919	0,087	-0,029
-538,437	-200,000	-0,030	-0,108
-537,423	-65,859	-0,096	0,028
-536,408	88,291	-0,105	-0,086
-535,393	-135,046	0,095	0,008
-534,379	-159,662	-0,125	-0,005
-533,364	-200,000	-0,002	0,053
-532,350	454,871	-0,058	0,096
-531,335	279,843	0,038	0,051
-530,321	22,840	-0,053	-0,032
-529,306	-11,962	0,035	-0,017
-528,291	305,857	-0,102	-0,141
-527,277	427,548	0,031	-0,049
-526,262	800,000	0,012	0,026
-525,248	108,474	0,068	-0,060
-524,233	80,433	0,034	0,027
-523,218	800,000	0,046	0,097
-522,204	117,946	-0,095	-0,087
-521,189	800,000	-0,040	0,117
-520,175	141,696	-0,108	-0,106
-519,160	598,481	0,005	-0,009
-518,145	60,119	0,003	0,002
-517,131	800,000	0,047	-0,098
-516,116	415,570	0,039	-0,062
-515,102	-44,208	-0,075	-0,028
-514,087	19,845	-0,076	-0,045
-513,072	-126,584	0,065	-0,007
-512,058	-200,000	0,020	-0,186
-511,043	-200,000	-0,001	-0,023
-510,029	24,608	-0,065	-0,040
-509,014	-14,590	0,097	-0,046
-507,999	47,927	0,047	0,032
-506,985	-9,704	0,089	0,044
-505,970	-200,000	-0,008	0,047
-504,956	-28,159	0,075	-0,032
-503,941	-63,136	-0,083	-0,025
-502,926	146,363	0,084	0,083
-501,912	800,000	0,033	0,072
-500,897	32,321	-0,045	0,029
-499,883	235,802	0,047	-0,057
-498,868	800,000	-0,063	-0,139
-497,853	800,000	-0,010	0,027
-496,839	244,036	0,045	-0,055
-495,824	689,759	0,069	0,134
-494,810	-166,395	0,054	0,002
-493,795	800,000	-0,026	0,063
-492,781	-200,000	-0,013	-0,074
-491,766	-196,042	-0,029	-0,000
-490,751	-29,070	-0,074	-0,031
-489,737	111,100	-0,049	0,043
-488,722	659,565	-0,032	-0,061
-487,708	-93,243	0,104	-0,021
-486,693	-200,000	-0,042	-0,153
-485,678	-200,000	0,057	-0,189
-484,664	174,705	-0,086	-0,091
-483,649	-62,511	0,059	-0,018
-482,635	66,634	-0,081	0,061
-481,620	-50,684	0,078	0,027
-480,605	97,408	0,163	0,138
-479,591	800,000	0,033	0,084
-478,576	565,468	-0,078	0,140
-477,562	117,269	-0,077	0,070
-476,547	334,424	0,024	-0,034
-475,532	-200,000	0,007	-0,065
-474,518	154,930	-0,062	0,063
-473,503	438,572	0,077	0,125
-472,489	105,683	-0,008	-0,007
-471,474	-7,986	0,077	0,038
-470,459	-200,000	-0,003	0,123
-469,445	542,900	-0,066	-0,117
-468,430	-124,652	-0,032	-0,004
-467,416	-36,010	0,098	-0,039
-466,401	-99,215	-0,172	0,032
-465,386	-200,000	-0,030	0,159
-464,372	519,855	-0,012	0,022
-463,357	800,000	0,028	-0,077
-462,343	335,998	-0,069	-0,098
-461,328	-146,747	-0,054	-0,003
-460,313	-200,000	-0,004	-0,104
-459,299	66,554	0,169	-0,126
-458,284	-200,000	0,037	-0,123
-457,270	-9,042	0,079	0,039
-456,255	132,860	0,062	0,059
-455,241	-200,000	-0,017	0,063
-454,226	-33,304	-0,113	0,046
-453,211	312,298	0,084	0,117
-452,197	53,949	0,046	0,032
-451,182	-200,000	0,008	-0,050
-450,168	-101,844	-0,021	0,004
-449,153	53,481	-0,062	0,043
-448,138	37,521	0,065	-0,042
-447,124	-200,000	-0,025	0,158
-446,109	684,171	0,050	0,096
-445,095	800,000	-0,023	0,065
-444,080	-200,000	0,009	-0,061
-443,065	724,132	0,058	0,114
-442,051	-10,375	-0,093	0,045
-441,036	787,953	-0,037	0,075
-440,022	-57,712	-0,136	-0,043
-439,007	155,571	0,061	-0,062
-437,992	-200,000	-0,050	0,181
-436,978	-200,000	-0,007	-0,024
-435,963	-19,848	-0,043	-0,019
-434,949	48,487	-0,143	0,099
-433,934	800,000	0,037	-0,105
-432,919	-200,000	0,023	-0,088
-431,905	-200,000	-0,006	-0,194
-430,890	-104,809	-0,069	0,012
-429,876	-200,000	0,007	0,139
-428,861	64,719	0,116	0,086
-427,846	-200,000	0,023	0,112
-426,832	30,085	0,064	-0,040
-425,817	49,439	-0,125	-0,086
-424,803	58,185	0,159	-0,114
-423,788	280,955	0,076	0,100
-422,773	-200,000	-0,017	-0,129
-421,759	-29,179	0,059	-0,025
-420,744	-175,767	0,071	0,001
-419,730	-13,346	-0,073	-0,035
-418,715	-124,798	-0,065	-0,007
-417,701	86,739	0,126	0,102
-416,686	800,000	-0,025	0,060
-415,671	-200,000	-0,007	-0,041
-414,657	115,816	-0,091	0,081
-413,642	-200,000	0,015	0,061
-412,628	-30,648	-0,154	-0,064
-411,613	472,244	0,046	-0,076
-410,598	-33,442	0,119	-0,048
-409,584	416,997	0,070	0,110
-408,569	111,473	0,048	-0,042
-407,555	353,076	-0,055	-0,080
-406,540	244,950	-0,120	0,149
-405,525	75,280	-0,035	-0,027
-404,511	800,000	-0,028	-0,071
-403,496	-200,000	0,006	-0,112
-402,482	-37,154	-0,132	0,052
-401,467	-51,082	0,209	-0,071
-400,452	201,595	-0,098	0,112
-399,438	8,955	0,107	0,059
-398,423	-39,763	0,069	0,026
-397,409	146,949	-0,087	-0,086
-396,394	-200,000	0,022	-0,103
-395,379	-200,000	-0,009	0,082
-394,365	39,096	-0,028	-0,018
-393,350	-200,000	0,025	-0,182
-392,336	800,000	-0,022	0,057
-391,321	108,572	-0,035	0,031
-390,306	-200,000	-0,011	0,073
-389,292	-113,312	-0,064	0,009
-388,277	800,000	0,025	-0,051
-387,263	-200,000	0,011	0,145
-386,248	676,564	-0,027	0,052
-385,233	98,611	-0,074	0,063
-384,219	-53,280	0,091	0,030
-383,204	32,752	0,075	0,048
-382,190	278,024	-0,090	-0,118
-381,175	-200,000	0,008	-0,053
-380,160	-197,507	0,106	-0,000
-379,146	-2,285	0,152	0,078
-378,131	-200,000	0,002	0,201
-377,117	-200,000	-0,010	0,079
-376,102	800,000	-0,058	-0,127
-375,088	800,000	0,006	0,015
-374,073	-200,000	-0,006	-0,095
-373,058	-151,728	0,222	0,012
-372,044	800,000	0,027	0,055
-371,029	800,000	-0,028	0,089
-370,015	-6,371	0,074	-0,037
-369,000	800,000	0,061	-0,127
-367,985	-200,000	0,011	-0,148
-366,971	-161,275	-0,055	0,002
-365,956	-200,000	-0,003	0,054
-364,942	489,595	-0,018	-0,030
-363,927	800,000	0,082	0,231
-362,912	108,081	-0,094	0,082
-361,898	-130,340	-0,078	-0,008
-360,883	-200,000	0,008	0,079
-359,869	-94,560	-0,120	0,024
-358,854	36,780	-0,048	-0,031
-357,839	125,598	0,081	0,075
-356,825	-17,991	0,103	-0,047
-355,810	-84,483	0,121	-0,028
-354,796	800,000	-0,005	-0,016
-353,781	-104,806	-0,057	0,010
-352,766	72,532	-0,045	0,034
-351,752	392,268	0,030	-0,046
-350,737	-13,245	0,105	0,050
-349,723	111,017	0,079	0,070
-348,708	-200,000	-0,009	0,053
-347,693	160,120	0,068	0,069
-346,679	-200,000	-0,026	-0,127
-345,664	-42,609	-0,053	0,020
-344,650	-73,933	0,071	-0,019
-343,635	-94,758	-0,045	0,009
-342,620	711,233	-0,023	-0,046
-341,606	800,000	-0,020	-0,059
-340,591	-200,000	0,023	-0,094
-339,577	-200,000	-0,023	-0,149
-338,562	669,308	-0,040	0,075
-337,548	76,647	-0,125	0,097
-336,533	800,000	0,031	0,099
-335,518	722,479	0,017	0,034
-334,504	-129,031	0,020	-0,002
-333,489	28,415	-0,096	-0,060
-332,475	-79,726	-0,052	-0,013
-331,460	800,000	0,061	0,127
-330,445	-200,000	-0,008	-0,057
-329,431	-1,037	0,147	0,076
-328,416	47,562	0,122	0,083
-327,402	165,262	-0,062	0,064
-326,387	768,671	-0,047	0,095
-325,372	-43,967	-0,102	-0,037
-324,358	114,410	0,051	-0,046
-323,343	-192,683	-0,093	0,001
-322,329	-200,000	0,015	0,111
-321,314	76,865	0,092	0,072
-320,299	-62,082	-0,196	0,059
-319,285	156,051	0,071	-0,072
-318,270	83,472	0,026	0,021
-317,256	-82,888	-0,080	-0,019
-316,241	-96,417	-0,184	-0,035
-315,226	70,098	-0,057	-0,043
-314,212	342,532	0,079	0,114
-313,197	364,604	0,051	0,076
-312,183	-31,889	-0,006	-0,003
-311,168	-173,218	-0,076	-0,002
-310,153	800,000	-0,054	0,133
-309,139	-26,136	-0,074	0,032
-308,124	-18,753	0,090	0,041
-307,110	-71,612	0,156	-0,042
-306,095	800,000	0,046	-0,121
-305,080	43,369	0,040	0,026
-304,066	54,786	0,091	0,064
-303,051	-1,354	0,134	0,069
-302,037	-200,000	-0,006	0,071
-301,022	364,769	-0,074	-0,109
-300,008	-133,119	0,132	0,012
-298,993	-15,484	0,175	0,081
-297,978	268,756	-0,124	0,160
-296,964	-200,000	0,007	-0,064
-295,949	207,826	0,035	-0,040
-294,935	-200,000	0,012	0,071
-293,920	-200,000	-0,016	-0,177
-292,905	-24,745	0,061	0,026
-291,891	800,000	-0,023	-0,063
-290,876	-48,884	-0,112	0,039
-289,862	336,468	0,046	-0,065
-288,847	3,892	-0,067	-0,035
-287,832	57,213	-0,063	-0,045
-286,818	-10,777	-0,088	0,043
-285,803	128,756	0,068	0,063
-284,789	-200,000	-0,027	0,245
-283,774	98,724	0,175	0,148
-282,759	800,000	-0,054	-0,150
-281,745	800,000	-0,015	-0,047
-280,730	800,000	-0,050	0,110
-279,716	160,524	-0,055	0,056
-278,701	-200,000	0,020	-0,110
-277,686	214,707	0,059	-0,068
-276,672	64,323	-0,068	0,050
-275,657	20,705	0,020	0,012
-274,643	40,554	-0,151	-0,099
-273,628	-200,000	0,027	-0,160
-272,613	800,000	-0,055	0,153
-271,599	-44,318	0,114	0,042
-270,584	-164,646	-0,115	0,004
-269,570	-200,000	0,005	-0,067
-268,555	560,199	0,024	0,042
-267,540	-72,853	-0,122	-0,032
-266,526	129,666	0,081	-0,076
-265,511	-200,000	0,006	-0,111
-264,497	-200,000	0,040	-0,153
-263,482	283,074	0,096	0,126
-262,467	229,066	-0,064	-0,076
-261,453	198,847	-0,029	0,033
-260,438	-200,000	0,008	-0,031
-259,424	-170,457	-0,008	-0,000
-258,409	-37,349	0,038	-0,015
-257,395	-135,012	0,056	-0,005
-256,380	800,000	-0,010	-0,031
-255,365	271,463	-0,119	0,154
-254,351	-31,947	-0,114	-0,046
-253,336	186,005	-0,128	-0,139
-252,322	-200,000	0,002	0,045
-251,307	800,000	-0,044	-0,112
-250,292	81,847	0,061	0,048
-249,278	-49,312	0,125	0,043
-248,263	95,285	-0,009	-0,007
-247,249	280,671	-0,013	0,017
-246,234	32,631	-0,073	-0,046
-245,219	800,000	-0,018	-0,041
-244,205	-200,000	-0,042	-0,201
-243,190	14,671	0,112	-0,064
-242,176	800,000	-0,026	-0,057
-241,161	28,582	0,103	0,064
-240,146	11,935	0,102	0,057
-239,132	102,888	-0,094	-0,080
-238,117	254,778	-0,043	0,054
-237,103	800,000	-0,028	-0,087
-236,088	-200,000	0,018	0,156
-235,073	-200,000	-0,010	0,162
-234,059	800,000	0,033	0,104
-233,044	-82,461	0,074	-0,017
-232,030	-69,310	0,080	0,022
-231,015	800,000	0,046	-0,138
-230,000	-143,457	-0,051	-0,003
-228,986	218,399	-0,084	0,098
-227,971	-200,000	0,002	-0,016
-226,957	630,475	0,095	-0,175
-225,942	-200,000	0,006	0,039
-224,927	125,237	0,050	0,046
-223,913	124,526	-0,070	-0,064
-222,898	-57,714	-0,228	-0,072
-221,884	-175,493	0,043	0,001
-220,869	-200,000	0,014	0,129
-219,855	35,146	-0,022	-0,014
-218,840	243,446	-0,077	0,094
-217,825	64,825	0,033	0,024
-216,811	-116,981	0,126	-0,017
-215,796	-7,796	-0,085	-0,042
-214,782	62,794	0,024	-0,017
-213,767	75,302	0,102	-0,079
-212,752	122,576	-0,074	0,067
-211,738	209,532	0,068	-0,078
-210,723	-200,000	-0,005	-0,048
-209,709	800,000	-0,054	0,141
-208,694	-200,000	0,009	-0,071
-207,679	-5,189	-0,128	0,064
-206,665	43,841	0,068	0,045
-205,650	-0,094	0,115	0,060
-204,636	109,752	0,057	-0,050
-203,621	-200,000	-0,011	-0,092
-202,606	520,526	-0,024	-0,042
-201,592	711,811	-0,062	-0,120
-200,577	800,000	0,025	-0,076
-199,563	-200,000	-0,005	-0,018
-198,548	-23,446	0,083	-0,036
-197,533	-200,000	0,010	0,080
-196,519	-194,805	-0,042	0,000
-195,504	319,292	0,025	0,034
-194,490	-66,467	-0,089	0,026
-193,475	-45,382	-0,127	-0,046
-192,460	394,568	0,030	0,046
-191,446	374,655	0,019	-0,029
-190,431	19,856	0,044	0,026
-189,417	-20,683	-0,064	0,029
-188,402	487,916	0,046	0,077
-187,387	205,091	0,037	-0,042
-186,373	18,048	-0,013	0,008
-185,358	269,618	-0,012	-0,016
-184,344	420,428	0,098	0,153
-183,329	800,000	-0,018	0,045
-182,315	-15,175	-0,037	0,017
-181,300	-200,000	0,022	0,103
-180,285	-200,000	-0,007	0,080
-179,271	-109,674	-0,148	-0,022
-178,256	252,633	0,018	0,022
-177,242	-64,359	0,078	0,023
-176,227	800,000	0,060	0,133
-175,212	-130,269	0,112	-0,011
-174,198	42,883	-0,053	-0,035
-173,183	371,089	0,055	0,082
-172,169	-200,000	-0,027	-0,096
-171,154	263,209	-0,029	-0,037
-170,139	-15,817	0,066	-0,031
-169,125	233,551	0,049	0,059
-168,110	-200,000	-0,023	0,080
-167,096	348,411	-0,059	0,084
-166,081	118,624	0,070	0,063
-165,066	800,000	0,064	-0,136
-164,052	166,854	-0,112	-0,116
-163,037	-78,178	0,062	0,016
-162,023	663,418	0,084	0,158
-161,008	-200,000	0,009	0,061
-159,993	-158,882	-0,083	0,003
-158,979	17,374	0,142	-0,082
-157,964	104,165	-0,050	0,042
-156,950	-200,000	-0,000	0,009
-155,935	731,905	-0,024	0,046
-154,920	9,972	0,061	-0,033
-153,906	122,648	0,038	-0,034
-152,891	717,479	0,070	-0,136
-151,877	244,434	-0,065	-0,079
-150,862	78,529	-0,203	-0,158
-149,847	187,662	-0,048	-0,052
-148,833	-200,000	0,002	0,132
-147,818	82,531	0,089	0,070
-146,804	-200,000	-0,012	0,065
-145,789	542,695	0,030	-0,052
-144,775	800,000	-0,033	-0,105
-143,760	69,156	-0,085	-0,063
-142,745	103,810	0,059	-0,050
-141,731	284,100	0,116	-0,152
-140,716	800,000	-0,016	0,037
-139,702	800,000	0,059	0,121
-138,687	158,245	0,056	-0,057
-137,672	-200,000	0,002	-0,120
-136,658	-77,681	-0,057	0,014
-135,643	-200,000	0,007	-0,053
-134,629	692,347	-0,026	0,051
-133,614	800,000	-0,013	-0,040
-132,599	504,231	0,074	0,126
-131,585	183,446	-0,107	-0,115
-130,570	-81,619	-0,152	-0,036
-129,556	-200,000	0,005	-0,022
-128,541	531,545	-0,036	0,062
-127,526	81,577	0,078	-0,061
-126,512	532,702	0,081	0,140
-125,497	-84,731	0,040	0,009
-124,483	-46,833	0,162	-0,057
-123,468	494,971	-0,056	0,095
-122,453	-158,391	0,092	-0,004
-121,439	-200,000	0,011	-0,068
-120,424	-200,000	0,008	-0,053
-119,410	285,239	0,043	0,056
-118,395	342,917	0,087	-0,123
-117,380	-200,000	-0,002	0,157
-116,366	366,874	-0,007	0,010
-115,351	-128,174	0,158	-0,016
-114,337	800,000	-0,042	-0,120
-113,322	-58,252	-0,124	0,039
-112,307	170,672	-0,034	-0,035
-111,293	132,965	0,032	-0,030
-110,278	-83,685	-0,060	0,014
-109,264	66,849	0,100	0,074
-108,249	-75,773	-0,035	0,009
-107,234	392,832	0,050	0,075
-106,220	800,000	0,024	-0,053
-105,205	27,749	0,107	0,065
-104,191	42,065	-0,060	0,040
-103,176	-200,000	-0,005	-0,060
-102,162	-94,721	0,013	-0,003
-101,147	800,000	0,033	-0,072
-100,132	-91,725	-0,153	-0,031
-99,118	-200,000	-0,001	0,027
-98,103	800,000	-0,078	0,187
-97,089	-48,326	0,106	0,037
-96,074	-200,000	0,015	-0,078
-95,059	44,115	-0,119	0,079
-94,045	-200,000	0,007	0,022
-93,030	-200,000	-0,006	0,046
-92,016	157,880	0,047	-0,048
-91,001	3,948	-0,157	0,083
-89,986	291,840	-0,045	0,060
-88,972	-200,000	0,001	0,012
-87,957	-200,000	0,007	0,137
-86,943	-200,000	-0,005	0,069
-85,928	354,534	-0,045	0,065
-84,913	-200,000	-0,014	0,079
-83,899	-9,965	0,094	-0,045
-82,884	-7,093	0,184	0,090
-81,870	51,193	-0,039	-0,027
-80,855	143,493	0,097	0,094
-79,840	800,000	-0,030	-0,063
-78,826	-121,705	-0,133	-0,016
-77,811	646,350	-0,015	-0,028
-76,797	225,094	-0,059	-0,070
-75,782	-157,267	0,111	-0,005
-74,767	270,149	-0,053	-0,068
-73,753	-200,000	0,017	0,136
-72,738	524,493	-0,069	0,118
-71,724	-80,990	0,107	-0,025
-70,709	224,352	-0,030	-0,035
-69,694	-77,096	-0,128	0,032
-68,680	85,023	0,089	-0,071
-67,665	-165,518	0,044	0,001
-66,651	-110,435	0,152	0,023
-65,636	-104,177	-0,074	0,012
-64,622	228,953	-0,047	0,056
-63,607	555,850	-0,073	0,129
-62,592	52,607	-0,098	0,068
-61,578	-163,892	0,116	0,004
-60,563	292,884	0,103	0,136
-59,549	-200,000	0,010	0,047
-58,534	-62,058	-1,512	-0,455
-57,519	534,594	-0,768	-1,325
-56,505	-200,000	-0,798	-4,507
-55,490	-155,118	0,579	0,027
-54,476	800,000	4,955	11,888
-53,461	-200,000	15,180	269,848
-52,446	-200,000	695,949	2252,990
-51,432	589,914	1615,744	2898,386
-50,417	121,046	1624,238	1464,333
-49,403	82,678	1281,475	1007,814
-48,388	37,407	1022,442	655,355
-47,373	22,179	983,210	580,059
-46,359	21,182	972,330	570,342
-45,344	19,690	968,130	562,971
-44,330	19,720	966,815	562,279
-43,315	19,528	965,147	560,661
-42,300	19,517	964,021	559,948
-41,286	19,470	963,180	559,286
-40,271	19,482	962,226	558,748
-39,257	19,519	961,336	558,329
-38,242	19,563	960,517	557,975
-37,227	19,501	959,814	557,342
-36,213	19,426	958,888	556,540
-35,198	19,424	957,887	555,931
-34,184	19,537	957,173	555,860
-33,169	19,444	956,288	555,021
-32,154	19,504	955,222	554,576
-31,140	19,471	954,404	553,971
-30,125	19,450	953,655	553,449
-29,111	19,558	952,663	553,198
-28,096	19,522	952,198	552,791
-27,082	19,435	951,651	552,170
-26,067	19,445	950,784	551,677
-25,052	19,525	949,994	551,453
-24,038	19,461	949,468	550,921
-23,023	19,448	948,805	550,474
-22,009	19,497	948,027	550,157
-20,994	19,467	947,396	549,672
-19,979	19,472	946,870	549,362
-18,965	19,417	946,150	548,747
-17,950	19,522	945,446	548,654
-16,936	19,419	944,753	547,900
-15,921	19,385	944,187	547,440
-14,906	19,302	943,683	546,861
-13,892	19,355	942,828	546,513
-12,877	19,286	942,373	546,009
-11,863	19,310	941,628	545,630
-10,848	19,297	941,247	545,348
-9,833	19,417	940,662	545,369
-8,819	19,447	939,937	545,023
-7,804	19,382	939,242	544,392
-6,790	19,366	938,801	544,063
-5,775	19,343	938,321	543,692
-4,760	19,394	937,475	543,342
-3,746	19,359	936,913	542,883
-2,731	19,231	936,230	542,058
-1,717	19,159	935,544	541,414
-0,702	19,190	934,984	541,166
0,313	19,000	934,263	540,964
1,327	21,524	931,939	547,526
2,342	28,928	806,209	493,695
3,356	23,185	506,260	300,219
4,371	-0,932	373,537	190,784
5,386	-3,721	356,915	178,851
6,400	-4,906	351,095	174,485
7,415	-5,267	348,527	172,759
8,429	-5,350	347,141	171,957
9,444	-5,322	346,147	171,484
10,459	-5,212	345,495	171,276
11,473	-5,231	344,961	170,974
12,488	-5,277	344,470	170,661
13,502	-5,409	343,939	170,225
14,517	-5,100	343,336	170,277
15,531	-5,311	342,933	169,813
16,546	-5,087	342,413	169,805
17,561	-5,351	342,297	169,422
18,575	-5,103	341,708	169,406
19,590	-5,279	341,351	169,008
20,604	-5,133	341,085	169,032
21,619	-5,235	340,556	168,635
22,634	-5,177	340,155	168,489
23,648	-5,229	339,845	168,261
24,663	-5,193	339,623	168,177
25,677	-5,132	339,405	168,125
26,692	-5,290	339,034	167,743
27,707	-4,987	338,590	167,861
28,721	-5,211	338,353	167,467
29,736	-5,340	338,109	167,182
30,750	-5,261	337,814	167,113
31,765	-5,234	337,511	166,980
32,780	-5,292	337,288	166,786
33,794	-5,169	336,909	166,728
34,809	-5,058	336,697	166,736
35,823	-5,037	336,207	166,503
36,838	-5,111	336,033	166,316
37,853	-5,210	335,801	166,072
38,867	-5,197	335,497	165,923
39,882	-5,241	335,150	165,685
40,896	-5,274	334,986	165,551
41,911	-5,102	334,597	165,542
42,926	-5,105	334,530	165,490
43,940	-5,013	334,139	165,388
44,955	-5,109	333,860	165,125
45,969	-5,051	333,717	165,107
46,984	-5,271	333,528	164,745
47,999	-4,960	333,176	164,913
49,013	-5,129	332,917	164,577
50,028	-5,234	332,724	164,347
51,042	-4,984	332,389	164,452
52,057	-5,287	332,059	163,929
53,071	-5,306	331,908	163,819
54,086	-5,048	331,627	163,959
55,101	-5,096	331,296	163,725
56,115	-5,199	331,141	163,517
57,130	-5,097	330,782	163,441
58,144	-5,104	330,502	163,280
59,159	-5,191	330,199	163,018
60,174	-5,375	329,979	162,686
61,188	-5,302	329,769	162,650
62,203	-5,277	329,491	162,528
63,217	-5,221	329,279	162,472
64,232	-5,230	328,941	162,280
65,247	-5,158	328,736	162,246
66,261	-5,291	328,469	161,950
67,276	-5,191	328,162	161,896
68,290	-5,196	327,889	161,741
69,305	-5,111	327,734	161,746
70,320	-5,202	327,519	161,523
71,334	-5,125	327,033	161,356
72,349	-5,087	326,911	161,324
73,363	-5,205	326,590	161,019
74,378	-5,072	326,242	160,982
75,393	-5,287	326,257	160,734
76,407	-5,141	326,060	160,786
77,422	-5,282	325,716	160,445
78,436	-5,283	325,423	160,285
79,451	-5,235	325,096	160,163
80,466	-5,231	324,928	160,071
81,480	-5,095	324,588	160,039
82,495	-5,037	324,441	160,018
83,509	-5,189	324,295	159,762
84,524	-5,070	323,818	159,646
85,539	-5,134	323,763	159,533
86,553	-5,087	323,485	159,434
87,568	-5,109	323,195	159,253
88,582	-5,087	323,037	159,185
89,597	-5,094	322,769	159,031
90,611	-5,148	322,521	158,834
91,626	-5,136	322,271	158,711
92,641	-5,223	321,985	158,460
93,655	-5,226	322,017	158,457
94,670	-5,264	321,612	158,203
95,684	-5,342	321,438	158,017
96,699	-5,095	320,973	158,046
97,714	-5,143	320,940	157,963
98,728	-5,167	320,718	157,813
99,743	-5,169	320,351	157,617
100,757	-5,073	320,103	157,585
101,772	-5,154	319,901	157,383
102,787	-5,150	319,691	157,270
103,801	-5,065	319,370	157,190
104,816	-5,214	319,360	157,009
105,830	-5,164	318,895	156,821
106,845	-5,174	318,837	156,768
107,860	-5,089	318,478	156,669
108,874	-5,235	318,182	156,352
109,889	-5,063	317,959	156,415
110,903	-5,045	317,888	156,385
111,918	-4,919	317,530	156,332
112,933	-5,055	317,336	156,075
113,947	-4,986	317,181	156,060
114,962	-5,175	317,023	155,764
115,976	-5,146	316,741	155,643
116,991	-5,070	316,432	155,559
118,006	-5,268	316,305	155,269
119,020	-5,169	316,061	155,242
120,035	-5,138	315,917	155,191
121,049	-5,089	315,662	155,104
122,064	-5,086	315,450	154,990
123,079	-5,077	315,105	154,816
124,093	-5,205	314,999	154,612
125,108	-5,133	314,671	154,515
126,122	-5,180	314,604	154,419
127,137	-5,065	314,269	154,363
128,151	-5,084	313,936	154,165
129,166	-4,928	313,780	154,242
130,181	-5,118	313,701	153,986
131,195	-4,949	313,244	153,929
132,210	-4,937	313,096	153,855
133,224	-5,032	312,822	153,605
134,239	-5,085	312,590	153,421
135,254	-5,119	312,458	153,306
136,268	-5,129	312,252	153,182
137,283	-4,921	311,911	153,221
138,297	-5,212	311,816	152,852
139,312	-5,111	311,403	152,742
140,327	-5,196	311,356	152,616
141,341	-4,953	310,866	152,620
142,356	-5,117	310,915	152,456
143,370	-5,053	310,580	152,346
144,385	-5,028	310,446	152,293
145,400	-4,993	310,329	152,260
146,414	-5,129	309,924	151,904
147,429	-5,141	309,661	151,749
148,443	-5,155	309,593	151,687
149,458	-5,210	309,436	151,538
150,473	-5,068	309,031	151,476
151,487	-5,194	308,988	151,309
152,502	-5,128	308,690	151,219
153,516	-4,949	308,396	151,249
154,531	-4,984	308,263	151,134
155,546	-5,045	308,018	150,936
156,560	-5,128	307,888	150,773
157,575	-5,022	307,499	150,679
158,589	-4,992	307,333	150,616
159,604	-5,032	307,092	150,442
160,619	-5,001	306,846	150,341
161,633	-5,053	306,775	150,238
162,648	-4,868	306,404	150,235
163,662	-5,026	306,416	150,064
164,677	-5,033	306,191	149,933
165,692	-5,040	306,002	149,820
166,706	-5,110	305,788	149,629
167,721	-5,098	305,573	149,523
168,735	-5,215	305,475	149,340
169,750	-5,118	305,204	149,294
170,764	-5,116	305,008	149,187
171,779	-5,194	304,756	148,971
172,794	-4,979	304,529	149,069
173,808	-5,030	304,292	148,886
174,823	-5,110	304,125	148,709
175,837	-5,048	303,861	148,631
176,852	-5,135	303,734	148,466
177,867	-4,954	303,459	148,504
178,881	-5,074	303,390	148,334
179,896	-5,016	303,046	148,211
180,910	-5,090	302,913	148,058
181,925	-4,965	302,819	148,127
182,940	-5,104	302,390	147,761
183,954	-4,874	302,313	147,946
184,969	-5,006	302,163	147,724
185,983	-5,003	301,915	147,593
186,998	-4,989	301,696	147,487
188,013	-5,018	301,476	147,337
189,027	-5,020	301,184	147,179
190,042	-4,984	300,997	147,112
191,056	-5,052	300,828	146,946
192,071	-5,230	300,660	146,670
193,086	-5,043	300,372	146,706
194,100	-5,049	300,083	146,545
195,115	-4,992	299,950	146,526
196,129	-5,003	299,834	146,445
197,144	-5,098	299,498	146,172
198,159	-5,112	299,426	146,110
199,173	-5,048	299,121	146,012
200,188	-5,175	298,963	145,793
201,202	-5,079	298,800	145,797
202,217	-4,933	298,518	145,795
203,232	-5,024	298,338	145,602
204,246	-4,950	298,056	145,526
205,261	-4,993	297,774	145,332
206,275	-4,917	297,596	145,308
207,290	-4,905	297,534	145,278
208,304	-4,966	297,327	145,103
209,319	-5,189	297,092	144,751
210,334	-5,191	296,902	144,643
211,348	-4,798	296,609	144,882
212,363	-5,058	296,432	144,522
213,377	-5,112	296,324	144,402
214,392	-4,933	296,080	144,450
215,407	-5,017	295,863	144,246
216,421	-4,985	295,596	144,135
217,436	-4,970	295,360	144,023
218,450	-4,956	295,195	143,944
219,465	-4,905	295,072	143,921
220,480	-4,964	294,921	143,776
221,494	-4,942	294,713	143,684
222,509	-4,885	294,449	143,599
223,523	-5,088	294,370	143,345
224,538	-5,010	294,070	143,265
225,553	-4,989	293,976	143,227
226,567	-4,928	293,828	143,203
227,582	-4,902	293,510	143,060
228,596	-5,100	293,494	142,844
229,611	-5,031	293,224	142,768
230,626	-4,901	292,793	142,673
231,640	-5,021	292,785	142,538
232,655	-4,879	292,753	142,651
233,669	-5,092	292,434	142,272
234,684	-4,863	292,125	142,335
235,699	-4,937	291,968	142,172
236,713	-4,891	291,823	142,135
237,728	-5,031	291,660	141,905
238,742	-4,766	291,336	141,995
239,757	-5,064	291,188	141,617
240,772	-5,006	291,004	141,573
241,786	-5,068	290,828	141,413
242,801	-4,996	290,675	141,396
243,815	-4,940	290,472	141,340
244,830	-5,048	290,325	141,150
245,844	-5,033	290,037	141,012
246,859	-4,865	289,764	141,032
247,874	-5,015	289,693	140,837
248,888	-5,058	289,619	140,747
249,903	-5,179	289,409	140,515
250,917	-5,080	289,194	140,494
251,932	-4,983	288,793	140,381
252,947	-5,280	288,716	140,042
253,961	-5,478	288,338	139,653
254,976	-5,418	288,134	139,600
255,990	-5,534	288,101	139,459
257,005	-3,919	288,495	141,209
258,020	-1,444	289,331	144,017
259,034	-0,360	289,744	145,266
260,049	0,354	289,671	145,912
261,063	0,589	289,638	146,111
262,078	1,249	289,586	146,715
263,093	1,425	289,551	146,854
264,107	1,614	289,510	147,005
265,122	1,877	289,228	147,103
266,136	1,821	289,241	147,043
267,151	1,808	289,068	146,929
268,166	1,829	288,821	146,811
269,180	1,836	288,522	146,652
270,195	1,842	288,440	146,603
271,209	1,831	288,289	146,503
272,224	1,946	288,011	146,460
273,239	1,921	287,789	146,310
274,253	1,775	287,615	146,068
275,268	1,886	287,389	146,047
276,282	1,574	287,223	145,648
277,297	1,928	286,919	145,822
278,312	1,700	286,920	145,590
279,326	1,771	286,543	145,454
280,341	1,744	286,455	145,371
281,355	1,802	286,226	145,298
282,370	1,850	286,149	145,292
283,384	1,943	285,846	145,213
284,399	1,685	285,726	144,893
285,414	1,699	285,701	144,880
286,428	1,763	285,330	144,740
287,443	1,698	285,157	144,577
288,457	1,674	284,929	144,426
289,472	1,607	284,890	144,329
290,487	1,584	284,575	144,136
291,501	1,598	284,345	144,019
292,516	1,563	284,177	143,889
293,530	1,697	283,995	143,910
294,545	1,507	283,920	143,679
295,560	1,670	283,665	143,692
296,574	1,568	283,404	143,450
297,589	1,488	283,250	143,284
298,603	1,441	283,118	143,160
299,618	1,440	282,938	143,055
300,633	1,425	282,800	142,958
301,647	1,642	282,773	143,137
302,662	1,636	282,405	142,932
303,676	1,845	282,167	142,996
304,691	1,855	282,004	142,911
305,706	1,910	281,861	142,877
306,720	1,869	281,758	142,774
307,735	1,767	281,482	142,525
308,749	1,808	281,349	142,484
309,764	1,987	281,120	142,523
310,779	1,767	280,869	142,176
311,793	1,578	280,779	141,940
312,808	1,846	280,560	142,068
313,822	1,708	280,218	141,754
314,837	1,793	280,151	141,787
315,852	1,879	280,077	141,817
316,866	1,830	279,880	141,659
317,881	1,854	279,687	141,571
318,895	1,762	279,433	141,344
319,910	1,813	279,139	141,230
320,925	1,697	278,982	141,030
321,939	1,762	279,023	141,098
322,954	1,753	278,826	140,979
323,968	1,630	278,762	140,819
324,983	1,952	278,473	140,960
325,997	1,873	278,228	140,749
327,012	1,816	278,107	140,624
328,027	1,917	277,870	140,584
329,041	1,795	277,710	140,378
330,056	1,836	277,676	140,386
331,070	2,051	277,335	140,400
332,085	1,862	277,209	140,149
333,100	1,906	276,982	140,062
334,114	1,902	276,839	139,974
335,129	1,766	276,652	139,742
336,143	1,991	276,266	139,741
337,158	1,921	276,217	139,639
338,173	2,017	276,072	139,641
339,187	1,739	275,960	139,317
340,202	1,914	275,820	139,395
341,216	1,787	275,619	139,164
342,231	1,890	275,353	139,112
343,246	1,865	275,214	139,007
344,260	1,945	275,165	139,043
345,275	1,933	274,866	138,869
346,289	1,927	274,713	138,773
347,304	2,015	274,654	138,811
348,319	2,084	274,253	138,659
349,333	1,850	274,281	138,447
350,348	1,936	274,049	138,396
351,362	1,932	274,001	138,356
352,377	2,111	273,681	138,345
353,392	1,953	273,471	138,083
354,406	2,009	273,259	138,014
355,421	192,523	1346,726	1428,666
356,435	155,509	1477,568	1428,765
