DTS Sentinel unit serial number:	SN410029Multiplexer serial number:	ORYXHardware model number:	OX2-SRSoftware version number:	ORYX F/W v4,00 Oryx Data Collector v3.7.2.0data status	okinstallation	B4 Nyhavnadifferential loss correction	single-endedforward channel	channel 2reverse channel	N/Adate	2023/12/16time	04:05:14forward acquisition time	300,00reverse acquisition time	0,00gamma	499,1914k internal	0,3128k external	0,3128temperature offset calibration	1,0000default loss term (dB/km)	0,3820temperature slope calibration	1,0000multiplexer offset coefficient	1,0000multiplexer slope coefficient	1,0000fibre end	0,00T internal ref (°C)	22,00T ext. ref 1 (°C)	7,07T ext. ref 2 (°C)	7,25length (m)	temperature (°C)	Stokes	anti-Stokes-744,400	-182,887	-0,068	0,001
-743,385	-132,734	-0,144	0,014
-742,371	800,000	0,059	-0,144
-741,356	-172,077	-0,258	0,006
-740,342	-47,725	0,100	-0,036
-739,327	-78,667	-0,178	0,045
-738,312	-115,764	0,143	0,020
-737,298	-65,819	-0,210	0,062
-736,283	471,588	0,046	0,078
-735,269	-49,942	-0,171	0,060
-734,254	34,843	0,094	0,061
-733,239	-138,837	-0,411	-0,033
-732,225	-50,951	0,099	-0,034
-731,210	149,684	0,129	0,130
-730,196	-61,354	-0,128	-0,040
-729,181	-95,440	0,067	0,013
-728,167	-17,051	-0,095	-0,044
-727,152	-88,891	-0,149	-0,033
-726,137	131,654	0,108	-0,103
-725,123	80,664	-0,042	0,034
-724,108	94,072	-0,112	-0,094
-723,094	504,238	-0,052	-0,090
-722,079	209,236	-0,048	-0,056
-721,064	-117,485	-0,172	0,023
-720,050	26,833	-0,077	0,048
-719,035	272,348	0,059	0,078
-718,021	-0,916	-0,060	-0,031
-717,006	-192,443	-0,123	-0,001
-715,991	-200,000	0,000	0,029
-714,977	-200,000	0,004	-0,110
-713,962	-200,000	-0,009	-0,110
-712,948	800,000	-0,064	0,141
-711,933	21,468	-0,087	-0,053
-710,918	-200,000	-0,002	-0,055
-709,904	7,392	0,148	-0,082
-708,889	-97,479	-0,082	-0,016
-707,875	189,892	-0,068	0,076
-706,860	309,999	0,054	-0,076
-705,845	142,752	-0,073	0,072
-704,831	800,000	-0,030	0,091
-703,816	-43,338	-0,069	0,026
-702,802	78,812	-0,050	-0,040
-701,787	41,689	-0,099	-0,066
-700,772	-89,039	-0,082	-0,018
-699,758	-5,234	-0,049	-0,025
-698,743	25,327	0,140	0,086
-697,729	-186,988	0,056	0,001
-696,714	-27,987	-0,087	0,037
-695,699	-200,000	-0,003	-0,078
-694,685	-19,111	0,097	0,045
-693,670	800,000	0,011	-0,033
-692,656	-200,000	-0,019	0,095
-691,641	165,725	-0,030	-0,032
-690,627	473,306	-0,027	0,046
-689,612	-24,441	0,022	-0,010
-688,597	353,468	0,030	0,045
-687,583	-50,588	-0,132	-0,046
-686,568	-153,578	-0,177	-0,009
-685,554	681,551	0,030	-0,058
-684,539	38,223	-0,011	-0,007
-683,524	800,000	0,008	0,021
-682,510	800,000	0,050	-0,129
-681,495	-80,416	0,097	-0,024
-680,481	800,000	-0,036	-0,090
-679,466	-200,000	-0,012	-0,043
-678,451	-78,465	-0,115	0,029
-677,437	-12,432	-0,018	-0,009
-676,422	1,508	-0,111	0,059
-675,408	263,520	-0,060	0,078
-674,393	419,398	-0,048	0,077
-673,378	-200,000	0,010	-0,136
-672,364	-107,423	-0,083	0,013
-671,349	309,820	-0,082	0,113
-670,335	-14,601	-0,115	-0,055
-669,320	-52,107	0,059	0,020
-668,305	-200,000	-0,026	0,137
-667,291	-109,504	-0,201	0,031
-666,276	459,938	-0,045	-0,075
-665,262	505,114	0,020	0,034
-664,247	71,113	-0,086	-0,066
-663,232	-200,000	0,040	-0,140
-662,218	-106,781	0,023	-0,004
-661,203	28,211	0,040	0,025
-660,189	-134,603	-0,098	0,009
-659,174	800,000	0,061	-0,194
-658,159	-200,000	-0,007	-0,087
-657,145	16,959	0,100	-0,058
-656,130	-154,912	0,082	-0,004
-655,116	-52,365	-0,024	0,008
-654,101	-49,103	-0,083	0,029
-653,086	-200,000	-0,049	-0,168
-652,072	-24,522	0,050	0,022
-651,057	-12,916	-0,146	0,070
-650,043	-200,000	-0,018	-0,155
-649,028	42,531	-0,069	0,047
-648,014	270,126	-0,053	0,069
-646,999	372,898	0,052	0,078
-645,984	310,728	-0,060	0,084
-644,970	175,938	0,059	0,064
-643,955	55,174	-0,083	-0,059
-642,941	158,387	0,048	-0,049
-641,926	76,340	-0,136	-0,107
-640,911	-40,005	-0,128	-0,049
-639,897	-95,487	-0,101	-0,020
-638,882	140,524	-0,060	-0,058
-637,868	-76,955	0,106	0,027
-636,853	51,052	0,016	-0,011
-635,838	800,000	-0,041	-0,095
-634,824	-126,378	-0,072	0,008
-633,809	578,294	-0,036	0,066
-632,795	285,544	-0,059	-0,079
-631,780	132,286	0,103	0,098
-630,765	55,067	-0,054	0,038
-629,751	14,883	0,042	-0,024
-628,736	-142,012	-0,144	0,010
-627,722	70,420	0,070	-0,054
-626,707	57,495	0,054	0,039
-625,692	-200,000	0,012	-0,113
-624,678	-200,000	-0,013	-0,061
-623,663	-200,000	0,006	0,131
-622,649	51,863	-0,087	-0,062
-621,634	-200,000	0,013	-0,126
-620,619	800,000	0,053	0,125
-619,605	-26,846	0,029	0,013
-618,590	-200,000	-0,001	0,006
-617,576	279,137	0,030	-0,040
-616,561	-88,256	-0,150	0,033
-615,546	49,154	0,086	-0,060
-614,532	-200,000	0,030	0,155
-613,517	214,463	0,056	0,066
-612,503	-117,537	-0,014	0,002
-611,488	-200,000	0,013	0,055
-610,474	800,000	0,037	-0,087
-609,459	416,039	0,051	0,080
-608,444	-200,000	0,012	0,129
-607,430	483,881	-0,022	0,037
-606,415	-200,000	0,033	-0,144
-605,401	-181,433	-0,044	-0,001
-604,386	-73,557	-0,057	-0,015
-603,371	-200,000	0,043	0,162
-602,357	4,099	0,139	0,075
-601,342	-119,841	-0,061	0,008
-600,328	800,000	-0,023	0,064
-599,313	-131,809	-0,074	0,007
-598,298	800,000	0,042	-0,095
-597,284	-200,000	0,005	0,071
-596,269	-200,000	0,004	0,057
-595,255	-200,000	0,029	-0,095
-594,240	85,189	-0,126	-0,102
-593,225	610,023	0,029	0,054
-592,211	35,624	-0,144	-0,094
-591,196	90,551	0,103	0,086
-590,182	109,796	0,046	-0,041
-589,167	-170,300	-0,145	0,004
-588,152	101,475	-0,074	0,064
-587,138	-200,000	-0,000	0,011
-586,123	291,811	-0,032	0,043
-585,109	-200,000	0,036	0,135
-584,094	137,845	0,076	0,074
-583,079	-200,000	-0,013	-0,066
-582,065	139,735	0,102	-0,100
-581,050	800,000	-0,027	0,070
-580,036	-88,835	-0,072	-0,016
-579,021	-97,726	-0,041	0,008
-578,006	606,791	0,035	0,065
-576,992	345,676	-0,088	0,128
-575,977	-29,040	0,134	0,057
-574,963	-200,000	0,027	0,212
-573,948	-93,751	0,026	0,005
-572,934	-26,400	-0,057	-0,024
-571,919	-26,411	0,122	0,053
-570,904	-142,486	-0,136	0,010
-569,890	-56,487	0,148	-0,048
-568,875	17,096	0,063	-0,037
-567,861	-95,693	-0,075	0,015
-566,846	76,109	0,121	-0,094
-565,831	-135,564	0,117	-0,010
-564,817	327,440	-0,024	-0,034
-563,802	-111,463	-0,154	-0,023
-562,788	-200,000	0,030	-0,142
-561,773	22,552	0,040	0,024
-560,758	4,439	0,161	0,087
-559,744	-200,000	0,002	-0,080
-558,729	-149,850	0,170	-0,010
-557,715	109,293	0,016	-0,014
-556,700	-30,902	-0,173	0,072
-555,685	-131,915	0,013	-0,001
-554,671	529,285	-0,047	-0,082
-553,656	113,355	0,063	0,057
-552,642	-200,000	0,027	0,090
-551,627	-200,000	0,029	0,123
-550,612	-39,372	-0,131	-0,050
-549,598	739,437	-0,010	-0,021
-548,583	-200,000	0,005	0,106
-547,569	800,000	0,026	0,059
-546,554	130,869	-0,013	-0,013
-545,539	143,759	-0,060	-0,059
-544,525	-176,205	0,104	0,002
-543,510	-122,910	0,054	0,006
-542,496	800,000	0,049	-0,123
-541,481	-126,723	0,006	0,001
-540,466	-98,434	-0,147	0,027
-539,452	800,000	-0,048	0,113
-538,437	253,088	0,044	-0,055
-537,423	-200,000	-0,002	0,065
-536,408	86,526	-0,094	-0,076
-535,393	-69,649	-0,164	-0,046
-534,379	-8,099	-0,044	0,022
-533,364	800,000	0,012	-0,038
-532,350	453,212	0,061	-0,100
-531,335	507,583	0,017	0,029
-530,321	800,000	0,038	-0,080
-529,306	-46,475	0,016	0,006
-528,291	800,000	-0,037	-0,082
-527,277	7,478	-0,052	0,029
-526,262	-90,318	0,119	0,025
-525,248	205,902	-0,005	-0,006
-524,233	-200,000	-0,015	0,081
-523,218	-200,000	-0,003	0,012
-522,204	-200,000	0,008	0,091
-521,189	-42,552	-0,095	-0,035
-520,175	16,342	-0,062	-0,036
-519,160	177,679	0,078	-0,084
-518,145	167,126	0,106	0,111
-517,131	800,000	0,022	0,047
-516,116	153,379	0,086	0,087
-515,102	176,685	0,133	-0,143
-514,087	122,186	-0,226	-0,208
-513,072	-200,000	0,005	-0,018
-512,058	-75,063	-0,100	-0,026
-511,043	-3,272	-0,076	-0,039
-510,029	-200,000	-0,012	-0,092
-509,014	-200,000	0,009	-0,080
-507,999	-62,100	0,078	0,024
-506,985	-49,148	-0,048	-0,017
-505,970	-143,347	0,090	0,006
-504,956	800,000	0,027	-0,073
-503,941	208,918	-0,078	0,091
-502,926	6,283	0,057	0,031
-501,912	-200,000	-0,011	0,106
-500,897	-73,350	-0,108	0,029
-499,883	-200,000	-0,004	-0,128
-498,868	-105,417	-0,146	-0,024
-497,853	665,816	-0,025	-0,049
-496,839	800,000	0,041	-0,096
-495,824	544,274	-0,027	0,048
-494,810	800,000	0,027	-0,068
-493,795	-122,055	0,182	-0,022
-492,781	-200,000	-0,011	-0,065
-491,766	-200,000	0,006	-0,116
-490,751	-18,466	-0,151	-0,069
-489,737	800,000	0,043	0,127
-488,722	73,519	0,023	0,018
-487,708	-200,000	0,006	-0,024
-486,693	-200,000	0,015	0,081
-485,678	143,666	-0,033	-0,032
-484,664	800,000	-0,053	-0,107
-483,649	-200,000	-0,011	-0,108
-482,635	-200,000	-0,001	-0,090
-481,620	74,491	0,044	0,034
-480,605	-105,513	-0,027	-0,004
-479,591	197,142	0,108	-0,121
-478,576	-200,000	0,010	0,083
-477,562	-200,000	-0,011	-0,089
-476,547	-200,000	0,020	-0,067
-475,532	35,934	-0,105	0,068
-474,518	-200,000	0,039	0,219
-473,503	-200,000	-0,009	0,043
-472,489	-140,079	0,027	0,002
-471,474	334,105	0,064	0,091
-470,459	-53,043	0,187	0,063
-469,445	800,000	-0,033	-0,076
-468,430	21,655	-0,061	-0,037
-467,416	-18,007	0,095	-0,044
-466,401	-85,669	0,180	-0,041
-465,386	-90,319	-0,069	0,015
-464,372	-61,402	-0,041	-0,013
-463,357	-66,968	0,135	0,039
-462,343	-200,000	0,020	0,084
-461,328	-102,073	0,037	-0,006
-460,313	-200,000	0,009	0,063
-459,299	30,308	0,161	0,101
-458,284	27,830	-0,068	-0,042
-457,270	800,000	-0,006	-0,016
-456,255	-11,706	-0,101	-0,049
-455,241	11,091	-0,089	-0,050
-454,226	90,324	0,071	0,058
-453,211	55,366	0,043	0,031
-452,197	-200,000	0,012	0,059
-451,182	720,236	-0,044	0,086
-450,168	273,977	-0,042	0,055
-449,153	-94,147	-0,061	-0,012
-448,138	116,037	-0,064	0,058
-447,124	-18,039	0,140	-0,064
-446,109	-200,000	-0,016	0,076
-445,095	56,969	0,077	-0,055
-444,080	185,986	0,080	0,088
-443,065	-111,174	-0,098	-0,015
-442,051	800,000	-0,022	0,066
-441,036	86,209	-0,076	0,062
-440,022	-106,353	-0,107	-0,017
-439,007	-2,640	-0,098	0,050
-437,992	297,683	0,071	-0,096
-436,978	800,000	-0,030	0,070
-435,963	-104,957	0,066	-0,011
-434,949	800,000	0,021	-0,049
-433,934	-140,174	0,179	0,014
-432,919	-35,205	-0,063	0,025
-431,905	-147,370	-0,075	-0,005
-430,890	149,167	0,052	-0,052
-429,876	-200,000	0,020	0,074
-428,861	800,000	-0,052	-0,115
-427,846	-74,313	0,089	0,024
-426,832	-173,337	0,078	-0,002
-425,817	-27,725	0,022	0,009
-424,803	-200,000	-0,008	-0,080
-423,788	696,770	0,024	0,046
-422,773	97,668	0,136	0,115
-421,759	-87,546	-0,075	0,017
-420,744	-43,057	-0,113	0,042
-419,730	-161,625	-0,042	0,002
-418,715	357,958	0,054	0,080
-417,701	-200,000	-0,015	-0,075
-416,686	-18,191	-0,062	0,029
-415,671	173,322	-0,068	0,072
-414,657	-106,505	-0,119	0,019
-413,642	-200,000	-0,018	-0,059
-412,628	391,252	-0,057	0,088
-411,613	-86,800	0,067	0,015
-410,598	150,031	0,044	-0,044
-409,584	800,000	-0,005	0,015
-408,569	-200,000	0,025	0,172
-407,555	225,909	0,020	-0,023
-406,540	67,537	-0,042	0,031
-405,525	-17,578	-0,090	-0,041
-404,511	-1,311	0,053	0,028
-403,496	-27,421	0,036	0,015
-402,482	715,468	0,034	0,066
-401,467	-37,033	0,067	0,026
-400,452	119,364	0,112	0,102
-399,438	-19,696	0,064	0,029
-398,423	800,000	-0,005	-0,015
-397,409	-129,580	-0,089	-0,009
-396,394	-60,476	-0,054	0,017
-395,379	467,615	-0,051	-0,084
-394,365	65,281	-0,058	0,043
-393,350	284,721	0,098	0,129
-392,336	800,000	0,034	0,083
-391,321	77,211	0,142	-0,110
-390,306	97,398	0,025	-0,021
-389,292	-41,254	0,035	-0,013
-388,277	800,000	-0,031	-0,091
-387,263	163,664	0,050	0,052
-386,248	800,000	0,019	0,051
-385,233	208,623	0,057	0,066
-384,219	-200,000	-0,015	-0,053
-383,204	-99,811	0,100	0,018
-382,190	-200,000	-0,000	-0,082
-381,175	800,000	-0,037	-0,113
-380,160	-49,049	-0,176	0,061
-379,146	754,771	0,053	0,106
-378,131	-200,000	-0,035	0,135
-377,117	198,326	-0,013	-0,014
-376,102	584,790	0,039	-0,070
-375,088	-200,000	-0,019	-0,094
-374,073	-200,000	0,017	0,099
-373,058	217,288	-0,051	-0,060
-372,044	-3,062	0,072	-0,037
-371,029	72,627	0,057	0,044
-370,015	183,306	-0,050	-0,055
-369,000	718,578	-0,033	-0,064
-367,985	207,917	-0,098	-0,112
-366,971	-8,777	-0,091	0,045
-365,956	12,434	0,060	0,034
-364,942	-81,158	-0,109	0,026
-363,927	-29,945	0,097	0,040
-362,912	800,000	-0,011	-0,029
-361,898	-200,000	0,015	-0,066
-360,883	108,313	-0,004	0,004
-359,869	419,965	-0,022	0,035
-358,854	-44,876	0,024	0,009
-357,839	120,978	0,113	0,103
-356,825	-7,682	0,148	0,073
-355,810	176,230	0,022	0,023
-354,796	-200,000	0,020	-0,097
-353,781	12,026	-0,096	-0,054
-352,766	346,392	-0,004	0,006
-351,752	-166,567	0,143	-0,004
-350,737	800,000	-0,023	0,067
-349,723	134,328	-0,089	0,085
-348,708	-26,781	-0,088	0,038
-347,693	-69,266	-0,031	0,009
-346,679	-200,000	0,001	-0,190
-345,664	548,056	0,059	-0,104
-344,650	-200,000	0,003	-0,104
-343,635	170,489	0,083	0,087
-342,620	-38,943	-0,085	-0,033
-341,606	-200,000	-0,001	0,021
-340,591	-94,521	0,086	-0,017
-339,577	-62,151	-0,091	-0,028
-338,562	-105,174	-0,104	0,017
-337,548	-137,058	0,099	-0,008
-336,533	199,667	0,029	-0,033
-335,518	147,706	-0,083	-0,082
-334,504	800,000	-0,035	-0,078
-333,489	46,713	-0,063	0,042
-332,475	-121,983	-0,179	0,021
-331,460	-200,000	0,037	-0,136
-330,445	-94,816	-0,077	-0,015
-329,431	-43,015	0,097	0,036
-328,416	76,734	0,009	-0,007
-327,402	293,235	-0,022	-0,030
-326,387	-200,000	-0,015	-0,308
-325,372	-96,513	-0,109	-0,021
-324,358	-168,598	0,029	0,001
-323,343	-200,000	0,000	-0,081
-322,329	363,379	0,134	0,198
-321,314	-93,903	0,160	-0,032
-320,299	151,676	0,055	-0,055
-319,285	61,935	-0,024	0,018
-318,270	-200,000	0,003	-0,049
-317,256	-53,378	0,089	-0,030
-316,241	-41,302	0,096	-0,036
-315,226	800,000	0,061	-0,127
-314,212	184,120	0,055	0,060
-313,197	202,561	-0,069	0,078
-312,183	800,000	-0,034	0,096
-311,168	273,841	-0,056	-0,073
-310,153	-93,490	-0,113	0,023
-309,139	-200,000	-0,004	-0,037
-308,124	-9,231	-0,055	0,027
-307,110	2,257	0,175	0,092
-306,095	100,613	-0,045	0,038
-305,080	-124,046	-0,025	-0,003
-304,066	-33,871	0,070	-0,028
-303,051	-200,000	-0,006	-0,105
-302,037	800,000	-0,012	-0,031
-301,022	686,267	0,031	-0,059
-300,008	-131,810	0,112	0,011
-298,993	12,490	-0,157	-0,089
-297,978	87,624	-0,041	-0,033
-296,964	-78,650	0,105	0,026
-295,949	320,500	-0,063	0,087
-294,935	-51,584	-0,095	0,032
-293,920	-200,000	-0,005	0,059
-292,905	-83,559	0,120	0,028
-291,891	-30,995	0,133	-0,055
-290,876	-200,000	0,007	-0,115
-289,862	8,784	-0,057	-0,031
-288,847	-200,000	0,042	-0,156
-287,832	-79,727	-0,073	-0,018
-286,818	-200,000	-0,020	0,162
-285,803	-60,210	-0,090	0,028
-284,789	-200,000	-0,020	-0,103
-283,774	-170,236	-0,104	0,003
-282,759	173,820	-0,085	0,089
-281,745	45,354	0,043	-0,029
-280,730	-38,542	-0,166	0,064
-279,716	-37,185	-0,061	-0,024
-278,701	-89,108	-0,051	-0,011
-277,686	46,588	-0,052	0,035
-276,672	-200,000	0,017	-0,113
-275,657	90,229	0,059	-0,048
-274,643	597,251	0,011	-0,021
-273,628	176,310	0,073	-0,077
-272,613	-111,366	-0,026	-0,004
-271,599	-33,026	0,085	0,034
-270,584	438,286	0,049	0,078
-269,570	800,000	-0,035	0,084
-268,555	-200,000	-0,005	0,081
-267,540	-73,701	-0,092	0,024
-266,526	-10,114	-0,051	0,025
-265,511	76,225	-0,053	-0,041
-264,497	211,151	-0,040	0,046
-263,482	-148,910	-0,048	-0,003
-262,467	-200,000	0,017	0,129
-261,453	177,535	0,133	0,142
-260,438	-74,456	-0,044	-0,012
-259,424	-172,527	0,015	0,000
-258,409	-149,035	0,151	-0,009
-257,395	179,312	0,022	0,024
-256,380	125,907	0,032	0,029
-255,365	-43,395	0,204	0,075
-254,351	-3,969	0,145	-0,073
-253,336	-1,181	-0,084	0,043
-252,322	-106,774	0,109	-0,017
-251,307	91,994	0,026	0,022
-250,292	-200,000	0,040	-0,173
-249,278	182,861	-0,083	-0,090
-248,263	237,184	-0,061	0,074
-247,249	800,000	0,022	0,068
-246,234	-76,201	-0,125	-0,032
-245,219	243,546	0,034	-0,042
-244,205	35,929	0,031	0,020
-243,190	-115,029	0,043	0,006
-242,176	217,654	0,019	0,022
-241,161	44,797	0,067	-0,045
-240,146	800,000	0,024	-0,072
-239,132	42,862	0,131	-0,087
-238,117	-161,308	-0,037	-0,001
-237,103	-104,888	-0,041	0,007
-236,088	22,409	0,127	-0,076
-235,073	-200,000	-0,030	0,113
-234,059	324,890	-0,094	0,131
-233,044	800,000	0,030	0,076
-232,030	-200,000	-0,012	0,084
-231,015	-200,000	-0,002	-0,018
-230,000	800,000	0,023	-0,061
-228,986	-200,000	-0,018	-0,061
-227,971	800,000	-0,041	0,105
-226,957	-200,000	-0,007	-0,068
-225,942	333,355	-0,026	-0,036
-224,927	179,737	-0,068	0,073
-223,913	-38,803	0,081	0,031
-222,898	348,901	-0,044	0,064
-221,884	800,000	-0,043	0,089
-220,869	-79,915	0,043	0,010
-219,855	230,252	-0,055	0,065
-218,840	493,785	-0,049	-0,082
-217,825	506,765	-0,009	0,014
-216,811	251,139	-0,072	0,090
-215,796	-76,851	-0,023	-0,006
-214,782	107,456	-0,083	0,072
-213,767	-22,701	-0,045	-0,020
-212,752	-14,566	-0,060	0,028
-211,738	-200,000	0,001	0,039
-210,723	800,000	0,064	0,153
-209,709	-135,306	-0,054	-0,005
-208,694	-200,000	0,008	-0,176
-207,679	-56,362	-0,069	0,022
-206,665	140,542	0,062	0,060
-205,650	261,689	-0,053	-0,067
-204,636	800,000	0,021	0,046
-203,621	-52,215	-0,038	0,013
-202,606	605,739	0,056	0,103
-201,592	-128,886	-0,098	0,010
-200,577	-25,321	-0,131	-0,056
-199,563	82,707	0,061	0,048
-198,548	-200,000	-0,003	-0,083
-197,533	257,741	0,102	-0,128
-196,519	621,690	0,035	-0,065
-195,504	-183,087	0,075	-0,001
-194,490	-200,000	-0,009	0,068
-193,475	46,043	0,056	0,037
-192,460	299,545	0,106	0,142
-191,446	58,005	0,033	0,024
-190,431	-57,742	0,015	0,005
-189,417	-200,000	-0,006	0,096
-188,402	-162,920	0,029	0,001
-187,387	88,716	-0,136	-0,110
-186,373	800,000	-0,034	-0,092
-185,358	-16,122	-0,110	-0,051
-184,344	-166,247	0,069	0,002
-183,329	629,657	-0,013	-0,025
-182,315	67,679	0,009	0,007
-181,300	108,374	0,068	-0,059
-180,285	-200,000	-0,007	-0,059
-179,271	-200,000	0,003	0,024
-178,256	34,964	0,047	0,030
-177,242	158,563	-0,021	0,021
-176,227	271,175	0,042	0,054
-175,212	-80,201	0,022	0,005
-174,198	-200,000	-0,009	-0,100
-173,183	58,750	-0,102	-0,073
-172,169	469,404	-0,051	-0,084
-171,154	-200,000	0,007	0,024
-170,139	-89,476	0,080	-0,017
-169,125	74,188	-0,073	-0,056
-168,110	-179,030	0,056	0,001
-167,096	-148,372	-0,024	0,001
-166,081	175,499	0,068	-0,071
-165,066	-200,000	-0,033	-0,112
-164,052	-200,000	-0,030	-0,112
-163,037	-200,000	0,015	0,075
-162,023	-165,766	-0,147	-0,005
-161,008	-100,922	0,176	-0,031
-159,993	111,187	0,026	0,023
-158,979	-71,458	0,069	-0,019
-157,964	-166,375	-0,125	-0,004
-156,950	-200,000	-0,038	-0,148
-155,935	800,000	0,008	-0,023
-154,920	342,560	-0,064	-0,091
-153,906	493,138	-0,019	-0,033
-152,891	800,000	-0,026	-0,055
-151,877	-200,000	0,020	0,072
-150,862	-141,754	0,099	-0,007
-149,847	-33,036	-0,146	-0,058
-148,833	-200,000	0,003	0,017
-147,818	140,519	-0,027	0,026
-146,804	-41,083	0,057	-0,021
-145,789	20,637	0,085	-0,050
-144,775	-98,213	-0,093	-0,017
-143,760	190,671	-0,052	0,056
-142,745	513,113	0,044	0,075
-141,731	-200,000	0,016	-0,058
-140,716	519,810	0,028	0,049
-139,702	-200,000	-0,003	0,147
-138,687	800,000	-0,034	0,087
-137,672	-31,975	-0,037	0,015
-136,658	-200,000	0,034	0,177
-135,643	800,000	-0,056	-0,122
-134,629	119,547	-0,127	-0,114
-133,614	800,000	0,040	-0,099
-132,599	-14,657	0,057	-0,026
-131,585	800,000	0,021	0,064
-130,570	800,000	-0,023	0,073
-129,556	688,776	0,041	0,078
-128,541	148,866	0,048	0,047
-127,526	-200,000	0,005	-0,052
-126,512	-127,614	0,025	0,003
-125,497	437,952	0,010	-0,017
-124,483	-200,000	0,022	0,109
-123,468	81,657	-0,094	0,074
-122,453	38,862	-0,067	0,043
-121,439	-74,880	-0,115	-0,030
-120,424	-48,176	-0,166	-0,058
-119,410	-200,000	-0,011	0,112
-118,395	-200,000	0,011	0,144
-117,380	11,929	-0,029	-0,016
-116,366	55,317	-0,096	0,067
-115,351	-57,573	0,120	0,038
-114,337	-111,311	-0,015	-0,002
-113,322	800,000	-0,018	-0,039
-112,307	800,000	0,048	0,137
-111,293	-0,533	-0,048	0,025
-110,278	-90,755	-0,058	-0,012
-109,264	-200,000	-0,016	0,094
-108,249	-168,306	0,089	-0,002
-107,234	-33,995	0,093	-0,037
-106,220	151,451	-0,088	0,087
-105,205	-200,000	-0,001	-0,010
-104,191	22,229	-0,040	-0,024
-103,176	-200,000	0,014	0,052
-102,162	-74,993	0,121	0,031
-101,147	-200,000	0,004	0,018
-100,132	117,402	-0,037	-0,033
-99,118	-74,438	-0,027	-0,007
-98,103	-43,165	0,096	0,035
-97,089	-200,000	0,026	0,113
-96,074	-37,867	-0,183	0,070
-95,059	-54,180	-0,104	-0,034
-94,045	150,286	-0,036	0,035
-93,030	33,934	-0,069	-0,043
-92,016	361,694	-0,049	0,071
-91,001	-23,287	-0,114	-0,050
-89,986	800,000	0,026	0,069
-88,972	-15,398	0,046	0,021
-87,957	-108,797	0,072	0,011
-86,943	19,102	0,030	-0,017
-85,928	-200,000	0,002	-0,068
-84,913	-181,951	0,098	0,001
-83,899	800,000	-0,049	0,156
-82,884	-42,158	-0,073	0,027
-81,870	111,038	0,077	0,067
-80,855	-200,000	0,010	0,050
-79,840	-39,192	-0,076	-0,029
-78,826	103,841	0,058	-0,049
-77,811	53,991	-0,069	0,048
-76,797	58,864	-0,069	0,049
-75,782	8,610	0,139	0,076
-74,767	-105,580	0,088	-0,014
-73,753	97,461	-0,067	-0,056
-72,738	-173,486	0,059	-0,001
-71,724	-200,000	0,018	-0,080
-70,709	2,707	-0,061	0,032
-69,694	800,000	0,036	-0,084
-68,680	153,153	0,092	0,092
-67,665	-128,691	0,074	-0,008
-66,651	107,078	0,064	0,055
-65,636	446,782	0,044	0,070
-64,622	-103,104	-0,013	-0,002
-63,607	-82,201	-0,067	0,016
-62,592	-200,000	-0,005	-0,123
-61,578	59,230	0,123	0,088
-60,563	-76,752	-0,040	-0,010
-59,549	-200,000	0,026	0,087
-58,534	-108,154	-1,313	-0,204
-57,519	681,912	-0,763	-1,447
-56,505	-200,000	-0,794	-4,412
-55,490	-6,381	0,580	-0,286
-54,476	800,000	4,872	11,501
-53,461	-200,000	13,994	252,293
-52,446	-200,000	693,418	2242,759
-51,432	582,822	1622,626	2896,552
-50,417	117,912	1631,378	1455,783
-49,403	73,928	1285,746	975,946
-48,388	37,785	1022,470	656,595
-47,373	24,044	980,613	584,641
-46,359	23,297	970,059	575,884
-45,344	22,236	965,815	569,884
-44,330	22,125	964,539	568,747
-43,315	22,093	963,036	567,735
-42,300	22,072	961,861	566,950
-41,286	22,020	961,111	566,315
-40,271	22,030	959,968	565,653
-39,257	22,005	959,076	565,023
-38,242	22,043	958,067	564,532
-37,227	22,026	957,231	563,961
-36,213	21,988	956,385	563,317
-35,198	21,921	955,561	562,592
-34,184	22,004	954,866	562,431
-33,169	21,999	953,925	561,837
-32,154	22,085	953,115	561,615
-31,140	22,085	952,004	560,937
-30,125	22,162	951,154	560,660
-29,111	21,995	950,570	559,758
-28,096	22,026	949,960	559,478
-27,082	22,082	949,071	559,110
-26,067	22,055	948,378	558,595
-25,052	22,004	947,682	558,000
-24,038	22,030	947,173	557,761
-23,023	21,988	946,516	557,217
-22,009	22,065	945,903	557,078
-20,994	22,086	945,216	556,721
-19,979	22,058	944,489	556,179
-18,965	22,051	943,966	555,828
-17,950	22,004	943,355	555,296
-16,936	21,999	942,590	554,809
-15,921	21,935	942,163	554,332
-14,906	21,985	941,107	553,848
-13,892	21,891	940,609	553,232
-12,877	21,921	939,857	552,864
-11,863	21,864	939,333	552,354
-10,848	21,891	938,768	552,085
-9,833	21,995	938,399	552,176
-8,819	22,011	937,595	551,732
-7,804	21,961	936,925	551,156
-6,790	21,925	936,458	550,746
-5,775	21,919	936,037	550,459
-4,760	21,917	935,176	549,922
-3,746	21,923	934,700	549,641
-2,731	21,803	933,792	548,707
-1,717	21,737	933,227	548,147
-0,702	21,738	932,554	547,731
0,313	21,559	931,942	547,636
1,327	24,174	929,435	554,311
2,342	31,971	807,444	502,623
3,356	27,084	507,909	307,829
4,371	2,898	372,731	195,261
5,386	-0,083	355,424	182,538
6,400	-1,729	349,297	177,398
7,415	-2,548	346,301	174,884
8,429	-2,726	344,866	173,933
9,444	-2,809	343,858	173,311
10,459	-2,535	343,159	173,267
11,473	-2,682	342,712	172,853
12,488	-2,331	342,299	173,041
13,502	-2,375	341,754	172,699
14,517	-2,601	341,408	172,244
15,531	-2,689	340,450	171,642
16,546	-2,627	340,070	171,507
17,561	-2,719	339,655	171,176
18,575	-2,616	339,175	171,038
19,590	-2,784	338,894	170,685
20,604	-2,630	338,809	170,807
21,619	-2,618	338,173	170,486
22,634	-2,708	337,881	170,218
23,648	-2,760	337,475	169,938
24,663	-2,695	337,199	169,860
25,677	-2,623	336,891	169,772
26,692	-2,623	336,569	169,595
27,707	-2,630	336,297	169,434
28,721	-2,729	336,079	169,195
29,736	-2,740	335,479	168,866
30,750	-2,682	335,341	168,848
31,765	-2,654	334,964	168,675
32,780	-2,738	334,650	168,405
33,794	-2,699	334,428	168,323
34,809	-2,707	334,286	168,228
35,823	-2,735	333,829	167,950
36,838	-2,752	333,696	167,849
37,853	-2,884	333,356	167,513
38,867	-2,767	333,019	167,462
39,882	-2,757	332,790	167,343
40,896	-2,754	332,503	167,188
41,911	-2,772	332,221	167,011
42,926	-2,842	332,000	166,804
43,940	-2,882	331,595	166,541
44,955	-2,864	331,297	166,396
45,969	-2,866	331,163	166,312
46,984	-2,965	330,737	165,971
47,999	-3,176	330,573	165,635
49,013	-3,242	330,127	165,322
50,028	-3,239	329,834	165,164
51,042	-3,197	329,516	165,037
52,057	-3,362	329,415	164,786
53,071	-3,350	329,022	164,588
54,086	-3,355	328,920	164,516
55,101	-3,285	328,785	164,513
56,115	-3,027	328,523	164,658
57,130	-2,775	328,451	164,891
58,144	-2,543	328,090	164,955
59,159	-2,657	327,818	164,677
60,174	-2,613	327,631	164,617
61,188	-2,492	327,462	164,654
62,203	-2,753	327,207	164,218
63,217	-2,497	326,805	164,288
64,232	-2,565	326,476	164,032
65,247	-2,438	326,244	164,042
66,261	-2,610	326,191	163,809
67,276	-2,714	325,743	163,453
68,290	-2,967	325,433	163,001
69,305	-2,981	325,116	162,812
70,320	-2,837	324,835	162,818
71,334	-2,669	324,844	162,994
72,349	-2,517	324,507	162,979
73,363	-2,457	324,271	162,913
74,378	-2,426	323,835	162,714
75,393	-2,531	323,820	162,575
76,407	-2,636	323,637	162,353
77,422	-2,686	323,313	162,120
78,436	-2,559	323,084	162,132
79,451	-2,528	322,765	161,991
80,466	-2,713	322,386	161,583
81,480	-2,767	322,155	161,393
82,495	-2,925	321,950	161,102
83,509	-2,775	321,689	161,122
84,524	-2,800	321,338	160,904
85,539	-3,067	321,102	160,478
86,553	-3,066	321,004	160,417
87,568	-3,025	320,704	160,297
88,582	-2,815	320,381	160,351
89,597	-3,012	320,316	160,089
90,611	-2,948	320,194	160,083
91,626	-2,706	319,828	160,151
92,641	-2,662	319,585	160,063
93,655	-2,801	319,519	159,864
94,670	-2,864	319,166	159,604
95,684	-2,679	318,825	159,620
96,699	-2,953	318,887	159,339
97,714	-2,850	318,479	159,234
98,728	-2,964	318,043	158,878
99,743	-3,048	317,989	158,744
100,757	-2,910	317,566	158,669
101,772	-2,741	317,433	158,772
102,787	-2,969	317,308	158,448
103,801	-2,861	317,025	158,410
104,816	-2,656	316,791	158,501
105,830	-2,773	316,768	158,348
106,845	-2,631	316,393	158,300
107,860	-2,498	316,064	158,265
108,874	-2,726	315,893	157,919
109,889	-2,783	315,639	157,716
110,903	-2,796	315,326	157,532
111,918	-2,716	315,230	157,557
112,933	-2,844	314,980	157,280
113,947	-2,804	314,881	157,259
114,962	-2,721	314,475	157,132
115,976	-2,794	314,323	156,963
116,991	-2,752	314,132	156,899
118,006	-2,779	313,889	156,734
119,020	-2,583	313,691	156,831
120,035	-2,477	313,591	156,881
121,049	-2,631	313,405	156,609
122,064	-2,649	313,156	156,451
123,079	-2,812	312,898	156,135
124,093	-2,782	312,602	156,005
125,108	-2,964	312,405	155,699
126,122	-3,067	312,249	155,498
127,137	-3,059	311,839	155,288
128,151	-3,121	311,877	155,227
129,166	-2,901	311,441	155,230
130,181	-3,070	311,273	154,954
131,195	-2,908	310,870	154,911
132,210	-2,765	310,817	155,022
133,224	-2,789	310,585	154,867
134,239	-2,713	310,303	154,793
135,254	-2,779	310,276	154,696
136,268	-2,814	309,996	154,505
137,283	-2,892	309,640	154,232
138,297	-3,101	309,361	153,859
139,312	-3,101	309,236	153,783
140,327	-2,884	309,025	153,893
141,341	-2,391	308,823	154,297
142,356	-2,479	308,792	154,175
143,370	-2,462	308,525	154,046
144,385	-2,446	308,338	153,955
145,400	-2,517	308,101	153,748
146,414	-2,370	307,889	153,783
147,429	-2,422	307,689	153,615
148,443	-2,283	307,438	153,622
149,458	-2,357	307,313	153,467
150,473	-2,522	306,904	153,078
151,487	-2,573	306,843	152,981
152,502	-2,362	306,605	153,068
153,516	-2,407	306,308	152,860
154,531	-2,402	306,214	152,804
155,546	-2,480	306,019	152,612
156,560	-2,550	305,759	152,397
157,575	-2,625	305,424	152,137
158,589	-2,440	305,278	152,243
159,604	-2,523	305,142	152,076
160,619	-2,405	304,899	152,063
161,633	-2,403	304,622	151,913
162,648	-2,323	304,489	151,916
163,662	-2,427	304,345	151,724
164,677	-2,509	304,095	151,501
165,692	-2,517	304,014	151,439
166,706	-2,316	303,782	151,517
167,721	-2,501	303,521	151,183
168,735	-2,461	303,277	151,089
169,750	-2,498	303,328	151,062
170,764	-2,304	303,161	151,165
171,779	-2,381	302,947	150,966
172,794	-2,283	302,696	150,928
173,808	-2,397	302,355	150,628
174,823	-3,029	302,001	149,790
175,837	-2,872	301,732	149,805
176,852	-2,656	301,692	149,992
177,867	-2,413	301,673	150,218
178,881	-2,451	301,401	150,030
179,896	-2,295	301,289	150,120
180,910	-2,273	300,941	149,957
181,925	-2,301	300,796	149,843
182,940	-2,072	300,548	149,939
183,954	-2,274	300,414	149,652
184,969	-2,360	300,087	149,388
185,983	-2,373	299,932	149,285
186,998	-2,452	299,890	149,170
188,013	-2,366	299,566	149,083
189,027	-2,314	299,256	148,969
190,042	-2,472	299,254	148,794
191,056	-2,339	299,062	148,821
192,071	-2,348	298,838	148,686
193,086	-2,190	298,623	148,726
194,100	-2,302	298,507	148,542
195,115	-2,316	298,081	148,302
196,129	-2,340	298,095	148,272
197,144	-2,294	297,837	148,177
198,159	-2,393	297,700	147,995
199,173	-2,214	297,128	147,878
200,188	-2,191	297,133	147,890
201,202	-2,411	296,860	147,521
202,217	-2,861	296,611	146,932
203,232	-2,964	296,246	146,634
204,246	-2,724	296,189	146,833
205,261	-2,313	296,139	147,208
206,275	-2,240	295,802	147,100
207,290	-2,254	295,637	146,992
208,304	-2,325	295,593	146,884
209,319	-2,324	295,295	146,725
210,334	-2,244	294,921	146,605
211,348	-2,446	294,915	146,389
212,363	-2,445	294,645	146,242
213,377	-2,189	294,483	146,404
214,392	-2,427	294,353	146,089
215,407	-2,577	294,127	145,815
216,421	-2,786	293,857	145,460
217,436	-2,589	293,550	145,491
218,450	-2,660	293,436	145,351
219,465	-2,642	293,340	145,308
220,480	-2,506	293,190	145,356
221,494	-2,371	292,964	145,364
222,509	-2,610	292,810	145,038
223,523	-2,478	292,442	144,974
224,538	-2,355	292,489	145,105
225,553	-2,123	292,174	145,165
226,567	-2,261	292,004	144,932
227,582	-2,407	292,004	144,774
228,596	-2,413	291,898	144,703
229,611	-2,225	291,717	144,786
230,626	-2,282	291,337	144,528
231,640	-2,695	291,078	143,981
232,655	-2,798	290,674	143,668
233,669	-2,958	290,467	143,396
234,684	-2,889	290,342	143,389
235,699	-2,736	290,170	143,441
236,713	-2,649	289,976	143,417
237,728	-2,800	289,926	143,232
238,742	-2,628	289,769	143,310
239,757	-2,473	289,478	143,304
240,772	-2,666	289,442	143,086
241,786	-2,502	289,219	143,123
242,801	-2,554	288,945	142,924
243,815	-2,571	288,814	142,829
244,830	-2,577	288,644	142,727
245,844	-2,665	288,420	142,518
246,859	-2,631	288,246	142,451
247,874	-2,564	287,917	142,342
248,888	-2,554	287,924	142,342
249,903	-2,387	287,718	142,390
250,917	-2,443	287,670	142,299
251,932	-2,236	287,467	142,386
252,947	-1,808	287,530	142,819
253,961	-2,320	287,133	142,114
254,976	-1,097	287,532	143,483
255,990	1,558	288,421	146,489
257,005	2,702	288,604	147,677
258,020	3,922	289,107	149,105
259,034	4,094	288,730	149,064
260,049	3,725	288,541	148,595
261,063	3,660	288,227	148,358
262,078	3,916	288,195	148,576
263,093	4,734	288,027	149,265
264,107	4,582	288,029	149,107
265,122	4,573	287,923	149,030
266,136	4,758	287,809	149,136
267,151	4,722	287,552	148,954
268,166	4,470	287,326	148,581
269,180	4,382	287,056	148,344
270,195	4,447	287,024	148,377
271,209	4,345	286,679	148,087
272,224	4,298	286,508	147,941
273,239	3,961	286,433	147,565
274,253	4,193	286,252	147,681
275,268	4,645	286,205	148,077
276,282	4,636	285,806	147,849
277,297	4,567	285,666	147,698
278,312	4,872	285,646	147,965
279,326	4,690	285,377	147,638
280,341	4,472	285,134	147,292
281,355	4,357	284,897	147,046
282,370	4,129	284,666	146,697
283,384	4,304	284,620	146,827
284,399	4,174	284,415	146,584
285,414	4,102	284,179	146,382
286,428	4,056	284,001	146,234
287,443	3,974	283,661	145,967
288,457	3,902	283,336	145,719
289,472	3,968	283,372	145,787
290,487	4,038	283,135	145,718
291,501	4,060	282,798	145,553
292,516	3,875	282,721	145,325
293,530	3,660	282,576	145,035
294,545	3,904	282,596	145,262
295,560	4,017	282,336	145,222
296,574	3,806	282,008	144,841
297,589	3,973	281,899	144,931
298,603	4,321	281,969	145,282
299,618	4,477	281,597	145,224
300,633	4,168	281,468	144,853
301,647	4,173	281,370	144,794
302,662	4,168	281,212	144,696
303,676	3,963	280,703	144,228
304,691	3,698	280,522	143,874
305,706	3,819	280,242	143,831
306,720	3,756	280,065	143,668
307,735	3,766	280,055	143,660
308,749	3,836	280,046	143,708
309,764	3,813	279,826	143,561
310,779	3,707	279,542	143,304
311,793	3,718	279,298	143,175
312,808	3,835	278,957	143,098
313,822	3,911	278,819	143,084
314,837	3,761	278,748	142,896
315,852	3,561	278,504	142,572
316,866	3,680	278,352	142,592
317,881	3,827	278,158	142,616
318,895	3,812	277,933	142,475
319,910	3,541	277,781	142,132
320,925	3,392	277,594	141,887
321,939	3,678	277,421	142,050
322,954	3,873	277,417	142,215
323,968	3,869	277,343	142,161
324,983	3,854	277,034	141,976
325,997	3,992	276,927	142,036
327,012	4,159	276,731	142,077
328,027	3,897	276,609	141,760
329,041	3,921	276,302	141,612
330,056	4,140	276,174	141,736
331,070	4,073	275,895	141,518
332,085	3,917	275,727	141,276
333,100	3,953	275,548	141,204
334,114	3,962	275,242	141,043
335,129	3,625	275,210	140,706
336,143	3,973	275,079	140,945
337,158	4,196	275,059	141,126
338,173	4,028	274,770	140,812
339,187	3,887	274,558	140,562
340,202	4,166	274,310	140,677
341,216	3,882	274,271	140,385
342,231	3,990	273,775	140,217
343,246	3,957	273,798	140,186
344,260	3,922	273,783	140,134
345,275	4,076	273,585	140,161
346,289	4,292	273,525	140,314
347,304	4,431	273,274	140,299
348,319	4,024	273,057	139,805
349,333	3,942	272,920	139,649
350,348	4,247	272,810	139,857
351,362	4,376	272,659	139,884
352,377	4,242	272,452	139,644
353,392	4,259	272,231	139,533
354,406	4,150	272,119	139,364
355,421	192,090	1329,475	1408,829
356,435	155,212	1458,377	1408,940
