DTS Sentinel unit serial number:	SN410029Multiplexer serial number:	ORYXHardware model number:	OX2-SRSoftware version number:	ORYX F/W v4,00 Oryx Data Collector v3.7.2.0data status	okinstallation	B4 Nyhavnadifferential loss correction	single-endedforward channel	channel 2reverse channel	N/Adate	2023/12/19time	13:25:13forward acquisition time	300,00reverse acquisition time	0,00gamma	499,1914k internal	0,3128k external	0,3128temperature offset calibration	1,0000default loss term (dB/km)	0,3820temperature slope calibration	1,0000multiplexer offset coefficient	1,0000multiplexer slope coefficient	1,0000fibre end	0,00T internal ref (°C)	19,41T ext. ref 1 (°C)	4,59T ext. ref 2 (°C)	4,59length (m)	temperature (°C)	Stokes	anti-Stokes-744,400	149,586	-0,035	-0,036
-743,385	125,318	-0,162	0,152
-742,371	63,496	0,161	0,120
-741,356	-103,911	-0,308	0,053
-740,342	20,841	0,084	0,051
-739,327	24,846	-0,270	0,166
-738,312	41,811	-0,069	-0,046
-737,298	-140,521	-0,237	0,018
-736,283	-200,000	-0,004	-0,079
-735,269	-38,079	-0,122	0,048
-734,254	43,522	-0,131	0,089
-733,239	-10,197	-0,443	-0,218
-732,225	-15,771	0,117	0,055
-731,210	-99,713	-0,029	-0,005
-730,196	311,629	-0,045	-0,064
-729,181	-133,512	-0,079	0,007
-728,167	-67,679	-0,074	-0,021
-727,152	-51,131	0,016	0,005
-726,137	134,486	-0,097	0,093
-725,123	62,844	-0,060	-0,044
-724,108	460,781	-0,127	-0,212
-723,094	-90,976	0,079	-0,017
-722,079	-0,211	-0,094	0,050
-721,064	-200,000	-0,004	-0,035
-720,050	-95,671	-0,087	0,017
-719,035	800,000	-0,036	-0,111
-718,021	125,062	-0,115	-0,108
-717,006	800,000	-0,030	0,083
-715,991	141,578	-0,052	0,052
-714,977	800,000	0,046	-0,129
-713,962	-200,000	0,005	-0,026
-712,948	-145,855	0,121	-0,008
-711,933	131,732	0,044	-0,042
-710,918	53,355	-0,058	-0,041
-709,904	57,671	-0,048	-0,035
-708,889	-54,334	0,014	-0,005
-707,875	-170,611	-0,082	-0,002
-706,860	-163,895	0,059	-0,002
-705,845	-120,758	-0,064	0,008
-704,831	92,335	0,085	-0,071
-703,816	-34,739	0,053	-0,021
-702,802	800,000	0,057	-0,146
-701,787	-32,893	-0,114	-0,047
-700,772	374,975	-0,077	-0,117
-699,758	-196,731	-0,202	0,001
-698,743	54,697	0,027	0,019
-697,729	-110,070	0,034	0,005
-696,714	28,169	0,052	-0,033
-695,699	52,473	-0,096	0,068
-694,685	-43,384	-0,155	0,058
-693,670	-200,000	0,020	-0,103
-692,656	22,796	-0,087	-0,053
-691,641	61,554	0,107	0,079
-690,627	-200,000	0,013	-0,078
-689,612	800,000	-0,018	-0,051
-688,597	163,629	-0,044	-0,046
-687,583	283,900	-0,034	-0,045
-686,568	92,745	0,088	-0,073
-685,554	-200,000	0,031	-0,154
-684,539	133,082	-0,031	0,029
-683,524	154,459	0,070	-0,072
-682,510	258,552	-0,034	0,043
-681,495	-200,000	-0,000	-0,053
-680,481	29,121	-0,111	-0,069
-679,466	723,866	-0,027	0,054
-678,451	-136,713	-0,035	0,003
-677,437	504,574	-0,099	-0,170
-676,422	-200,000	0,017	0,070
-675,408	-200,000	0,012	0,096
-674,393	254,463	0,094	0,120
-673,378	-141,276	-0,083	-0,006
-672,364	800,000	0,080	-0,215
-671,349	398,924	-0,045	-0,071
-670,335	-200,000	-0,014	0,170
-669,320	10,957	-0,046	-0,026
-668,305	173,573	-0,032	0,035
-667,291	107,284	-0,061	-0,054
-666,276	192,725	0,013	-0,014
-665,262	252,051	-0,052	-0,066
-664,247	-36,262	0,072	0,029
-663,232	-62,243	0,044	0,014
-662,218	699,266	0,032	-0,063
-661,203	-103,736	0,129	0,022
-660,189	800,000	0,062	0,140
-659,174	-42,118	-0,071	0,027
-658,159	793,358	-0,030	-0,061
-657,145	-200,000	-0,014	-0,067
-656,130	-200,000	0,004	-0,033
-655,116	265,937	0,070	-0,091
-654,101	159,344	0,061	-0,063
-653,086	-94,710	0,091	-0,018
-652,072	221,045	-0,048	-0,057
-651,057	364,072	-0,071	-0,105
-650,043	333,263	-0,083	0,119
-649,028	-200,000	-0,004	-0,020
-648,014	-45,228	0,122	0,045
-646,999	-75,654	-0,050	-0,013
-645,984	-200,000	0,010	-0,071
-644,970	137,236	-0,097	-0,094
-643,955	162,019	-0,073	-0,076
-642,941	125,087	-0,076	-0,071
-641,926	125,367	0,131	-0,123
-640,911	-200,000	-0,016	-0,093
-639,897	-180,135	0,111	-0,002
-638,882	-200,000	0,049	-0,197
-637,868	57,025	0,015	0,011
-636,853	-200,000	0,010	-0,083
-635,838	136,548	-0,054	-0,052
-634,824	-200,000	0,004	0,148
-633,809	406,046	0,033	-0,051
-632,795	609,847	-0,053	-0,099
-631,780	-21,172	0,051	-0,023
-630,765	800,000	-0,015	0,048
-629,751	153,330	-0,093	-0,094
-628,736	-57,035	0,054	-0,017
-627,722	-100,967	0,037	-0,007
-626,707	478,914	0,014	-0,023
-625,692	-200,000	-0,040	0,132
-624,678	-127,212	0,032	-0,003
-623,663	-47,730	0,091	-0,033
-622,649	800,000	0,037	-0,109
-621,634	363,647	-0,031	0,046
-620,619	-34,285	0,055	0,022
-619,605	-200,000	0,015	-0,131
-618,590	-129,228	0,016	-0,002
-617,576	202,376	-0,043	0,049
-616,561	-169,496	0,131	-0,003
-615,546	-142,193	-0,063	0,005
-614,532	800,000	-0,013	-0,035
-613,517	11,932	-0,068	0,038
-612,503	198,450	-0,045	-0,051
-611,488	-82,460	0,075	-0,018
-610,474	619,342	0,013	0,024
-609,459	-200,000	-0,027	0,109
-608,444	384,681	-0,084	-0,129
-607,430	-81,550	-0,109	0,026
-606,415	-200,000	0,009	-0,104
-605,401	800,000	-0,046	-0,098
-604,386	800,000	-0,039	0,099
-603,371	-91,541	0,024	-0,005
-602,357	-26,761	0,057	-0,025
-601,342	-42,091	-0,111	0,042
-600,328	-65,972	-0,092	-0,027
-599,313	-140,685	-0,052	-0,004
-598,298	30,389	-0,067	0,042
-597,284	-200,000	0,013	-0,058
-596,269	-32,298	0,038	-0,015
-595,255	800,000	-0,024	-0,053
-594,240	10,121	-0,038	0,021
-593,225	-200,000	-0,005	0,030
-592,211	5,472	-0,110	-0,060
-591,196	-150,647	0,069	-0,004
-590,182	-70,739	0,086	0,024
-589,167	-23,383	-0,030	-0,013
-588,152	184,684	-0,046	0,051
-587,138	329,986	-0,040	-0,058
-586,123	109,344	0,014	0,013
-585,109	206,169	0,051	0,059
-584,094	94,581	-0,087	-0,073
-583,079	57,665	-0,086	0,062
-582,065	132,544	0,040	0,038
-581,050	800,000	-0,047	0,120
-580,036	-96,032	-0,140	-0,027
-579,021	-200,000	-0,004	0,017
-578,006	800,000	-0,031	-0,069
-576,992	295,223	-0,031	-0,041
-575,977	-134,750	0,016	0,001
-574,963	-200,000	0,023	0,076
-573,948	777,849	-0,014	-0,028
-572,934	-71,719	0,044	0,012
-571,919	-200,000	0,009	-0,065
-570,904	-46,309	0,039	-0,014
-569,890	800,000	-0,044	-0,093
-568,875	511,665	0,033	-0,057
-567,861	-143,570	0,047	0,003
-566,846	-77,825	-0,021	0,005
-565,831	17,317	0,130	0,076
-564,817	188,294	-0,015	-0,017
-563,802	-28,637	-0,047	-0,020
-562,788	-200,000	0,007	0,057
-561,773	-117,206	0,104	-0,014
-560,758	800,000	0,021	0,067
-559,744	-161,426	0,063	0,002
-558,729	454,398	0,058	-0,095
-557,715	37,292	-0,112	-0,073
-556,700	247,717	-0,075	0,094
-555,685	-11,999	0,055	0,027
-554,671	800,000	0,041	-0,093
-553,656	800,000	0,054	0,115
-552,642	307,036	0,099	0,137
-551,627	259,619	0,059	-0,076
-550,612	130,946	-0,078	-0,074
-549,598	128,588	-0,061	-0,057
-548,583	61,677	-0,057	0,042
-547,569	89,523	-0,087	-0,072
-546,554	-111,871	0,063	-0,009
-545,539	447,734	-0,065	-0,106
-544,525	-94,723	-0,026	-0,005
-543,510	139,038	-0,072	-0,070
-542,496	-51,307	0,034	-0,012
-541,481	196,982	-0,059	0,067
-540,466	-94,379	-0,159	-0,032
-539,452	122,245	0,010	0,009
-538,437	-15,931	0,047	0,022
-537,423	-154,839	0,165	-0,008
-536,408	-200,000	-0,001	0,011
-535,393	521,869	0,017	0,030
-534,379	-200,000	-0,003	-0,150
-533,364	261,005	0,038	-0,049
-532,350	-200,000	-0,015	0,085
-531,335	-200,000	0,013	0,178
-530,321	-42,741	0,109	0,041
-529,306	-56,796	0,085	0,028
-528,291	673,310	0,026	-0,051
-527,277	24,910	-0,097	0,059
-526,262	83,086	-0,043	-0,035
-525,248	800,000	-0,022	-0,051
-524,233	-85,168	0,137	0,031
-523,218	-43,150	0,075	0,028
-522,204	-48,639	-0,099	-0,035
-521,189	-24,398	-0,097	-0,043
-520,175	-200,000	0,007	-0,028
-519,160	276,310	-0,060	-0,078
-518,145	-200,000	-0,030	-0,103
-517,131	800,000	-0,026	-0,073
-516,116	800,000	0,043	-0,116
-515,102	167,869	0,101	0,106
-514,087	-200,000	-0,008	0,045
-513,072	-200,000	-0,003	-0,071
-512,058	-169,175	-0,139	0,004
-511,043	182,184	0,050	0,055
-510,029	-200,000	0,000	0,075
-509,014	542,306	-0,015	-0,026
-507,999	128,360	0,109	-0,103
-506,985	-136,917	-0,089	0,007
-505,970	-56,295	0,207	-0,067
-504,956	295,082	0,094	0,127
-503,941	-200,000	0,011	0,036
-502,926	-182,521	-0,081	0,001
-501,912	-99,940	-0,028	-0,005
-500,897	-200,000	0,013	-0,129
-499,883	-200,000	0,014	-0,054
-498,868	7,569	0,021	-0,011
-497,853	-200,000	0,019	0,129
-496,839	285,048	0,065	-0,087
-495,824	-84,961	0,095	-0,022
-494,810	-200,000	0,012	0,218
-493,795	6,039	0,064	0,035
-492,781	-20,740	0,022	0,010
-491,766	519,180	-0,032	-0,055
-490,751	800,000	0,024	-0,069
-489,737	800,000	0,029	-0,066
-488,722	496,406	0,052	-0,089
-487,708	-200,000	0,016	0,166
-486,693	-200,000	-0,018	-0,114
-485,678	15,027	-0,058	-0,034
-484,664	66,129	-0,033	0,025
-483,649	-3,550	0,021	-0,011
-482,635	-10,210	-0,068	-0,033
-481,620	-200,000	0,012	0,070
-480,605	-200,000	0,017	0,071
-479,591	800,000	0,063	-0,194
-478,576	-37,768	0,027	0,010
-477,562	-200,000	0,004	0,017
-476,547	800,000	-0,033	-0,098
-475,532	-142,487	0,162	-0,012
-474,518	-200,000	-0,010	0,166
-473,503	112,775	0,055	0,049
-472,489	-132,107	-0,179	0,017
-471,474	-160,684	-0,063	0,002
-470,459	-167,526	-0,120	0,003
-469,445	800,000	0,056	-0,117
-468,430	-58,329	0,083	-0,026
-467,416	40,602	-0,005	-0,003
-466,401	186,152	-0,065	0,071
-465,386	687,723	0,046	0,088
-464,372	17,028	-0,075	0,044
-463,357	3,103	-0,101	-0,054
-462,343	-200,000	0,001	-0,135
-461,328	-121,448	0,139	-0,017
-460,313	16,908	-0,083	0,048
-459,299	61,301	-0,029	-0,021
-458,284	74,275	0,034	0,026
-457,270	-200,000	-0,001	-0,108
-456,255	-200,000	0,019	-0,133
-455,241	176,029	-0,023	-0,025
-454,226	-108,657	-0,034	0,005
-453,211	425,555	0,070	0,111
-452,197	346,614	-0,073	0,105
-451,182	53,562	-0,172	0,121
-450,168	325,771	0,067	0,094
-449,153	87,248	0,098	0,080
-448,138	-200,000	0,014	-0,076
-447,124	432,699	0,062	-0,099
-446,109	800,000	0,022	0,073
-445,095	12,136	-0,130	-0,073
-444,080	49,251	0,096	-0,066
-443,065	562,876	-0,094	0,168
-442,051	-16,228	-0,031	-0,014
-441,036	72,951	-0,035	0,027
-440,022	-77,418	-0,032	-0,008
-439,007	607,029	-0,089	-0,165
-437,992	-200,000	-0,017	-0,122
-436,978	-200,000	-0,007	0,071
-435,963	-180,814	0,096	0,001
-434,949	-61,901	0,067	-0,020
-433,934	-200,000	0,007	0,112
-432,919	-145,051	0,217	-0,014
-431,905	105,042	0,047	-0,041
-430,890	72,430	0,044	0,034
-429,876	-190,073	0,040	0,000
-428,861	-67,626	0,077	0,022
-427,846	-200,000	-0,000	-0,085
-426,832	141,679	-0,026	-0,025
-425,817	644,760	0,062	0,118
-424,803	-154,269	0,132	0,006
-423,788	-200,000	-0,004	0,056
-422,773	800,000	0,035	0,079
-421,759	-70,390	-0,152	0,042
-420,744	-17,644	0,042	-0,019
-419,730	-200,000	-0,020	-0,081
-418,715	-200,000	-0,008	0,059
-417,701	730,630	0,023	-0,046
-416,686	-22,457	0,074	-0,033
-415,671	800,000	-0,036	-0,079
-414,657	445,083	-0,013	0,021
-413,642	-133,365	0,174	-0,016
-412,628	-35,156	-0,092	-0,036
-411,613	562,659	0,042	-0,075
-410,598	-200,000	-0,007	-0,062
-409,584	-200,000	0,023	-0,084
-408,569	100,652	-0,009	0,008
-407,555	212,907	0,051	-0,059
-406,540	120,865	-0,094	0,086
-405,525	224,143	-0,105	-0,125
-404,511	21,391	-0,117	-0,070
-403,496	542,872	-0,021	0,036
-402,482	-200,000	-0,010	0,060
-401,467	158,540	-0,096	-0,098
-400,452	800,000	-0,007	0,019
-399,438	800,000	0,023	0,067
-398,423	800,000	0,019	0,054
-397,409	-200,000	-0,006	-0,129
-396,394	-125,974	-0,154	-0,017
-395,379	-200,000	-0,008	0,106
-394,365	-200,000	0,004	-0,031
-393,350	-48,101	-0,090	0,032
-392,336	-200,000	-0,004	0,052
-391,321	-42,401	-0,054	-0,020
-390,306	-123,614	-0,070	-0,008
-389,292	292,576	-0,122	-0,164
-388,277	-200,000	-0,022	-0,076
-387,263	172,793	0,069	-0,073
-386,248	323,956	-0,013	-0,018
-385,233	18,369	0,074	-0,043
-384,219	800,000	0,010	0,032
-383,204	-200,000	0,008	0,129
-382,190	150,053	-0,116	-0,115
-381,175	-77,186	0,165	-0,042
-380,160	156,323	-0,047	-0,048
-379,146	-5,028	0,046	0,023
-378,131	-86,378	0,076	0,017
-377,117	-118,913	-0,048	0,006
-376,102	-133,924	-0,071	0,006
-375,088	84,364	-0,059	-0,047
-374,073	476,877	0,065	-0,108
-373,058	800,000	-0,012	0,025
-372,044	-46,969	0,103	0,037
-371,029	587,059	0,048	0,087
-370,015	227,539	-0,070	0,084
-369,000	-130,599	-0,158	0,015
-367,985	-200,000	0,022	0,085
-366,971	-200,000	-0,016	0,123
-365,956	-200,000	-0,012	0,065
-364,942	-200,000	0,026	0,115
-363,927	562,101	-0,102	0,181
-362,912	446,720	-0,037	0,060
-361,898	-60,320	0,066	-0,020
-360,883	-193,857	-0,074	-0,000
-359,869	-133,553	-0,033	0,003
-358,854	89,547	0,038	0,031
-357,839	-98,497	0,164	0,030
-356,825	-200,000	-0,017	-0,100
-355,810	161,709	-0,067	-0,069
-354,796	140,814	0,055	-0,054
-353,781	745,632	-0,020	0,041
-352,766	151,950	0,015	0,015
-351,752	304,423	0,010	-0,013
-350,737	103,136	-0,080	0,069
-349,723	133,737	0,069	-0,065
-348,708	-130,239	-0,073	0,007
-347,693	-200,000	-0,017	-0,071
-346,679	50,834	-0,156	-0,108
-345,664	137,893	-0,203	-0,195
-344,650	-110,329	0,203	-0,031
-343,635	800,000	-0,027	0,084
-342,620	-200,000	-0,006	0,139
-341,606	24,922	-0,028	-0,017
-340,591	-35,612	0,142	0,056
-339,577	391,936	-0,059	-0,091
-338,562	-131,839	-0,080	-0,008
-337,548	367,340	-0,059	0,087
-336,533	102,781	0,120	0,103
-335,518	-71,730	0,047	0,013
-334,504	366,831	0,093	0,137
-333,489	705,566	-0,051	0,099
-332,475	-200,000	-0,013	0,129
-331,460	-200,000	0,008	0,028
-330,445	-200,000	0,022	-0,124
-329,431	-200,000	0,137	0,000
-328,416	800,000	-0,028	-0,083
-327,402	-200,000	-0,009	-0,029
-326,387	17,120	0,052	-0,030
-325,372	302,175	0,016	-0,022
-324,358	-200,000	0,005	0,085
-323,343	800,000	-0,066	-0,193
-322,329	64,259	0,029	0,022
-321,314	-144,041	0,047	-0,003
-320,299	586,258	-0,085	0,153
-319,285	800,000	-0,079	0,174
-318,270	-168,497	0,086	0,002
-317,256	58,825	-0,079	-0,057
-316,241	-200,000	0,014	-0,117
-315,226	-72,030	-0,051	0,014
-314,212	-113,768	-0,021	-0,003
-313,197	-1,179	0,070	-0,036
-312,183	60,357	0,138	0,100
-311,168	-200,000	0,002	0,102
-310,153	210,312	0,066	0,076
-309,139	57,020	0,103	-0,073
-308,124	-15,243	0,128	-0,060
-307,110	297,957	0,091	-0,122
-306,095	-25,974	-0,017	-0,007
-305,080	-200,000	-0,005	-0,054
-304,066	112,731	0,069	-0,061
-303,051	-200,000	-0,010	-0,088
-302,037	800,000	-0,019	-0,045
-301,022	800,000	0,026	0,062
-300,008	80,011	0,089	-0,070
-298,993	-200,000	0,013	0,103
-297,978	800,000	0,014	-0,038
-296,964	-63,876	-0,060	0,018
-295,949	45,648	-0,063	-0,043
-294,935	-116,315	-0,104	-0,014
-293,920	800,000	-0,053	0,134
-292,905	147,251	0,056	0,055
-291,891	800,000	-0,024	-0,068
-290,876	705,267	-0,055	0,106
-289,862	-200,000	-0,003	0,109
-288,847	158,774	0,014	0,014
-287,832	-200,000	0,008	-0,092
-286,818	-79,678	0,038	-0,009
-285,803	195,600	0,137	0,152
-284,789	337,351	0,020	-0,028
-283,774	-200,000	-0,033	0,158
-282,759	800,000	0,025	0,061
-281,745	412,234	0,063	0,097
-280,730	-200,000	0,000	0,074
-279,716	-41,266	0,149	-0,056
-278,701	800,000	-0,022	0,068
-277,686	116,793	0,097	0,087
-276,672	138,885	0,007	-0,007
-275,657	255,436	-0,012	0,015
-274,643	-71,378	-0,189	-0,051
-273,628	-36,726	-0,016	-0,006
-272,613	-27,992	-0,019	0,008
-271,599	69,993	0,089	-0,067
-270,584	309,154	-0,030	-0,041
-269,570	342,511	0,019	0,027
-268,555	-142,430	-0,085	-0,006
-267,540	-115,944	-0,074	0,010
-266,526	100,332	-0,101	-0,086
-265,511	-200,000	-0,004	-0,064
-264,497	-49,617	-0,166	-0,057
-263,482	-163,327	0,214	0,007
-262,467	526,921	0,013	-0,023
-261,453	-200,000	-0,019	0,070
-260,438	-200,000	0,005	0,034
-259,424	-78,339	-0,008	0,002
-258,409	-200,000	-0,001	-0,015
-257,395	68,451	-0,033	0,025
-256,380	144,986	0,042	0,041
-255,365	-200,000	0,003	0,100
-254,351	-76,950	-0,090	0,023
-253,336	576,317	-0,068	0,123
-252,322	626,673	-0,030	-0,056
-251,307	415,681	-0,046	-0,072
-250,292	-31,411	-0,104	-0,043
-249,278	-118,772	-0,062	-0,008
-248,263	-200,000	-0,002	-0,106
-247,249	-11,709	-0,042	0,020
-246,234	488,186	-0,073	0,122
-245,219	-200,000	0,007	0,038
-244,205	-51,075	0,019	0,007
-243,190	-200,000	0,015	0,099
-242,176	800,000	-0,044	0,120
-241,161	564,113	-0,016	0,028
-240,146	-123,106	0,059	-0,007
-239,132	249,800	-0,076	0,095
-238,117	-146,570	0,068	0,004
-237,103	-66,867	0,033	-0,009
-236,088	-200,000	0,006	0,049
-235,073	66,833	0,074	0,055
-234,059	-106,772	0,049	0,008
-233,044	143,717	-0,044	0,043
-232,030	8,469	0,072	0,040
-231,015	198,909	0,060	-0,067
-230,000	-200,000	-0,013	-0,073
-228,986	545,576	0,063	0,111
-227,971	800,000	0,033	0,104
-226,957	-200,000	0,047	0,241
-225,942	15,306	-0,090	-0,051
-224,927	336,501	-0,048	0,069
-223,913	-200,000	-0,002	-0,092
-222,898	-139,616	0,054	-0,004
-221,884	-27,159	0,024	0,010
-220,869	212,883	0,102	0,117
-219,855	-200,000	-0,028	0,128
-218,840	-200,000	-0,012	0,166
-217,825	-6,432	-0,112	-0,055
-216,811	442,401	-0,116	-0,186
-215,796	-200,000	-0,005	0,053
-214,782	476,989	-0,037	-0,062
-213,767	-200,000	0,004	0,052
-212,752	-200,000	-0,008	0,064
-211,738	-98,025	-0,028	0,005
-210,723	264,370	0,038	0,048
-209,709	-164,392	0,087	0,003
-208,694	-200,000	0,000	-0,012
-207,679	-17,891	0,092	-0,042
-206,665	145,636	-0,010	0,010
-205,650	337,877	-0,101	0,144
-204,636	60,798	-0,109	0,079
-203,621	-200,000	-0,013	0,100
-202,606	218,671	-0,102	0,119
-201,592	-200,000	0,010	-0,062
-200,577	140,038	0,030	-0,029
-199,563	730,125	0,041	-0,081
-198,548	-200,000	-0,003	0,078
-197,533	-102,705	0,071	0,012
-196,519	36,753	-0,107	-0,069
-195,504	27,603	0,037	0,023
-194,490	800,000	0,015	-0,034
-193,475	-200,000	-0,002	-0,026
-192,460	-83,995	-0,092	-0,021
-191,446	100,796	0,063	-0,053
-190,431	89,774	0,125	0,102
-189,417	-97,028	0,119	-0,023
-188,402	-96,359	-0,020	0,004
-187,387	-190,850	0,077	0,001
-186,373	-152,864	-0,089	0,005
-185,358	527,015	0,033	0,057
-184,344	37,831	0,071	0,046
-183,329	-200,000	-0,029	0,185
-182,315	-200,000	0,005	0,031
-181,300	-200,000	0,011	-0,076
-180,285	-200,000	0,010	-0,068
-179,271	-142,006	-0,102	-0,007
-178,256	-200,000	0,015	-0,049
-177,242	-43,869	0,083	-0,030
-176,227	711,025	-0,035	-0,069
-175,212	-200,000	0,020	0,087
-174,198	107,944	0,071	-0,062
-173,183	-127,074	0,007	0,001
-172,169	23,039	-0,085	0,051
-171,154	-200,000	-0,019	-0,106
-170,139	17,578	-0,046	0,027
-169,125	-144,916	0,050	0,003
-168,110	62,660	-0,088	-0,064
-167,096	-200,000	-0,003	-0,058
-166,081	-147,201	0,171	0,010
-165,066	-34,501	-0,117	0,046
-164,052	173,504	-0,051	-0,054
-163,037	-200,000	-0,018	0,067
-162,023	-200,000	-0,022	-0,101
-161,008	-76,423	0,042	0,011
-159,993	-200,000	0,019	0,090
-158,979	218,200	0,007	0,008
-157,964	-200,000	-0,022	-0,100
-156,950	-200,000	-0,007	0,026
-155,935	800,000	0,022	-0,064
-154,920	800,000	0,029	-0,069
-153,906	111,591	-0,120	-0,105
-152,891	-114,837	0,181	0,025
-151,877	-1,483	-0,190	0,097
-150,862	-200,000	-0,029	-0,127
-149,847	156,577	0,047	-0,048
-148,833	-31,845	0,028	0,011
-147,818	420,615	0,081	-0,127
-146,804	-200,000	0,010	0,071
-145,789	-200,000	0,008	-0,051
-144,775	-43,773	0,053	-0,019
-143,760	145,767	-0,048	-0,047
-142,745	-76,356	0,023	-0,006
-141,731	800,000	0,047	-0,115
-140,716	751,988	-0,004	-0,007
-139,702	35,402	0,044	0,028
-138,687	800,000	0,025	-0,052
-137,672	242,737	-0,057	0,070
-136,658	186,764	-0,020	-0,022
-135,643	420,037	0,017	0,026
-134,629	71,060	-0,076	-0,057
-133,614	144,421	-0,086	0,084
-132,599	-64,456	0,056	-0,016
-131,585	-200,000	-0,002	-0,018
-130,570	-118,266	0,103	0,013
-129,556	-83,157	-0,105	0,024
-128,541	-200,000	0,018	-0,133
-127,526	-200,000	0,038	0,187
-126,512	-200,000	-0,009	0,168
-125,497	-75,093	-0,082	-0,021
-124,483	228,467	0,082	-0,097
-123,468	539,898	0,040	0,069
-122,453	-200,000	-0,001	0,087
-121,439	-93,030	-0,109	0,022
-120,424	800,000	-0,017	-0,054
-119,410	-200,000	0,015	0,102
-118,395	136,168	0,056	-0,053
-117,380	-200,000	0,010	0,064
-116,366	-200,000	0,006	0,207
-115,351	38,905	-0,075	0,048
-114,337	-200,000	0,019	-0,066
-113,322	334,197	-0,051	-0,072
-112,307	800,000	0,052	-0,122
-111,293	800,000	-0,011	-0,033
-110,278	38,528	0,249	-0,161
-109,264	-200,000	-0,025	0,151
-108,249	-200,000	-0,001	-0,006
-107,234	79,006	-0,073	-0,056
-106,220	-200,000	-0,018	0,124
-105,205	-47,761	-0,031	-0,011
-104,191	410,459	-0,028	-0,043
-103,176	-118,823	0,118	0,015
-102,162	132,129	0,051	0,048
-101,147	712,145	0,025	0,048
-100,132	74,411	-0,154	-0,117
-99,118	173,931	-0,033	0,034
-98,103	-97,614	0,056	-0,010
-97,089	-200,000	-0,018	0,075
-96,074	800,000	-0,052	0,136
-95,059	-50,040	-0,063	-0,021
-94,045	-3,954	-0,085	-0,043
-93,030	-200,000	-0,025	-0,116
-92,016	198,544	0,061	-0,068
-91,001	-200,000	-0,002	-0,134
-89,986	-127,608	0,110	-0,011
-88,972	-42,510	0,006	0,002
-87,957	163,433	0,079	-0,081
-86,943	800,000	-0,040	0,086
-85,928	-200,000	-0,038	0,122
-84,913	155,740	0,026	0,026
-83,899	-63,049	0,023	0,007
-82,884	-200,000	0,026	-0,098
-81,870	-200,000	-0,004	0,061
-80,855	16,708	0,163	-0,093
-79,840	238,955	-0,035	0,042
-78,826	-46,772	0,049	0,017
-77,811	-6,115	-0,158	0,078
-76,797	-112,993	0,021	-0,003
-75,782	179,423	0,112	0,119
-74,767	-143,611	0,119	-0,008
-73,753	800,000	0,056	0,169
-72,738	-27,991	0,028	0,012
-71,724	20,103	0,134	-0,078
-70,709	202,370	-0,019	-0,021
-69,694	-15,655	-0,047	-0,022
-68,680	-171,690	-0,121	-0,003
-67,665	612,312	0,055	-0,100
-66,651	169,791	0,006	-0,007
-65,636	-94,039	-0,095	-0,019
-64,622	-69,177	0,028	-0,008
-63,607	-72,251	0,054	0,014
-62,592	-30,367	-0,078	-0,032
-61,578	-200,000	-0,009	0,048
-60,563	87,234	0,027	0,021
-59,549	-200,000	-0,016	0,158
-58,534	-56,754	-1,643	-0,524
-57,519	800,000	-0,601	-1,365
-56,505	-200,000	-0,932	-4,506
-55,490	-133,762	0,561	0,050
-54,476	800,000	5,133	11,788
-53,461	-200,000	15,370	270,584
-52,446	-200,000	696,270	2254,732
-51,432	589,692	1616,060	2898,475
-50,417	120,976	1624,146	1463,897
-49,403	82,682	1281,466	1007,807
-48,388	37,363	1022,432	655,188
-47,373	22,207	983,548	580,339
-46,359	21,240	972,140	570,412
-45,344	19,697	968,242	563,049
-44,330	19,735	966,979	562,415
-43,315	19,441	965,568	560,612
-42,300	19,417	964,341	559,801
-41,286	19,451	963,230	559,243
-40,271	19,447	962,358	558,701
-39,257	19,478	961,407	558,229
-38,242	19,474	960,676	557,767
-37,227	19,430	959,929	557,170
-36,213	19,457	958,913	556,644
-35,198	19,435	957,930	555,980
-34,184	19,465	957,350	555,721
-33,169	19,412	956,331	554,936
-32,154	19,485	955,279	554,537
-31,140	19,474	954,534	554,049
-30,125	19,499	953,733	553,641
-29,111	19,464	953,110	553,144
-28,096	19,448	952,343	552,626
-27,082	19,470	951,599	552,244
-26,067	19,411	950,857	551,600
-25,052	19,395	950,224	551,161
-24,038	19,408	949,481	550,751
-23,023	19,379	948,859	550,274
-22,009	19,457	948,176	550,107
-20,994	19,494	947,401	549,755
-19,979	19,487	946,897	549,418
-18,965	19,445	946,409	548,978
-17,950	19,453	945,739	548,592
-16,936	19,353	944,935	547,784
-15,921	19,365	944,434	547,512
-14,906	19,254	943,768	546,748
-13,892	19,300	943,015	546,437
-12,877	19,310	942,410	546,098
-11,863	19,298	941,612	545,575
-10,848	19,330	941,283	545,463
-9,833	19,422	940,752	545,427
-8,819	19,325	940,348	544,865
-7,804	19,357	939,310	544,343
-6,790	19,373	938,906	544,138
-5,775	19,362	938,402	543,790
-4,760	19,391	937,619	543,405
-3,746	19,351	936,982	542,887
-2,731	19,255	936,206	542,114
-1,717	19,141	935,842	541,521
-0,702	19,204	935,039	541,234
0,313	18,945	934,486	540,911
1,327	21,547	932,035	547,647
2,342	28,888	806,436	493,718
3,356	23,178	506,400	300,285
4,371	-0,762	373,933	191,203
5,386	-3,699	357,261	179,049
6,400	-4,740	351,452	174,860
7,415	-5,300	348,977	172,940
8,429	-5,250	347,520	172,263
9,444	-5,347	346,571	171,661
10,459	-5,223	345,891	171,457
11,473	-5,379	345,385	171,005
12,488	-5,252	344,782	170,842
13,502	-5,395	344,098	170,319
14,517	-5,219	343,670	170,299
15,531	-5,296	343,232	169,977
16,546	-5,235	342,803	169,821
17,561	-5,285	342,397	169,546
18,575	-5,178	342,154	169,536
19,590	-5,280	341,650	169,152
20,604	-5,153	341,290	169,108
21,619	-5,325	340,893	168,694
22,634	-5,193	340,557	168,667
23,648	-5,218	340,143	168,418
24,663	-5,219	339,975	168,319
25,677	-5,311	339,629	168,025
26,692	-5,320	339,322	167,847
27,707	-5,167	338,962	167,833
28,721	-5,171	338,624	167,646
29,736	-5,332	338,440	167,353
30,750	-5,212	338,059	167,289
31,765	-5,137	337,743	167,205
32,780	-5,170	337,486	167,024
33,794	-5,155	337,162	166,866
34,809	-5,326	337,032	166,589
35,823	-5,250	336,535	166,417
36,838	-5,287	336,319	166,251
37,853	-5,224	336,131	166,217
38,867	-5,218	335,932	166,111
39,882	-5,259	335,584	165,876
40,896	-5,211	335,378	165,816
41,911	-5,000	334,882	165,798
42,926	-5,217	334,793	165,489
43,940	-5,184	334,413	165,324
44,955	-5,329	334,181	165,029
45,969	-5,074	333,930	165,183
46,984	-5,093	333,709	165,036
47,999	-5,168	333,524	164,844
49,013	-5,305	333,220	164,523
50,028	-5,162	332,963	164,544
51,042	-5,336	332,647	164,176
52,057	-5,211	332,488	164,224
53,071	-5,331	332,227	163,945
54,086	-5,314	331,985	163,829
55,101	-5,072	331,606	163,904
56,115	-5,257	331,374	163,563
57,130	-5,292	331,195	163,421
58,144	-5,185	330,869	163,367
59,159	-5,062	330,381	163,251
60,174	-5,170	330,059	162,956
61,188	-5,277	330,118	162,848
62,203	-5,148	329,774	162,810
63,217	-5,211	329,470	162,574
64,232	-5,266	329,293	162,411
65,247	-5,312	328,986	162,193
66,261	-5,273	328,722	162,092
67,276	-5,295	328,369	161,879
68,290	-5,294	328,188	161,777
69,305	-5,283	328,067	161,714
70,320	-5,202	327,694	161,608
71,334	-5,240	327,357	161,384
72,349	-5,255	327,191	161,271
73,363	-5,168	326,924	161,223
74,378	-5,386	326,658	160,833
75,393	-5,362	326,459	160,747
76,407	-5,331	326,414	160,746
77,422	-5,251	325,978	160,606
78,436	-5,140	325,639	160,548
79,451	-5,065	325,288	160,445
80,466	-5,114	324,901	160,184
81,480	-5,177	324,858	160,079
82,495	-5,337	324,845	159,880
83,509	-5,169	324,563	159,914
84,524	-5,216	324,328	159,732
85,539	-5,117	323,883	159,608
86,553	-5,111	323,746	159,533
87,568	-5,212	323,458	159,265
88,582	-5,038	323,230	159,331
89,597	-5,224	323,001	158,998
90,611	-5,190	322,795	158,921
91,626	-5,203	322,501	158,747
92,641	-5,092	322,428	158,820
93,655	-5,307	322,154	158,434
94,670	-5,307	321,923	158,305
95,684	-5,255	321,541	158,161
96,699	-5,335	321,349	157,964
97,714	-5,127	321,194	158,103
98,728	-5,267	320,993	157,836
99,743	-5,252	320,744	157,716
100,757	-5,245	320,387	157,534
101,772	-5,138	320,141	157,516
102,787	-5,164	319,972	157,390
103,801	-4,997	319,513	157,333
104,816	-5,243	319,567	157,077
105,830	-5,111	319,282	157,067
106,845	-5,165	319,048	156,878
107,860	-5,131	318,831	156,796
108,874	-5,150	318,629	156,661
109,889	-5,209	318,194	156,369
110,903	-5,225	318,054	156,269
111,918	-5,183	317,869	156,210
112,933	-5,207	317,692	156,083
113,947	-5,203	317,424	155,942
114,962	-5,174	317,159	155,828
115,976	-5,117	316,948	155,773
116,991	-5,136	316,657	155,596
118,006	-5,175	316,525	155,475
119,020	-5,090	316,317	155,451
120,035	-5,174	316,251	155,314
121,049	-4,967	315,852	155,327
122,064	-5,140	315,702	155,053
123,079	-5,232	315,561	154,871
124,093	-5,120	315,329	154,864
125,108	-5,270	315,028	154,541
126,122	-5,238	314,866	154,482
127,137	-5,122	314,511	154,419
128,151	-5,115	314,287	154,302
129,166	-5,137	314,067	154,157
130,181	-5,098	313,899	154,102
131,195	-5,206	313,719	153,885
132,210	-5,134	313,332	153,758
133,224	-5,062	313,025	153,670
134,239	-5,154	312,870	153,483
135,254	-5,245	312,731	153,304
136,268	-5,232	312,521	153,202
137,283	-5,165	312,254	153,127
138,297	-5,121	311,970	153,022
139,312	-5,183	311,707	152,813
140,327	-5,141	311,528	152,757
141,341	-5,220	311,376	152,584
142,356	-5,032	311,265	152,716
143,370	-5,165	310,970	152,417
144,385	-4,983	310,729	152,477
145,400	-5,161	310,641	152,232
146,414	-5,134	310,360	152,109
147,429	-5,180	310,023	151,882
148,443	-5,219	309,838	151,737
149,458	-5,100	309,585	151,725
150,473	-5,120	309,369	151,585
151,487	-5,145	309,138	151,431
152,502	-5,250	308,909	151,196
153,516	-5,119	308,576	151,156
154,531	-5,079	308,433	151,115
155,546	-5,135	308,228	150,942
156,560	-5,044	308,018	150,921
157,575	-5,158	307,794	150,679
158,589	-5,195	307,640	150,552
159,604	-5,069	307,357	150,532
160,619	-5,077	307,201	150,432
161,633	-5,141	307,037	150,273
162,648	-5,181	306,826	150,114
163,662	-5,032	306,488	150,091
164,677	-5,104	306,385	149,951
165,692	-5,313	306,273	149,666
166,706	-5,167	306,016	149,679
167,721	-5,087	305,771	149,629
168,735	-5,064	305,565	149,538
169,750	-5,063	305,379	149,435
170,764	-5,111	305,108	149,239
171,779	-5,025	304,876	149,202
172,794	-5,007	304,786	149,163
173,808	-5,029	304,651	149,061
174,823	-4,898	304,266	148,994
175,837	-4,999	304,215	148,852
176,852	-4,935	303,855	148,729
177,867	-5,011	303,872	148,646
178,881	-5,047	303,718	148,519
179,896	-4,995	303,310	148,361
180,910	-5,042	303,258	148,273
181,925	-5,058	302,972	148,103
182,940	-5,154	302,692	147,855
183,954	-5,091	302,551	147,837
184,969	-4,813	302,247	147,961
185,983	-5,123	302,323	147,667
186,998	-4,944	302,062	147,709
188,013	-4,975	301,779	147,527
189,027	-5,288	301,508	147,060
190,042	-5,268	301,355	146,994
191,056	-5,241	301,095	146,880
192,071	-5,072	300,947	146,968
193,086	-5,107	300,564	146,733
194,100	-5,074	300,418	146,682
195,115	-5,141	300,263	146,525
196,129	-5,010	300,010	146,522
197,144	-5,075	299,791	146,335
198,159	-5,058	299,530	146,212
199,173	-4,930	299,358	146,245
200,188	-5,122	299,207	145,964
201,202	-5,205	298,937	145,735
202,217	-5,122	298,786	145,732
203,232	-5,006	298,441	145,669
204,246	-5,110	298,264	145,463
205,261	-5,103	298,260	145,456
206,275	-5,208	298,094	145,256
207,290	-5,102	297,849	145,230
208,304	-5,016	297,478	145,123
209,319	-4,981	297,325	145,071
210,334	-5,069	297,168	144,893
211,348	-5,025	296,893	144,789
212,363	-5,086	296,775	144,658
213,377	-5,088	296,600	144,558
214,392	-5,075	296,343	144,433
215,407	-4,953	296,123	144,435
216,421	-5,169	295,982	144,137
217,436	-5,074	295,669	144,067
218,450	-5,093	295,557	143,980
219,465	-5,241	295,447	143,767
220,480	-5,172	295,206	143,705
221,494	-5,076	294,842	143,611
222,509	-4,954	294,881	143,739
223,523	-5,171	294,649	143,396
224,538	-5,229	294,560	143,282
225,553	-5,168	294,296	143,202
226,567	-5,054	294,038	143,177
227,582	-4,938	293,714	143,121
228,596	-4,994	293,750	143,071
229,611	-5,009	293,390	142,868
230,626	-5,164	293,395	142,704
231,640	-5,190	293,163	142,553
232,655	-5,087	292,844	142,487
233,669	-4,959	292,720	142,540
234,684	-4,952	292,389	142,374
235,699	-4,921	292,214	142,306
236,713	-4,921	291,905	142,143
237,728	-4,841	291,797	142,157
238,742	-5,049	291,694	141,889
239,757	-4,941	291,390	141,835
240,772	-4,995	291,327	141,737
241,786	-5,100	291,056	141,490
242,801	-5,125	290,924	141,389
243,815	-4,887	290,624	141,464
244,830	-5,094	290,496	141,186
245,844	-5,044	290,476	141,213
246,859	-4,967	290,126	141,106
247,874	-4,901	289,889	141,043
248,888	-4,938	289,663	140,884
249,903	-5,029	289,533	140,718
250,917	-4,985	289,332	140,651
251,932	-4,966	289,189	140,588
252,947	-5,248	289,117	140,265
253,961	-5,360	288,673	139,928
254,976	-5,573	288,237	139,497
255,990	-5,564	288,283	139,516
257,005	-3,776	288,889	141,538
258,020	-1,393	289,613	144,205
259,034	-0,073	290,042	145,694
260,049	0,452	289,822	146,082
261,063	0,639	290,080	146,381
262,078	1,117	289,856	146,720
263,093	1,306	289,817	146,872
264,107	1,658	289,702	147,142
265,122	1,612	289,689	147,079
266,136	1,647	289,470	146,988
267,151	1,804	289,339	147,061
268,166	2,034	289,015	147,105
269,180	1,811	288,833	146,785
270,195	1,910	288,637	146,767
271,209	1,707	288,584	146,531
272,224	1,923	288,351	146,608
273,239	2,004	288,005	146,497
274,253	1,814	287,851	146,223
275,268	1,650	287,771	146,010
276,282	1,700	287,420	145,868
277,297	1,775	287,289	145,860
278,312	1,680	287,050	145,634
279,326	1,677	287,140	145,665
280,341	1,863	286,707	145,611
281,355	1,771	286,611	145,460
282,370	1,641	286,357	145,193
283,384	1,783	286,247	145,261
284,399	1,783	285,980	145,113
285,414	1,658	285,818	144,898
286,428	1,620	285,615	144,746
287,443	1,629	285,539	144,703
288,457	1,589	285,101	144,429
289,472	1,481	285,052	144,290
290,487	1,572	284,894	144,283
291,501	1,522	284,711	144,130
292,516	1,689	284,421	144,129
293,530	1,661	284,269	144,013
294,545	1,645	284,093	143,895
295,560	1,693	283,976	143,869
296,574	1,488	283,825	143,585
297,589	1,517	283,602	143,487
298,603	1,516	283,257	143,298
299,618	1,578	283,247	143,339
300,633	1,534	283,124	143,223
301,647	1,725	282,768	143,211
302,662	1,757	282,717	143,202
303,676	1,795	282,624	143,179
304,691	1,748	282,288	142,951
305,706	1,708	282,195	142,854
306,720	1,638	282,159	142,757
307,735	1,682	281,934	142,671
308,749	1,707	281,619	142,523
309,764	1,741	281,420	142,441
310,779	1,808	281,185	142,372
311,793	1,705	281,047	142,193
312,808	1,528	280,909	141,945
313,822	1,739	280,645	141,996
314,837	1,719	280,474	141,879
315,852	1,549	280,260	141,599
316,866	1,597	280,283	141,642
317,881	1,771	279,962	141,631
318,895	1,780	279,777	141,533
319,910	1,638	279,657	141,326
320,925	1,762	279,381	141,290
321,939	1,664	279,355	141,173
322,954	1,698	279,187	141,107
323,968	1,744	278,866	140,975
324,983	1,776	278,788	140,953
325,997	1,649	278,683	140,769
327,012	1,689	278,338	140,620
328,027	1,807	278,271	140,683
329,041	2,030	278,024	140,753
330,056	1,947	277,867	140,583
331,070	1,893	277,567	140,368
332,085	1,928	277,557	140,384
333,100	1,871	277,240	140,158
334,114	1,711	277,082	139,917
335,129	1,842	276,978	139,974
336,143	1,835	276,763	139,846
337,158	1,951	276,529	139,822
338,173	2,092	276,357	139,853
339,187	2,049	276,231	139,738
340,202	1,816	276,077	139,432
341,216	1,848	275,871	139,345
342,231	1,650	275,870	139,150
343,246	1,767	275,572	139,095
344,260	1,736	275,438	138,987
345,275	1,897	275,253	139,029
346,289	2,017	275,153	139,076
347,304	1,923	274,866	138,832
348,319	1,891	274,814	138,764
349,333	2,008	274,396	138,648
350,348	1,919	274,365	138,538
351,362	1,730	274,364	138,353
352,377	1,785	274,179	138,297
353,392	1,956	273,864	138,282
354,406	1,946	273,687	138,171
355,421	192,347	1348,457	1429,899
356,435	155,355	1479,480	1429,992
