DTS Sentinel unit serial number:	SN410029Multiplexer serial number:	ORYXHardware model number:	OX2-SRSoftware version number:	ORYX F/W v4,00 Oryx Data Collector v3.7.2.0data status	okinstallation	B4 Nyhavnadifferential loss correction	single-endedforward channel	channel 2reverse channel	N/Adate	2023/12/16time	04:35:13forward acquisition time	300,00reverse acquisition time	0,00gamma	499,1914k internal	0,3128k external	0,3128temperature offset calibration	1,0000default loss term (dB/km)	0,3820temperature slope calibration	1,0000multiplexer offset coefficient	1,0000multiplexer slope coefficient	1,0000fibre end	0,00T internal ref (°C)	22,00T ext. ref 1 (°C)	7,22T ext. ref 2 (°C)	7,39length (m)	temperature (°C)	Stokes	anti-Stokes-744,400	45,823	-0,075	0,052
-743,385	24,972	-0,212	0,131
-742,371	-200,000	-0,000	0,004
-741,356	47,682	-0,244	0,169
-740,342	-200,000	0,010	0,065
-739,327	64,185	-0,202	0,151
-738,312	340,008	-0,063	0,091
-737,298	66,915	-0,227	0,172
-736,283	-44,527	0,156	-0,058
-735,269	54,684	-0,236	0,169
-734,254	-32,081	-0,045	-0,019
-733,239	-32,612	-0,339	-0,140
-732,225	249,291	0,068	-0,086
-731,210	800,000	-0,039	0,117
-730,196	111,812	-0,091	-0,082
-729,181	-76,179	-0,133	0,035
-728,167	-193,575	0,037	-0,000
-727,152	-200,000	0,006	-0,098
-726,137	-187,274	-0,057	-0,001
-725,123	-94,015	0,072	-0,015
-724,108	-62,738	-0,066	-0,020
-723,094	800,000	-0,077	-0,215
-722,079	17,373	0,006	-0,003
-721,064	-200,000	-0,000	-0,020
-720,050	-200,000	-0,011	-0,140
-719,035	-126,436	0,095	0,010
-718,021	-68,326	-0,064	-0,018
-717,006	265,633	-0,023	0,030
-715,991	800,000	-0,065	-0,135
-714,977	800,000	0,022	-0,048
-713,962	129,894	0,022	0,021
-712,948	56,314	0,036	0,026
-711,933	-200,000	0,000	-0,013
-710,918	312,203	0,024	0,033
-709,904	-12,871	0,015	0,007
-708,889	800,000	-0,034	-0,084
-707,875	-200,000	0,014	-0,124
-706,860	28,677	0,042	-0,026
-705,845	79,433	-0,083	0,066
-704,831	33,419	-0,053	-0,034
-703,816	56,928	0,086	-0,062
-702,802	692,998	0,016	-0,032
-701,787	-3,138	-0,043	0,022
-700,772	265,520	-0,070	0,091
-699,758	-1,069	-0,093	-0,049
-698,743	559,649	0,056	0,101
-697,729	120,363	0,079	0,073
-696,714	332,853	0,039	0,057
-695,699	-107,614	0,228	0,037
-694,685	-43,928	-0,046	0,017
-693,670	109,052	-0,080	-0,071
-692,656	84,873	0,053	0,043
-691,641	-200,000	0,002	-0,052
-690,627	-107,878	0,007	0,001
-689,612	800,000	0,030	0,077
-688,597	-83,819	-0,065	0,015
-687,583	394,321	-0,073	-0,114
-686,568	-5,791	-0,054	0,027
-685,554	-66,448	0,105	0,031
-684,539	-131,341	0,018	-0,002
-683,524	190,177	0,113	-0,126
-682,510	-177,273	-0,117	0,002
-681,495	-200,000	-0,001	-0,071
-680,481	-199,191	0,073	-0,000
-679,466	117,436	-0,085	-0,078
-678,451	-99,085	-0,105	0,020
-677,437	113,435	0,110	0,099
-676,422	-50,256	-0,034	-0,012
-675,408	800,000	-0,038	-0,106
-674,393	487,495	-0,027	-0,046
-673,378	51,673	-0,129	0,091
-672,364	-200,000	0,008	-0,098
-671,349	766,812	-0,021	-0,042
-670,335	126,085	0,110	-0,103
-669,320	800,000	-0,040	0,101
-668,305	254,137	0,044	0,055
-667,291	83,261	-0,153	-0,124
-666,276	121,985	0,040	-0,037
-665,262	207,913	-0,048	-0,056
-664,247	-110,210	-0,069	0,011
-663,232	-200,000	0,005	-0,066
-662,218	-133,902	-0,099	-0,009
-661,203	404,251	0,047	0,074
-660,189	109,383	-0,084	-0,075
-659,174	-131,789	0,016	-0,002
-658,159	226,438	-0,045	-0,054
-657,145	137,036	0,098	-0,095
-656,130	624,148	0,032	-0,060
-655,116	-200,000	-0,017	0,071
-654,101	215,482	-0,035	0,041
-653,086	-200,000	0,006	-0,070
-652,072	562,418	-0,042	0,076
-651,057	183,047	-0,095	-0,104
-650,043	714,651	-0,068	0,134
-649,028	-200,000	0,010	-0,069
-648,014	-84,722	-0,097	0,022
-646,999	68,187	-0,093	0,071
-645,984	800,000	-0,070	-0,188
-644,970	43,496	0,066	0,045
-643,955	228,128	-0,047	0,057
-642,941	-3,486	0,053	-0,027
-641,926	-29,343	0,058	-0,024
-640,911	-39,763	-0,083	0,032
-639,897	-200,000	0,025	0,084
-638,882	800,000	-0,021	-0,064
-637,868	153,348	0,102	0,103
-636,853	800,000	0,035	-0,084
-635,838	-200,000	0,000	-0,085
-634,824	-50,730	0,016	-0,005
-633,809	-200,000	-0,005	-0,110
-632,795	-24,933	0,056	0,025
-631,780	74,207	-0,112	0,087
-630,765	-56,862	-0,195	0,063
-629,751	-1,214	-0,055	-0,029
-628,736	800,000	-0,047	-0,148
-627,722	109,229	0,128	0,114
-626,707	800,000	0,029	-0,063
-625,692	-9,710	0,071	-0,035
-624,678	-200,000	-0,010	0,118
-623,663	-200,000	0,007	-0,098
-622,649	-80,693	0,020	0,005
-621,634	800,000	0,064	-0,150
-620,619	-174,572	-0,104	0,002
-619,605	71,892	0,169	0,130
-618,590	-143,465	0,028	-0,002
-617,576	21,456	0,056	-0,034
-616,561	-182,100	-0,025	-0,000
-615,546	102,861	0,051	-0,044
-614,532	-200,000	0,011	-0,062
-613,517	-10,412	-0,183	0,090
-612,503	-158,061	0,190	-0,008
-611,488	66,108	-0,117	0,088
-610,474	-158,678	-0,068	-0,003
-609,459	-66,919	-0,048	0,014
-608,444	-85,616	0,192	-0,044
-607,430	11,999	-0,021	0,012
-606,415	-200,000	-0,002	0,125
-605,401	-72,277	-0,131	0,036
-604,386	-200,000	-0,007	-0,043
-603,371	386,465	0,042	0,064
-602,357	602,802	0,029	-0,054
-601,342	-147,404	-0,153	-0,009
-600,328	-76,670	-0,161	-0,042
-599,313	-42,179	0,011	0,004
-598,298	693,737	-0,023	-0,045
-597,284	260,040	-0,128	-0,164
-596,269	-62,217	-0,059	0,018
-595,255	800,000	0,048	0,103
-594,240	-200,000	-0,037	-0,122
-593,225	-21,331	-0,113	-0,051
-592,211	610,191	-0,061	-0,113
-591,196	159,243	0,049	-0,051
-590,182	101,688	0,118	0,102
-589,167	-141,157	-0,048	0,004
-588,152	800,000	0,057	-0,120
-587,138	-200,000	-0,040	-0,195
-586,123	-200,000	-0,026	-0,085
-585,109	59,003	0,071	-0,052
-584,094	-200,000	-0,002	-0,050
-583,079	800,000	-0,046	0,100
-582,065	-81,425	0,249	-0,060
-581,050	491,845	-0,078	0,133
-580,036	-175,556	-0,054	0,001
-579,021	157,763	-0,119	-0,122
-578,006	227,086	-0,049	-0,059
-576,992	517,556	-0,049	-0,085
-575,977	422,056	-0,069	-0,109
-574,963	800,000	0,053	0,170
-573,948	-134,967	0,102	0,009
-572,934	145,475	-0,030	0,029
-571,919	24,333	-0,139	-0,085
-570,904	439,104	-0,041	-0,067
-569,890	-52,486	0,072	0,024
-568,875	-200,000	-0,009	0,165
-567,861	-200,000	-0,013	-0,056
-566,846	-200,000	-0,004	0,013
-565,831	-135,649	-0,035	-0,003
-564,817	-32,629	0,052	-0,021
-563,802	117,439	0,069	-0,063
-562,788	-62,992	0,079	-0,024
-561,773	-200,000	0,017	-0,077
-560,758	177,423	-0,037	0,040
-559,744	116,802	-0,046	-0,041
-558,729	453,464	0,041	0,068
-557,715	-157,561	0,187	-0,008
-556,700	-90,602	0,029	0,006
-555,685	-29,697	-0,120	0,050
-554,671	473,390	-0,007	-0,012
-553,656	800,000	0,045	0,097
-552,642	298,238	0,052	0,071
-551,627	-133,869	0,088	0,008
-550,612	120,652	-0,146	-0,134
-549,598	-200,000	0,013	0,061
-548,583	392,194	-0,064	-0,098
-547,569	800,000	-0,025	-0,057
-546,554	-179,133	0,024	-0,000
-545,539	-38,901	0,094	0,036
-544,525	-8,774	0,123	-0,061
-543,510	-200,000	0,018	0,153
-542,496	800,000	-0,082	0,189
-541,481	-200,000	0,009	0,049
-540,466	-200,000	0,006	0,075
-539,452	-200,000	0,022	-0,107
-538,437	35,336	-0,046	-0,030
-537,423	599,419	0,013	-0,024
-536,408	-119,409	-0,093	0,012
-535,393	800,000	0,033	-0,076
-534,379	-37,370	-0,096	-0,038
-533,364	800,000	0,007	0,020
-532,350	564,976	-0,010	0,019
-531,335	7,400	-0,108	0,060
-530,321	-200,000	-0,040	0,138
-529,306	800,000	-0,040	-0,103
-528,291	-88,501	-0,239	0,052
-527,277	50,493	0,058	-0,040
-526,262	-200,000	-0,037	-0,153
-525,248	800,000	0,015	0,043
-524,233	-115,393	0,150	-0,021
-523,218	-102,158	0,052	-0,009
-522,204	-109,180	-0,119	-0,019
-521,189	-30,118	0,081	0,034
-520,175	-200,000	-0,045	-0,178
-519,160	587,486	0,033	0,060
-518,145	-52,819	0,075	-0,025
-517,131	-21,947	-0,035	0,016
-516,116	-0,141	-0,021	0,011
-515,102	800,000	-0,030	-0,085
-514,087	800,000	-0,049	-0,103
-513,072	92,039	-0,072	0,060
-512,058	-88,533	-0,004	0,001
-511,043	150,274	-0,091	0,091
-510,029	75,406	0,055	-0,043
-509,014	445,880	-0,049	-0,079
-507,999	-121,574	-0,043	-0,005
-506,985	-71,150	-0,106	0,029
-505,970	-200,000	0,012	-0,079
-504,956	-26,583	-0,123	-0,053
-503,941	-200,000	-0,009	0,125
-502,926	-7,547	0,041	-0,021
-501,912	800,000	0,024	-0,071
-500,897	65,268	0,046	-0,034
-499,883	-47,741	-0,097	-0,035
-498,868	-0,162	-0,132	-0,069
-497,853	174,831	-0,040	0,043
-496,839	-164,540	0,095	0,003
-495,824	346,969	0,018	-0,026
-494,810	146,135	0,117	-0,116
-493,795	473,554	-0,014	0,023
-492,781	-200,000	0,003	0,013
-491,766	-38,102	-0,041	0,016
-490,751	71,435	-0,059	-0,045
-489,737	98,477	0,039	-0,033
-488,722	-61,790	0,154	0,047
-487,708	520,995	0,076	0,132
-486,693	-157,136	0,139	0,006
-485,678	-27,558	0,064	-0,027
-484,664	-44,073	-0,049	-0,018
-483,649	-120,968	-0,047	-0,006
-482,635	800,000	-0,042	0,101
-481,620	-200,000	0,001	0,068
-480,605	666,809	-0,146	0,278
-479,591	180,586	-0,069	0,074
-478,576	125,419	0,020	0,018
-477,562	-35,030	-0,064	0,026
-476,547	-165,059	0,047	0,001
-475,532	-200,000	0,008	-0,109
-474,518	91,245	0,074	0,062
-473,503	800,000	0,008	0,024
-472,489	-97,558	0,104	-0,020
-471,474	-200,000	-0,020	-0,106
-470,459	13,311	0,029	-0,017
-469,445	-200,000	-0,000	0,049
-468,430	-138,045	-0,059	-0,005
-467,416	-114,680	-0,216	-0,030
-466,401	-26,739	0,030	-0,013
-465,386	337,056	-0,030	-0,043
-464,372	-200,000	0,007	-0,042
-463,357	176,784	-0,114	-0,122
-462,343	108,062	-0,117	-0,103
-461,328	-200,000	0,023	-0,117
-460,313	338,782	-0,012	0,017
-459,299	-121,902	0,209	-0,025
-458,284	-60,276	0,061	0,019
-457,270	-8,789	0,113	0,056
-456,255	-52,117	0,046	0,016
-455,241	800,000	0,024	0,064
-454,226	-135,630	-0,066	0,006
-453,211	-68,033	0,090	0,026
-452,197	115,281	0,064	-0,058
-451,182	-53,469	0,089	-0,030
-450,168	52,927	-0,037	0,026
-449,153	800,000	-0,058	0,139
-448,138	-200,000	-0,006	-0,211
-447,124	758,384	0,067	0,135
-446,109	74,012	-0,046	0,036
-445,095	140,201	0,053	-0,052
-444,080	12,735	0,014	0,008
-443,065	-200,000	0,014	0,053
-442,051	782,054	-0,052	-0,105
-441,036	337,946	0,021	0,030
-440,022	800,000	-0,029	0,072
-439,007	-71,004	0,115	-0,031
-437,992	-24,936	0,103	0,045
-436,978	170,042	0,052	0,055
-435,963	-200,000	0,027	0,140
-434,949	-97,654	-0,058	-0,011
-433,934	493,847	-0,062	0,106
-432,919	217,798	0,091	0,106
-431,905	-200,000	-0,035	0,144
-430,890	445,141	0,015	0,024
-429,876	-200,000	-0,006	0,046
-428,861	-106,859	0,103	0,017
-427,846	-200,000	0,014	0,071
-426,832	-200,000	-0,051	-0,207
-425,817	231,176	-0,101	-0,122
-424,803	800,000	-0,021	-0,055
-423,788	-121,139	0,050	-0,006
-422,773	-200,000	-0,002	-0,024
-421,759	-152,231	-0,148	0,008
-420,744	-3,917	-0,041	-0,021
-419,730	-200,000	-0,014	-0,192
-418,715	-74,290	0,112	-0,029
-417,701	800,000	-0,061	-0,165
-416,686	800,000	0,048	-0,141
-415,671	-200,000	0,002	-0,042
-414,657	617,904	0,075	0,139
-413,642	-75,717	-0,046	0,012
-412,628	58,295	-0,055	-0,040
-411,613	57,637	-0,078	-0,056
-410,598	-111,961	0,049	0,007
-409,584	-95,053	0,064	-0,013
-408,569	800,000	-0,032	0,083
-407,555	135,658	0,131	0,125
-406,540	-141,950	0,056	0,004
-405,525	46,126	0,036	0,024
-404,511	-169,780	0,032	-0,001
-403,496	-57,768	0,047	0,015
-402,482	225,586	0,048	-0,057
-401,467	-169,961	0,033	0,001
-400,452	-131,271	0,084	0,008
-399,438	-200,000	0,002	0,067
-398,423	46,136	-0,161	-0,109
-397,409	-200,000	0,008	-0,136
-396,394	800,000	-0,041	-0,117
-395,379	-200,000	-0,008	-0,058
-394,365	483,233	0,051	-0,086
-393,350	-200,000	-0,019	0,075
-392,336	138,136	-0,027	-0,026
-391,321	-200,000	-0,001	0,017
-390,306	-71,505	-0,041	0,011
-389,292	182,204	0,072	-0,078
-388,277	-200,000	-0,014	-0,200
-387,263	116,799	0,134	0,121
-386,248	-200,000	-0,012	0,141
-385,233	89,851	-0,107	-0,088
-384,219	-66,148	-0,050	0,015
-383,204	-94,208	0,078	0,016
-382,190	0,976	-0,073	0,038
-381,175	-200,000	-0,030	0,129
-380,160	800,000	0,042	0,122
-379,146	324,703	0,027	0,039
-378,131	800,000	0,006	0,020
-377,117	1,515	0,087	0,046
-376,102	-200,000	-0,027	-0,148
-375,088	150,331	0,023	0,023
-374,073	-109,662	0,080	-0,012
-373,058	-1,859	0,172	-0,088
-372,044	-200,000	0,025	-0,095
-371,029	326,144	0,050	-0,071
-370,015	-200,000	-0,013	-0,082
-369,000	-200,000	0,008	0,083
-367,985	601,882	0,069	0,126
-366,971	-34,604	0,116	0,046
-365,956	247,761	-0,038	-0,047
-364,942	-65,667	0,115	-0,034
-363,927	-37,460	-0,057	-0,022
-362,912	123,418	-0,077	-0,071
-361,898	-200,000	-0,003	0,121
-360,883	118,720	0,006	-0,006
-359,869	-200,000	-0,003	-0,050
-358,854	172,589	-0,035	0,037
-357,839	-29,990	0,064	0,027
-356,825	-123,510	-0,106	-0,012
-355,810	-154,283	-0,134	0,007
-354,796	-90,727	0,044	0,009
-353,781	404,524	-0,035	-0,055
-352,766	305,664	0,038	0,051
-351,752	-98,126	0,034	-0,006
-350,737	704,276	-0,024	0,047
-349,723	-136,952	0,076	0,006
-348,708	-116,215	0,108	0,014
-347,693	170,086	0,032	-0,034
-346,679	144,594	-0,049	-0,048
-345,664	-200,000	-0,008	0,063
-344,650	-10,522	0,044	-0,021
-343,635	2,837	0,023	0,012
-342,620	-200,000	0,011	0,135
-341,606	800,000	-0,064	0,141
-340,591	-48,527	-0,055	0,019
-339,577	800,000	-0,013	0,042
-338,562	-75,069	-0,122	0,032
-337,548	397,491	-0,063	0,098
-336,533	146,829	0,167	0,165
-335,518	800,000	0,049	0,139
-334,504	-70,604	0,122	0,033
-333,489	-62,166	0,116	-0,035
-332,475	-200,000	-0,006	-0,097
-331,460	800,000	0,007	0,020
-330,445	173,837	-0,065	0,069
-329,431	-200,000	-0,020	0,154
-328,416	-176,710	-0,035	0,001
-327,402	800,000	0,046	0,106
-326,387	-117,245	-0,044	0,006
-325,372	-90,148	-0,042	0,009
-324,358	399,863	0,016	0,025
-323,343	-156,299	0,112	-0,005
-322,329	-200,000	-0,005	0,033
-321,314	67,213	0,123	0,091
-320,299	347,293	0,077	0,111
-319,285	-200,000	-0,007	0,087
-318,270	800,000	-0,040	0,123
-317,256	200,455	0,081	-0,091
-316,241	-118,984	-0,043	-0,005
-315,226	800,000	0,043	-0,093
-314,212	250,463	0,082	0,102
-313,197	195,659	0,059	-0,066
-312,183	-200,000	-0,026	0,114
-311,168	-200,000	-0,017	0,057
-310,153	-200,000	-0,015	-0,083
-309,139	28,359	-0,067	-0,042
-308,124	-200,000	-0,007	-0,026
-307,110	-72,655	0,087	0,023
-306,095	141,264	0,081	0,079
-305,080	204,581	-0,055	0,063
-304,066	-200,000	0,031	-0,156
-303,051	22,443	0,067	-0,040
-302,037	28,674	0,091	0,056
-301,022	36,605	-0,071	0,046
-300,008	165,777	-0,045	-0,046
-298,993	-200,000	-0,010	-0,071
-297,978	53,786	0,084	0,059
-296,964	663,092	-0,062	0,118
-295,949	-138,227	-0,101	0,008
-294,935	800,000	-0,002	-0,005
-293,920	-200,000	-0,026	0,163
-292,905	94,996	-0,020	0,016
-291,891	223,959	0,041	-0,049
-290,876	-10,908	0,072	0,035
-289,862	124,558	-0,118	-0,109
-288,847	-10,606	0,015	-0,007
-287,832	106,758	-0,051	0,044
-286,818	21,521	0,048	-0,029
-285,803	151,565	0,084	0,083
-284,789	-151,846	0,137	-0,007
-283,774	800,000	0,056	0,148
-282,759	-200,000	0,015	-0,100
-281,745	237,970	0,060	0,073
-280,730	195,451	0,079	0,088
-279,716	-9,095	0,106	0,051
-278,701	-200,000	0,011	0,071
-277,686	292,366	0,027	-0,036
-276,672	-160,945	0,116	0,004
-275,657	-200,000	-0,008	-0,058
-274,643	-18,999	0,028	-0,013
-273,628	44,387	-0,109	-0,073
-272,613	304,040	-0,085	-0,116
-271,599	-200,000	-0,022	0,099
-270,584	-107,303	-0,034	0,005
-269,570	282,587	0,079	0,104
-268,555	62,329	0,068	0,050
-267,540	47,754	0,041	-0,028
-266,526	-200,000	0,022	-0,101
-265,511	149,320	0,035	-0,035
-264,497	-55,370	-0,073	-0,024
-263,482	106,422	0,075	0,065
-262,467	175,947	0,082	0,087
-261,453	-200,000	-0,012	-0,160
-260,438	-200,000	0,028	-0,164
-259,424	147,439	-0,036	-0,035
-258,409	53,616	0,019	-0,013
-257,395	-100,865	-0,088	0,016
-256,380	-4,419	0,054	-0,027
-255,365	-200,000	0,017	0,188
-254,351	78,281	-0,062	0,049
-253,336	230,186	-0,022	0,026
-252,322	-200,000	0,023	0,074
-251,307	-200,000	-0,006	-0,092
-250,292	-128,880	-0,051	0,005
-249,278	-200,000	0,009	0,134
-248,263	-85,701	0,092	0,021
-247,249	-160,062	-0,056	-0,002
-246,234	-200,000	0,009	-0,090
-245,219	81,026	-0,187	0,147
-244,205	-103,888	-0,030	-0,005
-243,190	323,396	0,021	-0,030
-242,176	351,831	-0,018	0,027
-241,161	-200,000	-0,001	-0,065
-240,146	-79,200	-0,089	0,022
-239,132	-106,440	-0,159	0,026
-238,117	800,000	0,017	-0,052
-237,103	800,000	-0,040	0,093
-236,088	-200,000	-0,022	0,186
-235,073	-200,000	-0,004	0,083
-234,059	6,758	0,062	0,034
-233,044	31,587	-0,061	0,038
-232,030	139,217	-0,018	0,017
-231,015	-200,000	0,019	-0,215
-230,000	800,000	-0,060	-0,174
-228,986	-200,000	0,012	-0,068
-227,971	-103,500	0,020	-0,003
-226,957	800,000	-0,056	0,145
-225,942	-200,000	0,004	0,025
-224,927	63,383	0,127	-0,093
-223,913	-72,637	-0,035	-0,009
-222,898	451,190	-0,066	-0,107
-221,884	-137,838	-0,048	0,004
-220,869	-200,000	0,007	0,099
-219,855	41,630	0,170	0,112
-218,840	85,166	-0,147	0,118
-217,825	-200,000	0,009	-0,142
-216,811	-31,931	-0,077	-0,031
-215,796	-200,000	0,020	0,113
-214,782	155,074	0,051	-0,051
-213,767	0,231	-0,134	0,070
-212,752	-69,549	-0,020	0,005
-211,738	355,468	0,046	0,066
-210,723	800,000	-0,024	-0,060
-209,709	-133,932	0,135	-0,012
-208,694	800,000	0,047	-0,117
-207,679	188,845	-0,050	0,054
-206,665	-200,000	0,004	0,055
-205,650	53,965	0,051	0,035
-204,636	50,149	0,070	-0,048
-203,621	257,659	-0,093	0,117
-202,606	766,574	0,061	0,122
-201,592	-61,562	-0,100	0,030
-200,577	105,147	-0,026	-0,023
-199,563	800,000	-0,007	0,018
-198,548	114,046	-0,052	0,046
-197,533	800,000	-0,033	-0,085
-196,519	800,000	-0,051	0,159
-195,504	-150,615	0,070	0,004
-194,490	-173,073	-0,108	0,002
-193,475	71,270	-0,168	-0,127
-192,460	37,637	-0,029	-0,019
-191,446	54,392	-0,086	-0,060
-190,431	800,000	-0,009	-0,026
-189,417	63,877	0,101	0,074
-188,402	-28,164	-0,113	-0,047
-187,387	7,636	-0,118	0,064
-186,373	236,139	0,054	-0,065
-185,358	-200,000	-0,013	-0,127
-184,344	569,851	-0,039	0,070
-183,329	7,614	0,125	0,068
-182,315	320,215	-0,047	-0,065
-181,300	-200,000	0,004	0,047
-180,285	60,674	-0,066	-0,047
-179,271	800,000	0,034	0,077
-178,256	-200,000	-0,017	-0,071
-177,242	17,745	0,087	-0,050
-176,227	-200,000	0,013	-0,064
-175,212	-148,365	-0,058	-0,003
-174,198	-24,622	-0,080	-0,035
-173,183	800,000	-0,025	0,055
-172,169	-200,000	0,017	0,069
-171,154	-28,975	0,096	-0,040
-170,139	497,517	-0,073	0,122
-169,125	185,636	0,071	-0,077
-168,110	800,000	0,010	0,023
-167,096	-200,000	-0,043	0,153
-166,081	-2,480	0,192	-0,098
-165,066	3,699	-0,248	-0,131
-164,052	-200,000	-0,009	-0,061
-163,037	-200,000	-0,015	-0,122
-162,023	-57,813	0,070	0,022
-161,008	-10,091	0,106	0,051
-159,993	-98,651	-0,220	-0,040
-158,979	50,183	0,084	-0,057
-157,964	800,000	-0,037	-0,110
-156,950	-200,000	0,000	-0,154
-155,935	800,000	-0,058	-0,123
-154,920	55,316	0,016	-0,011
-153,906	800,000	0,039	-0,104
-152,891	-163,004	0,014	-0,000
-151,877	-62,522	0,048	-0,014
-150,862	4,904	-0,069	-0,037
-149,847	127,672	-0,094	-0,087
-148,833	-87,323	0,116	-0,025
-147,818	-113,600	0,137	0,019
-146,804	-200,000	-0,028	0,133
-145,789	-200,000	0,012	0,087
-144,775	22,606	-0,172	0,102
-143,760	-128,303	-0,081	0,008
-142,745	-41,222	0,040	0,015
-141,731	221,003	-0,058	-0,068
-140,716	261,105	-0,117	0,147
-139,702	-200,000	-0,008	0,027
-138,687	0,219	-0,092	0,048
-137,672	2,256	0,059	0,031
-136,658	-200,000	-0,000	-0,072
-135,643	146,985	0,008	0,008
-134,629	-200,000	0,028	0,152
-133,614	-47,202	-0,135	0,048
-132,599	69,152	0,094	0,070
-131,585	-200,000	0,047	0,196
-130,570	245,511	-0,038	0,046
-129,556	800,000	-0,019	-0,039
-128,541	-116,877	-0,047	-0,006
-127,526	-109,306	0,088	0,013
-126,512	143,149	-0,012	0,011
-125,497	145,034	0,104	0,101
-124,483	-200,000	-0,000	-0,099
-123,468	-45,411	-0,108	0,039
-122,453	-200,000	0,018	-0,074
-121,439	388,599	-0,067	0,101
-120,424	-4,596	-0,054	0,027
-119,410	-200,000	-0,007	0,052
-118,395	-101,505	0,057	0,010
-117,380	-37,115	0,037	-0,014
-116,366	-129,033	0,054	0,005
-115,351	435,068	-0,072	-0,114
-114,337	-64,837	-0,067	0,019
-113,322	734,582	0,021	-0,041
-112,307	-7,390	-0,091	-0,044
-111,293	-200,000	-0,009	0,031
-110,278	25,295	0,033	0,020
-109,264	104,722	0,050	0,043
-108,249	-200,000	0,002	0,088
-107,234	-10,783	0,084	0,040
-106,220	529,933	-0,073	0,126
-105,205	149,873	0,076	0,075
-104,191	91,078	0,041	-0,034
-103,176	-39,874	0,123	0,046
-102,162	-200,000	0,008	0,127
-101,147	-148,194	-0,041	-0,002
-100,132	188,511	0,120	-0,131
-99,118	-81,834	0,126	-0,030
-98,103	290,575	0,059	0,078
-97,089	9,315	0,076	0,041
-96,074	91,109	0,051	0,042
-95,059	34,592	0,009	-0,006
-94,045	800,000	-0,039	0,085
-93,030	64,066	0,067	-0,049
-92,016	53,827	-0,072	0,050
-91,001	-56,517	-0,053	-0,017
-89,986	114,000	-0,032	-0,028
-88,972	26,393	0,059	-0,036
-87,957	605,405	-0,030	0,054
-86,943	288,803	0,036	0,047
-85,928	642,627	-0,043	0,079
-84,913	317,627	-0,058	0,080
-83,899	-74,177	0,106	0,028
-82,884	-76,025	0,156	-0,040
-81,870	-39,767	-0,140	0,053
-80,855	-69,640	-0,153	-0,042
-79,840	-11,435	0,063	-0,030
-78,826	537,272	-0,011	0,019
-77,811	208,311	-0,059	0,067
-76,797	16,493	0,045	0,026
-75,782	-200,000	-0,006	-0,026
-74,767	-62,497	-0,061	0,018
-73,753	800,000	0,018	-0,046
-72,738	130,658	-0,057	-0,053
-71,724	162,020	0,076	-0,077
-70,709	-119,632	-0,057	0,007
-69,694	-84,853	-0,117	0,026
-68,680	95,240	-0,104	0,086
-67,665	86,680	0,067	0,053
-66,651	567,672	-0,107	0,190
-65,636	-58,891	0,122	-0,038
-64,622	-75,844	-0,072	0,018
-63,607	22,357	-0,076	-0,045
-62,592	-200,000	-0,014	-0,102
-61,578	99,749	-0,118	0,099
-60,563	504,998	-0,029	0,049
-59,549	800,000	-0,054	0,123
-58,534	-148,006	-1,316	-0,078
-57,519	433,918	-0,929	-1,467
-56,505	-200,000	-0,838	-4,400
-55,490	-83,948	0,505	-0,116
-54,476	800,000	4,748	11,447
-53,461	-200,000	14,054	252,580
-52,446	-200,000	693,453	2244,008
-51,432	583,187	1622,600	2897,206
-50,417	117,925	1631,467	1455,916
-49,403	73,936	1286,172	976,297
-48,388	37,773	1022,584	656,624
-47,373	23,973	980,964	584,613
-46,359	23,247	970,263	575,836
-45,344	22,242	965,939	569,974
-44,330	22,249	964,563	569,161
-43,315	22,059	963,143	567,684
-42,300	22,027	961,871	566,806
-41,286	22,066	961,144	566,483
-40,271	22,003	960,243	565,723
-39,257	22,028	959,106	565,115
-38,242	22,003	958,318	564,545
-37,227	21,949	957,496	563,864
-36,213	21,999	956,435	563,379
-35,198	21,972	955,735	562,858
-34,184	22,073	954,901	562,670
-33,169	21,992	954,098	561,912
-32,154	22,049	953,229	561,560
-31,140	22,097	952,168	561,070
-30,125	22,103	951,501	560,673
-29,111	22,083	950,737	560,136
-28,096	22,023	949,999	559,487
-27,082	22,085	949,398	559,309
-26,067	22,028	948,488	558,569
-25,052	22,085	947,720	558,276
-24,038	22,003	947,245	557,712
-23,023	22,063	946,591	557,495
-22,009	22,023	945,867	556,920
-20,994	22,098	945,254	556,778
-19,979	22,039	944,771	556,282
-18,965	22,095	943,833	555,886
-17,950	22,048	943,370	555,441
-16,936	22,008	942,765	554,935
-15,921	21,962	942,106	554,379
-14,906	21,931	941,295	553,782
-13,892	21,912	940,574	553,277
-12,877	21,914	940,180	553,030
-11,863	21,880	939,474	552,485
-10,848	21,915	938,834	552,195
-9,833	22,022	938,588	552,370
-8,819	21,960	937,896	551,742
-7,804	21,916	937,137	551,137
-6,790	21,939	936,668	550,911
-5,775	21,976	935,931	550,571
-4,760	21,923	935,421	550,082
-3,746	21,885	934,743	549,542
-2,731	21,792	934,000	548,790
-1,717	21,692	933,643	548,245
-0,702	21,737	932,621	547,765
0,313	21,509	932,192	547,622
1,327	24,174	929,658	554,442
2,342	31,957	807,710	502,747
3,356	27,264	507,813	308,076
4,371	2,971	372,679	195,326
5,386	0,010	355,659	182,771
6,400	-1,553	349,323	177,622
7,415	-2,518	346,557	175,048
8,429	-2,737	345,006	173,989
9,444	-2,823	344,238	173,485
10,459	-2,651	343,328	173,214
11,473	-2,535	342,823	173,081
12,488	-2,315	342,281	173,050
13,502	-2,264	341,827	172,865
14,517	-2,389	341,324	172,449
15,531	-2,720	340,803	171,782
16,546	-2,679	340,249	171,535
17,561	-2,679	339,860	171,324
18,575	-2,619	339,381	171,138
19,590	-2,795	339,117	170,784
20,604	-2,584	338,787	170,849
21,619	-2,589	338,328	170,596
22,634	-2,572	337,957	170,413
23,648	-2,528	337,567	170,253
24,663	-2,604	337,252	169,990
25,677	-2,647	337,028	169,813
26,692	-2,622	336,740	169,682
27,707	-2,529	336,162	169,483
28,721	-2,580	336,104	169,380
29,736	-2,665	335,662	169,044
30,750	-2,718	335,389	168,830
31,765	-2,730	335,335	168,774
32,780	-2,655	334,928	168,641
33,794	-2,596	334,600	168,528
34,809	-2,675	334,298	168,270
35,823	-2,621	333,969	168,151
36,838	-2,724	333,724	167,895
37,853	-2,691	333,470	167,790
38,867	-2,821	333,183	167,482
39,882	-2,808	332,879	167,329
40,896	-2,668	332,603	167,335
41,911	-2,745	332,310	167,085
42,926	-2,668	331,997	167,000
43,940	-2,657	331,635	166,815
44,955	-2,843	331,487	166,515
45,969	-2,761	331,211	166,454
46,984	-2,907	330,865	166,100
47,999	-3,137	330,582	165,682
49,013	-3,137	330,185	165,468
50,028	-3,261	329,980	165,210
51,042	-3,339	329,717	164,976
52,057	-3,302	329,479	164,884
53,071	-3,273	329,245	164,785
54,086	-3,197	328,996	164,732
55,101	-3,200	328,814	164,623
56,115	-3,122	328,646	164,611
57,130	-2,518	328,344	165,125
58,144	-2,354	328,194	165,220
59,159	-2,667	328,096	164,804
60,174	-2,549	327,859	164,802
61,188	-2,526	327,530	164,648
62,203	-2,579	327,227	164,422
63,217	-2,571	326,942	164,273
64,232	-2,578	326,746	164,152
65,247	-2,383	326,418	164,191
66,261	-2,553	326,214	163,884
67,276	-2,696	325,935	163,569
68,290	-2,880	325,567	163,164
69,305	-2,889	325,370	163,041
70,320	-2,815	324,975	162,911
71,334	-2,750	324,868	162,916
72,349	-2,453	324,676	163,134
73,363	-2,582	324,437	162,857
74,378	-2,424	324,014	162,805
75,393	-2,468	323,933	162,701
76,407	-2,572	323,737	162,473
77,422	-2,724	323,512	162,177
78,436	-2,648	323,209	162,095
79,451	-2,530	322,881	162,046
80,466	-2,467	322,407	161,863
81,480	-2,780	322,245	161,422
82,495	-2,834	321,959	161,206
83,509	-2,817	321,802	161,132
84,524	-2,825	321,555	160,984
85,539	-2,949	321,271	160,692
86,553	-2,895	320,991	160,596
87,568	-2,968	320,842	160,428
88,582	-2,949	320,574	160,300
89,597	-2,904	320,285	160,190
90,611	-2,832	320,175	160,201
91,626	-2,672	319,976	160,261
92,641	-2,511	319,733	160,302
93,655	-2,616	319,378	159,995
94,670	-2,883	319,301	159,650
95,684	-2,811	318,978	159,553
96,699	-2,748	318,874	159,555
97,714	-2,684	318,454	159,401
98,728	-2,821	318,291	159,155
99,743	-3,009	318,076	158,829
100,757	-2,861	317,713	158,794
101,772	-2,931	317,516	158,606
102,787	-2,955	317,276	158,446
103,801	-2,933	317,150	158,393
104,816	-2,636	316,895	158,573
105,830	-2,660	316,851	158,511
106,845	-2,665	316,597	158,365
107,860	-2,685	316,290	158,175
108,874	-2,919	316,140	157,834
109,889	-2,628	315,673	157,900
110,903	-2,564	315,498	157,867
111,918	-2,875	315,406	157,472
112,933	-2,814	315,260	157,451
113,947	-2,526	314,869	157,551
114,962	-2,585	314,650	157,364
115,976	-2,633	314,439	157,193
116,991	-2,858	314,356	156,896
118,006	-2,758	313,978	156,800
119,020	-2,882	314,002	156,666
120,035	-2,702	313,907	156,797
121,049	-2,605	313,553	156,710
122,064	-2,657	313,139	156,433
123,079	-2,632	312,998	156,376
124,093	-2,707	312,786	156,175
125,108	-2,727	312,541	156,019
126,122	-2,900	312,103	155,601
127,137	-2,954	311,985	155,472
128,151	-2,964	311,755	155,333
129,166	-2,945	311,493	155,208
130,181	-2,887	311,178	155,099
131,195	-2,935	310,936	154,914
132,210	-2,852	310,785	154,913
133,224	-2,808	310,688	154,897
134,239	-2,842	310,530	154,769
135,254	-2,548	310,268	154,935
136,268	-2,804	309,954	154,494
137,283	-2,834	309,566	154,254
138,297	-2,994	309,394	153,987
139,312	-3,161	309,331	153,766
140,327	-2,729	309,006	154,046
141,341	-2,435	309,008	154,342
142,356	-2,639	308,964	154,091
143,370	-2,289	308,622	154,275
144,385	-2,271	308,442	154,189
145,400	-2,283	308,138	154,012
146,414	-2,298	308,114	153,970
147,429	-2,482	307,817	153,616
148,443	-2,397	307,707	153,636
149,458	-2,535	307,415	153,332
150,473	-2,377	307,159	153,355
151,487	-2,455	306,781	153,072
152,502	-2,444	306,679	153,019
153,516	-2,363	306,513	153,007
154,531	-2,364	306,288	152,879
155,546	-2,366	306,066	152,753
156,560	-2,582	305,794	152,380
157,575	-2,571	305,554	152,257
158,589	-2,432	305,359	152,291
159,604	-2,432	305,156	152,176
160,619	-2,382	304,893	152,083
161,633	-2,596	304,837	151,821
162,648	-2,585	304,650	151,724
163,662	-2,434	304,464	151,775
164,677	-2,506	304,150	151,530
165,692	-2,483	304,071	151,502
166,706	-2,348	303,787	151,485
167,721	-2,338	303,545	151,361
168,735	-2,521	303,446	151,110
169,750	-2,442	303,414	151,162
170,764	-2,433	303,132	151,017
171,779	-2,318	303,092	151,102
172,794	-2,187	302,625	150,991
173,808	-2,284	302,392	150,761
174,823	-2,792	302,111	150,087
175,837	-3,034	301,889	149,716
176,852	-2,775	302,054	150,049
177,867	-2,270	301,665	150,359
178,881	-2,276	301,472	150,244
179,896	-2,255	301,251	150,142
180,910	-2,165	301,081	150,135
181,925	-2,427	301,044	149,836
182,940	-2,115	300,589	149,914
183,954	-2,398	300,533	149,585
184,969	-2,475	300,313	149,383
185,983	-2,512	300,053	149,203
186,998	-2,320	299,695	149,206
188,013	-2,437	299,674	149,064
189,027	-2,379	299,450	148,998
190,042	-2,246	299,233	149,011
191,056	-2,346	299,178	148,870
192,071	-2,038	299,024	149,092
193,086	-2,314	298,757	148,667
194,100	-2,261	298,602	148,630
195,115	-2,296	298,269	148,415
196,129	-2,321	298,091	148,288
197,144	-2,211	297,881	148,281
198,159	-2,084	297,691	148,301
199,173	-2,303	297,444	147,945
200,188	-2,177	297,325	148,000
201,202	-2,304	297,023	147,708
202,217	-2,741	296,599	147,045
203,232	-2,856	296,496	146,865
204,246	-2,478	296,247	147,108
205,261	-2,262	296,111	147,245
206,275	-2,199	296,087	147,283
207,290	-2,341	295,826	146,997
208,304	-2,419	295,637	146,812
209,319	-2,307	295,505	146,845
210,334	-2,401	295,315	146,644
211,348	-2,343	295,070	146,567
212,363	-2,292	294,699	146,420
213,377	-2,343	294,578	146,297
214,392	-2,235	294,452	146,328
215,407	-2,535	294,201	145,893
216,421	-2,583	293,973	145,718
217,436	-2,480	293,731	145,688
218,450	-2,599	293,563	145,473
219,465	-2,407	293,269	145,505
220,480	-2,608	293,304	145,310
221,494	-2,612	293,101	145,192
222,509	-2,542	292,960	145,179
223,523	-2,517	292,762	145,093
224,538	-2,244	292,549	145,244
225,553	-2,109	292,411	145,296
226,567	-2,157	292,168	145,115
227,582	-2,232	292,011	144,950
228,596	-2,167	291,902	144,947
229,611	-2,181	291,690	144,815
230,626	-2,022	291,356	144,793
231,640	-2,704	291,143	144,004
232,655	-2,757	290,762	143,750
233,669	-2,997	290,545	143,395
234,684	-2,974	290,429	143,347
235,699	-2,619	290,249	143,594
236,713	-2,674	290,155	143,481
237,728	-2,700	290,004	143,367
238,742	-2,527	289,820	143,433
239,757	-2,381	289,680	143,493
240,772	-2,459	289,400	143,266
241,786	-2,249	289,125	143,322
242,801	-2,437	289,047	143,087
243,815	-2,562	288,849	142,854
244,830	-2,530	288,693	142,795
245,844	-2,770	288,561	142,485
246,859	-2,641	288,398	142,517
247,874	-2,534	288,111	142,466
248,888	-2,597	287,964	142,319
249,903	-2,336	287,854	142,505
250,917	-2,238	287,717	142,520
251,932	-2,135	287,547	142,522
252,947	-1,532	287,626	143,133
253,961	-1,788	287,223	142,672
254,976	-0,910	287,772	143,782
255,990	1,691	288,372	146,591
257,005	2,628	288,715	147,661
258,020	4,036	289,075	149,197
259,034	4,085	288,894	149,139
260,049	3,837	288,581	148,724
261,063	3,484	288,475	148,314
262,078	3,746	288,432	148,533
263,093	4,461	288,269	149,126
264,107	4,411	288,267	149,063
265,122	4,528	288,039	149,045
266,136	4,599	287,921	149,039
267,151	4,596	287,745	148,933
268,166	4,475	287,414	148,631
269,180	4,387	287,109	148,376
270,195	4,483	286,947	148,370
271,209	4,438	286,863	148,271
272,224	4,419	286,770	148,191
273,239	4,136	286,389	147,710
274,253	4,368	286,078	147,758
275,268	4,760	286,350	148,261
276,282	4,570	286,012	147,891
277,297	4,715	285,839	147,927
278,312	4,985	285,539	148,017
279,326	4,641	285,304	147,554
280,341	4,436	285,096	147,237
281,355	4,271	284,934	146,983
282,370	4,191	284,895	146,874
283,384	4,335	284,521	146,805
284,399	4,181	284,526	146,648
285,414	4,316	284,279	146,635
286,428	4,157	283,972	146,313
287,443	4,057	283,793	146,113
288,457	3,986	283,510	145,887
289,472	4,059	283,350	145,860
290,487	3,948	283,229	145,680
291,501	3,920	283,023	145,534
292,516	3,586	282,836	145,110
293,530	3,878	282,665	145,285
294,545	3,929	282,499	145,235
295,560	4,066	282,376	145,288
296,574	3,969	282,163	145,074
297,589	4,132	282,025	145,144
298,603	4,582	281,892	145,487
299,618	4,471	281,783	145,313
300,633	4,512	281,578	145,232
301,647	4,248	281,320	144,838
302,662	4,281	281,149	144,768
303,676	3,966	281,070	144,418
304,691	3,573	280,746	143,871
305,706	3,821	280,390	143,908
306,720	3,835	280,187	143,804
307,735	3,701	280,050	143,595
308,749	4,010	279,963	143,827
309,764	4,086	279,776	143,789
310,779	3,874	279,492	143,433
311,793	3,675	279,423	143,198
312,808	3,692	279,128	143,051
313,822	3,860	278,965	143,111
314,837	3,702	278,777	142,855
315,852	3,674	278,586	142,719
316,866	3,707	278,391	142,636
317,881	3,721	278,375	142,629
318,895	3,776	278,027	142,489
319,910	3,532	277,909	142,189
320,925	3,541	277,739	142,098
321,939	3,685	277,514	142,103
322,954	3,942	277,476	142,309
323,968	3,762	277,345	142,063
324,983	3,948	277,060	142,075
325,997	3,837	277,079	141,971
327,012	4,138	276,870	142,129
328,027	4,125	276,626	141,978
329,041	4,081	276,329	141,773
330,056	4,074	276,347	141,762
331,070	3,765	276,149	141,365
332,085	3,915	275,853	141,339
333,100	3,884	275,694	141,215
334,114	3,857	275,567	141,113
335,129	3,779	275,216	140,850
336,143	4,098	275,250	141,147
337,158	4,266	275,096	141,209
338,173	3,997	274,845	140,821
339,187	3,894	274,764	140,673
340,202	4,112	274,544	140,747
341,216	3,994	274,403	140,554
342,231	3,927	274,221	140,387
343,246	3,973	273,898	140,251
344,260	3,843	273,932	140,138
345,275	4,113	273,702	140,253
346,289	4,473	273,666	140,551
347,304	4,259	273,428	140,221
348,319	4,258	273,143	140,061
349,333	4,084	273,000	139,818
350,348	4,454	272,944	140,112
351,362	4,392	272,808	139,973
352,377	4,185	272,633	139,684
353,392	4,274	272,454	139,661
354,406	4,449	272,228	139,691
355,421	191,555	1331,666	1409,400
356,435	154,747	1460,837	1409,522
