DTS Sentinel unit serial number:	SN410029Multiplexer serial number:	ORYXHardware model number:	OX2-SRSoftware version number:	ORYX F/W v4,00 Oryx Data Collector v3.7.2.0data status	okinstallation	B4 Nyhavnadifferential loss correction	single-endedforward channel	channel 2reverse channel	N/Adate	2023/12/19time	10:10:13forward acquisition time	300,00reverse acquisition time	0,00gamma	499,1914k internal	0,3127k external	0,3127temperature offset calibration	1,0000default loss term (dB/km)	0,3820temperature slope calibration	1,0000multiplexer offset coefficient	1,0000multiplexer slope coefficient	1,0000fibre end	0,00T internal ref (°C)	20,19T ext. ref 1 (°C)	5,02T ext. ref 2 (°C)	4,98length (m)	temperature (°C)	Stokes	anti-Stokes-744,400	137,478	0,020	0,019
-743,385	-71,320	-0,243	0,067
-742,371	-65,362	-0,092	0,027
-741,356	-31,216	-0,123	0,051
-740,342	-107,505	0,036	-0,006
-739,327	200,850	-0,156	0,179
-738,312	130,599	0,074	-0,070
-737,298	-136,617	-0,283	0,024
-736,283	86,448	-0,084	0,069
-735,269	-175,306	-0,203	0,004
-734,254	-135,023	0,057	-0,005
-733,239	-39,786	-0,299	-0,116
-732,225	-200,000	0,025	-0,108
-731,210	-200,000	0,033	0,146
-730,196	-65,287	0,144	-0,043
-729,181	800,000	-0,018	-0,042
-728,167	-99,399	-0,093	0,017
-727,152	148,746	-0,041	0,041
-726,137	51,980	-0,107	0,076
-725,123	-55,038	-0,176	-0,059
-724,108	-200,000	-0,064	-0,230
-723,094	63,564	-0,043	-0,032
-722,079	235,048	0,033	-0,040
-721,064	-200,000	0,008	0,041
-720,050	-80,272	-0,078	-0,019
-719,035	4,387	-0,167	-0,091
-718,021	52,283	-0,142	0,100
-717,006	-14,285	-0,128	-0,061
-715,991	800,000	-0,040	-0,115
-714,977	-97,043	-0,133	0,026
-713,962	-19,328	-0,103	-0,047
-712,948	-200,000	0,014	-0,084
-711,933	-200,000	-0,022	-0,096
-710,918	-74,645	-0,097	-0,026
-709,904	-200,000	0,032	-0,135
-708,889	-200,000	0,006	-0,045
-707,875	-200,000	0,004	-0,042
-706,860	-27,373	-0,062	-0,027
-705,845	147,178	0,046	0,046
-704,831	400,893	0,042	-0,066
-703,816	89,829	-0,128	0,106
-702,802	188,549	-0,038	-0,042
-701,787	753,553	-0,051	-0,104
-700,772	-82,400	0,110	-0,026
-699,758	-143,676	-0,091	0,006
-698,743	389,654	0,033	0,051
-697,729	-116,015	-0,034	0,005
-696,714	121,525	0,105	0,097
-695,699	403,974	-0,019	0,030
-694,685	-200,000	-0,045	-0,169
-693,670	114,799	-0,062	-0,057
-692,656	170,394	0,017	0,018
-691,641	160,798	-0,060	0,062
-690,627	148,991	-0,006	0,006
-689,612	-200,000	0,015	0,070
-688,597	-116,681	0,046	-0,006
-687,583	-55,478	-0,145	0,048
-686,568	800,000	0,011	0,033
-685,554	380,550	-0,029	-0,045
-684,539	647,439	-0,042	0,080
-683,524	94,526	0,079	0,067
-682,510	687,410	-0,039	0,076
-681,495	139,187	-0,143	-0,140
-680,481	-34,438	-0,089	-0,036
-679,466	523,410	0,144	-0,252
-678,451	-200,000	-0,037	-0,168
-677,437	-200,000	0,007	-0,050
-676,422	48,212	-0,100	-0,069
-675,408	-110,014	0,082	0,013
-674,393	-126,539	-0,130	0,014
-673,378	800,000	-0,028	-0,063
-672,364	559,786	-0,081	-0,145
-671,349	-13,083	0,054	0,026
-670,335	-200,000	-0,007	-0,075
-669,320	800,000	-0,009	0,019
-668,305	-95,606	0,150	-0,030
-667,291	85,182	-0,160	0,131
-666,276	522,567	0,070	-0,122
-665,262	800,000	-0,030	-0,069
-664,247	-38,454	-0,127	0,050
-663,232	-110,078	0,111	-0,017
-662,218	238,815	-0,102	-0,126
-661,203	609,873	-0,037	0,070
-660,189	800,000	-0,020	-0,045
-659,174	150,969	0,098	-0,099
-658,159	-68,624	-0,058	-0,017
-657,145	-65,838	-0,108	0,032
-656,130	-138,433	0,038	-0,003
-655,116	-200,000	-0,021	0,123
-654,101	70,732	0,033	0,025
-653,086	505,692	-0,046	-0,079
-652,072	-22,565	0,117	0,052
-651,057	-200,000	-0,005	-0,090
-650,043	-85,788	0,137	0,031
-649,028	-168,510	0,061	-0,002
-648,014	800,000	-0,032	-0,074
-646,999	-87,127	-0,107	-0,024
-645,984	194,424	-0,036	0,041
-644,970	800,000	-0,046	0,110
-643,955	124,205	-0,100	-0,094
-642,941	-41,506	-0,126	-0,048
-641,926	69,600	0,105	0,080
-640,911	668,170	0,099	0,191
-639,897	561,789	0,033	0,060
-638,882	-200,000	0,005	-0,084
-637,868	157,747	-0,023	-0,024
-636,853	317,228	0,079	-0,112
-635,838	-200,000	0,003	0,054
-634,824	-200,000	-0,016	0,099
-633,809	-125,959	0,035	-0,004
-632,795	-200,000	0,000	0,049
-631,780	-73,641	0,032	-0,009
-630,765	83,774	0,011	-0,009
-629,751	-40,997	-0,086	-0,033
-628,736	-175,088	0,130	0,003
-627,722	8,172	-0,119	-0,066
-626,707	25,840	0,035	-0,021
-625,692	-71,148	0,111	-0,031
-624,678	87,579	-0,058	-0,047
-623,663	294,965	-0,070	-0,095
-622,649	29,243	-0,091	0,057
-621,634	559,330	-0,019	-0,035
-620,619	361,230	0,026	-0,039
-619,605	-200,000	0,021	0,104
-618,590	293,363	0,090	0,121
-617,576	244,841	-0,083	0,104
-616,561	800,000	-0,045	0,101
-615,546	-177,553	-0,145	0,003
-614,532	245,949	0,086	-0,108
-613,517	800,000	0,012	-0,027
-612,503	-181,995	-0,156	-0,002
-611,488	-58,062	0,052	0,017
-610,474	544,691	0,033	-0,058
-609,459	-40,302	-0,119	0,046
-608,444	463,896	-0,089	-0,148
-607,430	-200,000	-0,012	-0,163
-606,415	-200,000	-0,036	0,149
-605,401	-63,743	0,014	0,004
-604,386	-67,303	0,088	0,026
-603,371	199,055	-0,083	0,094
-602,357	-91,500	0,057	-0,012
-601,342	53,538	-0,068	-0,048
-600,328	-200,000	-0,000	0,066
-599,313	800,000	0,080	-0,169
-598,298	126,805	-0,046	-0,043
-597,284	800,000	0,000	-0,001
-596,269	-200,000	0,005	0,122
-595,255	-200,000	-0,025	0,173
-594,240	81,092	-0,038	-0,030
-593,225	23,273	-0,141	-0,085
-592,211	800,000	-0,036	0,087
-591,196	-200,000	-0,013	0,046
-590,182	170,406	-0,057	-0,060
-589,167	-126,562	0,107	-0,012
-588,152	70,606	0,054	0,041
-587,138	-77,082	-0,028	0,007
-586,123	209,440	0,048	0,056
-585,109	367,058	0,007	-0,010
-584,094	800,000	0,047	-0,126
-583,079	-55,270	0,105	0,035
-582,065	151,985	0,078	-0,079
-581,050	-90,427	-0,098	-0,021
-580,036	233,970	-0,057	0,069
-579,021	7,591	-0,196	-0,108
-578,006	72,540	0,082	-0,063
-576,992	409,657	-0,092	-0,145
-575,977	121,879	0,011	-0,011
-574,963	532,637	0,015	0,027
-573,948	358,679	0,098	0,146
-572,934	163,023	-0,136	-0,142
-571,919	-186,483	0,066	0,001
-570,904	-16,573	-0,082	0,038
-569,890	-198,313	-0,045	-0,000
-568,875	144,780	0,070	-0,069
-567,861	-200,000	0,044	-0,156
-566,846	-42,035	0,161	-0,061
-565,831	-47,223	-0,065	0,023
-564,817	-200,000	-0,001	-0,020
-563,802	-51,322	0,039	-0,013
-562,788	-71,431	-0,036	-0,010
-561,773	12,981	0,034	0,020
-560,758	-186,529	0,067	-0,001
-559,744	-177,385	0,065	-0,001
-558,729	290,909	0,028	0,038
-557,715	800,000	0,044	-0,110
-556,700	116,316	-0,029	-0,026
-555,685	24,891	-0,046	0,028
-554,671	143,565	-0,050	-0,049
-553,656	-20,659	-0,051	-0,023
-552,642	-200,000	-0,002	-0,022
-551,627	-200,000	0,032	0,177
-550,612	-42,260	0,076	0,028
-549,598	253,189	0,088	-0,112
-548,583	422,825	-0,055	-0,088
-547,569	-200,000	-0,005	-0,127
-546,554	159,207	-0,036	0,037
-545,539	800,000	0,041	0,117
-544,525	-158,188	0,090	-0,004
-543,510	377,822	0,014	0,021
-542,496	-120,520	-0,059	0,007
-541,481	-200,000	0,001	0,067
-540,466	-69,633	0,068	0,019
-539,452	-100,925	0,069	0,012
-538,437	300,878	0,138	-0,189
-537,423	424,759	-0,060	-0,096
-536,408	-200,000	0,008	-0,088
-535,393	349,756	-0,135	-0,197
-534,379	-200,000	0,006	-0,052
-533,364	-104,655	-0,144	0,024
-532,350	800,000	-0,046	0,106
-531,335	461,354	0,018	-0,030
-530,321	-200,000	-0,007	-0,123
-529,306	-137,180	0,047	-0,004
-528,291	800,000	-0,018	0,039
-527,277	-43,242	-0,074	-0,028
-526,262	333,325	-0,024	-0,034
-525,248	526,762	-0,012	-0,020
-524,233	-9,538	-0,057	0,028
-523,218	672,320	-0,058	0,111
-522,204	-57,311	0,132	0,043
-521,189	440,836	-0,071	0,114
-520,175	-6,194	-0,049	0,024
-519,160	171,988	-0,041	-0,044
-518,145	800,000	-0,041	0,106
-517,131	-132,798	0,082	0,008
-516,116	330,941	-0,056	-0,080
-515,102	129,853	-0,005	-0,004
-514,087	-200,000	0,004	-0,043
-513,072	-97,469	-0,080	0,015
-512,058	-200,000	-0,018	0,095
-511,043	200,446	-0,013	-0,015
-510,029	-34,227	0,063	0,025
-509,014	90,621	0,116	0,095
-507,999	244,394	0,114	0,141
-506,985	528,241	0,029	-0,050
-505,970	-200,000	0,018	0,078
-504,956	-74,394	0,067	-0,018
-503,941	479,376	-0,031	0,052
-502,926	-200,000	0,002	0,069
-501,912	-200,000	-0,010	0,089
-500,897	-200,000	0,012	0,100
-499,883	766,339	-0,028	-0,056
-498,868	-93,821	-0,022	0,004
-497,853	800,000	0,019	0,047
-496,839	800,000	0,026	-0,054
-495,824	-50,304	0,056	0,019
-494,810	41,523	0,046	-0,031
-493,795	248,138	-0,077	0,096
-492,781	232,845	0,056	-0,068
-491,766	800,000	-0,013	-0,038
-490,751	800,000	-0,028	0,078
-489,737	800,000	0,069	-0,153
-488,722	800,000	0,034	-0,077
-487,708	-200,000	0,024	0,079
-486,693	-200,000	-0,008	-0,066
-485,678	7,074	-0,107	0,059
-484,664	-200,000	0,006	-0,038
-483,649	800,000	0,035	0,094
-482,635	-40,425	0,065	-0,025
-481,620	-38,352	-0,022	-0,009
-480,605	-200,000	0,034	0,127
-479,591	-200,000	0,012	0,212
-478,576	298,213	-0,033	0,045
-477,562	800,000	-0,039	-0,094
-476,547	467,113	0,039	-0,065
-475,532	800,000	-0,062	-0,170
-474,518	514,907	0,042	0,073
-473,503	-152,201	-0,078	0,004
-472,489	-99,454	0,144	0,026
-471,474	353,731	-0,048	-0,070
-470,459	-86,673	-0,154	0,034
-469,445	-95,523	-0,024	-0,005
-468,430	-154,073	-0,122	-0,006
-467,416	-200,000	-0,028	-0,101
-466,401	-71,485	0,109	0,030
-465,386	488,340	0,023	0,039
-464,372	72,918	0,046	0,035
-463,357	-60,332	-0,084	-0,026
-462,343	93,436	-0,049	-0,041
-461,328	89,011	-0,123	-0,101
-460,313	76,640	0,213	-0,166
-459,299	270,495	0,054	0,070
-458,284	-124,821	0,139	-0,016
-457,270	-44,707	-0,079	-0,029
-456,255	88,322	0,053	0,044
-455,241	-200,000	0,012	0,060
-454,226	122,241	-0,023	0,021
-453,211	-200,000	0,010	-0,075
-452,197	-24,584	-0,113	0,049
-451,182	154,103	0,043	0,043
-450,168	284,298	0,025	-0,034
-449,153	213,909	0,062	-0,072
-448,138	-106,426	0,062	-0,010
-447,124	29,717	-0,106	0,066
-446,109	-64,340	-0,060	-0,018
-445,095	10,507	0,096	-0,054
-444,080	-144,013	0,068	-0,005
-443,065	654,335	-0,081	0,154
-442,051	0,296	-0,107	-0,056
-441,036	170,220	-0,101	-0,106
-440,022	46,306	0,075	-0,051
-439,007	800,000	0,017	0,055
-437,992	-153,749	0,040	0,002
-436,978	-200,000	-0,003	-0,027
-435,963	-78,837	0,109	0,027
-434,949	800,000	0,012	-0,024
-433,934	212,779	0,089	0,103
-432,919	-8,999	-0,131	-0,064
-431,905	202,460	-0,033	0,037
-430,890	-14,847	0,032	-0,015
-429,876	-200,000	0,018	0,104
-428,861	-25,099	-0,062	0,027
-427,846	105,947	0,077	0,067
-426,832	-200,000	-0,021	0,097
-425,817	-181,517	-0,013	-0,000
-424,803	-119,995	-0,077	-0,010
-423,788	103,242	0,096	0,083
-422,773	612,558	0,029	0,054
-421,759	583,370	-0,075	0,136
-420,744	-77,722	-0,092	-0,023
-419,730	235,341	-0,082	0,100
-418,715	9,530	-0,069	-0,038
-417,701	245,985	-0,047	0,059
-416,686	-85,441	0,107	-0,024
-415,671	800,000	-0,027	-0,057
-414,657	367,318	0,066	-0,098
-413,642	-200,000	0,001	0,089
-412,628	-200,000	0,000	-0,112
-411,613	-62,722	0,061	-0,018
-410,598	-200,000	-0,001	0,021
-409,584	-200,000	-0,025	-0,115
-408,569	31,306	0,126	-0,080
-407,555	-107,673	0,086	-0,014
-406,540	669,973	-0,024	0,046
-405,525	134,791	0,010	-0,009
-404,511	-200,000	0,015	-0,084
-403,496	-34,507	0,041	-0,016
-402,482	152,914	-0,072	0,072
-401,467	306,801	-0,011	0,015
-400,452	-83,399	-0,077	-0,018
-399,438	156,262	0,056	0,057
-398,423	-89,223	-0,134	0,029
-397,409	21,937	-0,078	-0,047
-396,394	-95,834	0,082	-0,016
-395,379	800,000	0,023	-0,066
-394,365	27,242	-0,068	0,042
-393,350	800,000	-0,009	-0,026
-392,336	-112,304	0,113	-0,016
-391,321	440,619	0,040	0,064
-390,306	19,912	0,045	-0,026
-389,292	307,145	-0,041	0,056
-388,277	121,628	-0,089	-0,082
-387,263	800,000	0,039	-0,080
-386,248	10,261	0,090	0,050
-385,233	-96,977	-0,178	-0,034
-384,219	-39,843	0,047	-0,018
-383,204	47,062	-0,037	0,025
-382,190	-200,000	0,007	-0,112
-381,175	800,000	-0,078	-0,242
-380,160	-139,756	0,057	0,004
-379,146	746,202	-0,030	0,059
-378,131	-200,000	-0,019	0,207
-377,117	50,063	0,081	0,056
-376,102	800,000	0,095	-0,213
-375,088	-0,879	-0,083	0,043
-374,073	800,000	0,035	-0,104
-373,058	-200,000	-0,007	-0,041
-372,044	-75,355	-0,018	0,005
-371,029	719,294	0,064	0,126
-370,015	633,829	0,036	0,067
-369,000	-10,540	-0,039	0,019
-367,985	-200,000	0,007	0,055
-366,971	-200,000	-0,003	0,019
-365,956	-110,938	0,080	0,012
-364,942	800,000	0,024	0,054
-363,927	-200,000	0,025	0,098
-362,912	800,000	-0,005	-0,015
-361,898	-69,174	0,106	-0,030
-360,883	67,741	0,035	0,026
-359,869	-30,062	0,076	0,032
-358,854	315,796	-0,041	0,057
-357,839	-86,564	0,150	0,033
-356,825	800,000	-0,005	0,010
-355,810	-73,066	0,093	0,025
-354,796	-200,000	-0,017	-0,205
-353,781	-200,000	-0,009	-0,043
-352,766	-96,029	0,015	0,003
-351,752	689,149	0,034	-0,065
-350,737	193,296	-0,017	0,019
-349,723	800,000	0,034	0,099
-348,708	-99,340	0,114	-0,021
-347,693	800,000	-0,045	-0,098
-346,679	-200,000	0,016	0,060
-345,664	441,951	0,052	-0,084
-344,650	611,536	-0,023	-0,043
-343,635	352,286	0,094	0,137
-342,620	800,000	-0,019	0,056
-341,606	426,553	-0,050	-0,080
-340,591	50,392	-0,100	-0,069
-339,577	3,451	0,131	-0,069
-338,562	652,890	-0,053	-0,100
-337,548	-200,000	0,013	0,082
-336,533	285,773	-0,044	-0,059
-335,518	800,000	0,036	0,092
-334,504	-62,085	-0,037	-0,011
-333,489	800,000	0,035	0,112
-332,475	800,000	-0,010	0,022
-331,460	-200,000	-0,019	-0,072
-330,445	-200,000	0,008	-0,130
-329,431	-200,000	0,017	-0,097
-328,416	112,558	0,009	0,008
-327,402	-200,000	0,054	0,196
-326,387	-173,489	0,084	-0,002
-325,372	-96,465	-0,101	-0,019
-324,358	-106,353	-0,125	0,020
-323,343	-7,446	0,081	-0,040
-322,329	-200,000	-0,000	-0,033
-321,314	800,000	0,048	0,103
-320,299	107,257	0,067	0,058
-319,285	-200,000	0,007	0,082
-318,270	18,628	0,031	0,018
-317,256	53,881	-0,122	-0,086
-316,241	-47,824	0,023	-0,008
-315,226	418,986	0,076	0,119
-314,212	122,600	0,073	-0,067
-313,197	-200,000	0,004	-0,031
-312,183	51,841	0,076	-0,053
-311,168	-147,927	-0,065	-0,004
-310,153	-167,779	-0,064	-0,002
-309,139	-200,000	-0,000	-0,030
-308,124	-200,000	-0,018	0,061
-307,110	800,000	0,056	0,168
-306,095	131,979	0,080	0,075
-305,080	727,795	-0,040	0,079
-304,066	-30,413	0,145	0,060
-303,051	-200,000	-0,012	-0,066
-302,037	149,045	-0,071	-0,070
-301,022	-62,700	-0,147	0,044
-300,008	-200,000	0,004	-0,025
-298,993	-200,000	-0,043	0,205
-297,978	-88,576	-0,045	0,010
-296,964	-136,470	0,052	0,004
-295,949	219,416	-0,086	0,101
-294,935	800,000	-0,038	-0,081
-293,920	-88,428	0,047	-0,010
-292,905	62,698	0,108	0,079
-291,891	78,968	-0,057	-0,045
-290,876	800,000	-0,049	0,107
-289,862	-200,000	0,009	0,116
-288,847	323,793	-0,105	-0,147
-287,832	-106,598	-0,104	-0,017
-286,818	-189,716	0,062	0,001
-285,803	275,654	-0,056	0,073
-284,789	-46,457	-0,062	0,022
-283,774	-200,000	-0,000	0,034
-282,759	34,702	0,104	0,066
-281,745	-200,000	0,044	0,167
-280,730	522,808	0,026	-0,045
-279,716	519,836	-0,038	-0,066
-278,701	-200,000	-0,004	0,041
-277,686	9,797	0,051	0,028
-276,672	332,506	-0,022	0,031
-275,657	800,000	0,052	-0,123
-274,643	218,200	-0,181	-0,212
-273,628	800,000	0,084	-0,203
-272,613	-200,000	0,007	-0,075
-271,599	-200,000	-0,003	0,175
-270,584	-93,366	-0,082	-0,017
-269,570	-117,736	0,027	-0,004
-268,555	52,169	0,027	-0,019
-267,540	633,124	-0,049	0,092
-266,526	227,488	-0,039	0,047
-265,511	33,162	0,051	0,032
-264,497	165,514	0,114	-0,118
-263,482	-80,439	0,066	0,016
-262,467	338,921	0,039	-0,056
-261,453	404,311	-0,061	-0,094
-260,438	-200,000	0,023	-0,146
-259,424	12,644	-0,114	-0,064
-258,409	217,717	-0,058	-0,067
-257,395	225,174	0,126	-0,150
-256,380	-200,000	-0,027	0,209
-255,365	486,141	-0,078	0,131
-254,351	800,000	0,015	0,040
-253,336	800,000	-0,041	-0,120
-252,322	241,765	-0,070	0,085
-251,307	191,940	-0,094	0,104
-250,292	-200,000	-0,006	-0,054
-249,278	-200,000	0,100	0,000
-248,263	-200,000	0,001	0,007
-247,249	-16,305	-0,113	-0,052
-246,234	150,763	-0,062	-0,061
-245,219	800,000	-0,033	0,067
-244,205	-99,235	0,058	0,011
-243,190	421,050	0,011	-0,018
-242,176	-70,925	0,184	-0,050
-241,161	800,000	0,037	-0,087
-240,146	469,567	0,135	0,223
-239,132	52,392	-0,121	-0,084
-238,117	203,523	-0,040	-0,046
-237,103	-123,873	-0,076	-0,009
-236,088	-200,000	-0,014	-0,126
-235,073	-107,299	0,116	0,018
-234,059	-200,000	-0,043	-0,183
-233,044	800,000	-0,037	0,075
-232,030	595,812	0,071	0,129
-231,015	-200,000	-0,018	-0,112
-230,000	206,027	-0,073	-0,084
-228,986	214,515	-0,056	0,065
-227,971	317,164	0,115	0,158
-226,957	-153,912	0,060	0,003
-225,942	800,000	0,039	0,089
-224,927	-60,629	-0,170	-0,052
-223,913	99,558	-0,104	-0,088
-222,898	101,547	-0,071	-0,060
-221,884	104,053	0,093	-0,080
-220,869	269,848	-0,018	-0,023
-219,855	-200,000	-0,022	0,104
-218,840	-93,091	0,074	0,015
-217,825	704,949	0,011	-0,022
-216,811	-200,000	0,023	-0,172
-215,796	453,627	0,064	-0,104
-214,782	145,239	0,033	-0,032
-213,767	-85,815	0,062	0,014
-212,752	567,468	0,021	0,038
-211,738	260,675	0,086	0,109
-210,723	123,117	-0,047	-0,043
-209,709	-95,567	-0,064	0,012
-208,694	-200,000	-0,003	-0,072
-207,679	-200,000	-0,012	0,187
-206,665	459,738	-0,058	0,094
-205,650	-71,251	-0,046	-0,013
-204,636	142,770	-0,059	0,057
-203,621	472,816	-0,015	0,025
-202,606	-4,006	0,113	-0,057
-201,592	-200,000	-0,001	-0,043
-200,577	-79,269	-0,111	-0,027
-199,563	-105,651	0,179	0,029
-198,548	-188,026	0,021	-0,000
-197,533	280,406	0,125	0,163
-196,519	494,971	0,029	-0,049
-195,504	-200,000	-0,007	0,062
-194,490	-184,052	-0,107	-0,001
-193,475	23,821	-0,073	-0,044
-192,460	-200,000	0,007	0,082
-191,446	-200,000	0,014	0,148
-190,431	800,000	0,019	-0,057
-189,417	-85,763	0,062	-0,014
-188,402	-200,000	0,038	-0,152
-187,387	-200,000	-0,002	-0,136
-186,373	800,000	-0,043	-0,092
-185,358	220,392	0,095	-0,111
-184,344	206,997	0,058	-0,066
-183,329	-200,000	0,031	0,152
-182,315	-17,930	-0,069	-0,031
-181,300	-154,967	-0,129	-0,006
-180,285	-200,000	0,005	0,017
-179,271	-66,924	-0,083	0,024
-178,256	321,156	-0,024	0,033
-177,242	136,489	0,091	0,087
-176,227	-95,181	0,046	0,009
-175,212	800,000	-0,029	0,090
-174,198	236,181	-0,061	0,073
-173,183	-149,701	0,031	-0,002
-172,169	-50,092	0,049	0,017
-171,154	-200,000	-0,019	-0,087
-170,139	-200,000	-0,029	0,098
-169,125	-200,000	-0,009	0,099
-168,110	800,000	0,062	0,129
-167,096	-200,000	-0,040	-0,144
-166,081	800,000	-0,081	-0,228
-165,066	-13,724	0,072	-0,034
-164,052	-34,463	-0,171	0,068
-163,037	-15,165	-0,063	-0,029
-162,023	-200,000	-0,002	0,018
-161,008	-200,000	0,011	0,053
-159,993	-10,913	-0,045	0,021
-158,979	-200,000	-0,040	-0,133
-157,964	-101,521	0,043	-0,008
-156,950	-200,000	0,005	0,034
-155,935	-29,317	-0,050	0,021
-154,920	800,000	0,015	0,042
-153,906	-200,000	-0,002	0,041
-152,891	153,783	0,043	0,043
-151,877	-200,000	0,005	0,068
-150,862	-38,408	-0,053	-0,020
-149,847	-36,764	-0,037	-0,014
-148,833	698,082	0,032	0,062
-147,818	-11,031	0,127	0,061
-146,804	433,234	-0,036	0,056
-145,789	-200,000	0,004	-0,071
-144,775	123,670	0,031	-0,029
-143,760	62,563	0,042	0,030
-142,745	-200,000	0,017	0,064
-141,731	-88,964	0,042	0,009
-140,716	-37,730	-0,082	-0,031
-139,702	82,968	0,141	-0,112
-138,687	-171,806	0,136	-0,003
-137,672	267,120	-0,025	0,032
-136,658	800,000	-0,055	-0,112
-135,643	-200,000	0,021	-0,082
-134,629	156,202	-0,104	0,104
-133,614	-138,484	0,113	-0,009
-132,599	-41,083	0,090	0,034
-131,585	800,000	0,020	-0,061
-130,570	-200,000	-0,013	0,147
-129,556	7,281	-0,082	-0,044
-128,541	800,000	-0,017	0,045
-127,526	-56,300	0,167	0,054
-126,512	800,000	0,053	0,161
-125,497	131,145	0,093	0,087
-124,483	172,095	0,055	0,057
-123,468	-60,239	-0,091	0,028
-122,453	-17,128	-0,084	-0,038
-121,439	18,413	0,052	0,030
-120,424	426,365	-0,036	0,056
-119,410	800,000	0,069	-0,153
-118,395	184,760	-0,045	-0,049
-117,380	-200,000	0,040	0,162
-116,366	-200,000	0,008	0,052
-115,351	-108,822	0,120	0,018
-114,337	468,490	0,047	-0,077
-113,322	-29,111	-0,019	0,008
-112,307	-108,182	-0,051	-0,008
-111,293	-140,351	-0,139	0,010
-110,278	111,239	0,054	-0,047
-109,264	320,323	-0,043	0,059
-108,249	-46,540	-0,075	-0,027
-107,234	-90,318	0,078	-0,016
-106,220	242,198	-0,103	-0,125
-105,205	-53,568	0,163	-0,054
-104,191	35,209	-0,056	0,035
-103,176	-200,000	-0,015	0,051
-102,162	334,666	0,042	-0,059
-101,147	-200,000	-0,004	-0,068
-100,132	-102,949	0,124	-0,021
-99,118	63,770	-0,047	-0,034
-98,103	800,000	0,046	-0,119
-97,089	19,207	0,053	0,031
-96,074	-27,019	-0,087	-0,037
-95,059	-65,323	0,056	0,016
-94,045	-200,000	0,004	0,124
-93,030	-131,138	-0,018	-0,002
-92,016	-100,296	-0,082	-0,015
-91,001	115,773	0,017	-0,015
-89,986	800,000	0,018	0,055
-88,972	-100,586	0,186	0,033
-87,957	-21,204	0,135	0,059
-86,943	800,000	-0,043	0,111
-85,928	-141,196	-0,091	-0,007
-84,913	800,000	-0,028	0,067
-83,899	-50,677	0,093	0,031
-82,884	800,000	0,023	-0,057
-81,870	147,180	-0,074	-0,073
-80,855	375,415	0,020	-0,030
-79,840	-2,856	0,091	0,046
-78,826	166,428	-0,106	0,109
-77,811	89,596	-0,089	-0,072
-76,797	800,000	0,029	0,087
-75,782	252,055	0,033	-0,041
-74,767	-10,827	0,025	-0,012
-73,753	-200,000	0,015	0,083
-72,738	-154,784	0,040	0,002
-71,724	-68,604	0,042	0,012
-70,709	-60,715	0,040	-0,012
-69,694	-73,341	-0,195	0,051
-68,680	149,488	0,063	-0,062
-67,665	175,380	0,026	-0,028
-66,651	-88,281	0,015	-0,003
-65,636	-94,516	-0,130	-0,025
-64,622	-200,000	-0,012	-0,062
-63,607	-200,000	0,004	-0,058
-62,592	-60,202	-0,082	-0,025
-61,578	744,315	0,037	-0,073
-60,563	-200,000	-0,025	0,230
-59,549	368,810	0,067	0,098
-58,534	-65,370	-1,457	-0,422
-57,519	800,000	-0,618	-1,283
-56,505	-200,000	-0,994	-4,504
-55,490	-122,135	0,600	-0,070
-54,476	800,000	5,037	11,673
-53,461	-200,000	15,092	263,115
-52,446	-200,000	699,019	2247,410
-51,432	588,068	1621,821	2905,973
-50,417	119,940	1628,368	1462,977
-49,403	80,282	1282,465	999,145
-48,388	37,487	1021,637	655,176
-47,373	22,609	981,984	580,817
-46,359	21,708	970,952	571,316
-45,344	20,432	966,578	564,550
-44,330	20,420	965,325	563,756
-43,315	20,253	963,925	562,372
-42,300	20,282	962,798	561,788
-41,286	20,281	961,818	561,189
-40,271	20,292	960,694	560,546
-39,257	20,265	959,838	559,937
-38,242	20,250	959,076	559,422
-37,227	20,262	958,362	559,024
-36,213	20,200	957,366	558,220
-35,198	20,195	956,432	557,636
-34,184	20,245	955,694	557,345
-33,169	20,199	954,591	556,530
-32,154	20,252	953,891	556,271
-31,140	20,297	952,904	555,818
-30,125	20,269	952,110	555,245
-29,111	20,191	951,258	554,475
-28,096	20,281	950,529	554,317
-27,082	20,207	950,012	553,755
-26,067	20,186	949,206	553,194
-25,052	20,195	948,520	552,803
-24,038	20,241	947,785	552,501
-23,023	20,192	947,225	551,993
-22,009	20,271	946,523	551,817
-20,994	20,291	945,900	551,497
-19,979	20,243	945,316	550,979
-18,965	20,205	944,820	550,549
-17,950	20,230	943,956	550,101
-16,936	20,150	943,423	549,513
-15,921	20,202	942,699	549,235
-14,906	20,108	942,104	548,570
-13,892	20,104	941,376	548,110
-12,877	20,092	940,840	547,738
-11,863	20,033	940,233	547,176
-10,848	20,099	939,720	547,066
-9,833	20,128	939,283	546,882
-8,819	20,204	938,376	546,572
-7,804	20,072	937,946	545,882
-6,790	20,123	937,328	545,661
-5,775	20,147	936,841	545,432
-4,760	20,110	936,064	544,841
-3,746	20,102	935,582	544,515
-2,731	19,919	934,944	543,543
-1,717	19,913	934,036	542,974
-0,702	19,897	933,448	542,560
0,313	19,722	932,911	542,515
1,327	22,215	930,395	548,845
2,342	29,743	805,425	495,463
3,356	23,890	505,888	301,230
4,371	-0,537	372,478	190,769
5,386	-3,344	355,700	178,722
6,400	-4,433	349,920	174,489
7,415	-4,805	347,493	172,818
8,429	-4,776	346,292	172,239
9,444	-4,752	345,151	171,685
10,459	-4,639	344,608	171,534
11,473	-4,615	343,781	171,135
12,488	-4,658	343,183	170,773
13,502	-4,751	342,634	170,373
14,517	-4,558	342,324	170,433
15,531	-4,559	341,798	170,154
16,546	-4,448	341,306	170,024
17,561	-4,440	341,034	169,884
18,575	-4,521	340,757	169,635
19,590	-4,450	340,239	169,445
20,604	-4,458	339,744	169,174
21,619	-4,474	339,473	169,005
22,634	-4,345	338,997	168,903
23,648	-4,451	338,763	168,649
24,663	-4,492	338,553	168,481
25,677	-4,533	338,326	168,306
26,692	-4,428	337,790	168,146
27,707	-4,532	337,482	167,856
28,721	-4,452	337,164	167,777
29,736	-4,591	336,980	167,508
30,750	-4,663	336,677	167,260
31,765	-4,429	336,305	167,330
32,780	-4,431	336,073	167,199
33,794	-4,469	335,873	167,040
34,809	-4,431	335,398	166,833
35,823	-4,546	335,076	166,525
36,838	-4,636	334,974	166,356
37,853	-4,432	334,637	166,408
38,867	-4,420	334,381	166,280
39,882	-4,485	334,211	166,106
40,896	-4,630	333,972	165,806
41,911	-4,376	333,549	165,872
42,926	-4,380	333,306	165,732
43,940	-4,529	332,973	165,382
44,955	-4,408	332,695	165,367
45,969	-4,570	332,536	165,088
46,984	-4,403	332,334	165,164
47,999	-4,453	331,983	164,918
49,013	-4,396	331,840	164,896
50,028	-4,493	331,598	164,652
51,042	-4,552	331,287	164,415
52,057	-4,398	331,038	164,451
53,071	-4,482	330,800	164,223
54,086	-4,420	330,506	164,133
55,101	-4,496	330,260	163,910
56,115	-4,463	329,966	163,788
57,130	-4,520	329,684	163,568
58,144	-4,450	329,410	163,497
59,159	-4,473	329,013	163,259
60,174	-4,492	328,786	163,110
61,188	-4,571	328,660	162,944
62,203	-4,586	328,504	162,835
63,217	-4,456	327,964	162,699
64,232	-4,581	327,931	162,528
65,247	-4,520	327,467	162,352
66,261	-4,509	327,277	162,256
67,276	-4,388	327,012	162,245
68,290	-4,530	326,757	161,945
69,305	-4,454	326,524	161,900
70,320	-4,398	326,210	161,793
71,334	-4,443	325,962	161,605
72,349	-4,560	325,810	161,385
73,363	-4,430	325,500	161,363
74,378	-4,574	325,268	161,073
75,393	-4,462	324,950	161,024
76,407	-4,517	324,764	160,857
77,422	-4,404	324,501	160,838
78,436	-4,465	324,391	160,701
79,451	-4,499	323,997	160,454
80,466	-4,454	323,803	160,394
81,480	-4,526	323,473	160,136
82,495	-4,567	323,337	160,009
83,509	-4,632	323,124	159,818
84,524	-4,429	322,873	159,904
85,539	-4,349	322,537	159,812
86,553	-4,347	322,329	159,697
87,568	-4,380	322,000	159,483
88,582	-4,492	321,804	159,248
89,597	-4,509	321,554	159,092
90,611	-4,500	321,334	158,978
91,626	-4,526	321,064	158,802
92,641	-4,466	320,777	158,712
93,655	-4,361	320,497	158,675
94,670	-4,485	320,362	158,458
95,684	-4,391	320,030	158,382
96,699	-4,516	320,097	158,264
97,714	-4,273	319,668	158,303
98,728	-4,533	319,657	158,000
99,743	-4,527	319,490	157,910
100,757	-4,411	319,029	157,794
101,772	-4,340	318,732	157,710
102,787	-4,380	318,640	157,608
103,801	-4,491	318,406	157,357
104,816	-4,421	318,146	157,290
105,830	-4,586	317,851	156,951
106,845	-4,535	317,670	156,903
107,860	-4,315	317,225	156,908
108,874	-4,434	317,182	156,744
109,889	-4,476	316,857	156,523
110,903	-4,395	316,670	156,504
111,918	-4,424	316,362	156,307
112,933	-4,410	316,220	156,239
113,947	-4,232	315,879	156,248
114,962	-4,378	315,728	156,002
115,976	-4,420	315,638	155,898
116,991	-4,486	315,222	155,608
118,006	-4,405	315,030	155,587
119,020	-4,521	315,019	155,443
120,035	-4,513	314,758	155,308
121,049	-4,387	314,571	155,337
122,064	-4,301	314,251	155,258
123,079	-4,462	314,179	155,036
124,093	-4,379	313,820	154,934
125,108	-4,398	313,582	154,782
126,122	-4,373	313,397	154,704
127,137	-4,380	313,268	154,619
128,151	-4,352	313,001	154,503
129,166	-4,299	312,679	154,387
130,181	-4,337	312,478	154,234
131,195	-4,499	312,200	153,910
132,210	-4,457	312,049	153,866
133,224	-4,612	311,819	153,575
134,239	-4,315	311,493	153,716
135,254	-4,477	311,294	153,432
136,268	-4,392	311,087	153,406
137,283	-4,426	310,954	153,292
138,297	-4,275	310,559	153,242
139,312	-4,336	310,383	153,078
140,327	-4,393	310,206	152,916
141,341	-4,399	310,064	152,826
142,356	-4,318	309,758	152,747
143,370	-4,527	309,560	152,416
144,385	-4,418	309,326	152,402
145,400	-4,371	309,150	152,351
146,414	-4,339	308,844	152,220
147,429	-4,487	308,617	151,939
148,443	-4,575	308,495	151,773
149,458	-4,276	308,132	151,895
150,473	-4,517	308,033	151,580
151,487	-4,394	307,704	151,533
152,502	-4,412	307,639	151,468
153,516	-4,317	307,225	151,351
154,531	-4,408	307,144	151,202
155,546	-4,329	306,980	151,190
156,560	-4,231	306,624	151,103
157,575	-4,224	306,417	150,996
158,589	-4,318	306,151	150,753
159,604	-4,354	306,017	150,637
160,619	-4,395	306,023	150,583
161,633	-4,309	305,689	150,494
162,648	-4,330	305,575	150,404
163,662	-4,348	305,297	150,234
164,677	-4,503	305,145	149,986
165,692	-4,428	304,844	149,901
166,706	-4,328	304,641	149,893
167,721	-4,434	304,549	149,724
168,735	-4,333	304,292	149,689
169,750	-4,416	304,074	149,482
170,764	-4,396	303,971	149,439
171,779	-4,438	303,742	149,269
172,794	-4,410	303,387	149,110
173,808	-4,358	303,309	149,112
174,823	-4,372	303,080	148,972
175,837	-4,390	302,774	148,791
176,852	-4,322	302,580	148,752
177,867	-4,402	302,417	148,576
178,881	-4,369	302,236	148,508
179,896	-4,435	301,971	148,297
180,910	-4,469	301,711	148,121
181,925	-4,375	301,476	148,089
182,940	-4,283	301,264	148,065
183,954	-4,300	301,070	147,939
184,969	-4,324	301,075	147,904
185,983	-4,317	300,803	147,764
186,998	-4,231	300,603	147,741
188,013	-4,227	300,411	147,638
189,027	-4,415	300,176	147,317
190,042	-4,332	299,949	147,277
191,056	-4,278	299,732	147,213
192,071	-4,404	299,393	146,904
193,086	-4,545	299,424	146,764
194,100	-4,297	299,078	146,832
195,115	-4,297	298,792	146,679
196,129	-4,134	298,590	146,732
197,144	-4,402	298,381	146,345
198,159	-4,301	298,090	146,291
199,173	-4,220	297,813	146,223
200,188	-4,603	297,875	145,855
201,202	-4,460	297,546	145,824
202,217	-4,404	297,457	145,825
203,232	-4,257	297,208	145,837
204,246	-4,521	297,022	145,467
205,261	-4,421	296,643	145,369
206,275	-4,482	296,608	145,278
207,290	-4,410	296,552	145,310
208,304	-4,311	296,222	145,235
209,319	-4,288	296,015	145,143
210,334	-4,365	295,788	144,942
211,348	-4,357	295,576	144,833
212,363	-4,271	295,400	144,819
213,377	-4,489	295,253	144,517
214,392	-4,382	294,925	144,450
215,407	-4,478	294,923	144,341
216,421	-4,304	294,538	144,313
217,436	-4,388	294,370	144,134
218,450	-4,307	293,972	144,007
219,465	-4,267	293,963	144,030
220,480	-4,436	293,958	143,846
221,494	-4,300	293,650	143,818
222,509	-4,321	293,488	143,705
223,523	-4,293	293,233	143,594
224,538	-4,351	292,932	143,377
225,553	-4,520	292,856	143,159
226,567	-4,399	292,791	143,235
227,582	-4,222	292,549	143,279
228,596	-4,324	292,249	143,018
229,611	-4,473	292,097	142,784
230,626	-4,489	291,869	142,644
231,640	-4,328	291,660	142,688
232,655	-4,252	291,469	142,657
233,669	-4,331	291,342	142,504
234,684	-4,319	291,189	142,428
235,699	-4,356	291,023	142,298
236,713	-4,279	290,800	142,252
237,728	-4,336	290,596	142,083
238,742	-4,507	290,364	141,789
239,757	-4,422	290,145	141,754
240,772	-4,454	289,852	141,566
241,786	-4,375	289,715	141,564
242,801	-4,316	289,533	141,520
243,815	-4,354	289,574	141,490
244,830	-4,392	289,258	141,286
245,844	-4,413	289,048	141,151
246,859	-4,548	288,936	140,952
247,874	-4,517	288,680	140,845
248,888	-4,381	288,491	140,872
249,903	-4,401	288,135	140,666
250,917	-4,520	288,161	140,551
251,932	-4,549	287,835	140,351
252,947	-4,510	287,485	140,205
253,961	-5,052	287,173	139,515
254,976	-4,886	286,815	139,490
255,990	-4,803	286,839	139,569
257,005	-3,776	287,420	140,836
258,020	-1,251	288,090	143,601
259,034	0,006	288,361	144,943
260,049	0,488	288,318	145,375
261,063	1,027	288,268	145,859
262,078	1,312	288,313	146,145
263,093	1,447	288,294	146,253
264,107	1,724	288,230	146,476
265,122	2,095	287,990	146,699
266,136	1,959	287,859	146,488
267,151	2,065	287,718	146,505
268,166	2,106	287,349	146,344
269,180	2,042	287,371	146,281
270,195	2,057	287,262	146,227
271,209	2,043	286,912	146,022
272,224	2,133	286,839	146,059
273,239	1,974	286,565	145,753
274,253	2,030	286,339	145,679
275,268	2,035	286,271	145,636
276,282	1,936	285,890	145,334
277,297	1,931	285,753	145,247
278,312	1,909	285,649	145,159
279,326	1,830	285,439	144,965
280,341	1,929	285,240	144,946
281,355	1,837	285,047	144,747
282,370	1,817	284,907	144,644
283,384	2,035	284,625	144,695
284,399	1,958	284,414	144,502
285,414	1,850	284,355	144,356
286,428	1,841	284,067	144,188
287,443	1,772	283,887	144,018
288,457	1,823	283,718	143,969
289,472	2,016	283,420	143,988
290,487	1,863	283,275	143,756
291,501	1,734	283,000	143,482
292,516	1,728	282,913	143,419
293,530	1,719	282,958	143,420
294,545	1,730	282,562	143,217
295,560	1,703	282,388	143,091
296,574	1,725	282,180	142,993
297,589	1,593	282,035	142,782
298,603	1,648	281,861	142,734
299,618	1,760	281,571	142,679
300,633	1,709	281,490	142,578
301,647	1,689	281,292	142,446
302,662	1,839	281,136	142,495
303,676	1,869	280,924	142,403
304,691	1,863	280,798	142,321
305,706	2,062	280,656	142,423
306,720	1,993	280,527	142,281
307,735	1,870	280,354	142,065
308,749	1,988	280,132	142,049
309,764	1,843	280,060	141,865
310,779	1,859	279,716	141,693
311,793	1,901	279,491	141,606
312,808	1,882	279,208	141,432
313,822	1,809	279,242	141,369
314,837	1,751	279,001	141,180
315,852	1,860	278,854	141,194
316,866	1,831	278,704	141,079
317,881	2,061	278,458	141,155
318,895	2,134	278,241	141,101
319,910	2,009	277,957	140,828
320,925	1,922	277,849	140,680
321,939	1,846	277,779	140,561
322,954	1,914	277,601	140,522
323,968	1,957	277,422	140,458
324,983	2,061	277,273	140,467
325,997	2,015	277,035	140,291
327,012	2,101	276,754	140,215
328,027	1,930	276,719	140,028
329,041	2,101	276,461	140,043
330,056	2,032	276,354	139,913
331,070	2,114	276,153	139,874
332,085	1,991	276,105	139,723
333,100	2,009	275,826	139,587
334,114	1,971	275,725	139,488
335,129	2,172	275,426	139,509
336,143	1,987	275,228	139,226
337,158	2,044	275,031	139,166
338,173	2,043	275,068	139,172
339,187	2,015	274,840	139,019
340,202	1,942	274,711	138,874
341,216	2,234	274,270	138,906
342,231	2,111	274,168	138,729
343,246	2,077	274,042	138,622
344,260	2,037	273,721	138,411
345,275	2,143	273,677	138,473
346,289	2,134	273,516	138,371
347,304	2,082	273,383	138,244
348,319	2,148	273,136	138,167
349,333	2,019	273,045	137,991
350,348	2,062	272,923	137,956
351,362	2,121	272,578	137,823
352,377	2,194	272,587	137,881
353,392	2,158	272,343	137,713
354,406	2,183	272,137	137,619
355,421	191,684	1346,679	1425,997
356,435	154,759	1477,670	1426,091
