DTS Sentinel unit serial number:	SN410029Multiplexer serial number:	ORYXHardware model number:	OX2-SRSoftware version number:	ORYX F/W v4,00 Oryx Data Collector v3.7.2.0data status	okinstallation	B4 Nyhavnadifferential loss correction	single-endedforward channel	channel 2reverse channel	N/Adate	2023/12/18time	20:25:13forward acquisition time	300,00reverse acquisition time	0,00gamma	499,1914k internal	0,3124k external	0,3124temperature offset calibration	1,0000default loss term (dB/km)	0,3820temperature slope calibration	1,0000multiplexer offset coefficient	1,0000multiplexer slope coefficient	1,0000fibre end	0,00T internal ref (°C)	21,87T ext. ref 1 (°C)	7,00T ext. ref 2 (°C)	6,91length (m)	temperature (°C)	Stokes	anti-Stokes-744,400	320,902	0,034	-0,048
-743,385	51,960	-0,251	0,178
-742,371	374,748	0,021	0,032
-741,356	175,185	-0,210	0,227
-740,342	222,834	0,038	-0,045
-739,327	195,913	-0,090	0,103
-738,312	54,463	0,106	-0,076
-737,298	85,381	-0,192	0,157
-736,283	8,456	0,070	-0,039
-735,269	123,747	-0,250	0,234
-734,254	167,922	0,060	-0,064
-733,239	-140,089	-0,464	0,036
-732,225	-135,890	0,055	0,005
-731,210	348,540	-0,066	0,097
-730,196	250,491	-0,078	-0,098
-729,181	800,000	-0,075	0,169
-728,167	-200,000	-0,006	-0,103
-727,152	-200,000	-0,013	0,050
-726,137	-163,704	-0,081	-0,003
-725,123	-104,906	-0,127	-0,021
-724,108	-73,828	-0,109	0,029
-723,094	-127,594	-0,068	-0,007
-722,079	539,078	0,003	-0,005
-721,064	-200,000	0,003	0,035
-720,050	-192,635	-0,101	0,001
-719,035	-93,127	-0,062	-0,013
-718,021	255,445	-0,052	-0,067
-717,006	163,769	-0,088	-0,093
-715,991	6,447	-0,123	-0,068
-714,977	-200,000	-0,001	-0,139
-713,962	-10,395	-0,076	0,037
-712,948	230,809	-0,028	-0,035
-711,933	48,971	0,066	0,046
-710,918	-200,000	-0,007	-0,190
-709,904	100,700	-0,133	-0,115
-708,889	240,253	-0,037	-0,046
-707,875	-200,000	-0,014	0,091
-706,860	800,000	-0,047	-0,153
-705,845	-50,125	-0,076	-0,027
-704,831	7,337	-0,101	-0,056
-703,816	-200,000	-0,001	0,005
-702,802	614,298	0,072	-0,135
-701,787	456,820	-0,056	-0,093
-700,772	17,890	-0,108	0,064
-699,758	151,963	-0,107	0,108
-698,743	-0,576	0,100	0,053
-697,729	25,005	0,046	-0,028
-696,714	-200,000	-0,018	0,120
-695,699	-200,000	0,002	-0,082
-694,685	100,453	-0,056	0,048
-693,670	-186,260	0,095	0,001
-692,656	32,467	-0,133	-0,085
-691,641	-200,000	-0,020	-0,072
-690,627	-73,535	0,074	-0,020
-689,612	800,000	-0,030	0,071
-688,597	236,144	0,084	0,103
-687,583	-22,665	0,081	0,036
-686,568	73,868	-0,084	-0,065
-685,554	32,401	-0,035	-0,022
-684,539	250,324	-0,020	-0,025
-683,524	105,400	-0,021	0,019
-682,510	800,000	0,044	0,092
-681,495	33,972	-0,107	-0,069
-680,481	-117,461	-0,072	0,010
-679,466	-141,498	-0,057	0,004
-678,451	798,497	0,044	0,091
-677,437	59,292	0,031	-0,023
-676,422	19,528	-0,032	-0,019
-675,408	-200,000	0,008	0,064
-674,393	-200,000	-0,008	0,040
-673,378	800,000	-0,077	0,198
-672,364	-84,370	-0,154	-0,036
-671,349	-200,000	-0,059	-0,211
-670,335	-116,265	-0,144	0,020
-669,320	297,001	-0,039	0,053
-668,305	-200,000	0,023	0,102
-667,291	308,536	-0,091	-0,127
-666,276	267,217	-0,016	-0,021
-665,262	-200,000	0,019	-0,125
-664,247	800,000	0,067	-0,169
-663,232	15,051	-0,043	-0,025
-662,218	1,688	-0,171	-0,091
-661,203	681,435	0,028	0,055
-660,189	-116,698	-0,104	0,014
-659,174	31,748	-0,058	0,037
-658,159	-72,441	-0,084	-0,023
-657,145	-80,306	-0,121	-0,030
-656,130	317,119	-0,077	0,109
-655,116	109,629	0,020	-0,018
-654,101	-137,116	-0,108	0,009
-653,086	-80,147	-0,209	-0,052
-652,072	323,284	0,010	-0,014
-651,057	628,626	0,039	-0,074
-650,043	-200,000	0,011	-0,091
-649,028	134,547	-0,083	0,080
-648,014	-84,466	0,100	0,023
-646,999	72,766	-0,140	-0,109
-645,984	-200,000	-0,006	-0,050
-644,970	-84,391	0,064	-0,015
-643,955	-71,026	-0,061	-0,017
-642,941	462,645	0,047	0,078
-641,926	267,228	0,091	-0,118
-640,911	15,168	-0,059	-0,034
-639,897	-111,990	0,107	0,016
-638,882	90,559	-0,043	-0,036
-637,868	-41,370	-0,022	-0,008
-636,853	-97,279	-0,111	-0,021
-635,838	-200,000	0,003	-0,060
-634,824	-97,631	-0,152	0,029
-633,809	43,136	0,049	0,033
-632,795	72,136	0,085	0,065
-631,780	-200,000	-0,022	0,099
-630,765	466,713	-0,037	0,061
-629,751	119,998	-0,041	-0,038
-628,736	79,591	0,033	-0,027
-627,722	-16,645	-0,095	0,044
-626,707	93,841	-0,027	-0,022
-625,692	-30,297	0,106	0,044
-624,678	-200,000	-0,011	-0,066
-623,663	-8,403	-0,067	-0,033
-622,649	-56,177	-0,003	0,001
-621,634	-200,000	0,018	-0,098
-620,619	-200,000	0,011	-0,048
-619,605	-200,000	-0,004	0,030
-618,590	66,606	0,058	0,043
-617,576	-6,975	-0,049	0,024
-616,561	-38,976	0,092	-0,036
-615,546	-200,000	-0,016	-0,102
-614,532	-41,867	0,023	-0,009
-613,517	-67,542	-0,053	-0,015
-612,503	87,100	-0,042	0,034
-611,488	800,000	-0,038	0,113
-610,474	169,038	0,038	0,040
-609,459	31,780	-0,029	0,019
-608,444	-98,569	-0,048	0,009
-607,430	-200,000	0,005	-0,106
-606,415	-200,000	-0,004	-0,128
-605,401	-165,052	-0,088	-0,003
-604,386	-51,180	0,168	0,058
-603,371	682,783	0,023	0,045
-602,357	800,000	-0,054	-0,124
-601,342	800,000	-0,056	-0,138
-600,328	50,220	-0,086	0,060
-599,313	791,028	0,033	-0,067
-598,298	246,127	-0,027	-0,034
-597,284	-200,000	-0,033	0,170
-596,269	800,000	-0,023	0,056
-595,255	-82,186	0,073	-0,017
-594,240	800,000	-0,059	0,147
-593,225	69,387	0,023	0,017
-592,211	435,925	0,095	-0,153
-591,196	-200,000	-0,013	-0,081
-590,182	-200,000	0,010	0,045
-589,167	636,720	-0,050	0,095
-588,152	-67,767	-0,170	-0,049
-587,138	69,561	-0,069	0,053
-586,123	23,393	-0,058	-0,035
-585,109	800,000	-0,026	-0,069
-584,094	133,296	-0,098	-0,094
-583,079	800,000	-0,016	0,036
-582,065	20,654	0,061	-0,036
-581,050	-48,608	0,072	-0,026
-580,036	800,000	-0,003	-0,007
-579,021	-200,000	-0,005	-0,108
-578,006	-200,000	0,010	-0,123
-576,992	-59,161	-0,146	-0,046
-575,977	-33,232	0,074	-0,030
-574,963	800,000	-0,049	0,119
-573,948	52,299	0,016	0,011
-572,934	-200,000	0,006	0,042
-571,919	413,256	0,043	-0,069
-570,904	-30,340	-0,017	0,007
-569,890	741,074	-0,030	-0,059
-568,875	-55,195	-0,053	0,017
-567,861	-200,000	0,007	0,073
-566,846	368,371	0,038	0,057
-565,831	157,017	-0,059	0,060
-564,817	800,000	-0,030	-0,070
-563,802	-117,977	-0,197	-0,026
-562,788	40,333	-0,127	-0,084
-561,773	-200,000	0,015	-0,087
-560,758	258,819	0,099	-0,126
-559,744	494,618	0,014	0,025
-558,729	16,357	0,059	0,034
-557,715	-200,000	-0,085	0,000
-556,700	178,677	-0,012	-0,013
-555,685	55,145	-0,067	0,048
-554,671	800,000	-0,030	0,079
-553,656	-200,000	0,024	0,080
-552,642	-200,000	-0,010	0,137
-551,627	362,919	-0,021	0,032
-550,612	-177,134	0,152	-0,003
-549,598	-49,288	-0,272	-0,096
-548,583	-91,266	-0,149	0,031
-547,569	-14,907	0,144	-0,068
-546,554	-200,000	0,011	-0,116
-545,539	207,476	-0,070	0,081
-544,525	-186,012	-0,128	0,001
-543,510	800,000	-0,014	-0,034
-542,496	-200,000	-0,021	0,110
-541,481	800,000	-0,060	-0,128
-540,466	57,730	0,082	0,059
-539,452	-58,722	0,030	-0,010
-538,437	289,138	0,098	0,131
-537,423	-119,354	-0,095	0,012
-536,408	-134,636	0,070	0,006
-535,393	-46,413	-0,101	-0,037
-534,379	-200,000	0,028	-0,128
-533,364	-200,000	-0,024	0,079
-532,350	800,000	0,033	0,090
-531,335	-200,000	-0,004	0,080
-530,321	125,741	0,044	0,041
-529,306	-199,911	0,068	0,000
-528,291	774,281	-0,061	0,123
-527,277	-200,000	-0,004	0,017
-526,262	-200,000	0,004	-0,113
-525,248	459,998	0,064	-0,106
-524,233	129,909	-0,113	0,107
-523,218	452,573	0,058	-0,095
-522,204	800,000	0,011	-0,031
-521,189	77,315	-0,127	-0,100
-520,175	-85,723	0,103	-0,023
-519,160	560,150	0,080	-0,143
-518,145	397,904	0,043	0,066
-517,131	751,084	0,080	0,159
-516,116	126,726	0,017	-0,016
-515,102	-56,424	-0,123	0,040
-514,087	-75,892	0,196	0,051
-513,072	-12,469	-0,160	-0,077
-512,058	373,406	0,009	-0,014
-511,043	-5,359	0,123	0,062
-510,029	-96,429	-0,057	0,011
-509,014	19,435	-0,037	-0,022
-507,999	97,759	0,143	-0,121
-506,985	-200,000	-0,010	0,144
-505,970	-200,000	-0,009	-0,048
-504,956	278,279	0,083	-0,109
-503,941	-84,407	-0,095	0,022
-502,926	-200,000	0,021	0,112
-501,912	-76,290	0,112	-0,029
-500,897	-59,971	-0,030	0,009
-499,883	-133,524	-0,108	0,010
-498,868	-200,000	-0,010	0,038
-497,853	-200,000	0,034	-0,120
-496,839	-200,000	0,019	0,093
-495,824	-200,000	0,006	-0,044
-494,810	-195,346	-0,086	0,000
-493,795	92,092	0,073	-0,060
-492,781	800,000	-0,029	-0,068
-491,766	800,000	-0,039	-0,110
-490,751	247,308	-0,057	-0,071
-489,737	-73,230	0,063	0,017
-488,722	51,427	-0,052	0,037
-487,708	800,000	0,034	-0,079
-486,693	-83,236	-0,068	0,016
-485,678	144,489	-0,029	0,029
-484,664	-29,501	0,067	0,028
-483,649	408,262	-0,038	0,059
-482,635	-166,755	0,032	-0,001
-481,620	-85,707	-0,055	0,013
-480,605	92,176	0,064	-0,054
-479,591	800,000	-0,015	-0,049
-478,576	800,000	-0,012	0,030
-477,562	-200,000	0,019	-0,138
-476,547	800,000	0,022	-0,066
-475,532	-200,000	0,003	-0,020
-474,518	-28,553	-0,029	-0,012
-473,503	800,000	-0,034	0,095
-472,489	-108,997	0,212	0,033
-471,474	-141,582	-0,151	-0,011
-470,459	384,108	-0,037	-0,056
-469,445	33,685	0,027	-0,017
-468,430	61,685	-0,069	-0,051
-467,416	402,553	0,050	0,077
-466,401	-200,000	-0,032	0,164
-465,386	800,000	-0,001	0,003
-464,372	-50,673	0,066	0,023
-463,357	282,695	-0,023	-0,030
-462,343	-200,000	0,011	-0,049
-461,328	321,237	-0,036	0,051
-460,313	-200,000	0,011	0,072
-459,299	184,073	0,011	0,012
-458,284	800,000	-0,058	0,154
-457,270	-145,652	-0,039	-0,003
-456,255	-200,000	-0,014	-0,094
-455,241	-200,000	0,002	-0,153
-454,226	-133,085	0,180	0,017
-453,211	-53,177	0,126	-0,042
-452,197	-20,010	-0,022	0,010
-451,182	284,252	-0,043	-0,058
-450,168	-200,000	-0,009	0,151
-449,153	-200,000	0,005	0,033
-448,138	205,421	-0,055	-0,063
-447,124	-200,000	0,018	-0,102
-446,109	390,556	-0,086	0,132
-445,095	-200,000	0,011	0,078
-444,080	22,604	0,072	0,043
-443,065	63,136	0,021	-0,015
-442,051	314,946	0,094	-0,130
-441,036	800,000	-0,036	-0,113
-440,022	395,901	-0,117	-0,180
-439,007	288,214	-0,098	-0,131
-437,992	406,074	-0,102	-0,159
-436,978	800,000	0,027	-0,061
-435,963	-200,000	0,001	0,014
-434,949	-142,552	-0,072	0,005
-433,934	156,828	-0,081	-0,082
-432,919	69,469	-0,034	-0,026
-431,905	327,281	-0,128	-0,182
-430,890	800,000	0,022	-0,052
-429,876	33,867	0,094	0,060
-428,861	-200,000	-0,005	0,030
-427,846	-43,586	0,132	0,049
-426,832	107,872	-0,020	-0,018
-425,817	6,452	-0,089	-0,048
-424,803	800,000	0,024	-0,054
-423,788	800,000	0,028	0,079
-422,773	203,869	0,083	0,095
-421,759	-52,453	0,105	0,035
-420,744	-33,781	0,023	0,009
-419,730	-130,192	0,023	0,002
-418,715	181,752	-0,060	0,065
-417,701	-164,665	0,102	-0,003
-416,686	-18,875	0,099	-0,045
-415,671	-70,815	0,059	0,016
-414,657	800,000	0,025	0,078
-413,642	-200,000	0,018	-0,094
-412,628	800,000	-0,028	-0,060
-411,613	19,454	-0,214	-0,126
-410,598	43,967	0,027	0,018
-409,584	619,244	0,062	-0,116
-408,569	226,586	0,107	0,128
-407,555	98,923	0,133	0,113
-406,540	-200,000	-0,027	0,090
-405,525	-63,049	-0,109	-0,033
-404,511	-200,000	-0,002	-0,090
-403,496	57,143	0,029	-0,021
-402,482	54,240	0,124	-0,087
-401,467	458,731	0,043	-0,071
-400,452	-200,000	-0,007	-0,067
-399,438	800,000	-0,016	-0,044
-398,423	-200,000	0,034	-0,206
-397,409	-200,000	-0,001	0,072
-396,394	362,212	0,031	-0,047
-395,379	183,751	-0,037	-0,041
-394,365	-200,000	-0,042	0,185
-393,350	231,622	0,027	0,032
-392,336	341,765	-0,079	0,114
-391,321	-200,000	0,017	-0,072
-390,306	-200,000	-0,012	-0,073
-389,292	66,978	0,047	-0,035
-388,277	800,000	-0,049	-0,131
-387,263	800,000	0,029	0,068
-386,248	-30,888	0,090	-0,037
-385,233	-27,017	0,061	-0,026
-384,219	-200,000	0,006	0,111
-383,204	-160,624	0,122	0,005
-382,190	-8,019	0,032	-0,016
-381,175	255,196	-0,092	-0,115
-380,160	800,000	-0,035	0,084
-379,146	-200,000	0,040	0,144
-378,131	75,933	0,141	0,110
-377,117	-56,099	-0,042	0,014
-376,102	800,000	-0,040	-0,105
-375,088	800,000	-0,027	0,062
-374,073	-56,181	-0,091	-0,030
-373,058	-4,706	0,102	0,051
-372,044	-200,000	0,027	0,092
-371,029	84,037	0,138	0,111
-370,015	251,498	-0,083	-0,103
-369,000	67,070	0,076	0,056
-367,985	32,693	-0,100	0,064
-366,971	800,000	0,065	-0,190
-365,956	-200,000	-0,011	-0,081
-364,942	124,604	-0,033	-0,031
-363,927	206,589	0,050	0,057
-362,912	63,080	-0,038	-0,028
-361,898	357,982	0,048	-0,071
-360,883	-3,265	-0,040	-0,020
-359,869	434,796	-0,030	-0,048
-358,854	377,689	-0,010	-0,016
-357,839	-17,077	0,109	-0,050
-356,825	-26,574	0,053	0,023
-355,810	-200,000	-0,003	0,064
-354,796	-177,690	0,151	0,003
-353,781	-116,802	0,034	-0,005
-352,766	-200,000	-0,007	-0,036
-351,752	800,000	0,003	-0,006
-350,737	-200,000	-0,008	0,074
-349,723	41,598	0,077	-0,051
-348,708	-4,449	-0,081	0,041
-347,693	697,430	0,012	-0,022
-346,679	-93,388	-0,088	-0,018
-345,664	-200,000	0,017	-0,080
-344,650	-29,458	0,023	-0,010
-343,635	-200,000	-0,004	0,017
-342,620	462,868	-0,062	0,102
-341,606	-200,000	-0,011	0,065
-340,591	-153,949	0,018	0,001
-339,577	93,128	-0,083	-0,069
-338,562	-92,133	0,081	0,017
-337,548	120,024	0,054	0,049
-336,533	-200,000	-0,005	0,057
-335,518	157,496	0,059	-0,060
-334,504	-133,011	0,068	0,006
-333,489	-200,000	0,021	-0,086
-332,475	-200,000	-0,006	-0,099
-331,460	218,327	-0,109	0,128
-330,445	-147,256	-0,026	-0,002
-329,431	-200,000	0,014	-0,101
-328,416	-32,849	0,068	0,028
-327,402	130,417	-0,018	-0,017
-326,387	-200,000	0,004	-0,044
-325,372	782,417	0,027	-0,054
-324,358	-200,000	-0,008	0,049
-323,343	-200,000	0,017	0,064
-322,329	-10,625	0,053	0,026
-321,314	-200,000	-0,003	0,171
-320,299	581,591	0,064	0,115
-319,285	-200,000	0,017	0,149
-318,270	800,000	-0,050	-0,123
-317,256	-200,000	-0,033	-0,164
-316,241	-200,000	0,040	0,153
-315,226	94,393	0,085	0,071
-314,212	-176,444	-0,173	-0,003
-313,197	800,000	-0,046	0,095
-312,183	800,000	-0,037	-0,083
-311,168	-200,000	-0,023	-0,127
-310,153	119,791	-0,032	0,029
-309,139	-140,172	-0,018	0,001
-308,124	-138,388	0,041	0,003
-307,110	-200,000	-0,001	-0,086
-306,095	285,146	0,047	0,063
-305,080	73,948	0,112	0,086
-304,066	800,000	-0,038	-0,089
-303,051	15,774	-0,087	0,050
-302,037	97,463	0,073	-0,061
-301,022	-200,000	0,002	-0,027
-300,008	-200,000	-0,018	0,121
-298,993	356,953	0,080	0,116
-297,978	711,697	0,030	0,058
-296,964	474,450	0,029	-0,048
-295,949	509,194	0,058	0,100
-294,935	3,079	-0,122	-0,065
-293,920	71,940	-0,060	-0,046
-292,905	800,000	-0,028	0,065
-291,891	230,421	-0,063	0,076
-290,876	-97,181	-0,067	-0,013
-289,862	-80,080	-0,026	-0,006
-288,847	-4,014	-0,099	0,050
-287,832	-123,265	-0,173	-0,020
-286,818	-51,715	0,075	0,026
-285,803	346,526	0,072	0,104
-284,789	150,709	-0,068	0,067
-283,774	-93,533	0,045	0,009
-282,759	-146,547	0,013	0,001
-281,745	73,023	0,009	0,007
-280,730	-200,000	0,039	-0,202
-279,716	800,000	0,044	-0,092
-278,701	-10,798	-0,067	0,032
-277,686	-200,000	-0,008	0,170
-276,672	30,970	0,035	0,022
-275,657	34,843	-0,043	-0,027
-274,643	-20,142	-0,150	0,067
-273,628	129,239	0,106	0,099
-272,613	-18,617	-0,044	-0,020
-271,599	-90,853	0,131	0,027
-270,584	82,201	0,064	-0,050
-269,570	-134,264	0,083	0,007
-268,555	142,853	-0,075	0,073
-267,540	-200,000	0,022	-0,127
-266,526	77,528	-0,015	0,012
-265,511	800,000	0,003	-0,008
-264,497	800,000	0,067	0,180
-263,482	150,311	0,077	0,076
-262,467	693,255	0,049	0,095
-261,453	-78,033	0,147	0,037
-260,438	126,009	-0,128	-0,118
-259,424	187,468	-0,053	-0,058
-258,409	302,034	-0,073	-0,099
-257,395	-200,000	-0,013	0,079
-256,380	800,000	0,069	0,164
-255,365	-62,908	-0,067	-0,020
-254,351	800,000	0,013	0,031
-253,336	87,924	0,108	-0,087
-252,322	427,905	-0,009	0,014
-251,307	-141,294	-0,074	0,005
-250,292	467,845	-0,021	-0,034
-249,278	-114,092	0,121	0,017
-248,263	-125,937	0,100	-0,011
-247,249	-200,000	0,002	-0,089
-246,234	-140,867	-0,114	-0,008
-245,219	302,815	0,019	0,026
-244,205	266,144	0,027	-0,035
-243,190	-77,335	0,015	0,004
-242,176	61,756	0,069	-0,050
-241,161	-84,058	-0,080	-0,018
-240,146	8,960	0,007	-0,004
-239,132	-105,757	-0,153	0,025
-238,117	-200,000	-0,015	-0,085
-237,103	800,000	-0,027	-0,071
-236,088	157,182	-0,066	-0,067
-235,073	800,000	0,028	-0,071
-234,059	-200,000	-0,016	-0,124
-233,044	42,055	0,145	0,096
-232,030	-27,174	0,053	0,023
-231,015	478,973	-0,065	-0,109
-230,000	152,494	-0,005	-0,005
-228,986	-200,000	-0,003	0,051
-227,971	-87,630	0,116	0,025
-226,957	800,000	-0,025	0,066
-225,942	235,308	-0,091	0,110
-224,927	296,345	0,022	0,029
-223,913	800,000	-0,031	0,085
-222,898	150,585	0,016	-0,016
-221,884	800,000	-0,051	0,131
-220,869	-133,088	-0,170	-0,016
-219,855	800,000	0,024	-0,056
-218,840	-200,000	0,019	0,116
-217,825	-34,411	-0,116	0,046
-216,811	51,634	0,035	0,025
-215,796	-200,000	0,035	-0,175
-214,782	-66,907	0,021	0,006
-213,767	5,509	0,130	-0,070
-212,752	-165,485	-0,061	-0,002
-211,738	-200,000	0,003	0,068
-210,723	-200,000	0,006	-0,073
-209,709	-200,000	-0,009	0,077
-208,694	-90,201	-0,152	-0,032
-207,679	122,150	0,028	-0,026
-206,665	394,057	0,050	-0,076
-205,650	253,114	0,016	0,020
-204,636	-200,000	-0,014	0,093
-203,621	800,000	-0,023	0,051
-202,606	154,882	-0,076	-0,076
-201,592	-200,000	0,015	-0,114
-200,577	366,095	0,048	0,071
-199,563	-171,348	-0,066	0,002
-198,548	-200,000	-0,009	0,051
-197,533	62,799	0,109	0,080
-196,519	239,073	-0,038	0,046
-195,504	-82,299	0,093	-0,022
-194,490	505,247	0,044	-0,075
-193,475	-116,460	0,112	0,015
-192,460	-200,000	0,013	0,063
-191,446	66,338	0,069	-0,051
-190,431	572,992	0,051	0,092
-189,417	146,884	0,085	0,084
-188,402	-25,783	-0,114	-0,049
-187,387	-24,756	0,029	0,013
-186,373	143,610	0,056	0,055
-185,358	305,504	-0,044	-0,060
-184,344	235,719	0,119	0,143
-183,329	508,003	0,051	0,087
-182,315	102,085	0,137	0,116
-181,300	94,114	-0,049	0,041
-180,285	205,123	0,013	0,015
-179,271	41,874	0,087	0,057
-178,256	-200,000	-0,011	-0,160
-177,242	800,000	-0,013	0,027
-176,227	684,004	0,089	0,169
-175,212	286,505	0,046	0,061
-174,198	201,664	0,069	-0,078
-173,183	-136,662	-0,061	0,005
-172,169	-174,949	0,050	0,001
-171,154	-110,795	-0,109	-0,016
-170,139	-200,000	-0,028	-0,116
-169,125	89,863	0,043	0,035
-168,110	-58,588	-0,067	-0,021
-167,096	357,549	-0,077	0,113
-166,081	-200,000	0,025	0,095
-165,066	-81,636	-0,053	0,013
-164,052	204,990	-0,032	0,036
-163,037	82,401	-0,069	0,055
-162,023	58,626	0,093	-0,066
-161,008	277,269	-0,110	0,143
-159,993	-200,000	-0,012	0,054
-158,979	14,910	0,063	0,036
-157,964	111,748	0,016	-0,014
-156,950	-200,000	0,008	-0,031
-155,935	-200,000	-0,008	0,071
-154,920	68,956	-0,073	0,055
-153,906	-200,000	0,012	-0,115
-152,891	-8,088	0,016	0,008
-151,877	-39,330	0,143	-0,054
-150,862	-200,000	-0,094	0,000
-149,847	86,661	0,021	0,017
-148,833	-24,773	0,075	-0,032
-147,818	-16,113	0,071	-0,033
-146,804	-200,000	-0,004	0,088
-145,789	-11,929	0,034	0,016
-144,775	-200,000	0,012	-0,132
-143,760	-138,280	-0,107	-0,009
-142,745	800,000	-0,012	-0,026
-141,731	-11,023	0,087	-0,042
-140,716	-82,878	0,106	-0,025
-139,702	452,525	-0,045	0,073
-138,687	-67,210	0,213	0,061
-137,672	-200,000	-0,010	-0,082
-136,658	-200,000	0,003	-0,037
-135,643	601,886	0,042	-0,077
-134,629	800,000	-0,034	-0,086
-133,614	123,563	0,052	0,047
-132,599	-55,355	0,086	0,028
-131,585	238,783	0,100	0,121
-130,570	-200,000	0,017	0,108
-129,556	800,000	-0,048	0,149
-128,541	-200,000	-0,008	-0,069
-127,526	-20,654	-0,079	0,035
-126,512	207,127	0,048	0,054
-125,497	-200,000	-0,040	-0,161
-124,483	22,088	0,052	-0,031
-123,468	84,742	-0,145	-0,116
-122,453	-200,000	0,008	0,031
-121,439	312,744	-0,034	0,046
-120,424	740,077	0,013	0,025
-119,410	-90,880	0,065	-0,013
-118,395	-180,957	0,133	0,002
-117,380	-200,000	0,027	0,169
-116,366	-16,806	0,096	0,044
-115,351	-60,393	0,089	-0,028
-114,337	62,218	-0,075	-0,054
-113,322	287,254	-0,026	-0,034
-112,307	-55,986	-0,044	0,014
-111,293	-55,312	0,060	-0,020
-110,278	-85,708	0,130	0,029
-109,264	800,000	0,028	0,077
-108,249	794,038	-0,047	0,095
-107,234	706,262	-0,041	0,078
-106,220	627,504	-0,077	0,142
-105,205	-200,000	0,009	-0,049
-104,191	800,000	0,027	-0,074
-103,176	-200,000	-0,019	0,114
-102,162	76,377	0,040	0,031
-101,147	-187,191	0,064	-0,001
-100,132	-107,620	-0,129	-0,020
-99,118	-76,982	-0,070	0,018
-98,103	194,945	-0,083	-0,091
-97,089	800,000	0,096	0,206
-96,074	800,000	0,055	0,155
-95,059	404,522	-0,035	0,053
-94,045	13,218	-0,138	0,077
-93,030	-200,000	-0,006	0,045
-92,016	82,263	-0,053	-0,042
-91,001	-126,346	-0,041	0,004
-89,986	-145,846	0,186	0,012
-88,972	347,063	0,016	-0,022
-87,957	800,000	-0,019	-0,053
-86,943	-23,198	0,080	-0,035
-85,928	-33,767	-0,072	0,029
-84,913	-200,000	-0,041	-0,133
-83,899	240,984	0,041	-0,050
-82,884	-200,000	-0,028	0,106
-81,870	-93,737	0,065	-0,013
-80,855	59,685	0,058	-0,042
-79,840	-200,000	0,000	-0,030
-78,826	755,369	-0,067	-0,133
-77,811	87,466	0,034	0,027
-76,797	94,000	-0,098	0,080
-75,782	144,815	-0,082	-0,080
-74,767	-111,258	0,062	0,009
-73,753	-194,456	-0,161	-0,001
-72,738	303,674	-0,037	0,050
-71,724	800,000	-0,034	0,103
-70,709	-50,043	0,102	0,035
-69,694	26,952	-0,072	-0,044
-68,680	15,167	-0,049	0,028
-67,665	-200,000	0,031	0,150
-66,651	446,170	0,041	-0,065
-65,636	-200,000	0,014	0,071
-64,622	93,663	-0,044	-0,036
-63,607	-34,295	-0,088	0,035
-62,592	235,958	0,046	0,056
-61,578	-200,000	-0,006	0,080
-60,563	-200,000	0,023	0,087
-59,549	499,115	-0,074	0,124
-58,534	-178,216	-1,384	-0,023
-57,519	580,353	-0,932	-1,664
-56,505	-200,000	-0,825	-4,436
-55,490	-18,044	0,659	-0,298
-54,476	800,000	4,859	11,813
-53,461	-200,000	13,953	254,528
-52,446	-200,000	693,959	2263,234
-51,432	599,293	1624,297	2935,651
-50,417	117,746	1633,215	1458,631
-49,403	73,542	1287,366	976,948
-48,388	37,419	1023,666	657,017
-47,373	23,952	981,852	585,878
-46,359	23,199	971,278	577,076
-45,344	22,147	966,962	571,050
-44,330	22,013	965,764	569,885
-43,315	21,935	964,180	568,672
-42,300	21,920	963,006	567,910
-41,286	21,949	962,026	567,402
-40,271	21,862	961,243	566,636
-39,257	21,886	960,242	566,102
-38,242	21,947	959,171	565,645
-37,227	21,862	958,584	565,000
-36,213	21,862	957,738	564,478
-35,198	21,843	956,885	563,893
-34,184	21,905	956,118	563,617
-33,169	21,831	955,154	562,790
-32,154	21,890	954,319	562,466
-31,140	21,907	953,408	561,960
-30,125	21,909	952,628	561,486
-29,111	21,944	951,690	561,021
-28,096	21,937	951,121	560,642
-27,082	21,929	950,444	560,197
-26,067	21,921	949,576	559,636
-25,052	21,947	948,805	559,243
-24,038	21,899	948,424	558,843
-23,023	21,830	947,746	558,201
-22,009	22,026	947,061	558,399
-20,994	21,987	946,270	557,788
-19,979	21,955	945,719	557,337
-18,965	21,909	945,099	556,805
-17,950	21,882	944,558	556,376
-16,936	21,835	943,732	555,717
-15,921	21,867	943,170	555,466
-14,906	21,827	942,330	554,823
-13,892	21,785	941,709	554,303
-12,877	21,753	941,216	553,887
-11,863	21,773	940,478	553,495
-10,848	21,860	939,836	553,373
-9,833	21,890	939,589	553,299
-8,819	21,819	939,100	552,764
-7,804	21,746	938,323	552,053
-6,790	21,770	937,487	551,616
-5,775	21,879	936,916	551,604
-4,760	21,830	936,524	551,194
-3,746	21,776	935,749	550,547
-2,731	21,598	935,162	549,617
-1,717	21,631	934,319	549,205
-0,702	21,604	933,718	548,744
0,313	21,366	933,146	548,485
1,327	23,898	930,590	554,893
2,342	31,362	809,067	502,673
3,356	25,987	509,603	307,399
4,371	1,712	374,541	194,950
5,386	-1,320	357,642	182,405
6,400	-2,299	351,547	178,095
7,415	-2,663	349,188	176,446
8,429	-2,571	347,755	175,817
9,444	-2,634	346,718	175,201
10,459	-2,605	346,032	174,873
11,473	-2,501	345,280	174,601
12,488	-2,543	344,814	174,300
13,502	-2,705	344,172	173,768
14,517	-2,746	343,764	173,499
15,531	-2,523	343,212	173,467
16,546	-2,495	342,914	173,335
17,561	-2,461	342,329	173,063
18,575	-2,369	342,076	173,028
19,590	-2,534	341,664	172,610
20,604	-2,380	341,356	172,620
21,619	-2,469	341,026	172,334
22,634	-2,548	340,710	172,067
23,648	-2,452	340,262	171,937
24,663	-2,375	339,973	171,866
25,677	-2,437	339,766	171,673
26,692	-2,618	339,508	171,317
27,707	-2,463	339,153	171,303
28,721	-2,468	338,809	171,108
29,736	-2,424	338,415	170,945
30,750	-2,456	338,202	170,785
31,765	-2,424	337,830	170,620
32,780	-2,407	337,526	170,470
33,794	-2,449	337,269	170,276
34,809	-2,418	336,993	170,157
35,823	-2,540	336,749	169,878
36,838	-2,681	336,435	169,541
37,853	-2,481	336,167	169,623
38,867	-2,387	335,808	169,535
39,882	-2,566	335,717	169,267
40,896	-2,551	335,481	169,150
41,911	-2,358	335,086	169,158
42,926	-2,364	334,797	168,991
43,940	-2,386	334,348	168,723
44,955	-2,505	334,384	168,590
45,969	-2,387	334,100	168,567
46,984	-2,449	333,838	168,349
47,999	-2,395	333,550	168,250
49,013	-2,538	333,365	167,978
50,028	-2,648	333,026	167,667
51,042	-2,499	332,733	167,675
52,057	-2,578	332,510	167,457
53,071	-2,581	332,265	167,316
54,086	-2,441	331,802	167,227
55,101	-2,636	331,761	166,968
56,115	-2,390	331,421	167,063
57,130	-2,497	331,217	166,823
58,144	-2,466	330,859	166,664
59,159	-2,615	330,713	166,406
60,174	-2,418	330,241	166,377
61,188	-2,563	330,165	166,159
62,203	-2,413	329,770	166,115
63,217	-2,418	329,514	165,966
64,232	-2,411	329,344	165,873
65,247	-2,469	329,095	165,668
66,261	-2,448	328,792	165,524
67,276	-2,426	328,419	165,347
68,290	-2,413	328,270	165,271
69,305	-2,551	328,098	165,015
70,320	-2,375	327,794	165,045
71,334	-2,314	327,534	164,967
72,349	-2,441	327,174	164,629
73,363	-2,476	326,934	164,454
74,378	-2,480	326,763	164,350
75,393	-2,425	326,419	164,223
76,407	-2,352	326,284	164,223
77,422	-2,489	326,022	163,923
78,436	-2,407	325,652	163,814
79,451	-2,528	325,389	163,532
80,466	-2,471	325,190	163,481
81,480	-2,532	324,966	163,286
82,495	-2,373	324,728	163,329
83,509	-2,395	324,565	163,208
84,524	-2,508	324,292	162,930
85,539	-2,494	324,007	162,788
86,553	-2,591	323,813	162,568
87,568	-2,443	323,643	162,632
88,582	-2,476	323,223	162,370
89,597	-2,455	323,112	162,323
90,611	-2,389	322,918	162,285
91,626	-2,613	322,622	161,874
92,641	-2,606	322,530	161,821
93,655	-2,539	322,387	161,809
94,670	-2,484	321,938	161,629
95,684	-2,517	321,702	161,461
96,699	-2,339	321,416	161,498
97,714	-2,504	321,178	161,183
98,728	-2,585	320,958	160,969
99,743	-2,514	320,818	160,962
100,757	-2,390	320,376	160,862
101,772	-2,403	320,324	160,807
102,787	-2,418	320,062	160,645
103,801	-2,480	319,758	160,411
104,816	-2,564	319,703	160,277
105,830	-2,410	319,513	160,336
106,845	-2,382	319,150	160,169
107,860	-2,461	318,909	159,949
108,874	-2,361	318,675	159,925
109,889	-2,421	318,465	159,741
110,903	-2,272	318,152	159,731
111,918	-2,465	318,031	159,447
112,933	-2,529	317,773	159,234
113,947	-2,473	317,521	159,154
114,962	-2,468	317,224	158,996
115,976	-2,466	317,164	158,954
116,991	-2,384	316,899	158,896
118,006	-2,478	316,668	158,664
119,020	-2,443	316,438	158,573
120,035	-2,339	316,371	158,638
121,049	-2,541	316,070	158,254
122,064	-2,503	315,843	158,167
123,079	-2,374	315,380	158,061
124,093	-2,345	315,239	158,006
125,108	-2,488	315,017	157,728
126,122	-2,650	314,971	157,517
127,137	-2,621	314,700	157,398
128,151	-2,473	314,492	157,439
129,166	-2,386	314,267	157,406
130,181	-2,509	314,037	157,145
131,195	-2,471	313,732	157,019
132,210	-2,358	313,421	156,970
133,224	-2,542	313,196	156,646
134,239	-2,272	312,835	156,740
135,254	-2,391	312,707	156,535
136,268	-2,444	312,475	156,348
137,283	-2,352	312,376	156,383
138,297	-2,378	312,088	156,197
139,312	-2,549	311,992	155,953
140,327	-2,393	311,601	155,909
141,341	-2,311	311,468	155,916
142,356	-2,466	311,208	155,608
143,370	-2,481	311,048	155,498
144,385	-2,238	310,753	155,594
145,400	-2,348	310,726	155,450
146,414	-2,375	310,561	155,326
147,429	-2,296	310,175	155,201
148,443	-2,478	309,930	154,874
149,458	-2,361	309,771	154,903
150,473	-2,420	309,522	154,702
151,487	-2,256	309,360	154,781
152,502	-2,350	309,064	154,520
153,516	-2,428	309,004	154,394
154,531	-2,367	308,635	154,260
155,546	-2,313	308,442	154,206
156,560	-2,398	308,317	154,041
157,575	-2,455	308,140	153,879
158,589	-2,464	307,781	153,676
159,604	-2,446	307,574	153,578
160,619	-2,516	307,374	153,392
161,633	-2,141	307,135	153,651
162,648	-2,270	306,985	153,427
163,662	-2,432	306,913	153,209
164,677	-2,426	306,482	152,985
165,692	-2,192	306,239	153,095
166,706	-2,372	306,331	152,939
167,721	-2,191	305,970	152,934
168,735	-2,401	305,907	152,671
169,750	-2,351	305,515	152,513
170,764	-2,449	305,329	152,305
171,779	-2,382	305,232	152,312
172,794	-2,402	305,085	152,205
173,808	-2,404	304,808	152,051
174,823	-2,374	304,402	151,865
175,837	-2,409	304,300	151,766
176,852	-2,277	304,144	151,810
177,867	-2,461	303,828	151,449
178,881	-2,360	303,885	151,568
179,896	-2,244	303,611	151,538
180,910	-2,230	303,355	151,411
181,925	-2,417	303,216	151,135
182,940	-2,411	302,921	150,980
183,954	-2,501	302,789	150,810
184,969	-2,406	302,648	150,823
185,983	-2,263	302,286	150,775
186,998	-2,178	302,199	150,807
188,013	-2,271	302,047	150,621
189,027	-2,194	301,632	150,480
190,042	-2,282	301,512	150,317
191,056	-2,486	301,344	150,011
192,071	-2,393	301,093	149,967
193,086	-2,343	300,720	149,820
194,100	-2,547	300,791	149,634
195,115	-2,258	300,432	149,736
196,129	-2,333	300,258	149,559
197,144	-2,194	299,888	149,503
198,159	-2,267	299,707	149,326
199,173	-2,263	299,451	149,189
200,188	-2,401	299,440	149,030
201,202	-2,447	299,290	148,895
202,217	-2,314	298,976	148,860
203,232	-2,500	298,789	148,566
204,246	-2,367	298,562	148,574
205,261	-2,293	298,270	148,490
206,275	-2,241	298,226	148,508
207,290	-2,272	298,086	148,393
208,304	-2,354	297,841	148,176
209,319	-2,264	297,517	148,092
210,334	-2,290	297,372	147,980
211,348	-2,350	297,212	147,827
212,363	-2,223	296,874	147,774
213,377	-2,441	296,867	147,538
214,392	-2,346	296,562	147,469
215,407	-2,308	296,364	147,395
216,421	-2,327	296,029	147,196
217,436	-2,287	295,892	147,154
218,450	-2,366	295,808	147,021
219,465	-2,336	295,597	146,933
220,480	-2,253	295,439	146,924
221,494	-2,302	295,180	146,733
222,509	-2,211	295,087	146,765
223,523	-2,331	294,895	146,537
224,538	-2,240	294,532	146,434
225,553	-2,240	294,426	146,368
226,567	-2,310	294,376	146,260
227,582	-2,368	294,211	146,108
228,596	-2,262	293,788	145,990
229,611	-2,216	293,731	145,994
230,626	-2,142	293,343	145,861
231,640	-2,339	293,306	145,635
232,655	-2,445	293,275	145,502
233,669	-2,427	292,910	145,326
234,684	-2,408	292,651	145,203
235,699	-2,404	292,663	145,199
236,713	-2,272	292,372	145,173
237,728	-2,329	292,217	145,026
238,742	-2,305	291,918	144,889
239,757	-2,324	291,759	144,779
240,772	-2,388	291,552	144,599
241,786	-2,452	291,371	144,434
242,801	-2,246	291,108	144,494
243,815	-2,434	291,015	144,250
244,830	-2,235	290,777	144,314
245,844	-2,277	290,582	144,163
246,859	-2,349	290,549	144,063
247,874	-2,519	290,290	143,755
248,888	-2,365	289,945	143,723
249,903	-2,426	289,752	143,554
250,917	-2,576	289,680	143,360
251,932	-2,262	289,438	143,534
252,947	-2,584	289,132	143,055
253,961	-3,016	289,010	142,560
254,976	-2,779	288,554	142,554
255,990	-3,243	288,508	142,067
257,005	-2,575	288,531	142,715
258,020	-0,507	289,173	145,035
259,034	0,989	289,770	146,782
260,049	1,664	289,861	147,472
261,063	2,166	289,731	147,882
262,078	2,313	289,593	147,941
263,093	2,736	289,402	148,243
264,107	2,906	289,378	148,381
265,122	3,142	289,407	148,612
266,136	3,155	289,075	148,442
267,151	3,132	288,964	148,349
268,166	3,106	288,827	148,241
269,180	3,332	288,477	148,266
270,195	2,986	288,441	147,900
271,209	2,991	288,231	147,783
272,224	3,003	288,030	147,679
273,239	2,955	287,861	147,533
274,253	2,810	287,599	147,246
275,268	2,916	287,430	147,248
276,282	2,645	287,334	146,924
277,297	2,880	286,978	146,956
278,312	2,959	286,860	146,958
279,326	3,010	286,737	146,931
280,341	2,921	286,457	146,689
281,355	2,782	286,400	146,513
282,370	2,868	286,017	146,387
283,384	3,000	285,848	146,413
284,399	2,801	285,737	146,153
285,414	2,950	285,529	146,177
286,428	2,702	285,399	145,859
287,443	2,865	285,161	145,881
288,457	2,653	284,775	145,468
289,472	2,702	284,769	145,498
290,487	2,815	284,282	145,345
291,501	2,623	284,278	145,146
292,516	2,704	284,019	145,078
293,530	2,717	284,093	145,115
294,545	2,667	283,795	144,903
295,560	2,774	283,501	144,842
296,574	2,608	283,320	144,578
297,589	2,564	283,245	144,486
298,603	2,481	283,028	144,283
299,618	2,568	282,878	144,276
300,633	2,652	282,684	144,244
301,647	2,657	282,575	144,180
302,662	2,654	282,459	144,106
303,676	2,919	282,148	144,184
304,691	3,079	281,923	144,207
305,706	3,188	281,698	144,182
306,720	2,995	281,649	143,963
307,735	3,038	281,543	143,935
308,749	2,888	281,414	143,716
309,764	3,045	281,154	143,718
310,779	2,860	280,916	143,410
311,793	2,792	280,764	143,256
312,808	2,821	280,549	143,160
313,822	3,023	280,299	143,209
314,837	2,927	280,136	143,024
315,852	2,918	279,979	142,922
316,866	3,067	279,770	142,941
317,881	2,883	279,709	142,726
318,895	2,867	279,370	142,525
319,910	2,847	279,269	142,442
320,925	2,874	279,149	142,394
321,939	2,931	278,924	142,319
322,954	2,914	278,903	142,280
323,968	3,072	278,647	142,284
324,983	2,933	278,380	142,006
325,997	2,935	278,356	141,982
327,012	3,050	278,104	141,948
328,027	2,979	277,810	141,719
329,041	3,076	277,714	141,748
330,056	3,183	277,568	141,759
331,070	3,176	277,354	141,631
332,085	3,070	277,196	141,440
333,100	3,092	277,094	141,395
334,114	3,146	276,815	141,291
335,129	3,066	276,740	141,165
336,143	3,027	276,489	140,989
337,158	2,969	276,437	140,896
338,173	2,937	276,190	140,729
339,187	3,037	276,028	140,726
340,202	3,011	275,747	140,546
341,216	2,892	275,606	140,352
342,231	2,929	275,430	140,283
343,246	3,031	275,151	140,223
344,260	3,166	274,923	140,218
345,275	3,193	274,948	140,243
346,289	3,158	274,810	140,128
347,304	3,168	274,597	140,015
348,319	3,030	274,293	139,722
349,333	2,915	274,242	139,579
350,348	2,878	274,120	139,471
351,362	3,123	273,926	139,583
352,377	2,961	273,612	139,262
353,392	2,993	273,561	139,253
354,406	3,117	273,310	139,226
355,421	190,810	1350,310	1428,635
356,435	154,039	1481,624	1428,781
