DTS Sentinel unit serial number:	SN410029Multiplexer serial number:	ORYXHardware model number:	OX2-SRSoftware version number:	ORYX F/W v4,00 Oryx Data Collector v3.7.2.0data status	okinstallation	B4 Nyhavnadifferential loss correction	single-endedforward channel	channel 2reverse channel	N/Adate	2023/12/19time	10:30:13forward acquisition time	300,00reverse acquisition time	0,00gamma	499,1914k internal	0,3127k external	0,3127temperature offset calibration	1,0000default loss term (dB/km)	0,3820temperature slope calibration	1,0000multiplexer offset coefficient	1,0000multiplexer slope coefficient	1,0000fibre end	0,00T internal ref (°C)	20,06T ext. ref 1 (°C)	4,77T ext. ref 2 (°C)	4,72length (m)	temperature (°C)	Stokes	anti-Stokes-744,400	-200,000	-0,004	-0,129
-743,385	-42,346	-0,168	0,063
-742,371	473,256	0,057	0,097
-741,356	43,244	-0,169	0,115
-740,342	-200,000	0,016	0,054
-739,327	-75,167	-0,321	0,085
-738,312	133,818	-0,126	-0,121
-737,298	22,917	-0,276	0,168
-736,283	672,123	0,034	-0,067
-735,269	-55,843	-0,145	0,048
-734,254	800,000	-0,016	-0,042
-733,239	-74,650	-0,472	-0,125
-732,225	-29,374	0,052	-0,022
-731,210	-55,763	0,116	0,038
-730,196	0,583	-0,162	0,086
-729,181	800,000	0,027	-0,057
-728,167	76,992	-0,101	0,080
-727,152	-119,610	-0,061	0,008
-726,137	-2,268	0,077	0,040
-725,123	295,928	-0,100	-0,137
-724,108	-200,000	0,028	-0,129
-723,094	-43,300	-0,157	-0,059
-722,079	588,996	-0,037	-0,068
-721,064	395,578	-0,037	-0,058
-720,050	800,000	-0,055	0,126
-719,035	-71,271	0,073	0,020
-718,021	643,925	-0,038	-0,073
-717,006	800,000	-0,056	-0,161
-715,991	-189,078	-0,258	0,002
-714,977	-200,000	-0,016	-0,061
-713,962	-122,623	0,093	-0,011
-712,948	290,026	-0,063	0,085
-711,933	-32,358	0,051	0,021
-710,918	235,309	0,030	0,037
-709,904	800,000	-0,077	-0,162
-708,889	-67,428	-0,118	-0,034
-707,875	-102,488	-0,105	-0,018
-706,860	230,023	0,114	-0,138
-705,845	-149,797	0,051	-0,003
-704,831	313,685	-0,038	-0,053
-703,816	-122,644	-0,073	-0,009
-702,802	64,703	0,026	-0,019
-701,787	-200,000	-0,039	-0,252
-700,772	30,864	0,045	-0,029
-699,758	-200,000	-0,015	-0,071
-698,743	-116,882	-0,155	0,021
-697,729	111,489	0,108	-0,097
-696,714	249,137	-0,033	0,041
-695,699	-200,000	0,013	-0,134
-694,685	46,322	-0,054	-0,037
-693,670	-200,000	-0,008	-0,176
-692,656	148,113	-0,083	-0,083
-691,641	-69,087	0,049	0,014
-690,627	800,000	0,033	0,077
-689,612	238,399	0,073	-0,090
-688,597	398,026	-0,068	0,105
-687,583	-61,310	-0,126	0,039
-686,568	-200,000	-0,037	-0,143
-685,554	-16,213	-0,036	-0,017
-684,539	15,805	0,089	0,052
-683,524	-50,552	-0,154	-0,053
-682,510	-200,000	-0,015	0,063
-681,495	-15,646	0,075	0,035
-680,481	-200,000	0,014	-0,073
-679,466	5,694	-0,062	-0,034
-678,451	176,123	-0,017	-0,018
-677,437	-96,472	0,057	0,011
-676,422	-200,000	0,045	0,178
-675,408	99,504	-0,032	-0,028
-674,393	-200,000	-0,030	-0,148
-673,378	-83,930	-0,040	-0,009
-672,364	800,000	-0,022	-0,063
-671,349	84,919	-0,079	-0,064
-670,335	-140,820	-0,102	0,008
-669,320	800,000	0,041	0,095
-668,305	81,216	0,061	0,049
-667,291	203,350	-0,048	0,055
-666,276	-99,215	0,089	-0,016
-665,262	-200,000	0,022	-0,101
-664,247	-14,235	-0,034	-0,016
-663,232	516,591	0,062	-0,107
-662,218	250,219	0,069	0,088
-661,203	-72,525	-0,023	0,006
-660,189	-200,000	0,023	0,081
-659,174	152,413	-0,073	0,074
-658,159	-123,494	-0,069	-0,008
-657,145	312,154	-0,069	-0,097
-656,130	157,612	-0,082	-0,084
-655,116	18,909	0,037	-0,022
-654,101	84,854	-0,053	0,043
-653,086	19,146	-0,176	0,104
-652,072	-137,891	-0,074	0,006
-651,057	73,987	-0,058	0,045
-650,043	316,071	0,060	-0,084
-649,028	169,774	-0,101	-0,107
-648,014	-200,000	0,035	0,122
-646,999	483,758	0,040	0,068
-645,984	-5,458	-0,066	0,033
-644,970	-118,208	-0,105	0,014
-643,955	146,640	-0,116	0,115
-642,941	469,038	-0,073	-0,122
-641,926	15,748	0,071	0,041
-640,911	-63,095	0,050	0,015
-639,897	350,890	0,041	0,060
-638,882	-14,895	-0,041	-0,019
-637,868	170,851	0,064	-0,068
-636,853	529,918	-0,044	-0,078
-635,838	800,000	-0,064	-0,141
-634,824	-38,936	0,061	-0,024
-633,809	226,620	-0,031	0,037
-632,795	153,878	-0,008	0,008
-631,780	145,294	0,047	0,047
-630,765	45,410	0,042	0,029
-629,751	62,797	0,088	-0,065
-628,736	712,480	0,030	-0,059
-627,722	-200,000	0,006	0,115
-626,707	-200,000	0,002	0,032
-625,692	-200,000	0,015	0,063
-624,678	-69,309	0,015	0,004
-623,663	-200,000	0,031	-0,135
-622,649	-200,000	-0,044	-0,162
-621,634	58,981	-0,039	0,028
-620,619	800,000	0,081	0,175
-619,605	-82,315	-0,055	-0,013
-618,590	76,153	-0,056	0,044
-617,576	175,784	0,097	0,104
-616,561	-97,160	-0,165	-0,032
-615,546	-200,000	0,012	-0,134
-614,532	-14,212	0,069	-0,033
-613,517	-32,900	-0,082	-0,034
-612,503	111,852	0,018	0,016
-611,488	800,000	-0,038	0,108
-610,474	-50,836	0,020	-0,007
-609,459	-66,869	0,082	-0,024
-608,444	-200,000	-0,009	-0,087
-607,430	235,922	-0,028	0,035
-606,415	-141,058	-0,104	0,008
-605,401	-200,000	-0,006	-0,086
-604,386	-200,000	-0,007	-0,077
-603,371	268,725	-0,048	0,062
-602,357	16,193	-0,102	0,059
-601,342	86,021	-0,073	-0,059
-600,328	-60,316	-0,036	0,011
-599,313	31,436	-0,150	-0,095
-598,298	-69,026	-0,031	-0,009
-597,284	-16,181	0,133	-0,062
-596,269	-32,148	-0,076	-0,031
-595,255	-103,530	-0,147	0,025
-594,240	311,822	-0,023	-0,033
-593,225	11,863	-0,100	0,057
-592,211	-200,000	0,019	-0,063
-591,196	230,396	0,112	0,136
-590,182	97,847	0,124	-0,105
-589,167	-128,797	0,107	0,011
-588,152	116,207	-0,118	0,107
-587,138	-200,000	0,007	0,059
-586,123	-132,828	-0,099	0,009
-585,109	241,737	-0,057	-0,071
-584,094	-132,858	0,057	-0,005
-583,079	800,000	-0,042	0,116
-582,065	25,284	-0,053	0,032
-581,050	-38,174	-0,158	0,062
-580,036	215,913	0,092	-0,108
-579,021	391,681	-0,034	0,052
-578,006	-62,302	0,077	-0,024
-576,992	322,344	-0,109	-0,154
-575,977	-200,000	0,019	0,072
-574,963	67,142	0,120	0,090
-573,948	2,559	0,049	-0,026
-572,934	-38,631	-0,094	-0,037
-571,919	-26,822	-0,124	-0,053
-570,904	-200,000	0,013	0,061
-569,890	-200,000	-0,030	-0,179
-568,875	-16,720	0,043	0,020
-567,861	145,842	-0,028	-0,028
-566,846	-200,000	-0,024	0,133
-565,831	-200,000	-0,008	0,066
-564,817	-49,897	-0,132	-0,046
-563,802	800,000	-0,028	-0,078
-562,788	-107,795	0,129	-0,020
-561,773	-200,000	-0,007	-0,033
-560,758	-200,000	0,025	-0,091
-559,744	-1,099	0,144	0,075
-558,729	160,737	-0,118	0,122
-557,715	-56,619	-0,087	0,028
-556,700	-110,907	0,072	-0,011
-555,685	-200,000	0,004	0,048
-554,671	-200,000	0,004	-0,074
-553,656	800,000	0,055	0,124
-552,642	419,107	0,054	0,086
-551,627	496,107	-0,043	-0,073
-550,612	-200,000	-0,028	-0,130
-549,598	-107,427	-0,152	-0,024
-548,583	5,183	0,044	0,024
-547,569	800,000	0,068	-0,167
-546,554	-97,719	0,015	-0,003
-545,539	448,396	0,025	0,041
-544,525	93,122	-0,034	0,028
-543,510	-71,950	-0,091	-0,025
-542,496	431,674	-0,048	-0,078
-541,481	-70,445	-0,062	0,017
-540,466	-77,825	0,058	-0,015
-539,452	18,841	-0,077	0,045
-538,437	-200,000	0,011	-0,068
-537,423	800,000	0,028	0,074
-536,408	-200,000	-0,002	-0,089
-535,393	17,448	0,114	0,067
-534,379	800,000	-0,047	-0,108
-533,364	-200,000	-0,004	-0,051
-532,350	11,676	0,118	0,067
-531,335	-49,348	-0,023	0,008
-530,321	433,556	0,035	0,056
-529,306	-107,177	0,124	-0,020
-528,291	15,603	-0,114	-0,066
-527,277	-200,000	-0,020	-0,120
-526,262	-193,664	-0,032	-0,000
-525,248	800,000	0,052	-0,143
-524,233	-200,000	-0,001	0,056
-523,218	-83,351	-0,029	-0,007
-522,204	-122,809	0,164	-0,019
-521,189	800,000	0,041	-0,117
-520,175	-200,000	-0,010	-0,064
-519,160	800,000	-0,053	-0,137
-518,145	151,960	0,012	0,012
-517,131	-200,000	0,027	-0,166
-516,116	27,757	0,068	-0,042
-515,102	42,518	-0,085	-0,057
-514,087	-200,000	-0,020	-0,216
-513,072	38,425	0,045	0,029
-512,058	172,335	-0,025	0,027
-511,043	-76,135	0,042	0,011
-510,029	330,509	0,114	0,162
-509,014	-200,000	0,008	0,027
-507,999	-136,676	0,040	0,003
-506,985	-200,000	0,002	-0,091
-505,970	-64,942	-0,052	0,015
-504,956	800,000	-0,045	-0,093
-503,941	482,462	0,056	0,093
-502,926	-5,473	0,049	-0,025
-501,912	-36,892	0,057	-0,022
-500,897	-200,000	0,005	-0,060
-499,883	357,370	0,032	0,048
-498,868	797,584	0,053	0,107
-497,853	-10,865	-0,095	-0,046
-496,839	-200,000	0,009	0,043
-495,824	164,846	-0,035	-0,036
-494,810	-86,073	-0,086	0,020
-493,795	546,319	0,049	-0,086
-492,781	-200,000	-0,012	-0,043
-491,766	-200,000	0,042	-0,142
-490,751	-200,000	-0,020	0,090
-489,737	-67,672	-0,086	0,025
-488,722	-22,466	0,159	0,071
-487,708	-92,608	-0,072	-0,015
-486,693	278,666	0,086	-0,113
-485,678	800,000	-0,037	-0,114
-484,664	-200,000	0,011	0,044
-483,649	-200,000	-0,026	0,121
-482,635	-200,000	0,032	0,111
-481,620	-200,000	-0,008	0,092
-480,605	6,802	0,115	-0,063
-479,591	287,882	0,062	0,082
-478,576	-144,886	0,193	0,013
-477,562	-74,583	0,087	-0,023
-476,547	36,447	-0,140	-0,091
-475,532	39,852	0,030	-0,020
-474,518	-200,000	0,006	-0,076
-473,503	73,435	0,025	0,019
-472,489	197,013	0,040	-0,045
-471,474	-161,015	-0,049	0,002
-470,459	-7,478	-0,096	-0,048
-469,445	-77,583	-0,126	0,032
-468,430	243,294	0,061	0,076
-467,416	301,931	0,044	0,060
-466,401	-92,543	0,157	0,032
-465,386	-200,000	0,044	0,178
-464,372	-200,000	-0,006	-0,030
-463,357	800,000	-0,032	-0,078
-462,343	-58,315	-0,065	0,021
-461,328	800,000	-0,017	-0,046
-460,313	-141,553	0,141	-0,010
-459,299	-150,842	0,070	-0,004
-458,284	351,080	-0,011	-0,016
-457,270	-146,099	0,045	-0,003
-456,255	57,208	-0,094	-0,067
-455,241	-200,000	-0,004	-0,041
-454,226	56,099	0,075	-0,054
-453,211	130,001	-0,010	0,009
-452,197	59,205	0,098	-0,071
-451,182	-151,005	-0,067	-0,004
-450,168	499,566	-0,046	0,077
-449,153	-30,948	-0,158	0,065
-448,138	-143,737	-0,087	-0,006
-447,124	-200,000	-0,002	-0,079
-446,109	800,000	-0,032	0,068
-445,095	-44,861	-0,065	-0,024
-444,080	-124,025	0,107	0,012
-443,065	-200,000	0,017	0,083
-442,051	-113,954	-0,153	-0,022
-441,036	800,000	0,003	-0,006
-440,022	17,891	0,046	-0,027
-439,007	73,366	0,036	0,028
-437,992	-200,000	-0,016	-0,096
-436,978	46,915	-0,116	0,079
-435,963	-200,000	-0,027	0,134
-434,949	-13,343	0,187	0,089
-433,934	800,000	0,034	0,095
-432,919	-200,000	0,012	-0,069
-431,905	-200,000	-0,017	-0,106
-430,890	-200,000	0,011	0,136
-429,876	-119,325	0,083	0,011
-428,861	-63,808	-0,199	-0,059
-427,846	617,505	-0,033	0,060
-426,832	-200,000	0,023	-0,112
-425,817	-64,941	-0,059	0,017
-424,803	379,725	-0,048	-0,073
-423,788	-36,329	0,036	0,014
-422,773	-69,532	0,143	-0,040
-421,759	-166,583	-0,089	0,003
-420,744	93,430	0,034	-0,028
-419,730	585,931	-0,009	0,017
-418,715	610,422	0,056	-0,104
-417,701	175,244	0,086	-0,092
-416,686	-200,000	0,001	-0,137
-415,671	-200,000	0,007	-0,042
-414,657	-197,197	-0,028	0,000
-413,642	77,456	-0,087	0,068
-412,628	-200,000	0,016	0,073
-411,613	-200,000	-0,008	-0,047
-410,598	210,836	-0,028	0,032
-409,584	-104,583	-0,088	0,015
-408,569	143,847	0,100	-0,098
-407,555	800,000	0,045	0,133
-406,540	-200,000	0,012	0,050
-405,525	106,164	0,087	-0,075
-404,511	439,222	-0,024	-0,039
-403,496	417,399	0,074	0,117
-402,482	68,927	0,011	0,008
-401,467	-200,000	-0,002	-0,008
-400,452	128,566	0,103	0,097
-399,438	56,801	-0,159	0,114
-398,423	116,312	-0,021	-0,019
-397,409	800,000	0,031	-0,078
-396,394	3,473	-0,101	0,054
-395,379	-200,000	-0,007	0,054
-394,365	84,796	-0,021	-0,017
-393,350	416,214	-0,022	0,035
-392,336	-200,000	0,012	0,075
-391,321	613,911	0,053	0,098
-390,306	711,540	-0,073	-0,143
-389,292	800,000	-0,025	-0,065
-388,277	-127,128	0,011	0,001
-387,263	-62,744	0,165	-0,050
-386,248	800,000	0,047	-0,145
-385,233	249,902	-0,070	0,087
-384,219	381,161	-0,071	0,107
-383,204	-200,000	-0,005	-0,066
-382,190	-200,000	-0,003	-0,039
-381,175	-63,718	0,088	0,026
-380,160	38,710	0,127	-0,083
-379,146	245,400	-0,037	0,046
-378,131	191,360	-0,024	0,027
-377,117	21,891	-0,083	0,049
-376,102	-200,000	-0,002	-0,109
-375,088	-200,000	0,008	-0,138
-374,073	-48,550	0,011	0,004
-373,058	800,000	0,035	0,097
-372,044	98,309	-0,038	0,032
-371,029	800,000	0,036	0,079
-370,015	-200,000	-0,010	0,129
-369,000	-134,363	-0,141	0,012
-367,985	446,253	0,012	-0,020
-366,971	200,365	-0,045	0,050
-365,956	43,290	0,065	0,044
-364,942	800,000	0,035	0,082
-363,927	-200,000	-0,012	0,076
-362,912	-200,000	-0,023	-0,111
-361,898	2,978	-0,078	0,041
-360,883	185,747	0,025	0,027
-359,869	-27,664	0,166	-0,070
-358,854	160,111	-0,051	-0,052
-357,839	-200,000	0,024	0,125
-356,825	125,088	0,074	0,068
-355,810	211,371	0,032	0,037
-354,796	-200,000	-0,005	0,049
-353,781	-138,741	-0,116	-0,009
-352,766	-77,505	-0,088	-0,022
-351,752	703,465	0,073	0,142
-350,737	386,945	0,028	-0,042
-349,723	21,283	0,055	-0,032
-348,708	9,805	-0,095	-0,053
-347,693	-100,251	0,005	0,001
-346,679	-200,000	-0,003	0,090
-345,664	-200,000	0,000	-0,076
-344,650	-200,000	-0,018	0,085
-343,635	474,879	0,064	0,106
-342,620	-74,162	-0,096	0,025
-341,606	528,347	0,015	-0,026
-340,591	-109,539	0,102	0,016
-339,577	10,106	-0,026	-0,015
-338,562	-200,000	0,001	-0,010
-337,548	-200,000	-0,002	0,063
-336,533	-36,261	-0,042	0,017
-335,518	648,637	0,082	-0,154
-334,504	-109,120	0,119	0,018
-333,489	168,200	-0,098	0,102
-332,475	-200,000	-0,021	-0,077
-331,460	-200,000	-0,010	-0,109
-330,445	-33,741	-0,005	-0,002
-329,431	800,000	0,020	-0,056
-328,416	731,507	0,066	-0,130
-327,402	-200,000	-0,017	-0,056
-326,387	58,273	-0,095	0,068
-325,372	-200,000	0,008	-0,179
-324,358	800,000	-0,037	-0,105
-323,343	-200,000	-0,023	-0,093
-322,329	-47,798	0,064	0,023
-321,314	189,537	-0,085	0,093
-320,299	135,515	0,036	0,035
-319,285	-41,946	-0,052	0,019
-318,270	622,592	-0,102	-0,189
-317,256	-200,000	0,007	-0,210
-316,241	492,721	0,063	-0,106
-315,226	580,502	0,063	0,113
-314,212	73,922	0,111	0,085
-313,197	77,652	0,075	0,059
-312,183	-131,013	-0,126	-0,012
-311,168	76,767	0,012	-0,010
-310,153	176,824	-0,075	-0,080
-309,139	-52,346	-0,049	-0,016
-308,124	-200,000	-0,007	0,074
-307,110	-38,919	0,021	-0,008
-306,095	800,000	0,067	0,211
-305,080	-105,302	-0,076	-0,013
-304,066	760,049	-0,033	0,065
-303,051	-200,000	0,011	0,122
-302,037	-200,000	0,015	0,064
-301,022	626,970	-0,023	0,043
-300,008	800,000	0,016	0,042
-298,993	14,479	0,135	-0,077
-297,978	266,640	0,026	0,034
-296,964	182,434	-0,061	-0,066
-295,949	80,526	0,075	0,059
-294,935	-16,037	-0,068	-0,031
-293,920	-200,000	0,022	0,074
-292,905	113,595	0,072	0,064
-291,891	-200,000	0,004	0,091
-290,876	-33,820	-0,058	-0,023
-289,862	-42,125	-0,021	0,008
-288,847	800,000	-0,031	0,064
-287,832	-200,000	0,006	0,071
-286,818	390,843	-0,033	0,051
-285,803	-149,978	0,174	-0,010
-284,789	495,524	0,061	-0,103
-283,774	672,810	0,050	0,096
-282,759	352,049	-0,074	-0,108
-281,745	-17,756	0,092	-0,042
-280,730	-16,108	-0,118	-0,055
-279,716	34,378	-0,152	0,097
-278,701	578,225	-0,089	-0,161
-277,686	107,111	-0,026	-0,023
-276,672	-75,773	-0,099	-0,025
-275,657	177,755	-0,046	0,049
-274,643	177,514	-0,050	0,053
-273,628	-39,572	0,062	-0,024
-272,613	-200,000	0,013	-0,137
-271,599	82,691	0,064	0,051
-270,584	800,000	-0,036	0,113
-269,570	-147,053	-0,051	-0,003
-268,555	692,748	0,042	0,081
-267,540	-147,331	0,157	0,010
-266,526	-200,000	-0,024	-0,086
-265,511	800,000	-0,028	-0,087
-264,497	-74,177	0,100	0,026
-263,482	-88,912	0,078	0,017
-262,467	544,896	0,034	0,059
-261,453	-200,000	0,021	0,099
-260,438	-93,355	-0,011	0,002
-259,424	180,236	0,074	-0,079
-258,409	-200,000	-0,012	-0,130
-257,395	-23,824	-0,133	-0,058
-256,380	-89,877	0,124	0,026
-255,365	92,595	0,085	-0,070
-254,351	800,000	-0,026	0,068
-253,336	-36,117	0,094	-0,037
-252,322	-200,000	0,003	-0,141
-251,307	-200,000	-0,079	-0,318
-250,292	-200,000	-0,003	-0,110
-249,278	800,000	0,054	-0,122
-248,263	384,724	-0,027	0,041
-247,249	177,158	0,010	0,011
-246,234	94,677	-0,038	0,031
-245,219	-66,945	-0,048	-0,014
-244,205	-45,232	-0,034	-0,012
-243,190	10,944	0,038	-0,021
-242,176	549,042	-0,035	0,061
-241,161	-200,000	-0,034	0,128
-240,146	-113,474	0,169	-0,024
-239,132	-14,853	-0,137	-0,064
-238,117	-87,609	-0,078	0,017
-237,103	144,161	-0,055	-0,054
-236,088	-200,000	-0,004	0,141
-235,073	-57,379	0,067	0,021
-234,059	143,517	-0,068	0,066
-233,044	-200,000	-0,016	0,176
-232,030	-200,000	0,035	0,166
-231,015	304,856	0,039	0,053
-230,000	325,731	0,005	-0,007
-228,986	-200,000	0,025	0,102
-227,971	58,189	0,086	-0,061
-226,957	-63,627	0,140	0,042
-225,942	-200,000	-0,018	-0,065
-224,927	-200,000	0,014	-0,047
-223,913	-89,829	-0,162	-0,034
-222,898	-13,410	0,075	0,035
-221,884	-200,000	-0,007	-0,027
-220,869	800,000	-0,040	0,100
-219,855	-103,511	0,149	0,025
-218,840	-200,000	0,014	-0,118
-217,825	122,515	0,079	0,072
-216,811	800,000	-0,027	0,060
-215,796	-200,000	-0,004	0,029
-214,782	-147,263	-0,120	0,007
-213,767	800,000	-0,016	0,046
-212,752	116,949	-0,102	0,091
-211,738	-67,799	0,188	0,053
-210,723	-129,575	-0,191	0,019
-209,709	-153,827	-0,026	-0,001
-208,694	-79,443	-0,123	0,030
-207,679	-200,000	-0,037	-0,238
-206,665	-189,839	0,117	0,001
-205,650	-123,110	0,050	0,006
-204,636	209,843	-0,043	0,049
-203,621	61,160	0,023	0,017
-202,606	800,000	0,021	-0,058
-201,592	64,916	-0,065	-0,048
-200,577	198,784	-0,080	-0,089
-199,563	65,747	0,039	-0,029
-198,548	800,000	0,034	0,098
-197,533	-200,000	-0,039	0,138
-196,519	-16,744	-0,132	-0,061
-195,504	-200,000	0,035	-0,142
-194,490	549,487	0,031	0,055
-193,475	-200,000	0,005	-0,076
-192,460	119,323	-0,157	0,141
-191,446	23,051	0,084	0,050
-190,431	57,278	0,111	0,078
-189,417	800,000	-0,018	-0,043
-188,402	292,825	0,096	-0,128
-187,387	-200,000	-0,038	-0,134
-186,373	-200,000	0,041	-0,207
-185,358	184,149	-0,061	-0,066
-184,344	182,010	-0,048	-0,052
-183,329	-200,000	0,003	0,064
-182,315	41,860	-0,140	-0,092
-181,300	-200,000	0,006	0,132
-180,285	69,129	0,069	-0,052
-179,271	190,898	-0,055	-0,060
-178,256	224,718	0,044	0,052
-177,242	415,576	0,075	0,116
-176,227	63,135	-0,034	0,025
-175,212	548,752	0,016	0,028
-174,198	-200,000	0,022	0,079
-173,183	-21,529	-0,063	0,028
-172,169	230,775	-0,077	0,092
-171,154	466,396	-0,026	0,043
-170,139	-79,967	0,132	-0,032
-169,125	470,483	-0,062	0,103
-168,110	84,731	0,116	0,092
-167,096	-142,657	0,113	0,008
-166,081	800,000	-0,064	0,177
-165,066	-88,419	-0,010	-0,002
-164,052	-32,879	-0,025	0,010
-163,037	-118,044	0,068	-0,009
-162,023	560,499	0,048	0,084
-161,008	-68,061	0,025	0,007
-159,993	-59,266	0,124	-0,039
-158,979	-200,000	-0,005	0,068
-157,964	78,790	0,055	0,043
-156,950	-63,112	-0,142	-0,042
-155,935	-8,107	-0,098	0,048
-154,920	-15,630	0,146	0,068
-153,906	-200,000	0,021	0,112
-152,891	-200,000	0,032	0,145
-151,877	-27,349	-0,074	-0,031
-150,862	-74,350	0,128	-0,033
-149,847	-200,000	-0,018	0,118
-148,833	-140,049	-0,064	-0,005
-147,818	181,345	-0,046	-0,049
-146,804	800,000	-0,047	0,106
-145,789	138,106	0,037	0,035
-144,775	-200,000	-0,018	-0,083
-143,760	800,000	0,033	0,068
-142,745	-11,191	-0,022	0,010
-141,731	-138,804	0,123	0,010
-140,716	-200,000	-0,023	0,142
-139,702	127,552	0,087	-0,080
-138,687	-114,989	-0,030	-0,004
-137,672	100,130	-0,127	0,107
-136,658	243,562	-0,038	0,046
-135,643	-200,000	0,034	0,146
-134,629	-113,227	0,127	0,018
-133,614	66,136	0,142	0,105
-132,599	-67,066	0,054	0,015
-131,585	-89,964	0,126	0,026
-130,570	103,358	-0,075	0,064
-129,556	421,577	-0,006	0,009
-128,541	-46,310	-0,205	0,073
-127,526	-146,400	-0,068	-0,004
-126,512	-105,847	0,134	0,022
-125,497	27,616	-0,126	0,077
-124,483	-48,877	0,066	-0,023
-123,468	-76,997	0,055	-0,014
-122,453	-200,000	0,023	-0,094
-121,439	-79,121	-0,143	-0,035
-120,424	-196,863	0,122	0,001
-119,410	-5,401	-0,075	0,037
-118,395	-143,624	0,250	0,017
-117,380	43,514	-0,010	-0,007
-116,366	255,195	-0,063	-0,078
-115,351	353,229	-0,035	-0,051
-114,337	-156,516	-0,133	-0,006
-113,322	160,092	-0,114	-0,116
-112,307	77,717	-0,049	-0,038
-111,293	193,499	0,106	0,116
-110,278	162,565	0,019	-0,019
-109,264	-200,000	0,020	-0,151
-108,249	314,782	0,053	0,072
-107,234	419,530	0,036	-0,056
-106,220	800,000	0,025	-0,055
-105,205	-14,725	0,043	-0,020
-104,191	800,000	-0,033	-0,071
-103,176	-200,000	0,037	0,123
-102,162	511,154	0,081	0,138
-101,147	37,591	-0,010	0,007
-100,132	-200,000	-0,025	-0,151
-99,118	-161,934	-0,074	0,003
-98,103	-200,000	-0,008	0,073
-97,089	81,084	0,031	0,024
-96,074	-200,000	-0,005	0,069
-95,059	-167,898	-0,115	0,003
-94,045	-129,958	-0,037	-0,004
-93,030	-200,000	-0,028	0,138
-92,016	692,452	-0,033	-0,063
-91,001	63,280	0,076	0,055
-89,986	252,111	-0,082	-0,101
-88,972	-200,000	0,013	0,057
-87,957	497,090	0,013	-0,022
-86,943	505,423	-0,049	-0,082
-85,928	115,569	0,020	-0,017
-84,913	252,758	-0,106	-0,131
-83,899	800,000	0,017	0,036
-82,884	449,767	-0,003	-0,005
-81,870	-27,968	0,038	0,016
-80,855	-54,617	0,039	-0,013
-79,840	-200,000	0,004	-0,053
-78,826	-200,000	-0,012	-0,043
-77,811	-200,000	-0,005	0,109
-76,797	-45,734	0,035	0,012
-75,782	86,841	-0,093	-0,074
-74,767	800,000	0,018	-0,053
-73,753	101,649	-0,150	-0,127
-72,738	-200,000	-0,001	-0,018
-71,724	11,051	-0,075	-0,041
-70,709	63,109	0,093	-0,067
-69,694	-200,000	-0,014	-0,069
-68,680	800,000	0,038	0,085
-67,665	788,870	0,066	0,132
-66,651	800,000	0,013	-0,031
-65,636	-47,813	-0,102	0,036
-64,622	234,593	-0,042	0,051
-63,607	-2,450	-0,120	0,061
-62,592	800,000	-0,045	0,112
-61,578	91,548	-0,032	0,026
-60,563	800,000	-0,052	0,117
-59,549	800,000	0,057	0,116
-58,534	-102,579	-1,568	-0,269
-57,519	800,000	-0,709	-1,478
-56,505	-200,000	-0,857	-4,319
-55,490	-118,741	0,431	0,054
-54,476	800,000	5,099	11,760
-53,461	-200,000	14,965	262,548
-52,446	-200,000	697,983	2238,733
-51,432	585,330	1620,373	2897,885
-50,417	120,000	1627,739	1462,633
-49,403	80,856	1282,500	1001,420
-48,388	37,523	1021,500	655,181
-47,373	22,575	981,984	580,680
-46,359	21,648	971,181	571,230
-45,344	20,311	966,950	564,346
-44,330	20,327	965,624	563,600
-43,315	20,221	964,136	562,367
-42,300	20,160	962,971	561,464
-41,286	20,105	962,167	560,796
-40,271	20,100	961,148	560,161
-39,257	20,180	960,120	559,801
-38,242	20,148	959,324	559,210
-37,227	20,132	958,487	558,649
-36,213	20,087	957,610	557,971
-35,198	20,033	956,753	557,275
-34,184	20,106	955,997	557,045
-33,169	20,037	955,114	556,286
-32,154	20,140	954,206	556,068
-31,140	20,132	953,215	555,444
-30,125	20,104	952,476	554,902
-29,111	20,113	951,721	554,469
-28,096	20,069	950,940	553,848
-27,082	20,091	950,318	553,535
-26,067	20,077	949,623	553,063
-25,052	20,064	948,784	552,512
-24,038	20,107	948,075	552,214
-23,023	20,056	947,434	551,657
-22,009	20,122	946,779	551,465
-20,994	20,074	946,218	550,961
-19,979	20,137	945,509	550,730
-18,965	20,128	944,943	550,347
-17,950	20,085	944,332	549,832
-16,936	20,103	943,590	549,436
-15,921	20,052	943,028	548,925
-14,906	20,010	942,400	548,405
-13,892	19,985	941,532	547,796
-12,877	20,009	941,018	547,554
-11,863	19,981	940,304	547,026
-10,848	19,971	939,940	546,763
-9,833	20,042	939,492	546,705
-8,819	19,980	938,903	546,144
-7,804	19,974	938,150	545,664
-6,790	19,928	937,795	545,292
-5,775	20,017	937,073	545,133
-4,760	20,036	936,545	544,864
-3,746	20,028	935,604	544,267
-2,731	19,801	934,999	543,177
-1,717	19,834	934,384	542,902
-0,702	19,824	933,646	542,420
0,313	19,541	933,231	542,106
1,327	22,122	930,736	548,727
2,342	29,517	806,114	495,254
3,356	23,767	506,729	301,507
4,371	-0,474	373,944	191,592
5,386	-3,339	357,244	179,496
6,400	-4,447	351,313	175,159
7,415	-4,674	348,909	173,671
8,429	-4,670	347,494	172,957
9,444	-4,760	346,726	172,451
10,459	-4,525	345,927	172,319
11,473	-4,681	345,278	171,795
12,488	-4,826	344,855	171,396
13,502	-4,843	344,192	171,031
14,517	-4,752	343,843	170,951
15,531	-4,552	343,210	170,857
16,546	-4,498	342,872	170,738
17,561	-4,628	342,449	170,359
18,575	-4,682	342,164	170,137
19,590	-4,621	341,773	170,001
20,604	-4,514	341,394	169,922
21,619	-4,656	341,107	169,597
22,634	-4,532	340,651	169,502
23,648	-4,511	340,202	169,287
24,663	-4,609	340,074	169,094
25,677	-4,694	339,767	168,826
26,692	-4,617	339,502	168,770
27,707	-4,548	338,964	168,568
28,721	-4,562	338,677	168,393
29,736	-4,430	338,389	168,390
30,750	-4,556	338,139	168,103
31,765	-4,651	337,923	167,870
32,780	-4,393	337,505	167,947
33,794	-4,618	337,318	167,578
34,809	-4,603	337,208	167,526
35,823	-4,579	336,731	167,302
36,838	-4,578	336,347	167,097
37,853	-4,596	336,171	166,974
38,867	-4,622	336,019	166,853
39,882	-4,597	335,540	166,630
40,896	-4,656	335,401	166,478
41,911	-4,493	335,090	166,496
42,926	-4,476	334,772	166,343
43,940	-4,453	334,450	166,195
44,955	-4,658	334,155	165,798
45,969	-4,564	334,068	165,848
46,984	-4,618	333,794	165,635
47,999	-4,534	333,748	165,694
49,013	-4,433	333,358	165,601
50,028	-4,579	333,022	165,252
51,042	-4,496	332,676	165,161
52,057	-4,557	332,633	165,055
53,071	-4,427	332,239	164,993
54,086	-4,628	332,094	164,677
55,101	-4,533	331,875	164,661
56,115	-4,767	331,531	164,211
57,130	-4,607	331,157	164,192
58,144	-4,598	330,852	164,037
59,159	-4,540	330,751	164,038
60,174	-4,547	330,451	163,866
61,188	-4,602	330,123	163,627
62,203	-4,536	329,869	163,561
63,217	-4,585	329,622	163,369
64,232	-4,494	329,355	163,324
65,247	-4,689	329,043	162,935
66,261	-4,552	328,767	162,939
67,276	-4,617	328,505	162,721
68,290	-4,567	328,371	162,696
69,305	-4,604	328,143	162,527
70,320	-4,406	327,810	162,570
71,334	-4,585	327,700	162,301
72,349	-4,538	327,318	162,149
73,363	-4,739	327,126	161,814
74,378	-4,563	326,775	161,824
75,393	-4,546	326,397	161,641
76,407	-4,478	326,374	161,692
77,422	-4,540	326,107	161,475
78,436	-4,495	325,779	161,348
79,451	-4,481	325,423	161,173
80,466	-4,439	325,142	161,066
81,480	-4,542	324,937	160,836
82,495	-4,469	324,737	160,804
83,509	-4,583	324,573	160,582
84,524	-4,480	324,317	160,555
85,539	-4,422	324,047	160,471
86,553	-4,420	323,877	160,375
87,568	-4,558	323,520	160,032
88,582	-4,648	323,353	159,835
89,597	-4,606	322,975	159,680
90,611	-4,613	322,870	159,606
91,626	-4,424	322,703	159,718
92,641	-4,374	322,297	159,559
93,655	-4,498	322,283	159,401
94,670	-4,498	322,016	159,254
95,684	-4,540	321,747	159,061
96,699	-4,638	321,461	158,797
97,714	-4,561	321,197	158,738
98,728	-4,666	321,115	158,567
99,743	-4,589	320,890	158,526
100,757	-4,426	320,532	158,515
101,772	-4,555	320,259	158,224
102,787	-4,501	320,060	158,170
103,801	-4,524	319,884	158,044
104,816	-4,528	319,463	157,818
105,830	-4,530	319,479	157,810
106,845	-4,370	319,075	157,771
107,860	-4,547	318,935	157,494
108,874	-4,397	318,549	157,453
109,889	-4,497	318,326	157,219
110,903	-4,386	318,029	157,180
111,918	-4,527	317,827	156,913
112,933	-4,479	317,695	156,885
113,947	-4,622	317,548	156,644
114,962	-4,508	317,184	156,573
115,976	-4,496	317,071	156,517
116,991	-4,506	316,798	156,358
118,006	-4,553	316,661	156,225
119,020	-4,616	316,588	156,107
120,035	-4,548	316,304	156,027
121,049	-4,453	316,054	155,992
122,064	-4,581	315,945	155,786
123,079	-4,544	315,662	155,672
124,093	-4,592	315,255	155,406
125,108	-4,456	315,216	155,519
126,122	-4,364	314,940	155,469
127,137	-4,484	314,728	155,220
128,151	-4,355	314,400	155,183
129,166	-4,524	314,232	154,906
130,181	-4,449	314,021	154,869
131,195	-4,419	313,736	154,746
132,210	-4,473	313,417	154,517
133,224	-4,391	313,221	154,495
134,239	-4,532	313,115	154,278
135,254	-4,510	312,811	154,137
136,268	-4,426	312,452	154,036
137,283	-4,279	312,326	154,117
138,297	-4,405	311,994	153,805
139,312	-4,472	311,896	153,672
140,327	-4,507	311,601	153,476
141,341	-4,613	311,487	153,294
142,356	-4,484	311,155	153,254
143,370	-4,411	310,991	153,236
144,385	-4,430	310,824	153,120
145,400	-4,539	310,573	152,867
146,414	-4,403	310,386	152,906
147,429	-4,467	310,105	152,686
148,443	-4,540	309,900	152,495
149,458	-4,394	309,651	152,513
150,473	-4,544	309,469	152,251
151,487	-4,679	309,340	152,032
152,502	-4,422	308,968	152,105
153,516	-4,488	308,785	151,933
154,531	-4,582	308,711	151,784
155,546	-4,486	308,313	151,675
156,560	-4,416	308,106	151,634
157,575	-4,558	308,100	151,468
158,589	-4,510	307,693	151,305
159,604	-4,574	307,511	151,135
160,619	-4,374	307,216	151,186
161,633	-4,385	307,175	151,140
162,648	-4,438	306,821	150,897
163,662	-4,328	306,671	150,924
164,677	-4,445	306,493	150,702
165,692	-4,410	306,226	150,594
166,706	-4,468	306,058	150,437
167,721	-4,445	305,844	150,343
168,735	-4,436	305,707	150,271
169,750	-4,429	305,571	150,198
170,764	-4,499	305,258	149,959
171,779	-4,550	304,998	149,764
172,794	-4,291	304,786	149,915
173,808	-4,506	304,632	149,603
174,823	-4,438	304,591	149,640
175,837	-4,473	304,272	149,434
176,852	-4,499	304,205	149,361
177,867	-4,563	303,901	149,132
178,881	-4,502	303,613	149,040
179,896	-4,496	303,417	148,937
180,910	-4,451	303,291	148,909
181,925	-4,428	302,881	148,717
182,940	-4,382	302,741	148,683
183,954	-4,478	302,646	148,524
184,969	-4,327	302,445	148,568
185,983	-4,323	302,290	148,482
186,998	-4,351	301,895	148,247
188,013	-4,470	301,806	148,067
189,027	-4,564	301,715	147,913
190,042	-4,485	301,477	147,864
191,056	-4,572	301,209	147,631
192,071	-4,490	301,024	147,610
193,086	-4,547	300,700	147,380
194,100	-4,389	300,503	147,432
195,115	-4,397	300,374	147,347
196,129	-4,295	300,086	147,297
197,144	-4,534	299,796	146,898
198,159	-4,622	299,588	146,694
199,173	-4,388	299,394	146,823
200,188	-4,499	299,289	146,646
201,202	-4,543	299,097	146,494
202,217	-4,278	298,764	146,586
203,232	-4,498	298,541	146,242
204,246	-4,461	298,359	146,176
205,261	-4,489	298,249	146,081
206,275	-4,512	297,999	145,922
207,290	-4,388	297,869	145,971
208,304	-4,305	297,584	145,902
209,319	-4,424	297,286	145,623
210,334	-4,317	297,290	145,720
211,348	-4,353	297,018	145,537
212,363	-4,495	296,805	145,277
213,377	-4,256	296,605	145,406
214,392	-4,385	296,449	145,187
215,407	-4,347	296,037	145,010
216,421	-4,459	296,008	144,871
217,436	-4,415	295,802	144,802
218,450	-4,486	295,590	144,614
219,465	-4,308	295,376	144,674
220,480	-4,454	295,222	144,440
221,494	-4,426	295,109	144,400
222,509	-4,373	294,862	144,319
223,523	-4,388	294,512	144,120
224,538	-4,480	294,429	143,974
225,553	-4,458	294,236	143,889
226,567	-4,321	293,932	143,864
227,582	-4,378	293,873	143,766
228,596	-4,397	293,624	143,613
229,611	-4,396	293,477	143,529
230,626	-4,364	293,251	143,437
231,640	-4,285	293,034	143,396
232,655	-4,299	292,941	143,324
233,669	-4,273	292,656	143,198
234,684	-4,431	292,493	142,948
235,699	-4,422	292,414	142,907
236,713	-4,546	292,119	142,627
237,728	-4,375	291,934	142,692
238,742	-4,399	291,699	142,542
239,757	-4,500	291,607	142,385
240,772	-4,360	291,252	142,337
241,786	-4,444	291,000	142,118
242,801	-4,258	290,914	142,246
243,815	-4,382	290,683	141,998
244,830	-4,303	290,581	142,013
245,844	-4,257	290,351	141,933
246,859	-4,289	290,173	141,803
247,874	-4,380	289,994	141,613
248,888	-4,579	289,789	141,306
249,903	-4,494	289,587	141,278
250,917	-4,493	289,524	141,236
251,932	-4,596	289,048	140,890
252,947	-4,788	288,836	140,587
253,961	-5,340	288,574	139,909
254,976	-5,515	288,175	139,534
255,990	-5,323	288,154	139,697
257,005	-3,652	288,750	141,601
258,020	-1,313	289,456	144,215
259,034	-0,061	289,813	145,600
260,049	0,468	289,878	146,136
261,063	1,000	289,742	146,572
262,078	1,198	289,778	146,770
263,093	1,411	289,684	146,917
264,107	1,784	289,675	147,262
265,122	2,005	289,603	147,427
266,136	2,068	289,285	147,314
267,151	2,021	289,219	147,220
268,166	2,017	288,967	147,075
269,180	2,095	288,802	147,054
270,195	2,064	288,615	146,916
271,209	2,197	288,366	146,904
272,224	2,102	288,153	146,692
273,239	1,937	288,108	146,495
274,253	2,052	287,759	146,416
275,268	1,978	287,441	146,170
276,282	1,832	287,372	145,981
277,297	1,889	287,246	145,959
278,312	1,965	287,047	145,918
279,326	1,961	286,834	145,793
280,341	1,962	286,628	145,676
281,355	1,796	286,520	145,448
282,370	1,956	286,350	145,503
283,384	1,897	286,000	145,256
284,399	1,999	285,870	145,274
285,414	1,962	285,618	145,098
286,428	1,920	285,580	145,026
287,443	1,919	285,374	144,907
288,457	1,863	285,116	144,710
289,472	1,834	284,897	144,558
290,487	1,634	284,814	144,312
291,501	1,754	284,577	144,293
292,516	1,799	284,319	144,192
293,530	1,870	284,169	144,171
294,545	1,721	283,983	143,922
295,560	1,666	283,962	143,846
296,574	1,698	283,760	143,762
297,589	1,859	283,409	143,724
298,603	1,737	283,223	143,501
299,618	1,747	283,109	143,440
300,633	1,909	282,923	143,486
301,647	1,960	282,669	143,392
302,662	1,872	282,596	143,259
303,676	1,928	282,421	143,211
304,691	1,783	282,313	143,007
305,706	2,009	282,043	143,070
306,720	1,950	281,874	142,916
307,735	1,894	281,703	142,764
308,749	1,772	281,578	142,573
309,764	2,003	281,246	142,610
310,779	1,998	281,127	142,532
311,793	2,121	280,958	142,549
312,808	1,858	280,743	142,180
313,822	2,078	280,618	142,311
314,837	1,988	280,389	142,098
315,852	1,988	280,128	141,952
316,866	1,917	279,947	141,782
317,881	2,112	279,814	141,885
318,895	1,874	279,689	141,586
319,910	1,855	279,510	141,465
320,925	1,790	279,381	141,326
321,939	1,881	279,164	141,289
322,954	1,900	279,015	141,218
323,968	2,034	278,784	141,214
324,983	1,989	278,681	141,107
325,997	2,039	278,262	140,929
327,012	1,932	278,304	140,838
328,027	1,980	278,089	140,761
329,041	1,966	277,825	140,602
330,056	2,083	277,731	140,650
331,070	1,979	277,641	140,496
332,085	2,076	277,342	140,422
333,100	2,004	277,199	140,270
334,114	2,059	276,936	140,176
335,129	1,951	276,870	140,030
336,143	1,985	276,725	139,976
337,158	2,173	276,343	139,943
338,173	2,109	276,230	139,814
339,187	1,893	276,305	139,641
340,202	2,110	275,908	139,627
341,216	1,913	275,674	139,315
342,231	2,053	275,502	139,345
343,246	1,957	275,519	139,253
344,260	2,013	275,412	139,238
345,275	2,080	275,177	139,168
346,289	2,048	274,894	138,983
347,304	2,231	274,714	139,048
348,319	2,082	274,640	138,861
349,333	2,068	274,306	138,666
350,348	2,226	274,132	138,710
351,362	2,180	273,999	138,589
352,377	2,198	273,846	138,516
353,392	2,070	273,736	138,331
354,406	2,156	273,590	138,324
355,421	192,200	1347,858	1428,880
356,435	155,237	1478,805	1428,980
