DTS Sentinel unit serial number:	SN410029Multiplexer serial number:	ORYXHardware model number:	OX2-SRSoftware version number:	ORYX F/W v4,00 Oryx Data Collector v3.7.2.0data status	okinstallation	B4 Nyhavnadifferential loss correction	single-endedforward channel	channel 2reverse channel	N/Adate	2023/12/19time	12:00:13forward acquisition time	300,00reverse acquisition time	0,00gamma	499,1914k internal	0,3128k external	0,3128temperature offset calibration	1,0000default loss term (dB/km)	0,3820temperature slope calibration	1,0000multiplexer offset coefficient	1,0000multiplexer slope coefficient	1,0000fibre end	0,00T internal ref (°C)	19,68T ext. ref 1 (°C)	4,45T ext. ref 2 (°C)	4,38length (m)	temperature (°C)	Stokes	anti-Stokes-744,400	-134,011	-0,020	-0,002
-743,385	-90,120	-0,230	-0,049
-742,371	-60,079	0,142	-0,045
-741,356	-68,947	-0,229	0,065
-740,342	-38,421	0,072	0,028
-739,327	-123,038	-0,313	0,037
-738,312	100,284	0,119	-0,103
-737,298	-60,459	-0,190	0,060
-736,283	800,000	0,017	0,048
-735,269	-58,612	-0,268	0,086
-734,254	-7,375	0,097	-0,049
-733,239	-162,772	-0,452	-0,016
-732,225	-200,000	0,202	-0,001
-731,210	-33,822	0,048	-0,020
-730,196	800,000	-0,024	0,050
-729,181	-200,000	-0,003	0,083
-728,167	800,000	-0,037	-0,081
-727,152	610,196	0,018	-0,033
-726,137	769,473	0,026	0,053
-725,123	58,185	0,108	-0,078
-724,108	483,590	0,071	-0,120
-723,094	504,587	-0,049	-0,085
-722,079	59,052	-0,060	-0,044
-721,064	67,947	0,156	-0,119
-720,050	-82,581	0,149	0,036
-719,035	800,000	0,038	0,095
-718,021	-200,000	0,002	0,064
-717,006	124,541	-0,087	0,081
-715,991	21,288	-0,120	-0,072
-714,977	-72,200	-0,075	0,021
-713,962	21,754	-0,076	0,046
-712,948	-93,005	-0,088	-0,018
-711,933	636,158	0,010	0,019
-710,918	-200,000	0,006	0,046
-709,904	800,000	-0,080	-0,199
-708,889	76,405	-0,103	-0,081
-707,875	-200,000	0,002	-0,118
-706,860	-30,922	-0,108	0,045
-705,845	-105,648	-0,115	-0,019
-704,831	16,196	-0,132	0,077
-703,816	407,928	-0,027	0,043
-702,802	325,486	-0,057	-0,082
-701,787	82,505	-0,062	-0,050
-700,772	199,623	-0,069	0,079
-699,758	-200,000	-0,016	0,134
-698,743	-75,693	0,048	0,013
-697,729	67,137	-0,139	0,105
-696,714	83,258	0,109	0,088
-695,699	-168,946	-0,074	0,002
-694,685	-200,000	-0,053	-0,176
-693,670	-68,660	0,024	0,007
-692,656	-158,806	-0,105	-0,004
-691,641	-200,000	-0,006	0,062
-690,627	192,890	-0,039	-0,044
-689,612	-200,000	0,026	-0,111
-688,597	-25,171	0,103	-0,045
-687,583	-200,000	-0,011	-0,139
-686,568	-200,000	-0,027	-0,088
-685,554	93,553	-0,107	-0,090
-684,539	-8,054	-0,050	0,025
-683,524	800,000	-0,034	0,108
-682,510	-63,059	0,063	-0,019
-681,495	-200,000	-0,035	-0,124
-680,481	-200,000	-0,041	-0,136
-679,466	24,764	-0,102	0,062
-678,451	204,598	0,016	0,018
-677,437	800,000	0,013	-0,032
-676,422	295,973	0,078	-0,106
-675,408	-200,000	-0,003	0,074
-674,393	-10,209	0,118	-0,058
-673,378	457,183	-0,056	-0,093
-672,364	109,142	-0,030	-0,027
-671,349	-200,000	-0,013	-0,071
-670,335	147,837	-0,019	0,020
-669,320	800,000	0,060	-0,129
-668,305	-109,127	0,182	0,028
-667,291	-200,000	-0,032	-0,219
-666,276	-67,746	-0,156	-0,045
-665,262	-200,000	0,033	-0,151
-664,247	41,206	-0,095	-0,063
-663,232	-108,186	-0,123	-0,020
-662,218	120,247	0,080	0,074
-661,203	-44,428	0,092	-0,034
-660,189	-4,498	-0,109	0,056
-659,174	-102,572	-0,179	-0,031
-658,159	800,000	0,033	-0,073
-657,145	247,747	-0,081	-0,102
-656,130	187,106	-0,036	-0,040
-655,116	407,419	0,093	-0,146
-654,101	800,000	-0,019	-0,042
-653,086	177,088	-0,065	-0,070
-652,072	-104,620	0,105	-0,018
-651,057	90,936	-0,010	0,008
-650,043	305,970	-0,112	-0,154
-649,028	125,167	0,091	-0,085
-648,014	-200,000	0,000	-0,044
-646,999	752,918	0,028	-0,057
-645,984	299,396	-0,030	0,042
-644,970	219,082	-0,125	0,149
-643,955	-137,161	-0,183	-0,015
-642,941	27,731	0,109	-0,068
-641,926	168,892	-0,084	0,089
-640,911	53,911	0,045	0,032
-639,897	33,250	0,123	0,079
-638,882	-200,000	-0,008	-0,051
-637,868	-200,000	0,002	-0,127
-636,853	509,733	0,069	-0,119
-635,838	-200,000	-0,020	-0,095
-634,824	800,000	-0,017	-0,044
-633,809	2,604	0,120	0,064
-632,795	-188,610	0,030	-0,000
-631,780	-200,000	-0,004	0,039
-630,765	222,859	0,030	0,036
-629,751	-200,000	-0,017	-0,179
-628,736	-88,896	-0,196	0,043
-627,722	-50,893	-0,091	-0,032
-626,707	143,317	-0,075	0,074
-625,692	-42,347	0,084	-0,032
-624,678	215,322	0,045	-0,053
-623,663	331,566	-0,049	-0,071
-622,649	265,533	-0,017	-0,022
-621,634	-41,316	0,083	-0,032
-620,619	477,819	0,083	0,140
-619,605	513,861	-0,037	-0,064
-618,590	-148,017	-0,102	-0,006
-617,576	-104,316	0,056	0,009
-616,561	34,228	-0,036	0,023
-615,546	-63,071	-0,098	0,030
-614,532	-7,444	0,023	-0,011
-613,517	621,823	0,061	0,114
-612,503	353,607	-0,047	0,070
-611,488	-78,533	-0,058	0,015
-610,474	-48,350	-0,091	-0,032
-609,459	-36,306	0,143	-0,057
-608,444	-200,000	-0,020	-0,134
-607,430	81,874	-0,131	-0,105
-606,415	-37,712	-0,075	0,029
-605,401	-36,141	-0,045	0,018
-604,386	-24,400	0,038	0,017
-603,371	-37,071	-0,069	0,027
-602,357	-200,000	0,006	0,044
-601,342	563,525	-0,053	-0,095
-600,328	-200,000	-0,018	-0,098
-599,313	800,000	0,041	0,123
-598,298	-200,000	0,012	0,081
-597,284	-120,927	0,078	0,010
-596,269	392,746	-0,051	0,079
-595,255	-200,000	0,011	-0,131
-594,240	-200,000	-0,019	-0,141
-593,225	311,318	0,092	-0,128
-592,211	-200,000	0,002	-0,043
-591,196	388,806	-0,034	-0,053
-590,182	32,263	0,094	-0,060
-589,167	461,229	-0,095	0,157
-588,152	-144,925	0,058	0,004
-587,138	-200,000	-0,007	0,210
-586,123	-200,000	0,005	-0,082
-585,109	129,481	0,025	0,024
-584,094	-97,775	-0,122	-0,023
-583,079	-35,838	-0,010	0,004
-582,065	-76,195	0,032	-0,008
-581,050	-43,804	0,112	0,042
-580,036	-45,807	-0,023	-0,008
-579,021	10,476	-0,105	-0,059
-578,006	-11,510	0,035	0,017
-576,992	72,523	-0,075	0,058
-575,977	699,964	0,025	-0,050
-574,963	-76,865	-0,082	0,021
-573,948	21,878	0,057	-0,034
-572,934	-101,478	-0,108	0,019
-571,919	-82,511	0,100	-0,024
-570,904	-200,000	0,021	-0,145
-569,890	800,000	0,054	-0,118
-568,875	-200,000	-0,004	0,088
-567,861	-4,910	-0,044	0,023
-566,846	-168,024	0,158	-0,004
-565,831	-200,000	0,010	-0,071
-564,817	-70,432	-0,159	0,044
-563,802	-67,623	-0,139	0,040
-562,788	-200,000	-0,021	-0,074
-561,773	-103,108	0,108	0,019
-560,758	13,421	0,039	-0,022
-559,744	406,151	-0,039	0,061
-558,729	75,974	-0,074	-0,058
-557,715	-200,000	-0,002	0,052
-556,700	-110,196	-0,019	-0,003
-555,685	-200,000	-0,002	0,054
-554,671	318,052	0,057	0,080
-553,656	800,000	0,039	-0,122
-552,642	-58,463	0,029	-0,009
-551,627	87,860	0,041	0,033
-550,612	238,270	-0,102	0,125
-549,598	-164,368	-0,197	0,007
-548,583	-91,092	0,007	-0,001
-547,569	230,844	-0,062	-0,075
-546,554	57,179	0,023	0,017
-545,539	614,682	0,051	-0,095
-544,525	-200,000	0,001	-0,100
-543,510	719,838	0,038	-0,075
-542,496	592,065	0,048	0,087
-541,481	-200,000	-0,003	-0,176
-540,466	494,979	0,099	-0,168
-539,452	800,000	-0,038	0,086
-538,437	53,318	-0,085	0,060
-537,423	-122,394	0,136	-0,016
-536,408	-200,000	0,009	0,083
-535,393	-200,000	0,036	-0,206
-534,379	79,441	-0,078	-0,062
-533,364	800,000	0,033	-0,080
-532,350	45,416	0,110	-0,075
-531,335	85,683	-0,065	-0,053
-530,321	-200,000	0,011	0,098
-529,306	800,000	0,034	0,088
-528,291	-200,000	-0,013	-0,103
-527,277	800,000	-0,034	-0,085
-526,262	25,907	-0,039	0,024
-525,248	20,103	0,002	0,001
-524,233	800,000	-0,058	-0,127
-523,218	-200,000	0,002	-0,026
-522,204	-158,196	0,142	0,006
-521,189	92,612	-0,144	-0,120
-520,175	229,624	0,075	0,090
-519,160	21,126	0,074	0,044
-518,145	-200,000	-0,022	0,121
-517,131	63,443	-0,046	0,034
-516,116	-200,000	-0,015	0,122
-515,102	-0,306	0,083	-0,043
-514,087	-128,563	-0,242	-0,025
-513,072	426,584	0,054	0,086
-512,058	-20,712	0,079	0,036
-511,043	47,058	-0,093	-0,064
-510,029	672,129	0,063	0,121
-509,014	-10,519	-0,093	-0,045
-507,999	800,000	0,055	0,165
-506,985	-103,965	0,052	-0,009
-505,970	-37,296	-0,167	0,065
-504,956	1,935	-0,089	-0,047
-503,941	-200,000	0,012	0,102
-502,926	800,000	-0,094	0,221
-501,912	-94,627	0,088	0,017
-500,897	-104,534	-0,026	-0,004
-499,883	800,000	-0,035	-0,098
-498,868	231,981	-0,020	-0,024
-497,853	-187,958	-0,283	-0,003
-496,839	360,120	-0,047	-0,070
-495,824	-88,556	0,074	0,016
-494,810	-8,788	-0,050	-0,025
-493,795	-104,382	-0,067	-0,011
-492,781	4,805	0,027	-0,014
-491,766	800,000	0,002	0,003
-490,751	-200,000	-0,008	-0,049
-489,737	270,581	-0,029	0,038
-488,722	-15,289	0,085	-0,040
-487,708	220,732	0,115	0,136
-486,693	-104,013	0,099	-0,017
-485,678	26,702	-0,076	0,047
-484,664	-124,364	0,078	-0,009
-483,649	255,346	0,047	0,059
-482,635	800,000	0,004	-0,010
-481,620	176,680	0,058	-0,062
-480,605	53,005	0,091	0,064
-479,591	-171,357	0,069	-0,002
-478,576	-80,994	0,093	-0,023
-477,562	-200,000	-0,012	-0,172
-476,547	93,328	0,042	0,035
-475,532	-0,150	0,023	0,012
-474,518	108,132	0,048	0,042
-473,503	800,000	-0,028	-0,063
-472,489	-17,787	0,136	0,063
-471,474	-200,000	-0,023	-0,150
-470,459	100,981	-0,106	0,091
-469,445	-21,592	-0,132	0,059
-468,430	-46,083	-0,078	-0,028
-467,416	38,814	0,010	-0,007
-466,401	-200,000	-0,022	0,078
-465,386	98,508	0,103	0,087
-464,372	-3,117	-0,069	-0,035
-463,357	364,083	-0,085	-0,126
-462,343	-200,000	-0,007	0,041
-461,328	112,782	0,031	-0,028
-460,313	51,203	0,099	0,069
-459,299	800,000	0,034	0,104
-458,284	27,792	-0,157	-0,097
-457,270	461,037	0,030	-0,049
-456,255	81,516	0,145	0,115
-455,241	-29,603	-0,033	0,014
-454,226	619,893	0,041	0,076
-453,211	-84,034	0,048	0,011
-452,197	-200,000	0,020	0,075
-451,182	-200,000	-0,002	-0,024
-450,168	-90,671	0,150	-0,032
-449,153	-200,000	-0,002	-0,033
-448,138	-164,955	-0,109	0,004
-447,124	-75,494	-0,109	-0,028
-446,109	800,000	0,054	-0,138
-445,095	-200,000	0,007	-0,038
-444,080	140,161	0,079	0,077
-443,065	86,657	-0,071	0,058
-442,051	-200,000	0,001	0,097
-441,036	-138,165	0,040	0,003
-440,022	167,995	-0,040	0,042
-439,007	-7,450	0,155	0,077
-437,992	800,000	-0,015	0,039
-436,978	688,995	0,070	0,134
-435,963	114,051	0,090	0,080
-434,949	52,160	0,089	-0,062
-433,934	800,000	0,011	-0,031
-432,919	800,000	0,017	-0,052
-431,905	-165,499	0,170	0,005
-430,890	-200,000	-0,009	0,045
-429,876	528,854	0,010	-0,017
-428,861	21,125	0,064	0,038
-427,846	355,187	-0,014	-0,021
-426,832	800,000	0,070	-0,150
-425,817	144,564	-0,063	0,062
-424,803	-200,000	-0,034	-0,119
-423,788	145,524	-0,054	-0,053
-422,773	-200,000	0,036	-0,122
-421,759	199,063	0,053	0,060
-420,744	-200,000	-0,010	0,034
-419,730	596,696	0,047	-0,086
-418,715	5,443	0,084	-0,045
-417,701	-155,729	0,071	0,003
-416,686	696,288	0,057	0,111
-415,671	225,820	0,018	0,021
-414,657	454,783	-0,043	-0,071
-413,642	215,469	-0,036	-0,042
-412,628	416,259	-0,081	-0,127
-411,613	52,693	-0,046	-0,032
-410,598	-84,178	-0,131	0,030
-409,584	423,066	-0,025	0,040
-408,569	-153,680	-0,042	-0,002
-407,555	800,000	0,016	0,036
-406,540	402,738	0,031	-0,047
-405,525	0,698	-0,077	0,040
-404,511	26,580	-0,084	-0,052
-403,496	-80,900	0,019	0,005
-402,482	-101,150	0,122	-0,022
-401,467	-73,372	0,148	-0,040
-400,452	800,000	0,052	0,115
-399,438	-200,000	-0,030	-0,124
-398,423	727,493	-0,018	0,036
-397,409	-200,000	0,004	-0,065
-396,394	800,000	-0,012	-0,027
-395,379	-200,000	0,022	-0,116
-394,365	155,060	-0,009	-0,010
-393,350	33,096	0,124	0,078
-392,336	229,063	0,025	-0,030
-391,321	800,000	0,046	0,126
-390,306	-100,642	-0,074	0,013
-389,292	800,000	-0,060	0,138
-388,277	117,649	0,087	-0,079
-387,263	-5,189	-0,054	-0,027
-386,248	10,808	0,103	-0,058
-385,233	422,438	0,054	-0,085
-384,219	-200,000	0,003	0,012
-383,204	546,675	-0,047	-0,082
-382,190	-161,326	-0,132	0,005
-381,175	458,370	-0,033	-0,055
-380,160	418,041	0,066	0,104
-379,146	-159,059	0,213	0,009
-378,131	15,664	-0,031	0,018
-377,117	103,243	-0,092	-0,079
-376,102	-60,580	-0,124	-0,038
-375,088	-200,000	0,008	-0,150
-374,073	800,000	0,041	-0,122
-373,058	-96,973	0,009	-0,002
-372,044	-200,000	0,021	0,108
-371,029	14,802	-0,082	-0,047
-370,015	68,197	0,083	-0,062
-369,000	-62,167	-0,220	-0,067
-367,985	37,920	0,063	0,041
-366,971	196,734	0,033	-0,037
-365,956	44,469	0,049	-0,033
-364,942	-200,000	0,003	0,031
-363,927	-15,483	0,021	-0,010
-362,912	-200,000	0,024	0,093
-361,898	-67,653	-0,046	-0,013
-360,883	73,029	-0,117	-0,090
-359,869	6,883	-0,078	-0,042
-358,854	-200,000	0,038	0,175
-357,839	527,432	0,067	0,117
-356,825	-200,000	-0,003	0,059
-355,810	44,431	0,006	0,004
-354,796	800,000	-0,005	-0,014
-353,781	-72,031	0,037	0,010
-352,766	800,000	-0,043	-0,102
-351,752	-200,000	-0,000	0,065
-350,737	95,917	0,105	0,088
-349,723	35,434	-0,039	-0,025
-348,708	154,804	-0,078	0,079
-347,693	434,793	-0,064	0,102
-346,679	29,351	0,100	0,062
-345,664	156,818	0,025	0,026
-344,650	800,000	0,044	-0,122
-343,635	800,000	-0,050	0,121
-342,620	48,945	-0,088	0,060
-341,606	-52,593	0,157	-0,053
-340,591	-4,795	-0,031	-0,016
-339,577	-56,412	0,070	0,023
-338,562	-139,046	-0,074	0,006
-337,548	-200,000	0,005	-0,021
-336,533	-3,337	-0,052	0,027
-335,518	155,326	-0,064	0,065
-334,504	-200,000	0,012	0,046
-333,489	27,757	-0,140	-0,086
-332,475	0,031	-0,054	-0,028
-331,460	-157,609	-0,079	-0,003
-330,445	-200,000	-0,048	0,160
-329,431	800,000	-0,026	-0,071
-328,416	-107,166	0,079	-0,013
-327,402	-93,937	-0,051	0,010
-326,387	-67,648	-0,121	-0,034
-325,372	800,000	0,042	-0,105
-324,358	116,496	-0,119	0,107
-323,343	92,922	-0,028	0,023
-322,329	4,614	0,084	-0,045
-321,314	-37,467	0,149	0,058
-320,299	-44,485	-0,053	-0,019
-319,285	-200,000	-0,018	-0,085
-318,270	-148,471	0,104	0,006
-317,256	-97,582	-0,188	-0,035
-316,241	-200,000	-0,002	-0,045
-315,226	-200,000	-0,014	-0,127
-314,212	761,471	0,032	0,064
-313,197	-72,631	-0,045	-0,012
-312,183	308,487	-0,031	-0,043
-311,168	800,000	-0,015	0,045
-310,153	55,822	0,036	0,025
-309,139	800,000	-0,010	-0,021
-308,124	800,000	-0,021	-0,059
-307,110	-200,000	-0,007	0,046
-306,095	67,683	0,058	0,043
-305,080	-55,806	-0,044	-0,014
-304,066	-54,128	0,064	-0,021
-303,051	-83,682	-0,090	-0,021
-302,037	-200,000	0,013	0,078
-301,022	-22,216	-0,081	0,036
-300,008	243,674	0,103	0,127
-298,993	-82,014	-0,094	0,022
-297,978	-89,920	-0,121	0,026
-296,964	-200,000	0,012	0,114
-295,949	-200,000	0,036	-0,122
-294,935	53,532	0,139	-0,098
-293,920	800,000	-0,024	0,060
-292,905	-200,000	0,024	0,086
-291,891	-126,882	-0,076	0,008
-290,876	-200,000	-0,085	-0,000
-289,862	800,000	-0,003	0,009
-288,847	800,000	-0,011	0,027
-287,832	-200,000	-0,013	-0,071
-286,818	800,000	-0,015	0,038
-285,803	-200,000	-0,026	0,087
-284,789	186,166	-0,057	0,063
-283,774	-30,865	0,082	0,034
-282,759	-175,083	-0,052	0,001
-281,745	-200,000	-0,021	-0,100
-280,730	-200,000	-0,002	-0,076
-279,716	-80,318	-0,190	0,046
-278,701	-200,000	0,025	-0,132
-277,686	458,509	-0,026	-0,043
-276,672	463,677	0,022	0,035
-275,657	-200,000	0,007	0,116
-274,643	-147,750	0,110	-0,007
-273,628	211,300	-0,080	-0,092
-272,613	800,000	-0,008	-0,020
-271,599	800,000	0,056	0,119
-270,584	-123,475	0,055	0,006
-269,570	317,731	0,024	0,034
-268,555	17,608	0,078	0,045
-267,540	257,722	0,029	-0,037
-266,526	-120,552	-0,029	-0,004
-265,511	80,667	-0,118	-0,093
-264,497	-96,306	0,136	0,026
-263,482	800,000	0,057	0,181
-262,467	-24,725	0,143	0,062
-261,453	21,005	0,026	-0,015
-260,438	800,000	-0,033	-0,067
-259,424	390,300	-0,048	-0,072
-258,409	800,000	0,056	-0,126
-257,395	79,521	-0,108	-0,084
-256,380	-33,997	-0,088	0,035
-255,365	-200,000	-0,001	-0,041
-254,351	612,087	-0,042	-0,077
-253,336	26,875	-0,104	0,064
-252,322	800,000	0,039	0,080
-251,307	305,208	0,003	0,004
-250,292	-117,150	0,096	-0,013
-249,278	418,460	0,081	0,126
-248,263	-200,000	-0,015	0,103
-247,249	-16,442	-0,131	0,061
-246,234	-123,398	0,076	0,009
-245,219	710,986	0,032	-0,062
-244,205	-154,467	-0,026	0,001
-243,190	-169,683	-0,148	-0,004
-242,176	-200,000	-0,008	0,044
-241,161	800,000	0,032	-0,085
-240,146	485,242	-0,015	0,026
-239,132	48,116	-0,080	-0,055
-238,117	800,000	0,043	-0,094
-237,103	-110,589	-0,188	-0,028
-236,088	332,239	-0,024	-0,034
-235,073	-200,000	0,026	0,089
-234,059	800,000	0,019	-0,040
-233,044	-200,000	0,033	0,137
-232,030	-124,583	-0,027	-0,003
-231,015	166,608	-0,103	-0,107
-230,000	-106,127	0,149	-0,024
-228,986	-200,000	-0,009	-0,032
-227,971	140,644	0,087	-0,084
-226,957	-99,061	-0,082	0,015
-225,942	-200,000	0,004	0,089
-224,927	-52,037	-0,049	0,017
-223,913	662,851	-0,078	-0,148
-222,898	-200,000	0,003	0,151
-221,884	-96,216	-0,130	0,025
-220,869	66,439	0,098	-0,073
-219,855	77,750	0,089	0,069
-218,840	-96,878	0,131	-0,025
-217,825	363,048	0,028	-0,041
-216,811	800,000	-0,009	-0,023
-215,796	219,981	0,073	-0,085
-214,782	-200,000	-0,023	-0,184
-213,767	-102,573	0,166	-0,029
-212,752	800,000	0,026	0,063
-211,738	-200,000	0,015	-0,157
-210,723	165,927	0,045	0,046
-209,709	437,332	-0,033	0,053
-208,694	163,934	-0,058	-0,060
-207,679	-200,000	0,039	-0,134
-206,665	510,174	-0,033	0,057
-205,650	523,720	0,087	0,149
-204,636	-200,000	0,007	0,054
-203,621	431,351	-0,052	0,082
-202,606	18,766	0,085	0,050
-201,592	135,594	0,080	-0,076
-200,577	15,095	-0,047	-0,027
-199,563	-1,697	-0,051	0,026
-198,548	800,000	0,071	0,150
-197,533	-200,000	0,040	0,153
-196,519	178,798	0,078	0,083
-195,504	147,903	-0,093	0,091
-194,490	130,647	0,060	-0,056
-193,475	-36,673	-0,085	-0,033
-192,460	-94,046	-0,042	-0,008
-191,446	-99,855	-0,140	-0,025
-190,431	297,224	0,054	0,072
-189,417	235,359	0,049	0,059
-188,402	-131,512	-0,034	0,003
-187,387	-69,890	-0,085	0,023
-186,373	-131,021	0,149	0,014
-185,358	-200,000	-0,005	0,018
-184,344	351,440	0,008	0,012
-183,329	311,159	0,037	0,051
-182,315	74,250	-0,064	-0,049
-181,300	-200,000	0,055	0,000
-180,285	12,666	0,064	0,036
-179,271	800,000	-0,018	0,045
-178,256	800,000	0,020	-0,064
-177,242	-200,000	0,003	0,045
-176,227	175,586	0,094	0,100
-175,212	614,380	0,059	-0,109
-174,198	40,623	-0,080	-0,052
-173,183	-200,000	0,110	0,000
-172,169	140,246	0,029	-0,028
-171,154	-74,799	0,078	0,020
-170,139	193,937	0,100	0,110
-169,125	-200,000	0,011	0,212
-168,110	183,608	0,026	-0,028
-167,096	327,351	-0,058	-0,081
-166,081	-152,062	0,144	-0,007
-165,066	800,000	-0,031	-0,089
-164,052	293,558	0,018	-0,024
-163,037	318,132	0,094	-0,129
-162,023	800,000	0,014	0,031
-161,008	-200,000	-0,004	0,158
-159,993	-84,351	0,138	-0,032
-158,979	-172,908	-0,194	0,004
-157,964	-104,466	-0,033	-0,005
-156,950	72,331	0,019	0,014
-155,935	197,126	-0,077	0,085
-154,920	129,207	0,082	0,076
-153,906	167,580	-0,102	0,106
-152,891	83,320	-0,064	-0,050
-151,877	105,098	-0,013	-0,011
-150,862	-200,000	-0,012	0,070
-149,847	-14,073	0,044	-0,020
-148,833	-109,846	0,136	-0,021
-147,818	-55,826	0,073	0,024
-146,804	-49,044	0,120	-0,042
-145,789	-85,294	-0,181	-0,041
-144,775	486,472	-0,053	-0,087
-143,760	395,609	-0,098	-0,149
-142,745	63,329	-0,068	-0,049
-141,731	588,893	0,017	0,031
-140,716	163,581	0,074	0,076
-139,702	227,671	-0,104	0,123
-138,687	800,000	0,017	-0,055
-137,672	-200,000	-0,018	-0,080
-136,658	-66,321	0,035	-0,010
-135,643	231,607	0,049	0,059
-134,629	-42,778	-0,120	-0,044
-133,614	-68,765	-0,032	0,009
-132,599	772,814	-0,038	0,076
-131,585	-63,494	-0,116	-0,034
-130,570	-32,609	0,129	0,052
-129,556	36,825	-0,059	0,038
-128,541	800,000	0,013	-0,027
-127,526	-182,736	-0,038	0,000
-126,512	-26,346	0,097	0,041
-125,497	352,817	0,023	0,033
-124,483	800,000	0,040	-0,083
-123,468	760,503	0,029	0,057
-122,453	125,023	0,039	0,036
-121,439	-2,204	-0,120	-0,061
-120,424	502,266	-0,062	-0,104
-119,410	124,823	-0,102	0,093
-118,395	317,469	0,093	-0,128
-117,380	58,011	0,089	0,063
-116,366	17,430	-0,140	0,081
-115,351	129,874	0,008	0,008
-114,337	100,368	-0,037	-0,031
-113,322	-200,000	0,003	0,024
-112,307	800,000	0,048	0,103
-111,293	342,954	-0,062	0,088
-110,278	246,856	-0,057	0,070
-109,264	-113,685	0,044	-0,006
-108,249	-200,000	0,020	-0,149
-107,234	-200,000	0,007	-0,055
-106,220	-200,000	-0,001	-0,030
-105,205	681,732	-0,020	0,038
-104,191	-200,000	0,003	0,011
-103,176	800,000	0,071	0,153
-102,162	-200,000	-0,009	-0,061
-101,147	-89,273	0,048	-0,010
-100,132	124,389	-0,053	-0,049
-99,118	119,599	-0,018	-0,016
-98,103	800,000	0,041	0,111
-97,089	-46,024	0,052	-0,018
-96,074	90,156	-0,046	-0,037
-95,059	-74,831	0,062	-0,016
-94,045	347,470	-0,093	-0,133
-93,030	-104,535	-0,085	0,014
-92,016	41,559	0,040	-0,026
-91,001	325,721	0,018	0,025
-89,986	800,000	0,072	-0,148
-88,972	-200,000	-0,016	0,127
-87,957	-88,140	0,093	0,020
-86,943	483,848	-0,049	-0,081
-85,928	381,967	-0,079	-0,118
-84,913	383,929	-0,046	0,069
-83,899	-82,117	-0,090	-0,021
-82,884	412,465	0,021	-0,032
-81,870	-33,002	-0,034	-0,013
-80,855	279,422	-0,026	0,034
-79,840	143,787	-0,040	-0,038
-78,826	438,201	-0,029	-0,045
-77,811	-200,000	0,026	0,104
-76,797	136,694	0,038	-0,036
-75,782	64,751	-0,134	0,098
-74,767	153,646	-0,077	0,077
-73,753	152,746	0,150	0,148
-72,738	-29,338	-0,155	0,064
-71,724	800,000	0,049	0,100
-70,709	-21,633	-0,080	0,035
-69,694	178,197	0,086	-0,091
-68,680	-120,175	0,099	0,012
-67,665	509,680	0,022	-0,038
-66,651	-103,818	0,195	-0,033
-65,636	27,008	-0,105	0,064
-64,622	-200,000	0,021	-0,123
-63,607	-120,596	-0,098	-0,012
-62,592	-200,000	0,036	-0,156
-61,578	-200,000	0,024	0,154
-60,563	-200,000	-0,018	-0,127
-59,549	44,351	-0,166	-0,110
-58,534	-69,271	-1,666	-0,461
-57,519	677,543	-0,637	-1,205
-56,505	-200,000	-0,976	-4,464
-55,490	-110,496	0,606	-0,090
-54,476	800,000	5,204	11,872
-53,461	-200,000	15,029	265,673
-52,446	-200,000	695,694	2238,864
-51,432	585,276	1617,010	2891,167
-50,417	120,976	1625,484	1464,901
-49,403	82,953	1281,764	1008,982
-48,388	37,707	1022,017	656,000
-47,373	22,395	982,764	580,423
-46,359	21,374	971,788	570,567
-45,344	19,944	967,501	563,350
-44,330	19,990	966,030	562,621
-43,315	19,778	964,687	561,123
-42,300	19,768	963,590	560,432
-41,286	19,748	962,425	559,667
-40,271	19,727	961,567	559,078
-39,257	19,749	960,716	558,633
-38,242	19,787	959,898	558,259
-37,227	19,775	959,269	557,829
-36,213	19,699	958,162	556,917
-35,198	19,642	957,445	556,295
-34,184	19,722	956,692	556,094
-33,169	19,712	955,734	555,484
-32,154	19,788	954,722	555,119
-31,140	19,756	953,839	554,480
-30,125	19,795	953,004	554,099
-29,111	19,730	952,382	553,504
-28,096	19,756	951,503	553,057
-27,082	19,709	951,032	552,610
-26,067	19,707	950,112	552,046
-25,052	19,745	949,333	551,694
-24,038	19,746	948,709	551,312
-23,023	19,699	947,987	550,719
-22,009	19,765	947,293	550,507
-20,994	19,720	946,769	550,034
-19,979	19,706	946,241	549,663
-18,965	19,712	945,459	549,206
-17,950	19,687	945,018	548,847
-16,936	19,660	944,344	548,347
-15,921	19,662	943,683	547,949
-14,906	19,555	943,130	547,266
-13,892	19,577	942,340	546,855
-12,877	19,566	941,699	546,427
-11,863	19,544	941,192	546,040
-10,848	19,612	940,539	545,857
-9,833	19,644	940,228	545,755
-8,819	19,676	939,593	545,466
-7,804	19,601	938,922	544,819
-6,790	19,588	938,306	544,397
-5,775	19,622	937,700	544,133
-4,760	19,576	937,047	543,584
-3,746	19,559	936,447	543,164
-2,731	19,507	935,742	542,567
-1,717	19,352	935,078	541,673
-0,702	19,403	934,416	541,428
0,313	19,226	933,875	541,371
1,327	21,663	931,450	547,594
2,342	28,729	805,934	492,913
3,356	22,809	506,257	299,529
4,371	-0,907	373,256	190,645
5,386	-3,624	356,530	178,751
6,400	-4,835	350,696	174,346
7,415	-4,961	348,065	172,871
8,429	-5,003	346,772	172,164
9,444	-5,193	345,989	171,533
10,459	-5,047	345,243	171,321
11,473	-5,166	344,702	170,896
12,488	-4,979	343,985	170,748
13,502	-5,234	343,528	170,204
14,517	-5,104	342,970	170,065
15,531	-4,944	342,609	170,060
16,546	-4,919	342,203	169,873
17,561	-4,986	341,725	169,542
18,575	-4,984	341,311	169,324
19,590	-5,014	340,816	169,028
20,604	-4,782	340,503	169,130
21,619	-4,975	340,188	168,731
22,634	-4,967	339,970	168,618
23,648	-4,989	339,464	168,327
24,663	-4,956	339,113	168,176
25,677	-5,127	339,004	167,908
26,692	-4,925	338,618	167,936
27,707	-4,941	338,371	167,780
28,721	-4,977	337,974	167,527
29,736	-4,945	337,498	167,314
30,750	-5,055	337,505	167,173
31,765	-4,920	337,077	167,103
32,780	-5,061	336,895	166,835
33,794	-4,944	336,450	166,735
34,809	-4,853	336,159	166,681
35,823	-4,992	335,846	166,350
36,838	-4,963	335,655	166,274
37,853	-5,069	335,492	166,057
38,867	-4,890	335,038	166,023
39,882	-4,875	334,798	165,908
40,896	-4,896	334,501	165,721
41,911	-4,869	334,197	165,587
42,926	-4,969	333,949	165,334
43,940	-4,972	333,924	165,303
44,955	-4,978	333,313	164,979
45,969	-5,071	333,124	164,765
46,984	-4,929	333,085	164,893
47,999	-4,830	332,746	164,825
49,013	-4,891	332,495	164,616
50,028	-4,946	332,352	164,467
51,042	-5,023	331,986	164,183
52,057	-5,059	331,701	163,987
53,071	-4,969	331,547	163,998
54,086	-4,907	331,348	163,956
55,101	-5,021	331,010	163,645
56,115	-4,806	330,780	163,760
57,130	-4,908	330,468	163,475
58,144	-5,139	330,172	163,053
59,159	-5,022	329,871	163,022
60,174	-5,020	329,605	162,879
61,188	-5,094	329,351	162,654
62,203	-4,894	328,966	162,675
63,217	-4,915	328,890	162,599
64,232	-4,996	328,596	162,349
65,247	-4,990	328,391	162,240
66,261	-4,901	328,053	162,158
67,276	-4,982	327,826	161,941
68,290	-4,755	327,569	162,055
69,305	-4,979	327,325	161,668
70,320	-4,928	327,071	161,586
71,334	-4,931	326,752	161,410
72,349	-4,982	326,511	161,220
73,363	-5,064	326,378	161,048
74,378	-5,011	325,974	160,893
75,393	-4,992	325,801	160,815
76,407	-4,833	325,419	160,789
77,422	-4,811	325,204	160,693
78,436	-4,970	324,912	160,357
79,451	-4,894	324,600	160,274
80,466	-4,936	324,411	160,119
81,480	-4,853	324,149	160,068
82,495	-4,999	324,003	159,819
83,509	-4,801	323,835	159,942
84,524	-4,781	323,560	159,814
85,539	-4,852	323,445	159,664
86,553	-4,819	322,931	159,433
87,568	-4,799	322,724	159,338
88,582	-4,769	322,518	159,255
89,597	-4,883	322,339	159,027
90,611	-4,912	322,071	158,849
91,626	-4,940	321,857	158,699
92,641	-4,807	321,640	158,723
93,655	-4,927	321,463	158,490
94,670	-4,889	321,190	158,383
95,684	-4,951	320,793	158,105
96,699	-4,949	320,587	157,992
97,714	-4,954	320,311	157,836
98,728	-5,080	320,359	157,707
99,743	-4,727	319,845	157,826
100,757	-4,804	319,727	157,670
101,772	-4,793	319,316	157,465
102,787	-4,972	319,271	157,234
103,801	-4,994	318,991	157,058
104,816	-4,832	318,736	157,095
105,830	-4,857	318,627	156,999
106,845	-4,892	318,245	156,759
107,860	-4,988	318,071	156,555
108,874	-4,988	317,863	156,439
109,889	-4,910	317,580	156,370
110,903	-5,099	317,290	156,009
111,918	-4,892	316,985	156,069
112,933	-4,917	316,871	155,972
113,947	-4,785	316,530	155,934
114,962	-4,864	316,425	155,783
115,976	-4,979	316,256	155,561
116,991	-4,824	316,002	155,590
118,006	-5,047	315,742	155,207
119,020	-4,826	315,536	155,329
120,035	-4,808	315,424	155,281
121,049	-4,789	315,158	155,156
122,064	-4,669	314,873	155,131
123,079	-4,845	314,645	154,816
124,093	-4,974	314,433	154,559
125,108	-5,012	314,311	154,445
126,122	-4,895	314,097	154,451
127,137	-4,949	313,918	154,292
128,151	-4,894	313,633	154,196
129,166	-4,895	313,412	154,073
130,181	-4,894	313,102	153,908
131,195	-4,720	312,826	153,944
132,210	-4,995	312,748	153,599
133,224	-4,869	312,404	153,551
134,239	-4,729	312,177	153,574
135,254	-5,018	312,133	153,231
136,268	-4,948	311,854	153,155
137,283	-4,794	311,529	153,145
138,297	-4,804	311,326	153,022
139,312	-4,780	311,180	152,961
140,327	-4,815	310,736	152,692
141,341	-4,860	310,706	152,616
142,356	-4,955	310,561	152,431
143,370	-4,859	310,222	152,352
144,385	-4,894	309,996	152,191
145,400	-4,975	309,928	152,058
146,414	-4,887	309,479	151,917
147,429	-4,936	309,318	151,773
148,443	-4,799	309,041	151,768
149,458	-4,838	308,775	151,583
150,473	-4,905	308,724	151,474
151,487	-4,850	308,410	151,364
152,502	-4,804	308,261	151,326
153,516	-4,901	308,136	151,149
154,531	-4,736	307,757	151,122
155,546	-4,862	307,645	150,922
156,560	-4,804	307,361	150,830
157,575	-4,733	307,147	150,785
158,589	-4,762	306,806	150,574
159,604	-4,925	306,727	150,352
160,619	-4,835	306,713	150,426
161,633	-4,745	306,264	150,286
162,648	-4,856	306,097	150,075
163,662	-4,946	306,015	149,928
164,677	-4,886	305,635	149,791
165,692	-4,833	305,590	149,810
166,706	-4,825	305,253	149,640
167,721	-4,826	305,036	149,519
168,735	-4,791	304,924	149,488
169,750	-4,759	304,793	149,443
170,764	-4,841	304,555	149,227
171,779	-4,915	304,458	149,091
172,794	-4,578	303,980	149,191
173,808	-4,808	303,771	148,838
174,823	-4,828	303,808	148,822
175,837	-4,869	303,599	148,665
176,852	-4,917	303,359	148,485
177,867	-4,868	303,144	148,416
178,881	-4,845	302,811	148,264
179,896	-4,772	302,725	148,283
180,910	-4,941	302,514	147,993
181,925	-5,027	302,204	147,740
182,940	-4,796	302,016	147,872
183,954	-4,885	301,908	147,714
184,969	-4,778	301,649	147,684
185,983	-4,864	301,534	147,527
186,998	-4,717	301,254	147,527
188,013	-4,654	301,022	147,464
189,027	-4,824	300,840	147,188
190,042	-4,841	300,505	146,994
191,056	-4,896	300,369	146,859
192,071	-4,795	300,158	146,845
193,086	-5,043	299,971	146,488
194,100	-4,928	299,855	146,536
195,115	-4,788	299,569	146,525
196,129	-4,752	299,205	146,370
197,144	-4,870	299,141	146,206
198,159	-4,885	298,824	146,023
199,173	-4,842	298,612	145,950
200,188	-4,866	298,400	145,809
201,202	-4,792	298,131	145,740
202,217	-4,947	298,069	145,539
203,232	-4,858	297,807	145,488
204,246	-4,785	297,604	145,449
205,261	-4,725	297,410	145,402
206,275	-4,809	297,230	145,217
207,290	-4,779	297,082	145,162
208,304	-4,732	296,896	145,105
209,319	-4,816	296,610	144,868
210,334	-4,855	296,500	144,762
211,348	-4,750	296,245	144,730
212,363	-4,730	295,882	144,560
213,377	-4,784	295,829	144,467
214,392	-4,799	295,558	144,306
215,407	-4,834	295,501	144,231
216,421	-4,730	295,041	144,098
217,436	-5,041	294,921	143,716
218,450	-4,772	294,700	143,863
219,465	-4,769	294,637	143,823
220,480	-4,863	294,460	143,631
221,494	-4,775	294,307	143,630
222,509	-4,744	294,126	143,560
223,523	-4,906	293,890	143,271
224,538	-4,881	293,589	143,137
225,553	-4,816	293,447	143,119
226,567	-4,774	293,305	143,078
227,582	-4,990	293,162	142,781
228,596	-4,883	292,950	142,772
229,611	-4,719	292,728	142,813
230,626	-4,799	292,705	142,710
231,640	-4,723	292,263	142,558
232,655	-4,819	292,118	142,379
233,669	-4,718	291,873	142,346
234,684	-4,774	291,831	142,258
235,699	-4,844	291,482	142,006
236,713	-4,755	291,213	141,950
237,728	-4,614	291,174	142,056
238,742	-4,633	290,902	141,893
239,757	-4,742	290,668	141,658
240,772	-4,764	290,417	141,503
241,786	-4,917	290,527	141,393
242,801	-4,731	290,143	141,376
243,815	-4,699	289,967	141,309
244,830	-4,960	289,962	141,038
245,844	-4,870	289,594	140,935
246,859	-4,723	289,319	140,933
247,874	-4,802	289,046	140,710
248,888	-4,965	289,159	140,593
249,903	-4,889	288,868	140,513
250,917	-4,696	288,604	140,559
251,932	-4,848	288,594	140,395
252,947	-5,063	288,104	139,934
253,961	-5,560	287,799	139,292
254,976	-5,644	287,462	139,035
255,990	-5,439	287,379	139,180
257,005	-3,829	288,040	141,052
258,020	-1,272	288,855	143,925
259,034	-0,000	289,110	145,277
260,049	0,509	289,205	145,807
261,063	0,704	289,253	146,008
262,078	1,071	289,093	146,270
263,093	1,466	289,031	146,608
264,107	1,663	288,893	146,717
265,122	1,838	288,667	146,758
266,136	2,052	288,529	146,882
267,151	1,963	288,428	146,731
268,166	2,000	288,305	146,691
269,180	1,887	288,027	146,428
270,195	2,015	287,812	146,430
271,209	1,952	287,637	146,267
272,224	1,964	287,645	146,269
273,239	2,035	287,300	146,149
274,253	1,958	287,019	145,919
275,268	1,834	286,961	145,757
276,282	1,787	286,766	145,600
277,297	1,915	286,555	145,602
278,312	1,818	286,354	145,394
279,326	1,886	286,107	145,321
280,341	1,700	285,997	145,074
281,355	1,788	285,611	144,950
282,370	1,588	285,671	144,776
283,384	1,752	285,578	144,872
284,399	1,859	285,151	144,745
285,414	1,809	285,040	144,629
286,428	1,639	284,911	144,387
287,443	1,705	284,754	144,358
288,457	1,750	284,425	144,222
289,472	1,755	284,225	144,112
290,487	1,729	284,053	143,987
291,501	1,705	283,920	143,884
292,516	1,787	283,768	143,872
293,530	1,854	283,459	143,766
294,545	1,624	283,458	143,535
295,560	1,687	283,166	143,433
296,574	1,643	282,990	143,289
297,589	1,635	282,735	143,140
298,603	1,650	282,545	143,046
299,618	1,724	282,349	143,004
300,633	1,633	282,233	142,847
301,647	1,788	282,122	142,923
302,662	1,882	281,869	142,871
303,676	1,836	281,805	142,783
304,691	1,862	281,621	142,701
305,706	1,971	281,383	142,670
306,720	2,033	281,130	142,588
307,735	2,035	280,943	142,482
308,749	1,834	280,875	142,246
309,764	1,812	280,629	142,088
310,779	1,793	280,448	141,966
311,793	1,874	280,284	141,946
312,808	1,635	280,080	141,607
313,822	1,840	279,891	141,690
314,837	1,778	279,702	141,524
315,852	1,778	279,596	141,457
316,866	1,914	279,286	141,415
317,881	1,740	279,219	141,207
318,895	1,728	278,927	141,035
319,910	1,858	278,806	141,082
320,925	1,870	278,621	140,986
321,939	1,777	278,521	140,837
322,954	1,963	278,322	140,898
323,968	1,893	278,197	140,756
324,983	1,907	278,008	140,661
325,997	1,875	277,825	140,526
327,012	1,933	277,544	140,426
328,027	1,932	277,441	140,359
329,041	1,936	277,193	140,225
330,056	1,996	277,059	140,200
331,070	1,826	276,938	139,970
332,085	2,003	276,778	140,040
333,100	1,863	276,549	139,782
334,114	2,041	276,249	139,783
335,129	2,066	276,110	139,722
336,143	1,826	276,039	139,453
337,158	2,025	275,760	139,483
338,173	2,114	275,616	139,480
339,187	2,011	275,467	139,297
340,202	2,118	275,265	139,280
341,216	1,986	275,034	139,030
342,231	1,786	274,950	138,792
343,246	1,968	274,773	138,857
344,260	2,060	274,590	138,836
345,275	1,912	274,448	138,617
346,289	2,037	274,288	138,638
347,304	1,975	274,117	138,483
348,319	2,138	273,923	138,520
349,333	1,968	273,755	138,268
350,348	2,184	273,494	138,320
351,362	2,059	273,392	138,143
352,377	2,012	273,201	137,992
353,392	2,157	273,020	138,020
354,406	1,949	273,063	137,840
355,421	191,594	1346,095	1424,722
356,435	154,718	1476,887	1424,818
