DTS Sentinel unit serial number:	SN410029Multiplexer serial number:	ORYXHardware model number:	OX2-SRSoftware version number:	ORYX F/W v4,00 Oryx Data Collector v3.7.2.0data status	okinstallation	B4 Nyhavnadifferential loss correction	single-endedforward channel	channel 2reverse channel	N/Adate	2023/12/16time	13:05:13forward acquisition time	300,00reverse acquisition time	0,00gamma	499,1914k internal	0,3127k external	0,3127temperature offset calibration	1,0000default loss term (dB/km)	0,3820temperature slope calibration	1,0000multiplexer offset coefficient	1,0000multiplexer slope coefficient	1,0000fibre end	0,00T internal ref (°C)	24,48T ext. ref 1 (°C)	11,02T ext. ref 2 (°C)	11,18length (m)	temperature (°C)	Stokes	anti-Stokes-744,400	104,947	-0,085	-0,075
-743,385	-21,054	-0,300	0,136
-742,371	-200,000	-0,009	-0,052
-741,356	-17,522	-0,194	0,090
-740,342	95,141	0,057	0,048
-739,327	175,799	-0,163	0,176
-738,312	-184,945	-0,086	0,001
-737,298	73,083	-0,133	0,103
-736,283	390,725	-0,075	-0,117
-735,269	435,457	-0,083	0,135
-734,254	82,746	0,018	0,015
-733,239	-115,630	-0,303	-0,042
-732,225	-142,285	0,192	0,014
-731,210	-11,525	0,075	0,037
-730,196	-200,000	-0,004	-0,015
-729,181	-51,421	-0,075	-0,026
-728,167	-123,821	-0,080	0,009
-727,152	126,211	0,076	-0,072
-726,137	-16,989	-0,123	-0,058
-725,123	1,018	-0,161	-0,086
-724,108	348,570	-0,072	-0,106
-723,094	552,366	-0,104	-0,186
-722,079	-65,324	0,068	0,020
-721,064	-200,000	0,005	-0,020
-720,050	800,000	0,038	0,099
-719,035	157,814	-0,019	0,019
-718,021	-200,000	-0,034	-0,181
-717,006	-200,000	-0,001	-0,108
-715,991	-85,733	-0,063	-0,014
-714,977	-55,083	0,119	-0,040
-713,962	-148,276	-0,009	-0,001
-712,948	800,000	0,020	0,065
-711,933	800,000	0,014	0,035
-710,918	265,787	0,043	0,056
-709,904	-200,000	-0,022	-0,078
-708,889	-8,049	-0,045	0,023
-707,875	7,475	-0,114	0,063
-706,860	301,957	0,089	-0,123
-705,845	64,978	-0,005	-0,004
-704,831	215,150	-0,056	-0,066
-703,816	97,008	0,103	0,088
-702,802	-200,000	0,026	-0,129
-701,787	-125,015	-0,162	-0,018
-700,772	412,481	-0,017	-0,027
-699,758	-200,000	0,011	-0,101
-698,743	318,459	-0,023	0,032
-697,729	-200,000	-0,012	0,163
-696,714	491,581	-0,054	0,093
-695,699	78,083	0,040	-0,031
-694,685	-200,000	-0,035	-0,164
-693,670	800,000	-0,028	-0,058
-692,656	-12,186	0,106	-0,051
-691,641	749,464	-0,035	0,071
-690,627	-200,000	-0,032	-0,151
-689,612	-71,431	-0,051	-0,014
-688,597	24,102	-0,102	-0,062
-687,583	510,887	-0,012	-0,020
-686,568	198,704	-0,051	0,058
-685,554	-200,000	0,049	-0,170
-684,539	234,113	0,104	0,128
-683,524	-200,000	-0,003	-0,135
-682,510	164,299	-0,092	0,096
-681,495	-154,003	0,011	0,001
-680,481	-96,227	-0,206	-0,040
-679,466	34,765	-0,059	-0,038
-678,451	-200,000	-0,000	-0,021
-677,437	800,000	-0,047	0,110
-676,422	-49,044	0,120	-0,043
-675,408	409,493	0,041	0,065
-674,393	-49,908	-0,043	0,015
-673,378	-88,938	0,025	-0,005
-672,364	77,194	0,031	0,024
-671,349	471,130	-0,087	-0,145
-670,335	-200,000	0,017	-0,090
-669,320	32,403	0,079	-0,051
-668,305	-200,000	-0,004	-0,053
-667,291	121,569	-0,043	-0,040
-666,276	800,000	-0,064	0,136
-665,262	110,406	0,041	-0,037
-664,247	-200,000	0,000	0,023
-663,232	-200,000	-0,014	-0,071
-662,218	343,482	0,019	-0,027
-661,203	-17,583	-0,129	0,060
-660,189	-162,807	-0,106	-0,004
-659,174	25,600	-0,081	-0,050
-658,159	611,431	0,072	-0,134
-657,145	160,922	-0,030	0,031
-656,130	247,930	0,052	-0,066
-655,116	-5,101	-0,094	0,048
-654,101	59,442	0,196	0,143
-653,086	-35,590	0,010	0,004
-652,072	131,118	-0,098	0,093
-651,057	-169,922	-0,062	-0,002
-650,043	248,141	-0,046	0,058
-649,028	-39,833	-0,125	-0,048
-648,014	-41,275	0,078	0,030
-646,999	38,869	0,113	-0,075
-645,984	3,907	-0,020	-0,011
-644,970	6,061	0,057	-0,031
-643,955	51,831	-0,073	0,051
-642,941	-133,430	-0,093	-0,009
-641,926	197,638	-0,036	0,041
-640,911	157,800	-0,096	-0,099
-639,897	800,000	0,025	-0,078
-638,882	271,593	-0,112	0,147
-637,868	693,530	-0,056	-0,110
-636,853	-137,113	-0,053	0,004
-635,838	-148,281	-0,050	-0,003
-634,824	181,536	-0,032	-0,035
-633,809	-46,660	0,076	-0,028
-632,795	433,902	-0,019	-0,030
-631,780	800,000	-0,031	-0,071
-630,765	165,259	0,031	0,033
-629,751	137,509	-0,072	0,070
-628,736	12,182	-0,112	0,064
-627,722	33,240	0,052	-0,033
-626,707	-37,125	-0,080	-0,032
-625,692	800,000	0,018	-0,043
-624,678	-3,956	-0,103	0,053
-623,663	52,577	-0,101	0,072
-622,649	-200,000	-0,032	-0,119
-621,634	-200,000	-0,011	0,055
-620,619	800,000	0,011	0,026
-619,605	-141,095	-0,116	0,009
-618,590	223,118	-0,010	-0,012
-617,576	-200,000	-0,019	-0,082
-616,561	-200,000	0,016	0,062
-615,546	200,554	-0,039	-0,045
-614,532	20,347	0,016	-0,009
-613,517	-111,859	-0,038	-0,006
-612,503	-105,150	0,071	0,012
-611,488	147,293	0,015	0,015
-610,474	800,000	0,038	0,107
-609,459	763,939	0,007	0,013
-608,444	99,067	-0,113	0,097
-607,430	800,000	-0,061	-0,144
-606,415	-200,000	0,050	-0,238
-605,401	244,604	0,015	0,018
-604,386	18,431	0,155	-0,091
-603,371	-97,411	0,076	-0,014
-602,357	128,988	0,024	-0,023
-601,342	-100,168	-0,211	-0,038
-600,328	-3,936	-0,043	0,022
-599,313	497,251	-0,043	0,074
-598,298	-31,624	-0,053	-0,022
-597,284	-138,910	0,095	0,008
-596,269	-106,242	0,063	0,010
-595,255	-17,365	-0,107	0,049
-594,240	-200,000	0,008	-0,033
-593,225	149,604	-0,133	-0,134
-592,211	120,445	-0,060	-0,055
-591,196	-99,864	0,118	0,022
-590,182	-20,962	0,055	-0,025
-589,167	18,355	-0,144	-0,085
-588,152	142,532	0,065	0,064
-587,138	273,992	0,050	0,066
-586,123	800,000	-0,003	-0,010
-585,109	21,719	-0,069	0,041
-584,094	52,435	0,124	-0,087
-583,079	120,065	-0,149	0,137
-582,065	15,691	0,163	-0,094
-581,050	-200,000	0,023	-0,144
-580,036	184,548	-0,053	0,059
-579,021	-178,777	-0,078	-0,001
-578,006	800,000	0,032	-0,090
-576,992	136,062	0,077	-0,075
-575,977	-57,252	0,028	-0,009
-574,963	335,753	0,043	0,062
-573,948	-125,167	-0,105	0,012
-572,934	478,952	-0,041	0,070
-571,919	407,451	-0,070	-0,109
-570,904	489,904	0,039	-0,067
-569,890	800,000	0,040	0,124
-568,875	-200,000	-0,039	0,132
-567,861	-200,000	-0,082	0,000
-566,846	15,401	-0,059	0,034
-565,831	427,524	-0,035	0,055
-564,817	-92,256	-0,070	0,014
-563,802	87,398	-0,098	-0,080
-562,788	-200,000	0,040	-0,136
-561,773	800,000	0,042	0,088
-560,758	-200,000	-0,028	0,205
-559,744	-200,000	-0,003	-0,020
-558,729	-58,585	-0,065	0,021
-557,715	-200,000	0,007	0,102
-556,700	800,000	-0,023	-0,050
-555,685	-1,317	0,036	-0,019
-554,671	-61,012	0,060	0,018
-553,656	766,117	-0,009	0,017
-552,642	800,000	-0,033	-0,090
-551,627	91,744	0,057	0,048
-550,612	-200,000	-0,033	-0,125
-549,598	90,617	-0,076	-0,063
-548,583	-46,938	-0,063	-0,023
-547,569	89,936	-0,060	-0,050
-546,554	-174,629	0,084	-0,002
-545,539	-200,000	0,003	-0,032
-544,525	-200,000	0,011	-0,104
-543,510	57,220	-0,168	-0,121
-542,496	0,334	-0,081	0,043
-541,481	92,474	0,094	0,078
-540,466	33,711	0,052	-0,033
-539,452	763,884	0,046	-0,092
-538,437	170,231	0,089	0,094
-537,423	614,743	0,028	-0,052
-536,408	217,491	0,036	0,042
-535,393	-200,000	0,010	-0,127
-534,379	800,000	-0,022	-0,050
-533,364	1,236	-0,068	-0,036
-532,350	-200,000	-0,037	0,126
-531,335	781,287	-0,068	0,138
-530,321	-73,929	0,057	0,015
-529,306	-200,000	-0,028	0,118
-528,291	800,000	0,043	-0,100
-527,277	271,657	0,114	-0,149
-526,262	-67,153	-0,064	-0,018
-525,248	32,613	-0,070	0,044
-524,233	334,601	-0,041	0,059
-523,218	-3,320	-0,134	-0,068
-522,204	-200,000	0,009	0,041
-521,189	5,829	-0,108	-0,059
-520,175	66,085	-0,032	-0,024
-519,160	240,206	-0,032	0,039
-518,145	618,363	0,043	0,079
-517,131	398,162	0,083	0,129
-516,116	549,239	0,045	-0,079
-515,102	230,399	0,062	-0,075
-514,087	36,603	0,024	-0,016
-513,072	800,000	0,026	-0,079
-512,058	800,000	0,020	-0,058
-511,043	-42,055	-0,010	-0,004
-510,029	-24,905	0,076	0,033
-509,014	167,618	0,063	0,066
-507,999	-200,000	0,020	0,121
-506,985	-24,205	-0,086	0,038
-505,970	158,626	-0,109	-0,112
-504,956	800,000	0,116	-0,296
-503,941	20,375	-0,025	-0,015
-502,926	27,491	-0,012	0,007
-501,912	-119,914	0,096	0,012
-500,897	-100,304	-0,047	0,008
-499,883	729,927	-0,050	-0,098
-498,868	-73,892	0,211	-0,056
-497,853	800,000	-0,038	-0,110
-496,839	-180,020	-0,084	-0,001
-495,824	-18,643	0,069	-0,032
-494,810	125,282	0,147	0,137
-493,795	-200,000	0,009	0,044
-492,781	342,963	-0,028	-0,040
-491,766	625,178	0,059	-0,111
-490,751	-97,640	-0,109	-0,021
-489,737	545,369	-0,078	-0,137
-488,722	729,632	0,048	-0,095
-487,708	-87,504	0,105	0,023
-486,693	-200,000	-0,045	-0,170
-485,678	800,000	0,068	-0,185
-484,664	108,888	0,057	0,050
-483,649	186,662	-0,024	-0,027
-482,635	6,624	0,074	-0,040
-481,620	-141,594	-0,037	0,003
-480,605	12,186	0,076	0,043
-479,591	-200,000	-0,006	0,041
-478,576	-180,947	-0,075	0,001
-477,562	254,286	-0,060	0,075
-476,547	128,133	-0,064	-0,060
-475,532	135,518	-0,097	-0,093
-474,518	26,133	0,145	-0,089
-473,503	-91,746	0,023	-0,005
-472,489	164,306	0,085	-0,088
-471,474	22,743	0,026	-0,016
-470,459	-115,269	-0,054	0,007
-469,445	377,580	-0,028	0,042
-468,430	302,125	-0,029	-0,040
-467,416	698,828	-0,062	0,121
-466,401	26,444	0,128	-0,078
-465,386	-18,191	0,088	-0,040
-464,372	800,000	-0,017	0,051
-463,357	178,012	0,044	0,047
-462,343	236,455	-0,049	-0,060
-461,328	800,000	-0,019	-0,044
-460,313	-145,668	0,085	0,006
-459,299	-200,000	0,021	0,150
-458,284	7,781	0,067	-0,037
-457,270	87,331	0,091	0,074
-456,255	-200,000	0,019	0,153
-455,241	458,286	0,062	0,101
-454,226	-184,547	0,138	-0,002
-453,211	-7,191	0,099	-0,049
-452,197	-129,419	0,092	0,009
-451,182	30,910	0,128	0,081
-450,168	496,956	-0,038	0,065
-449,153	-200,000	-0,004	-0,058
-448,138	33,922	0,054	-0,035
-447,124	-190,063	-0,082	0,001
-446,109	-200,000	-0,002	0,064
-445,095	-200,000	0,024	-0,096
-444,080	89,201	0,176	0,144
-443,065	25,587	-0,015	0,009
-442,051	800,000	-0,025	0,061
-441,036	-121,372	-0,064	-0,008
-440,022	800,000	-0,059	-0,150
-439,007	19,873	-0,103	-0,061
-437,992	-200,000	0,002	-0,116
-436,978	-200,000	0,028	0,171
-435,963	-200,000	0,010	-0,227
-434,949	-200,000	0,038	-0,136
-433,934	-200,000	-0,009	-0,123
-432,919	-200,000	-0,013	0,163
-431,905	-37,783	-0,025	0,010
-430,890	-19,010	-0,071	-0,032
-429,876	800,000	-0,033	-0,104
-428,861	-200,000	-0,021	-0,073
-427,846	800,000	-0,008	0,023
-426,832	368,149	-0,071	-0,106
-425,817	68,399	0,037	-0,028
-424,803	-200,000	-0,016	0,088
-423,788	109,639	0,123	0,108
-422,773	-121,486	0,205	-0,025
-421,759	800,000	-0,047	0,127
-420,744	-200,000	-0,015	0,093
-419,730	-158,893	-0,031	-0,001
-418,715	42,181	0,017	-0,011
-417,701	107,894	-0,037	-0,033
-416,686	-79,125	0,187	-0,046
-415,671	-81,650	0,094	0,022
-414,657	-95,496	-0,071	-0,014
-413,642	-169,532	-0,157	0,004
-412,628	131,027	0,097	0,091
-411,613	-200,000	0,028	-0,103
-410,598	236,672	0,012	-0,014
-409,584	46,074	0,037	0,025
-408,569	-29,467	0,182	0,076
-407,555	-89,765	0,178	0,038
-406,540	211,216	-0,037	0,043
-405,525	-200,000	0,005	0,122
-404,511	128,352	-0,067	-0,062
-403,496	-136,550	-0,068	0,006
-402,482	53,225	-0,037	0,026
-401,467	-24,718	-0,052	0,023
-400,452	-33,618	0,070	-0,028
-399,438	-200,000	-0,013	0,080
-398,423	-1,320	0,101	0,052
-397,409	-200,000	-0,135	0,000
-396,394	-36,252	-0,068	0,027
-395,379	800,000	-0,051	-0,141
-394,365	-200,000	0,015	0,057
-393,350	244,277	0,069	0,085
-392,336	87,134	-0,113	-0,092
-391,321	-53,864	0,060	0,020
-390,306	800,000	0,032	-0,093
-389,292	-61,911	0,044	-0,013
-388,277	-46,958	0,103	0,037
-387,263	-90,943	0,088	0,018
-386,248	-200,000	0,000	0,048
-385,233	-50,050	-0,078	0,027
-384,219	800,000	-0,051	0,111
-383,204	-86,792	-0,080	-0,018
-382,190	-200,000	0,004	-0,012
-381,175	427,430	0,025	-0,040
-380,160	-63,329	0,114	0,034
-379,146	117,184	-0,046	-0,042
-378,131	-200,000	0,017	-0,060
-377,117	60,017	0,013	-0,009
-376,102	169,918	-0,059	-0,062
-375,088	80,346	-0,059	0,046
-374,073	800,000	0,065	0,138
-373,058	130,020	-0,044	0,041
-372,044	-112,527	0,086	-0,013
-371,029	23,105	0,129	0,078
-370,015	-200,000	0,013	0,064
-369,000	164,591	-0,100	-0,103
-367,985	-74,934	-0,072	0,019
-366,971	-109,500	0,082	0,013
-365,956	99,778	0,014	-0,012
-364,942	172,390	-0,029	0,031
-363,927	-129,954	-0,098	-0,010
-362,912	-17,732	0,077	0,035
-361,898	68,149	-0,061	0,046
-360,883	216,354	0,013	-0,015
-359,869	140,675	0,033	0,032
-358,854	800,000	0,023	0,067
-357,839	-200,000	-0,017	0,140
-356,825	-106,955	-0,091	-0,015
-355,810	213,571	0,066	0,077
-354,796	-200,000	-0,005	-0,085
-353,781	-200,000	0,006	-0,036
-352,766	-10,028	0,180	0,087
-351,752	161,318	-0,034	-0,035
-350,737	800,000	-0,051	-0,109
-349,723	800,000	0,041	0,104
-348,708	-1,361	-0,053	0,027
-347,693	29,736	0,023	-0,014
-346,679	-70,679	-0,056	-0,015
-345,664	-112,005	-0,019	0,003
-344,650	38,205	-0,071	0,046
-343,635	-200,000	-0,003	0,013
-342,620	-33,310	0,076	0,031
-341,606	138,282	-0,047	-0,045
-340,591	-51,054	0,148	0,051
-339,577	-103,980	0,126	0,021
-338,562	28,198	-0,073	0,045
-337,548	-32,250	-0,074	-0,030
-336,533	800,000	0,024	0,064
-335,518	800,000	0,031	0,076
-334,504	-25,662	-0,054	-0,023
-333,489	-200,000	0,024	-0,193
-332,475	-110,709	0,116	0,017
-331,460	-125,860	-0,087	-0,009
-330,445	-200,000	-0,043	-0,148
-329,431	-62,783	-0,029	0,009
-328,416	-32,408	0,056	0,023
-327,402	800,000	-0,023	0,064
-326,387	130,322	-0,022	0,021
-325,372	-98,282	-0,058	-0,011
-324,358	-200,000	0,004	0,012
-323,343	-131,555	-0,083	0,008
-322,329	374,398	0,044	0,066
-321,314	670,305	0,007	0,012
-320,299	-200,000	-0,012	0,044
-319,285	275,429	-0,070	-0,091
-318,270	19,870	-0,094	0,055
-317,256	-172,155	0,014	0,000
-316,241	-24,124	-0,076	0,033
-315,226	14,042	0,027	-0,015
-314,212	99,144	0,099	0,084
-313,197	224,258	-0,071	0,084
-312,183	12,540	0,049	0,027
-311,168	674,646	-0,037	-0,071
-310,153	-79,359	-0,049	-0,012
-309,139	254,764	0,026	0,032
-308,124	103,894	-0,022	-0,019
-307,110	592,402	-0,033	0,061
-306,095	800,000	0,070	0,199
-305,080	800,000	0,070	0,143
-304,066	10,192	0,099	0,055
-303,051	487,314	-0,071	-0,119
-302,037	800,000	-0,037	-0,081
-301,022	-200,000	-0,017	-0,094
-300,008	-63,447	0,037	-0,011
-298,993	-115,391	0,133	0,018
-297,978	-104,083	-0,094	-0,016
-296,964	-55,442	0,072	0,023
-295,949	800,000	-0,030	-0,064
-294,935	800,000	-0,013	-0,039
-293,920	-47,793	0,121	-0,043
-292,905	-124,220	0,193	0,022
-291,891	184,840	0,037	-0,040
-290,876	56,246	-0,058	0,041
-289,862	-40,122	-0,092	0,035
-288,847	35,340	-0,102	-0,065
-287,832	334,022	-0,085	-0,121
-286,818	-54,326	-0,040	-0,013
-285,803	800,000	-0,025	0,071
-284,789	-155,623	-0,082	0,004
-283,774	800,000	0,040	0,098
-282,759	800,000	0,022	-0,053
-281,745	59,883	-0,060	-0,043
-280,730	723,379	-0,053	-0,103
-279,716	-1,769	-0,124	-0,064
-278,701	-119,619	-0,068	0,009
-277,686	4,469	0,108	0,058
-276,672	-200,000	0,002	0,017
-275,657	-59,445	-0,104	-0,033
-274,643	111,625	-0,045	-0,039
-273,628	-38,825	-0,054	0,021
-272,613	88,375	0,074	-0,060
-271,599	11,387	0,052	0,029
-270,584	-95,981	0,126	-0,024
-269,570	-200,000	-0,031	0,099
-268,555	83,535	0,137	0,109
-267,540	800,000	-0,012	0,033
-266,526	7,976	0,025	-0,014
-265,511	-200,000	0,000	-0,139
-264,497	-47,244	0,178	-0,063
-263,482	-69,159	0,118	0,033
-262,467	-200,000	0,027	-0,117
-261,453	-200,000	-0,002	0,057
-260,438	800,000	0,059	0,125
-259,424	800,000	-0,015	0,039
-258,409	-151,296	0,040	-0,002
-257,395	589,731	0,041	-0,075
-256,380	89,012	-0,042	-0,035
-255,365	197,745	-0,134	0,149
-254,351	-118,868	0,115	-0,015
-253,336	239,157	-0,073	-0,089
-252,322	301,758	-0,062	-0,083
-251,307	64,703	0,142	-0,105
-250,292	800,000	0,022	0,068
-249,278	226,811	0,126	0,150
-248,263	116,916	0,013	0,012
-247,249	36,442	-0,022	0,014
-246,234	-200,000	0,008	0,029
-245,219	-95,743	0,058	-0,011
-244,205	108,680	0,022	-0,019
-243,190	800,000	0,021	0,053
-242,176	52,818	0,152	0,106
-241,161	-113,934	0,106	0,015
-240,146	-119,413	-0,104	-0,013
-239,132	-200,000	-0,001	0,018
-238,117	800,000	-0,055	-0,128
-237,103	-200,000	0,006	-0,030
-236,088	14,376	-0,061	-0,034
-235,073	-200,000	-0,005	0,060
-234,059	352,264	-0,069	0,100
-233,044	-200,000	-0,014	-0,114
-232,030	-200,000	-0,023	-0,098
-231,015	-104,616	-0,096	0,016
-230,000	-4,109	-0,059	-0,030
-228,986	-26,876	0,095	-0,040
-227,971	-41,047	0,059	-0,022
-226,957	123,847	0,075	0,069
-225,942	800,000	0,014	0,033
-224,927	485,528	-0,044	0,074
-223,913	142,729	-0,028	-0,027
-222,898	-200,000	0,021	0,103
-221,884	-91,683	-0,037	0,008
-220,869	-44,906	-0,060	-0,022
-219,855	211,171	0,047	-0,055
-218,840	17,917	-0,081	-0,047
-217,825	-163,032	-0,034	-0,001
-216,811	-200,000	-0,014	-0,069
-215,796	-33,284	-0,117	0,047
-214,782	307,294	0,055	0,075
-213,767	336,635	-0,025	0,035
-212,752	-107,315	-0,065	-0,010
-211,738	5,924	-0,054	0,029
-210,723	97,620	0,034	-0,029
-209,709	-200,000	0,010	-0,047
-208,694	-103,158	-0,017	0,003
-207,679	94,520	-0,058	-0,048
-206,665	-200,000	0,012	0,113
-205,650	245,164	-0,103	0,126
-204,636	800,000	0,031	0,087
-203,621	800,000	0,046	0,113
-202,606	800,000	0,027	0,081
-201,592	592,554	0,031	-0,057
-200,577	-183,844	-0,134	-0,002
-199,563	-200,000	0,033	0,227
-198,548	571,958	0,025	0,044
-197,533	257,854	0,010	-0,013
-196,519	-200,000	-0,018	0,080
-195,504	-200,000	-0,002	0,105
-194,490	495,165	-0,043	-0,073
-193,475	85,417	0,140	-0,112
-192,460	-50,321	0,049	-0,017
-191,446	-16,222	-0,102	-0,047
-190,431	600,697	-0,040	0,074
-189,417	800,000	0,047	0,100
-188,402	-200,000	-0,021	0,110
-187,387	-17,785	-0,023	-0,010
-186,373	98,070	-0,022	-0,018
-185,358	459,897	0,010	-0,016
-184,344	16,112	0,030	-0,017
-183,329	-144,363	-0,123	-0,008
-182,315	-64,431	-0,146	0,043
-181,300	-128,231	-0,021	0,002
-180,285	-112,406	-0,051	0,007
-179,271	800,000	0,023	-0,065
-178,256	-200,000	0,012	-0,125
-177,242	133,551	0,095	-0,089
-176,227	-200,000	0,022	0,083
-175,212	471,288	-0,101	0,167
-174,198	800,000	-0,017	0,041
-173,183	800,000	-0,042	-0,091
-172,169	274,286	-0,059	-0,076
-171,154	-142,817	0,170	0,012
-170,139	-89,868	-0,049	0,010
-169,125	130,848	0,098	0,091
-168,110	-93,707	0,080	0,016
-167,096	800,000	-0,057	0,122
-166,081	-148,867	0,090	0,005
-165,066	316,373	0,148	-0,204
-164,052	800,000	0,025	-0,070
-163,037	352,343	-0,048	-0,069
-162,023	-200,000	0,013	0,076
-161,008	243,744	-0,042	0,052
-159,993	-200,000	-0,030	0,115
-158,979	540,348	0,029	-0,050
-157,964	-24,580	-0,139	0,060
-156,950	-64,407	0,070	-0,021
-155,935	-75,843	-0,094	-0,024
-154,920	-200,000	-0,031	0,139
-153,906	800,000	0,005	0,010
-152,891	-59,258	0,064	0,020
-151,877	-118,518	-0,166	0,021
-150,862	-200,000	-0,020	-0,135
-149,847	-200,000	-0,027	-0,088
-148,833	-26,331	0,086	-0,037
-147,818	117,966	-0,084	-0,076
-146,804	240,982	0,099	-0,120
-145,789	-74,986	0,057	0,015
-144,775	225,691	-0,123	0,145
-143,760	-19,345	-0,134	0,060
-142,745	-18,772	-0,065	-0,029
-141,731	-153,692	0,090	0,004
-140,716	-200,000	0,005	0,147
-139,702	147,277	0,070	-0,068
-138,687	-120,064	-0,139	0,017
-137,672	672,922	-0,087	0,165
-136,658	-200,000	0,008	-0,099
-135,643	202,322	-0,004	-0,005
-134,629	-200,000	-0,010	-0,132
-133,614	59,901	0,029	-0,021
-132,599	-200,000	0,024	0,128
-131,585	-184,115	-0,118	-0,001
-130,570	-87,554	0,040	0,009
-129,556	-127,379	-0,093	-0,010
-128,541	-200,000	-0,025	-0,105
-127,526	800,000	-0,021	0,056
-126,512	108,419	0,044	-0,038
-125,497	-200,000	0,015	0,065
-124,483	-113,655	0,096	0,014
-123,468	-200,000	0,005	0,079
-122,453	80,438	-0,030	0,023
-121,439	307,472	0,113	-0,154
-120,424	-100,914	-0,078	0,014
-119,410	-43,832	-0,057	0,021
-118,395	12,709	0,059	0,033
-117,380	-200,000	-0,013	0,072
-116,366	272,752	0,019	-0,025
-115,351	-153,393	-0,082	-0,004
-114,337	82,302	0,090	-0,071
-113,322	-200,000	0,005	0,085
-112,307	37,942	0,069	0,045
-111,293	-34,454	0,038	0,015
-110,278	-200,000	0,005	-0,049
-109,264	82,847	-0,015	0,012
-108,249	40,663	0,155	0,101
-107,234	140,311	0,115	0,111
-106,220	5,204	0,129	-0,069
-105,205	-200,000	0,013	0,150
-104,191	-200,000	0,005	0,155
-103,176	-58,309	0,055	0,017
-102,162	800,000	0,028	-0,068
-101,147	599,328	0,051	-0,093
-100,132	3,398	-0,137	-0,072
-99,118	250,773	-0,069	-0,085
-98,103	128,581	-0,125	0,116
-97,089	-11,597	0,149	0,071
-96,074	486,846	-0,044	0,073
-95,059	-36,391	0,057	0,022
-94,045	40,195	0,055	-0,036
-93,030	155,817	-0,032	0,032
-92,016	-49,694	-0,124	-0,043
-91,001	-130,780	0,077	-0,007
-89,986	-22,818	0,047	0,020
-88,972	-159,620	0,123	-0,005
-87,957	105,556	-0,133	-0,114
-86,943	27,033	-0,078	-0,047
-85,928	800,000	0,023	-0,065
-84,913	84,574	-0,065	-0,051
-83,899	70,965	-0,023	-0,017
-82,884	403,861	0,041	0,063
-81,870	132,425	0,064	0,060
-80,855	-200,000	0,008	0,059
-79,840	-200,000	-0,007	-0,075
-78,826	-118,164	-0,085	0,011
-77,811	-200,000	-0,006	-0,161
-76,797	-200,000	-0,001	0,103
-75,782	-73,411	0,068	0,018
-74,767	800,000	-0,032	0,086
-73,753	135,416	-0,062	0,059
-72,738	800,000	-0,019	0,051
-71,724	-82,463	0,080	-0,019
-70,709	185,292	-0,018	0,020
-69,694	-23,305	-0,027	0,012
-68,680	-35,486	0,019	-0,007
-67,665	548,654	0,057	-0,099
-66,651	-17,461	-0,087	0,040
-65,636	14,872	0,121	-0,068
-64,622	49,031	-0,193	-0,131
-63,607	-121,223	-0,054	0,006
-62,592	2,511	-0,131	-0,069
-61,578	-9,081	0,109	-0,053
-60,563	-184,740	0,104	-0,001
-59,549	-200,000	-0,005	0,031
-58,534	-91,651	-1,227	0,251
-57,519	450,816	-1,068	-1,715
-56,505	-200,000	-0,745	-4,168
-55,490	38,219	0,648	-0,417
-54,476	800,000	4,867	11,462
-53,461	-200,000	11,996	229,279
-52,446	-200,000	677,165	2202,088
-51,432	589,449	1622,515	2910,622
-50,417	125,483	1648,719	1508,018
-49,403	79,341	1305,072	1013,177
-48,388	41,792	1037,557	680,327
-47,373	26,305	993,942	600,412
-46,359	25,449	983,800	591,430
-45,344	24,696	979,468	586,316
-44,330	24,633	978,000	585,208
-43,315	24,544	976,513	584,004
-42,300	24,499	975,516	583,234
-41,286	24,502	974,751	582,764
-40,271	24,495	973,717	582,100
-39,257	24,540	972,542	581,522
-38,242	24,535	971,663	580,957
-37,227	24,483	971,042	580,393
-36,213	24,490	970,042	579,795
-35,198	24,431	969,156	579,050
-34,184	24,538	968,325	578,878
-33,169	24,489	967,435	578,165
-32,154	24,532	966,444	577,688
-31,140	24,503	965,623	577,079
-30,125	24,556	964,776	576,725
-29,111	24,543	963,904	576,138
-28,096	24,543	963,221	575,708
-27,082	24,515	962,534	575,184
-26,067	24,527	961,923	574,835
-25,052	24,538	961,014	574,304
-24,038	24,533	960,418	573,907
-23,023	24,504	959,805	573,425
-22,009	24,525	959,102	573,051
-20,994	24,560	958,344	572,687
-19,979	24,477	957,828	572,089
-18,965	24,535	957,143	571,844
-17,950	24,554	956,373	571,421
-16,936	24,535	955,776	570,981
-15,921	24,477	955,051	570,341
-14,906	24,372	954,515	569,659
-13,892	24,390	953,746	569,237
-12,877	24,373	953,201	568,833
-11,863	24,374	952,306	568,279
-10,848	24,369	951,993	568,055
-9,833	24,545	951,294	568,180
-8,819	24,449	950,849	567,582
-7,804	24,388	950,259	567,013
-6,790	24,351	949,773	566,582
-5,775	24,450	948,974	566,400
-4,760	24,446	948,248	565,931
-3,746	24,436	947,695	565,545
-2,731	24,371	946,909	564,849
-1,717	24,267	946,168	564,051
-0,702	24,237	945,722	563,667
0,313	24,043	944,983	563,461
1,327	26,609	942,924	570,326
2,342	35,030	823,061	520,958
3,356	31,175	519,776	322,282
4,371	6,717	380,139	204,205
5,386	3,682	362,622	191,006
6,400	2,183	356,333	185,844
7,415	1,000	353,264	182,791
8,429	0,796	351,789	181,765
9,444	0,656	350,972	181,157
10,459	0,698	350,042	180,712
11,473	0,658	349,426	180,329
12,488	0,962	348,872	180,392
13,502	0,933	348,564	180,182
14,517	0,828	347,795	179,643
15,531	0,461	347,103	178,832
16,546	0,291	346,851	178,483
17,561	0,266	346,286	178,147
18,575	0,464	345,973	178,205
19,590	0,286	345,586	177,780
20,604	0,349	345,138	177,608
21,619	0,311	344,698	177,321
22,634	0,176	344,732	177,162
23,648	0,413	344,046	177,074
24,663	0,263	343,835	176,772
25,677	0,303	343,529	176,646
26,692	0,422	343,010	176,504
27,707	0,341	342,862	176,316
28,721	0,353	342,427	176,091
29,736	0,306	342,202	175,905
30,750	0,210	341,753	175,546
31,765	0,324	341,648	175,610
32,780	0,285	341,301	175,370
33,794	0,347	341,093	175,320
34,809	0,321	340,785	175,116
35,823	0,335	340,536	174,989
36,838	0,357	340,159	174,804
37,853	0,141	339,984	174,448
38,867	0,172	339,676	174,310
39,882	0,413	339,219	174,340
40,896	0,200	339,018	173,973
41,911	0,297	338,738	173,927
42,926	0,335	338,408	173,787
43,940	0,194	338,195	173,499
44,955	0,140	337,981	173,310
45,969	0,110	337,593	173,061
46,984	-0,103	337,527	172,766
47,999	-0,385	337,132	172,222
49,013	-0,307	336,769	172,111
50,028	-0,474	336,395	171,713
51,042	-0,471	336,145	171,573
52,057	-0,615	335,967	171,301
53,071	-0,493	335,550	171,213
54,086	-0,427	335,394	171,194
55,101	-0,406	335,217	171,112
56,115	-0,177	335,074	171,288
57,130	0,227	334,976	171,686
58,144	0,383	334,758	171,737
59,159	0,417	334,458	171,606
60,174	0,439	334,268	171,520
61,188	0,456	333,923	171,346
62,203	0,425	333,685	171,174
63,217	0,530	333,251	171,055
64,232	0,478	333,106	170,907
65,247	0,590	332,901	170,913
66,261	0,480	332,653	170,645
67,276	0,201	332,306	170,135
68,290	0,110	331,850	169,784
69,305	0,064	331,768	169,674
70,320	-0,017	331,471	169,415
71,334	0,229	331,127	169,503
72,349	0,322	331,260	169,661
73,363	0,513	330,836	169,645
74,378	0,614	330,524	169,584
75,393	0,408	330,431	169,289
76,407	0,302	330,097	168,983
77,422	0,349	329,855	168,896
78,436	0,595	329,533	168,994
79,451	0,507	329,437	168,831
80,466	0,664	328,811	168,671
81,480	0,220	328,605	168,052
82,495	0,008	328,438	167,713
83,509	0,125	328,230	167,724
84,524	-0,023	327,994	167,423
85,539	-0,222	327,757	167,064
86,553	-0,111	327,357	166,969
87,568	0,111	327,212	167,128
88,582	-0,039	326,992	166,833
89,597	-0,063	326,827	166,708
90,611	0,275	326,547	166,927
91,626	0,344	326,511	166,970
92,641	0,237	326,300	166,728
93,655	0,228	325,948	166,523
94,670	0,163	325,618	166,268
95,684	0,231	325,226	166,128
96,699	0,293	325,208	166,173
97,714	0,214	324,907	165,916
98,728	-0,010	324,657	165,526
99,743	-0,182	324,488	165,235
100,757	-0,139	324,119	165,080
101,772	-0,143	323,924	164,962
102,787	0,079	323,758	165,108
103,801	0,224	323,415	165,078
104,816	0,333	323,442	165,197
105,830	0,339	323,236	165,084
106,845	0,479	322,979	165,092
107,860	0,541	322,717	165,011
108,874	0,302	322,561	164,653
109,889	0,229	322,168	164,358
110,903	0,225	321,972	164,239
111,918	0,304	321,708	164,177
112,933	0,235	321,545	164,004
113,947	0,296	321,450	164,007
114,962	0,404	321,030	163,897
115,976	0,480	320,824	163,860
116,991	0,319	320,711	163,612
118,006	0,435	320,326	163,527
119,020	0,385	320,294	163,441
120,035	0,456	320,274	163,494
121,049	0,424	319,959	163,284
122,064	0,350	319,699	163,056
123,079	0,269	319,468	162,835
124,093	0,384	319,112	162,764
125,108	0,158	318,783	162,338
126,122	-0,159	318,692	161,933
127,137	-0,401	318,285	161,449
128,151	-0,230	318,106	161,529
129,166	-0,040	317,872	161,601
130,181	-0,025	317,490	161,408
131,195	-0,083	317,301	161,235
132,210	0,206	317,274	161,519
133,224	0,354	317,131	161,592
134,239	0,357	316,843	161,434
135,254	0,385	316,686	161,370
136,268	0,264	316,536	161,149
137,283	-0,085	315,926	160,449
138,297	-0,082	315,790	160,368
139,312	-0,179	315,576	160,142
140,327	0,205	315,534	160,517
141,341	0,657	315,296	160,866
142,356	0,449	315,298	160,631
143,370	0,696	315,085	160,772
144,385	0,558	314,930	160,531
145,400	0,676	314,451	160,399
146,414	0,741	314,387	160,420
147,429	0,581	314,142	160,111
148,443	0,686	313,945	160,108
149,458	0,586	313,725	159,876
150,473	0,649	313,694	159,912
151,487	0,441	313,302	159,478
152,502	0,566	313,160	159,523
153,516	0,755	312,728	159,490
154,531	0,680	312,580	159,321
155,546	0,438	312,527	159,023
156,560	0,647	312,137	159,031
157,575	0,455	311,992	158,740
158,589	0,534	311,742	158,682
159,604	0,587	311,408	158,554
160,619	0,564	311,215	158,418
161,633	0,492	311,057	158,247
162,648	0,685	310,911	158,362
163,662	0,793	310,625	158,317
164,677	0,638	310,351	158,000
165,692	0,570	310,373	157,925
166,706	0,666	310,152	157,900
167,721	0,669	309,929	157,775
168,735	0,643	309,578	157,555
169,750	0,698	309,590	157,604
170,764	0,686	309,388	157,475
171,779	0,844	309,287	157,576
172,794	0,819	308,992	157,385
173,808	0,702	308,719	157,109
174,823	0,259	308,286	156,412
175,837	0,044	308,115	156,087
176,852	0,446	308,060	156,465
177,867	0,779	307,919	156,727
178,881	0,777	307,830	156,665
179,896	0,810	307,591	156,564
180,910	0,892	307,314	156,494
181,925	0,778	307,040	156,222
182,940	0,857	306,987	156,263
183,954	0,931	306,671	156,165
184,969	0,782	306,429	155,873
185,983	0,670	306,302	155,680
186,998	0,939	305,938	155,759
188,013	0,715	305,968	155,528
189,027	0,764	305,737	155,448
190,042	0,664	305,584	155,253
191,056	0,889	305,352	155,353
192,071	1,052	305,051	155,355
193,086	1,028	305,033	155,306
194,100	0,980	304,734	155,091
195,115	0,767	304,581	154,780
196,129	0,680	304,186	154,476
197,144	0,862	304,012	154,560
198,159	0,943	303,865	154,556
199,173	0,884	303,553	154,322
200,188	1,052	303,465	154,436
201,202	0,749	303,225	153,990
202,217	0,176	302,717	153,132
203,232	0,175	302,421	152,968
204,246	0,444	302,476	153,257
205,261	0,810	302,456	153,608
206,275	0,871	302,141	153,496
207,290	0,800	302,048	153,363
208,304	0,818	301,734	153,207
209,319	0,992	301,508	153,256
210,334	1,036	301,292	153,177
211,348	0,805	301,251	152,908
212,363	0,928	300,919	152,851
213,377	0,926	300,727	152,737
214,392	1,026	300,599	152,760
215,407	0,758	300,256	152,301
216,421	0,436	300,042	151,853
217,436	0,502	299,774	151,771
218,450	0,597	299,698	151,814
219,465	0,718	299,613	151,880
220,480	0,807	299,561	151,930
221,494	0,966	299,053	151,819
222,509	0,730	298,995	151,539
223,523	0,856	298,865	151,586
224,538	1,028	298,566	151,593
225,553	0,969	298,359	151,416
226,567	0,986	298,275	151,378
227,582	1,087	298,151	151,402
228,596	1,046	297,976	151,259
229,611	1,127	297,735	151,204
230,626	0,975	297,534	150,936
231,640	0,742	297,108	150,473
232,655	0,033	296,926	149,658
233,669	0,066	296,628	149,528
234,684	0,163	296,515	149,554
235,699	0,287	296,379	149,596
236,713	0,333	296,142	149,509
237,728	0,515	295,945	149,577
238,742	0,550	296,008	149,631
239,757	0,835	295,776	149,784
240,772	0,874	295,569	149,705
241,786	0,741	295,418	149,483
242,801	0,572	295,096	149,139
243,815	0,601	294,967	149,089
244,830	0,812	294,752	149,176
245,844	0,485	294,526	148,725
246,859	0,499	294,499	148,711
247,874	0,575	294,178	148,611
248,888	0,562	293,931	148,461
249,903	0,782	293,777	148,586
250,917	0,862	293,850	148,690
251,932	1,192	293,598	148,875
252,947	1,990	293,643	149,672
253,961	1,997	293,663	149,676
254,976	2,314	293,633	149,960
255,990	3,603	293,893	151,351
257,005	4,074	293,864	151,787
258,020	4,495	294,005	152,262
259,034	4,273	293,932	151,992
260,049	4,269	293,477	151,739
261,063	4,159	293,219	151,484
262,078	4,509	293,081	151,742
263,093	5,007	293,110	152,233
264,107	5,028	293,029	152,199
265,122	5,044	292,918	152,143
266,136	5,190	292,789	152,205
267,151	5,068	292,526	151,936
268,166	4,979	292,249	151,691
269,180	4,738	291,962	151,292
270,195	4,796	291,791	151,248
271,209	4,873	291,692	151,258
272,224	4,840	291,341	151,031
273,239	4,662	291,140	150,740
274,253	4,681	291,075	150,710
275,268	5,288	291,156	151,331
276,282	5,040	290,819	150,900
277,297	4,986	290,589	150,715
278,312	5,457	290,513	151,120
279,326	4,990	290,150	150,465
280,341	4,924	289,965	150,291
281,355	4,661	289,753	149,913
282,370	4,781	289,466	149,867
283,384	4,618	289,295	149,607
284,399	4,896	289,263	149,847
285,414	4,737	289,130	149,611
286,428	4,556	288,794	149,248
287,443	4,478	288,494	149,006
288,457	4,538	288,147	148,870
289,472	4,470	288,099	148,767
290,487	4,396	288,038	148,651
291,501	4,508	287,777	148,610
292,516	4,075	287,568	148,073
293,530	4,211	287,301	148,053
294,545	4,502	287,245	148,290
295,560	4,643	287,108	148,342
296,574	4,442	286,875	148,016
297,589	4,478	286,669	147,931
298,603	4,880	286,613	148,273
299,618	4,716	286,556	148,074
300,633	4,746	286,278	147,946
301,647	4,561	286,168	147,699
302,662	4,678	285,784	147,599
303,676	4,577	285,605	147,397
304,691	4,105	285,246	146,749
305,706	4,265	284,975	146,749
306,720	4,188	284,929	146,639
307,735	4,194	284,832	146,581
308,749	4,366	284,759	146,694
309,764	4,376	284,493	146,554
310,779	4,497	284,153	146,480
311,793	4,241	283,965	146,128
312,808	4,103	283,914	145,957
313,822	4,523	283,500	146,129
314,837	4,224	283,400	145,782
315,852	4,061	283,315	145,570
316,866	4,262	283,077	145,625
317,881	4,354	282,873	145,594
318,895	4,170	282,730	145,334
319,910	4,101	282,608	145,193
320,925	3,935	282,275	144,853
321,939	4,208	282,169	145,042
322,954	4,274	282,077	145,045
323,968	4,311	282,057	145,057
324,983	4,334	281,793	144,929
325,997	4,739	281,533	145,163
327,012	4,598	281,392	144,945
328,027	4,488	281,255	144,758
329,041	4,111	281,096	144,310
330,056	4,500	280,953	144,588
331,070	4,594	280,590	144,476
332,085	4,375	280,472	144,198
333,100	4,479	280,235	144,160
334,114	4,459	280,021	144,018
335,129	4,344	279,844	143,807
336,143	4,491	279,815	143,917
337,158	4,679	279,755	144,048
338,173	4,611	279,455	143,818
339,187	4,520	279,240	143,609
340,202	4,303	279,095	143,320
341,216	4,422	279,033	143,387
342,231	4,508	278,691	143,278
343,246	4,476	278,499	143,136
344,260	4,442	278,438	143,061
345,275	4,680	278,332	143,214
346,289	4,869	278,246	143,332
347,304	4,764	278,048	143,120
348,319	4,582	277,707	142,764
349,333	4,471	277,544	142,565
350,348	4,752	277,479	142,778
351,362	4,775	277,334	142,712
352,377	4,744	277,102	142,551
353,392	4,630	277,095	142,430
354,406	4,813	276,866	142,468
355,421	190,889	1337,481	1413,997
356,435	154,285	1466,848	1414,161
