DTS Sentinel unit serial number:	SN410029Multiplexer serial number:	ORYXHardware model number:	OX2-SRSoftware version number:	ORYX F/W v4,00 Oryx Data Collector v3.7.2.0data status	okinstallation	B4 Nyhavnadifferential loss correction	single-endedforward channel	channel 2reverse channel	N/Adate	2023/12/19time	01:25:13forward acquisition time	300,00reverse acquisition time	0,00gamma	499,1914k internal	0,3123k external	0,3123temperature offset calibration	1,0000default loss term (dB/km)	0,3820temperature slope calibration	1,0000multiplexer offset coefficient	1,0000multiplexer slope coefficient	1,0000fibre end	0,00T internal ref (°C)	21,67T ext. ref 1 (°C)	5,88T ext. ref 2 (°C)	5,88length (m)	temperature (°C)	Stokes	anti-Stokes-744,400	-4,025	-0,144	0,074
-743,385	-34,247	-0,097	-0,040
-742,371	-126,816	-0,102	0,011
-741,356	-190,013	-0,225	0,002
-740,342	44,031	-0,040	0,027
-739,327	-91,795	-0,121	0,025
-738,312	330,475	0,016	-0,024
-737,298	-69,241	-0,240	-0,068
-736,283	-200,000	0,034	-0,132
-735,269	-13,514	-0,259	0,125
-734,254	204,660	0,041	-0,048
-733,239	-122,537	-0,441	-0,053
-732,225	-190,282	0,071	0,001
-731,210	-29,322	0,070	0,030
-730,196	164,215	-0,066	0,069
-729,181	-34,475	-0,144	-0,059
-728,167	-115,067	-0,107	-0,015
-727,152	-143,131	0,066	0,005
-726,137	236,469	-0,051	-0,063
-725,123	-100,302	-0,029	0,005
-724,108	41,583	-0,216	-0,146
-723,094	-200,000	0,004	-0,068
-722,079	-178,450	-0,107	-0,002
-721,064	-76,663	0,207	0,054
-720,050	238,012	-0,093	-0,115
-719,035	-200,000	-0,001	0,050
-718,021	-200,000	-0,047	-0,195
-717,006	800,000	0,034	-0,089
-715,991	-80,250	-0,221	-0,055
-714,977	-47,504	-0,215	-0,077
-713,962	-88,018	-0,086	-0,019
-712,948	-124,838	0,046	-0,005
-711,933	334,986	-0,048	0,069
-710,918	332,019	-0,014	0,020
-709,904	64,481	-0,070	-0,052
-708,889	800,000	0,032	-0,081
-707,875	2,224	-0,079	-0,042
-706,860	800,000	-0,017	-0,050
-705,845	-64,605	0,040	0,012
-704,831	238,500	0,082	0,102
-703,816	-61,358	0,173	-0,054
-702,802	-2,638	-0,074	-0,039
-701,787	-200,000	-0,021	-0,186
-700,772	171,090	-0,153	-0,163
-699,758	456,216	-0,057	-0,095
-698,743	-200,000	-0,016	-0,101
-697,729	800,000	-0,026	0,059
-696,714	-102,234	-0,037	-0,007
-695,699	99,853	-0,041	0,035
-694,685	25,168	0,088	-0,054
-693,670	-200,000	0,005	-0,122
-692,656	-200,000	-0,016	-0,116
-691,641	-22,747	0,078	-0,035
-690,627	-49,384	0,169	0,060
-689,612	169,587	0,047	0,050
-688,597	-65,226	-0,106	0,032
-687,583	63,262	-0,100	-0,074
-686,568	-121,425	-0,042	-0,005
-685,554	-19,004	0,102	0,047
-684,539	-11,096	-0,014	0,007
-683,524	-200,000	0,006	0,058
-682,510	800,000	0,033	-0,080
-681,495	800,000	-0,044	-0,129
-680,481	279,418	-0,105	-0,140
-679,466	-200,000	0,010	-0,186
-678,451	603,204	-0,059	-0,110
-677,437	576,127	-0,030	0,054
-676,422	-154,338	-0,088	-0,004
-675,408	-13,309	-0,039	0,019
-674,393	153,341	-0,072	0,073
-673,378	-43,160	-0,096	0,036
-672,364	-200,000	-0,004	-0,067
-671,349	278,413	-0,024	-0,032
-670,335	-52,647	-0,016	-0,005
-669,320	368,165	-0,021	0,031
-668,305	-88,230	0,098	0,022
-667,291	358,015	-0,046	-0,068
-666,276	-27,784	-0,137	-0,059
-665,262	150,539	-0,134	-0,136
-664,247	202,406	0,037	-0,042
-663,232	-133,913	-0,039	-0,004
-662,218	-200,000	-0,005	0,034
-661,203	125,280	-0,060	0,056
-660,189	201,422	0,039	-0,045
-659,174	-200,000	0,001	-0,166
-658,159	-46,944	-0,088	-0,032
-657,145	-200,000	-0,005	-0,174
-656,130	443,273	0,053	-0,086
-655,116	-200,000	-0,011	-0,065
-654,101	26,417	0,140	-0,087
-653,086	670,534	0,050	-0,098
-652,072	-99,741	-0,148	-0,027
-651,057	-89,171	-0,151	0,033
-650,043	-200,000	-0,002	-0,008
-649,028	223,367	-0,094	-0,112
-648,014	37,813	-0,043	0,028
-646,999	-53,141	0,081	0,027
-645,984	-115,955	0,087	0,012
-644,970	800,000	0,016	-0,049
-643,955	601,482	0,040	-0,074
-642,941	65,234	-0,118	-0,088
-641,926	138,785	0,019	0,019
-640,911	457,249	-0,079	0,131
-639,897	498,263	0,055	-0,094
-638,882	-92,990	0,203	-0,042
-637,868	710,948	0,027	0,052
-636,853	-103,948	0,093	-0,016
-635,838	86,008	-0,079	-0,065
-634,824	-140,614	-0,114	-0,009
-633,809	349,755	0,041	-0,061
-632,795	252,974	-0,077	-0,098
-631,780	-15,180	-0,046	0,022
-630,765	800,000	-0,035	-0,090
-629,751	142,126	-0,034	-0,033
-628,736	800,000	0,057	-0,121
-627,722	397,441	-0,042	-0,065
-626,707	-55,293	0,037	0,012
-625,692	652,106	0,028	0,054
-624,678	180,292	0,125	0,136
-623,663	41,530	0,108	0,073
-622,649	800,000	-0,068	-0,155
-621,634	201,616	-0,100	-0,115
-620,619	51,975	0,089	-0,063
-619,605	-200,000	-0,024	-0,124
-618,590	565,695	-0,094	-0,170
-617,576	800,000	0,017	0,034
-616,561	-135,305	0,160	-0,014
-615,546	-59,424	-0,106	-0,034
-614,532	493,784	-0,088	-0,150
-613,517	234,517	-0,103	-0,126
-612,503	-126,321	-0,061	0,007
-611,488	-74,704	-0,102	0,027
-610,474	41,372	-0,034	-0,023
-609,459	349,613	-0,046	0,067
-608,444	-154,485	-0,087	0,004
-607,430	-39,478	-0,083	-0,032
-606,415	-25,679	0,032	-0,014
-605,401	-200,000	0,021	0,070
-604,386	104,827	0,043	-0,037
-603,371	800,000	-0,035	0,081
-602,357	175,410	0,105	0,113
-601,342	800,000	-0,010	0,023
-600,328	-200,000	-0,015	-0,060
-599,313	-65,181	0,115	-0,034
-598,298	-99,145	0,065	0,012
-597,284	800,000	0,018	-0,040
-596,269	-200,000	0,015	0,077
-595,255	139,413	-0,083	-0,081
-594,240	126,053	-0,093	-0,088
-593,225	589,618	0,104	-0,191
-592,211	-53,659	-0,049	0,016
-591,196	-106,868	-0,076	-0,012
-590,182	234,078	-0,090	0,110
-589,167	174,635	0,091	0,098
-588,152	-88,093	-0,043	0,010
-587,138	-151,754	0,030	0,002
-586,123	-62,720	0,076	-0,023
-585,109	178,528	0,019	-0,021
-584,094	209,460	0,003	0,003
-583,079	163,596	0,067	0,070
-582,065	-64,907	0,124	-0,037
-581,050	-200,000	0,010	0,048
-580,036	451,073	0,013	0,021
-579,021	-109,204	-0,078	-0,012
-578,006	-162,761	-0,115	-0,004
-576,992	426,169	0,051	-0,081
-575,977	-93,157	0,074	0,015
-574,963	716,415	0,040	0,079
-573,948	-200,000	-0,007	-0,082
-572,934	-200,000	-0,006	0,141
-571,919	-17,323	-0,051	-0,024
-570,904	402,975	-0,063	-0,098
-569,890	-66,531	0,187	0,054
-568,875	124,732	-0,047	0,044
-567,861	800,000	0,023	0,072
-566,846	4,673	0,051	0,028
-565,831	-8,328	-0,055	0,027
-564,817	-46,976	-0,117	-0,042
-563,802	165,229	-0,124	-0,130
-562,788	-39,831	-0,096	-0,037
-561,773	475,316	-0,047	-0,079
-560,758	360,083	0,059	0,087
-559,744	800,000	0,040	-0,100
-558,729	88,343	0,049	-0,040
-557,715	800,000	-0,032	-0,086
-556,700	-80,034	-0,081	0,020
-555,685	-200,000	0,007	0,108
-554,671	-13,988	0,064	0,030
-553,656	339,694	-0,087	0,127
-552,642	229,118	0,131	0,158
-551,627	-200,000	0,006	0,112
-550,612	106,593	0,087	0,076
-549,598	-200,000	-0,003	-0,164
-548,583	-17,579	-0,064	0,030
-547,569	267,257	0,028	-0,036
-546,554	-200,000	0,011	0,043
-545,539	238,554	-0,114	0,140
-544,525	-200,000	0,003	-0,034
-543,510	267,737	0,016	-0,020
-542,496	800,000	-0,027	-0,065
-541,481	649,768	-0,013	-0,024
-540,466	86,066	-0,047	0,039
-539,452	-200,000	-0,001	-0,007
-538,437	-200,000	-0,019	0,122
-537,423	-200,000	-0,003	-0,192
-536,408	-106,107	0,060	0,010
-535,393	-41,410	-0,091	0,034
-534,379	-90,235	-0,135	0,029
-533,364	-89,213	-0,060	-0,013
-532,350	800,000	-0,019	-0,042
-531,335	-113,717	0,111	-0,016
-530,321	396,327	-0,076	0,118
-529,306	800,000	0,024	0,076
-528,291	91,784	0,070	-0,058
-527,277	179,694	0,065	-0,070
-526,262	800,000	-0,047	-0,115
-525,248	-65,304	0,121	-0,036
-524,233	198,075	0,018	-0,020
-523,218	201,189	-0,020	-0,023
-522,204	530,648	-0,067	0,118
-521,189	-173,175	-0,064	0,001
-520,175	253,102	-0,062	-0,079
-519,160	-200,000	-0,018	0,132
-518,145	534,131	-0,039	0,069
-517,131	45,391	-0,100	-0,068
-516,116	-42,324	-0,022	0,008
-515,102	388,275	0,009	-0,013
-514,087	-139,907	0,052	-0,004
-513,072	80,280	-0,069	0,055
-512,058	-71,899	-0,076	0,021
-511,043	65,265	-0,068	0,051
-510,029	23,698	-0,104	-0,063
-509,014	-200,000	-0,019	-0,065
-507,999	350,272	0,025	0,037
-506,985	800,000	0,056	0,116
-505,970	318,066	-0,107	-0,149
-504,956	800,000	0,021	-0,046
-503,941	-200,000	-0,004	-0,168
-502,926	800,000	-0,016	-0,049
-501,912	37,916	0,073	0,048
-500,897	-22,971	0,039	-0,017
-499,883	-97,564	0,009	-0,002
-498,868	-73,893	-0,071	0,019
-497,853	64,831	-0,040	0,030
-496,839	105,104	-0,028	0,024
-495,824	-146,982	-0,092	-0,006
-494,810	274,042	0,050	0,066
-493,795	-200,000	0,008	0,034
-492,781	110,786	0,093	0,083
-491,766	20,792	0,041	0,025
-490,751	227,927	0,044	0,053
-489,737	-45,243	-0,088	0,032
-488,722	-200,000	-0,015	-0,079
-487,708	-142,406	-0,127	0,009
-486,693	252,675	-0,054	-0,068
-485,678	0,335	0,081	0,043
-484,664	800,000	-0,035	0,095
-483,649	630,858	-0,074	-0,139
-482,635	-57,706	-0,020	-0,007
-481,620	97,041	-0,072	0,061
-480,605	39,122	0,062	0,041
-479,591	-11,166	-0,044	-0,021
-478,576	-77,557	-0,112	0,028
-477,562	94,447	0,061	0,051
-476,547	800,000	-0,017	0,043
-475,532	-200,000	0,003	-0,077
-474,518	800,000	0,045	-0,103
-473,503	-115,054	0,115	0,016
-472,489	-135,243	0,008	-0,001
-471,474	800,000	0,040	0,091
-470,459	-110,471	-0,176	-0,027
-469,445	-200,000	0,048	-0,159
-468,430	68,820	0,054	0,041
-467,416	795,389	0,049	-0,101
-466,401	171,733	0,040	0,043
-465,386	-200,000	-0,001	0,105
-464,372	155,100	0,084	0,085
-463,357	-200,000	0,015	0,053
-462,343	-179,027	0,132	-0,002
-461,328	279,274	0,088	0,116
-460,313	-200,000	-0,013	0,048
-459,299	5,646	0,059	-0,032
-458,284	800,000	0,034	0,075
-457,270	-33,322	0,140	-0,057
-456,255	284,118	-0,098	0,130
-455,241	-118,228	0,126	-0,016
-454,226	800,000	-0,014	-0,041
-453,211	272,435	-0,070	-0,091
-452,197	-100,161	0,091	-0,017
-451,182	105,439	0,045	-0,039
-450,168	75,531	0,080	-0,062
-449,153	-150,137	-0,102	0,006
-448,138	800,000	0,018	-0,045
-447,124	800,000	0,005	-0,016
-446,109	-173,053	-0,028	-0,001
-445,095	96,979	0,090	-0,076
-444,080	198,687	0,061	0,069
-443,065	800,000	-0,011	-0,022
-442,051	38,076	0,094	0,061
-441,036	-57,323	0,092	-0,029
-440,022	270,507	-0,024	0,031
-439,007	-69,643	0,065	0,018
-437,992	800,000	-0,038	0,078
-436,978	-27,202	0,081	0,035
-435,963	477,330	-0,035	0,059
-434,949	190,222	-0,075	0,083
-433,934	-200,000	0,009	-0,093
-432,919	-200,000	0,006	-0,092
-431,905	-143,301	-0,122	-0,009
-430,890	-200,000	-0,005	0,051
-429,876	-10,415	0,139	0,067
-428,861	-83,284	-0,031	0,007
-427,846	800,000	-0,038	-0,103
-426,832	622,283	-0,031	0,057
-425,817	226,423	-0,076	0,091
-424,803	33,456	0,064	0,041
-423,788	-4,545	0,103	-0,052
-422,773	-161,278	0,135	0,005
-421,759	-200,000	-0,002	0,060
-420,744	127,273	0,058	0,054
-419,730	-200,000	0,017	0,069
-418,715	-17,672	-0,162	-0,075
-417,701	476,671	0,020	-0,033
-416,686	-200,000	-0,002	0,040
-415,671	-21,122	0,041	-0,018
-414,657	-200,000	0,024	0,105
-413,642	-200,000	-0,005	0,057
-412,628	705,730	0,016	-0,032
-411,613	-200,000	-0,004	-0,073
-410,598	765,612	0,042	0,084
-409,584	413,035	0,025	0,039
-408,569	-200,000	-0,007	0,113
-407,555	-109,514	0,096	-0,015
-406,540	29,431	-0,116	0,072
-405,525	557,522	-0,010	0,017
-404,511	-200,000	0,010	-0,152
-403,496	299,994	0,116	-0,157
-402,482	800,000	0,019	0,056
-401,467	800,000	0,036	0,094
-400,452	42,980	-0,030	0,020
-399,438	141,676	0,017	-0,016
-398,423	-200,000	0,038	0,165
-397,409	-177,814	0,080	-0,001
-396,394	-15,702	0,033	0,016
-395,379	765,478	-0,073	-0,146
-394,365	-98,777	-0,071	0,013
-393,350	-61,646	0,142	0,044
-392,336	-36,554	0,055	-0,022
-391,321	-89,288	-0,063	-0,014
-390,306	-25,117	-0,113	0,049
-389,292	-16,328	0,023	-0,011
-388,277	-200,000	0,018	-0,133
-387,263	263,014	0,109	0,140
-386,248	97,725	0,066	0,055
-385,233	-200,000	0,030	0,160
-384,219	286,231	0,084	0,112
-383,204	634,004	0,072	-0,135
-382,190	78,703	-0,043	0,034
-381,175	-50,366	0,075	-0,026
-380,160	-168,473	-0,106	-0,003
-379,146	-11,296	-0,051	0,025
-378,131	-200,000	0,005	-0,080
-377,117	-200,000	-0,009	-0,093
-376,102	259,544	0,059	0,075
-375,088	-41,563	-0,099	0,037
-374,073	-200,000	-0,001	-0,087
-373,058	-2,703	0,114	-0,059
-372,044	101,906	-0,047	-0,041
-371,029	196,089	-0,012	0,013
-370,015	93,860	-0,056	0,047
-369,000	202,516	0,055	0,063
-367,985	79,597	-0,119	-0,094
-366,971	-148,198	-0,069	0,004
-365,956	242,577	0,037	-0,046
-364,942	-200,000	0,049	-0,177
-363,927	-128,145	-0,116	-0,012
-362,912	-36,236	0,093	-0,036
-361,898	-108,343	-0,103	-0,016
-360,883	-200,000	0,018	-0,141
-359,869	-92,419	-0,160	-0,033
-358,854	-94,228	0,115	0,023
-357,839	515,227	-0,015	0,025
-356,825	474,873	0,031	0,051
-355,810	467,592	-0,025	0,041
-354,796	-38,012	-0,230	-0,089
-353,781	151,660	-0,153	-0,153
-352,766	647,293	-0,067	0,126
-351,752	95,772	0,036	0,030
-350,737	526,561	-0,082	0,142
-349,723	-143,436	0,042	0,003
-348,708	450,244	0,094	0,153
-347,693	800,000	0,028	0,090
-346,679	15,642	-0,053	0,031
-345,664	-200,000	0,002	-0,023
-344,650	195,725	0,042	0,047
-343,635	473,732	0,110	0,183
-342,620	-161,533	0,075	-0,003
-341,606	147,505	-0,065	-0,065
-340,591	-200,000	0,013	-0,043
-339,577	-3,719	-0,109	0,055
-338,562	-106,140	-0,105	0,017
-337,548	-111,835	-0,130	-0,019
-336,533	-39,812	0,047	-0,018
-335,518	-200,000	-0,009	0,046
-334,504	-62,160	-0,122	0,037
-333,489	466,823	-0,095	0,157
-332,475	46,579	-0,058	0,040
-331,460	-200,000	0,022	-0,101
-330,445	672,487	-0,106	-0,202
-329,431	543,995	0,038	0,067
-328,416	-121,499	0,105	-0,013
-327,402	-76,632	0,089	0,023
-326,387	351,621	-0,087	0,127
-325,372	-91,112	0,136	-0,028
-324,358	112,369	-0,068	-0,061
-323,343	-200,000	0,023	0,217
-322,329	800,000	-0,041	-0,089
-321,314	32,647	0,030	-0,019
-320,299	800,000	-0,035	-0,072
-319,285	800,000	0,048	0,138
-318,270	-16,307	0,049	0,023
-317,256	-200,000	-0,003	-0,086
-316,241	-35,271	-0,047	-0,019
-315,226	19,453	0,047	0,028
-314,212	2,259	-0,107	0,057
-313,197	-200,000	0,011	-0,041
-312,183	-54,455	-0,056	-0,018
-311,168	-200,000	-0,003	-0,217
-310,153	-200,000	0,028	0,000
-309,139	21,576	0,139	-0,083
-308,124	-21,019	0,032	-0,014
-307,110	-200,000	-0,022	0,078
-306,095	287,522	0,036	0,048
-305,080	520,790	-0,043	0,074
-304,066	800,000	0,077	-0,162
-303,051	-157,814	-0,180	-0,008
-302,037	800,000	0,006	-0,014
-301,022	-200,000	0,018	0,068
-300,008	476,737	0,049	0,081
-298,993	-200,000	0,173	0,000
-297,978	-16,306	-0,060	-0,028
-296,964	-70,967	0,105	0,029
-295,949	-135,766	-0,048	0,004
-294,935	-200,000	0,009	0,058
-293,920	-1,370	-0,078	0,040
-292,905	155,279	0,111	0,112
-291,891	-200,000	0,015	-0,055
-290,876	21,243	0,019	0,011
-289,862	-5,834	0,038	0,019
-288,847	371,209	0,094	-0,141
-287,832	-138,897	0,119	-0,009
-286,818	-33,116	-0,066	0,027
-285,803	175,301	0,067	0,071
-284,789	272,434	-0,042	0,055
-283,774	-200,000	0,002	-0,105
-282,759	60,016	0,102	-0,074
-281,745	121,814	-0,079	-0,072
-280,730	800,000	-0,028	0,063
-279,716	556,321	-0,094	-0,166
-278,701	326,656	-0,024	-0,034
-277,686	-200,000	0,147	-0,000
-276,672	457,989	-0,012	0,019
-275,657	800,000	-0,016	-0,033
-274,643	-200,000	-0,016	-0,212
-273,628	-200,000	-0,001	-0,093
-272,613	290,523	-0,055	-0,073
-271,599	322,396	0,024	0,033
-270,584	-200,000	-0,018	0,073
-269,570	-200,000	0,010	0,037
-268,555	196,047	0,094	0,105
-267,540	-200,000	0,002	0,041
-266,526	800,000	0,013	-0,029
-265,511	604,478	-0,020	0,036
-264,497	-63,623	0,062	-0,018
-263,482	12,834	-0,114	0,064
-262,467	800,000	0,043	0,119
-261,453	428,604	-0,041	-0,066
-260,438	48,318	0,123	-0,084
-259,424	-115,845	-0,150	0,020
-258,409	800,000	0,018	-0,043
-257,395	-200,000	0,022	0,078
-256,380	78,529	0,045	-0,035
-255,365	-200,000	0,027	-0,093
-254,351	235,254	0,047	-0,057
-253,336	800,000	-0,018	0,058
-252,322	-149,337	-0,136	-0,008
-251,307	-123,481	0,042	0,005
-250,292	-200,000	-0,002	-0,024
-249,278	-200,000	0,011	0,099
-248,263	189,787	0,072	0,079
-247,249	742,069	-0,028	-0,056
-246,234	-99,930	-0,113	0,020
-245,219	-200,000	0,012	0,134
-244,205	-51,634	-0,026	0,009
-243,190	800,000	0,064	-0,149
-242,176	198,698	0,064	-0,071
-241,161	-200,000	0,010	0,095
-240,146	16,345	0,045	-0,026
-239,132	705,338	0,037	0,071
-238,117	-200,000	-0,024	-0,171
-237,103	-130,173	-0,128	-0,013
-236,088	-200,000	0,002	-0,027
-235,073	573,476	-0,088	0,158
-234,059	246,239	0,081	0,100
-233,044	219,397	0,071	-0,083
-232,030	-31,096	-0,035	-0,014
-231,015	43,321	0,007	-0,005
-230,000	-200,000	0,020	-0,103
-228,986	118,687	0,074	-0,067
-227,971	-34,310	0,054	0,021
-226,957	-200,000	-0,018	0,133
-225,942	-200,000	0,002	0,047
-224,927	-161,603	-0,093	-0,003
-223,913	57,782	0,050	0,036
-222,898	-69,555	-0,130	0,036
-221,884	188,267	0,045	0,049
-220,869	105,487	-0,013	-0,011
-219,855	-134,124	0,004	0,000
-218,840	-200,000	-0,016	0,065
-217,825	440,227	-0,075	-0,120
-216,811	-76,155	0,035	-0,009
-215,796	-200,000	-0,004	-0,135
-214,782	201,462	0,034	-0,039
-213,767	-200,000	-0,002	-0,183
-212,752	149,038	0,050	0,049
-211,738	187,327	0,058	0,064
-210,723	800,000	-0,058	0,134
-209,709	18,084	-0,101	-0,059
-208,694	-200,000	-0,032	0,132
-207,679	331,264	0,064	-0,090
-206,665	-138,118	-0,066	-0,005
-205,650	-37,827	0,041	0,016
-204,636	324,587	-0,052	0,073
-203,621	-43,993	0,102	-0,037
-202,606	118,984	0,046	-0,042
-201,592	-1,035	0,074	-0,038
-200,577	-129,884	-0,143	-0,014
-199,563	297,360	0,107	0,144
-198,548	290,976	0,073	0,097
-197,533	72,716	-0,024	0,018
-196,519	-24,041	0,150	0,065
-195,504	257,888	-0,107	0,135
-194,490	102,306	-0,100	-0,085
-193,475	-79,929	-0,030	-0,007
-192,460	-200,000	0,008	0,058
-191,446	64,321	0,065	0,047
-190,431	800,000	0,029	0,071
-189,417	199,168	-0,020	-0,023
-188,402	-150,485	-0,070	-0,004
-187,387	-200,000	-0,028	0,209
-186,373	1,711	-0,055	0,029
-185,358	-125,476	-0,027	-0,003
-184,344	3,681	0,076	0,040
-183,329	33,936	0,102	-0,064
-182,315	247,566	0,069	0,085
-181,300	82,990	-0,083	0,066
-180,285	361,508	0,035	0,051
-179,271	9,071	-0,096	-0,053
-178,256	-140,114	-0,116	0,009
-177,242	-200,000	-0,009	-0,132
-176,227	204,132	0,096	-0,108
-175,212	-81,076	0,105	0,025
-174,198	-76,931	0,165	0,042
-173,183	-7,068	-0,091	-0,045
-172,169	800,000	-0,055	-0,167
-171,154	-200,000	-0,016	-0,088
-170,139	274,548	0,085	0,110
-169,125	800,000	0,011	-0,025
-168,110	511,956	0,030	-0,051
-167,096	-200,000	0,005	0,060
-166,081	185,467	-0,058	0,063
-165,066	-85,861	-0,102	-0,023
-164,052	-80,394	-0,130	-0,031
-163,037	26,406	0,164	0,099
-162,023	341,913	-0,037	0,052
-161,008	430,306	-0,017	-0,027
-159,993	-101,229	0,085	0,015
-158,979	158,279	-0,098	-0,099
-157,964	-200,000	0,008	-0,098
-156,950	-87,124	-0,221	-0,049
-155,935	-200,000	-0,012	-0,140
-154,920	-112,339	0,131	-0,019
-153,906	800,000	0,011	-0,031
-152,891	-200,000	0,018	0,066
-151,877	-37,087	0,022	0,009
-150,862	17,411	-0,059	-0,034
-149,847	176,579	-0,035	-0,037
-148,833	-200,000	0,026	-0,119
-147,818	-200,000	-0,002	-0,089
-146,804	-200,000	-0,009	-0,092
-145,789	-97,951	0,158	-0,029
-144,775	-200,000	0,017	-0,086
-143,760	-96,270	-0,087	-0,017
-142,745	-12,907	-0,120	-0,056
-141,731	-200,000	-0,014	0,091
-140,716	283,676	0,094	-0,123
-139,702	-86,392	0,104	-0,023
-138,687	-200,000	-0,038	-0,145
-137,672	-200,000	0,015	-0,091
-136,658	-200,000	-0,003	-0,096
-135,643	-18,380	0,031	-0,014
-134,629	-44,950	0,024	-0,009
-133,614	-48,582	0,135	0,047
-132,599	800,000	-0,064	0,187
-131,585	-200,000	0,004	0,043
-130,570	-200,000	-0,024	-0,124
-129,556	164,396	0,069	-0,071
-128,541	-200,000	0,047	0,154
-127,526	117,921	0,029	-0,026
-126,512	148,407	-0,037	0,036
-125,497	163,059	0,038	-0,039
-124,483	-200,000	0,015	-0,100
-123,468	38,329	-0,080	-0,052
-122,453	-200,000	0,013	0,182
-121,439	354,511	-0,031	0,045
-120,424	-180,117	0,144	0,002
-119,410	-200,000	0,036	-0,131
-118,395	800,000	0,028	0,086
-117,380	-200,000	0,023	0,223
-116,366	54,301	0,057	0,040
-115,351	626,713	-0,048	-0,089
-114,337	105,824	-0,089	-0,077
-113,322	-200,000	-0,021	-0,080
-112,307	-11,527	-0,031	-0,015
-111,293	54,866	0,032	-0,023
-110,278	273,379	0,072	0,093
-109,264	-200,000	0,004	-0,028
-108,249	-200,000	-0,015	-0,054
-107,234	-88,640	0,054	0,012
-106,220	14,159	-0,041	0,023
-105,205	256,534	0,041	0,051
-104,191	143,140	0,041	-0,039
-103,176	-200,000	-0,000	0,003
-102,162	-200,000	0,038	0,185
-101,147	-90,688	0,035	-0,007
-100,132	129,512	-0,118	0,110
-99,118	141,981	-0,077	-0,074
-98,103	-174,456	0,021	-0,000
-97,089	800,000	-0,049	0,138
-96,074	-16,299	0,028	0,013
-95,059	800,000	-0,016	-0,042
-94,045	35,910	0,017	0,011
-93,030	42,984	-0,097	0,064
-92,016	57,406	0,032	-0,023
-91,001	-76,990	-0,102	-0,026
-89,986	193,230	0,116	0,128
-88,972	489,979	0,057	-0,096
-87,957	800,000	0,044	-0,136
-86,943	-16,872	-0,031	0,014
-85,928	-63,137	-0,149	0,044
-84,913	-84,906	-0,025	0,006
-83,899	-59,277	-0,097	0,030
-82,884	-174,955	-0,039	0,001
-81,870	-200,000	0,008	0,041
-80,855	800,000	0,030	-0,073
-79,840	-200,000	-0,016	-0,123
-78,826	-143,086	0,087	-0,006
-77,811	-200,000	0,010	-0,141
-76,797	-123,643	-0,085	-0,010
-75,782	-88,071	-0,111	0,024
-74,767	-190,345	0,123	-0,001
-73,753	-200,000	-0,004	-0,048
-72,738	574,011	0,011	-0,019
-71,724	-200,000	-0,001	-0,046
-70,709	-200,000	0,049	-0,193
-69,694	201,619	0,027	-0,030
-68,680	-200,000	0,019	0,116
-67,665	800,000	0,024	-0,049
-66,651	637,906	-0,016	0,029
-65,636	-200,000	-0,045	0,155
-64,622	-97,898	-0,012	0,002
-63,607	-68,422	-0,140	0,039
-62,592	-0,560	0,152	-0,078
-61,578	5,777	0,112	-0,060
-60,563	-104,317	0,095	0,016
-59,549	-200,000	0,007	0,110
-58,534	-113,979	-1,421	-0,198
-57,519	707,652	-0,765	-1,473
-56,505	-200,000	-0,839	-4,297
-55,490	-50,632	0,612	-0,208
-54,476	800,000	4,884	11,685
-53,461	-200,000	14,341	256,437
-52,446	-200,000	695,881	2268,323
-51,432	598,676	1625,117	2936,320
-50,417	117,222	1632,851	1455,992
-49,403	74,098	1286,907	978,982
-48,388	37,257	1023,913	656,710
-47,373	23,765	982,381	585,648
-46,359	22,993	972,005	576,906
-45,344	21,925	967,497	570,713
-44,330	21,964	966,007	569,939
-43,315	21,743	964,526	568,324
-42,300	21,754	963,418	567,684
-41,286	21,724	962,461	566,998
-40,271	21,682	961,597	566,329
-39,257	21,699	960,662	565,814
-38,242	21,660	959,530	564,998
-37,227	21,651	958,886	564,567
-36,213	21,711	957,841	564,124
-35,198	21,615	957,042	563,321
-34,184	21,760	956,281	563,317
-33,169	21,648	955,479	562,462
-32,154	21,692	954,647	562,093
-31,140	21,762	953,624	561,692
-30,125	21,735	952,862	561,135
-29,111	21,735	951,963	560,582
-28,096	21,711	951,482	560,199
-27,082	21,690	950,675	559,634
-26,067	21,696	950,011	559,240
-25,052	21,670	949,270	558,698
-24,038	21,757	948,502	558,504
-23,023	21,720	947,895	558,005
-22,009	21,719	947,289	557,623
-20,994	21,734	946,523	557,198
-19,979	21,714	946,035	556,825
-18,965	21,763	945,339	556,551
-17,950	21,759	944,511	556,028
-16,936	21,678	944,166	555,544
-15,921	21,649	943,494	555,034
-14,906	21,623	942,609	554,409
-13,892	21,625	941,992	554,032
-12,877	21,611	941,353	553,589
-11,863	21,544	940,791	553,023
-10,848	21,577	940,338	552,840
-9,833	21,670	939,779	552,783
-8,819	21,630	939,321	552,365
-7,804	21,619	938,531	551,845
-6,790	21,665	937,928	551,615
-5,775	21,615	937,265	551,042
-4,760	21,564	936,710	550,533
-3,746	21,619	936,106	550,331
-2,731	21,444	935,370	549,324
-1,717	21,426	934,683	548,842
-0,702	21,432	933,928	548,394
0,313	21,205	933,424	548,212
1,327	23,601	930,759	554,134
2,342	30,882	808,810	501,281
3,356	25,360	509,518	306,312
4,371	0,740	374,946	193,932
5,386	-2,151	357,912	181,541
6,400	-3,273	351,799	177,063
7,415	-3,524	349,466	175,571
8,429	-3,305	348,077	175,120
9,444	-3,408	347,252	174,567
10,459	-3,383	346,468	174,187
11,473	-3,369	345,886	173,896
12,488	-3,294	345,285	173,667
13,502	-3,349	344,578	173,231
14,517	-3,291	344,216	173,102
15,531	-3,150	343,823	173,056
16,546	-3,098	343,402	172,891
17,561	-3,264	343,087	172,520
18,575	-3,095	342,657	172,488
19,590	-3,205	342,182	172,104
20,604	-3,089	341,778	172,022
21,619	-3,174	341,487	171,760
22,634	-3,140	341,138	171,609
23,648	-3,183	340,635	171,291
24,663	-3,250	340,356	171,056
25,677	-3,185	340,161	171,019
26,692	-3,212	340,059	170,921
27,707	-3,210	339,778	170,767
28,721	-3,073	339,282	170,663
29,736	-3,146	338,885	170,362
30,750	-3,217	338,554	170,098
31,765	-3,164	338,262	169,997
32,780	-3,176	338,146	169,911
33,794	-3,193	337,702	169,652
34,809	-3,117	337,582	169,665
35,823	-3,199	337,279	169,402
36,838	-3,127	336,878	169,270
37,853	-3,040	336,556	169,193
38,867	-3,093	336,331	169,003
39,882	-3,111	336,012	168,808
40,896	-3,024	335,791	168,782
41,911	-3,072	335,590	168,610
42,926	-3,110	335,350	168,431
43,940	-3,166	334,909	168,131
44,955	-3,176	334,787	168,042
45,969	-3,095	334,518	167,985
46,984	-3,006	334,225	167,926
47,999	-3,159	334,078	167,662
49,013	-3,216	333,828	167,456
50,028	-3,090	333,479	167,409
51,042	-3,175	333,258	167,187
52,057	-3,014	332,843	167,148
53,071	-3,177	332,700	166,875
54,086	-3,113	332,467	166,816
55,101	-3,033	332,267	166,793
56,115	-3,137	331,901	166,475
57,130	-3,120	331,659	166,358
58,144	-3,099	331,220	166,147
59,159	-3,078	331,058	166,075
60,174	-3,225	330,649	165,687
61,188	-3,217	330,423	165,569
62,203	-3,133	330,254	165,564
63,217	-3,211	330,169	165,418
64,232	-3,172	329,739	165,232
65,247	-3,177	329,659	165,172
66,261	-3,040	329,026	164,995
67,276	-3,118	328,899	164,828
68,290	-3,233	328,816	164,643
69,305	-3,156	328,529	164,571
70,320	-3,113	328,348	164,514
71,334	-3,186	328,064	164,275
72,349	-3,230	327,752	164,054
73,363	-3,273	327,437	163,834
74,378	-3,125	327,084	163,809
75,393	-3,083	326,843	163,721
76,407	-3,127	326,704	163,587
77,422	-3,140	326,496	163,454
78,436	-3,235	326,296	163,233
79,451	-3,147	325,931	163,134
80,466	-3,186	325,650	162,935
81,480	-3,037	325,412	162,968
82,495	-3,231	325,310	162,685
83,509	-2,994	324,953	162,756
84,524	-3,025	324,833	162,647
85,539	-3,074	324,478	162,401
86,553	-2,984	324,194	162,344
87,568	-3,138	324,087	162,106
88,582	-3,130	323,664	161,888
89,597	-3,134	323,516	161,796
90,611	-3,161	323,427	161,707
91,626	-3,131	323,043	161,533
92,641	-3,129	322,858	161,429
93,655	-3,230	322,527	161,137
94,670	-3,202	322,275	161,027
95,684	-3,160	322,033	160,938
96,699	-3,158	321,855	160,838
97,714	-3,098	321,662	160,793
98,728	-3,228	321,491	160,550
99,743	-3,026	321,038	160,531
100,757	-3,167	320,812	160,249
101,772	-2,981	320,651	160,358
102,787	-3,073	320,304	160,070
103,801	-3,217	320,275	159,884
104,816	-3,162	320,125	159,855
105,830	-3,169	319,739	159,639
106,845	-3,158	319,548	159,543
107,860	-3,176	319,242	159,355
108,874	-3,221	319,052	159,197
109,889	-3,253	318,728	158,987
110,903	-3,091	318,450	159,010
111,918	-3,149	318,294	158,855
112,933	-3,316	318,196	158,610
113,947	-3,079	317,826	158,668
114,962	-3,041	317,595	158,581
115,976	-3,277	317,416	158,221
116,991	-3,064	317,150	158,306
118,006	-3,235	316,918	157,991
119,020	-3,266	316,866	157,917
120,035	-3,227	316,625	157,825
121,049	-3,158	316,402	157,774
122,064	-3,218	316,160	157,575
123,079	-3,255	316,039	157,461
124,093	-3,220	315,641	157,286
125,108	-3,179	315,408	157,200
126,122	-3,079	315,323	157,251
127,137	-3,014	315,055	157,173
128,151	-3,013	314,876	157,071
129,166	-3,243	314,660	156,703
130,181	-3,099	314,401	156,714
131,195	-3,087	314,122	156,574
132,210	-3,108	313,738	156,347
133,224	-3,152	313,596	156,214
134,239	-3,135	313,284	156,063
135,254	-3,209	313,110	155,883
136,268	-3,210	312,959	155,793
137,283	-3,065	312,752	155,832
138,297	-2,964	312,491	155,794
139,312	-3,071	312,272	155,558
140,327	-3,003	311,865	155,413
141,341	-3,146	311,791	155,211
142,356	-3,114	311,673	155,172
143,370	-3,100	311,321	154,998
144,385	-3,031	311,079	154,937
145,400	-3,017	310,897	154,847
146,414	-2,896	310,538	154,782
147,429	-3,163	310,444	154,439
148,443	-3,099	310,291	154,417
149,458	-3,164	309,993	154,186
150,473	-3,140	309,688	154,046
151,487	-3,075	309,583	154,048
152,502	-3,030	309,340	153,961
153,516	-3,121	309,233	153,799
154,531	-3,095	308,928	153,661
155,546	-3,240	308,606	153,335
156,560	-3,337	308,521	153,176
157,575	-3,160	308,336	153,256
158,589	-3,255	308,084	153,018
159,604	-3,018	307,809	153,117
160,619	-2,958	307,635	153,079
161,633	-3,045	307,602	152,957
162,648	-2,816	307,262	153,015
163,662	-3,008	307,183	152,761
164,677	-3,213	306,853	152,370
165,692	-3,159	306,726	152,348
166,706	-3,059	306,535	152,344
167,721	-2,924	306,320	152,365
168,735	-2,833	306,111	152,342
169,750	-2,947	305,781	152,046
170,764	-3,077	305,772	151,893
171,779	-3,246	305,603	151,619
172,794	-3,123	305,369	151,618
173,808	-3,085	305,157	151,538
174,823	-3,042	304,810	151,397
175,837	-2,987	304,523	151,297
176,852	-3,063	304,376	151,133
177,867	-3,020	304,247	151,100
178,881	-3,063	304,012	150,925
179,896	-3,008	303,735	150,830
180,910	-3,012	303,435	150,664
181,925	-3,238	303,383	150,392
182,940	-3,288	303,172	150,222
183,954	-3,130	302,913	150,243
184,969	-3,024	302,752	150,259
185,983	-3,059	302,747	150,207
186,998	-2,897	302,515	150,245
188,013	-3,016	302,114	149,910
189,027	-2,977	301,931	149,846
190,042	-3,030	301,711	149,669
191,056	-2,995	301,592	149,633
192,071	-3,222	301,331	149,258
193,086	-3,286	301,133	149,081
194,100	-3,054	300,908	149,193
195,115	-2,999	300,668	149,117
196,129	-3,043	300,479	148,965
197,144	-3,133	300,237	148,741
198,159	-3,248	300,039	148,512
199,173	-3,158	299,760	148,452
200,188	-3,246	299,618	148,279
201,202	-3,315	299,402	148,089
202,217	-3,087	299,184	148,199
203,232	-2,904	298,827	148,195
204,246	-3,145	298,777	147,912
205,261	-3,146	298,547	147,785
206,275	-2,985	298,241	147,782
207,290	-2,946	298,234	147,806
208,304	-2,961	297,932	147,628
209,319	-3,007	297,807	147,506
210,334	-2,964	297,599	147,432
211,348	-3,082	297,356	147,181
212,363	-2,954	297,156	147,197
213,377	-2,974	296,934	147,054
214,392	-3,152	296,767	146,779
215,407	-3,169	296,697	146,714
216,421	-2,972	296,385	146,744
217,436	-3,211	296,260	146,430
218,450	-3,147	295,980	146,342
219,465	-3,120	295,843	146,289
220,480	-2,979	295,591	146,292
221,494	-3,053	295,405	146,114
222,509	-3,102	295,120	145,910
223,523	-3,058	295,077	145,920
224,538	-2,956	294,879	145,911
225,553	-3,129	294,762	145,667
226,567	-2,968	294,475	145,674
227,582	-2,955	294,252	145,563
228,596	-3,023	294,249	145,481
229,611	-3,264	293,921	145,066
230,626	-3,174	293,734	145,050
231,640	-2,951	293,538	145,161
232,655	-3,036	293,460	145,026
233,669	-2,987	293,195	144,931
234,684	-3,101	292,925	144,671
235,699	-3,058	292,740	144,609
236,713	-2,900	292,392	144,580
237,728	-2,997	292,284	144,419
238,742	-2,953	292,223	144,419
239,757	-3,362	291,911	143,849
240,772	-3,213	291,741	143,899
241,786	-3,229	291,658	143,830
242,801	-3,071	291,420	143,855
243,815	-3,122	291,186	143,676
244,830	-2,925	290,998	143,765
245,844	-3,034	290,679	143,487
246,859	-3,061	290,620	143,418
247,874	-3,164	290,349	143,171
248,888	-3,185	290,287	143,107
249,903	-3,056	290,079	143,118
250,917	-3,123	289,823	142,913
251,932	-3,408	289,441	142,434
252,947	-3,548	289,225	142,178
253,961	-3,919	288,791	141,590
254,976	-4,171	288,685	141,281
255,990	-3,924	288,499	141,417
257,005	-3,102	288,805	142,356
258,020	-0,995	289,546	144,765
259,034	0,624	289,825	146,472
260,049	1,208	289,965	147,100
261,063	1,593	289,953	147,456
262,078	1,960	289,785	147,715
263,093	2,238	289,698	147,928
264,107	2,406	289,652	148,055
265,122	2,387	289,646	148,020
266,136	2,658	289,440	148,164
267,151	2,446	289,263	147,855
268,166	2,760	288,947	147,986
269,180	2,565	288,902	147,760
270,195	2,652	288,664	147,709
271,209	2,591	288,346	147,475
272,224	2,655	288,243	147,470
273,239	2,459	288,075	147,181
274,253	2,450	287,835	147,037
275,268	2,376	287,679	146,872
276,282	2,471	287,484	146,852
277,297	2,432	287,199	146,655
278,312	2,271	287,085	146,429
279,326	2,371	287,051	146,495
280,341	2,400	286,707	146,334
281,355	2,445	286,504	146,261
282,370	2,202	286,356	145,939
283,384	2,236	286,213	145,886
284,399	2,217	285,934	145,712
285,414	2,416	285,728	145,785
286,428	2,468	285,476	145,693
287,443	2,281	285,306	145,414
288,457	2,247	285,149	145,289
289,472	2,247	284,983	145,192
290,487	2,266	284,810	145,108
291,501	2,132	284,631	144,877
292,516	2,199	284,287	144,752
293,530	2,230	284,266	144,758
294,545	2,288	283,987	144,659
295,560	2,286	283,770	144,533
296,574	2,192	283,577	144,333
297,589	2,170	283,512	144,266
298,603	2,167	283,344	144,165
299,618	2,219	282,998	144,025
300,633	2,097	282,966	143,880
301,647	2,345	282,821	144,028
302,662	2,404	282,723	144,022
303,676	2,397	282,596	143,937
304,691	2,540	282,226	143,871
305,706	2,354	282,160	143,649
306,720	2,473	281,946	143,640
307,735	2,465	281,784	143,537
308,749	2,482	281,667	143,480
309,764	2,309	281,410	143,174
310,779	2,447	281,190	143,179
311,793	2,495	280,909	143,068
312,808	2,401	280,717	142,870
313,822	2,276	280,667	142,714
314,837	2,427	280,441	142,728
315,852	2,592	280,105	142,699
316,866	2,502	280,054	142,576
317,881	2,383	279,881	142,364
318,895	2,385	279,648	142,234
319,910	2,371	279,523	142,145
320,925	2,385	279,388	142,077
321,939	2,440	279,145	141,992
322,954	2,452	278,918	141,875
323,968	2,604	278,813	141,950
324,983	2,506	278,773	141,826
325,997	2,501	278,455	141,647
327,012	2,299	278,293	141,364
328,027	2,534	278,153	141,499
329,041	2,465	278,014	141,351
330,056	2,453	277,831	141,235
331,070	2,531	277,543	141,148
332,085	2,548	277,433	141,095
333,100	2,609	277,173	141,007
334,114	2,557	277,079	140,899
335,129	2,560	276,769	140,731
336,143	2,450	276,704	140,584
337,158	2,517	276,560	140,560
338,173	2,565	276,303	140,461
339,187	2,470	276,203	140,310
340,202	2,519	276,042	140,261
341,216	2,531	275,722	140,097
342,231	2,528	275,578	140,009
343,246	2,454	275,343	139,808
344,260	2,554	275,291	139,862
345,275	2,458	275,270	139,750
346,289	2,467	275,158	139,689
347,304	2,582	274,806	139,603
348,319	2,466	274,473	139,316
349,333	2,557	274,375	139,337
350,348	2,542	274,127	139,185
351,362	2,733	273,988	139,276
352,377	2,452	273,932	138,978
353,392	2,533	273,694	138,920
354,406	2,569	273,548	138,866
355,421	190,451	1349,418	1426,684
356,435	153,743	1480,600	1426,817
