DTS Sentinel unit serial number:	SN410029Multiplexer serial number:	ORYXHardware model number:	OX2-SRSoftware version number:	ORYX F/W v4,00 Oryx Data Collector v3.7.2.0data status	okinstallation	B4 Nyhavnadifferential loss correction	single-endedforward channel	channel 2reverse channel	N/Adate	2023/12/16time	04:30:13forward acquisition time	300,00reverse acquisition time	0,00gamma	499,1914k internal	0,3128k external	0,3128temperature offset calibration	1,0000default loss term (dB/km)	0,3820temperature slope calibration	1,0000multiplexer offset coefficient	1,0000multiplexer slope coefficient	1,0000fibre end	0,00T internal ref (°C)	22,00T ext. ref 1 (°C)	7,21T ext. ref 2 (°C)	7,39length (m)	temperature (°C)	Stokes	anti-Stokes-744,400	-75,801	0,094	-0,025
-743,385	-130,466	-0,059	-0,006
-742,371	185,990	-0,032	-0,035
-741,356	-15,370	-0,247	0,117
-740,342	94,857	0,079	-0,067
-739,327	-141,673	-0,251	0,019
-738,312	-11,954	0,064	-0,031
-737,298	45,853	-0,269	0,185
-736,283	163,719	-0,048	-0,051
-735,269	118,360	-0,100	0,092
-734,254	0,825	-0,023	-0,012
-733,239	-121,998	-0,322	-0,039
-732,225	-34,653	0,095	-0,038
-731,210	247,514	-0,053	0,067
-730,196	800,000	-0,083	-0,173
-729,181	800,000	-0,017	0,048
-728,167	-200,000	0,006	0,050
-727,152	-52,457	-0,096	-0,033
-726,137	-96,149	-0,086	-0,017
-725,123	92,722	-0,070	-0,059
-724,108	70,961	-0,160	-0,123
-723,094	147,909	-0,047	-0,047
-722,079	-200,000	-0,030	-0,160
-721,064	800,000	0,016	0,050
-720,050	800,000	-0,029	0,063
-719,035	234,767	0,029	0,036
-718,021	-200,000	-0,006	-0,169
-717,006	-200,000	0,001	-0,015
-715,991	-200,000	-0,027	-0,188
-714,977	375,210	-0,048	0,073
-713,962	-200,000	0,003	-0,120
-712,948	-200,000	0,002	0,130
-711,933	149,440	0,082	0,082
-710,918	-200,000	0,025	-0,100
-709,904	-26,665	-0,092	-0,040
-708,889	74,118	-0,081	0,063
-707,875	48,103	-0,015	0,010
-706,860	119,063	0,069	-0,063
-705,845	-200,000	-0,003	0,036
-704,831	-47,876	0,075	0,027
-703,816	230,029	0,103	-0,125
-702,802	-52,382	0,099	0,034
-701,787	-28,165	-0,070	0,030
-700,772	-200,000	0,026	-0,111
-699,758	671,812	0,040	0,078
-698,743	551,114	0,041	0,074
-697,729	26,918	-0,050	0,031
-696,714	77,655	-0,029	-0,023
-695,699	-200,000	0,009	0,046
-694,685	-200,000	-0,003	-0,105
-693,670	621,966	0,031	0,059
-692,656	-1,284	0,119	-0,062
-691,641	-96,602	0,180	0,035
-690,627	-126,751	0,040	0,004
-689,612	800,000	-0,020	-0,052
-688,597	40,632	0,068	0,046
-687,583	-200,000	-0,082	0,000
-686,568	-80,520	-0,125	0,031
-685,554	570,005	-0,038	-0,069
-684,539	-200,000	-0,010	-0,052
-683,524	-200,000	-0,011	0,058
-682,510	-200,000	-0,047	0,165
-681,495	-48,979	-0,080	0,028
-680,481	341,369	-0,027	0,039
-679,466	-200,000	-0,007	0,148
-678,451	-127,980	-0,098	0,010
-677,437	800,000	0,082	-0,176
-676,422	185,267	0,077	-0,085
-675,408	-200,000	-0,024	-0,088
-674,393	73,979	0,019	-0,015
-673,378	273,057	0,069	-0,090
-672,364	244,250	-0,087	-0,109
-671,349	485,765	0,071	-0,121
-670,335	-122,096	0,060	0,007
-669,320	40,046	-0,116	-0,077
-668,305	68,967	0,124	-0,094
-667,291	371,931	-0,033	-0,051
-666,276	-78,617	0,098	-0,025
-665,262	415,369	-0,098	-0,156
-664,247	-200,000	-0,005	-0,182
-663,232	85,644	0,101	-0,082
-662,218	-18,509	0,118	-0,054
-661,203	160,564	0,115	0,119
-660,189	97,313	-0,092	-0,078
-659,174	188,600	-0,037	0,041
-658,159	-200,000	-0,017	-0,064
-657,145	-200,000	-0,006	-0,070
-656,130	-61,150	-0,029	-0,009
-655,116	298,261	-0,070	-0,095
-654,101	-93,846	-0,124	0,025
-653,086	-99,909	0,146	-0,027
-652,072	-200,000	0,011	-0,038
-651,057	-74,191	-0,097	0,026
-650,043	-56,930	-0,036	0,012
-649,028	240,864	0,056	-0,069
-648,014	-200,000	0,013	0,058
-646,999	141,957	-0,076	0,075
-645,984	14,777	-0,087	0,050
-644,970	53,215	-0,070	-0,050
-643,955	-137,143	-0,073	-0,006
-642,941	-9,453	-0,161	-0,079
-641,926	320,686	0,019	-0,027
-640,911	-106,847	0,106	0,017
-639,897	146,951	0,102	0,102
-638,882	-200,000	-0,003	0,050
-637,868	-200,000	-0,002	-0,027
-636,853	-200,000	-0,008	-0,105
-635,838	254,995	0,053	-0,068
-634,824	-49,792	-0,030	0,011
-633,809	-200,000	0,008	0,087
-632,795	-200,000	0,002	-0,009
-631,780	-92,579	-0,072	0,015
-630,765	-200,000	-0,032	-0,109
-629,751	44,756	0,007	-0,005
-628,736	-200,000	0,020	-0,075
-627,722	-78,647	-0,080	0,020
-626,707	-66,735	-0,038	0,011
-625,692	-6,336	0,082	-0,041
-624,678	-200,000	0,008	0,134
-623,663	601,980	-0,015	-0,028
-622,649	-47,885	-0,087	0,031
-621,634	-152,595	0,045	0,002
-620,619	414,585	-0,054	-0,086
-619,605	-85,094	0,075	-0,017
-618,590	251,860	0,042	0,053
-617,576	-153,389	-0,193	0,010
-616,561	294,127	0,078	-0,106
-615,546	-200,000	-0,020	0,133
-614,532	50,983	0,029	-0,021
-613,517	-53,778	0,068	0,023
-612,503	126,555	0,047	-0,044
-611,488	269,234	-0,049	-0,064
-610,474	-200,000	-0,047	0,171
-609,459	-163,673	0,055	-0,002
-608,444	-200,000	-0,016	0,078
-607,430	140,037	0,068	-0,066
-606,415	800,000	0,060	-0,183
-605,401	800,000	0,058	-0,129
-604,386	-71,618	0,135	0,037
-603,371	341,987	0,057	0,083
-602,357	369,256	-0,034	0,051
-601,342	46,305	-0,196	-0,134
-600,328	-19,694	-0,122	0,055
-599,313	-149,864	-0,111	-0,006
-598,298	-200,000	0,003	-0,015
-597,284	36,553	0,067	0,043
-596,269	-53,484	0,121	0,041
-595,255	-85,936	0,119	-0,027
-594,240	599,075	-0,068	-0,125
-593,225	-101,125	-0,119	-0,021
-592,211	800,000	0,026	-0,068
-591,196	-200,000	0,030	0,121
-590,182	77,849	0,037	-0,029
-589,167	-200,000	0,002	-0,119
-588,152	37,056	0,018	0,012
-587,138	28,196	0,072	-0,045
-586,123	800,000	-0,025	-0,054
-585,109	67,251	-0,075	0,057
-584,094	327,765	0,047	-0,067
-583,079	-200,000	-0,021	0,132
-582,065	214,862	-0,060	0,071
-581,050	-200,000	0,034	0,114
-580,036	-49,027	0,118	0,042
-579,021	800,000	0,033	-0,086
-578,006	-101,339	-0,046	0,008
-576,992	-24,102	-0,118	0,052
-575,977	100,232	0,113	0,097
-574,963	100,324	0,025	0,021
-573,948	554,205	-0,036	-0,063
-572,934	-200,000	-0,005	-0,066
-571,919	-22,570	0,120	0,054
-570,904	-178,900	-0,044	0,001
-569,890	-186,011	0,118	-0,001
-568,875	800,000	-0,023	0,048
-567,861	19,546	0,171	0,101
-566,846	450,038	0,101	0,165
-565,831	-80,829	-0,092	0,022
-564,817	-35,401	0,041	-0,016
-563,802	-200,000	0,011	-0,060
-562,788	-170,689	0,053	-0,001
-561,773	70,894	0,112	0,086
-560,758	465,138	-0,022	-0,036
-559,744	-200,000	-0,019	0,099
-558,729	-200,000	0,014	0,047
-557,715	-102,425	0,209	-0,037
-556,700	-200,000	0,005	-0,055
-555,685	-200,000	-0,018	-0,073
-554,671	80,277	0,040	0,031
-553,656	-200,000	-0,034	-0,126
-552,642	110,390	0,054	0,048
-551,627	-88,083	-0,073	-0,016
-550,612	-200,000	0,001	0,050
-549,598	-136,463	0,050	0,004
-548,583	-4,692	-0,060	-0,030
-547,569	293,491	0,064	-0,087
-546,554	-3,436	-0,002	0,001
-545,539	88,058	-0,071	0,058
-544,525	90,375	-0,054	-0,045
-543,510	383,384	0,011	0,017
-542,496	-200,000	-0,001	-0,011
-541,481	800,000	0,045	-0,112
-540,466	-149,274	-0,079	0,005
-539,452	210,244	-0,070	0,081
-538,437	430,533	-0,051	-0,081
-537,423	75,705	0,029	-0,023
-536,408	29,726	-0,111	0,070
-535,393	-200,000	0,002	0,019
-534,379	-72,589	-0,119	-0,032
-533,364	108,723	-0,119	0,105
-532,350	-94,046	-0,040	0,008
-531,335	-58,861	0,097	-0,031
-530,321	22,965	0,151	0,091
-529,306	-200,000	0,013	-0,042
-528,291	-146,684	-0,092	-0,006
-527,277	111,195	-0,062	0,055
-526,262	643,985	-0,046	0,086
-525,248	-200,000	-0,031	0,130
-524,233	-173,018	0,108	-0,002
-523,218	-105,292	0,042	-0,007
-522,204	176,407	-0,067	-0,072
-521,189	-71,423	-0,058	0,016
-520,175	158,150	-0,074	-0,076
-519,160	800,000	-0,008	-0,018
-518,145	354,296	-0,041	-0,061
-517,131	240,910	0,062	-0,077
-516,116	-64,314	-0,073	-0,022
-515,102	800,000	-0,040	-0,095
-514,087	-200,000	-0,004	-0,042
-513,072	-48,914	-0,047	-0,016
-512,058	800,000	-0,044	-0,129
-511,043	800,000	-0,014	-0,044
-510,029	118,612	0,063	-0,057
-509,014	700,760	0,023	0,044
-507,999	-200,000	-0,016	0,072
-506,985	-137,928	-0,096	0,008
-505,970	29,619	-0,081	-0,051
-504,956	38,271	-0,011	-0,007
-503,941	800,000	0,067	0,161
-502,926	-200,000	0,004	-0,041
-501,912	99,173	0,041	-0,035
-500,897	107,316	-0,061	0,053
-499,883	234,161	-0,112	0,136
-498,868	-200,000	0,002	-0,060
-497,853	160,755	-0,106	-0,109
-496,839	800,000	-0,036	-0,104
-495,824	354,830	0,045	0,066
-494,810	36,346	-0,046	0,030
-493,795	-93,809	-0,043	0,009
-492,781	-105,513	-0,063	0,011
-491,766	192,519	0,046	0,051
-490,751	-140,685	-0,072	0,005
-489,737	-95,879	-0,166	0,032
-488,722	-91,672	0,061	-0,013
-487,708	800,000	-0,032	-0,080
-486,693	800,000	0,013	-0,030
-485,678	-200,000	-0,014	-0,128
-484,664	-52,091	-0,089	-0,030
-483,649	406,990	-0,074	0,116
-482,635	-200,000	0,005	-0,037
-481,620	14,309	-0,085	0,049
-480,605	-21,446	-0,057	-0,025
-479,591	800,000	0,025	-0,062
-478,576	-16,317	-0,063	-0,029
-477,562	800,000	-0,033	-0,083
-476,547	-82,199	0,007	0,002
-475,532	424,127	0,051	-0,081
-474,518	74,676	-0,064	-0,049
-473,503	-28,261	-0,109	0,046
-472,489	273,224	0,003	0,004
-471,474	43,871	0,064	0,043
-470,459	-75,777	-0,104	0,027
-469,445	259,175	-0,034	-0,044
-468,430	56,571	-0,022	0,016
-467,416	160,891	0,038	-0,039
-466,401	70,978	0,120	0,092
-465,386	-55,727	0,089	0,029
-464,372	-200,000	-0,018	0,188
-463,357	-106,284	-0,098	0,016
-462,343	242,769	-0,019	0,024
-461,328	800,000	-0,037	-0,106
-460,313	331,111	0,053	0,075
-459,299	-34,442	0,037	-0,015
-458,284	-105,389	-0,073	-0,012
-457,270	113,079	-0,041	0,037
-456,255	46,251	-0,097	0,066
-455,241	43,300	-0,052	-0,035
-454,226	97,721	-0,058	-0,049
-453,211	-104,325	-0,026	-0,004
-452,197	-148,544	0,081	-0,005
-451,182	595,980	0,064	0,116
-450,168	340,691	-0,084	0,121
-449,153	-112,897	0,098	-0,014
-448,138	-115,550	-0,204	0,028
-447,124	275,788	-0,057	0,075
-446,109	-15,818	0,104	-0,048
-445,095	-200,000	0,001	0,036
-444,080	246,808	-0,033	-0,042
-443,065	95,295	-0,053	0,045
-442,051	482,902	-0,034	0,057
-441,036	-82,412	-0,097	0,023
-440,022	-9,200	0,090	-0,044
-439,007	-200,000	0,002	0,068
-437,992	-200,000	0,013	0,046
-436,978	38,126	0,152	0,099
-435,963	-200,000	0,016	0,101
-434,949	800,000	0,038	0,111
-433,934	-200,000	-0,024	-0,079
-432,919	-200,000	-0,019	-0,065
-431,905	537,063	-0,016	-0,027
-430,890	71,653	-0,065	-0,050
-429,876	-200,000	-0,007	-0,083
-428,861	-4,246	-0,059	-0,030
-427,846	-30,178	0,060	0,025
-426,832	-66,658	-0,084	0,024
-425,817	126,868	-0,009	0,008
-424,803	314,701	-0,035	0,049
-423,788	-200,000	0,012	0,098
-422,773	800,000	0,024	-0,076
-421,759	121,074	0,014	-0,013
-420,744	-200,000	-0,011	0,063
-419,730	-94,620	-0,080	-0,016
-418,715	319,005	-0,128	-0,179
-417,701	666,568	0,017	0,032
-416,686	-133,486	-0,164	-0,015
-415,671	-200,000	0,004	0,089
-414,657	692,552	-0,043	0,084
-413,642	133,356	-0,043	0,040
-412,628	-200,000	0,003	-0,043
-411,613	682,184	-0,057	-0,110
-410,598	-200,000	-0,044	-0,162
-409,584	155,988	0,100	0,101
-408,569	-200,000	0,020	0,242
-407,555	94,756	-0,064	0,053
-406,540	125,287	-0,017	0,015
-405,525	282,408	-0,048	0,063
-404,511	512,369	-0,040	-0,069
-403,496	-36,995	0,030	0,012
-402,482	-200,000	0,001	-0,039
-401,467	75,515	0,128	0,099
-400,452	-200,000	-0,017	0,060
-399,438	-77,507	0,131	-0,033
-398,423	-200,000	0,012	-0,115
-397,409	43,594	-0,120	-0,081
-396,394	149,804	-0,067	-0,067
-395,379	-8,344	-0,070	0,035
-394,365	203,646	-0,038	0,043
-393,350	-200,000	0,004	0,052
-392,336	-148,257	0,070	0,004
-391,321	94,757	-0,017	-0,014
-390,306	661,301	-0,051	-0,097
-389,292	-200,000	0,015	-0,150
-388,277	800,000	-0,042	-0,133
-387,263	56,624	-0,062	-0,044
-386,248	199,452	0,118	-0,133
-385,233	-200,000	0,034	-0,112
-384,219	-43,316	-0,015	0,006
-383,204	212,682	0,044	0,051
-382,190	800,000	0,057	-0,150
-381,175	-200,000	-0,032	0,113
-380,160	287,720	0,066	-0,088
-379,146	-131,912	0,138	0,013
-378,131	-47,608	0,041	-0,015
-377,117	343,600	-0,013	-0,019
-376,102	-103,285	0,049	-0,008
-375,088	746,686	-0,049	-0,096
-374,073	119,601	0,056	-0,051
-373,058	29,019	0,070	-0,043
-372,044	-41,836	0,107	0,040
-371,029	661,338	-0,010	-0,019
-370,015	136,551	-0,141	0,135
-369,000	-101,751	0,036	0,006
-367,985	46,907	-0,042	-0,028
-366,971	800,000	0,019	-0,061
-365,956	4,587	0,130	0,070
-364,942	656,800	0,048	0,091
-363,927	60,457	0,066	0,048
-362,912	-73,356	0,076	0,020
-361,898	-48,931	0,078	-0,027
-360,883	53,145	0,027	0,019
-359,869	-84,523	-0,035	0,008
-358,854	19,630	-0,192	0,113
-357,839	143,783	0,123	0,120
-356,825	549,867	0,070	0,123
-355,810	-200,000	0,002	0,113
-354,796	-173,554	-0,133	-0,003
-353,781	-200,000	-0,011	-0,098
-352,766	7,975	-0,066	-0,036
-351,752	171,780	0,087	-0,091
-350,737	-200,000	-0,027	-0,128
-349,723	450,721	-0,014	0,022
-348,708	-200,000	-0,004	0,154
-347,693	-4,589	0,120	-0,060
-346,679	800,000	0,020	-0,054
-345,664	9,526	-0,115	-0,064
-344,650	-20,667	0,087	-0,039
-343,635	16,248	0,086	-0,049
-342,620	280,820	-0,089	0,116
-341,606	-200,000	0,006	0,057
-340,591	-200,000	-0,009	-0,050
-339,577	-200,000	0,018	-0,120
-338,562	-200,000	0,007	-0,154
-337,548	-200,000	0,014	-0,119
-336,533	224,868	-0,054	0,064
-335,518	281,016	0,051	0,067
-334,504	107,056	-0,060	0,053
-333,489	270,600	-0,059	-0,077
-332,475	-200,000	0,025	-0,111
-331,460	-2,147	0,145	-0,074
-330,445	-200,000	0,019	0,075
-329,431	-87,815	0,096	-0,021
-328,416	-200,000	0,022	-0,093
-327,402	800,000	-0,008	0,020
-326,387	-74,651	0,062	-0,016
-325,372	-200,000	-0,021	0,079
-324,358	-200,000	-0,020	-0,139
-323,343	-135,629	-0,071	0,006
-322,329	72,196	0,046	0,035
-321,314	154,107	-0,062	0,062
-320,299	135,183	-0,050	-0,048
-319,285	-50,663	-0,061	0,021
-318,270	-40,718	-0,202	0,076
-317,256	800,000	0,048	0,112
-316,241	-184,259	-0,031	0,000
-315,226	800,000	-0,036	-0,079
-314,212	179,432	0,060	0,065
-313,197	-88,651	0,063	-0,014
-312,183	-13,880	-0,059	0,028
-311,168	-168,481	0,148	0,004
-310,153	-65,299	0,142	-0,041
-309,139	-200,000	0,010	-0,185
-308,124	334,720	-0,114	-0,162
-307,110	-80,149	0,106	-0,026
-306,095	-34,274	0,050	0,020
-305,080	450,194	0,024	-0,038
-304,066	-122,315	0,038	0,004
-303,051	37,737	-0,070	-0,046
-302,037	-41,317	-0,060	0,022
-301,022	329,003	-0,054	-0,077
-300,008	-200,000	-0,040	-0,187
-298,993	1,377	0,025	0,013
-297,978	800,000	-0,036	0,104
-296,964	-74,872	-0,102	-0,027
-295,949	61,802	0,045	-0,033
-294,935	128,788	-0,012	-0,011
-293,920	-62,871	0,068	-0,021
-292,905	-200,000	0,002	0,138
-291,891	17,173	0,058	-0,034
-290,876	-18,297	0,196	0,089
-289,862	-200,000	0,021	-0,183
-288,847	349,228	-0,092	-0,133
-287,832	508,206	0,030	0,052
-286,818	13,609	-0,049	0,028
-285,803	-109,704	0,150	-0,023
-284,789	101,758	0,052	-0,045
-283,774	800,000	-0,034	0,082
-282,759	-200,000	0,001	0,103
-281,745	291,756	-0,041	-0,055
-280,730	416,884	0,038	-0,060
-279,716	381,223	0,049	-0,073
-278,701	-98,863	0,025	-0,005
-277,686	185,777	0,074	0,080
-276,672	-6,450	-0,100	0,050
-275,657	392,689	-0,055	-0,084
-274,643	800,000	0,014	-0,040
-273,628	20,550	-0,067	0,039
-272,613	-200,000	0,000	-0,006
-271,599	-200,000	-0,009	0,057
-270,584	-75,502	0,118	-0,030
-269,570	800,000	-0,021	-0,044
-268,555	-200,000	0,027	0,107
-267,540	590,219	0,067	-0,121
-266,526	-126,342	-0,075	-0,008
-265,511	121,033	0,112	0,102
-264,497	-31,653	0,156	0,064
-263,482	-142,997	0,123	-0,009
-262,467	7,088	0,078	0,042
-261,453	800,000	0,029	0,089
-260,438	24,738	-0,147	-0,089
-259,424	69,687	-0,017	-0,013
-258,409	-200,000	-0,028	-0,093
-257,395	-83,713	0,105	0,024
-256,380	800,000	0,027	0,057
-255,365	-200,000	0,022	0,132
-254,351	19,715	-0,075	0,044
-253,336	-13,209	0,150	-0,071
-252,322	-73,594	-0,075	0,020
-251,307	365,690	-0,041	0,060
-250,292	18,208	0,095	0,055
-249,278	-200,000	0,000	0,056
-248,263	-80,237	0,076	0,018
-247,249	-200,000	0,007	0,067
-246,234	462,576	0,085	-0,139
-245,219	-200,000	-0,003	0,010
-244,205	-18,800	0,116	0,053
-243,190	-200,000	0,021	-0,120
-242,176	-8,634	-0,071	0,035
-241,161	-131,150	0,085	-0,008
-240,146	86,666	0,080	-0,064
-239,132	44,769	-0,068	-0,045
-238,117	351,121	-0,050	-0,072
-237,103	-16,988	0,096	-0,044
-236,088	-144,124	-0,111	-0,007
-235,073	-200,000	0,004	0,058
-234,059	-58,967	0,161	0,050
-233,044	-97,770	0,071	0,013
-232,030	-200,000	0,014	-0,055
-231,015	-200,000	-0,010	-0,100
-230,000	340,756	-0,027	-0,039
-228,986	-88,546	0,018	0,004
-227,971	448,421	0,016	0,026
-226,957	-93,492	0,005	-0,001
-225,942	-200,000	0,018	0,066
-224,927	14,166	0,129	0,073
-223,913	59,038	-0,111	0,080
-222,898	-32,616	-0,041	0,017
-221,884	543,462	-0,044	0,078
-220,869	0,012	0,048	0,025
-219,855	-200,000	0,008	0,180
-218,840	-200,000	0,028	0,108
-217,825	89,844	0,137	-0,111
-216,811	103,745	-0,020	-0,017
-215,796	-8,750	-0,052	-0,025
-214,782	800,000	0,053	-0,127
-213,767	800,000	0,051	-0,107
-212,752	352,802	-0,054	-0,078
-211,738	-200,000	0,001	0,074
-210,723	-200,000	-0,005	0,098
-209,709	554,745	0,068	0,121
-208,694	800,000	-0,065	-0,147
-207,679	-200,000	-0,004	-0,100
-206,665	14,478	0,037	0,021
-205,650	4,866	-0,078	-0,042
-204,636	-151,054	0,079	-0,004
-203,621	-92,210	-0,030	0,006
-202,606	-113,735	-0,051	-0,007
-201,592	166,292	-0,060	-0,062
-200,577	-96,873	-0,082	0,016
-199,563	187,271	-0,060	0,065
-198,548	-200,000	0,010	0,105
-197,533	800,000	0,080	0,201
-196,519	197,523	-0,054	0,061
-195,504	-9,013	-0,124	-0,060
-194,490	29,629	-0,087	0,054
-193,475	522,706	0,083	-0,142
-192,460	-200,000	-0,006	-0,175
-191,446	-6,023	-0,148	-0,073
-190,431	-200,000	-0,008	0,057
-189,417	160,648	0,096	0,098
-188,402	-200,000	0,015	0,054
-187,387	-200,000	-0,006	0,026
-186,373	800,000	-0,056	-0,138
-185,358	84,123	0,031	0,025
-184,344	96,493	-0,131	-0,109
-183,329	-85,833	0,168	0,038
-182,315	-200,000	0,012	0,060
-181,300	-200,000	0,004	0,066
-180,285	252,115	-0,025	0,031
-179,271	-200,000	-0,018	0,087
-178,256	-84,167	-0,099	-0,023
-177,242	-111,676	0,051	0,007
-176,227	191,760	-0,050	0,055
-175,212	378,179	0,049	0,074
-174,198	-200,000	-0,030	0,207
-173,183	620,422	0,006	0,012
-172,169	77,244	-0,056	0,044
-171,154	387,386	-0,053	-0,080
-170,139	575,743	0,054	0,096
-169,125	-96,959	0,041	0,008
-168,110	69,483	0,108	0,081
-167,096	-59,134	0,071	0,022
-166,081	59,950	-0,110	0,079
-165,066	-200,000	0,023	0,118
-164,052	12,656	0,102	0,057
-163,037	547,629	0,061	0,106
-162,023	115,104	0,009	0,008
-161,008	310,940	0,053	0,072
-159,993	344,825	-0,055	-0,079
-158,979	-200,000	0,024	-0,084
-157,964	800,000	-0,013	-0,031
-156,950	203,613	0,017	-0,019
-155,935	-146,285	0,059	-0,004
-154,920	-141,539	-0,019	0,001
-153,906	-200,000	-0,018	-0,163
-152,891	136,065	0,049	-0,047
-151,877	-200,000	0,000	-0,036
-150,862	237,162	-0,091	-0,110
-149,847	3,775	-0,057	0,030
-148,833	800,000	0,015	0,044
-147,818	-200,000	-0,006	0,127
-146,804	-200,000	-0,024	-0,096
-145,789	800,000	0,014	0,030
-144,775	800,000	-0,028	0,056
-143,760	229,167	-0,027	-0,032
-142,745	86,645	-0,066	0,053
-141,731	66,438	0,162	0,120
-140,716	458,073	-0,032	-0,051
-139,702	-19,537	0,065	0,029
-138,687	48,682	-0,063	0,043
-137,672	800,000	0,043	-0,107
-136,658	122,023	-0,060	0,054
-135,643	-200,000	-0,008	-0,035
-134,629	-112,580	0,048	-0,007
-133,614	800,000	0,032	-0,069
-132,599	237,102	0,082	0,099
-131,585	192,573	-0,068	0,075
-130,570	422,500	0,076	0,119
-129,556	-99,302	-0,089	0,016
-128,541	287,068	-0,061	0,081
-127,526	-169,081	0,174	-0,005
-126,512	163,942	-0,061	-0,063
-125,497	-200,000	0,011	0,055
-124,483	26,154	0,050	0,031
-123,468	-7,767	0,101	-0,049
-122,453	-88,276	-0,066	0,014
-121,439	255,375	-0,019	-0,024
-120,424	509,210	0,100	-0,169
-119,410	800,000	-0,018	0,056
-118,395	-200,000	0,011	0,138
-117,380	-107,324	-0,047	-0,007
-116,366	800,000	0,018	-0,043
-115,351	117,671	0,093	-0,083
-114,337	435,256	0,036	0,058
-113,322	11,317	-0,110	-0,061
-112,307	8,442	0,032	-0,018
-111,293	-18,487	0,160	0,072
-110,278	-144,155	0,072	-0,005
-109,264	800,000	-0,045	0,115
-108,249	525,281	0,029	-0,050
-107,234	-200,000	0,016	-0,052
-106,220	541,369	-0,038	-0,066
-105,205	361,589	-0,072	0,105
-104,191	200,995	-0,009	-0,010
-103,176	-48,897	-0,074	0,026
-102,162	-127,075	0,136	-0,014
-101,147	800,000	-0,035	0,098
-100,132	-200,000	-0,003	-0,084
-99,118	475,236	0,043	0,071
-98,103	800,000	-0,013	0,028
-97,089	423,812	-0,013	0,020
-96,074	167,943	-0,087	0,090
-95,059	800,000	0,019	-0,039
-94,045	139,634	0,038	0,036
-93,030	379,128	-0,030	0,045
-92,016	-200,000	-0,013	0,082
-91,001	540,634	0,051	-0,088
-89,986	82,873	0,105	0,083
-88,972	-36,593	0,139	0,054
-87,957	-42,924	-0,024	0,009
-86,943	-102,830	-0,105	0,018
-85,928	-21,901	0,108	-0,047
-84,913	-200,000	-0,014	0,057
-83,899	-200,000	0,001	-0,005
-82,884	68,467	0,072	-0,054
-81,870	-200,000	0,024	0,150
-80,855	-200,000	0,000	0,222
-79,840	-200,000	0,013	0,054
-78,826	800,000	-0,030	0,065
-77,811	95,245	-0,034	-0,028
-76,797	800,000	-0,037	-0,102
-75,782	-200,000	0,012	0,048
-74,767	-200,000	-0,043	0,144
-73,753	800,000	-0,070	0,173
-72,738	-176,945	-0,051	0,001
-71,724	-200,000	-0,021	-0,084
-70,709	-200,000	0,010	-0,168
-69,694	62,689	-0,030	-0,022
-68,680	800,000	-0,030	0,069
-67,665	-200,000	-0,008	0,039
-66,651	-200,000	-0,007	0,043
-65,636	227,359	-0,077	0,091
-64,622	178,086	0,034	0,036
-63,607	-200,000	0,002	0,052
-62,592	-200,000	-0,034	-0,162
-61,578	800,000	0,029	0,073
-60,563	32,232	0,070	0,043
-59,549	-171,227	-0,137	-0,003
-58,534	-127,735	-1,396	-0,144
-57,519	800,000	-0,656	-1,422
-56,505	-200,000	-0,867	-4,458
-55,490	3,351	0,536	-0,282
-54,476	800,000	4,841	11,456
-53,461	-200,000	14,045	252,509
-52,446	-200,000	693,391	2243,550
-51,432	583,174	1622,576	2897,086
-50,417	117,999	1631,648	1456,405
-49,403	73,985	1285,864	976,243
-48,388	37,764	1022,554	656,561
-47,373	24,059	980,665	584,708
-46,359	23,242	970,345	575,858
-45,344	22,211	966,032	569,917
-44,330	22,207	964,444	568,944
-43,315	22,100	963,082	567,770
-42,300	22,071	962,009	567,020
-41,286	22,059	960,835	566,267
-40,271	21,945	960,242	565,527
-39,257	22,079	958,987	565,198
-38,242	21,976	958,216	564,389
-37,227	22,050	957,427	564,140
-36,213	21,965	956,504	563,299
-35,198	21,936	955,594	562,649
-34,184	21,979	955,069	562,456
-33,169	21,956	954,196	561,844
-32,154	22,095	953,265	561,722
-31,140	22,065	952,408	561,097
-30,125	22,046	951,653	560,570
-29,111	21,994	950,703	559,821
-28,096	22,072	949,998	559,634
-27,082	22,042	949,308	559,108
-26,067	22,033	948,642	558,665
-25,052	22,027	947,941	558,211
-24,038	22,050	947,242	557,853
-23,023	22,079	946,440	557,449
-22,009	22,045	946,001	557,058
-20,994	22,102	945,172	556,732
-19,979	22,023	944,799	556,238
-18,965	22,082	944,020	555,945
-17,950	22,070	943,165	555,380
-16,936	21,985	942,662	554,794
-15,921	21,957	942,046	554,321
-14,906	21,945	941,318	553,832
-13,892	21,904	940,748	553,343
-12,877	21,907	940,033	552,911
-11,863	21,905	939,318	552,461
-10,848	21,946	938,838	552,287
-9,833	22,063	938,352	552,350
-8,819	21,965	937,895	551,749
-7,804	21,879	937,134	551,008
-6,790	21,964	936,529	550,899
-5,775	21,980	935,835	550,520
-4,760	21,928	935,345	550,046
-3,746	21,939	934,705	549,682
-2,731	21,797	933,950	548,767
-1,717	21,766	933,226	548,223
-0,702	21,713	932,638	547,691
0,313	21,501	932,009	547,482
1,327	24,148	929,543	554,280
2,342	32,020	807,564	502,816
3,356	27,241	507,860	308,060
4,371	2,918	372,770	195,302
5,386	-0,118	355,769	182,669
6,400	-1,700	349,312	177,436
7,415	-2,533	346,437	174,967
8,429	-2,634	344,904	174,057
9,444	-2,716	344,121	173,550
10,459	-2,699	343,383	173,181
11,473	-2,569	342,774	173,012
12,488	-2,219	342,299	173,170
13,502	-2,358	341,887	172,782
14,517	-2,385	341,279	172,428
15,531	-2,569	340,648	171,878
16,546	-2,706	340,201	171,477
17,561	-2,613	339,716	171,326
18,575	-2,547	339,422	171,240
19,590	-2,565	339,139	171,061
20,604	-2,607	338,712	170,781
21,619	-2,656	338,198	170,449
22,634	-2,619	338,086	170,421
23,648	-2,633	337,540	170,114
24,663	-2,536	337,062	169,971
25,677	-2,668	337,127	169,835
26,692	-2,576	336,799	169,761
27,707	-2,640	336,384	169,463
28,721	-2,644	335,949	169,224
29,736	-2,668	335,744	169,077
30,750	-2,633	335,401	168,931
31,765	-2,682	335,126	168,721
32,780	-2,763	334,936	168,517
33,794	-2,656	334,538	168,425
34,809	-2,647	334,272	168,285
35,823	-2,660	334,032	168,135
36,838	-2,708	333,710	167,903
37,853	-2,739	333,364	167,679
38,867	-2,731	333,034	167,506
39,882	-2,775	332,938	167,393
40,896	-2,738	332,560	167,231
41,911	-2,781	332,266	167,019
42,926	-2,750	332,000	166,905
43,940	-2,753	331,722	166,747
44,955	-2,805	331,616	166,620
45,969	-2,981	331,360	166,276
46,984	-3,081	330,945	165,940
47,999	-3,101	330,647	165,753
49,013	-3,212	330,383	165,480
50,028	-3,096	329,870	165,339
51,042	-3,271	329,728	165,056
52,057	-3,351	329,394	164,783
53,071	-3,384	329,212	164,640
54,086	-3,278	328,959	164,619
55,101	-3,255	328,846	164,573
56,115	-3,150	328,672	164,590
57,130	-2,727	328,501	164,966
58,144	-2,575	328,120	164,931
59,159	-2,586	327,924	164,805
60,174	-2,586	327,826	164,741
61,188	-2,564	327,324	164,499
62,203	-2,432	327,128	164,534
63,217	-2,696	326,987	164,153
64,232	-2,613	326,703	164,088
65,247	-2,521	326,437	164,043
66,261	-2,637	326,220	163,789
67,276	-2,805	325,904	163,429
68,290	-2,811	325,374	163,142
69,305	-2,798	325,247	163,078
70,320	-2,910	324,980	162,805
71,334	-2,787	324,863	162,868
72,349	-2,572	324,875	163,100
73,363	-2,529	324,356	162,872
74,378	-2,561	324,062	162,674
75,393	-2,636	323,897	162,494
76,407	-2,442	323,686	162,589
77,422	-2,701	323,370	162,128
78,436	-2,506	323,046	162,168
79,451	-2,528	322,975	162,092
80,466	-2,700	322,523	161,662
81,480	-2,708	322,181	161,467
82,495	-2,843	322,005	161,216
83,509	-2,826	321,881	161,159
84,524	-2,742	321,553	161,072
85,539	-3,064	321,274	160,564
86,553	-2,836	320,947	160,636
87,568	-2,931	320,690	160,389
88,582	-2,923	320,572	160,325
89,597	-2,951	320,331	160,159
90,611	-2,840	320,105	160,153
91,626	-2,706	320,000	160,233
92,641	-2,668	319,757	160,139
93,655	-2,675	319,392	159,934
94,670	-2,889	319,320	159,650
95,684	-2,902	319,048	159,485
96,699	-2,763	318,857	159,528
97,714	-2,803	318,545	159,314
98,728	-2,845	318,173	159,067
99,743	-2,990	317,920	158,769
100,757	-2,884	317,732	158,776
101,772	-2,939	317,450	158,562
102,787	-3,035	317,491	158,464
103,801	-2,870	317,116	158,442
104,816	-2,767	317,100	158,531
105,830	-2,802	316,804	158,331
106,845	-2,742	316,497	158,228
107,860	-2,729	316,326	158,142
108,874	-2,666	315,982	158,024
109,889	-2,964	315,755	157,576
110,903	-2,818	315,463	157,574
111,918	-2,880	315,413	157,468
112,933	-2,714	315,131	157,491
113,947	-2,850	314,935	157,232
114,962	-2,638	314,710	157,334
115,976	-2,697	314,383	157,093
116,991	-2,765	314,244	156,937
118,006	-2,694	313,952	156,853
119,020	-2,624	313,830	156,853
120,035	-2,649	313,762	156,778
121,049	-2,508	313,444	156,756
122,064	-2,782	313,290	156,373
123,079	-2,766	313,020	156,242
124,093	-2,818	312,712	156,018
125,108	-2,907	312,468	155,788
126,122	-3,008	312,057	155,461
127,137	-3,096	312,022	155,337
128,151	-2,935	311,724	155,345
129,166	-2,838	311,556	155,351
130,181	-3,018	311,262	154,999
131,195	-3,085	311,032	154,800
132,210	-2,867	310,861	154,932
133,224	-2,653	310,610	155,020
134,239	-2,829	310,488	154,759
135,254	-2,604	310,355	154,916
136,268	-2,756	309,933	154,531
137,283	-2,942	309,620	154,166
138,297	-3,174	309,427	153,811
139,312	-2,977	309,167	153,876
140,327	-2,825	309,050	153,964
141,341	-2,476	309,012	154,298
142,356	-2,489	308,765	154,147
143,370	-2,357	308,653	154,216
144,385	-2,285	308,425	154,164
145,400	-2,557	308,250	153,777
146,414	-2,466	307,853	153,661
147,429	-2,419	307,804	153,672
148,443	-2,343	307,503	153,587
149,458	-2,309	307,308	153,512
150,473	-2,371	307,236	153,398
151,487	-2,430	306,927	153,169
152,502	-2,314	306,659	153,142
153,516	-2,320	306,458	153,022
154,531	-2,468	306,222	152,735
155,546	-2,647	306,200	152,525
156,560	-2,609	305,900	152,401
157,575	-2,629	305,642	152,238
158,589	-2,523	305,421	152,225
159,604	-2,327	305,221	152,314
160,619	-2,456	305,058	152,086
161,633	-2,462	304,848	151,962
162,648	-2,518	304,553	151,743
163,662	-2,381	304,392	151,791
164,677	-2,536	304,209	151,526
165,692	-2,492	304,010	151,459
166,706	-2,367	303,746	151,443
167,721	-2,545	303,820	151,283
168,735	-2,440	303,445	151,190
169,750	-2,310	303,172	151,175
170,764	-2,201	303,157	151,266
171,779	-2,162	302,866	151,147
172,794	-2,292	302,767	150,950
173,808	-2,489	302,510	150,607
174,823	-2,802	302,110	150,073
175,837	-2,998	301,862	149,736
176,852	-2,543	301,808	150,162
177,867	-2,403	301,733	150,254
178,881	-2,424	301,575	150,142
179,896	-2,191	301,264	150,210
180,910	-2,320	301,160	150,014
181,925	-2,225	300,896	149,966
182,940	-2,313	300,877	149,853
183,954	-2,427	300,674	149,623
184,969	-2,449	300,321	149,411
185,983	-2,460	300,078	149,266
186,998	-2,240	299,756	149,316
188,013	-2,256	299,686	149,251
189,027	-2,272	299,546	149,152
190,042	-2,293	299,354	149,022
191,056	-2,178	298,995	148,946
192,071	-2,300	298,982	148,803
193,086	-2,215	298,610	148,691
194,100	-2,152	298,390	148,631
195,115	-2,303	298,181	148,361
196,129	-2,380	297,996	148,179
197,144	-2,312	297,868	148,170
198,159	-2,173	297,582	148,155
199,173	-2,143	297,374	148,069
200,188	-2,228	297,304	147,935
201,202	-2,552	297,112	147,500
202,217	-2,834	296,642	146,970
203,232	-3,008	296,299	146,613
204,246	-2,601	296,258	146,988
205,261	-2,331	296,216	147,224
206,275	-2,336	295,938	147,068
207,290	-2,377	295,804	146,948
208,304	-2,309	295,700	146,950
209,319	-2,283	295,412	146,820
210,334	-2,376	295,135	146,577
211,348	-2,225	294,939	146,617
212,363	-2,262	294,857	146,527
213,377	-2,178	294,661	146,499
214,392	-2,272	294,551	146,338
215,407	-2,493	294,221	145,941
216,421	-2,669	294,064	145,676
217,436	-2,736	293,884	145,507
218,450	-2,404	293,360	145,563
219,465	-2,441	293,355	145,511
220,480	-2,591	293,351	145,348
221,494	-2,608	293,176	145,231
222,509	-2,367	292,743	145,242
223,523	-2,489	292,756	145,115
224,538	-2,470	292,657	145,072
225,553	-2,199	292,400	145,199
226,567	-2,241	292,124	145,007
227,582	-2,231	292,058	144,972
228,596	-2,339	291,944	144,796
229,611	-2,360	291,818	144,700
230,626	-2,351	291,404	144,491
231,640	-2,785	291,042	143,872
232,655	-2,956	290,917	143,629
233,669	-2,800	290,598	143,612
234,684	-2,845	290,375	143,444
235,699	-2,835	290,353	143,431
236,713	-2,648	290,083	143,468
237,728	-2,573	290,001	143,487
238,742	-2,745	289,808	143,211
239,757	-2,491	289,554	143,321
240,772	-2,426	289,468	143,330
241,786	-2,508	289,217	143,112
242,801	-2,431	289,091	143,112
243,815	-2,718	288,866	142,708
244,830	-2,509	288,743	142,839
245,844	-2,664	288,486	142,548
246,859	-2,693	288,431	142,479
247,874	-2,639	288,110	142,361
248,888	-2,581	287,912	142,306
249,903	-2,283	287,887	142,570
250,917	-2,417	287,705	142,338
251,932	-2,223	287,548	142,435
252,947	-1,735	287,694	142,968
253,961	-1,972	287,332	142,546
254,976	-0,790	287,717	143,869
255,990	1,460	288,494	146,428
257,005	2,621	288,759	147,675
258,020	3,990	289,086	149,156
259,034	3,967	288,960	149,056
260,049	3,918	288,695	148,858
261,063	3,647	288,441	148,452
262,078	3,951	288,357	148,690
263,093	4,674	288,252	149,320
264,107	4,507	288,092	149,063
265,122	4,380	288,165	148,965
266,136	4,756	287,832	149,142
267,151	4,732	287,564	148,966
268,166	4,445	287,335	148,559
269,180	4,398	287,067	148,361
270,195	4,284	287,111	148,261
271,209	4,318	286,819	148,130
272,224	4,336	286,601	148,021
273,239	4,187	286,357	147,739
274,253	4,027	286,393	147,591
275,268	4,705	286,341	148,202
276,282	4,731	286,006	148,040
277,297	4,590	285,816	147,794
278,312	4,756	285,701	147,879
279,326	4,562	285,507	147,580
280,341	4,505	285,296	147,404
281,355	4,383	285,023	147,133
282,370	4,317	284,847	146,966
283,384	4,266	284,611	146,783
284,399	4,241	284,442	146,659
285,414	4,275	284,136	146,521
286,428	4,156	284,054	146,352
287,443	3,953	283,862	146,047
288,457	3,994	283,603	145,939
289,472	4,176	283,299	145,942
290,487	3,973	283,327	145,752
291,501	3,880	283,028	145,497
292,516	3,819	282,837	145,329
293,530	3,797	282,654	145,201
294,545	4,023	282,541	145,343
295,560	4,413	282,317	145,583
296,574	3,990	282,045	145,030
297,589	4,016	281,999	145,019
298,603	4,432	281,933	145,364
299,618	4,500	281,772	145,331
300,633	4,419	281,490	145,097
301,647	4,141	281,466	144,810
302,662	4,295	281,217	144,814
303,676	4,023	280,969	144,418
304,691	3,643	280,754	143,939
305,706	3,672	280,359	143,751
306,720	3,753	280,220	143,742
307,735	3,726	280,119	143,652
308,749	3,928	279,916	143,724
309,764	4,089	279,595	143,696
310,779	3,877	279,487	143,431
311,793	3,856	279,360	143,333
312,808	3,756	279,143	143,116
313,822	3,784	278,898	143,003
314,837	3,508	278,841	142,705
315,852	3,477	278,706	142,594
316,866	3,722	278,503	142,705
317,881	3,772	278,430	142,701
318,895	3,798	278,101	142,544
319,910	3,548	277,901	142,197
320,925	3,532	277,686	142,060
321,939	3,822	277,691	142,318
322,954	3,952	277,441	142,298
323,968	3,831	277,365	142,134
324,983	3,895	277,207	142,099
325,997	4,154	276,958	142,198
327,012	4,235	276,890	142,225
328,027	4,016	276,757	141,942
329,041	3,910	276,442	141,671
330,056	4,035	276,311	141,706
331,070	4,115	276,024	141,619
332,085	3,821	275,928	141,287
333,100	3,868	275,775	141,239
334,114	3,764	275,469	140,975
335,129	3,787	275,261	140,877
336,143	3,979	275,318	141,069
337,158	4,198	275,109	141,151
338,173	4,117	275,015	141,016
339,187	3,886	274,597	140,578
340,202	3,945	274,495	140,567
341,216	4,012	274,423	140,579
342,231	3,823	274,147	140,252
343,246	3,699	273,908	140,004
344,260	3,989	273,815	140,208
345,275	3,974	273,770	140,159
346,289	4,467	273,663	140,540
347,304	4,314	273,352	140,230
348,319	3,970	273,235	139,845
349,333	4,025	272,863	139,692
350,348	4,294	272,883	139,933
351,362	4,229	272,652	139,744
352,377	4,242	272,609	139,721
353,392	4,216	272,441	139,599
354,406	4,345	272,263	139,612
355,421	191,389	1330,642	1407,753
356,435	154,620	1459,672	1407,883
