DTS Sentinel unit serial number:	SN410029Multiplexer serial number:	ORYXHardware model number:	OX2-SRSoftware version number:	ORYX F/W v4,00 Oryx Data Collector v3.7.2.0data status	okinstallation	B4 Nyhavnadifferential loss correction	single-endedforward channel	channel 2reverse channel	N/Adate	2023/12/15time	16:25:13forward acquisition time	300,00reverse acquisition time	0,00gamma	499,1914k internal	0,3145k external	0,3145temperature offset calibration	1,0000default loss term (dB/km)	0,3820temperature slope calibration	1,0000multiplexer offset coefficient	1,0000multiplexer slope coefficient	1,0000fibre end	0,00T internal ref (°C)	17,38T ext. ref 1 (°C)	3,30T ext. ref 2 (°C)	3,42length (m)	temperature (°C)	Stokes	anti-Stokes-744,400	678,065	0,086	-0,167
-743,385	-144,847	-0,275	-0,018
-742,371	-200,000	0,020	0,098
-741,356	-132,497	-0,231	0,022
-740,342	43,353	0,105	-0,071
-739,327	-66,293	-0,234	0,068
-738,312	-200,000	-0,015	-0,054
-737,298	-77,412	-0,263	0,067
-736,283	800,000	0,027	-0,077
-735,269	-80,663	-0,286	0,070
-734,254	-172,181	0,153	0,004
-733,239	-95,927	-0,425	-0,083
-732,225	70,212	0,159	0,122
-731,210	80,833	0,019	0,015
-730,196	-200,000	-0,009	-0,051
-729,181	-62,842	-0,123	-0,037
-728,167	170,955	0,058	0,061
-727,152	-27,009	-0,068	-0,029
-726,137	-135,240	-0,095	-0,008
-725,123	-102,155	0,162	0,029
-724,108	800,000	-0,035	-0,110
-723,094	-157,610	-0,040	0,002
-722,079	98,885	0,033	0,028
-721,064	-53,962	0,166	-0,056
-720,050	-140,422	-0,128	0,010
-719,035	27,287	0,050	0,031
-718,021	-200,000	0,012	-0,151
-717,006	-200,000	-0,031	-0,131
-715,991	-98,081	-0,118	0,022
-714,977	-200,000	0,019	-0,123
-713,962	46,252	-0,099	0,068
-712,948	88,701	-0,075	0,062
-711,933	-31,290	0,059	-0,025
-710,918	328,135	-0,034	-0,048
-709,904	231,741	-0,150	-0,182
-708,889	-200,000	0,041	-0,141
-707,875	443,999	0,016	-0,026
-706,860	428,083	-0,054	0,087
-705,845	-200,000	0,006	0,023
-704,831	800,000	0,082	0,225
-703,816	776,245	0,043	-0,087
-702,802	800,000	0,051	-0,120
-701,787	-64,025	-0,126	0,038
-700,772	-120,846	0,052	-0,006
-699,758	-115,954	0,151	0,021
-698,743	267,452	0,064	-0,083
-697,729	527,814	-0,041	0,072
-696,714	-200,000	-0,004	0,147
-695,699	287,879	0,020	0,027
-694,685	362,957	-0,043	-0,064
-693,670	180,296	-0,033	0,036
-692,656	240,108	0,043	-0,053
-691,641	800,000	0,015	0,038
-690,627	-60,016	-0,080	0,025
-689,612	97,928	0,057	-0,049
-688,597	234,924	0,021	0,025
-687,583	800,000	-0,011	0,026
-686,568	76,036	-0,095	-0,074
-685,554	-200,000	-0,048	-0,215
-684,539	56,908	-0,033	0,023
-683,524	-200,000	-0,018	0,118
-682,510	-200,000	0,010	0,055
-681,495	11,652	-0,049	0,028
-680,481	-136,671	-0,109	-0,009
-679,466	408,961	-0,149	-0,234
-678,451	-121,751	-0,054	-0,006
-677,437	800,000	-0,008	-0,027
-676,422	320,671	0,039	-0,055
-675,408	282,154	0,055	0,073
-674,393	375,120	-0,035	0,053
-673,378	210,227	-0,041	0,048
-672,364	-75,971	0,078	0,020
-671,349	800,000	0,007	0,019
-670,335	-200,000	0,178	-0,001
-669,320	43,924	0,048	-0,033
-668,305	800,000	0,053	-0,110
-667,291	-200,000	0,001	-0,061
-666,276	43,719	0,038	-0,026
-665,262	331,011	0,040	-0,057
-664,247	350,584	-0,040	0,059
-663,232	800,000	0,008	-0,019
-662,218	295,050	-0,072	0,098
-661,203	-77,168	-0,119	-0,030
-660,189	110,902	0,061	-0,054
-659,174	-52,670	-0,110	0,037
-658,159	93,631	-0,090	-0,076
-657,145	-200,000	-0,012	-0,122
-656,130	-2,365	0,049	-0,025
-655,116	2,488	-0,065	0,034
-654,101	18,052	0,079	-0,046
-653,086	-200,000	-0,012	-0,094
-652,072	-72,366	-0,046	-0,012
-651,057	-200,000	0,019	-0,154
-650,043	142,311	-0,053	-0,052
-649,028	221,148	-0,047	-0,056
-648,014	-87,619	0,137	-0,030
-646,999	-6,142	0,085	-0,043
-645,984	269,175	-0,105	-0,136
-644,970	-200,000	0,007	-0,095
-643,955	152,119	-0,033	0,033
-642,941	19,928	0,052	-0,031
-641,926	-200,000	0,016	-0,084
-640,911	-200,000	-0,016	0,165
-639,897	36,896	-0,067	0,044
-638,882	-14,386	-0,081	-0,038
-637,868	800,000	-0,047	-0,149
-636,853	-200,000	-0,017	0,064
-635,838	-200,000	0,003	-0,023
-634,824	800,000	0,028	0,060
-633,809	-27,582	0,195	-0,083
-632,795	800,000	0,005	0,010
-631,780	73,607	0,049	0,038
-630,765	-56,241	-0,125	0,041
-629,751	-200,000	-0,003	-0,021
-628,736	320,332	-0,129	0,181
-627,722	267,762	-0,067	0,086
-626,707	-5,926	0,072	-0,036
-625,692	17,848	0,019	-0,011
-624,678	-200,000	-0,007	-0,064
-623,663	445,254	0,022	-0,036
-622,649	118,018	-0,094	-0,085
-621,634	128,599	-0,124	-0,116
-620,619	182,455	-0,030	-0,032
-619,605	-30,098	-0,139	0,058
-618,590	-200,000	-0,008	0,089
-617,576	-87,963	0,099	-0,022
-616,561	-200,000	-0,013	0,076
-615,546	-200,000	0,027	-0,088
-614,532	-49,183	0,063	-0,022
-613,517	-200,000	-0,021	0,078
-612,503	-157,441	0,030	0,001
-611,488	40,460	0,109	0,072
-610,474	5,145	-0,080	-0,043
-609,459	-200,000	0,003	0,026
-608,444	-52,452	-0,098	-0,033
-607,430	18,370	-0,049	-0,029
-606,415	143,597	0,058	0,057
-605,401	117,657	0,053	-0,048
-604,386	-200,000	-0,011	0,101
-603,371	33,440	0,095	0,060
-602,357	800,000	0,014	0,047
-601,342	-200,000	0,016	0,086
-600,328	-111,632	0,036	0,005
-599,313	62,588	-0,100	-0,073
-598,298	151,801	-0,055	0,055
-597,284	-200,000	-0,004	-0,052
-596,269	119,618	0,118	-0,108
-595,255	-171,020	-0,083	-0,002
-594,240	104,999	-0,051	-0,045
-593,225	63,833	-0,152	-0,113
-592,211	109,921	-0,062	-0,054
-591,196	-69,345	0,033	-0,009
-590,182	800,000	0,032	-0,096
-589,167	-64,681	0,083	-0,025
-588,152	127,477	0,003	0,003
-587,138	-200,000	0,018	-0,065
-586,123	-200,000	-0,003	-0,075
-585,109	-200,000	-0,003	-0,101
-584,094	246,953	-0,042	-0,052
-583,079	328,166	0,042	0,060
-582,065	3,643	-0,127	-0,068
-581,050	-135,093	0,083	0,007
-580,036	-133,734	-0,024	-0,002
-579,021	-73,693	0,106	-0,028
-578,006	290,681	0,061	0,082
-576,992	-90,383	-0,091	-0,019
-575,977	47,367	0,047	0,032
-574,963	128,041	0,104	-0,097
-573,948	-144,620	-0,138	-0,009
-572,934	-176,418	-0,116	0,002
-571,919	470,416	-0,045	-0,074
-570,904	-81,496	-0,044	-0,011
-569,890	-174,769	0,112	-0,002
-568,875	-55,772	-0,050	-0,016
-567,861	-200,000	-0,028	0,127
-566,846	741,435	-0,049	0,097
-565,831	-200,000	0,006	0,069
-564,817	195,551	-0,069	0,077
-563,802	556,424	0,045	-0,079
-562,788	-200,000	0,017	-0,099
-561,773	79,555	0,097	-0,076
-560,758	-47,570	0,182	0,065
-559,744	247,511	-0,081	0,100
-558,729	800,000	0,042	-0,118
-557,715	-173,741	-0,056	-0,001
-556,700	-31,877	0,155	0,064
-555,685	-88,262	0,101	-0,022
-554,671	-165,552	-0,131	-0,004
-553,656	-200,000	-0,006	-0,021
-552,642	-55,607	0,091	-0,030
-551,627	174,799	-0,057	0,061
-550,612	-22,307	0,055	0,024
-549,598	237,478	-0,148	-0,181
-548,583	-26,063	0,079	-0,034
-547,569	-200,000	0,010	-0,049
-546,554	-82,179	0,047	0,011
-545,539	-200,000	-0,013	-0,059
-544,525	21,028	0,075	-0,045
-543,510	-192,475	-0,115	-0,001
-542,496	364,842	0,017	0,026
-541,481	735,681	-0,013	-0,026
-540,466	-200,000	0,002	-0,021
-539,452	220,719	0,028	-0,033
-538,437	-200,000	-0,017	0,055
-537,423	112,192	-0,040	0,036
-536,408	16,545	-0,090	0,052
-535,393	582,997	-0,036	0,066
-534,379	500,947	0,040	0,067
-533,364	800,000	0,021	0,047
-532,350	800,000	-0,014	0,042
-531,335	468,816	0,043	0,071
-530,321	16,135	-0,150	0,086
-529,306	-172,049	0,103	-0,002
-528,291	224,309	-0,092	0,110
-527,277	800,000	0,031	0,089
-526,262	-200,000	-0,029	-0,108
-525,248	-97,506	-0,032	0,006
-524,233	640,218	0,060	0,112
-523,218	137,719	-0,036	-0,035
-522,204	8,904	-0,060	-0,033
-521,189	-200,000	0,010	0,109
-520,175	509,678	-0,087	0,148
-519,160	180,972	0,100	-0,108
-518,145	743,435	0,079	-0,157
-517,131	800,000	-0,032	-0,076
-516,116	-200,000	-0,012	0,099
-515,102	-29,310	-0,044	0,018
-514,087	-185,659	-0,090	-0,001
-513,072	-44,478	0,121	0,044
-512,058	22,783	-0,067	-0,040
-511,043	-77,350	0,078	0,020
-510,029	-200,000	0,023	0,097
-509,014	-200,000	0,010	0,086
-507,999	424,762	-0,060	0,095
-506,985	-86,926	-0,092	0,021
-505,970	248,178	0,035	0,043
-504,956	-21,611	-0,125	-0,056
-503,941	8,228	0,036	-0,020
-502,926	140,351	-0,054	-0,052
-501,912	-47,680	-0,044	-0,015
-500,897	-200,000	0,002	0,181
-499,883	-200,000	-0,019	-0,070
-498,868	-17,350	0,103	-0,048
-497,853	-200,000	-0,029	-0,163
-496,839	-152,530	-0,086	-0,004
-495,824	-200,000	0,008	0,192
-494,810	-200,000	-0,001	0,028
-493,795	-200,000	-0,013	0,051
-492,781	139,252	-0,055	0,053
-491,766	800,000	0,037	-0,089
-490,751	-53,211	-0,059	0,020
-489,737	-72,267	0,130	0,035
-488,722	800,000	-0,013	-0,031
-487,708	-15,187	0,021	-0,010
-486,693	756,806	-0,042	-0,085
-485,678	-115,721	-0,032	0,004
-484,664	-6,985	-0,155	-0,077
-483,649	195,597	-0,066	0,073
-482,635	-75,977	0,062	0,016
-481,620	548,094	-0,029	-0,050
-480,605	266,059	0,025	-0,032
-479,591	453,024	-0,055	-0,090
-478,576	-22,485	0,084	0,037
-477,562	24,258	0,122	-0,074
-476,547	-29,285	-0,107	-0,045
-475,532	-200,000	-0,000	-0,028
-474,518	-200,000	0,037	0,136
-473,503	3,094	0,017	-0,009
-472,489	-200,000	-0,031	-0,167
-471,474	800,000	0,012	-0,024
-470,459	155,276	-0,027	-0,027
-469,445	98,438	-0,073	0,061
-468,430	-200,000	-0,034	-0,163
-467,416	678,124	-0,067	-0,129
-466,401	11,093	0,016	-0,009
-465,386	-140,845	0,116	-0,009
-464,372	-0,156	-0,089	0,046
-463,357	62,114	0,069	-0,050
-462,343	-200,000	-0,004	-0,029
-461,328	800,000	-0,025	-0,079
-460,313	219,223	0,076	0,089
-459,299	-139,255	-0,096	0,007
-458,284	12,306	0,134	-0,076
-457,270	-200,000	-0,031	0,170
-456,255	236,308	0,119	0,144
-455,241	-7,040	-0,176	0,087
-454,226	233,632	-0,090	0,108
-453,211	152,494	0,062	-0,062
-452,197	399,710	0,067	0,103
-451,182	-153,977	-0,051	-0,002
-450,168	-200,000	-0,007	0,026
-449,153	800,000	0,060	-0,136
-448,138	-6,313	-0,083	-0,041
-447,124	-150,363	-0,012	-0,001
-446,109	-200,000	0,013	-0,066
-445,095	-200,000	0,006	-0,112
-444,080	-200,000	0,002	0,054
-443,065	-93,246	-0,109	0,022
-442,051	271,906	0,053	0,069
-441,036	800,000	-0,017	-0,049
-440,022	-168,745	-0,111	0,003
-439,007	-200,000	-0,015	0,059
-437,992	800,000	-0,042	-0,101
-436,978	-200,000	0,008	0,057
-435,963	800,000	0,015	0,046
-434,949	647,726	-0,066	-0,123
-433,934	-200,000	-0,001	-0,046
-432,919	-200,000	0,006	0,045
-431,905	-97,596	0,150	-0,028
-430,890	-200,000	0,005	0,069
-429,876	58,177	0,104	-0,074
-428,861	-61,976	-0,091	0,028
-427,846	-130,657	-0,087	0,008
-426,832	286,500	-0,095	-0,126
-425,817	-200,000	-0,048	-0,155
-424,803	-200,000	-0,003	0,041
-423,788	-159,141	0,213	0,009
-422,773	-14,258	-0,111	0,052
-421,759	-200,000	-0,008	0,064
-420,744	-200,000	0,002	-0,023
-419,730	525,037	0,061	-0,105
-418,715	800,000	0,035	-0,084
-417,701	-0,354	0,037	-0,019
-416,686	-27,031	0,027	-0,012
-415,671	286,537	-0,099	0,132
-414,657	17,458	0,097	0,056
-413,642	-69,031	-0,044	-0,012
-412,628	800,000	0,032	0,065
-411,613	-200,000	0,013	-0,126
-410,598	9,730	0,205	-0,113
-409,584	21,367	0,144	-0,085
-408,569	566,140	-0,057	0,102
-407,555	800,000	0,012	0,038
-406,540	166,238	0,043	-0,044
-405,525	45,189	-0,096	0,064
-404,511	232,684	0,081	0,098
-403,496	642,211	0,063	-0,117
-402,482	-200,000	0,026	-0,092
-401,467	-80,159	-0,136	-0,033
-400,452	-24,022	-0,065	0,028
-399,438	743,035	0,016	0,032
-398,423	87,023	0,017	-0,014
-397,409	-200,000	0,010	0,061
-396,394	272,415	-0,083	-0,107
-395,379	-200,000	-0,020	0,081
-394,365	-51,304	0,191	-0,065
-393,350	-85,551	-0,139	0,031
-392,336	800,000	-0,035	-0,075
-391,321	678,317	-0,039	0,074
-390,306	481,033	-0,039	0,066
-389,292	401,897	-0,040	-0,061
-388,277	-156,320	0,070	-0,003
-387,263	786,240	-0,038	-0,076
-386,248	180,242	0,113	0,121
-385,233	-200,000	-0,005	0,023
-384,219	228,345	0,102	-0,121
-383,204	-22,901	-0,053	0,023
-382,190	-44,032	-0,064	-0,023
-381,175	-200,000	0,031	-0,150
-380,160	1,269	-0,026	0,014
-379,146	-200,000	-0,005	0,120
-378,131	-84,129	0,112	-0,026
-377,117	344,145	0,041	-0,060
-376,102	-41,905	-0,017	0,006
-375,088	79,540	0,107	-0,083
-374,073	-27,848	-0,026	0,011
-373,058	280,085	0,060	-0,079
-372,044	-32,252	0,107	0,044
-371,029	115,400	0,026	0,023
-370,015	800,000	0,076	0,156
-369,000	471,623	-0,026	-0,042
-367,985	800,000	-0,020	0,042
-366,971	-200,000	0,010	-0,095
-365,956	-200,000	0,000	0,082
-364,942	-81,541	0,103	0,025
-363,927	104,670	0,032	0,028
-362,912	-38,931	-0,056	-0,021
-361,898	-200,000	-0,020	-0,119
-360,883	260,266	0,078	-0,099
-359,869	108,758	-0,124	-0,108
-358,854	-27,925	0,060	-0,025
-357,839	800,000	0,035	0,097
-356,825	338,122	-0,047	0,067
-355,810	77,375	-0,111	-0,086
-354,796	-95,952	-0,138	-0,027
-353,781	-75,915	0,070	-0,018
-352,766	-200,000	-0,034	-0,110
-351,752	773,238	-0,051	-0,101
-350,737	-200,000	0,005	-0,053
-349,723	94,660	0,110	-0,091
-348,708	233,607	-0,060	-0,072
-347,693	800,000	-0,052	-0,114
-346,679	332,039	-0,039	0,055
-345,664	-42,277	-0,059	-0,022
-344,650	268,474	0,060	0,076
-343,635	58,887	-0,134	0,096
-342,620	28,934	0,077	0,048
-341,606	8,073	0,028	0,015
-340,591	102,425	-0,010	0,008
-339,577	-84,091	0,188	-0,043
-338,562	-70,527	-0,082	0,023
-337,548	800,000	0,042	0,136
-336,533	37,004	0,190	0,122
-335,518	-200,000	0,016	-0,076
-334,504	-200,000	0,018	0,072
-333,489	731,579	-0,038	0,074
-332,475	48,192	-0,107	-0,073
-331,460	110,026	-0,042	-0,037
-330,445	-200,000	0,158	0,001
-329,431	-200,000	0,018	-0,152
-328,416	35,025	-0,006	-0,004
-327,402	800,000	0,064	0,171
-326,387	-57,126	-0,073	0,023
-325,372	74,948	0,053	-0,041
-324,358	-29,205	0,029	0,012
-323,343	429,515	-0,069	-0,109
-322,329	764,267	0,058	0,116
-321,314	-147,867	0,047	0,003
-320,299	11,868	0,214	-0,119
-319,285	240,034	-0,067	-0,082
-318,270	-200,000	0,009	-0,144
-317,256	800,000	-0,065	-0,161
-316,241	-200,000	-0,015	0,048
-315,226	-147,541	-0,064	0,004
-314,212	-64,450	0,044	0,013
-313,197	-22,510	0,063	0,028
-312,183	-130,103	0,111	-0,011
-311,168	-90,350	-0,157	0,033
-310,153	290,997	0,048	0,063
-309,139	572,419	0,046	0,082
-308,124	-105,227	0,122	-0,020
-307,110	69,802	-0,025	-0,019
-306,095	496,935	0,047	0,079
-305,080	800,000	-0,079	0,197
-304,066	-58,736	-0,135	-0,042
-303,051	113,143	0,092	-0,081
-302,037	800,000	0,033	-0,070
-301,022	-5,746	0,012	0,006
-300,008	800,000	-0,049	0,114
-298,993	338,572	-0,052	0,074
-297,978	-200,000	-0,016	0,060
-296,964	-200,000	0,012	-0,070
-295,949	-200,000	-0,008	-0,044
-294,935	-74,407	0,092	-0,024
-293,920	-139,983	-0,114	-0,009
-292,905	-200,000	-0,009	-0,064
-291,891	-13,741	0,162	0,076
-290,876	800,000	-0,033	0,091
-289,862	-6,672	-0,057	0,028
-288,847	800,000	-0,042	0,093
-287,832	-104,607	0,045	-0,007
-286,818	-40,203	0,083	0,031
-285,803	-11,993	0,055	-0,026
-284,789	-187,167	-0,124	0,001
-283,774	-124,185	-0,081	0,009
-282,759	-89,175	0,084	-0,018
-281,745	309,709	-0,072	-0,098
-280,730	-72,246	-0,074	0,020
-279,716	800,000	-0,003	0,006
-278,701	-56,258	0,105	-0,034
-277,686	-54,519	0,072	0,023
-276,672	-200,000	-0,011	0,043
-275,657	-145,297	0,033	0,002
-274,643	102,486	-0,095	0,081
-273,628	171,657	-0,085	0,089
-272,613	605,786	-0,056	0,103
-271,599	-116,719	0,038	0,005
-270,584	-90,155	0,235	0,049
-269,570	28,210	-0,046	0,028
-268,555	-200,000	0,028	0,209
-267,540	-200,000	0,001	-0,095
-266,526	139,306	0,039	-0,038
-265,511	36,747	0,118	0,075
-264,497	-128,430	0,147	0,015
-263,482	-200,000	0,014	0,125
-262,467	189,543	-0,042	0,046
-261,453	-46,302	-0,109	0,039
-260,438	-138,839	0,097	-0,008
-259,424	-152,347	-0,109	0,006
-258,409	415,010	-0,041	0,064
-257,395	800,000	-0,041	-0,086
-256,380	462,480	0,038	-0,061
-255,365	-200,000	0,012	0,054
-254,351	-125,522	-0,027	-0,003
-253,336	546,217	-0,045	0,078
-252,322	-200,000	-0,021	-0,077
-251,307	800,000	-0,010	-0,024
-250,292	-5,044	-0,006	-0,003
-249,278	-74,434	-0,093	-0,024
-248,263	-103,671	-0,034	-0,006
-247,249	-200,000	-0,013	-0,055
-246,234	328,471	0,032	0,044
-245,219	-36,693	-0,050	-0,019
-244,205	-71,542	-0,051	-0,014
-243,190	-26,346	0,083	0,035
-242,176	-200,000	0,016	-0,102
-241,161	800,000	0,018	0,040
-240,146	512,838	0,065	0,111
-239,132	-68,948	-0,017	0,005
-238,117	-70,152	-0,125	-0,034
-237,103	-200,000	0,004	-0,037
-236,088	-200,000	0,029	0,190
-235,073	101,498	-0,081	0,068
-234,059	-200,000	0,000	-0,145
-233,044	-200,000	0,015	0,067
-232,030	-44,246	-0,065	-0,024
-231,015	-200,000	0,010	-0,033
-230,000	88,876	-0,061	0,049
-228,986	-156,035	0,122	-0,006
-227,971	61,392	-0,015	0,011
-226,957	27,149	0,090	0,055
-225,942	-200,000	0,016	-0,054
-224,927	24,820	-0,033	-0,020
-223,913	-52,374	0,176	0,059
-222,898	-159,517	0,095	0,004
-221,884	-69,126	-0,028	-0,008
-220,869	26,182	0,080	-0,048
-219,855	363,503	0,028	0,040
-218,840	109,573	0,032	0,028
-217,825	737,842	-0,038	-0,074
-216,811	-135,807	0,046	-0,004
-215,796	90,547	-0,069	-0,056
-214,782	-19,251	-0,012	-0,006
-213,767	69,645	-0,050	0,037
-212,752	-200,000	0,004	0,049
-211,738	-200,000	0,006	0,056
-210,723	555,211	-0,062	-0,109
-209,709	22,481	0,036	0,021
-208,694	444,068	0,082	-0,132
-207,679	800,000	-0,015	-0,040
-206,665	13,665	0,157	-0,088
-205,650	-200,000	-0,009	0,070
-204,636	-110,578	0,062	0,009
-203,621	117,078	0,051	-0,046
-202,606	213,996	-0,109	-0,125
-201,592	-119,215	-0,143	0,018
-200,577	-29,869	0,100	-0,041
-199,563	-177,850	-0,095	-0,002
-198,548	288,540	-0,044	0,059
-197,533	37,643	0,081	0,052
-196,519	3,911	-0,014	-0,007
-195,504	-17,946	0,086	-0,039
-194,490	800,000	-0,023	-0,069
-193,475	351,424	-0,081	0,116
-192,460	13,922	-0,033	-0,019
-191,446	2,015	-0,071	-0,037
-190,431	-50,974	-0,054	-0,018
-189,417	445,641	0,061	0,097
-188,402	72,977	0,028	-0,021
-187,387	800,000	-0,032	-0,087
-186,373	-116,805	0,113	0,015
-185,358	-143,022	0,047	-0,003
-184,344	-200,000	-0,025	0,121
-183,329	28,395	0,025	0,016
-182,315	-77,949	0,152	0,038
-181,300	-74,551	-0,048	-0,012
-180,285	240,897	-0,040	-0,048
-179,271	37,836	-0,067	0,043
-178,256	-62,617	-0,130	-0,039
-177,242	-200,000	-0,028	0,152
-176,227	800,000	0,066	0,168
-175,212	-178,891	0,061	0,001
-174,198	-136,034	-0,070	-0,006
-173,183	800,000	-0,024	0,066
-172,169	33,009	0,084	0,053
-171,154	800,000	-0,013	0,029
-170,139	-130,459	0,155	-0,015
-169,125	-39,685	0,056	-0,021
-168,110	-200,000	-0,008	0,080
-167,096	-76,202	0,087	-0,022
-166,081	-31,268	-0,066	-0,027
-165,066	533,211	0,025	0,042
-164,052	61,913	0,019	0,014
-163,037	59,246	0,022	-0,016
-162,023	-31,773	-0,165	0,067
-161,008	-200,000	0,021	0,085
-159,993	586,167	-0,064	0,115
-158,979	-23,153	-0,061	0,026
-157,964	107,789	-0,121	-0,104
-156,950	-200,000	-0,081	-0,266
-155,935	-200,000	-0,010	0,123
-154,920	-200,000	-0,025	0,150
-153,906	36,239	0,044	0,028
-152,891	-59,721	-0,081	0,025
-151,877	130,863	-0,147	-0,137
-150,862	-87,030	0,052	0,011
-149,847	481,828	0,049	-0,080
-148,833	118,608	0,100	-0,089
-147,818	800,000	-0,011	-0,024
-146,804	-200,000	0,011	0,142
-145,789	276,986	-0,038	0,049
-144,775	-149,297	0,032	0,002
-143,760	442,646	-0,106	-0,169
-142,745	-200,000	-0,022	0,137
-141,731	788,790	-0,043	0,086
-140,716	-57,353	-0,091	-0,029
-139,702	-200,000	0,041	0,137
-138,687	-200,000	-0,002	-0,013
-137,672	367,015	0,068	0,100
-136,658	200,517	-0,040	-0,045
-135,643	-200,000	-0,010	-0,067
-134,629	240,120	-0,027	-0,032
-133,614	28,263	-0,109	0,066
-132,599	145,596	0,099	0,096
-131,585	800,000	-0,008	-0,022
-130,570	-151,184	-0,079	-0,004
-129,556	187,226	-0,063	-0,068
-128,541	-63,558	-0,113	-0,033
-127,526	-200,000	0,020	-0,073
-126,512	-76,941	0,018	0,004
-125,497	37,416	0,143	0,091
-124,483	207,367	0,034	-0,038
-123,468	800,000	0,028	0,076
-122,453	259,381	-0,058	-0,072
-121,439	800,000	0,033	0,076
-120,424	-200,000	-0,008	-0,083
-119,410	171,850	-0,070	0,072
-118,395	196,782	0,021	0,023
-117,380	-200,000	0,007	0,142
-116,366	-200,000	-0,029	0,101
-115,351	-200,000	-0,005	-0,061
-114,337	83,214	-0,023	0,018
-113,322	61,813	-0,100	-0,072
-112,307	140,617	0,077	0,074
-111,293	-101,976	0,032	0,005
-110,278	-129,613	0,112	0,011
-109,264	200,739	0,036	0,040
-108,249	68,232	-0,050	0,037
-107,234	40,599	0,022	-0,015
-106,220	-19,940	0,154	-0,068
-105,205	129,652	0,080	0,074
-104,191	-200,000	0,004	0,071
-103,176	-55,939	-0,039	0,012
-102,162	-200,000	0,005	0,159
-101,147	252,846	0,036	-0,044
-100,132	-200,000	-0,010	-0,100
-99,118	-200,000	0,023	0,118
-98,103	-200,000	-0,005	-0,046
-97,089	-12,705	0,124	-0,058
-96,074	800,000	-0,035	0,076
-95,059	-200,000	-0,008	0,116
-94,045	600,869	-0,042	0,075
-93,030	259,310	0,072	0,090
-92,016	-130,471	0,037	-0,004
-91,001	35,408	0,102	0,064
-89,986	168,806	0,059	0,061
-88,972	800,000	0,052	0,113
-87,957	115,830	-0,072	0,063
-86,943	301,144	0,028	0,038
-85,928	-39,536	0,041	0,015
-84,913	18,041	-0,106	-0,061
-83,899	258,352	-0,050	0,063
-82,884	-38,295	-0,061	0,023
-81,870	-200,000	-0,021	0,095
-80,855	-200,000	-0,007	-0,083
-79,840	-84,093	-0,111	0,025
-78,826	-63,287	-0,063	0,019
-77,811	-49,686	-0,223	-0,076
-76,797	-200,000	0,014	0,089
-75,782	350,777	0,077	0,111
-74,767	-36,563	-0,061	0,023
-73,753	-63,675	0,007	0,002
-72,738	-200,000	-0,046	-0,182
-71,724	105,441	-0,061	-0,052
-70,709	90,245	-0,134	-0,108
-69,694	-200,000	0,022	-0,097
-68,680	-200,000	-0,011	-0,079
-67,665	-103,093	-0,133	-0,023
-66,651	111,040	0,070	0,061
-65,636	141,384	-0,083	0,079
-64,622	39,317	0,044	-0,029
-63,607	-40,262	-0,112	0,042
-62,592	-200,000	0,012	0,052
-61,578	-127,832	-0,134	-0,014
-60,563	-134,406	0,088	0,008
-59,549	-50,393	-0,033	-0,011
-58,534	-40,974	-1,849	-0,685
-57,519	-200,000	-0,197	-1,024
-56,505	-200,000	-1,084	-4,787
-55,490	-28,801	0,734	0,303
-54,476	800,000	5,093	11,796
-53,461	-200,000	16,550	272,405
-52,446	800,000	712,036	2210,531
-51,432	552,028	1624,957	2822,564
-50,417	118,956	1620,862	1443,296
-49,403	82,693	1281,862	1002,512
-48,388	35,895	1028,485	650,384
-47,373	20,948	991,426	577,514
-46,359	19,778	979,629	566,766
-45,344	17,666	975,578	557,458
-44,330	17,845	974,354	557,322
-43,315	17,465	972,673	555,093
-42,300	17,400	971,614	554,255
-41,286	17,394	970,551	553,606
-40,271	17,402	969,566	553,049
-39,257	17,485	968,778	552,848
-38,242	17,413	967,827	552,048
-37,227	17,439	967,128	551,713
-36,213	17,435	966,298	551,206
-35,198	17,364	965,390	550,435
-34,184	17,455	964,602	550,259
-33,169	17,423	963,586	549,553
-32,154	17,417	962,865	549,100
-31,140	17,476	961,882	548,710
-30,125	17,482	961,149	548,289
-29,111	17,429	960,208	547,560
-28,096	17,369	959,766	547,093
-27,082	17,421	959,011	546,807
-26,067	17,445	958,038	546,309
-25,052	17,413	957,516	545,885
-24,038	17,404	956,781	545,415
-23,023	17,432	956,002	545,040
-22,009	17,508	955,304	544,866
-20,994	17,479	954,739	544,429
-19,979	17,452	954,090	543,951
-18,965	17,417	953,492	543,473
-17,950	17,418	953,109	543,238
-16,936	17,362	952,272	542,558
-15,921	17,357	951,542	542,107
-14,906	17,278	950,689	541,347
-13,892	17,226	950,250	540,909
-12,877	17,253	949,452	540,517
-11,863	17,170	948,893	539,914
-10,848	17,300	948,304	539,971
-9,833	17,358	947,928	539,921
-8,819	17,346	947,285	539,497
-7,804	17,331	946,674	539,078
-6,790	17,311	946,016	538,619
-5,775	17,353	945,600	538,495
-4,760	17,297	944,959	537,930
-3,746	17,329	944,130	537,539
-2,731	17,151	943,543	536,616
-1,717	17,167	942,722	536,178
-0,702	17,139	942,158	535,749
0,313	16,975	941,450	535,635
1,327	19,396	939,305	542,029
2,342	26,350	812,587	487,813
3,356	20,602	516,635	300,169
4,371	-1,253	388,009	196,636
5,386	-3,793	371,682	185,112
6,400	-5,034	365,572	180,497
7,415	-5,745	362,632	178,146
8,429	-6,046	360,851	176,883
9,444	-6,265	359,979	176,170
10,459	-6,399	359,261	175,637
11,473	-6,409	358,656	175,313
12,488	-6,267	358,050	175,175
13,502	-6,416	357,469	174,693
14,517	-6,593	356,718	174,094
15,531	-6,918	356,219	173,439
16,546	-6,835	355,657	173,251
17,561	-6,934	355,202	172,893
18,575	-6,830	354,717	172,768
19,590	-7,097	354,445	172,296
20,604	-6,977	354,260	172,336
21,619	-7,030	353,643	171,956
22,634	-6,939	353,198	171,835
23,648	-7,038	352,955	171,582
24,663	-6,977	352,534	171,435
25,677	-7,027	352,244	171,218
26,692	-7,055	351,928	171,016
27,707	-7,156	351,643	170,740
28,721	-7,078	351,286	170,646
29,736	-7,190	351,034	170,373
30,750	-7,159	350,773	170,269
31,765	-7,264	350,393	169,943
32,780	-7,163	350,110	169,912
33,794	-7,234	349,819	169,670
34,809	-7,144	349,529	169,622
35,823	-7,145	349,144	169,419
36,838	-7,356	348,856	169,012
37,853	-7,247	348,431	168,922
38,867	-7,089	348,147	168,956
39,882	-7,183	347,812	168,667
40,896	-7,317	347,718	168,447
41,911	-7,329	347,425	168,276
42,926	-7,339	346,976	168,032
43,940	-7,349	346,625	167,835
44,955	-7,251	346,443	167,847
45,969	-7,535	346,379	167,465
46,984	-7,547	345,775	167,144
47,999	-7,623	345,472	166,893
49,013	-7,594	345,216	166,789
50,028	-7,777	345,090	166,496
51,042	-7,718	344,718	166,373
52,057	-7,712	344,415	166,219
53,071	-7,793	344,080	165,946
54,086	-7,693	343,723	165,877
55,101	-7,649	343,580	165,845
56,115	-7,656	343,415	165,742
57,130	-7,115	343,278	166,296
58,144	-6,871	343,173	166,516
59,159	-6,889	342,749	166,275
60,174	-6,888	342,700	166,237
61,188	-6,762	342,241	166,147
62,203	-6,884	342,024	165,884
63,217	-6,902	341,765	165,723
64,232	-6,946	341,461	165,509
65,247	-6,782	341,292	165,604
66,261	-6,783	340,940	165,418
67,276	-7,214	340,501	164,689
68,290	-7,373	340,162	164,325
69,305	-7,271	339,911	164,308
70,320	-7,461	339,504	163,876
71,334	-7,293	339,431	164,021
72,349	-7,018	339,427	164,323
73,363	-6,772	339,121	164,444
74,378	-6,712	338,683	164,287
75,393	-6,897	338,599	164,018
76,407	-6,820	337,980	163,792
77,422	-7,016	337,864	163,495
78,436	-7,014	337,676	163,392
79,451	-6,988	337,517	163,331
80,466	-7,222	336,886	162,742
81,480	-7,350	336,763	162,521
82,495	-7,322	336,214	162,274
83,509	-7,569	336,320	162,027
84,524	-7,385	336,007	162,072
85,539	-7,363	335,607	161,890
86,553	-7,486	335,432	161,651
87,568	-7,443	335,062	161,507
88,582	-7,385	334,776	161,422
89,597	-7,419	334,707	161,335
90,611	-7,286	334,589	161,415
91,626	-7,143	334,347	161,447
92,641	-7,137	334,074	161,308
93,655	-7,223	333,669	161,000
94,670	-7,309	333,562	160,836
95,684	-7,281	333,285	160,721
96,699	-7,411	333,129	160,483
97,714	-7,307	332,806	160,431
98,728	-7,450	332,288	160,005
99,743	-7,566	332,188	159,812
100,757	-7,561	331,943	159,685
101,772	-7,495	331,699	159,628
102,787	-7,549	331,523	159,468
103,801	-7,343	331,320	159,589
104,816	-7,345	331,137	159,484
105,830	-7,263	330,893	159,444
106,845	-6,974	330,798	159,709
107,860	-7,207	330,581	159,329
108,874	-7,217	330,217	159,128
109,889	-7,154	329,924	159,043
110,903	-7,274	329,653	158,764
111,918	-7,327	329,308	158,525
112,933	-7,312	329,143	158,447
113,947	-7,005	328,857	158,639
114,962	-7,079	328,840	158,534
115,976	-7,018	328,550	158,448
116,991	-7,120	328,275	158,188
118,006	-7,175	328,135	158,045
119,020	-7,108	327,949	158,015
120,035	-7,010	327,739	158,009
121,049	-7,126	327,697	157,846
122,064	-6,912	327,208	157,834
123,079	-7,157	326,940	157,419
124,093	-7,255	326,669	157,166
125,108	-7,436	326,305	156,776
126,122	-7,569	326,027	156,481
127,137	-7,527	325,664	156,340
128,151	-7,438	325,513	156,351
129,166	-7,449	325,343	156,244
130,181	-7,521	325,203	156,082
131,195	-7,391	324,733	155,986
132,210	-7,367	324,670	155,969
133,224	-7,162	324,534	156,115
134,239	-6,997	324,198	156,121
135,254	-7,197	324,073	155,827
136,268	-7,231	323,696	155,594
137,283	-7,457	323,275	155,130
138,297	-7,524	323,103	154,961
139,312	-7,513	322,919	154,871
140,327	-7,003	322,740	155,329
141,341	-6,858	322,805	155,505
142,356	-6,637	322,628	155,648
143,370	-6,616	322,430	155,562
144,385	-6,635	322,139	155,387
145,400	-6,726	322,064	155,237
146,414	-6,705	321,752	155,095
147,429	-6,732	321,584	154,972
148,443	-6,623	321,256	154,918
149,458	-6,849	321,160	154,612
150,473	-6,646	320,777	154,635
151,487	-6,695	320,489	154,428
152,502	-6,879	320,382	154,163
153,516	-6,724	320,203	154,232
154,531	-6,660	319,898	154,141
155,546	-6,605	319,611	154,049
156,560	-6,992	319,506	153,566
157,575	-7,016	319,146	153,352
158,589	-6,776	319,073	153,564
159,604	-6,738	318,799	153,459
160,619	-6,597	318,683	153,541
161,633	-6,521	318,258	153,404
162,648	-6,618	318,189	153,253
163,662	-6,614	317,918	153,113
164,677	-6,828	317,698	152,764
165,692	-6,764	317,535	152,741
166,706	-6,603	317,269	152,772
167,721	-6,563	317,191	152,764
168,735	-6,495	316,963	152,713
169,750	-6,558	316,838	152,572
170,764	-6,426	316,684	152,625
171,779	-6,482	316,458	152,443
172,794	-6,650	316,294	152,171
173,808	-6,610	315,914	152,017
174,823	-7,148	315,416	151,190
175,837	-7,279	315,207	150,937
176,852	-6,775	315,351	151,529
177,867	-6,425	315,042	151,739
178,881	-6,670	314,934	151,414
179,896	-6,541	314,760	151,454
180,910	-6,317	314,423	151,516
181,925	-6,399	314,202	151,309
182,940	-6,430	314,089	151,208
183,954	-6,501	313,975	151,065
184,969	-6,492	313,664	150,911
185,983	-6,514	313,433	150,764
186,998	-6,471	313,304	150,733
188,013	-6,336	312,897	150,667
189,027	-6,418	312,719	150,480
190,042	-6,341	312,661	150,521
191,056	-6,252	312,437	150,493
192,071	-6,133	312,143	150,463
193,086	-6,242	312,074	150,302
194,100	-6,424	311,914	150,020
195,115	-6,309	311,504	149,930
196,129	-6,406	311,358	149,745
197,144	-6,233	311,045	149,763
198,159	-6,362	310,771	149,482
199,173	-6,242	310,666	149,544
200,188	-6,212	310,478	149,471
201,202	-6,500	310,020	148,936
202,217	-7,251	309,705	147,987
203,232	-7,204	309,523	147,937
204,246	-6,608	309,374	148,474
205,261	-6,424	309,246	148,591
206,275	-6,439	309,034	148,461
207,290	-6,353	309,003	148,522
208,304	-6,264	308,776	148,492
209,319	-6,519	308,786	148,218
210,334	-6,380	308,296	148,115
211,348	-6,555	308,089	147,820
212,363	-6,308	307,873	147,960
213,377	-6,388	307,747	147,802
214,392	-6,502	307,592	147,596
215,407	-6,764	307,169	147,110
216,421	-6,939	306,858	146,766
217,436	-6,994	306,542	146,546
218,450	-6,873	306,475	146,625
219,465	-6,617	306,443	146,861
220,480	-6,663	306,201	146,684
221,494	-6,577	305,952	146,641
222,509	-6,615	305,796	146,514
223,523	-6,483	305,650	146,566
224,538	-6,321	305,402	146,601
225,553	-6,325	305,372	146,570
226,567	-6,328	305,268	146,504
227,582	-6,407	304,976	146,269
228,596	-6,161	304,822	146,435
229,611	-6,157	304,670	146,353
230,626	-6,416	304,411	145,950
231,640	-6,888	303,970	145,243
232,655	-7,219	303,572	144,702
233,669	-7,314	303,405	144,512
234,684	-7,153	303,189	144,560
235,699	-6,955	302,929	144,626
236,713	-7,049	302,852	144,480
237,728	-6,950	302,717	144,503
238,742	-6,784	302,563	144,587
239,757	-6,427	302,325	144,823
240,772	-6,501	302,259	144,703
241,786	-6,585	302,139	144,547
242,801	-6,849	301,764	144,087
243,815	-6,916	301,677	143,965
244,830	-6,669	301,376	144,058
245,844	-6,736	301,147	143,868
246,859	-6,763	300,929	143,724
247,874	-6,807	300,947	143,675
248,888	-6,789	300,826	143,622
249,903	-6,496	300,648	143,821
250,917	-6,384	300,336	143,772
251,932	-6,023	300,376	144,142
252,947	-5,083	300,671	145,219
253,961	-5,038	300,438	145,139
254,976	-4,299	300,484	145,893
255,990	-3,607	300,647	146,657
257,005	-3,683	300,681	146,584
258,020	-1,332	301,389	149,288
259,034	-0,509	301,570	150,195
260,049	-0,310	301,411	150,304
261,063	0,075	301,352	150,649
262,078	0,490	301,279	151,017
263,093	0,476	301,152	150,925
264,107	0,332	300,925	150,653
265,122	0,583	300,694	150,776
266,136	0,470	300,599	150,602
267,151	0,727	300,433	150,763
268,166	0,728	300,144	150,605
269,180	0,671	299,908	150,416
270,195	0,504	299,900	150,232
271,209	0,489	299,694	150,100
272,224	0,487	299,284	149,879
273,239	0,653	299,254	150,017
274,253	0,772	298,910	149,950
275,268	0,607	298,814	149,724
276,282	0,611	298,587	149,600
277,297	0,694	298,412	149,582
278,312	0,553	298,352	149,399
279,326	0,744	298,045	149,422
280,341	0,633	297,902	149,226
281,355	0,667	297,650	149,120
282,370	0,590	297,637	149,024
283,384	0,688	297,241	148,909
284,399	0,540	297,047	148,652
285,414	0,502	296,894	148,525
286,428	0,391	296,672	148,291
287,443	0,484	296,596	148,331
288,457	0,637	296,404	148,374
289,472	0,596	296,113	148,174
290,487	0,499	295,937	147,977
291,501	0,494	295,648	147,814
292,516	0,574	295,631	147,872
293,530	0,784	295,299	147,899
294,545	0,620	295,067	147,609
295,560	0,573	295,085	147,558
296,574	0,570	294,708	147,354
297,589	0,400	294,673	147,156
298,603	0,409	294,423	147,027
299,618	0,513	294,227	147,018
300,633	0,629	294,057	147,034
301,647	0,581	293,849	146,869
302,662	0,677	293,598	146,825
303,676	0,546	293,648	146,708
304,691	0,445	293,425	146,485
305,706	0,536	293,043	146,370
306,720	0,670	292,945	146,439
307,735	0,624	292,739	146,278
308,749	0,547	292,572	146,107
309,764	0,559	292,396	146,017
310,779	0,531	292,235	145,896
311,793	0,558	291,878	145,732
312,808	0,605	291,607	145,629
313,822	0,483	291,567	145,478
314,837	0,496	291,362	145,375
315,852	0,595	291,176	145,365
316,866	0,715	291,039	145,400
317,881	0,664	290,723	145,180
318,895	0,536	290,607	144,985
319,910	0,589	290,326	144,884
320,925	0,722	290,221	144,947
321,939	0,630	290,039	144,754
322,954	0,516	289,995	144,609
323,968	0,541	289,892	144,568
324,983	0,582	289,584	144,441
325,997	0,723	289,281	144,413
327,012	0,591	289,182	144,224
328,027	0,618	288,886	144,089
329,041	0,702	288,691	144,060
330,056	0,543	288,557	143,828
331,070	0,738	288,447	143,947
332,085	0,602	288,260	143,710
333,100	0,727	287,891	143,634
334,114	0,764	287,890	143,655
335,129	0,659	287,611	143,403
336,143	0,579	287,381	143,200
337,158	0,624	287,224	143,151
338,173	0,642	287,046	143,067
339,187	0,671	287,034	143,076
340,202	0,468	286,771	142,739
341,216	0,742	286,486	142,844
342,231	0,622	286,475	142,713
343,246	0,765	286,173	142,685
344,260	0,793	286,091	142,658
345,275	0,743	285,892	142,499
346,289	0,907	285,486	142,438
347,304	0,807	285,391	142,284
348,319	0,642	285,293	142,066
349,333	0,655	285,069	141,954
350,348	0,666	284,961	141,898
351,362	0,761	284,835	141,913
352,377	0,756	284,583	141,770
353,392	0,828	284,444	141,755
354,406	0,611	284,290	141,462
355,421	192,726	1326,189	1399,621
356,435	156,142	1453,140	1399,644
