DTS Sentinel unit serial number:	SN410029Multiplexer serial number:	ORYXHardware model number:	OX2-SRSoftware version number:	ORYX F/W v4,00 Oryx Data Collector v3.7.2.0data status	okinstallation	B4 Nyhavnadifferential loss correction	single-endedforward channel	channel 2reverse channel	N/Adate	2023/12/18time	18:00:13forward acquisition time	300,00reverse acquisition time	0,00gamma	499,1914k internal	0,3124k external	0,3124temperature offset calibration	1,0000default loss term (dB/km)	0,3820temperature slope calibration	1,0000multiplexer offset coefficient	1,0000multiplexer slope coefficient	1,0000fibre end	0,00T internal ref (°C)	21,87T ext. ref 1 (°C)	7,23T ext. ref 2 (°C)	7,26length (m)	temperature (°C)	Stokes	anti-Stokes-744,400	346,288	0,025	-0,037
-743,385	83,843	-0,120	0,098
-742,371	-86,714	0,068	-0,015
-741,356	117,513	-0,142	0,131
-740,342	10,299	-0,074	-0,042
-739,327	-32,538	-0,187	0,077
-738,312	75,778	0,094	-0,074
-737,298	-53,987	-0,293	0,099
-736,283	-66,632	-0,161	-0,047
-735,269	-47,639	-0,217	0,078
-734,254	93,309	0,057	-0,048
-733,239	-169,196	-0,483	-0,013
-732,225	394,123	0,057	-0,089
-731,210	101,276	-0,060	0,052
-730,196	294,204	-0,038	0,052
-729,181	105,686	-0,017	-0,015
-728,167	-200,000	-0,016	0,059
-727,152	-200,000	0,010	-0,044
-726,137	800,000	-0,043	-0,095
-725,123	162,474	-0,052	-0,054
-724,108	48,319	-0,106	-0,074
-723,094	-114,992	-0,035	0,005
-722,079	262,182	0,104	-0,134
-721,064	7,150	-0,109	-0,060
-720,050	101,569	-0,069	0,060
-719,035	198,120	0,102	-0,116
-718,021	-200,000	0,014	-0,074
-717,006	-111,957	-0,124	0,018
-715,991	-34,265	-0,125	-0,051
-714,977	-200,000	-0,008	0,056
-713,962	81,757	-0,051	-0,041
-712,948	66,194	0,086	-0,065
-711,933	800,000	-0,041	0,095
-710,918	-76,016	-0,114	-0,030
-709,904	216,612	0,037	0,044
-708,889	-44,057	-0,051	-0,019
-707,875	-200,000	-0,021	0,097
-706,860	425,779	-0,050	0,080
-705,845	-198,564	0,064	-0,000
-704,831	-18,063	-0,081	0,037
-703,816	262,278	-0,036	0,047
-702,802	148,292	0,063	-0,063
-701,787	-200,000	-0,008	-0,039
-700,772	-16,909	-0,113	-0,053
-699,758	-38,985	-0,147	0,057
-698,743	800,000	-0,006	0,015
-697,729	800,000	0,038	0,109
-696,714	-200,000	-0,015	0,088
-695,699	49,463	0,039	0,027
-694,685	-77,509	-0,103	0,026
-693,670	7,396	-0,139	0,077
-692,656	-200,000	-0,013	0,167
-691,641	21,964	0,101	0,061
-690,627	129,050	-0,052	-0,049
-689,612	-200,000	0,018	-0,062
-688,597	350,700	-0,057	-0,085
-687,583	-3,410	-0,164	-0,084
-686,568	677,531	-0,086	-0,167
-685,554	178,190	-0,112	-0,122
-684,539	800,000	0,011	0,027
-683,524	-29,159	-0,044	0,019
-682,510	-11,996	-0,138	-0,067
-681,495	800,000	-0,045	-0,143
-680,481	55,824	-0,137	-0,099
-679,466	-168,570	-0,084	0,002
-678,451	800,000	-0,023	-0,059
-677,437	577,538	0,039	0,072
-676,422	25,181	0,038	0,023
-675,408	-200,000	0,005	0,036
-674,393	200,864	0,033	-0,038
-673,378	-200,000	0,011	0,075
-672,364	374,560	-0,058	-0,088
-671,349	800,000	0,007	0,015
-670,335	64,540	0,112	-0,083
-669,320	-200,000	0,010	0,055
-668,305	-200,000	-0,013	-0,072
-667,291	47,042	-0,098	0,067
-666,276	-128,935	-0,184	0,019
-665,262	-21,715	0,002	0,001
-664,247	-200,000	0,026	-0,087
-663,232	-129,196	-0,118	0,012
-662,218	303,239	0,027	-0,037
-661,203	800,000	0,009	0,020
-660,189	-200,000	-0,025	-0,085
-659,174	58,072	-0,123	-0,089
-658,159	-200,000	0,027	0,117
-657,145	-24,761	-0,097	-0,043
-656,130	353,369	0,040	0,060
-655,116	-83,762	0,073	-0,017
-654,101	108,094	0,067	0,059
-653,086	-114,060	-0,186	0,027
-652,072	800,000	0,019	0,052
-651,057	-200,000	0,067	-0,237
-650,043	-30,285	-0,120	-0,050
-649,028	-200,000	0,014	-0,056
-648,014	-200,000	-0,016	-0,082
-646,999	-124,019	0,039	-0,004
-645,984	-200,000	-0,015	0,105
-644,970	132,578	-0,039	-0,037
-643,955	-129,844	-0,149	-0,015
-642,941	800,000	-0,034	-0,083
-641,926	-200,000	-0,020	0,098
-640,911	800,000	0,011	-0,031
-639,897	525,381	-0,017	0,031
-638,882	-117,561	-0,115	-0,015
-637,868	-41,410	-0,041	0,016
-636,853	154,587	-0,069	-0,070
-635,838	99,982	-0,119	0,102
-634,824	364,985	-0,082	-0,124
-633,809	-38,821	0,026	-0,010
-632,795	-200,000	0,015	0,084
-631,780	287,133	0,046	-0,062
-630,765	800,000	-0,024	-0,075
-629,751	-68,990	-0,135	0,038
-628,736	-121,692	-0,106	0,013
-627,722	352,697	0,129	0,190
-626,707	99,346	0,157	0,135
-625,692	-200,000	-0,009	-0,135
-624,678	168,761	-0,094	0,100
-623,663	-118,909	0,018	0,002
-622,649	-175,432	-0,063	0,001
-621,634	272,993	-0,029	0,038
-620,619	800,000	-0,021	-0,043
-619,605	172,233	-0,048	0,052
-618,590	800,000	-0,017	0,054
-617,576	-200,000	-0,020	0,079
-616,561	166,836	0,078	0,083
-615,546	630,391	-0,068	-0,129
-614,532	800,000	0,035	-0,115
-613,517	800,000	-0,039	-0,125
-612,503	184,388	0,122	-0,134
-611,488	38,581	-0,104	0,069
-610,474	-153,042	0,081	0,004
-609,459	-39,091	0,115	0,045
-608,444	-200,000	-0,038	0,149
-607,430	26,547	0,016	-0,010
-606,415	116,579	-0,110	-0,100
-605,401	-79,317	0,092	0,023
-604,386	328,890	0,083	-0,118
-603,371	-200,000	0,013	0,139
-602,357	800,000	-0,010	0,026
-601,342	246,004	-0,086	-0,107
-600,328	-112,419	-0,076	-0,011
-599,313	619,919	-0,050	-0,094
-598,298	-10,655	-0,131	-0,064
-597,284	8,236	0,159	0,088
-596,269	287,825	0,115	0,155
-595,255	-111,303	-0,028	0,004
-594,240	800,000	0,052	-0,124
-593,225	-4,136	-0,139	0,071
-592,211	-146,427	-0,111	-0,007
-591,196	154,220	-0,077	0,078
-590,182	46,448	-0,064	0,044
-589,167	32,947	0,071	0,045
-588,152	-48,672	-0,069	-0,025
-587,138	800,000	0,017	0,047
-586,123	-94,419	-0,098	0,020
-585,109	-164,875	-0,090	0,003
-584,094	-123,523	0,191	-0,022
-583,079	800,000	0,012	0,028
-582,065	40,066	0,218	0,145
-581,050	-54,567	-0,074	0,025
-580,036	-7,423	-0,072	0,036
-579,021	402,672	-0,086	-0,134
-578,006	272,763	0,061	0,080
-576,992	-127,229	0,076	-0,008
-575,977	-110,183	-0,140	0,021
-574,963	247,574	-0,040	-0,050
-573,948	-200,000	-0,002	-0,101
-572,934	5,347	-0,149	0,081
-571,919	183,268	-0,063	-0,069
-570,904	-200,000	-0,003	-0,012
-569,890	-200,000	-0,005	-0,081
-568,875	741,332	0,053	-0,107
-567,861	-200,000	-0,017	0,063
-566,846	35,934	-0,142	0,092
-565,831	306,601	-0,051	-0,070
-564,817	595,685	0,016	-0,030
-563,802	-200,000	-0,015	-0,074
-562,788	-3,738	0,016	-0,008
-561,773	-200,000	-0,021	0,151
-560,758	277,631	0,046	-0,061
-559,744	462,747	0,078	0,130
-558,729	157,772	0,012	-0,012
-557,715	-166,291	0,009	0,000
-556,700	-114,622	-0,094	-0,013
-555,685	-200,000	0,018	-0,077
-554,671	113,929	0,077	-0,070
-553,656	800,000	0,020	0,048
-552,642	-194,061	-0,087	-0,001
-551,627	-64,253	-0,080	-0,024
-550,612	25,216	0,024	0,015
-549,598	-100,668	-0,153	0,028
-548,583	-41,257	0,100	0,038
-547,569	-0,448	0,153	-0,080
-546,554	-200,000	-0,002	-0,015
-545,539	-44,476	0,121	0,045
-544,525	-95,221	-0,069	-0,014
-543,510	285,312	-0,030	0,040
-542,496	141,023	0,016	-0,015
-541,481	100,247	-0,092	-0,079
-540,466	-200,000	-0,025	-0,105
-539,452	-68,546	0,100	-0,029
-538,437	-200,000	-0,021	-0,092
-537,423	-200,000	0,014	0,087
-536,408	122,236	0,023	-0,021
-535,393	-160,813	0,125	-0,005
-534,379	-38,760	0,016	-0,006
-533,364	-200,000	-0,039	0,173
-532,350	800,000	0,044	0,102
-531,335	135,466	0,056	0,053
-530,321	800,000	-0,046	-0,099
-529,306	-101,562	0,052	-0,009
-528,291	-183,628	-0,063	0,001
-527,277	-200,000	0,003	-0,093
-526,262	81,642	-0,117	0,094
-525,248	189,369	0,113	0,125
-524,233	-78,364	0,039	-0,010
-523,218	-46,948	0,159	0,057
-522,204	-64,925	-0,068	0,020
-521,189	-200,000	-0,005	-0,050
-520,175	-200,000	0,043	-0,224
-519,160	33,036	0,035	0,022
-518,145	16,558	-0,065	-0,038
-517,131	-153,445	0,074	-0,004
-516,116	-131,574	-0,044	-0,004
-515,102	-41,356	-0,125	-0,047
-514,087	-67,704	-0,123	-0,035
-513,072	72,386	-0,107	0,082
-512,058	-200,000	0,007	-0,052
-511,043	50,898	0,067	-0,047
-510,029	-200,000	-0,018	-0,096
-509,014	44,376	0,042	-0,028
-507,999	511,878	0,058	-0,100
-506,985	50,145	-0,017	0,012
-505,970	800,000	0,012	0,030
-504,956	700,376	-0,045	-0,088
-503,941	181,745	0,053	0,058
-502,926	-200,000	0,029	-0,098
-501,912	79,536	-0,112	-0,089
-500,897	-200,000	-0,013	-0,046
-499,883	674,473	0,060	-0,116
-498,868	-16,177	-0,120	-0,056
-497,853	-86,776	-0,068	-0,015
-496,839	239,935	-0,061	0,075
-495,824	-172,086	0,147	-0,003
-494,810	3,935	0,038	0,021
-493,795	20,737	-0,090	-0,053
-492,781	-76,579	-0,174	0,045
-491,766	-200,000	0,008	-0,086
-490,751	800,000	-0,054	-0,165
-489,737	-200,000	-0,019	0,115
-488,722	-7,520	0,135	-0,067
-487,708	9,796	0,157	0,087
-486,693	54,733	-0,024	-0,017
-485,678	142,163	0,068	-0,067
-484,664	800,000	0,048	-0,107
-483,649	800,000	-0,012	-0,035
-482,635	496,952	-0,039	-0,066
-481,620	103,156	0,171	0,148
-480,605	800,000	0,019	-0,045
-479,591	18,276	0,117	-0,069
-478,576	-137,257	-0,066	0,005
-477,562	-15,346	-0,037	-0,017
-476,547	-69,987	-0,194	-0,054
-475,532	-200,000	0,002	0,158
-474,518	78,973	0,033	0,026
-473,503	-200,000	0,006	0,083
-472,489	-5,510	0,085	-0,043
-471,474	-200,000	-0,008	0,075
-470,459	-111,885	-0,112	0,016
-469,445	237,521	-0,069	-0,084
-468,430	171,468	-0,062	-0,065
-467,416	31,664	0,111	-0,070
-466,401	123,984	0,064	0,059
-465,386	418,438	0,044	0,070
-464,372	-79,373	-0,067	-0,017
-463,357	800,000	-0,003	0,008
-462,343	-133,765	-0,093	-0,008
-461,328	-22,414	-0,085	0,038
-460,313	-200,000	0,029	0,133
-459,299	-41,202	0,040	-0,015
-458,284	-14,297	0,068	0,032
-457,270	-200,000	-0,018	0,064
-456,255	-200,000	-0,009	0,042
-455,241	62,888	-0,043	0,031
-454,226	234,987	-0,030	-0,036
-453,211	-200,000	0,010	-0,050
-452,197	253,758	0,025	-0,031
-451,182	-114,438	0,091	-0,013
-450,168	555,629	-0,054	0,096
-449,153	-4,516	0,161	0,082
-448,138	46,983	-0,177	-0,121
-447,124	-200,000	-0,040	-0,154
-446,109	466,331	0,055	0,090
-445,095	88,308	0,053	-0,043
-444,080	800,000	0,028	-0,066
-443,065	-200,000	0,012	0,107
-442,051	-200,000	0,010	0,165
-441,036	800,000	-0,052	0,137
-440,022	206,742	0,023	0,026
-439,007	198,627	0,060	-0,068
-437,992	364,474	0,088	-0,131
-436,978	-97,346	0,151	0,029
-435,963	69,592	0,090	0,068
-434,949	305,012	-0,059	0,081
-433,934	-200,000	-0,036	-0,156
-432,919	-121,235	-0,056	0,007
-431,905	-200,000	0,004	0,049
-430,890	158,887	0,045	-0,046
-429,876	800,000	0,052	0,132
-428,861	-126,148	-0,066	0,007
-427,846	-200,000	-0,010	0,035
-426,832	-200,000	-0,001	-0,066
-425,817	-200,000	0,009	-0,063
-424,803	-41,823	0,188	0,070
-423,788	-200,000	-0,013	-0,049
-422,773	-200,000	-0,008	0,081
-421,759	-164,305	0,057	-0,002
-420,744	-5,273	0,116	-0,059
-419,730	4,811	0,041	-0,022
-418,715	-200,000	0,006	-0,028
-417,701	71,752	0,058	-0,044
-416,686	-148,941	0,140	-0,008
-415,671	374,993	-0,013	0,020
-414,657	-85,408	0,040	0,009
-413,642	-66,586	-0,097	0,028
-412,628	-107,507	-0,026	-0,004
-411,613	-200,000	-0,024	-0,083
-410,598	-200,000	-0,038	-0,147
-409,584	46,930	-0,036	0,025
-408,569	-200,000	-0,021	0,112
-407,555	-114,333	-0,150	-0,021
-406,540	-47,992	0,061	0,022
-405,525	186,934	-0,129	-0,141
-404,511	800,000	0,059	-0,136
-403,496	800,000	0,041	0,108
-402,482	-3,976	0,136	0,069
-401,467	-173,743	-0,058	-0,001
-400,452	-95,234	0,091	0,018
-399,438	-200,000	-0,016	0,063
-398,423	-200,000	-0,030	0,187
-397,409	52,353	-0,051	0,035
-396,394	-140,754	-0,039	0,003
-395,379	82,605	-0,060	0,048
-394,365	656,448	0,137	-0,261
-393,350	-200,000	-0,014	0,055
-392,336	333,113	-0,016	-0,023
-391,321	-29,575	-0,030	-0,012
-390,306	-200,000	-0,032	-0,118
-389,292	116,234	-0,043	-0,038
-388,277	800,000	-0,010	-0,023
-387,263	-65,427	0,037	-0,011
-386,248	103,315	0,098	-0,084
-385,233	88,581	0,028	-0,023
-384,219	-200,000	-0,004	0,030
-383,204	179,669	0,116	-0,125
-382,190	-146,227	-0,100	-0,006
-381,175	-10,917	0,115	-0,056
-380,160	800,000	0,035	-0,102
-379,146	-14,510	0,075	-0,035
-378,131	-94,295	0,127	0,025
-377,117	32,609	0,108	-0,068
-376,102	800,000	-0,023	-0,073
-375,088	-200,000	-0,005	-0,075
-374,073	438,477	0,047	-0,075
-373,058	92,106	0,052	0,043
-372,044	800,000	0,006	-0,014
-371,029	-100,430	0,067	0,012
-370,015	169,182	0,087	0,091
-369,000	800,000	0,012	0,039
-367,985	-200,000	-0,001	-0,167
-366,971	-200,000	0,003	0,132
-365,956	361,766	0,066	0,098
-364,942	34,969	-0,087	0,056
-363,927	92,247	0,101	0,084
-362,912	533,600	-0,030	-0,052
-361,898	800,000	0,060	-0,165
-360,883	-200,000	-0,011	0,045
-359,869	-93,759	-0,113	-0,023
-358,854	33,584	-0,111	0,071
-357,839	89,131	0,077	0,063
-356,825	-46,614	0,090	-0,032
-355,810	-200,000	-0,013	-0,079
-354,796	521,482	-0,015	-0,026
-353,781	156,012	-0,053	0,053
-352,766	459,796	-0,106	-0,175
-351,752	303,135	0,042	0,057
-350,737	799,982	0,087	0,177
-349,723	-62,324	0,137	-0,042
-348,708	311,272	-0,032	0,044
-347,693	-200,000	-0,001	-0,064
-346,679	101,533	-0,128	-0,110
-345,664	-200,000	0,011	-0,079
-344,650	430,229	-0,053	0,084
-343,635	-200,000	-0,006	0,117
-342,620	-200,000	-0,003	0,074
-341,606	-115,526	-0,044	0,006
-340,591	15,417	-0,039	0,022
-339,577	-200,000	0,026	-0,183
-338,562	800,000	-0,016	0,039
-337,548	-200,000	-0,012	-0,078
-336,533	-55,521	0,038	-0,012
-335,518	773,074	0,039	0,078
-334,504	219,955	0,047	0,055
-333,489	45,139	0,066	0,045
-332,475	800,000	0,011	-0,028
-331,460	-28,835	-0,068	0,029
-330,445	-85,700	-0,079	-0,018
-329,431	717,435	0,027	-0,053
-328,416	-200,000	0,008	0,132
-327,402	-19,869	-0,153	0,069
-326,387	800,000	0,008	-0,025
-325,372	288,567	-0,090	-0,120
-324,358	54,643	0,072	0,051
-323,343	-69,389	0,040	-0,011
-322,329	-162,702	0,112	-0,004
-321,314	-200,000	0,055	0,199
-320,299	-162,127	0,142	-0,005
-319,285	8,781	-0,118	0,065
-318,270	82,755	0,064	0,051
-317,256	343,387	-0,072	-0,103
-316,241	-200,000	0,002	-0,028
-315,226	800,000	-0,042	-0,124
-314,212	73,130	0,156	0,119
-313,197	800,000	-0,032	0,101
-312,183	-22,279	-0,044	0,019
-311,168	243,817	0,045	-0,056
-310,153	376,722	0,036	0,054
-309,139	-24,645	-0,084	-0,036
-308,124	-94,730	0,138	0,027
-307,110	-8,398	0,097	0,048
-306,095	42,638	-0,028	0,018
-305,080	124,427	0,078	0,072
-304,066	-102,523	-0,103	-0,018
-303,051	-110,669	-0,137	0,021
-302,037	505,153	0,082	0,140
-301,022	577,725	0,036	-0,065
-300,008	-0,675	0,064	0,033
-298,993	-167,786	-0,098	-0,003
-297,978	800,000	0,020	0,053
-296,964	44,553	-0,015	-0,010
-295,949	194,861	0,032	-0,035
-294,935	-200,000	0,005	0,092
-293,920	212,956	-0,040	0,046
-292,905	558,173	0,024	-0,042
-291,891	105,384	0,090	0,078
-290,876	-18,742	0,051	0,023
-289,862	-112,660	-0,115	0,017
-288,847	-200,000	-0,002	0,168
-287,832	18,346	0,102	-0,059
-286,818	-0,997	0,062	0,032
-285,803	131,901	0,028	-0,026
-284,789	-200,000	0,028	0,112
-283,774	162,656	0,074	-0,076
-282,759	-46,986	-0,116	0,041
-281,745	-70,665	-0,121	0,033
-280,730	-200,000	0,016	0,118
-279,716	-13,654	-0,109	-0,052
-278,701	242,480	0,078	-0,096
-277,686	-54,710	0,199	0,065
-276,672	-46,112	-0,075	-0,027
-275,657	105,185	-0,123	0,107
-274,643	800,000	-0,009	-0,025
-273,628	114,044	0,084	-0,075
-272,613	56,385	-0,099	0,070
-271,599	334,234	0,030	-0,042
-270,584	800,000	0,007	-0,019
-269,570	-200,000	0,001	0,123
-268,555	472,884	0,021	-0,035
-267,540	23,659	-0,130	0,078
-266,526	20,313	0,125	0,074
-265,511	800,000	-0,022	0,067
-264,497	-200,000	0,058	0,206
-263,482	-13,985	0,077	0,036
-262,467	-126,654	0,043	-0,005
-261,453	528,061	0,033	0,057
-260,438	-200,000	0,012	0,170
-259,424	265,838	-0,076	-0,097
-258,409	166,768	-0,176	-0,182
-257,395	-200,000	0,015	-0,107
-256,380	800,000	0,044	-0,105
-255,365	382,636	0,051	0,077
-254,351	567,624	-0,039	-0,070
-253,336	-200,000	-0,006	0,022
-252,322	-29,883	-0,197	-0,082
-251,307	208,066	-0,052	0,060
-250,292	-92,612	0,068	0,014
-249,278	73,470	0,124	0,095
-248,263	124,197	0,167	0,153
-247,249	658,966	0,088	0,167
-246,234	-200,000	-0,031	0,146
-245,219	-6,619	0,057	-0,028
-244,205	-24,688	-0,061	-0,026
-243,190	-200,000	-0,008	-0,026
-242,176	-72,046	-0,067	0,018
-241,161	222,134	0,041	0,048
-240,146	800,000	0,058	0,141
-239,132	318,480	-0,042	0,058
-238,117	133,556	-0,101	-0,096
-237,103	459,162	0,113	-0,185
-236,088	-104,031	0,082	0,014
-235,073	178,619	-0,134	-0,143
-234,059	70,546	0,052	0,039
-233,044	583,143	0,046	-0,083
-232,030	-200,000	0,015	0,113
-231,015	-119,212	-0,098	0,012
-230,000	-166,081	-0,244	-0,007
-228,986	303,199	0,031	0,042
-227,971	139,652	0,119	0,115
-226,957	-162,914	0,061	0,002
-225,942	-33,337	-0,060	0,024
-224,927	23,103	-0,136	0,081
-223,913	-200,000	-0,000	0,034
-222,898	-200,000	0,045	-0,174
-221,884	127,289	0,029	0,027
-220,869	366,635	-0,041	0,060
-219,855	-33,548	0,053	0,021
-218,840	-200,000	0,014	-0,146
-217,825	47,231	-0,091	-0,062
-216,811	-200,000	-0,000	-0,067
-215,796	-200,000	0,005	-0,060
-214,782	158,007	-0,032	-0,032
-213,767	236,041	-0,058	-0,070
-212,752	517,784	-0,032	0,054
-211,738	-200,000	-0,000	0,004
-210,723	148,916	-0,036	0,035
-209,709	251,808	-0,012	-0,015
-208,694	251,469	0,042	0,052
-207,679	800,000	-0,023	0,053
-206,665	461,644	-0,047	0,077
-205,650	317,054	0,085	-0,117
-204,636	800,000	0,079	0,165
-203,621	-143,082	0,078	0,005
-202,606	800,000	-0,060	-0,129
-201,592	-60,975	-0,120	-0,037
-200,577	-34,760	0,050	-0,020
-199,563	7,496	-0,147	-0,080
-198,548	-88,065	0,061	0,013
-197,533	655,482	0,080	0,150
-196,519	800,000	-0,021	0,067
-195,504	-160,982	-0,044	0,002
-194,490	-200,000	-0,017	-0,107
-193,475	-200,000	-0,024	0,153
-192,460	800,000	-0,025	-0,064
-191,446	-200,000	0,006	-0,057
-190,431	-180,007	0,060	-0,001
-189,417	-200,000	0,039	0,133
-188,402	-27,765	-0,113	-0,047
-187,387	-200,000	-0,012	-0,096
-186,373	448,616	-0,083	-0,133
-185,358	800,000	0,032	-0,098
-184,344	-200,000	0,006	-0,126
-183,329	800,000	0,055	0,133
-182,315	800,000	-0,057	0,151
-181,300	-79,150	-0,036	-0,009
-180,285	-200,000	0,003	-0,116
-179,271	800,000	-0,023	-0,070
-178,256	101,738	-0,085	-0,072
-177,242	218,426	0,105	-0,123
-176,227	-200,000	0,004	-0,055
-175,212	-43,101	0,113	-0,042
-174,198	800,000	0,043	0,109
-173,183	115,520	-0,088	-0,079
-172,169	-90,956	0,141	0,029
-171,154	34,807	-0,033	0,021
-170,139	800,000	0,055	-0,126
-169,125	339,893	0,029	0,041
-168,110	-200,000	0,003	0,074
-167,096	190,331	-0,093	0,102
-166,081	-200,000	0,018	-0,096
-165,066	4,764	-0,153	-0,082
-164,052	-69,525	-0,066	-0,018
-163,037	-200,000	0,004	-0,016
-162,023	-36,564	-0,111	0,043
-161,008	204,461	0,053	-0,060
-159,993	-101,413	0,171	0,030
-158,979	472,229	0,019	0,031
-157,964	500,287	-0,114	-0,192
-156,950	52,473	-0,096	-0,066
-155,935	338,621	0,091	0,129
-154,920	176,166	0,062	-0,066
-153,906	79,244	-0,071	0,055
-152,891	-200,000	-0,014	0,110
-151,877	-200,000	0,029	0,137
-150,862	800,000	0,030	-0,062
-149,847	28,677	-0,128	0,079
-148,833	-200,000	0,041	0,152
-147,818	-150,618	-0,037	0,002
-146,804	-145,314	-0,043	-0,003
-145,789	-165,478	-0,085	0,003
-144,775	452,411	0,037	-0,060
-143,760	106,695	-0,081	-0,070
-142,745	483,248	-0,045	-0,075
-141,731	-174,550	-0,119	-0,002
-140,716	-70,865	0,041	0,011
-139,702	602,002	-0,015	0,027
-138,687	-200,000	-0,012	-0,098
-137,672	-200,000	0,003	-0,111
-136,658	-200,000	-0,010	-0,158
-135,643	800,000	0,064	0,197
-134,629	296,091	0,061	-0,081
-133,614	116,150	-0,095	0,085
-132,599	147,709	0,024	-0,023
-131,585	-194,121	0,064	-0,000
-130,570	-200,000	0,010	-0,063
-129,556	-104,139	-0,038	-0,006
-128,541	-113,853	-0,065	0,009
-127,526	224,421	0,029	0,034
-126,512	-3,425	-0,063	0,032
-125,497	800,000	-0,025	0,066
-124,483	-60,453	-0,038	-0,012
-123,468	188,731	-0,174	0,190
-122,453	218,921	0,071	0,083
-121,439	467,151	0,031	-0,050
-120,424	-98,238	-0,069	0,013
-119,410	106,000	0,064	0,055
-118,395	-200,000	0,013	-0,116
-117,380	-200,000	-0,025	-0,101
-116,366	-3,402	-0,066	-0,033
-115,351	-200,000	0,019	-0,084
-114,337	-147,469	-0,088	0,005
-113,322	-200,000	-0,032	-0,145
-112,307	14,448	-0,085	-0,048
-111,293	494,547	-0,071	0,120
-110,278	-92,243	-0,020	0,004
-109,264	-200,000	0,030	0,174
-108,249	520,954	0,038	0,066
-107,234	150,692	-0,020	0,020
-106,220	345,641	0,017	-0,024
-105,205	33,796	-0,109	0,069
-104,191	-151,668	0,037	0,002
-103,176	127,443	-0,105	0,097
-102,162	244,571	-0,085	0,104
-101,147	-31,637	0,091	-0,037
-100,132	66,340	-0,082	-0,060
-99,118	46,860	-0,104	-0,070
-98,103	333,729	-0,055	0,077
-97,089	212,367	0,034	-0,039
-96,074	-184,420	0,119	-0,001
-95,059	-106,491	-0,154	0,025
-94,045	-162,070	0,157	0,006
-93,030	-68,988	-0,111	-0,031
-92,016	26,812	0,040	0,024
-91,001	-13,038	0,065	-0,031
-89,986	342,789	-0,080	0,114
-88,972	-200,000	0,001	0,030
-87,957	737,313	-0,041	-0,080
-86,943	555,581	-0,045	-0,078
-85,928	-200,000	0,011	-0,073
-84,913	-200,000	0,002	-0,049
-83,899	-200,000	0,003	-0,054
-82,884	-148,167	0,152	-0,009
-81,870	-200,000	0,013	0,045
-80,855	800,000	-0,004	-0,009
-79,840	800,000	0,019	-0,046
-78,826	498,496	-0,075	0,126
-77,811	197,712	-0,047	-0,052
-76,797	284,648	-0,103	0,135
-75,782	-200,000	0,011	0,070
-74,767	135,712	0,051	0,048
-73,753	610,496	0,090	0,164
-72,738	800,000	-0,052	0,161
-71,724	-144,135	0,051	-0,003
-70,709	-16,937	0,041	0,019
-69,694	9,643	-0,046	0,025
-68,680	332,201	0,037	-0,053
-67,665	-125,151	-0,030	-0,003
-66,651	800,000	0,024	0,054
-65,636	800,000	-0,020	0,047
-64,622	628,988	-0,053	-0,097
-63,607	38,265	-0,074	0,047
-62,592	85,555	0,129	0,103
-61,578	-1,581	-0,097	-0,050
-60,563	-200,000	-0,013	-0,087
-59,549	47,594	-0,037	-0,025
-58,534	-156,206	-1,409	-0,063
-57,519	513,495	-0,914	-1,551
-56,505	-200,000	-0,975	-4,416
-55,490	-0,482	0,685	-0,352
-54,476	800,000	4,838	11,714
-53,461	-200,000	13,814	253,818
-52,446	-200,000	693,159	2262,092
-51,432	601,039	1623,683	2937,385
-50,417	117,828	1633,317	1458,858
-49,403	73,391	1287,386	976,181
-48,388	37,384	1023,314	656,561
-47,373	23,975	981,573	585,686
-46,359	23,172	971,132	576,801
-45,344	22,180	966,680	570,894
-44,330	22,083	965,233	569,699
-43,315	21,923	963,984	568,417
-42,300	21,896	962,711	567,558
-41,286	21,914	961,740	567,022
-40,271	21,910	960,936	566,511
-39,257	21,836	960,090	565,749
-38,242	21,900	958,903	565,235
-37,227	21,892	958,303	564,833
-36,213	21,888	957,294	564,205
-35,198	21,829	956,492	563,517
-34,184	21,948	955,668	563,394
-33,169	21,815	955,012	562,555
-32,154	21,919	953,924	562,227
-31,140	21,926	953,073	561,725
-30,125	21,962	952,204	561,307
-29,111	21,929	951,446	560,732
-28,096	21,972	950,868	560,509
-27,082	21,920	950,152	559,896
-26,067	21,953	949,283	559,469
-25,052	21,910	948,542	558,871
-24,038	21,886	947,902	558,394
-23,023	21,886	947,349	558,049
-22,009	21,935	946,666	557,781
-20,994	21,914	946,060	557,333
-19,979	21,933	945,405	556,985
-18,965	21,893	944,674	556,404
-17,950	21,931	944,195	556,222
-16,936	21,885	943,417	555,597
-15,921	21,846	942,835	555,106
-14,906	21,812	942,067	554,523
-13,892	21,823	941,461	554,179
-12,877	21,853	940,686	553,796
-11,863	21,730	940,146	553,066
-10,848	21,808	939,538	552,936
-9,833	21,881	939,221	552,957
-8,819	21,835	938,654	552,455
-7,804	21,868	937,876	552,082
-6,790	21,786	937,384	551,511
-5,775	21,819	936,795	551,245
-4,760	21,781	936,125	550,708
-3,746	21,777	935,505	550,311
-2,731	21,628	934,936	549,484
-1,717	21,632	934,047	548,952
-0,702	21,640	933,314	548,525
0,313	21,393	932,830	548,291
1,327	23,895	930,456	554,708
2,342	31,550	809,083	503,104
3,356	26,344	510,081	308,247
4,371	1,975	375,090	195,541
5,386	-0,774	357,741	183,096
6,400	-1,827	352,149	178,941
7,415	-1,908	349,766	177,617
8,429	-1,638	348,344	177,203
9,444	-1,716	347,310	176,568
10,459	-1,630	346,632	176,310
11,473	-1,648	345,995	175,949
12,488	-1,682	345,424	175,603
13,502	-1,822	344,775	175,091
14,517	-1,818	344,399	174,890
15,531	-1,429	343,887	175,074
16,546	-1,514	343,588	174,805
17,561	-1,499	343,214	174,618
18,575	-1,446	342,766	174,437
19,590	-1,377	342,324	174,277
20,604	-1,344	342,110	174,191
21,619	-1,433	341,661	173,842
22,634	-1,389	341,280	173,685
23,648	-1,448	340,976	173,446
24,663	-1,403	340,606	173,294
25,677	-1,469	340,394	173,094
26,692	-1,517	340,106	172,877
27,707	-1,415	339,787	172,817
28,721	-1,465	339,347	172,521
29,736	-1,558	339,298	172,371
30,750	-1,507	338,901	172,213
31,765	-1,558	338,706	172,041
32,780	-1,542	338,292	171,833
33,794	-1,462	338,040	171,782
34,809	-1,561	337,780	171,520
35,823	-1,539	337,532	171,405
36,838	-1,465	337,153	171,282
37,853	-1,390	336,673	171,111
38,867	-1,546	336,640	170,897
39,882	-1,583	336,336	170,685
40,896	-1,490	336,194	170,705
41,911	-1,393	335,770	170,587
42,926	-1,349	335,371	170,420
43,940	-1,316	335,259	170,386
44,955	-1,549	335,026	169,985
45,969	-1,547	334,518	169,713
46,984	-1,439	334,484	169,805
47,999	-1,350	334,199	169,747
49,013	-1,473	333,960	169,469
50,028	-1,585	333,750	169,220
51,042	-1,552	333,410	169,070
52,057	-1,508	333,007	168,901
53,071	-1,705	332,980	168,647
54,086	-1,555	332,704	168,664
55,101	-1,535	332,555	168,595
56,115	-1,425	332,165	168,508
57,130	-1,234	331,794	168,522
58,144	-1,410	331,474	168,145
59,159	-1,477	331,238	167,934
60,174	-1,571	331,103	167,744
61,188	-1,378	330,649	167,718
62,203	-1,524	330,547	167,485
63,217	-1,490	330,290	167,379
64,232	-1,493	330,004	167,216
65,247	-1,514	329,606	166,975
66,261	-1,415	329,395	166,966
67,276	-1,646	329,214	166,598
68,290	-1,493	328,981	166,638
69,305	-1,542	328,753	166,452
70,320	-1,642	328,606	166,250
71,334	-1,434	328,267	166,297
72,349	-1,490	328,035	166,102
73,363	-1,489	327,614	165,875
74,378	-1,501	327,505	165,793
75,393	-1,651	327,280	165,496
76,407	-1,485	326,919	165,485
77,422	-1,561	326,790	165,319
78,436	-1,462	326,471	165,253
79,451	-1,431	326,100	165,085
80,466	-1,555	325,934	164,849
81,480	-1,419	325,671	164,852
82,495	-1,327	325,440	164,823
83,509	-1,414	325,251	164,615
84,524	-1,502	325,099	164,426
85,539	-1,467	324,851	164,326
86,553	-1,372	324,522	164,250
87,568	-1,381	324,148	164,036
88,582	-1,485	324,099	163,881
89,597	-1,500	323,792	163,694
90,611	-1,397	323,590	163,692
91,626	-1,496	323,403	163,474
92,641	-1,450	323,156	163,385
93,655	-1,417	322,872	163,263
94,670	-1,372	322,525	163,123
95,684	-1,284	322,194	163,038
96,699	-1,274	321,954	162,912
97,714	-1,417	321,952	162,739
98,728	-1,314	321,647	162,684
99,743	-1,369	321,443	162,506
100,757	-1,489	321,205	162,239
101,772	-1,490	320,955	162,098
102,787	-1,568	320,869	161,954
103,801	-1,302	320,420	162,005
104,816	-1,575	320,328	161,645
105,830	-1,453	320,104	161,651
106,845	-1,395	319,836	161,564
107,860	-1,589	319,641	161,240
108,874	-1,440	319,305	161,218
109,889	-1,411	319,012	161,087
110,903	-1,620	318,864	160,770
111,918	-1,412	318,611	160,855
112,933	-1,541	318,484	160,636
113,947	-1,614	318,232	160,416
114,962	-1,475	318,004	160,438
115,976	-1,361	317,857	160,472
116,991	-1,432	317,489	160,196
118,006	-1,508	317,298	160,003
119,020	-1,556	317,219	159,896
120,035	-1,525	316,927	159,768
121,049	-1,584	316,817	159,635
122,064	-1,436	316,438	159,590
123,079	-1,269	316,188	159,629
124,093	-1,447	316,069	159,363
125,108	-1,445	315,884	159,258
126,122	-1,474	315,646	159,092
127,137	-1,319	315,448	159,145
128,151	-1,455	315,102	158,810
129,166	-1,422	314,861	158,710
130,181	-1,378	314,665	158,644
131,195	-1,475	314,319	158,352
132,210	-1,404	314,145	158,326
133,224	-1,470	313,891	158,113
134,239	-1,503	313,678	157,956
135,254	-1,436	313,454	157,902
136,268	-1,455	313,296	157,788
137,283	-1,436	312,971	157,630
138,297	-1,406	312,846	157,585
139,312	-1,469	312,446	157,302
140,327	-1,503	312,379	157,218
141,341	-1,337	312,290	157,336
142,356	-1,499	311,971	156,989
143,370	-1,508	311,712	156,835
144,385	-1,401	311,486	156,821
145,400	-1,355	311,418	156,822
146,414	-1,333	311,061	156,652
147,429	-1,647	311,017	156,283
148,443	-1,552	310,681	156,200
149,458	-1,245	310,279	156,309
150,473	-1,398	310,189	156,088
151,487	-1,516	310,121	155,915
152,502	-1,444	309,789	155,810
153,516	-1,324	309,622	155,838
154,531	-1,392	309,282	155,582
155,546	-1,502	309,030	155,326
156,560	-1,514	308,923	155,245
157,575	-1,413	308,712	155,232
158,589	-1,376	308,547	155,174
159,604	-1,364	308,281	155,039
160,619	-1,293	308,129	155,023
161,633	-1,452	308,095	154,826
162,648	-1,329	307,777	154,780
163,662	-1,320	307,426	154,599
164,677	-1,486	307,353	154,375
165,692	-1,333	307,094	154,391
166,706	-1,484	306,981	154,164
167,721	-1,239	306,751	154,289
168,735	-1,390	306,590	154,037
169,750	-1,502	306,360	153,792
170,764	-1,594	306,044	153,524
171,779	-1,593	306,036	153,507
172,794	-1,363	305,775	153,601
173,808	-1,429	305,554	153,408
174,823	-1,416	305,270	153,265
175,837	-1,402	305,006	153,134
176,852	-1,360	304,661	152,990
177,867	-1,397	304,647	152,931
178,881	-1,300	304,479	152,934
179,896	-1,255	304,227	152,840
180,910	-1,343	303,920	152,581
181,925	-1,515	303,922	152,391
182,940	-1,352	303,570	152,369
183,954	-1,304	303,441	152,339
184,969	-1,467	303,382	152,129
185,983	-1,243	303,089	152,199
186,998	-1,231	302,801	152,053
188,013	-1,244	302,587	151,918
189,027	-1,153	302,444	151,926
190,042	-1,331	302,299	151,657
191,056	-1,388	301,990	151,431
192,071	-1,581	301,818	151,134
193,086	-1,641	301,563	150,931
194,100	-1,541	301,370	150,923
195,115	-1,403	301,228	150,980
196,129	-1,204	300,988	151,049
197,144	-1,366	300,657	150,704
198,159	-1,348	300,539	150,649
199,173	-1,438	300,275	150,412
200,188	-1,524	299,988	150,168
201,202	-1,635	299,823	149,959
202,217	-1,511	299,628	149,974
203,232	-1,516	299,515	149,899
204,246	-1,402	299,125	149,805
205,261	-1,454	299,181	149,768
206,275	-1,302	298,887	149,762
207,290	-1,425	298,652	149,506
208,304	-1,255	298,460	149,568
209,319	-1,493	298,279	149,224
210,334	-1,357	298,140	149,279
211,348	-1,354	297,845	149,120
212,363	-1,262	297,774	149,164
213,377	-1,415	297,466	148,843
214,392	-1,549	297,401	148,662
215,407	-1,294	297,007	148,708
216,421	-1,360	296,863	148,557
217,436	-1,335	296,626	148,449
218,450	-1,502	296,516	148,214
219,465	-1,526	296,323	148,080
220,480	-1,562	296,122	147,930
221,494	-1,370	295,863	147,980
222,509	-1,673	295,773	147,619
223,523	-1,370	295,540	147,792
224,538	-1,468	295,384	147,603
225,553	-1,366	295,071	147,535
226,567	-1,414	295,109	147,493
227,582	-1,427	294,796	147,311
228,596	-1,410	294,625	147,229
229,611	-1,396	294,294	147,064
230,626	-1,463	294,103	146,889
231,640	-1,465	294,009	146,826
232,655	-1,286	293,832	146,903
233,669	-1,393	293,510	146,623
234,684	-1,291	293,359	146,636
235,699	-1,352	293,243	146,504
236,713	-1,407	293,130	146,380
237,728	-1,330	292,852	146,304
238,742	-1,280	292,609	146,219
239,757	-1,385	292,386	145,991
240,772	-1,365	292,044	145,827
241,786	-1,299	291,950	145,832
242,801	-1,464	291,863	145,613
243,815	-1,332	291,719	145,658
244,830	-1,314	291,532	145,569
245,844	-1,437	291,314	145,327
246,859	-1,625	291,061	145,003
247,874	-1,628	290,902	144,907
248,888	-1,713	290,806	144,763
249,903	-1,567	290,472	144,728
250,917	-1,670	290,454	144,605
251,932	-1,666	290,133	144,437
252,947	-1,747	289,666	144,112
253,961	-2,543	289,251	143,116
254,976	-3,130	288,739	142,278
255,990	-3,277	288,695	142,101
257,005	-1,973	289,258	143,637
258,020	0,285	289,954	146,175
259,034	1,818	290,276	147,822
260,049	2,195	290,156	148,114
261,063	2,674	290,222	148,602
262,078	3,028	290,085	148,863
263,093	3,041	290,041	148,841
264,107	3,510	290,042	149,284
265,122	3,432	289,908	149,127
266,136	3,588	289,561	149,086
267,151	3,673	289,426	149,086
268,166	3,510	289,291	148,845
269,180	3,508	289,177	148,771
270,195	3,662	288,863	148,745
271,209	3,128	288,705	148,134
272,224	3,609	288,451	148,456
273,239	3,409	288,263	148,152
274,253	3,191	288,025	147,806
275,268	3,472	287,737	147,916
276,282	3,105	287,771	147,566
277,297	3,331	287,516	147,640
278,312	3,309	287,336	147,513
279,326	3,217	287,145	147,314
280,341	3,378	286,944	147,352
281,355	3,238	286,813	147,137
282,370	3,219	286,481	146,935
283,384	3,313	286,204	146,871
284,399	3,219	286,093	146,710
285,414	3,164	285,974	146,584
286,428	3,201	285,795	146,514
287,443	3,076	285,689	146,327
288,457	2,959	285,453	146,082
289,472	3,025	285,147	145,975
290,487	2,987	284,972	145,836
291,501	3,002	284,795	145,747
292,516	3,084	284,624	145,725
293,530	2,940	284,500	145,510
294,545	3,003	284,224	145,416
295,560	2,878	284,083	145,212
296,574	2,991	283,756	145,140
297,589	2,796	283,665	144,895
298,603	2,813	283,419	144,772
299,618	2,824	283,180	144,647
300,633	3,098	283,124	144,866
301,647	2,977	282,838	144,593
302,662	2,997	282,881	144,620
303,676	3,287	282,666	144,771
304,691	3,389	282,396	144,717
305,706	3,415	282,376	144,719
306,720	3,600	282,224	144,803
307,735	3,385	282,031	144,488
308,749	3,319	281,890	144,340
309,764	3,279	281,639	144,161
310,779	3,422	281,360	144,140
311,793	3,239	281,222	143,884
312,808	3,302	280,953	143,793
313,822	3,291	280,805	143,694
314,837	3,258	280,739	143,617
315,852	3,380	280,410	143,549
316,866	3,277	280,378	143,424
317,881	3,371	280,194	143,406
318,895	3,127	280,005	143,067
319,910	3,190	279,759	142,988
320,925	3,182	279,429	142,799
321,939	3,333	279,343	142,883
322,954	3,110	279,410	142,696
323,968	3,319	279,087	142,714
324,983	3,379	278,999	142,712
325,997	3,303	278,820	142,537
327,012	3,486	278,509	142,535
328,027	3,577	278,343	142,523
329,041	3,538	278,177	142,389
330,056	3,456	278,067	142,243
331,070	3,428	277,861	142,099
332,085	3,478	277,601	142,000
333,100	3,544	277,422	141,956
334,114	3,369	277,240	141,689
335,129	3,289	277,148	141,555
336,143	3,407	276,853	141,501
337,158	3,366	276,870	141,460
338,173	3,506	276,543	141,409
339,187	3,309	276,435	141,159
340,202	3,555	276,172	141,239
341,216	3,533	275,952	141,093
342,231	3,277	275,999	140,870
343,246	3,370	275,745	140,813
344,260	3,364	275,605	140,724
345,275	3,444	275,440	140,699
346,289	3,409	275,171	140,518
347,304	3,455	275,106	140,514
348,319	3,277	274,965	140,267
349,333	3,522	274,660	140,322
350,348	3,537	274,500	140,242
351,362	3,495	274,192	140,034
352,377	3,619	274,200	140,139
353,392	3,410	273,937	139,801
354,406	3,507	273,774	139,794
355,421	192,055	1351,078	1433,318
356,435	155,096	1482,447	1433,454
