DTS Sentinel unit serial number:	SN410029Multiplexer serial number:	ORYXHardware model number:	OX2-SRSoftware version number:	ORYX F/W v4,00 Oryx Data Collector v3.7.2.0data status	okinstallation	B4 Nyhavnadifferential loss correction	single-endedforward channel	channel 2reverse channel	N/Adate	2023/12/16time	07:05:13forward acquisition time	300,00reverse acquisition time	0,00gamma	499,1914k internal	0,3127k external	0,3127temperature offset calibration	1,0000default loss term (dB/km)	0,3820temperature slope calibration	1,0000multiplexer offset coefficient	1,0000multiplexer slope coefficient	1,0000fibre end	0,00T internal ref (°C)	22,32T ext. ref 1 (°C)	7,56T ext. ref 2 (°C)	7,76length (m)	temperature (°C)	Stokes	anti-Stokes-744,400	-107,902	-0,030	0,005
-743,385	-170,200	-0,151	0,004
-742,371	-132,548	0,154	-0,015
-741,356	95,923	-0,181	0,154
-740,342	-200,000	0,010	0,066
-739,327	4,340	-0,293	0,159
-738,312	24,445	0,039	-0,024
-737,298	-6,864	-0,298	0,150
-736,283	168,175	0,040	-0,042
-735,269	3,854	-0,256	0,139
-734,254	1,967	-0,089	-0,048
-733,239	72,094	-0,227	-0,175
-732,225	-2,789	0,180	-0,093
-731,210	636,946	-0,091	0,172
-730,196	228,638	-0,042	-0,051
-729,181	-101,166	-0,207	-0,037
-728,167	-33,172	-0,051	-0,021
-727,152	-200,000	-0,017	0,106
-726,137	-200,000	-0,010	0,040
-725,123	-31,274	-0,036	0,015
-724,108	21,314	-0,042	-0,025
-723,094	149,999	-0,062	-0,063
-722,079	-1,305	-0,139	0,073
-721,064	-200,000	-0,016	-0,143
-720,050	-124,456	0,074	-0,008
-719,035	701,237	-0,040	0,079
-718,021	349,208	-0,079	-0,117
-717,006	800,000	-0,012	-0,027
-715,991	98,950	-0,124	-0,106
-714,977	800,000	0,025	0,071
-713,962	49,125	-0,029	-0,020
-712,948	800,000	-0,034	-0,080
-711,933	0,039	-0,074	-0,039
-710,918	800,000	0,059	-0,139
-709,904	652,130	-0,052	-0,099
-708,889	153,538	-0,015	-0,015
-707,875	524,036	0,062	-0,109
-706,860	224,249	0,035	0,042
-705,845	-166,572	-0,073	-0,002
-704,831	-200,000	0,042	0,189
-703,816	14,656	-0,174	-0,101
-702,802	-99,226	-0,182	-0,034
-701,787	134,396	-0,143	-0,138
-700,772	-78,963	-0,059	0,015
-699,758	362,826	-0,039	-0,059
-698,743	502,157	-0,056	0,097
-697,729	288,338	0,090	-0,121
-696,714	-200,000	0,005	0,043
-695,699	257,375	0,072	-0,092
-694,685	-90,878	-0,103	-0,022
-693,670	328,263	-0,075	-0,107
-692,656	403,567	0,083	0,130
-691,641	-123,323	0,087	-0,010
-690,627	-87,840	0,089	0,020
-689,612	-29,430	0,054	0,023
-688,597	-73,761	-0,075	-0,020
-687,583	800,000	0,043	-0,105
-686,568	194,232	-0,064	0,072
-685,554	13,171	0,023	-0,013
-684,539	-159,260	0,134	0,005
-683,524	-148,214	-0,078	0,005
-682,510	-200,000	0,036	-0,123
-681,495	-39,767	-0,029	0,011
-680,481	-11,309	-0,121	-0,059
-679,466	-171,853	-0,088	0,002
-678,451	-200,000	0,035	-0,135
-677,437	359,050	-0,061	0,091
-676,422	-61,460	-0,077	-0,024
-675,408	-102,397	0,052	-0,009
-674,393	-200,000	-0,005	-0,105
-673,378	558,816	-0,062	-0,112
-672,364	13,832	0,101	-0,058
-671,349	-40,274	-0,082	-0,031
-670,335	-200,000	0,004	0,168
-669,320	116,513	0,136	0,124
-668,305	0,837	-0,044	0,023
-667,291	-166,389	-0,047	0,001
-666,276	88,696	-0,010	0,008
-665,262	-91,613	-0,037	-0,008
-664,247	577,805	0,004	-0,008
-663,232	-57,654	-0,053	-0,017
-662,218	-200,000	0,020	-0,075
-661,203	800,000	-0,004	-0,009
-660,189	-106,992	-0,039	-0,006
-659,174	-68,027	-0,106	-0,030
-658,159	-200,000	-0,032	0,181
-657,145	570,938	0,036	-0,066
-656,130	800,000	0,045	0,113
-655,116	-200,000	-0,019	-0,131
-654,101	63,579	-0,101	0,075
-653,086	656,272	0,029	-0,055
-652,072	100,090	0,034	0,030
-651,057	-200,000	0,016	-0,085
-650,043	-200,000	0,026	-0,104
-649,028	-200,000	0,004	0,061
-648,014	800,000	0,043	0,133
-646,999	182,057	-0,050	-0,055
-645,984	-26,637	-0,021	0,009
-644,970	-200,000	0,002	-0,061
-643,955	6,916	-0,173	-0,096
-642,941	63,939	-0,041	0,030
-641,926	84,282	0,024	0,020
-640,911	-200,000	0,004	-0,119
-639,897	9,912	0,104	-0,058
-638,882	-200,000	-0,001	-0,046
-637,868	240,315	-0,068	-0,084
-636,853	-30,465	-0,055	0,023
-635,838	17,380	-0,170	-0,100
-634,824	-117,359	-0,079	0,011
-633,809	252,570	0,016	-0,020
-632,795	22,941	0,035	-0,021
-631,780	205,066	-0,094	-0,108
-630,765	800,000	0,029	0,087
-629,751	-31,750	0,024	0,010
-628,736	-200,000	-0,001	-0,049
-627,722	-167,690	-0,199	-0,006
-626,707	-200,000	-0,042	-0,172
-625,692	-88,916	0,061	-0,013
-624,678	800,000	-0,008	-0,021
-623,663	349,497	0,065	0,095
-622,649	-200,000	-0,015	-0,088
-621,634	283,586	-0,058	-0,078
-620,619	14,737	0,077	0,045
-619,605	-200,000	-0,034	0,120
-618,590	-200,000	0,016	0,098
-617,576	53,421	0,095	-0,068
-616,561	249,042	-0,027	-0,034
-615,546	-41,298	0,086	-0,033
-614,532	278,050	0,036	-0,048
-613,517	800,000	0,037	-0,077
-612,503	-164,669	-0,146	0,005
-611,488	-4,249	-0,036	0,019
-610,474	-77,220	0,033	0,008
-609,459	800,000	-0,053	-0,121
-608,444	288,415	0,029	-0,039
-607,430	-200,000	-0,051	0,000
-606,415	630,073	-0,056	-0,105
-605,401	-62,369	0,017	0,005
-604,386	194,071	0,089	-0,100
-603,371	800,000	0,030	0,067
-602,357	-141,450	-0,081	0,006
-601,342	88,455	0,111	0,091
-600,328	114,589	-0,112	-0,101
-599,313	-176,389	0,057	0,001
-598,298	800,000	0,025	0,075
-597,284	-118,872	0,064	0,008
-596,269	32,432	0,052	0,033
-595,255	84,232	0,009	0,007
-594,240	-200,000	0,005	0,149
-593,225	87,502	0,035	0,029
-592,211	-175,538	-0,174	-0,003
-591,196	140,810	0,128	-0,125
-590,182	50,487	0,047	0,033
-589,167	76,995	0,101	0,080
-588,152	788,719	-0,015	0,030
-587,138	800,000	-0,069	-0,175
-586,123	-200,000	-0,025	0,110
-585,109	-200,000	0,009	0,154
-584,094	21,516	0,026	-0,016
-583,079	-0,894	0,057	0,030
-582,065	-200,000	-0,002	0,029
-581,050	-200,000	-0,029	0,151
-580,036	655,530	0,088	0,169
-579,021	433,549	-0,128	0,206
-578,006	-200,000	0,010	0,036
-576,992	-57,481	0,036	0,012
-575,977	-200,000	0,003	-0,038
-574,963	12,121	0,229	0,130
-573,948	13,617	-0,037	-0,021
-572,934	-200,000	0,045	-0,171
-571,919	-200,000	-0,016	-0,076
-570,904	614,003	-0,046	0,086
-569,890	800,000	-0,024	0,074
-568,875	78,816	0,088	0,070
-567,861	415,158	-0,060	0,094
-566,846	-200,000	-0,015	0,112
-565,831	386,245	0,053	0,082
-564,817	-22,403	-0,061	0,027
-563,802	-179,329	0,023	0,000
-562,788	581,477	-0,074	0,135
-561,773	800,000	-0,032	0,073
-560,758	-118,936	0,151	-0,019
-559,744	800,000	-0,023	-0,062
-558,729	180,999	-0,076	0,083
-557,715	121,156	0,070	0,065
-556,700	-123,573	-0,082	-0,010
-555,685	-200,000	0,035	0,223
-554,671	-63,598	-0,214	-0,065
-553,656	-34,921	-0,139	0,056
-552,642	-200,000	0,001	-0,012
-551,627	-22,065	-0,065	0,029
-550,612	-127,038	0,087	-0,009
-549,598	250,791	-0,021	-0,027
-548,583	-200,000	-0,003	0,037
-547,569	71,745	0,078	-0,060
-546,554	800,000	-0,033	0,090
-545,539	363,454	0,037	-0,055
-544,525	-200,000	0,016	0,105
-543,510	39,183	-0,004	-0,002
-542,496	-99,335	-0,054	0,010
-541,481	-111,546	-0,199	0,030
-540,466	654,557	0,073	-0,140
-539,452	-65,921	0,151	-0,044
-538,437	800,000	-0,030	0,085
-537,423	121,936	0,023	-0,021
-536,408	313,894	0,053	-0,074
-535,393	184,567	-0,137	-0,151
-534,379	58,639	-0,076	-0,055
-533,364	-200,000	-0,006	-0,108
-532,350	66,485	-0,126	0,094
-531,335	790,635	0,033	-0,068
-530,321	-200,000	-0,024	-0,128
-529,306	800,000	0,015	-0,034
-528,291	2,054	-0,072	-0,038
-527,277	-200,000	-0,032	0,164
-526,262	144,240	-0,080	0,079
-525,248	63,186	0,115	-0,085
-524,233	-109,933	-0,159	0,024
-523,218	-200,000	-0,001	0,148
-522,204	-6,127	-0,070	0,035
-521,189	-91,362	0,106	-0,022
-520,175	-65,212	-0,166	-0,049
-519,160	17,146	-0,038	0,022
-518,145	-84,821	0,129	0,030
-517,131	55,938	0,085	0,061
-516,116	-200,000	0,006	0,168
-515,102	697,910	-0,047	0,091
-514,087	-57,418	0,044	0,014
-513,072	800,000	-0,085	-0,186
-512,058	40,353	-0,143	0,095
-511,043	-32,021	0,133	-0,055
-510,029	-83,878	-0,103	0,024
-509,014	42,153	0,123	-0,083
-507,999	-49,871	0,098	-0,034
-506,985	496,654	-0,060	0,103
-505,970	-40,825	-0,091	-0,035
-504,956	406,494	0,036	0,057
-503,941	45,100	-0,040	-0,027
-502,926	-76,070	0,044	0,011
-501,912	607,265	-0,021	0,039
-500,897	-9,753	0,053	0,026
-499,883	-200,000	-0,016	-0,071
-498,868	-66,539	0,081	0,024
-497,853	-68,321	0,051	-0,015
-496,839	-136,899	-0,173	0,014
-495,824	21,315	0,076	-0,045
-494,810	-200,000	0,018	0,159
-493,795	-129,563	0,063	0,006
-492,781	16,616	0,119	-0,069
-491,766	484,043	0,049	0,082
-490,751	-76,698	-0,082	-0,021
-489,737	179,547	0,044	-0,047
-488,722	-165,106	-0,059	0,002
-487,708	-116,842	-0,079	-0,011
-486,693	-4,139	-0,051	-0,026
-485,678	800,000	0,026	-0,073
-484,664	-126,800	-0,190	-0,020
-483,649	-200,000	0,013	-0,115
-482,635	-109,118	0,093	-0,014
-481,620	-200,000	0,002	0,065
-480,605	-200,000	-0,034	0,166
-479,591	800,000	0,086	0,254
-478,576	800,000	-0,036	0,103
-477,562	-89,412	0,165	-0,036
-476,547	-200,000	0,001	0,154
-475,532	-200,000	0,002	0,104
-474,518	800,000	0,063	0,151
-473,503	19,861	0,096	0,057
-472,489	-200,000	0,004	0,059
-471,474	-200,000	-0,011	-0,056
-470,459	395,483	-0,006	-0,010
-469,445	249,142	0,024	-0,030
-468,430	-115,330	0,145	0,020
-467,416	-200,000	-0,016	0,145
-466,401	-24,879	-0,101	0,044
-465,386	800,000	-0,025	0,052
-464,372	-5,735	-0,047	-0,024
-463,357	-200,000	0,005	-0,189
-462,343	800,000	0,054	-0,125
-461,328	-149,417	0,097	0,006
-460,313	6,284	0,078	0,042
-459,299	-151,667	-0,081	-0,004
-458,284	-200,000	-0,006	0,062
-457,270	516,417	-0,011	0,020
-456,255	28,081	-0,118	-0,073
-455,241	160,930	-0,065	-0,067
-454,226	269,317	0,030	-0,039
-453,211	800,000	0,013	-0,040
-452,197	61,930	0,150	0,110
-451,182	800,000	0,101	0,222
-450,168	800,000	0,055	0,174
-449,153	-133,061	-0,071	0,007
-448,138	366,077	0,055	0,082
-447,124	-41,031	-0,004	0,002
-446,109	132,771	0,032	0,030
-445,095	800,000	0,064	0,153
-444,080	732,766	0,045	0,089
-443,065	800,000	0,054	-0,134
-442,051	-200,000	-0,037	0,180
-441,036	434,851	-0,065	-0,104
-440,022	136,201	0,135	-0,130
-439,007	56,377	0,029	-0,021
-437,992	800,000	0,031	0,084
-436,978	-83,259	0,140	0,033
-435,963	-200,000	-0,000	0,081
-434,949	376,513	-0,049	-0,073
-433,934	26,731	-0,077	-0,048
-432,919	-200,000	-0,006	-0,238
-431,905	174,035	0,116	-0,123
-430,890	18,237	0,135	-0,079
-429,876	-138,546	0,045	0,004
-428,861	787,066	0,027	0,054
-427,846	-18,030	-0,049	-0,023
-426,832	-200,000	0,015	0,134
-425,817	55,640	0,121	-0,086
-424,803	-47,661	0,012	0,004
-423,788	-200,000	-0,017	-0,090
-422,773	-200,000	0,024	-0,129
-421,759	466,547	-0,080	0,132
-420,744	33,000	0,145	0,092
-419,730	-58,112	0,054	-0,017
-418,715	-200,000	-0,022	-0,087
-417,701	800,000	-0,003	-0,007
-416,686	-120,480	0,043	0,005
-415,671	800,000	-0,008	0,020
-414,657	186,484	-0,101	0,111
-413,642	-39,496	-0,065	0,025
-412,628	215,957	-0,039	-0,045
-411,613	-103,752	-0,094	0,016
-410,598	-122,922	0,069	0,008
-409,584	59,822	0,062	0,045
-408,569	-77,450	0,066	-0,017
-407,555	-7,021	0,203	0,101
-406,540	800,000	-0,026	0,053
-405,525	-115,825	0,088	-0,012
-404,511	-104,105	-0,110	0,019
-403,496	327,565	-0,052	-0,073
-402,482	-36,600	0,084	0,033
-401,467	-76,889	0,013	-0,003
-400,452	152,295	0,044	0,044
-399,438	121,835	-0,113	0,104
-398,423	-127,094	-0,078	0,008
-397,409	-10,286	-0,097	0,047
-396,394	701,686	0,077	-0,149
-395,379	80,141	0,037	0,029
-394,365	-109,170	-0,134	0,021
-393,350	-200,000	-0,013	0,097
-392,336	-127,088	0,098	-0,010
-391,321	800,000	-0,021	-0,044
-390,306	-200,000	-0,009	-0,063
-389,292	-122,672	-0,048	-0,006
-388,277	84,951	0,047	0,038
-387,263	-200,000	0,020	0,089
-386,248	739,809	0,051	0,101
-385,233	800,000	0,021	0,044
-384,219	1,195	0,052	0,027
-383,204	54,923	-0,061	0,043
-382,190	130,588	0,036	0,034
-381,175	28,786	0,080	0,050
-380,160	-200,000	0,018	-0,132
-379,146	-200,000	0,001	-0,082
-378,131	269,163	-0,039	0,051
-377,117	-21,730	-0,068	0,030
-376,102	-185,035	-0,039	-0,000
-375,088	15,663	0,099	-0,057
-374,073	-26,484	-0,140	0,060
-373,058	182,318	0,029	-0,032
-372,044	24,106	0,020	0,012
-371,029	-200,000	0,001	-0,077
-370,015	800,000	-0,013	-0,029
-369,000	120,806	0,081	0,074
-367,985	478,975	-0,020	-0,034
-366,971	800,000	-0,100	-0,231
-365,956	-52,039	0,093	0,032
-364,942	439,694	-0,055	0,088
-363,927	800,000	-0,049	0,128
-362,912	-35,293	-0,081	0,032
-361,898	14,503	-0,069	-0,039
-360,883	105,767	-0,115	-0,100
-359,869	800,000	-0,043	-0,095
-358,854	223,683	-0,042	0,050
-357,839	-200,000	-0,009	0,042
-356,825	325,477	0,034	0,048
-355,810	89,820	-0,065	0,053
-354,796	123,364	-0,126	-0,116
-353,781	111,058	-0,161	-0,142
-352,766	144,241	-0,089	-0,087
-351,752	800,000	-0,035	-0,075
-350,737	-96,862	-0,093	0,018
-349,723	106,912	-0,035	0,031
-348,708	-30,810	-0,070	0,029
-347,693	-200,000	0,019	-0,067
-346,679	173,195	0,047	-0,050
-345,664	800,000	-0,026	-0,077
-344,650	800,000	-0,025	0,069
-343,635	800,000	0,034	-0,109
-342,620	800,000	0,053	0,155
-341,606	-109,461	0,192	0,029
-340,591	800,000	0,027	-0,057
-339,577	-36,211	-0,217	-0,086
-338,562	18,133	-0,068	-0,040
-337,548	-75,497	-0,027	-0,007
-336,533	439,331	0,049	0,079
-335,518	-200,000	0,018	0,076
-334,504	290,320	0,049	-0,065
-333,489	-200,000	0,016	0,055
-332,475	182,170	0,077	-0,083
-331,460	800,000	-0,039	-0,112
-330,445	-200,000	0,011	-0,087
-329,431	-16,181	0,078	-0,036
-328,416	-200,000	0,026	0,144
-327,402	140,982	-0,081	-0,079
-326,387	-200,000	-0,002	-0,015
-325,372	-88,695	-0,057	0,012
-324,358	-166,794	-0,096	0,003
-323,343	280,058	-0,024	-0,032
-322,329	-200,000	-0,013	-0,067
-321,314	800,000	-0,028	0,063
-320,299	-33,416	-0,082	-0,033
-319,285	184,441	-0,019	0,021
-318,270	46,939	0,092	-0,062
-317,256	-45,942	-0,084	-0,030
-316,241	85,463	0,060	-0,048
-315,226	-102,864	0,066	0,011
-314,212	14,225	0,075	0,042
-313,197	311,297	0,098	0,135
-312,183	-200,000	0,008	0,060
-311,168	-28,594	-0,070	-0,029
-310,153	-29,451	0,034	-0,014
-309,139	361,008	-0,032	-0,047
-308,124	58,735	0,095	-0,068
-307,110	800,000	0,030	-0,072
-306,095	138,032	-0,015	0,014
-305,080	-148,530	-0,071	0,004
-304,066	68,471	-0,051	-0,039
-303,051	-115,002	0,076	0,010
-302,037	448,997	-0,086	-0,140
-301,022	-62,755	0,104	-0,031
-300,008	-200,000	0,008	0,066
-298,993	-200,000	0,027	-0,095
-297,978	415,946	0,027	-0,042
-296,964	-57,433	0,086	-0,027
-295,949	220,247	-0,059	0,069
-294,935	100,074	-0,127	0,108
-293,920	-63,376	-0,059	-0,018
-292,905	-200,000	0,008	-0,107
-291,891	-14,679	-0,056	0,026
-290,876	800,000	0,026	-0,057
-289,862	800,000	-0,049	-0,107
-288,847	-200,000	0,006	-0,138
-287,832	-49,741	-0,152	0,053
-286,818	-109,934	0,121	0,018
-285,803	-106,691	-0,057	-0,009
-284,789	117,112	-0,090	-0,081
-283,774	-34,369	0,040	0,016
-282,759	118,481	0,079	-0,071
-281,745	6,651	0,053	0,029
-280,730	-200,000	0,014	-0,106
-279,716	800,000	0,019	-0,045
-278,701	108,957	-0,134	0,117
-277,686	177,591	0,070	0,075
-276,672	-7,989	0,128	0,063
-275,657	-28,241	0,065	-0,027
-274,643	774,560	-0,052	-0,104
-273,628	-125,496	0,042	-0,005
-272,613	334,755	-0,031	-0,043
-271,599	-81,449	0,110	-0,026
-270,584	-96,926	0,092	0,017
-269,570	137,917	0,094	-0,090
-268,555	57,567	-0,108	0,077
-267,540	-200,000	0,021	0,099
-266,526	676,646	-0,044	-0,085
-265,511	20,292	0,036	0,021
-264,497	-109,912	0,030	-0,005
-263,482	-24,833	0,090	0,039
-262,467	74,518	0,114	0,087
-261,453	800,000	0,037	-0,080
-260,438	155,980	0,046	0,046
-259,424	800,000	0,025	0,078
-258,409	130,881	0,039	-0,037
-257,395	-14,317	0,089	0,042
-256,380	674,568	0,008	-0,015
-255,365	-63,299	0,090	-0,027
-254,351	800,000	-0,018	-0,057
-253,336	5,522	-0,171	-0,092
-252,322	-53,612	-0,032	-0,011
-251,307	196,395	-0,066	-0,074
-250,292	383,181	-0,093	0,140
-249,278	719,629	-0,044	0,086
-248,263	253,685	0,009	0,011
-247,249	444,327	-0,010	-0,017
-246,234	-101,592	-0,086	0,015
-245,219	225,262	-0,043	-0,051
-244,205	-200,000	-0,013	0,052
-243,190	211,407	0,027	-0,031
-242,176	800,000	0,054	0,158
-241,161	100,177	-0,028	0,023
-240,146	-56,700	0,041	0,013
-239,132	572,408	-0,046	0,081
-238,117	800,000	-0,076	0,160
-237,103	-57,522	-0,048	-0,015
-236,088	-117,708	0,146	0,019
-235,073	-40,955	0,129	-0,048
-234,059	-92,755	0,061	0,012
-233,044	257,729	0,072	-0,090
-232,030	-200,000	0,022	-0,115
-231,015	82,663	-0,112	-0,089
-230,000	697,749	-0,059	-0,113
-228,986	41,395	0,144	-0,095
-227,971	78,052	0,087	0,067
-226,957	-13,213	0,166	0,078
-225,942	-52,548	-0,139	0,047
-224,927	800,000	-0,038	-0,120
-223,913	204,720	0,104	-0,118
-222,898	545,167	-0,098	-0,172
-221,884	-25,260	0,075	-0,032
-220,869	-60,438	-0,148	0,046
-219,855	97,207	-0,064	0,053
-218,840	473,710	-0,059	0,097
-217,825	44,338	0,034	0,023
-216,811	50,205	-0,115	-0,079
-215,796	62,101	0,059	-0,043
-214,782	-200,000	-0,013	0,046
-213,767	-9,243	0,093	0,045
-212,752	764,596	0,020	-0,041
-211,738	414,134	-0,018	0,028
-210,723	546,809	-0,034	0,060
-209,709	105,366	-0,115	-0,099
-208,694	338,333	0,016	-0,023
-207,679	-136,750	-0,089	-0,007
-206,665	250,503	-0,052	-0,064
-205,650	50,541	0,067	-0,046
-204,636	10,115	0,099	0,055
-203,621	-56,122	-0,039	0,013
-202,606	356,937	0,070	-0,103
-201,592	-200,000	0,011	-0,085
-200,577	-200,000	0,000	-0,029
-199,563	290,861	-0,028	0,038
-198,548	59,963	-0,091	-0,065
-197,533	800,000	-0,053	0,115
-196,519	-200,000	0,013	-0,235
-195,504	52,458	-0,063	-0,044
-194,490	-200,000	0,020	0,123
-193,475	60,143	0,029	-0,021
-192,460	33,990	0,055	-0,035
-191,446	-200,000	-0,009	-0,036
-190,431	46,764	0,176	0,119
-189,417	800,000	-0,041	0,098
-188,402	-200,000	-0,002	0,019
-187,387	-44,575	-0,066	0,024
-186,373	-34,163	-0,036	0,014
-185,358	-56,722	0,154	-0,049
-184,344	-200,000	0,022	-0,171
-183,329	-46,617	-0,054	-0,019
-182,315	-65,686	0,076	-0,022
-181,300	93,636	-0,082	0,068
-180,285	-13,665	-0,036	0,017
-179,271	-102,880	0,155	-0,027
-178,256	-200,000	0,006	-0,093
-177,242	-80,814	-0,068	-0,016
-176,227	725,123	0,067	-0,130
-175,212	45,325	0,034	0,023
-174,198	-34,944	0,035	-0,014
-173,183	-200,000	0,015	-0,082
-172,169	-200,000	-0,007	-0,085
-171,154	-38,640	-0,134	0,051
-170,139	117,395	-0,096	-0,086
-169,125	-129,541	0,061	0,006
-168,110	243,293	-0,018	0,022
-167,096	42,611	-0,033	-0,022
-166,081	-147,481	-0,033	-0,002
-165,066	489,978	0,018	0,030
-164,052	46,193	0,070	0,047
-163,037	-73,205	-0,135	0,036
-162,023	-110,260	0,046	-0,007
-161,008	-200,000	0,062	-0,211
-159,993	800,000	-0,047	0,111
-158,979	260,682	0,049	-0,062
-157,964	-152,143	-0,078	0,004
-156,950	800,000	0,049	0,113
-155,935	625,676	-0,047	-0,087
-154,920	-143,012	0,039	0,003
-153,906	12,658	-0,056	0,031
-152,891	-133,326	0,079	-0,007
-151,877	-84,972	0,132	-0,030
-150,862	-111,572	-0,096	0,014
-149,847	193,919	0,039	0,043
-148,833	-200,000	-0,004	0,015
-147,818	800,000	0,069	0,174
-146,804	-117,207	-0,031	-0,004
-145,789	333,853	0,005	-0,007
-144,775	-200,000	-0,047	-0,163
-143,760	-200,000	0,002	0,079
-142,745	67,756	0,119	0,089
-141,731	387,200	0,032	-0,048
-140,716	-34,271	-0,073	0,029
-139,702	21,331	0,108	0,064
-138,687	-200,000	0,023	-0,176
-137,672	800,000	-0,036	-0,092
-136,658	172,377	-0,052	-0,054
-135,643	800,000	0,060	-0,138
-134,629	800,000	-0,014	0,037
-133,614	257,701	0,088	0,110
-132,599	408,732	0,050	0,077
-131,585	-200,000	0,009	-0,041
-130,570	72,130	-0,110	-0,083
-129,556	-200,000	0,013	-0,062
-128,541	-62,682	-0,085	0,025
-127,526	185,549	-0,080	-0,086
-126,512	23,237	0,104	-0,062
-125,497	-85,087	0,148	-0,033
-124,483	511,000	-0,053	0,089
-123,468	105,362	0,060	-0,051
-122,453	198,233	-0,055	0,061
-121,439	-200,000	-0,050	-0,199
-120,424	138,563	-0,100	-0,096
-119,410	-170,521	0,119	0,003
-118,395	687,025	-0,013	-0,024
-117,380	452,382	-0,057	0,093
-116,366	-84,198	-0,122	-0,028
-115,351	151,457	0,039	-0,038
-114,337	800,000	0,041	0,092
-113,322	-50,986	-0,108	0,037
-112,307	57,255	0,076	-0,054
-111,293	61,129	-0,122	0,088
-110,278	73,254	0,087	0,066
-109,264	-118,776	-0,079	0,010
-108,249	337,479	0,050	0,071
-107,234	43,645	-0,061	-0,041
-106,220	-200,000	0,005	-0,071
-105,205	49,221	0,047	0,032
-104,191	24,382	-0,081	-0,049
-103,176	-81,831	0,161	-0,038
-102,162	-200,000	-0,036	-0,117
-101,147	-109,461	-0,112	-0,017
-100,132	-109,357	0,035	0,005
-99,118	-200,000	-0,016	0,131
-98,103	-84,548	0,090	-0,021
-97,089	69,716	-0,052	0,039
-96,074	-200,000	-0,022	-0,075
-95,059	800,000	0,022	-0,068
-94,045	-111,387	-0,039	0,006
-93,030	-45,187	0,141	-0,051
-92,016	116,565	-0,093	0,083
-91,001	112,102	0,073	-0,064
-89,986	500,478	0,056	0,094
-88,972	-200,000	-0,038	-0,139
-87,957	-121,558	-0,106	0,013
-86,943	355,029	0,059	-0,085
-85,928	-200,000	-0,004	0,057
-84,913	800,000	-0,060	-0,127
-83,899	-128,453	0,070	-0,007
-82,884	-124,615	-0,078	0,009
-81,870	-200,000	-0,021	0,229
-80,855	-200,000	-0,001	0,057
-79,840	-200,000	-0,005	0,034
-78,826	177,415	-0,101	-0,106
-77,811	-200,000	0,006	0,022
-76,797	325,979	0,081	-0,113
-75,782	-51,701	-0,106	0,036
-74,767	-83,652	0,108	0,025
-73,753	415,659	0,021	0,033
-72,738	800,000	-0,099	0,223
-71,724	8,519	-0,105	-0,057
-70,709	119,472	-0,128	-0,115
-69,694	145,581	-0,048	-0,047
-68,680	-200,000	-0,003	-0,054
-67,665	-200,000	0,028	0,148
-66,651	114,269	-0,117	0,103
-65,636	-99,910	-0,073	0,013
-64,622	800,000	-0,067	0,169
-63,607	-97,758	-0,094	-0,017
-62,592	32,002	-0,018	0,011
-61,578	-200,000	-0,020	-0,076
-60,563	405,174	-0,031	0,048
-59,549	64,975	-0,043	0,031
-58,534	-184,075	-1,343	-0,016
-57,519	395,357	-0,967	-1,466
-56,505	-200,000	-0,836	-4,260
-55,490	-45,166	0,548	-0,197
-54,476	800,000	4,905	11,468
-53,461	-200,000	13,725	250,993
-52,446	-200,000	689,455	2248,784
-51,432	591,573	1619,928	2910,093
-50,417	119,304	1631,503	1463,125
-49,403	74,289	1286,078	978,076
-48,388	38,162	1022,418	658,118
-47,373	24,300	980,534	585,691
-46,359	23,542	970,099	576,954
-45,344	22,583	965,694	571,186
-44,330	22,488	964,209	569,977
-43,315	22,391	962,865	568,843
-42,300	22,388	961,679	568,110
-41,286	22,390	960,985	567,685
-40,271	22,329	959,851	566,795
-39,257	22,335	959,093	566,345
-38,242	22,330	958,132	565,738
-37,227	22,307	957,207	565,096
-36,213	22,315	956,480	564,670
-35,198	22,335	955,434	564,095
-34,184	22,370	954,778	563,796
-33,169	22,362	953,869	563,211
-32,154	22,347	952,949	562,600
-31,140	22,377	951,989	562,107
-30,125	22,344	951,541	561,713
-29,111	22,383	950,437	561,165
-28,096	22,324	949,850	560,605
-27,082	22,375	949,070	560,287
-26,067	22,308	948,295	559,592
-25,052	22,357	947,643	559,344
-24,038	22,341	947,045	558,916
-23,023	22,392	946,407	558,681
-22,009	22,363	945,760	558,184
-20,994	22,352	945,226	557,813
-19,979	22,447	944,394	557,602
-18,965	22,378	943,987	557,118
-17,950	22,342	943,144	556,483
-16,936	22,285	942,642	555,986
-15,921	22,291	941,936	555,565
-14,906	22,206	941,224	554,855
-13,892	22,196	940,474	554,358
-12,877	22,222	939,929	554,096
-11,863	22,201	939,097	553,518
-10,848	22,188	938,741	553,244
-9,833	22,323	938,316	553,400
-8,819	22,385	937,564	553,129
-7,804	22,253	937,090	552,412
-6,790	22,247	936,417	551,973
-5,775	22,304	935,733	551,728
-4,760	22,253	935,179	551,221
-3,746	22,236	934,631	550,820
-2,731	22,113	933,933	550,002
-1,717	21,999	933,228	549,205
-0,702	22,008	932,592	548,838
0,313	21,877	931,852	548,818
1,327	24,327	929,453	555,038
2,342	31,921	807,634	502,819
3,356	26,984	507,690	307,658
4,371	3,080	372,259	195,329
5,386	0,265	354,994	182,820
6,400	-1,357	348,944	177,741
7,415	-2,146	346,049	175,311
8,429	-2,299	344,741	174,451
9,444	-2,248	343,692	173,965
10,459	-2,153	343,073	173,749
11,473	-2,139	342,346	173,382
12,488	-1,918	342,048	173,475
13,502	-1,799	341,404	173,272
14,517	-1,957	340,978	172,855
15,531	-2,271	340,501	172,231
16,546	-2,272	340,005	171,963
17,561	-2,211	339,384	171,705
18,575	-2,092	339,070	171,670
19,590	-2,164	338,747	171,407
20,604	-2,141	338,435	171,260
21,619	-2,179	338,054	171,008
22,634	-2,086	337,632	170,888
23,648	-2,143	337,304	170,640
24,663	-2,198	337,036	170,426
25,677	-2,147	336,729	170,314
26,692	-2,144	336,281	170,076
27,707	-2,085	336,065	170,020
28,721	-2,068	335,599	169,789
29,736	-2,201	335,404	169,522
30,750	-2,192	335,330	169,479
31,765	-2,186	334,959	169,283
32,780	-2,202	334,630	169,084
33,794	-2,291	334,463	168,882
34,809	-2,383	334,114	168,585
35,823	-2,203	333,736	168,585
36,838	-2,169	333,339	168,409
37,853	-2,178	333,092	168,259
38,867	-2,235	332,857	168,060
39,882	-2,359	332,783	167,865
40,896	-2,203	332,307	167,789
41,911	-2,357	332,094	167,491
42,926	-2,352	331,783	167,325
43,940	-2,292	331,439	167,206
44,955	-2,324	331,317	167,091
45,969	-2,347	330,997	166,890
46,984	-2,342	330,656	166,708
47,999	-2,566	330,318	166,270
49,013	-2,789	330,071	165,877
50,028	-2,872	329,863	165,664
51,042	-2,751	329,486	165,596
52,057	-2,881	329,193	165,288
53,071	-2,782	328,835	165,206
54,086	-2,625	328,637	165,268
55,101	-2,783	328,481	164,997
56,115	-2,546	328,333	165,175
57,130	-2,162	328,117	165,484
58,144	-2,171	328,032	165,415
59,159	-2,152	327,766	165,288
60,174	-2,101	327,542	165,218
61,188	-2,103	327,154	165,005
62,203	-2,095	326,945	164,893
63,217	-2,173	326,714	164,675
64,232	-1,976	326,403	164,724
65,247	-1,975	326,245	164,630
66,261	-2,019	325,972	164,429
67,276	-2,239	325,492	163,927
68,290	-2,487	325,289	163,533
69,305	-2,336	325,052	163,568
70,320	-2,472	324,896	163,324
71,334	-2,264	324,537	163,359
72,349	-2,133	324,547	163,496
73,363	-2,016	324,131	163,402
74,378	-2,036	323,923	163,261
75,393	-1,901	323,530	163,196
76,407	-2,225	323,444	162,780
77,422	-2,159	323,099	162,665
78,436	-2,045	322,991	162,723
79,451	-2,157	322,736	162,455
80,466	-2,191	322,292	162,180
81,480	-2,357	322,083	161,877
82,495	-2,316	321,751	161,741
83,509	-2,349	321,581	161,605
84,524	-2,275	321,248	161,505
85,539	-2,516	321,103	161,153
86,553	-2,406	320,692	161,052
87,568	-2,511	320,637	160,896
88,582	-2,417	320,414	160,872
89,597	-2,320	320,081	160,797
90,611	-2,274	319,965	160,775
91,626	-2,097	319,650	160,796
92,641	-2,172	319,579	160,664
93,655	-2,273	319,356	160,427
94,670	-2,260	318,918	160,207
95,684	-2,336	318,767	160,033
96,699	-2,230	318,568	160,034
97,714	-2,409	318,377	159,730
98,728	-2,389	317,987	159,542
99,743	-2,461	317,748	159,330
100,757	-2,486	317,637	159,232
101,772	-2,548	317,418	159,042
102,787	-2,248	317,153	159,219
103,801	-2,433	317,120	158,988
104,816	-2,324	316,775	158,919
105,830	-2,197	316,482	158,895
106,845	-2,240	316,502	158,845
107,860	-2,126	316,031	158,717
108,874	-2,208	315,971	158,583
109,889	-2,214	315,621	158,387
110,903	-2,247	315,398	158,226
111,918	-2,377	315,273	158,010
112,933	-2,284	314,895	157,905
113,947	-2,080	314,651	157,988
114,962	-2,152	314,438	157,790
115,976	-2,347	314,392	157,545
116,991	-2,197	313,969	157,479
118,006	-2,284	313,921	157,348
119,020	-2,232	313,687	157,272
120,035	-2,268	313,748	157,250
121,049	-2,077	313,302	157,216
122,064	-2,247	313,074	156,907
123,079	-2,162	312,881	156,886
124,093	-2,289	312,533	156,563
125,108	-2,532	312,297	156,172
126,122	-2,705	312,054	155,852
127,137	-2,548	311,700	155,828
128,151	-2,536	311,529	155,742
129,166	-2,556	311,416	155,650
130,181	-2,458	311,133	155,599
131,195	-2,687	310,891	155,221
132,210	-2,406	310,708	155,414
133,224	-2,309	310,597	155,447
134,239	-2,196	310,277	155,392
135,254	-2,005	310,092	155,487
136,268	-2,385	309,707	154,880
137,283	-2,513	309,435	154,595
138,297	-2,771	309,250	154,217
139,312	-2,515	309,016	154,356
140,327	-2,319	308,986	154,533
141,341	-2,051	308,884	154,750
142,356	-2,054	308,700	154,641
143,370	-1,932	308,617	154,714
144,385	-1,773	308,269	154,693
145,400	-1,928	308,023	154,393
146,414	-1,906	307,760	154,270
147,429	-1,819	307,593	154,264
148,443	-2,011	307,312	153,909
149,458	-1,946	307,166	153,890
150,473	-1,879	307,033	153,879
151,487	-2,040	306,686	153,523
152,502	-1,893	306,466	153,553
153,516	-1,818	306,304	153,536
154,531	-1,828	306,138	153,429
155,546	-1,908	305,836	153,181
156,560	-2,077	305,653	152,899
157,575	-2,232	305,496	152,646
158,589	-1,987	305,151	152,714
159,604	-1,980	304,897	152,581
160,619	-1,715	304,721	152,754
161,633	-1,959	304,575	152,415
162,648	-1,805	304,316	152,430
163,662	-1,794	304,267	152,403
164,677	-1,978	303,942	152,037
165,692	-2,035	303,916	151,952
166,706	-1,841	303,575	151,968
167,721	-2,074	303,356	151,604
168,735	-1,942	303,185	151,642
169,750	-1,761	303,146	151,795
170,764	-1,615	302,807	151,762
171,779	-1,670	302,804	151,691
172,794	-1,893	302,674	151,382
173,808	-1,905	302,334	151,186
174,823	-2,287	301,831	150,530
175,837	-2,597	301,645	150,107
176,852	-2,068	301,490	150,557
177,867	-1,861	301,481	150,751
178,881	-1,808	301,400	150,752
179,896	-1,814	301,139	150,601
180,910	-1,879	301,028	150,467
181,925	-1,873	300,714	150,301
182,940	-1,830	300,436	150,193
183,954	-1,829	300,415	150,170
184,969	-1,854	300,107	149,977
185,983	-1,801	299,937	149,933
186,998	-1,673	299,664	149,913
188,013	-1,836	299,479	149,642
189,027	-1,710	299,302	149,668
190,042	-1,805	299,123	149,468
191,056	-1,866	299,057	149,361
192,071	-1,872	298,861	149,244
193,086	-1,683	298,404	149,193
194,100	-1,655	298,351	149,181
195,115	-1,898	298,095	148,795
196,129	-1,924	297,831	148,623
197,144	-1,740	297,583	148,672
198,159	-1,753	297,479	148,593
199,173	-1,694	297,222	148,512
200,188	-1,728	297,135	148,420
201,202	-1,925	296,721	148,002
202,217	-2,343	296,554	147,487
203,232	-2,333	296,239	147,327
204,246	-1,992	296,133	147,602
205,261	-1,771	295,989	147,739
206,275	-1,853	295,916	147,607
207,290	-1,807	295,789	147,577
208,304	-1,723	295,435	147,471
209,319	-1,744	295,242	147,341
210,334	-1,681	294,892	147,216
211,348	-1,577	294,587	147,153
212,363	-1,850	294,694	146,922
213,377	-1,818	294,518	146,853
214,392	-1,840	294,236	146,678
215,407	-1,967	293,983	146,412
216,421	-2,301	293,831	145,991
217,436	-2,162	293,483	145,944
218,450	-2,180	293,410	145,876
219,465	-2,046	293,289	145,936
220,480	-1,814	293,157	146,087
221,494	-1,827	292,744	145,855
222,509	-1,942	292,684	145,699
223,523	-1,954	292,554	145,609
224,538	-1,672	292,358	145,777
225,553	-1,676	292,248	145,705
226,567	-1,714	291,984	145,523
227,582	-1,603	291,792	145,524
228,596	-1,751	291,677	145,308
229,611	-1,694	291,556	145,291
230,626	-1,635	291,270	145,193
231,640	-2,174	290,994	144,513
232,655	-2,323	290,547	144,132
233,669	-2,488	290,291	143,830
234,684	-2,420	290,156	143,818
235,699	-2,480	290,140	143,738
236,713	-2,242	289,974	143,875
237,728	-2,275	289,661	143,675
238,742	-1,941	289,599	143,958
239,757	-2,147	289,569	143,729
240,772	-1,871	289,209	143,807
241,786	-2,101	289,157	143,544
242,801	-2,100	288,874	143,392
243,815	-2,033	288,634	143,324
244,830	-2,125	288,617	143,214
245,844	-2,014	288,222	143,113
246,859	-2,135	288,192	142,968
247,874	-2,172	287,976	142,813
248,888	-2,103	287,766	142,763
249,903	-2,081	287,693	142,735
250,917	-1,903	287,502	142,800
251,932	-1,797	287,285	142,782
252,947	-1,310	287,425	143,310
253,961	-1,721	286,972	142,675
254,976	-0,715	287,377	143,836
255,990	1,827	288,166	146,682
257,005	2,484	288,273	147,359
258,020	4,042	288,620	149,033
259,034	4,085	288,589	149,046
260,049	4,256	288,339	149,069
261,063	3,921	287,996	148,555
262,078	4,024	287,922	148,602
263,093	4,643	287,994	149,224
264,107	4,620	287,795	149,085
265,122	4,717	287,661	149,096
266,136	4,945	287,509	149,224
267,151	4,746	287,363	148,943
268,166	4,705	287,041	148,724
269,180	4,498	286,780	148,377
270,195	4,604	286,723	148,435
271,209	4,844	286,403	148,487
272,224	4,507	286,344	148,120
273,239	4,429	286,120	147,916
274,253	4,425	285,869	147,769
275,268	4,820	285,900	148,149
276,282	4,728	285,572	147,879
277,297	4,804	285,378	147,838
278,312	4,908	285,387	147,929
279,326	4,874	285,169	147,770
280,341	4,583	284,741	147,258
281,355	4,553	284,640	147,163
282,370	4,389	284,443	146,893
283,384	4,523	284,158	146,860
284,399	4,350	284,106	146,655
285,414	4,385	283,937	146,588
286,428	4,348	283,744	146,440
287,443	4,281	283,389	146,181
288,457	4,058	283,182	145,849
289,472	4,102	283,052	145,811
290,487	4,329	283,014	145,993
291,501	4,163	282,513	145,566
292,516	4,048	282,404	145,387
293,530	3,775	282,390	145,109
294,545	4,125	282,352	145,408
295,560	4,426	282,024	145,509
296,574	4,158	281,698	145,076
297,589	4,233	281,644	145,106
298,603	4,644	281,631	145,472
299,618	4,608	281,400	145,307
300,633	4,563	281,170	145,133
301,647	4,446	281,003	144,924
302,662	4,361	280,918	144,787
303,676	4,129	280,656	144,421
304,691	4,181	280,220	144,234
305,706	3,852	280,061	143,831
306,720	4,027	279,745	143,819
307,735	3,984	279,805	143,797
308,749	4,133	279,645	143,842
309,764	4,303	279,418	143,870
310,779	4,064	279,140	143,491
311,793	3,911	278,886	143,205
312,808	3,858	278,892	143,146
313,822	4,079	278,533	143,155
314,837	3,882	278,367	142,874
315,852	3,755	278,262	142,689
316,866	3,976	278,003	142,748
317,881	4,122	277,931	142,834
318,895	4,059	277,644	142,616
319,910	3,716	277,501	142,212
320,925	3,709	277,382	142,132
321,939	3,906	277,221	142,219
322,954	4,054	277,043	142,251
323,968	4,131	276,981	142,279
324,983	4,244	276,732	142,242
325,997	4,356	276,625	142,277
327,012	4,382	276,507	142,229
328,027	4,384	276,283	142,102
329,041	4,064	276,209	141,757
330,056	4,166	275,934	141,697
331,070	4,151	275,651	141,525
332,085	4,142	275,501	141,427
333,100	4,034	275,316	141,221
334,114	4,135	275,094	141,187
335,129	4,053	274,821	140,959
336,143	4,372	274,695	141,174
337,158	4,389	274,762	141,211
338,173	4,185	274,432	140,842
339,187	4,151	274,297	140,729
340,202	4,029	274,207	140,559
341,216	4,331	274,062	140,748
342,231	4,332	273,892	140,649
343,246	4,035	273,654	140,243
344,260	4,143	273,447	140,223
345,275	4,116	273,337	140,130
346,289	4,442	273,390	140,441
347,304	4,375	273,067	140,202
348,319	4,164	272,792	139,857
349,333	4,137	272,806	139,827
350,348	4,418	272,594	139,960
351,362	4,566	272,372	139,968
352,377	4,310	272,204	139,638
353,392	4,448	272,034	139,663
354,406	4,529	271,919	139,664
355,421	192,114	1331,999	1412,185
356,435	155,211	1461,250	1412,314
