DTS Sentinel unit serial number:	SN410029Multiplexer serial number:	ORYXHardware model number:	OX2-SRSoftware version number:	ORYX F/W v4,00 Oryx Data Collector v3.7.2.0data status	okinstallation	B4 Nyhavnadifferential loss correction	single-endedforward channel	channel 2reverse channel	N/Adate	2023/12/19time	00:55:13forward acquisition time	300,00reverse acquisition time	0,00gamma	499,1914k internal	0,3123k external	0,3123temperature offset calibration	1,0000default loss term (dB/km)	0,3820temperature slope calibration	1,0000multiplexer offset coefficient	1,0000multiplexer slope coefficient	1,0000fibre end	0,00T internal ref (°C)	21,94T ext. ref 1 (°C)	6,28T ext. ref 2 (°C)	6,28length (m)	temperature (°C)	Stokes	anti-Stokes-744,400	-118,924	-0,034	0,004
-743,385	263,961	-0,156	0,203
-742,371	260,459	0,068	-0,088
-741,356	201,716	-0,118	0,136
-740,342	74,801	0,029	-0,023
-739,327	-127,173	-0,164	0,018
-738,312	-127,386	-0,111	0,012
-737,298	-24,014	-0,214	0,095
-736,283	6,094	0,041	-0,023
-735,269	180,127	-0,099	0,108
-734,254	363,205	-0,041	-0,061
-733,239	-63,727	-0,443	-0,135
-732,225	122,912	0,096	0,090
-731,210	446,546	0,067	0,109
-730,196	2,264	0,135	0,073
-729,181	-125,034	0,040	0,004
-728,167	605,633	-0,030	-0,057
-727,152	800,000	-0,058	0,128
-726,137	-200,000	0,036	0,156
-725,123	-80,631	-0,183	-0,045
-724,108	486,999	-0,056	-0,096
-723,094	-159,653	-0,260	0,011
-722,079	-200,000	-0,002	0,078
-721,064	-200,000	0,014	0,071
-720,050	64,728	-0,063	-0,048
-719,035	-200,000	0,019	-0,131
-718,021	144,804	-0,150	0,149
-717,006	341,482	-0,115	-0,168
-715,991	-200,000	-0,026	-0,089
-714,977	800,000	-0,026	-0,085
-713,962	800,000	-0,029	0,068
-712,948	-200,000	-0,016	0,080
-711,933	-171,080	0,076	0,002
-710,918	-200,000	-0,025	0,167
-709,904	365,620	0,019	0,029
-708,889	-83,468	-0,098	-0,023
-707,875	-200,000	-0,026	-0,100
-706,860	62,879	0,023	0,017
-705,845	-19,027	-0,079	0,036
-704,831	-7,123	-0,090	0,045
-703,816	-134,857	-0,095	-0,008
-702,802	72,073	0,092	-0,071
-701,787	-200,000	0,022	-0,076
-700,772	-12,895	0,052	-0,025
-699,758	-200,000	-0,023	0,117
-698,743	-200,000	-0,016	-0,055
-697,729	-200,000	-0,015	0,084
-696,714	-200,000	-0,001	-0,157
-695,699	521,829	0,042	-0,074
-694,685	-200,000	-0,001	0,029
-693,670	-129,412	-0,097	-0,010
-692,656	800,000	0,023	0,065
-691,641	16,655	-0,053	0,031
-690,627	403,342	0,022	-0,034
-689,612	-200,000	0,001	0,070
-688,597	-200,000	-0,002	0,046
-687,583	-2,182	-0,093	-0,048
-686,568	-200,000	0,016	0,075
-685,554	-184,131	0,220	-0,003
-684,539	-28,711	0,033	0,014
-683,524	489,690	-0,027	0,046
-682,510	208,694	-0,022	-0,026
-681,495	-39,438	0,057	0,022
-680,481	-73,473	-0,042	0,011
-679,466	-200,000	-0,005	-0,061
-678,451	800,000	-0,009	-0,030
-677,437	-200,000	-0,002	-0,141
-676,422	-58,461	0,026	-0,008
-675,408	-179,734	0,045	-0,001
-674,393	47,533	-0,075	0,052
-673,378	-52,850	-0,118	-0,040
-672,364	-34,437	0,230	0,093
-671,349	170,408	-0,138	-0,147
-670,335	-200,000	0,027	0,131
-669,320	245,656	0,024	0,030
-668,305	-3,686	-0,081	-0,042
-667,291	-185,544	0,093	0,001
-666,276	-9,560	-0,130	-0,064
-665,262	21,490	-0,149	0,090
-664,247	-200,000	0,010	-0,040
-663,232	-200,000	-0,033	0,142
-662,218	154,906	0,078	0,080
-661,203	-56,507	-0,009	0,003
-660,189	5,649	0,097	-0,053
-659,174	800,000	0,015	-0,034
-658,159	12,076	-0,149	0,085
-657,145	-200,000	-0,018	-0,073
-656,130	159,119	0,090	0,093
-655,116	-200,000	0,021	-0,072
-654,101	-107,250	-0,097	-0,016
-653,086	2,751	0,057	-0,030
-652,072	-28,621	0,092	-0,039
-651,057	326,394	0,016	-0,022
-650,043	194,954	0,144	-0,163
-649,028	28,454	-0,079	-0,050
-648,014	335,045	0,042	-0,061
-646,999	245,834	0,087	-0,109
-645,984	14,176	0,067	-0,039
-644,970	-46,916	-0,151	-0,054
-643,955	-136,941	-0,067	-0,006
-642,941	800,000	-0,041	-0,096
-641,926	-200,000	-0,020	-0,124
-640,911	-126,594	0,151	0,016
-639,897	246,973	0,086	-0,108
-638,882	516,085	0,022	0,038
-637,868	209,697	-0,042	0,049
-636,853	75,116	-0,045	-0,035
-635,838	-9,678	0,086	0,042
-634,824	800,000	-0,058	0,177
-633,809	21,169	-0,065	-0,039
-632,795	-200,000	-0,022	0,124
-631,780	610,114	-0,032	0,059
-630,765	647,532	0,051	-0,097
-629,751	491,442	0,025	0,043
-628,736	26,216	-0,067	0,042
-627,722	-77,952	0,053	0,013
-626,707	11,111	0,056	0,032
-625,692	-6,927	0,038	0,019
-624,678	-200,000	0,021	0,095
-623,663	128,611	0,065	0,062
-622,649	284,348	-0,014	-0,019
-621,634	27,150	-0,136	-0,085
-620,619	492,141	0,068	-0,116
-619,605	-200,000	0,013	-0,057
-618,590	129,099	0,038	-0,036
-617,576	-200,000	-0,006	-0,075
-616,561	30,498	0,085	0,054
-615,546	-153,006	0,159	-0,008
-614,532	-27,547	-0,151	-0,065
-613,517	78,512	0,055	-0,044
-612,503	800,000	0,008	-0,017
-611,488	-36,557	0,144	-0,057
-610,474	-20,612	-0,079	0,036
-609,459	97,982	-0,060	0,051
-608,444	121,341	-0,079	-0,073
-607,430	-200,000	-0,019	-0,091
-606,415	800,000	0,050	-0,116
-605,401	-23,602	0,084	0,037
-604,386	800,000	-0,017	0,036
-603,371	-145,954	0,158	0,010
-602,357	-177,550	0,058	-0,001
-601,342	187,546	-0,057	-0,063
-600,328	711,708	-0,101	-0,199
-599,313	63,253	0,028	0,020
-598,298	-42,113	-0,146	0,055
-597,284	-103,144	-0,139	-0,024
-596,269	-133,868	0,068	-0,006
-595,255	530,251	-0,016	0,029
-594,240	-135,537	-0,007	0,001
-593,225	-143,722	-0,095	0,007
-592,211	-24,636	-0,093	-0,041
-591,196	11,625	-0,122	-0,069
-590,182	212,808	0,094	-0,110
-589,167	-79,000	0,080	-0,020
-588,152	-22,977	-0,032	-0,014
-587,138	424,133	0,030	0,049
-586,123	-200,000	0,000	-0,035
-585,109	-200,000	0,008	-0,101
-584,094	-52,173	-0,153	0,052
-583,079	800,000	-0,034	0,076
-582,065	325,382	-0,036	-0,051
-581,050	-200,000	-0,013	0,133
-580,036	416,265	-0,081	0,128
-579,021	-66,660	-0,039	0,011
-578,006	-132,470	-0,112	0,011
-576,992	-200,000	-0,013	-0,049
-575,977	800,000	-0,022	-0,049
-574,963	503,771	-0,005	-0,008
-573,948	-200,000	0,002	0,101
-572,934	-104,895	-0,012	-0,002
-571,919	800,000	-0,023	0,064
-570,904	-76,343	0,073	0,019
-569,890	-56,852	-0,050	-0,016
-568,875	20,311	-0,026	0,016
-567,861	58,457	-0,089	-0,065
-566,846	800,000	0,020	0,049
-565,831	800,000	0,051	-0,133
-564,817	-67,565	0,042	0,012
-563,802	-200,000	0,003	-0,076
-562,788	-68,719	-0,061	0,017
-561,773	107,692	0,103	-0,091
-560,758	566,528	-0,083	-0,150
-559,744	-200,000	-0,009	0,107
-558,729	172,832	0,097	0,103
-557,715	-200,000	-0,004	0,015
-556,700	5,953	0,093	0,051
-555,685	-200,000	0,041	-0,172
-554,671	538,000	0,032	-0,057
-553,656	166,613	-0,083	0,087
-552,642	-79,580	0,053	0,013
-551,627	291,939	-0,043	0,058
-550,612	185,630	-0,038	0,041
-549,598	27,478	-0,071	0,044
-548,583	99,656	0,042	0,036
-547,569	-23,975	0,095	-0,042
-546,554	-29,618	0,121	0,051
-545,539	60,561	0,100	0,073
-544,525	726,194	-0,011	-0,021
-543,510	54,408	-0,079	0,056
-542,496	105,363	0,092	0,080
-541,481	800,000	-0,012	-0,029
-540,466	107,140	-0,104	-0,091
-539,452	-200,000	0,002	0,015
-538,437	445,671	-0,042	0,069
-537,423	-146,558	0,054	-0,003
-536,408	30,790	0,056	0,035
-535,393	-200,000	0,028	-0,110
-534,379	-200,000	0,010	-0,067
-533,364	-95,930	0,097	-0,019
-532,350	-200,000	0,002	-0,069
-531,335	-124,468	0,117	0,013
-530,321	-200,000	0,007	-0,135
-529,306	110,714	-0,116	-0,104
-528,291	-148,468	-0,077	-0,005
-527,277	-200,000	0,045	-0,148
-526,262	800,000	0,065	-0,146
-525,248	-151,885	0,109	-0,006
-524,233	-21,690	0,001	0,001
-523,218	16,127	0,056	0,032
-522,204	149,810	-0,036	-0,036
-521,189	-200,000	-0,047	-0,154
-520,175	-46,208	-0,129	-0,047
-519,160	-200,000	-0,009	-0,143
-518,145	-200,000	0,018	0,073
-517,131	47,001	-0,097	0,067
-516,116	409,745	-0,057	-0,089
-515,102	99,834	-0,033	0,028
-514,087	376,560	0,028	-0,042
-513,072	-200,000	-0,019	0,091
-512,058	73,842	0,065	-0,050
-511,043	28,517	0,050	0,031
-510,029	800,000	0,038	0,116
-509,014	7,020	0,056	0,031
-507,999	-49,535	-0,098	0,034
-506,985	27,082	-0,026	0,016
-505,970	-200,000	-0,034	0,115
-504,956	-200,000	-0,001	-0,159
-503,941	223,310	-0,098	-0,117
-502,926	38,544	0,053	0,035
-501,912	-16,368	0,104	0,049
-500,897	-137,007	0,139	-0,012
-499,883	38,252	-0,038	-0,025
-498,868	74,238	-0,082	0,063
-497,853	-200,000	-0,013	-0,057
-496,839	-93,121	-0,109	-0,022
-495,824	19,975	0,050	0,030
-494,810	-195,073	-0,070	-0,000
-493,795	-200,000	0,013	0,053
-492,781	800,000	-0,011	-0,023
-491,766	-95,217	-0,156	0,031
-490,751	35,574	0,091	0,059
-489,737	155,113	0,102	0,104
-488,722	87,157	0,074	0,060
-487,708	56,820	0,081	0,058
-486,693	132,087	0,172	0,164
-485,678	50,352	-0,088	0,061
-484,664	-200,000	-0,018	0,090
-483,649	559,335	-0,108	-0,193
-482,635	-200,000	-0,007	-0,049
-481,620	254,213	0,074	0,093
-480,605	122,094	-0,079	0,073
-479,591	314,766	-0,033	0,046
-478,576	342,954	-0,041	0,059
-477,562	800,000	0,016	-0,040
-476,547	0,288	0,089	-0,047
-475,532	-200,000	0,020	-0,158
-474,518	195,834	0,061	-0,068
-473,503	148,362	0,058	0,058
-472,489	-200,000	-0,023	-0,076
-471,474	246,089	-0,068	0,085
-470,459	250,334	-0,110	-0,139
-469,445	-12,686	0,081	0,039
-468,430	-82,301	0,098	0,023
-467,416	139,156	-0,143	-0,138
-466,401	272,625	0,053	0,069
-465,386	142,383	0,042	-0,041
-464,372	-50,724	0,123	-0,043
-463,357	800,000	-0,030	0,080
-462,343	-200,000	0,032	-0,135
-461,328	169,883	0,096	-0,101
-460,313	-200,000	0,009	0,034
-459,299	363,846	-0,069	-0,103
-458,284	800,000	0,050	0,156
-457,270	800,000	0,042	0,128
-456,255	-200,000	0,003	0,010
-455,241	27,376	-0,045	0,028
-454,226	150,082	0,067	0,067
-453,211	-200,000	0,003	-0,044
-452,197	19,942	0,069	-0,041
-451,182	-40,748	0,032	-0,012
-450,168	-200,000	-0,016	0,141
-449,153	-200,000	0,018	-0,078
-448,138	-32,436	-0,094	0,039
-447,124	-119,607	0,055	-0,007
-446,109	-49,985	0,141	0,049
-445,095	-200,000	-0,013	0,126
-444,080	35,686	0,073	-0,047
-443,065	-200,000	-0,009	0,080
-442,051	-71,476	-0,098	-0,027
-441,036	40,398	-0,045	-0,030
-440,022	-200,000	-0,021	-0,114
-439,007	-117,411	0,102	0,013
-437,992	-200,000	-0,015	-0,063
-436,978	-200,000	0,020	-0,071
-435,963	-200,000	0,007	0,094
-434,949	126,333	-0,011	-0,011
-433,934	-61,248	-0,051	-0,016
-432,919	-200,000	-0,023	-0,080
-431,905	-191,698	0,053	0,000
-430,890	800,000	-0,027	0,082
-429,876	-200,000	0,066	0,240
-428,861	-75,733	0,080	0,021
-427,846	-127,180	0,071	0,008
-426,832	154,111	0,022	0,022
-425,817	390,935	-0,033	0,050
-424,803	90,249	-0,109	-0,090
-423,788	-143,130	0,202	0,014
-422,773	-97,830	-0,112	-0,021
-421,759	-87,181	0,036	0,008
-420,744	700,475	-0,088	0,172
-419,730	136,392	0,034	-0,033
-418,715	-200,000	0,025	0,126
-417,701	432,106	-0,067	-0,108
-416,686	93,606	0,045	-0,038
-415,671	-12,778	0,027	-0,013
-414,657	39,980	0,125	-0,083
-413,642	-200,000	0,004	0,029
-412,628	-101,583	-0,121	-0,021
-411,613	704,365	-0,057	-0,111
-410,598	-200,000	0,008	0,049
-409,584	273,291	0,034	-0,045
-408,569	-200,000	0,016	-0,059
-407,555	-18,514	-0,074	0,034
-406,540	-85,916	-0,046	-0,010
-405,525	119,138	0,080	0,073
-404,511	800,000	-0,018	0,053
-403,496	-104,889	-0,032	0,005
-402,482	161,528	-0,057	0,059
-401,467	-200,000	0,014	-0,053
-400,452	1,628	0,053	0,028
-399,438	746,949	-0,028	0,056
-398,423	-200,000	0,019	0,074
-397,409	233,140	-0,066	-0,080
-396,394	55,393	-0,076	-0,054
-395,379	-26,452	-0,066	-0,028
-394,365	132,803	0,023	-0,022
-393,350	169,976	-0,022	-0,023
-392,336	-200,000	-0,006	0,032
-391,321	118,087	-0,036	0,033
-390,306	800,000	0,038	-0,120
-389,292	255,249	-0,041	-0,052
-388,277	362,880	0,034	0,051
-387,263	66,252	0,021	0,016
-386,248	-1,875	0,118	0,061
-385,233	379,220	-0,033	0,050
-384,219	-200,000	-0,013	0,179
-383,204	20,778	0,053	0,031
-382,190	-124,021	-0,104	0,012
-381,175	-85,081	-0,127	0,029
-380,160	326,543	0,088	-0,124
-379,146	36,843	0,173	0,112
-378,131	166,828	0,062	-0,065
-377,117	800,000	0,023	0,068
-376,102	193,244	0,158	0,176
-375,088	-106,918	0,149	0,024
-374,073	179,694	-0,040	0,043
-373,058	800,000	-0,033	-0,079
-372,044	800,000	0,042	0,093
-371,029	-94,239	-0,148	-0,029
-370,015	-200,000	-0,029	-0,112
-369,000	800,000	-0,060	-0,130
-367,985	-160,894	-0,110	0,004
-366,971	-90,990	0,084	-0,018
-365,956	-127,974	-0,080	0,008
-364,942	-200,000	0,020	0,131
-363,927	-59,950	0,052	0,016
-362,912	48,843	-0,047	-0,032
-361,898	57,898	0,039	-0,028
-360,883	632,560	-0,082	-0,153
-359,869	-10,974	0,018	-0,008
-358,854	800,000	-0,015	0,046
-357,839	-200,000	0,001	-0,040
-356,825	103,117	0,034	-0,030
-355,810	800,000	-0,013	-0,030
-354,796	759,026	-0,035	0,070
-353,781	274,583	-0,060	-0,078
-352,766	-200,000	-0,076	-0,267
-351,752	403,272	-0,047	-0,072
-350,737	-200,000	-0,003	0,012
-349,723	65,089	-0,017	0,012
-348,708	94,701	-0,027	-0,023
-347,693	-162,934	0,103	-0,004
-346,679	-118,051	0,071	0,009
-345,664	189,673	0,046	-0,050
-344,650	-200,000	0,025	-0,171
-343,635	-116,385	0,041	-0,006
-342,620	-61,920	0,161	-0,049
-341,606	363,113	0,089	0,131
-340,591	-6,967	-0,082	0,041
-339,577	144,049	-0,157	-0,154
-338,562	800,000	-0,068	-0,150
-337,548	104,091	0,150	-0,130
-336,533	-200,000	-0,028	0,094
-335,518	-200,000	-0,013	-0,085
-334,504	-200,000	-0,003	0,036
-333,489	-63,284	0,161	-0,048
-332,475	391,539	-0,021	0,032
-331,460	-180,555	-0,135	-0,002
-330,445	-194,368	-0,028	0,000
-329,431	800,000	-0,020	-0,057
-328,416	-150,221	-0,104	-0,006
-327,402	394,368	0,024	0,037
-326,387	-200,000	-0,005	0,109
-325,372	20,412	-0,100	0,059
-324,358	351,250	-0,056	-0,081
-323,343	-200,000	-0,005	0,032
-322,329	-200,000	0,027	-0,104
-321,314	191,402	0,086	0,095
-320,299	63,031	-0,060	-0,044
-319,285	491,814	0,035	0,059
-318,270	800,000	-0,037	-0,107
-317,256	-118,279	-0,072	0,009
-316,241	704,075	0,029	-0,057
-315,226	-200,000	-0,001	0,019
-314,212	800,000	0,033	0,085
-313,197	-1,525	-0,026	-0,013
-312,183	-149,179	-0,063	0,004
-311,168	-27,477	-0,056	-0,024
-310,153	-29,977	0,083	-0,035
-309,139	-30,600	0,075	0,031
-308,124	-148,235	0,075	0,004
-307,110	4,870	0,120	0,064
-306,095	800,000	0,023	-0,073
-305,080	40,625	0,094	-0,062
-304,066	352,266	-0,097	0,141
-303,051	800,000	0,017	-0,047
-302,037	-200,000	-0,005	-0,038
-301,022	-62,489	0,082	-0,025
-300,008	-200,000	-0,003	0,016
-298,993	-200,000	0,015	0,095
-297,978	800,000	0,027	0,071
-296,964	-200,000	0,005	0,064
-295,949	270,529	0,016	-0,021
-294,935	-200,000	0,000	-0,063
-293,920	800,000	-0,009	0,028
-292,905	148,449	0,084	-0,083
-291,891	-73,806	0,045	-0,012
-290,876	55,615	-0,074	0,053
-289,862	334,062	0,065	0,092
-288,847	21,205	-0,083	0,049
-287,832	800,000	0,034	-0,085
-286,818	800,000	0,052	-0,126
-285,803	-200,000	0,046	0,167
-284,789	-200,000	0,011	0,151
-283,774	800,000	-0,034	0,107
-282,759	205,012	-0,016	0,019
-281,745	-118,513	0,129	0,016
-280,730	-200,000	0,013	0,089
-279,716	-200,000	0,012	0,071
-278,701	156,274	-0,018	-0,019
-277,686	800,000	0,035	0,080
-276,672	-200,000	-0,015	0,120
-275,657	-152,705	0,138	-0,007
-274,643	-200,000	0,005	-0,073
-273,628	277,008	-0,068	-0,089
-272,613	11,823	-0,116	-0,065
-271,599	232,131	0,079	0,096
-270,584	-13,655	0,169	-0,080
-269,570	97,603	-0,118	0,099
-268,555	-200,000	0,021	0,230
-267,540	-200,000	-0,015	-0,112
-266,526	182,742	-0,012	0,013
-265,511	99,012	0,068	0,057
-264,497	534,381	-0,062	-0,108
-263,482	-200,000	-0,002	-0,046
-262,467	-200,000	0,035	0,138
-261,453	-200,000	-0,016	0,128
-260,438	-200,000	-0,019	-0,127
-259,424	608,195	-0,051	0,094
-258,409	516,557	0,077	-0,133
-257,395	-200,000	0,009	-0,131
-256,380	-85,940	-0,096	-0,022
-255,365	-200,000	-0,009	0,098
-254,351	-200,000	0,006	-0,037
-253,336	-61,966	0,012	-0,004
-252,322	-200,000	-0,020	0,103
-251,307	-180,709	0,063	0,001
-250,292	228,498	-0,073	-0,087
-249,278	-96,032	-0,034	0,007
-248,263	-200,000	0,003	0,100
-247,249	800,000	0,026	0,082
-246,234	-200,000	0,007	0,049
-245,219	800,000	-0,015	-0,039
-244,205	181,311	0,092	-0,099
-243,190	800,000	0,043	0,119
-242,176	-61,815	0,100	-0,030
-241,161	-200,000	0,049	0,190
-240,146	-130,921	0,148	0,014
-239,132	219,040	0,048	0,056
-238,117	182,810	-0,081	0,088
-237,103	60,150	-0,089	-0,065
-236,088	-146,811	-0,088	0,005
-235,073	3,988	0,056	0,030
-234,059	-200,000	-0,002	0,077
-233,044	-200,000	0,012	0,144
-232,030	86,862	0,092	0,074
-231,015	-200,000	-0,011	-0,076
-230,000	-200,000	-0,019	-0,077
-228,986	49,759	0,077	-0,053
-227,971	-200,000	0,030	-0,118
-226,957	-200,000	-0,006	-0,109
-225,942	72,823	-0,137	0,104
-224,927	214,983	0,092	0,107
-223,913	198,832	-0,169	-0,189
-222,898	-200,000	-0,002	-0,139
-221,884	-200,000	-0,002	0,064
-220,869	-11,520	0,086	0,041
-219,855	-200,000	-0,036	0,119
-218,840	-200,000	0,004	-0,028
-217,825	-73,705	0,018	-0,005
-216,811	332,478	-0,065	0,092
-215,796	538,805	-0,057	-0,100
-214,782	-73,981	-0,054	0,014
-213,767	95,403	-0,041	0,034
-212,752	-120,248	-0,023	0,003
-211,738	731,972	0,049	-0,097
-210,723	-3,899	0,099	-0,050
-209,709	-117,864	-0,195	0,025
-208,694	800,000	-0,048	-0,103
-207,679	-43,139	0,038	0,014
-206,665	206,046	-0,048	0,054
-205,650	800,000	0,055	0,167
-204,636	682,364	-0,036	0,069
-203,621	307,505	-0,029	-0,040
-202,606	731,064	-0,012	-0,023
-201,592	119,667	-0,125	0,113
-200,577	61,711	-0,100	-0,072
-199,563	-127,876	-0,072	0,008
-198,548	190,906	0,055	0,060
-197,533	204,071	0,063	0,071
-196,519	521,004	-0,042	0,071
-195,504	-200,000	-0,006	-0,087
-194,490	136,321	-0,091	0,087
-193,475	800,000	0,033	0,083
-192,460	-35,584	0,032	0,012
-191,446	800,000	0,004	-0,011
-190,431	20,969	0,059	0,035
-189,417	542,356	0,043	0,075
-188,402	-200,000	-0,027	-0,141
-187,387	187,498	-0,127	-0,139
-186,373	-200,000	-0,028	-0,188
-185,358	-200,000	0,000	-0,125
-184,344	75,007	0,044	0,033
-183,329	195,938	-0,027	-0,030
-182,315	26,699	0,056	-0,034
-181,300	720,385	-0,058	0,113
-180,285	-124,180	-0,129	-0,015
-179,271	-200,000	0,015	0,123
-178,256	-33,343	-0,021	0,008
-177,242	-200,000	-0,016	-0,070
-176,227	-95,799	-0,062	-0,012
-175,212	51,034	0,036	-0,025
-174,198	-200,000	0,001	0,156
-173,183	324,583	0,018	0,026
-172,169	25,308	-0,171	-0,103
-171,154	-56,037	-0,118	0,038
-170,139	208,508	-0,129	0,147
-169,125	614,970	-0,062	0,113
-168,110	800,000	-0,061	0,182
-167,096	-11,407	0,103	0,049
-166,081	-2,644	-0,168	0,085
-165,066	42,490	-0,208	-0,138
-164,052	-95,200	-0,062	-0,012
-163,037	-200,000	0,018	0,076
-162,023	-60,238	0,202	-0,062
-161,008	65,506	0,011	-0,008
-159,993	-200,000	-0,029	-0,168
-158,979	479,818	0,109	0,180
-157,964	164,713	0,091	-0,094
-156,950	-200,000	-0,008	-0,181
-155,935	-153,113	0,087	-0,004
-154,920	800,000	-0,040	-0,086
-153,906	-200,000	0,019	0,184
-152,891	26,488	-0,092	0,056
-151,877	-200,000	-0,012	0,044
-150,862	-200,000	0,010	0,049
-149,847	261,348	-0,113	-0,143
-148,833	131,399	0,086	0,081
-147,818	800,000	-0,026	0,072
-146,804	-63,746	0,042	0,012
-145,789	-200,000	-0,010	-0,151
-144,775	-200,000	-0,037	-0,182
-143,760	-6,946	-0,162	0,080
-142,745	16,731	-0,107	-0,061
-141,731	-142,098	-0,114	0,008
-140,716	800,000	0,061	0,132
-139,702	-200,000	-0,002	-0,045
-138,687	709,080	0,017	-0,033
-137,672	311,368	-0,013	0,018
-136,658	800,000	-0,035	-0,102
-135,643	-143,972	-0,078	0,005
-134,629	206,825	0,143	-0,162
-133,614	-39,809	0,028	-0,010
-132,599	340,272	0,092	0,131
-131,585	-11,299	-0,106	0,051
-130,570	800,000	0,054	0,123
-129,556	-200,000	-0,009	0,141
-128,541	380,294	-0,013	0,019
-127,526	96,931	-0,016	-0,013
-126,512	213,723	0,017	0,020
-125,497	-53,557	0,127	0,042
-124,483	-78,173	0,099	0,025
-123,468	-14,881	-0,046	-0,021
-122,453	8,533	-0,087	-0,048
-121,439	-200,000	-0,020	-0,093
-120,424	-200,000	-0,041	-0,222
-119,410	-148,429	0,102	-0,006
-118,395	800,000	-0,018	-0,042
-117,380	-88,745	0,043	0,009
-116,366	194,233	0,003	-0,004
-115,351	-200,000	0,002	-0,045
-114,337	-44,185	-0,188	-0,068
-113,322	-200,000	0,027	-0,128
-112,307	3,448	0,176	-0,093
-111,293	-200,000	0,011	-0,094
-110,278	800,000	-0,017	-0,037
-109,264	-170,115	-0,062	-0,002
-108,249	800,000	0,012	-0,036
-107,234	-43,942	-0,130	-0,047
-106,220	-78,429	0,086	-0,021
-105,205	-69,626	-0,077	-0,021
-104,191	415,936	0,078	0,122
-103,176	800,000	-0,052	-0,134
-102,162	341,891	0,065	0,093
-101,147	-66,390	-0,028	0,008
-100,132	133,259	-0,011	0,010
-99,118	-78,085	-0,095	-0,024
-98,103	-200,000	-0,004	-0,071
-97,089	-27,928	0,029	-0,012
-96,074	726,220	0,114	0,222
-95,059	-25,034	-0,065	0,028
-94,045	133,816	0,062	0,058
-93,030	-200,000	0,025	-0,099
-92,016	-39,534	0,055	0,021
-91,001	458,982	-0,064	0,104
-89,986	41,789	0,024	0,016
-88,972	2,953	0,095	0,050
-87,957	-200,000	-0,000	0,081
-86,943	-189,808	0,100	0,001
-85,928	-69,086	-0,168	-0,047
-84,913	800,000	-0,012	-0,037
-83,899	800,000	-0,019	-0,047
-82,884	-200,000	0,009	-0,105
-81,870	-56,396	0,077	-0,025
-80,855	-21,379	-0,120	-0,053
-79,840	57,883	0,054	0,038
-78,826	111,668	-0,078	-0,069
-77,811	800,000	-0,015	0,036
-76,797	78,410	0,089	-0,069
-75,782	-200,000	0,015	-0,086
-74,767	354,180	0,063	-0,092
-73,753	173,630	-0,046	-0,048
-72,738	29,120	-0,123	0,075
-71,724	624,680	0,037	-0,068
-70,709	512,246	0,040	-0,068
-69,694	800,000	-0,055	-0,122
-68,680	362,684	0,100	0,147
-67,665	800,000	0,020	0,057
-66,651	129,935	0,034	0,032
-65,636	98,018	-0,087	0,073
-64,622	-130,798	-0,069	-0,007
-63,607	-130,984	0,073	-0,007
-62,592	800,000	-0,022	0,066
-61,578	39,785	0,071	-0,046
-60,563	58,456	0,037	0,026
-59,549	800,000	-0,028	0,067
-58,534	-188,481	-1,415	-0,012
-57,519	535,321	-0,751	-1,299
-56,505	-200,000	-0,802	-4,363
-55,490	21,992	0,579	-0,342
-54,476	800,000	4,971	11,689
-53,461	-200,000	14,025	254,133
-52,446	-200,000	694,539	2264,434
-51,432	600,155	1624,547	2938,675
-50,417	117,799	1633,343	1459,449
-49,403	73,742	1287,398	978,090
-48,388	37,506	1023,719	657,553
-47,373	23,958	981,954	586,141
-46,359	23,185	971,531	577,358
-45,344	22,242	967,150	571,650
-44,330	22,201	965,711	570,644
-43,315	22,055	964,116	569,204
-42,300	21,966	963,288	568,400
-41,286	21,949	962,198	567,682
-40,271	21,971	961,373	567,243
-39,257	21,983	960,291	566,620
-38,242	21,974	959,515	566,111
-37,227	21,912	958,725	565,421
-36,213	21,945	957,568	564,823
-35,198	21,935	956,700	564,255
-34,184	21,962	956,192	564,022
-33,169	21,892	955,584	563,414
-32,154	22,031	954,261	563,061
-31,140	22,001	953,560	562,527
-30,125	22,086	952,689	562,265
-29,111	21,970	951,867	561,385
-28,096	21,987	951,191	561,020
-27,082	21,978	950,510	560,564
-26,067	21,962	949,695	560,013
-25,052	21,999	948,885	559,629
-24,038	21,895	948,629	559,125
-23,023	21,946	947,834	558,797
-22,009	21,968	947,176	558,458
-20,994	22,047	946,324	558,185
-19,979	21,956	945,873	557,606
-18,965	21,957	945,206	557,194
-17,950	22,078	944,431	557,102
-16,936	21,931	943,900	556,295
-15,921	21,919	943,152	555,797
-14,906	21,825	942,616	555,159
-13,892	21,900	941,925	554,968
-12,877	21,841	941,191	554,327
-11,863	21,843	940,587	553,953
-10,848	21,888	940,026	553,747
-9,833	21,961	939,503	553,645
-8,819	21,867	939,089	553,081
-7,804	21,864	938,343	552,613
-6,790	21,840	937,745	552,162
-5,775	21,882	937,107	551,898
-4,760	21,856	936,448	551,404
-3,746	21,778	936,093	550,927
-2,731	21,765	935,081	550,270
-1,717	21,665	934,499	549,589
-0,702	21,717	933,703	549,261
0,313	21,496	933,220	549,112
1,327	23,852	930,791	555,043
2,342	31,262	808,847	502,423
3,356	25,692	509,172	306,729
4,371	1,048	373,813	193,778
5,386	-1,837	356,839	181,416
6,400	-3,011	350,868	176,944
7,415	-3,379	348,443	175,264
8,429	-3,172	346,976	174,758
9,444	-3,176	346,167	174,330
10,459	-3,094	345,493	174,073
11,473	-3,011	344,669	173,741
12,488	-3,101	344,173	173,368
13,502	-3,160	343,474	172,931
14,517	-3,198	343,168	172,717
15,531	-3,048	342,609	172,597
16,546	-2,959	342,234	172,498
17,561	-2,978	341,744	172,213
18,575	-3,055	341,503	171,986
19,590	-3,033	341,034	171,760
20,604	-3,013	340,814	171,657
21,619	-2,958	340,318	171,457
22,634	-2,883	339,892	171,315
23,648	-2,924	339,592	171,100
24,663	-2,965	339,255	170,867
25,677	-2,965	339,056	170,751
26,692	-2,909	338,719	170,631
27,707	-2,921	338,435	170,459
28,721	-2,852	338,115	170,364
29,736	-3,013	337,755	169,980
30,750	-2,978	337,323	169,788
31,765	-2,935	337,156	169,739
32,780	-2,936	337,012	169,650
33,794	-3,089	336,672	169,287
34,809	-3,125	336,334	169,060
35,823	-2,897	336,026	169,154
36,838	-3,088	335,746	168,776
37,853	-3,200	335,697	168,608
38,867	-3,008	335,125	168,526
39,882	-3,027	334,895	168,373
40,896	-2,966	334,640	168,301
41,911	-3,062	334,489	168,100
42,926	-3,041	334,124	167,925
43,940	-2,938	333,674	167,803
44,955	-2,862	333,511	167,793
45,969	-2,927	333,289	167,591
46,984	-2,926	333,040	167,452
47,999	-3,053	332,950	167,247
49,013	-2,967	332,677	167,193
50,028	-3,049	332,429	166,959
51,042	-3,063	332,119	166,774
52,057	-3,072	331,810	166,593
53,071	-2,909	331,456	166,586
54,086	-3,071	331,294	166,305
55,101	-3,066	331,065	166,182
56,115	-3,120	330,932	166,038
57,130	-3,008	330,499	165,934
58,144	-3,014	330,284	165,804
59,159	-3,044	329,946	165,586
60,174	-3,001	329,590	165,441
61,188	-2,990	329,322	165,304
62,203	-2,988	329,100	165,180
63,217	-2,939	328,974	165,157
64,232	-2,972	328,667	164,951
65,247	-3,205	328,557	164,619
66,261	-3,035	328,052	164,543
67,276	-3,137	328,017	164,395
68,290	-3,021	327,536	164,270
69,305	-2,982	327,259	164,160
70,320	-2,959	327,062	164,072
71,334	-2,895	326,886	164,041
72,349	-2,943	326,588	163,823
73,363	-3,046	326,408	163,603
74,378	-3,135	326,049	163,310
75,393	-3,075	325,826	163,250
76,407	-3,074	325,698	163,173
77,422	-2,989	325,358	163,083
78,436	-3,045	325,073	162,863
79,451	-3,040	324,876	162,755
80,466	-2,995	324,459	162,581
81,480	-3,057	324,262	162,399
82,495	-2,866	323,995	162,463
83,509	-3,087	323,895	162,153
84,524	-3,001	323,629	162,101
85,539	-2,950	323,437	162,047
86,553	-2,979	323,198	161,880
87,568	-2,996	322,737	161,617
88,582	-2,905	322,658	161,663
89,597	-2,988	322,444	161,450
90,611	-2,962	322,111	161,297
91,626	-2,998	321,885	161,130
92,641	-3,017	321,863	161,084
93,655	-3,026	321,396	160,826
94,670	-2,969	321,226	160,788
95,684	-2,993	320,946	160,608
96,699	-3,093	320,791	160,407
97,714	-2,992	320,600	160,407
98,728	-2,998	320,375	160,275
99,743	-2,990	320,100	160,131
100,757	-2,828	319,740	160,114
101,772	-2,972	319,645	159,895
102,787	-3,046	319,331	159,642
103,801	-3,169	319,110	159,384
104,816	-2,919	318,867	159,520
105,830	-3,040	318,689	159,286
106,845	-2,994	318,325	159,139
107,860	-3,000	318,234	159,073
108,874	-2,900	317,883	158,992
109,889	-3,046	317,737	158,747
110,903	-2,976	317,462	158,670
111,918	-2,997	317,338	158,571
112,933	-2,950	316,999	158,439
113,947	-2,956	316,726	158,282
114,962	-2,962	316,484	158,140
115,976	-3,051	316,432	158,004
116,991	-2,985	316,256	157,974
118,006	-3,074	315,999	157,735
119,020	-2,939	315,846	157,790
120,035	-2,970	315,512	157,576
121,049	-2,827	315,373	157,646
122,064	-2,979	315,167	157,366
123,079	-2,816	314,787	157,338
124,093	-2,963	314,641	157,092
125,108	-3,015	314,384	156,895
126,122	-2,789	314,213	157,037
127,137	-2,927	313,945	156,742
128,151	-2,888	313,762	156,678
129,166	-2,940	313,642	156,549
130,181	-2,928	313,231	156,342
131,195	-2,871	312,970	156,258
132,210	-2,885	312,633	156,061
133,224	-2,900	312,554	155,993
134,239	-2,869	312,389	155,928
135,254	-3,158	312,272	155,549
136,268	-3,070	311,892	155,439
137,283	-2,993	311,676	155,400
138,297	-2,847	311,375	155,391
139,312	-2,941	311,231	155,205
140,327	-2,906	311,019	155,123
141,341	-2,778	310,760	155,115
142,356	-2,985	310,590	154,797
143,370	-3,150	310,401	154,515
144,385	-2,893	310,095	154,621
145,400	-2,933	310,022	154,528
146,414	-3,045	309,800	154,285
147,429	-2,949	309,562	154,255
148,443	-3,047	309,261	153,987
149,458	-3,052	309,274	153,975
150,473	-2,901	308,844	153,906
151,487	-2,896	308,698	153,824
152,502	-3,027	308,598	153,624
153,516	-2,908	308,301	153,587
154,531	-2,982	308,066	153,379
155,546	-2,873	307,776	153,335
156,560	-2,882	307,505	153,177
157,575	-3,149	307,466	152,864
158,589	-3,038	307,131	152,799
159,604	-2,849	306,956	152,896
160,619	-2,824	306,790	152,826
161,633	-2,869	306,670	152,706
162,648	-2,874	306,296	152,501
163,662	-2,876	306,139	152,407
164,677	-2,707	305,861	152,431
165,692	-2,800	305,756	152,269
166,706	-2,925	305,590	152,042
167,721	-2,725	305,322	152,103
168,735	-2,748	305,019	151,915
169,750	-2,898	304,908	151,690
170,764	-2,934	304,721	151,546
171,779	-2,866	304,633	151,560
172,794	-2,922	304,336	151,341
173,808	-2,935	304,205	151,248
174,823	-2,935	303,918	151,092
175,837	-2,996	303,666	150,890
176,852	-2,975	303,544	150,837
177,867	-2,710	303,146	150,900
178,881	-2,970	303,094	150,593
179,896	-2,950	302,923	150,515
180,910	-3,004	302,837	150,403
181,925	-2,826	302,507	150,409
182,940	-2,986	302,187	150,072
183,954	-2,953	302,062	150,031
184,969	-2,843	301,893	150,046
185,983	-2,645	301,798	150,187
186,998	-2,566	301,514	150,114
188,013	-2,853	301,334	149,718
189,027	-2,812	300,955	149,558
190,042	-2,684	300,881	149,639
191,056	-2,850	300,589	149,310
192,071	-2,918	300,419	149,143
193,086	-2,918	300,214	149,028
194,100	-3,037	300,093	148,834
195,115	-2,775	299,709	148,897
196,129	-2,717	299,623	148,899
197,144	-2,918	299,306	148,525
198,159	-2,934	299,231	148,458
199,173	-2,846	298,824	148,332
200,188	-2,941	298,636	148,129
201,202	-2,856	298,477	148,123
202,217	-2,781	298,182	148,040
203,232	-2,909	298,082	147,847
204,246	-2,921	297,740	147,652
205,261	-2,928	297,689	147,607
206,275	-2,828	297,454	147,578
207,290	-2,934	297,158	147,311
208,304	-2,905	297,205	147,351
209,319	-2,782	296,924	147,321
210,334	-2,798	296,612	147,138
211,348	-2,800	296,442	147,038
212,363	-2,843	296,320	146,922
213,377	-2,795	296,084	146,840
214,392	-2,764	296,011	146,822
215,407	-2,788	295,713	146,636
216,421	-2,839	295,518	146,476
217,436	-2,943	295,291	146,246
218,450	-2,902	295,129	146,194
219,465	-2,892	294,939	146,096
220,480	-2,949	294,592	145,854
221,494	-2,867	294,572	145,913
222,509	-2,758	294,413	145,930
223,523	-2,997	294,337	145,642
224,538	-3,014	293,903	145,397
225,553	-2,808	293,715	145,496
226,567	-2,722	293,622	145,522
227,582	-2,815	293,429	145,321
228,596	-2,814	293,271	145,230
229,611	-2,899	293,012	145,006
230,626	-2,876	292,874	144,948
231,640	-2,848	292,644	144,847
232,655	-2,838	292,480	144,764
233,669	-2,726	292,302	144,774
234,684	-2,779	292,098	144,607
235,699	-2,943	291,871	144,320
236,713	-2,597	291,680	144,553
237,728	-2,764	291,412	144,243
238,742	-2,821	291,163	144,051
239,757	-2,948	290,954	143,810
240,772	-2,846	290,899	143,870
241,786	-2,906	290,594	143,648
242,801	-2,811	290,470	143,667
243,815	-2,917	290,439	143,534
244,830	-2,872	290,094	143,396
245,844	-2,809	289,941	143,370
246,859	-2,959	289,707	143,094
247,874	-2,873	289,544	143,085
248,888	-2,815	289,283	142,999
249,903	-2,937	289,069	142,762
250,917	-2,941	288,877	142,651
251,932	-2,958	288,733	142,550
252,947	-3,295	288,427	142,059
253,961	-3,696	287,870	141,381
254,976	-4,340	287,668	140,644
255,990	-4,277	287,464	140,593
257,005	-3,155	287,842	141,855
258,020	-0,945	288,600	144,367
259,034	0,761	288,841	146,134
260,049	1,189	289,110	146,674
261,063	1,632	288,903	146,986
262,078	2,016	288,901	147,345
263,093	2,091	288,796	147,352
264,107	2,357	288,751	147,574
265,122	2,384	288,709	147,566
266,136	2,442	288,491	147,497
267,151	2,614	288,379	147,593
268,166	2,498	288,029	147,288
269,180	2,469	287,911	147,187
270,195	2,671	287,656	147,239
271,209	2,691	287,546	147,189
272,224	2,393	287,532	146,881
273,239	2,496	287,241	146,817
274,253	2,365	286,859	146,484
275,268	2,533	286,764	146,584
276,282	2,406	286,519	146,323
277,297	2,402	286,358	146,224
278,312	2,315	286,102	145,997
279,326	2,467	285,921	146,037
280,341	2,424	285,922	145,984
281,355	2,367	285,601	145,752
282,370	2,381	285,305	145,602
283,384	2,459	285,149	145,584
284,399	2,346	285,001	145,386
285,414	2,345	284,819	145,280
286,428	2,395	284,725	145,267
287,443	2,215	284,539	144,987
288,457	2,249	284,240	144,855
289,472	2,379	283,923	144,804
290,487	2,142	283,854	144,530
291,501	2,065	283,766	144,399
292,516	2,150	283,580	144,372
293,530	2,342	283,229	144,363
294,545	2,249	283,171	144,232
295,560	2,155	282,952	144,018
296,574	2,114	282,733	143,855
297,589	1,945	282,589	143,610
298,603	2,085	282,448	143,657
299,618	2,135	282,253	143,593
300,633	2,263	282,045	143,595
301,647	2,284	281,961	143,559
302,662	2,361	281,707	143,490
303,676	2,410	281,526	143,431
304,691	2,514	281,310	143,406
305,706	2,361	281,155	143,170
306,720	2,472	280,951	143,158
307,735	2,365	280,873	143,005
308,749	2,391	280,741	142,950
309,764	2,640	280,294	142,943
310,779	2,417	280,199	142,672
311,793	2,431	280,070	142,607
312,808	2,453	280,012	142,586
313,822	2,424	279,626	142,350
314,837	2,282	279,438	142,108
315,852	2,329	279,331	142,085
316,866	2,515	279,062	142,109
317,881	2,393	278,919	141,909
318,895	2,319	278,836	141,786
319,910	2,472	278,685	141,839
320,925	2,478	278,458	141,716
321,939	2,459	278,183	141,546
322,954	2,539	278,073	141,551
323,968	2,634	278,014	141,598
324,983	2,492	277,750	141,319
325,997	2,593	277,558	141,302
327,012	2,304	277,560	141,022
328,027	2,406	277,280	140,962
329,041	2,578	277,097	141,016
330,056	2,450	276,934	140,802
331,070	2,629	276,675	140,823
332,085	2,569	276,655	140,745
333,100	2,504	276,247	140,465
334,114	2,553	276,142	140,444
335,129	2,484	275,962	140,277
336,143	2,441	275,930	140,207
337,158	2,507	275,729	140,154
338,173	2,471	275,469	139,976
339,187	2,648	275,302	140,041
340,202	2,378	275,246	139,753
341,216	2,591	274,922	139,771
342,231	2,498	274,642	139,531
343,246	2,659	274,601	139,645
344,260	2,476	274,460	139,393
345,275	2,543	274,281	139,352
346,289	2,530	274,196	139,284
347,304	2,599	273,934	139,201
348,319	2,710	273,763	139,204
349,333	2,429	273,672	138,888
350,348	2,589	273,492	138,930
351,362	2,642	273,201	138,819
352,377	2,594	273,046	138,684
353,392	2,721	272,917	138,721
354,406	2,576	272,849	138,543
355,421	191,251	1349,917	1430,122
356,435	154,397	1481,244	1430,256
