DTS Sentinel unit serial number:	SN410029Multiplexer serial number:	ORYXHardware model number:	OX2-SRSoftware version number:	ORYX F/W v4,00 Oryx Data Collector v3.7.2.0data status	okinstallation	B4 Nyhavnadifferential loss correction	single-endedforward channel	channel 2reverse channel	N/Adate	2023/12/16time	09:35:13forward acquisition time	300,00reverse acquisition time	0,00gamma	499,1914k internal	0,3126k external	0,3126temperature offset calibration	1,0000default loss term (dB/km)	0,3820temperature slope calibration	1,0000multiplexer offset coefficient	1,0000multiplexer slope coefficient	1,0000fibre end	0,00T internal ref (°C)	23,06T ext. ref 1 (°C)	8,80T ext. ref 2 (°C)	8,96length (m)	temperature (°C)	Stokes	anti-Stokes-744,400	-200,000	-0,010	0,037
-743,385	-17,864	-0,177	0,082
-742,371	-65,413	0,076	-0,023
-741,356	-53,327	-0,260	0,088
-740,342	-54,285	0,055	0,018
-739,327	656,956	-0,151	0,290
-738,312	368,316	-0,094	-0,142
-737,298	27,486	-0,258	0,161
-736,283	-15,709	0,056	0,026
-735,269	31,041	-0,156	0,099
-734,254	-27,563	0,070	-0,030
-733,239	-33,964	-0,290	-0,118
-732,225	-13,078	0,107	-0,052
-731,210	275,009	0,085	-0,112
-730,196	16,415	-0,067	0,040
-729,181	-120,569	0,065	-0,008
-728,167	0,341	0,122	0,065
-727,152	122,943	-0,047	-0,044
-726,137	219,041	0,043	0,051
-725,123	479,212	-0,025	-0,042
-724,108	320,492	-0,085	-0,121
-723,094	-200,000	-0,025	-0,149
-722,079	-200,000	0,006	-0,102
-721,064	-87,952	0,063	-0,014
-720,050	75,928	-0,036	0,028
-719,035	-68,989	0,074	0,021
-718,021	139,476	-0,100	-0,098
-717,006	40,705	-0,111	-0,074
-715,991	800,000	0,030	-0,064
-714,977	800,000	-0,071	-0,194
-713,962	-200,000	0,006	0,044
-712,948	290,622	0,056	-0,076
-711,933	134,976	0,027	-0,026
-710,918	800,000	-0,022	-0,072
-709,904	-87,243	-0,099	-0,022
-708,889	122,662	-0,062	-0,058
-707,875	202,017	-0,120	-0,138
-706,860	467,950	-0,054	0,091
-705,845	-200,000	0,014	0,100
-704,831	453,164	0,089	-0,146
-703,816	800,000	-0,004	0,009
-702,802	69,703	-0,068	0,052
-701,787	40,027	-0,099	-0,066
-700,772	-114,257	-0,165	0,023
-699,758	-194,255	-0,076	0,000
-698,743	-200,000	-0,023	0,111
-697,729	359,027	0,015	0,023
-696,714	291,756	0,021	0,029
-695,699	271,303	-0,005	0,007
-694,685	-92,315	-0,171	0,036
-693,670	-18,836	-0,153	-0,071
-692,656	800,000	0,054	0,160
-691,641	-200,000	-0,010	-0,036
-690,627	90,420	-0,075	0,062
-689,612	-108,569	-0,108	0,017
-688,597	-71,345	0,029	0,008
-687,583	800,000	0,040	-0,096
-686,568	800,000	0,043	-0,091
-685,554	-38,158	-0,090	-0,035
-684,539	97,425	0,061	0,052
-683,524	468,945	0,101	-0,170
-682,510	82,214	-0,147	0,119
-681,495	288,015	0,036	-0,048
-680,481	480,166	0,073	-0,123
-679,466	209,578	-0,076	-0,089
-678,451	77,247	-0,157	-0,124
-677,437	-58,645	0,086	-0,027
-676,422	-200,000	0,001	0,088
-675,408	213,461	0,098	0,115
-674,393	-88,814	-0,132	-0,029
-673,378	-124,099	-0,078	-0,009
-672,364	144,236	-0,102	-0,101
-671,349	-148,498	-0,141	-0,008
-670,335	62,102	0,028	0,021
-669,320	83,661	-0,072	-0,058
-668,305	-112,615	0,114	0,017
-667,291	-200,000	0,020	-0,127
-666,276	117,339	-0,051	-0,046
-665,262	-147,665	-0,122	0,007
-664,247	-85,925	-0,065	0,015
-663,232	800,000	0,021	-0,067
-662,218	4,846	-0,076	0,041
-661,203	800,000	0,019	0,046
-660,189	-13,460	0,061	-0,029
-659,174	800,000	0,009	-0,024
-658,159	359,183	0,075	0,111
-657,145	-59,565	-0,043	0,014
-656,130	140,452	0,031	-0,031
-655,116	800,000	-0,050	0,114
-654,101	596,275	0,118	0,217
-653,086	-158,765	0,051	-0,002
-652,072	800,000	0,059	0,128
-651,057	132,295	0,043	-0,041
-650,043	127,990	0,067	-0,063
-649,028	234,642	0,001	0,002
-648,014	-16,969	-0,169	-0,079
-646,999	470,543	-0,044	0,074
-645,984	800,000	0,031	0,080
-644,970	-117,107	0,124	-0,017
-643,955	-200,000	0,006	0,038
-642,941	514,655	-0,099	-0,171
-641,926	-23,578	-0,219	-0,097
-640,911	147,534	0,065	0,065
-639,897	-42,304	0,077	0,029
-638,882	45,690	0,024	0,016
-637,868	-67,397	0,065	-0,019
-636,853	-21,551	-0,164	-0,074
-635,838	-108,541	0,030	-0,005
-634,824	-200,000	0,001	0,014
-633,809	103,972	0,063	-0,055
-632,795	800,000	0,027	0,065
-631,780	235,619	0,029	-0,036
-630,765	-78,619	0,093	0,023
-629,751	-78,384	-0,105	-0,026
-628,736	800,000	0,031	-0,100
-627,722	-102,696	-0,164	-0,029
-626,707	-200,000	-0,003	-0,062
-625,692	286,307	-0,079	0,106
-624,678	94,516	0,107	0,090
-623,663	-200,000	-0,045	0,188
-622,649	501,859	0,036	0,062
-621,634	79,002	-0,080	-0,064
-620,619	466,882	-0,040	0,067
-619,605	-76,122	-0,055	0,014
-618,590	-80,941	0,090	-0,022
-617,576	-44,893	0,187	0,069
-616,561	-200,000	-0,039	0,142
-615,546	8,335	-0,028	-0,016
-614,532	800,000	0,058	-0,160
-613,517	422,174	0,070	-0,112
-612,503	194,056	0,056	0,063
-611,488	-64,400	0,130	-0,039
-610,474	121,242	0,169	0,156
-609,459	406,769	0,049	0,077
-608,444	270,547	0,067	-0,087
-607,430	19,418	-0,041	0,024
-606,415	-200,000	0,005	-0,022
-605,401	725,352	0,021	-0,042
-604,386	-28,087	-0,104	0,044
-603,371	167,172	0,068	-0,072
-602,357	-2,384	-0,082	0,043
-601,342	106,011	0,111	-0,097
-600,328	-200,000	-0,014	-0,114
-599,313	-200,000	-0,028	-0,113
-598,298	148,656	0,049	-0,049
-597,284	-200,000	-0,001	-0,009
-596,269	-200,000	-0,039	0,139
-595,255	-200,000	0,009	-0,161
-594,240	-200,000	0,005	-0,141
-593,225	86,167	-0,033	-0,027
-592,211	135,225	0,085	-0,082
-591,196	200,462	-0,046	0,053
-590,182	479,114	-0,025	-0,042
-589,167	312,437	-0,057	0,079
-588,152	32,996	-0,071	-0,045
-587,138	-86,863	0,180	0,040
-586,123	-13,440	-0,075	0,036
-585,109	292,477	0,011	0,015
-584,094	122,314	-0,045	0,042
-583,079	531,806	-0,008	-0,015
-582,065	117,183	0,056	0,051
-581,050	800,000	0,026	0,068
-580,036	-200,000	0,006	0,092
-579,021	353,347	0,026	0,039
-578,006	-42,297	-0,079	-0,030
-576,992	-200,000	0,023	-0,103
-575,977	118,599	-0,054	0,050
-574,963	-111,060	0,101	-0,015
-573,948	496,683	0,048	-0,082
-572,934	-200,000	0,007	-0,035
-571,919	14,048	-0,045	0,026
-570,904	201,965	-0,061	0,069
-569,890	-10,176	-0,141	-0,069
-568,875	-55,955	-0,063	0,021
-567,861	35,820	0,070	-0,045
-566,846	72,811	-0,058	0,045
-565,831	82,490	-0,121	-0,097
-564,817	318,183	-0,023	-0,032
-563,802	-200,000	0,032	-0,142
-562,788	110,032	0,075	-0,066
-561,773	-200,000	-0,031	0,104
-560,758	-50,518	0,037	0,013
-559,744	376,158	0,023	-0,035
-558,729	119,969	-0,032	-0,030
-557,715	-106,508	-0,128	-0,021
-556,700	119,594	0,038	-0,035
-555,685	-200,000	-0,019	-0,136
-554,671	75,068	0,040	-0,031
-553,656	-72,644	0,103	0,028
-552,642	-200,000	0,005	-0,076
-551,627	-200,000	0,021	-0,076
-550,612	800,000	0,029	-0,083
-549,598	349,603	0,083	-0,121
-548,583	50,998	-0,024	-0,017
-547,569	-8,000	-0,077	-0,038
-546,554	-62,639	0,020	0,006
-545,539	-152,766	-0,062	-0,003
-544,525	-37,409	-0,058	-0,023
-543,510	-166,821	0,095	0,003
-542,496	-200,000	0,015	0,139
-541,481	-152,931	0,111	-0,006
-540,466	-55,962	-0,115	0,038
-539,452	-200,000	0,005	0,043
-538,437	-104,894	-0,121	-0,020
-537,423	47,603	0,154	0,106
-536,408	-37,630	-0,138	0,054
-535,393	623,751	-0,054	-0,101
-534,379	-19,547	0,057	-0,026
-533,364	394,534	0,031	-0,049
-532,350	-38,542	0,081	-0,032
-531,335	800,000	0,055	0,165
-530,321	171,494	0,064	0,068
-529,306	-33,790	-0,175	0,071
-528,291	-200,000	0,026	0,190
-527,277	-200,000	0,000	0,065
-526,262	-104,081	-0,065	0,011
-525,248	-84,470	0,108	-0,025
-524,233	-200,000	0,023	0,087
-523,218	-200,000	-0,015	0,079
-522,204	580,492	-0,047	0,085
-521,189	-200,000	0,024	-0,084
-520,175	800,000	-0,092	-0,211
-519,160	50,039	-0,099	-0,069
-518,145	-11,883	-0,057	0,028
-517,131	48,321	0,072	-0,049
-516,116	297,712	0,017	0,024
-515,102	2,482	0,058	-0,031
-514,087	301,437	-0,059	0,080
-513,072	-11,221	-0,082	0,040
-512,058	800,000	-0,052	-0,142
-511,043	-1,250	-0,090	0,047
-510,029	800,000	-0,042	-0,103
-509,014	800,000	0,040	0,083
-507,999	-200,000	0,001	0,030
-506,985	-200,000	0,023	-0,087
-505,970	-31,993	-0,052	-0,022
-504,956	-6,631	-0,107	-0,053
-503,941	-200,000	-0,008	0,124
-502,926	-183,400	0,068	-0,001
-501,912	-200,000	-0,011	0,056
-500,897	800,000	-0,025	0,081
-499,883	638,950	-0,034	-0,064
-498,868	-8,204	-0,084	-0,041
-497,853	194,438	-0,068	-0,076
-496,839	-200,000	-0,004	0,079
-495,824	-121,291	-0,051	-0,006
-494,810	-200,000	-0,006	-0,045
-493,795	60,740	0,035	0,025
-492,781	403,150	-0,040	-0,062
-491,766	-122,462	-0,051	0,006
-490,751	429,660	0,064	-0,102
-489,737	-200,000	0,004	-0,046
-488,722	292,216	0,039	0,052
-487,708	800,000	-0,047	0,149
-486,693	-200,000	-0,010	0,131
-485,678	800,000	-0,025	-0,076
-484,664	800,000	0,014	0,035
-483,649	-152,989	0,066	0,003
-482,635	-62,889	0,074	-0,023
-481,620	10,061	0,085	-0,047
-480,605	-135,581	0,150	0,013
-479,591	-155,611	0,085	-0,004
-478,576	715,072	-0,064	-0,125
-477,562	-90,788	0,072	0,015
-476,547	-200,000	0,024	-0,097
-475,532	87,245	0,031	-0,025
-474,518	-78,271	-0,043	-0,011
-473,503	-118,917	0,040	-0,005
-472,489	-200,000	-0,015	0,065
-471,474	-200,000	0,015	-0,128
-470,459	-200,000	-0,003	-0,028
-469,445	-200,000	0,018	-0,142
-468,430	465,236	-0,046	-0,076
-467,416	71,821	0,077	0,059
-466,401	-17,190	-0,022	0,010
-465,386	18,440	-0,164	0,096
-464,372	800,000	-0,022	0,070
-463,357	545,597	0,087	0,154
-462,343	661,749	-0,028	-0,054
-461,328	-72,680	-0,044	-0,012
-460,313	16,689	0,059	0,034
-459,299	800,000	0,018	0,047
-458,284	-4,792	-0,027	-0,014
-457,270	-132,029	-0,087	0,008
-456,255	612,417	-0,071	0,131
-455,241	-200,000	-0,006	0,060
-454,226	-133,913	0,089	0,008
-453,211	800,000	0,018	-0,042
-452,197	-200,000	-0,024	0,135
-451,182	800,000	0,022	0,065
-450,168	-200,000	-0,020	0,112
-449,153	-200,000	0,014	-0,074
-448,138	78,141	-0,097	0,076
-447,124	232,748	0,064	0,078
-446,109	-83,644	0,019	0,004
-445,095	216,272	0,037	-0,044
-444,080	23,980	-0,118	0,071
-443,065	1,052	0,048	0,025
-442,051	87,079	-0,064	0,052
-441,036	-64,274	0,093	0,028
-440,022	-200,000	-0,030	0,128
-439,007	-145,861	-0,111	0,007
-437,992	401,656	-0,046	-0,071
-436,978	-200,000	-0,003	-0,024
-435,963	4,770	0,107	-0,058
-434,949	-22,236	-0,143	-0,063
-433,934	-132,859	-0,029	-0,003
-432,919	-127,645	-0,074	0,008
-431,905	-200,000	0,006	0,157
-430,890	-81,230	0,149	0,036
-429,876	-8,161	0,086	0,043
-428,861	213,531	0,037	0,043
-427,846	800,000	0,007	-0,020
-426,832	86,323	-0,058	-0,047
-425,817	-48,731	-0,083	-0,029
-424,803	128,619	0,117	-0,110
-423,788	-200,000	-0,005	-0,080
-422,773	-200,000	-0,011	0,096
-421,759	-23,219	-0,104	0,046
-420,744	33,266	-0,170	-0,108
-419,730	471,383	-0,021	-0,036
-418,715	-200,000	0,005	-0,166
-417,701	476,923	-0,061	-0,102
-416,686	-81,900	0,126	0,030
-415,671	368,349	0,080	0,120
-414,657	584,587	0,068	-0,123
-413,642	-64,870	-0,093	0,028
-412,628	352,416	-0,011	0,016
-411,613	-200,000	0,007	-0,059
-410,598	-200,000	0,042	-0,171
-409,584	-60,353	-0,077	-0,024
-408,569	-124,608	0,117	0,013
-407,555	48,995	0,109	-0,075
-406,540	266,998	-0,033	0,042
-405,525	283,054	0,063	-0,083
-404,511	-200,000	0,010	-0,039
-403,496	-40,081	-0,099	0,038
-402,482	404,281	0,057	0,088
-401,467	135,915	-0,055	-0,053
-400,452	-70,131	0,103	0,029
-399,438	-126,521	0,101	0,011
-398,423	800,000	0,041	-0,084
-397,409	-78,445	-0,162	-0,040
-396,394	-162,112	0,047	-0,002
-395,379	-200,000	-0,003	-0,090
-394,365	510,811	0,103	0,176
-393,350	76,874	0,105	0,082
-392,336	429,315	0,037	0,059
-391,321	187,595	-0,095	0,104
-390,306	27,073	-0,119	-0,073
-389,292	573,730	-0,037	-0,067
-388,277	-97,999	-0,051	0,010
-387,263	800,000	0,045	-0,107
-386,248	496,956	0,047	-0,080
-385,233	-32,678	-0,172	0,070
-384,219	-21,388	0,080	-0,036
-383,204	184,196	-0,016	0,018
-382,190	-9,893	-0,050	-0,024
-381,175	117,907	-0,055	-0,050
-380,160	315,769	-0,044	-0,062
-379,146	-200,000	-0,014	0,049
-378,131	-94,210	0,109	-0,022
-377,117	-200,000	0,007	-0,049
-376,102	-200,000	0,004	-0,023
-375,088	800,000	-0,022	-0,061
-374,073	84,239	0,127	0,102
-373,058	107,296	0,046	0,040
-372,044	800,000	-0,035	-0,088
-371,029	-198,192	0,134	0,001
-370,015	218,450	-0,071	0,084
-369,000	112,379	-0,104	0,093
-367,985	-136,279	-0,218	0,018
-366,971	-168,199	-0,055	0,002
-365,956	216,138	0,012	-0,014
-364,942	-94,054	0,166	0,033
-363,927	-47,357	0,095	-0,034
-362,912	159,649	0,091	0,093
-361,898	-200,000	-0,035	-0,132
-360,883	155,956	-0,031	0,032
-359,869	84,809	0,030	0,024
-358,854	-200,000	-0,011	-0,084
-357,839	-20,866	0,065	0,029
-356,825	-159,795	-0,058	0,002
-355,810	602,115	-0,021	-0,038
-354,796	81,436	0,109	0,087
-353,781	-17,095	-0,034	0,016
-352,766	-96,474	-0,126	0,024
-351,752	351,110	0,104	-0,152
-350,737	-43,361	0,017	0,006
-349,723	622,643	-0,066	-0,123
-348,708	-200,000	-0,027	0,120
-347,693	209,304	-0,134	-0,154
-346,679	-200,000	0,009	-0,169
-345,664	800,000	0,046	-0,129
-344,650	69,300	0,034	-0,026
-343,635	-19,224	-0,056	-0,025
-342,620	-200,000	-0,007	-0,054
-341,606	288,208	0,088	-0,117
-340,591	47,777	-0,061	0,042
-339,577	-200,000	-0,008	-0,044
-338,562	-200,000	0,001	-0,105
-337,548	488,582	0,023	-0,039
-336,533	-17,020	0,074	-0,034
-335,518	144,483	-0,105	0,103
-334,504	-35,906	0,068	0,027
-333,489	-29,789	0,080	-0,033
-332,475	64,824	0,056	0,042
-331,460	168,289	0,037	0,038
-330,445	-200,000	0,007	0,037
-329,431	245,969	0,040	-0,049
-328,416	-72,076	0,154	-0,042
-327,402	-129,275	-0,128	0,013
-326,387	598,016	0,058	-0,106
-325,372	-200,000	0,038	-0,135
-324,358	-43,012	-0,144	-0,053
-323,343	-200,000	-0,015	0,051
-322,329	622,387	-0,061	0,113
-321,314	-39,837	0,093	0,035
-320,299	16,188	0,022	0,013
-319,285	-53,596	-0,060	-0,020
-318,270	-200,000	-0,002	-0,085
-317,256	-173,331	-0,048	-0,001
-316,241	-200,000	0,004	-0,151
-315,226	-128,482	-0,073	-0,008
-314,212	-61,572	0,245	0,075
-313,197	39,356	0,028	0,019
-312,183	800,000	-0,047	-0,113
-311,168	181,304	0,070	-0,075
-310,153	39,147	-0,093	-0,061
-309,139	391,485	-0,061	-0,092
-308,124	-24,175	-0,053	0,023
-307,110	-115,341	0,110	-0,015
-306,095	180,765	0,134	0,145
-305,080	82,253	-0,021	0,017
-304,066	-118,156	-0,041	-0,005
-303,051	-37,920	-0,067	0,026
-302,037	-200,000	0,019	0,117
-301,022	118,593	0,039	0,035
-300,008	-123,309	0,137	0,016
-298,993	-200,000	-0,033	-0,130
-297,978	-49,722	0,132	-0,046
-296,964	-200,000	-0,002	0,094
-295,949	58,938	-0,060	-0,043
-294,935	250,567	-0,045	0,056
-293,920	56,264	0,082	-0,059
-292,905	187,044	0,019	-0,021
-291,891	-44,096	0,067	0,025
-290,876	-111,832	0,079	-0,012
-289,862	-200,000	-0,026	-0,144
-288,847	-131,761	-0,123	-0,012
-287,832	-144,006	-0,044	-0,003
-286,818	455,367	-0,006	-0,009
-285,803	-85,591	0,025	-0,006
-284,789	22,865	0,171	0,102
-283,774	-58,533	-0,059	0,019
-282,759	800,000	0,075	0,196
-281,745	800,000	-0,055	-0,113
-280,730	-131,735	-0,095	-0,009
-279,716	-146,328	0,068	-0,004
-278,701	-136,327	0,129	0,011
-277,686	486,365	0,118	0,197
-276,672	516,036	0,027	-0,047
-275,657	-200,000	-0,025	-0,087
-274,643	38,876	0,046	-0,030
-273,628	-200,000	-0,010	-0,215
-272,613	320,213	-0,128	-0,179
-271,599	750,860	0,053	0,104
-270,584	219,546	-0,066	0,078
-269,570	-200,000	-0,001	0,039
-268,555	-68,671	0,036	0,010
-267,540	-7,347	-0,093	0,046
-266,526	678,555	-0,058	-0,111
-265,511	-104,260	0,040	-0,007
-264,497	-88,840	-0,128	0,028
-263,482	800,000	0,042	-0,104
-262,467	304,016	-0,073	0,100
-261,453	555,555	-0,044	0,078
-260,438	-200,000	0,011	0,086
-259,424	-200,000	0,007	-0,099
-258,409	-200,000	0,017	-0,157
-257,395	16,217	0,036	-0,020
-256,380	800,000	-0,018	0,048
-255,365	-128,982	0,106	0,011
-254,351	-200,000	0,006	0,031
-253,336	800,000	-0,018	0,040
-252,322	294,064	0,067	-0,090
-251,307	144,290	-0,096	-0,094
-250,292	94,493	-0,065	0,054
-249,278	133,595	-0,027	-0,026
-248,263	52,144	0,072	-0,050
-247,249	-107,402	0,199	-0,032
-246,234	34,896	-0,044	-0,028
-245,219	2,664	-0,070	-0,037
-244,205	-126,802	-0,108	0,011
-243,190	0,557	-0,032	-0,017
-242,176	170,519	0,023	0,024
-241,161	-200,000	-0,003	-0,034
-240,146	-103,120	-0,085	-0,015
-239,132	-174,451	-0,036	-0,001
-238,117	512,245	0,017	-0,028
-237,103	241,384	0,053	-0,065
-236,088	800,000	-0,022	-0,051
-235,073	-83,399	0,161	0,037
-234,059	243,678	-0,080	0,098
-233,044	-172,755	-0,083	0,002
-232,030	-200,000	-0,023	0,084
-231,015	345,832	0,034	0,049
-230,000	-200,000	0,010	0,117
-228,986	800,000	0,054	-0,142
-227,971	43,447	0,076	0,050
-226,957	127,739	0,044	-0,041
-225,942	172,207	0,084	-0,088
-224,927	-200,000	-0,004	0,038
-223,913	27,058	0,011	0,007
-222,898	-119,817	-0,082	-0,010
-221,884	-101,561	0,067	-0,012
-220,869	-200,000	0,008	0,113
-219,855	570,547	-0,037	0,065
-218,840	800,000	-0,020	0,060
-217,825	-200,000	0,005	-0,087
-216,811	54,434	-0,106	-0,074
-215,796	-18,955	-0,069	-0,031
-214,782	-200,000	-0,041	-0,140
-213,767	271,079	0,062	0,079
-212,752	2,366	0,048	-0,025
-211,738	-200,000	0,025	0,113
-210,723	50,191	0,013	0,009
-209,709	-200,000	0,023	0,233
-208,694	-19,106	-0,114	-0,051
-207,679	-120,487	-0,055	-0,007
-206,665	-101,068	-0,057	-0,010
-205,650	-49,052	0,073	0,025
-204,636	181,293	0,078	0,083
-203,621	-200,000	0,002	0,139
-202,606	-21,755	0,039	0,017
-201,592	-36,157	-0,058	-0,023
-200,577	86,081	-0,138	0,110
-199,563	800,000	0,035	0,084
-198,548	337,575	-0,048	0,068
-197,533	-200,000	-0,018	0,089
-196,519	-200,000	-0,040	0,180
-195,504	-79,130	-0,056	-0,014
-194,490	110,526	-0,066	-0,058
-193,475	-82,594	0,090	-0,021
-192,460	800,000	-0,043	0,136
-191,446	235,073	-0,002	-0,003
-190,431	510,851	-0,027	0,045
-189,417	377,456	0,065	0,097
-188,402	798,480	0,030	0,062
-187,387	-200,000	-0,013	0,046
-186,373	-200,000	-0,001	0,032
-185,358	114,427	-0,063	-0,056
-184,344	77,180	-0,063	0,049
-183,329	35,190	0,050	0,032
-182,315	584,876	0,042	0,076
-181,300	159,204	-0,077	0,078
-180,285	419,003	0,041	-0,065
-179,271	800,000	-0,040	0,097
-178,256	800,000	0,037	0,100
-177,242	20,275	0,033	-0,019
-176,227	138,590	0,090	0,086
-175,212	-67,533	0,047	0,013
-174,198	21,000	0,027	0,016
-173,183	227,682	0,087	0,104
-172,169	-50,421	-0,109	0,037
-171,154	800,000	-0,059	-0,127
-170,139	-78,168	0,088	-0,022
-169,125	338,956	0,094	0,134
-168,110	80,437	0,137	0,107
-167,096	720,694	-0,075	0,145
-166,081	134,710	-0,031	-0,029
-165,066	-13,363	-0,037	-0,018
-164,052	-30,870	-0,188	-0,077
-163,037	248,307	-0,068	0,084
-162,023	398,350	0,042	0,065
-161,008	380,986	-0,033	0,049
-159,993	-200,000	-0,006	-0,074
-158,979	-200,000	-0,013	-0,086
-157,964	-200,000	0,005	-0,030
-156,950	-200,000	0,016	0,076
-155,935	648,416	0,072	0,135
-154,920	77,468	0,123	0,095
-153,906	-67,939	-0,117	-0,033
-152,891	-74,187	-0,050	0,013
-151,877	395,900	0,005	0,008
-150,862	58,996	-0,079	-0,057
-149,847	68,901	0,043	-0,032
-148,833	-200,000	0,030	-0,110
-147,818	-4,376	-0,117	-0,059
-146,804	6,138	0,031	0,016
-145,789	-131,503	0,144	0,014
-144,775	-200,000	0,052	0,200
-143,760	22,613	-0,120	-0,071
-142,745	-200,000	0,006	-0,146
-141,731	105,019	0,081	0,070
-140,716	27,780	0,017	-0,010
-139,702	-200,000	0,047	0,231
-138,687	-55,575	-0,035	0,011
-137,672	-58,720	0,212	-0,066
-136,658	-118,009	-0,073	0,009
-135,643	101,732	-0,071	-0,060
-134,629	-33,377	-0,058	-0,023
-133,614	-87,317	0,088	0,019
-132,599	123,966	-0,113	-0,103
-131,585	-122,949	0,083	-0,010
-130,570	93,444	0,074	0,061
-129,556	14,114	-0,116	0,065
-128,541	-5,508	-0,213	-0,106
-127,526	-149,412	0,164	0,009
-126,512	-136,989	0,115	-0,009
-125,497	206,420	0,053	0,060
-124,483	-200,000	0,011	0,204
-123,468	-200,000	-0,002	-0,049
-122,453	-110,268	0,129	-0,019
-121,439	-161,831	-0,111	0,004
-120,424	-200,000	0,003	-0,059
-119,410	314,903	0,045	0,061
-118,395	175,130	0,015	-0,015
-117,380	-11,193	0,013	-0,006
-116,366	24,087	0,053	0,032
-115,351	-102,612	0,082	0,014
-114,337	279,441	-0,069	-0,090
-113,322	285,226	0,072	-0,095
-112,307	-93,706	-0,040	-0,008
-111,293	-31,332	0,070	0,029
-110,278	-200,000	0,027	0,113
-109,264	-75,327	0,158	-0,041
-108,249	-61,907	-0,138	0,042
-107,234	-144,914	0,182	0,012
-106,220	-200,000	-0,007	0,065
-105,205	30,654	-0,070	-0,043
-104,191	548,313	0,018	-0,031
-103,176	-132,566	0,037	0,003
-102,162	-200,000	0,003	-0,068
-101,147	103,918	-0,090	0,077
-100,132	-200,000	0,042	0,188
-99,118	22,479	0,047	0,028
-98,103	349,797	0,082	-0,118
-97,089	781,976	0,024	0,048
-96,074	271,249	0,073	-0,094
-95,059	457,716	0,065	0,106
-94,045	-149,915	0,015	-0,001
-93,030	132,488	-0,135	-0,127
-92,016	800,000	-0,018	0,051
-91,001	-200,000	0,036	-0,132
-89,986	-23,968	0,042	-0,018
-88,972	98,264	0,095	0,080
-87,957	-53,501	0,095	0,031
-86,943	-44,824	0,094	-0,034
-85,928	463,217	-0,040	0,064
-84,913	308,149	-0,027	-0,036
-83,899	-72,241	0,073	0,019
-82,884	-84,816	0,094	0,021
-81,870	178,743	0,035	-0,038
-80,855	11,140	-0,103	0,057
-79,840	93,835	0,022	0,018
-78,826	-200,000	-0,047	-0,188
-77,811	800,000	0,042	0,094
-76,797	106,088	0,070	-0,060
-75,782	363,750	0,080	0,118
-74,767	-70,932	0,080	0,022
-73,753	521,502	0,049	0,085
-72,738	136,278	-0,021	0,020
-71,724	-80,472	-0,128	0,031
-70,709	798,223	-0,062	-0,124
-69,694	-200,000	-0,024	-0,101
-68,680	158,869	-0,045	0,045
-67,665	-22,776	0,069	0,030
-66,651	800,000	0,042	0,085
-65,636	800,000	0,056	0,118
-64,622	-78,526	-0,096	-0,024
-63,607	112,168	-0,044	-0,038
-62,592	298,335	0,044	0,059
-61,578	-200,000	0,006	-0,030
-60,563	800,000	-0,027	-0,067
-59,549	439,005	0,028	-0,044
-58,534	-148,443	-1,219	-0,071
-57,519	800,000	-0,764	-1,605
-56,505	-200,000	-0,825	-4,246
-55,490	-2,294	0,547	-0,277
-54,476	800,000	4,791	11,542
-53,461	-200,000	13,172	248,095
-52,446	-200,000	685,045	2268,979
-51,432	609,449	1619,444	2943,744
-50,417	122,130	1634,940	1479,757
-49,403	74,568	1289,894	982,212
-48,388	38,932	1025,314	662,670
-47,373	24,963	982,524	589,132
-46,359	24,166	972,587	580,543
-45,344	23,232	968,430	574,986
-44,330	23,178	966,988	573,931
-43,315	23,147	965,490	572,918
-42,300	23,123	964,366	572,150
-41,286	23,079	963,422	571,424
-40,271	23,083	962,620	570,939
-39,257	23,073	961,593	570,274
-38,242	23,079	960,685	569,735
-37,227	23,142	959,748	569,359
-36,213	23,114	958,803	568,685
-35,198	23,040	958,130	568,025
-34,184	23,087	957,458	567,753
-33,169	23,053	956,589	567,107
-32,154	23,082	955,698	566,650
-31,140	23,122	954,548	566,074
-30,125	23,117	953,923	565,665
-29,111	23,094	953,036	565,044
-28,096	23,089	952,304	564,571
-27,082	23,084	951,944	564,318
-26,067	23,063	950,994	563,667
-25,052	23,094	950,249	563,303
-24,038	23,078	949,636	562,865
-23,023	23,091	948,980	562,494
-22,009	23,138	948,232	562,178
-20,994	23,101	947,657	561,699
-19,979	23,185	946,956	561,530
-18,965	23,151	946,466	561,106
-17,950	23,089	945,870	560,532
-16,936	23,058	945,340	560,099
-15,921	23,071	944,497	559,619
-14,906	23,042	943,755	559,063
-13,892	23,002	943,080	558,514
-12,877	23,002	942,475	558,136
-11,863	22,881	942,005	557,451
-10,848	22,977	941,420	557,386
-9,833	23,024	941,106	557,327
-8,819	23,059	940,267	556,920
-7,804	22,988	939,733	556,356
-6,790	22,963	939,012	555,828
-5,775	23,044	938,375	555,684
-4,760	23,032	937,732	555,244
-3,746	23,025	937,140	554,848
-2,731	22,885	936,306	553,892
-1,717	22,828	935,645	553,298
-0,702	22,834	935,058	552,949
0,313	22,640	934,430	552,801
1,327	25,053	932,005	558,897
2,342	32,710	811,305	507,295
3,356	28,221	510,457	311,486
4,371	4,395	373,761	197,825
5,386	1,325	356,710	185,023
6,400	-0,330	350,549	179,816
7,415	-1,134	347,805	177,431
8,429	-1,163	346,149	176,535
9,444	-1,316	345,372	175,941
10,459	-1,302	344,606	175,552
11,473	-1,094	343,977	175,463
12,488	-0,850	343,449	175,466
13,502	-0,824	343,066	175,285
14,517	-0,824	342,518	174,989
15,531	-1,195	341,916	174,231
16,546	-1,267	341,640	173,989
17,561	-1,139	340,933	173,764
18,575	-1,277	340,730	173,483
19,590	-1,224	340,334	173,328
20,604	-1,378	340,108	173,018
21,619	-1,230	339,555	172,894
22,634	-1,216	339,236	172,733
23,648	-1,327	338,891	172,412
24,663	-1,230	338,607	172,365
25,677	-1,110	338,086	172,224
26,692	-1,184	338,014	172,086
27,707	-1,237	337,629	171,812
28,721	-1,274	337,381	171,629
29,736	-1,253	337,051	171,469
30,750	-1,226	336,823	171,369
31,765	-1,348	336,489	171,043
32,780	-1,351	336,184	170,870
33,794	-1,212	336,020	170,932
34,809	-1,192	335,516	170,683
35,823	-1,329	335,446	170,474
36,838	-1,249	335,049	170,350
37,853	-1,307	334,799	170,140
38,867	-1,269	334,428	169,980
39,882	-1,233	334,200	169,890
40,896	-1,229	333,980	169,768
41,911	-1,351	333,751	169,497
42,926	-1,246	333,363	169,405
43,940	-1,398	333,184	169,125
44,955	-1,303	332,819	169,033
45,969	-1,398	332,553	168,774
46,984	-1,647	332,402	168,399
47,999	-1,835	331,949	167,940
49,013	-1,736	331,492	167,806
50,028	-2,004	331,498	167,490
51,042	-1,836	331,114	167,472
52,057	-2,006	330,875	167,143
53,071	-1,952	330,663	167,083
54,086	-1,926	330,396	166,962
55,101	-1,895	330,119	166,842
56,115	-1,587	329,893	167,061
57,130	-1,306	329,891	167,363
58,144	-1,141	329,487	167,330
59,159	-1,053	329,388	167,364
60,174	-1,148	329,082	167,086
61,188	-1,167	328,893	166,954
62,203	-1,055	328,485	166,857
63,217	-1,235	328,349	166,572
64,232	-1,121	328,154	166,585
65,247	-1,021	327,946	166,578
66,261	-1,014	327,600	166,395
67,276	-1,309	327,151	165,821
68,290	-1,581	326,892	165,371
69,305	-1,556	326,800	165,338
70,320	-1,521	326,406	165,163
71,334	-1,284	326,224	165,321
72,349	-1,101	326,229	165,512
73,363	-1,129	326,062	165,382
74,378	-1,082	325,668	165,220
75,393	-1,125	325,329	164,985
76,407	-1,023	325,074	164,955
77,422	-1,021	324,761	164,784
78,436	-1,097	324,674	164,640
79,451	-1,185	324,348	164,362
80,466	-1,133	323,977	164,217
81,480	-1,392	323,519	163,684
82,495	-1,528	323,521	163,520
83,509	-1,271	323,184	163,619
84,524	-1,383	322,859	163,316
85,539	-1,564	322,723	163,034
86,553	-1,516	322,521	162,970
87,568	-1,679	322,243	162,635
88,582	-1,595	322,048	162,615
89,597	-1,487	321,791	162,589
90,611	-1,384	321,664	162,623
91,626	-1,159	321,509	162,779
92,641	-1,243	321,253	162,541
93,655	-1,354	321,028	162,292
94,670	-1,397	320,700	162,064
95,684	-1,341	320,432	161,975
96,699	-1,196	320,215	162,010
97,714	-1,482	319,944	161,546
98,728	-1,529	319,619	161,316
99,743	-1,512	319,383	161,201
100,757	-1,685	319,127	160,869
101,772	-1,603	319,041	160,901
102,787	-1,394	318,691	160,937
103,801	-1,472	318,660	160,822
104,816	-1,381	318,434	160,793
105,830	-1,147	318,225	160,927
106,845	-1,183	318,159	160,840
107,860	-1,209	317,812	160,623
108,874	-1,176	317,439	160,455
109,889	-1,320	317,241	160,185
110,903	-1,261	316,906	160,065
111,918	-1,302	316,771	159,939
112,933	-1,272	316,586	159,864
113,947	-1,253	316,437	159,794
114,962	-1,054	316,142	159,846
115,976	-1,185	315,769	159,501
116,991	-1,288	315,716	159,350
118,006	-1,308	315,459	159,185
119,020	-1,137	315,246	159,246
120,035	-1,111	315,184	159,230
121,049	-1,079	314,982	159,147
122,064	-1,213	314,787	158,891
123,079	-1,179	314,390	158,712
124,093	-1,366	314,237	158,421
125,108	-1,482	313,897	158,111
126,122	-1,521	313,642	157,927
127,137	-1,656	313,326	157,610
128,151	-1,698	313,279	157,528
129,166	-1,508	313,008	157,579
130,181	-1,458	312,717	157,472
131,195	-1,524	312,504	157,281
132,210	-1,315	312,428	157,450
133,224	-1,194	312,166	157,433
134,239	-1,207	311,858	157,251
135,254	-1,162	311,698	157,203
136,268	-1,489	311,496	156,741
137,283	-1,631	311,110	156,382
138,297	-1,548	310,886	156,343
139,312	-1,639	310,679	156,129
140,327	-1,247	310,628	156,503
141,341	-1,017	310,542	156,690
142,356	-0,909	310,323	156,679
143,370	-0,816	310,113	156,657
144,385	-0,906	309,769	156,374
145,400	-1,076	309,738	156,165
146,414	-0,930	309,382	156,126
147,429	-0,965	309,174	155,971
148,443	-0,921	308,957	155,894
149,458	-1,047	308,963	155,750
150,473	-0,916	308,615	155,698
151,487	-1,144	308,450	155,362
152,502	-0,927	308,249	155,474
153,516	-0,856	307,911	155,364
154,531	-0,874	307,707	155,228
155,546	-0,938	307,633	155,110
156,560	-0,944	307,300	154,922
157,575	-1,038	306,987	154,653
158,589	-1,036	306,751	154,523
159,604	-1,008	306,572	154,447
160,619	-0,988	306,526	154,432
161,633	-1,094	306,241	154,163
162,648	-0,974	306,048	154,177
163,662	-0,876	305,938	154,210
164,677	-0,866	305,668	154,071
165,692	-0,899	305,444	153,910
166,706	-0,896	305,210	153,781
167,721	-0,962	305,201	153,695
168,735	-1,136	304,979	153,389
169,750	-1,047	304,853	153,404
170,764	-0,900	304,758	153,494
171,779	-0,703	304,420	153,514
172,794	-0,775	304,234	153,332
173,808	-1,047	304,013	152,927
174,823	-1,327	303,494	152,364
175,837	-1,482	303,230	152,058
176,852	-1,129	303,227	152,406
177,867	-0,965	303,171	152,533
178,881	-1,017	303,056	152,408
179,896	-0,829	302,756	152,437
180,910	-0,833	302,548	152,314
181,925	-0,590	302,272	152,411
182,940	-0,751	302,210	152,201
183,954	-0,876	301,981	151,944
184,969	-0,823	301,741	151,865
185,983	-1,062	301,579	151,525
186,998	-0,876	301,104	151,462
188,013	-0,931	301,145	151,413
189,027	-0,964	301,000	151,293
190,042	-0,940	300,744	151,176
191,056	-0,670	300,532	151,330
192,071	-0,742	300,376	151,165
193,086	-0,635	300,134	151,138
194,100	-0,800	300,111	150,945
195,115	-0,845	299,803	150,731
196,129	-0,750	299,389	150,607
197,144	-0,895	299,312	150,407
198,159	-0,695	299,114	150,497
199,173	-0,751	298,922	150,330
200,188	-0,760	298,797	150,245
201,202	-1,011	298,470	149,813
202,217	-1,318	298,040	149,274
203,232	-1,486	297,941	149,042
204,246	-1,010	297,820	149,448
205,261	-0,875	297,725	149,524
206,275	-0,776	297,452	149,472
207,290	-0,747	297,273	149,398
208,304	-0,817	297,219	149,288
209,319	-0,671	296,839	149,230
210,334	-0,822	296,636	148,963
211,348	-0,864	296,390	148,783
212,363	-0,835	296,230	148,720
213,377	-0,956	296,147	148,543
214,392	-0,693	295,825	148,632
215,407	-0,843	295,648	148,379
216,421	-1,153	295,395	147,930
217,436	-1,129	295,155	147,821
218,450	-1,071	295,057	147,816
219,465	-1,041	295,008	147,809
220,480	-0,775	294,822	147,967
221,494	-0,811	294,461	147,736
222,509	-1,035	294,452	147,496
223,523	-0,920	294,261	147,501
224,538	-0,766	294,047	147,534
225,553	-0,699	293,884	147,505
226,567	-0,741	293,690	147,353
227,582	-0,637	293,430	147,313
228,596	-0,790	293,514	147,190
229,611	-0,615	293,231	147,208
230,626	-0,817	292,870	146,814
231,640	-1,092	292,547	146,368
232,655	-1,370	292,193	145,904
233,669	-1,555	292,073	145,649
234,684	-1,445	291,893	145,653
235,699	-1,226	291,659	145,739
236,713	-1,260	291,613	145,670
237,728	-1,138	291,304	145,623
238,742	-0,877	291,201	145,815
239,757	-0,891	291,284	145,829
240,772	-0,846	290,996	145,717
241,786	-1,147	290,823	145,321
242,801	-1,056	290,547	145,260
243,815	-1,158	290,467	145,107
244,830	-1,195	290,238	144,944
245,844	-1,050	289,890	144,898
246,859	-1,113	289,748	144,753
247,874	-1,203	289,504	144,531
248,888	-1,020	289,280	144,585
249,903	-0,934	289,360	144,695
250,917	-0,752	289,165	144,761
251,932	-0,605	289,172	144,896
252,947	-0,200	288,999	145,190
253,961	-0,185	288,705	145,044
254,976	0,148	289,084	145,545
255,990	2,558	289,557	148,117
257,005	3,097	289,733	148,718
258,020	3,969	289,894	149,636
259,034	4,232	289,864	149,862
260,049	4,027	289,666	149,547
261,063	4,001	289,267	149,304
262,078	4,270	289,357	149,597
263,093	4,661	289,418	149,994
264,107	4,717	289,116	149,879
265,122	4,762	289,065	149,882
266,136	4,883	288,912	149,907
267,151	5,131	288,470	149,905
268,166	4,545	288,365	149,270
269,180	4,609	288,116	149,189
270,195	4,547	287,967	149,040
271,209	4,643	287,758	149,010
272,224	4,683	287,491	148,897
273,239	4,529	287,339	148,658
274,253	4,592	287,165	148,615
275,268	5,001	287,182	149,004
276,282	4,872	286,984	148,764
277,297	4,760	286,557	148,421
278,312	4,921	286,526	148,547
279,326	4,736	286,384	148,282
280,341	4,638	286,224	148,093
281,355	4,677	285,986	147,994
282,370	4,454	285,606	147,570
283,384	4,253	285,584	147,353
284,399	4,442	285,405	147,429
285,414	4,521	285,214	147,392
286,428	4,362	284,931	147,081
287,443	4,372	284,572	146,893
288,457	4,314	284,332	146,701
289,472	4,341	284,295	146,694
290,487	4,368	283,994	146,552
291,501	4,084	283,987	146,264
292,516	3,726	283,684	145,756
293,530	4,118	283,430	145,984
294,545	4,196	283,397	146,028
295,560	4,468	283,249	146,196
296,574	4,245	282,904	145,795
297,589	4,251	282,712	145,688
298,603	4,614	282,740	146,033
299,618	4,760	282,527	146,047
300,633	4,618	282,520	145,897
301,647	4,480	282,301	145,640
302,662	4,513	282,188	145,600
303,676	4,320	281,749	145,179
304,691	4,126	281,559	144,885
305,706	3,813	281,278	144,434
306,720	4,021	281,062	144,506
307,735	3,998	281,001	144,440
308,749	4,005	281,103	144,486
309,764	4,142	280,756	144,423
310,779	4,169	280,287	144,195
311,793	3,949	280,189	143,925
312,808	3,879	280,041	143,771
313,822	4,129	279,836	143,886
314,837	3,843	279,563	143,466
315,852	3,735	279,508	143,324
316,866	3,837	279,353	143,327
317,881	4,008	279,136	143,362
318,895	3,879	279,012	143,166
319,910	3,969	278,568	143,009
320,925	3,785	278,567	142,824
321,939	3,932	278,375	142,850
322,954	4,156	278,363	143,039
323,968	4,183	278,190	142,962
324,983	4,339	277,988	142,990
325,997	4,074	277,937	142,706
327,012	4,284	277,741	142,787
328,027	4,422	277,434	142,744
329,041	4,159	277,283	142,410
330,056	4,224	277,112	142,370
331,070	4,283	276,889	142,297
332,085	4,114	276,799	142,082
333,100	4,207	276,534	142,019
334,114	4,025	276,315	141,727
335,129	4,033	276,105	141,614
336,143	4,367	275,966	141,837
337,158	4,377	275,940	141,820
338,173	4,185	275,766	141,541
339,187	4,099	275,634	141,383
340,202	4,254	275,495	141,441
341,216	4,159	275,133	141,155
342,231	4,241	274,884	141,090
343,246	4,148	274,891	140,996
344,260	4,112	274,731	140,868
345,275	4,233	274,681	140,940
346,289	4,519	274,549	141,122
347,304	4,581	274,224	140,998
348,319	4,187	274,026	140,524
349,333	4,329	273,757	140,504
350,348	4,507	273,845	140,699
351,362	4,600	273,645	140,668
352,377	4,579	273,408	140,515
353,392	4,518	273,340	140,411
354,406	4,592	273,241	140,415
355,421	192,321	1328,680	1409,486
356,435	155,452	1457,370	1409,633
