DTS Sentinel unit serial number:	SN410029Multiplexer serial number:	ORYXHardware model number:	OX2-SRSoftware version number:	ORYX F/W v4,00 Oryx Data Collector v3.7.2.0data status	okinstallation	B4 Nyhavnadifferential loss correction	single-endedforward channel	channel 2reverse channel	N/Adate	2023/12/19time	05:25:13forward acquisition time	300,00reverse acquisition time	0,00gamma	499,1914k internal	0,3127k external	0,3127temperature offset calibration	1,0000default loss term (dB/km)	0,3820temperature slope calibration	1,0000multiplexer offset coefficient	1,0000multiplexer slope coefficient	1,0000fibre end	0,00T internal ref (°C)	21,00T ext. ref 1 (°C)	6,40T ext. ref 2 (°C)	6,53length (m)	temperature (°C)	Stokes	anti-Stokes-744,400	-200,000	-0,009	0,069
-743,385	-5,367	-0,280	0,143
-742,371	16,022	-0,036	0,021
-741,356	127,856	-0,161	0,153
-740,342	511,019	0,065	0,114
-739,327	-68,667	-0,143	0,041
-738,312	-200,000	0,007	0,034
-737,298	-102,167	-0,232	0,041
-736,283	800,000	0,018	-0,042
-735,269	-73,070	-0,226	0,061
-734,254	-71,126	0,078	-0,022
-733,239	-93,857	-0,378	-0,077
-732,225	21,450	0,136	0,082
-731,210	11,673	0,061	-0,035
-730,196	47,210	-0,121	-0,084
-729,181	-200,000	-0,011	0,057
-728,167	-200,000	0,000	0,088
-727,152	151,887	-0,074	0,076
-726,137	75,240	-0,046	0,036
-725,123	-102,716	-0,067	-0,012
-724,108	800,000	-0,037	-0,101
-723,094	-200,000	-0,017	-0,091
-722,079	-200,000	-0,013	-0,098
-721,064	-46,891	-0,173	-0,062
-720,050	202,899	-0,096	0,111
-719,035	-182,779	-0,112	0,001
-718,021	-107,642	-0,022	0,004
-717,006	-98,884	-0,064	0,012
-715,991	229,848	0,022	0,026
-714,977	-200,000	-0,013	-0,084
-713,962	97,765	0,050	-0,043
-712,948	81,675	-0,047	-0,038
-711,933	800,000	-0,073	-0,154
-710,918	800,000	-0,058	-0,158
-709,904	171,191	-0,129	-0,138
-708,889	590,464	-0,043	-0,079
-707,875	185,616	-0,125	-0,138
-706,860	-200,000	0,011	0,118
-705,845	800,000	0,023	-0,066
-704,831	-88,305	0,158	0,035
-703,816	-12,306	-0,102	0,049
-702,802	-96,730	0,087	-0,017
-701,787	-113,578	-0,068	0,010
-700,772	-12,467	0,102	-0,049
-699,758	-166,052	-0,121	0,004
-698,743	302,755	0,050	-0,069
-697,729	391,693	-0,044	0,067
-696,714	800,000	-0,037	-0,113
-695,699	301,358	0,046	0,063
-694,685	-200,000	-0,003	0,051
-693,670	237,032	0,028	-0,035
-692,656	-63,478	-0,100	0,030
-691,641	-31,269	-0,009	-0,004
-690,627	-113,671	-0,201	0,029
-689,612	800,000	0,019	0,053
-688,597	159,382	-0,060	-0,062
-687,583	23,415	-0,053	-0,032
-686,568	91,825	-0,038	-0,032
-685,554	146,840	-0,055	-0,055
-684,539	707,737	0,047	-0,092
-683,524	-13,164	0,058	0,028
-682,510	15,462	-0,047	-0,027
-681,495	240,840	-0,036	-0,044
-680,481	800,000	0,055	-0,132
-679,466	229,362	0,030	0,037
-678,451	57,998	0,061	-0,045
-677,437	800,000	0,025	-0,052
-676,422	576,082	-0,033	0,059
-675,408	-105,660	0,084	-0,014
-674,393	800,000	0,059	-0,137
-673,378	800,000	-0,028	-0,069
-672,364	616,312	-0,083	-0,156
-671,349	18,879	-0,157	-0,093
-670,335	620,300	0,045	0,084
-669,320	-200,000	0,017	0,065
-668,305	166,126	-0,048	-0,051
-667,291	800,000	0,025	-0,070
-666,276	-71,594	0,146	-0,040
-665,262	50,178	-0,024	0,017
-664,247	28,738	0,123	-0,077
-663,232	59,349	0,041	0,030
-662,218	106,135	0,079	-0,069
-661,203	-200,000	0,009	0,114
-660,189	-96,728	0,072	0,014
-659,174	-11,133	0,049	-0,024
-658,159	800,000	0,032	-0,097
-657,145	-127,442	-0,027	0,003
-656,130	-200,000	0,014	-0,098
-655,116	-82,455	0,049	0,012
-654,101	256,564	0,044	-0,056
-653,086	130,684	-0,030	-0,028
-652,072	-61,210	0,043	0,013
-651,057	15,777	0,066	-0,039
-650,043	176,913	0,092	-0,099
-649,028	260,631	-0,075	-0,097
-648,014	-63,124	0,065	0,020
-646,999	-76,164	0,025	0,006
-645,984	142,380	0,018	-0,017
-644,970	-200,000	0,011	0,067
-643,955	1,168	-0,033	0,018
-642,941	417,233	-0,087	-0,139
-641,926	227,342	-0,072	0,088
-640,911	467,426	-0,024	0,040
-639,897	-200,000	0,036	0,145
-638,882	-69,587	-0,037	-0,010
-637,868	-37,941	0,159	0,062
-636,853	-65,624	-0,090	0,027
-635,838	405,974	0,047	-0,075
-634,824	-129,414	-0,163	-0,017
-633,809	-99,300	-0,111	-0,021
-632,795	6,723	0,103	-0,057
-631,780	161,687	-0,135	-0,140
-630,765	25,773	0,064	-0,039
-629,751	-200,000	-0,031	-0,128
-628,736	224,526	0,016	0,020
-627,722	-132,733	-0,052	-0,005
-626,707	84,984	0,105	-0,086
-625,692	800,000	0,096	0,237
-624,678	90,992	0,023	0,019
-623,663	77,974	0,096	-0,076
-622,649	149,374	-0,126	-0,127
-621,634	66,878	-0,137	0,103
-620,619	-157,900	0,040	0,002
-619,605	22,417	0,132	-0,080
-618,590	-200,000	0,012	0,048
-617,576	-139,433	-0,012	0,001
-616,561	250,830	-0,060	-0,076
-615,546	111,346	-0,024	0,021
-614,532	460,200	-0,114	-0,190
-613,517	21,027	-0,057	-0,034
-612,503	-68,221	0,019	-0,005
-611,488	-200,000	0,029	-0,110
-610,474	-87,118	-0,162	-0,036
-609,459	-200,000	0,018	0,102
-608,444	459,347	0,053	-0,088
-607,430	-112,787	-0,117	-0,017
-606,415	642,249	-0,044	0,084
-605,401	-119,392	0,056	0,007
-604,386	-200,000	0,018	0,141
-603,371	800,000	-0,023	-0,051
-602,357	800,000	-0,047	0,108
-601,342	-141,770	-0,069	0,005
-600,328	800,000	0,008	0,024
-599,313	-200,000	-0,006	-0,142
-598,298	157,385	-0,037	-0,038
-597,284	788,702	0,048	0,098
-596,269	-61,484	-0,034	0,010
-595,255	-200,000	0,009	-0,102
-594,240	8,290	-0,045	-0,025
-593,225	-200,000	-0,021	-0,072
-592,211	-71,920	-0,061	-0,017
-591,196	356,192	0,077	-0,114
-590,182	56,446	0,098	0,070
-589,167	-53,623	-0,131	0,044
-588,152	169,770	-0,043	0,046
-587,138	-59,259	0,056	0,018
-586,123	149,802	-0,163	-0,164
-585,109	-131,386	-0,079	0,008
-584,094	135,247	0,091	0,087
-583,079	-129,983	-0,126	-0,013
-582,065	-5,447	0,151	0,077
-581,050	-200,000	-0,003	-0,037
-580,036	49,959	-0,096	-0,067
-579,021	-200,000	0,028	-0,167
-578,006	800,000	-0,026	0,059
-576,992	-19,952	-0,091	-0,041
-575,977	800,000	0,035	-0,074
-574,963	-17,002	-0,086	-0,040
-573,948	34,878	-0,054	0,035
-572,934	25,007	0,086	-0,053
-571,919	210,502	0,098	-0,114
-570,904	64,530	-0,040	-0,030
-569,890	800,000	-0,019	-0,044
-568,875	263,760	-0,063	0,081
-567,861	69,504	0,106	0,081
-566,846	-200,000	0,006	0,193
-565,831	-200,000	0,018	-0,075
-564,817	-200,000	0,008	0,035
-563,802	19,517	0,016	0,009
-562,788	-78,945	0,034	0,008
-561,773	-8,875	0,054	-0,027
-560,758	30,277	0,019	-0,012
-559,744	-200,000	0,019	0,099
-558,729	-200,000	-0,023	0,084
-557,715	-88,099	-0,082	-0,018
-556,700	398,289	-0,057	-0,088
-555,685	285,214	0,079	-0,105
-554,671	800,000	-0,039	0,124
-553,656	106,317	-0,083	0,073
-552,642	57,291	0,156	0,112
-551,627	-78,923	-0,077	0,019
-550,612	-200,000	-0,004	-0,022
-549,598	-75,236	-0,102	0,027
-548,583	268,452	-0,057	-0,073
-547,569	-5,074	0,113	0,057
-546,554	-200,000	-0,020	0,101
-545,539	800,000	0,085	0,212
-544,525	-200,000	0,017	0,066
-543,510	254,449	0,140	-0,177
-542,496	279,988	-0,054	-0,071
-541,481	800,000	0,102	0,248
-540,466	99,117	-0,045	-0,038
-539,452	800,000	0,026	-0,056
-538,437	5,286	0,036	0,019
-537,423	42,928	0,096	0,064
-536,408	-200,000	-0,023	-0,085
-535,393	516,547	-0,079	-0,137
-534,379	-53,658	0,023	-0,008
-533,364	-200,000	0,015	0,087
-532,350	-133,665	-0,112	-0,010
-531,335	546,862	0,078	0,139
-530,321	-200,000	0,002	0,076
-529,306	-129,628	-0,148	0,015
-528,291	-136,261	0,052	0,004
-527,277	685,909	0,021	0,040
-526,262	183,411	0,031	-0,034
-525,248	46,635	0,134	0,092
-524,233	288,395	-0,023	0,030
-523,218	406,628	0,050	-0,077
-522,204	-200,000	-0,011	-0,046
-521,189	-200,000	0,000	0,053
-520,175	-6,153	-0,023	0,012
-519,160	96,411	-0,137	-0,115
-518,145	-113,872	0,086	0,012
-517,131	-114,207	-0,066	0,009
-516,116	202,235	-0,039	-0,044
-515,102	-200,000	-0,020	0,129
-514,087	-200,000	0,033	0,122
-513,072	142,758	-0,099	-0,097
-512,058	800,000	-0,023	-0,072
-511,043	-66,402	0,014	0,004
-510,029	-200,000	-0,010	-0,045
-509,014	259,659	0,027	0,035
-507,999	-163,586	-0,071	-0,002
-506,985	-200,000	0,011	-0,041
-505,970	579,031	-0,030	-0,054
-504,956	176,834	-0,057	0,062
-503,941	800,000	0,027	-0,074
-502,926	-125,115	0,121	0,013
-501,912	161,755	-0,047	0,048
-500,897	800,000	-0,012	0,036
-499,883	-33,861	-0,059	0,024
-498,868	296,921	-0,063	-0,085
-497,853	-200,000	0,014	-0,084
-496,839	527,011	0,027	0,047
-495,824	-9,445	-0,030	-0,015
-494,810	800,000	0,093	0,231
-493,795	800,000	0,054	0,131
-492,781	800,000	0,034	-0,101
-491,766	-70,305	0,135	-0,038
-490,751	257,083	0,102	-0,130
-489,737	800,000	-0,057	0,136
-488,722	110,942	0,104	0,092
-487,708	-200,000	-0,003	0,081
-486,693	800,000	0,004	-0,012
-485,678	237,862	0,037	-0,045
-484,664	99,363	-0,067	-0,057
-483,649	96,591	0,038	0,032
-482,635	-59,014	0,009	-0,003
-481,620	-45,045	0,157	-0,057
-480,605	-103,010	0,014	0,002
-479,591	-200,000	0,006	0,088
-478,576	-61,018	-0,193	-0,060
-477,562	285,628	0,085	-0,113
-476,547	-200,000	0,017	-0,078
-475,532	564,855	0,052	-0,093
-474,518	748,605	-0,026	0,053
-473,503	-200,000	-0,006	0,084
-472,489	3,838	-0,063	-0,034
-471,474	800,000	-0,035	0,083
-470,459	62,439	-0,212	0,156
-469,445	-200,000	-0,021	-0,093
-468,430	-40,589	-0,103	-0,039
-467,416	-200,000	-0,005	-0,019
-466,401	-142,316	0,188	0,013
-465,386	-7,696	-0,072	-0,036
-464,372	116,474	-0,067	-0,061
-463,357	298,180	0,072	-0,098
-462,343	27,704	-0,044	-0,027
-461,328	-34,484	-0,079	-0,032
-460,313	800,000	0,037	0,110
-459,299	-179,379	-0,086	0,001
-458,284	489,090	-0,101	0,171
-457,270	-50,802	0,158	-0,054
-456,255	247,181	0,079	-0,099
-455,241	186,657	-0,010	-0,011
-454,226	-200,000	0,019	0,074
-453,211	-200,000	0,036	-0,154
-452,197	4,482	0,006	0,003
-451,182	-200,000	-0,015	0,074
-450,168	-30,318	-0,070	-0,029
-449,153	751,613	-0,024	0,048
-448,138	-200,000	0,020	-0,067
-447,124	-42,946	-0,078	0,029
-446,109	176,618	-0,066	-0,071
-445,095	-200,000	-0,025	0,097
-444,080	162,047	-0,090	0,092
-443,065	37,786	0,113	0,074
-442,051	-86,692	-0,012	0,003
-441,036	-70,025	-0,127	-0,035
-440,022	-42,545	-0,156	0,058
-439,007	178,994	-0,071	0,076
-437,992	-134,960	0,035	-0,003
-436,978	292,087	-0,035	-0,047
-435,963	-121,635	0,106	-0,013
-434,949	4,323	0,068	0,037
-433,934	-200,000	0,011	-0,071
-432,919	-200,000	0,002	0,029
-431,905	84,697	-0,135	-0,109
-430,890	25,363	0,062	0,038
-429,876	-200,000	-0,004	-0,110
-428,861	41,229	-0,026	-0,017
-427,846	-162,697	0,073	0,003
-426,832	543,140	-0,056	0,099
-425,817	-200,000	0,018	-0,077
-424,803	-40,432	-0,073	-0,028
-423,788	-200,000	0,006	-0,082
-422,773	-200,000	-0,007	0,110
-421,759	-70,650	0,038	0,010
-420,744	-102,855	-0,172	0,030
-419,730	31,852	-0,069	-0,043
-418,715	-200,000	0,004	-0,149
-417,701	-52,108	-0,005	-0,002
-416,686	10,616	0,027	0,015
-415,671	157,415	-0,068	0,070
-414,657	-200,000	-0,015	0,110
-413,642	-200,000	0,008	-0,150
-412,628	70,605	0,011	-0,009
-411,613	-63,557	0,097	-0,029
-410,598	-33,499	-0,018	-0,007
-409,584	-37,558	0,072	0,028
-408,569	-200,000	-0,008	0,215
-407,555	-200,000	0,012	0,166
-406,540	50,166	0,046	0,032
-405,525	800,000	0,032	-0,097
-404,511	800,000	0,039	-0,102
-403,496	176,109	0,058	-0,062
-402,482	-200,000	-0,000	0,006
-401,467	800,000	0,051	0,143
-400,452	-71,769	-0,030	-0,008
-399,438	800,000	-0,028	0,067
-398,423	46,451	0,077	0,053
-397,409	-200,000	0,002	0,083
-396,394	217,432	0,100	-0,117
-395,379	-200,000	-0,000	-0,068
-394,365	-122,062	-0,090	-0,011
-393,350	70,262	0,031	0,023
-392,336	-61,493	0,018	-0,006
-391,321	70,961	-0,128	-0,098
-390,306	-15,594	0,032	0,015
-389,292	159,467	-0,122	-0,125
-388,277	226,593	-0,040	0,047
-387,263	-25,527	0,088	0,038
-386,248	-63,614	0,059	-0,018
-385,233	800,000	0,023	-0,065
-384,219	-33,583	0,077	0,031
-383,204	-200,000	0,015	-0,163
-382,190	-89,768	0,020	-0,004
-381,175	32,578	-0,135	0,085
-380,160	115,714	-0,110	0,099
-379,146	-116,413	0,077	-0,010
-378,131	11,527	0,131	0,073
-377,117	739,587	0,069	-0,136
-376,102	117,294	0,078	0,070
-375,088	265,079	0,071	-0,091
-374,073	123,668	-0,032	0,030
-373,058	45,081	0,037	0,025
-372,044	800,000	0,050	0,112
-371,029	530,414	0,074	0,128
-370,015	-200,000	-0,004	0,052
-369,000	399,498	-0,039	0,060
-367,985	-85,067	-0,040	-0,009
-366,971	-200,000	-0,000	0,047
-365,956	115,263	-0,082	0,073
-364,942	-2,714	0,077	0,039
-363,927	132,197	0,054	-0,051
-362,912	800,000	0,018	0,046
-361,898	-200,000	-0,017	0,071
-360,883	800,000	0,083	-0,196
-359,869	82,082	-0,174	-0,138
-358,854	105,814	-0,093	0,081
-357,839	-200,000	0,012	-0,066
-356,825	36,517	0,061	0,040
-355,810	165,856	0,092	0,095
-354,796	800,000	-0,026	-0,069
-353,781	-200,000	0,004	-0,120
-352,766	81,684	-0,118	0,093
-351,752	-200,000	-0,011	0,133
-350,737	164,873	-0,098	0,101
-349,723	93,285	0,057	-0,047
-348,708	800,000	-0,023	0,048
-347,693	-200,000	-0,009	0,076
-346,679	232,658	-0,069	-0,084
-345,664	55,747	0,015	0,011
-344,650	430,273	0,071	0,112
-343,635	215,287	0,041	-0,048
-342,620	165,268	0,063	0,066
-341,606	21,917	0,047	-0,028
-340,591	-50,815	-0,112	0,038
-339,577	51,446	-0,110	0,077
-338,562	-9,831	0,080	0,039
-337,548	-99,302	-0,112	-0,021
-336,533	97,253	-0,035	-0,029
-335,518	223,451	0,105	0,125
-334,504	-200,000	-0,003	0,102
-333,489	168,737	0,026	0,027
-332,475	401,480	-0,046	-0,070
-331,460	800,000	0,051	-0,150
-330,445	-131,099	0,116	-0,011
-329,431	-200,000	0,026	0,113
-328,416	-200,000	0,010	0,146
-327,402	-29,003	0,116	0,049
-326,387	19,723	0,066	0,039
-325,372	138,759	-0,124	-0,119
-324,358	32,919	-0,092	0,058
-323,343	-6,037	0,111	-0,056
-322,329	800,000	-0,042	0,107
-321,314	-48,500	-0,117	-0,041
-320,299	-97,971	0,022	0,004
-319,285	197,731	0,070	-0,078
-318,270	-200,000	-0,007	0,026
-317,256	-64,393	-0,088	-0,026
-316,241	-200,000	-0,001	-0,012
-315,226	241,037	-0,071	0,087
-314,212	176,345	0,039	0,041
-313,197	380,126	0,003	-0,004
-312,183	48,322	0,007	-0,005
-311,168	800,000	0,066	-0,188
-310,153	-200,000	-0,003	-0,189
-309,139	-60,615	-0,099	-0,031
-308,124	72,361	0,007	0,005
-307,110	800,000	0,048	0,152
-306,095	99,922	0,086	0,073
-305,080	13,500	0,121	-0,069
-304,066	-200,000	-0,039	-0,214
-303,051	-156,409	-0,148	0,007
-302,037	-200,000	0,004	-0,096
-301,022	-200,000	-0,013	0,060
-300,008	-200,000	0,003	0,188
-298,993	162,443	0,078	-0,080
-297,978	-200,000	0,007	0,029
-296,964	-34,303	-0,116	0,046
-295,949	11,237	-0,104	-0,058
-294,935	36,460	-0,021	-0,014
-293,920	-39,566	0,046	-0,018
-292,905	-200,000	-0,011	0,073
-291,891	-200,000	0,003	0,089
-290,876	66,062	-0,069	-0,051
-289,862	322,972	0,024	0,033
-288,847	14,619	-0,109	-0,062
-287,832	-14,934	0,035	-0,016
-286,818	38,175	-0,037	-0,024
-285,803	-63,931	0,124	-0,037
-284,789	-72,192	-0,030	-0,008
-283,774	-119,655	0,066	0,008
-282,759	-4,959	0,108	-0,054
-281,745	-200,000	0,003	-0,122
-280,730	-69,329	-0,136	-0,038
-279,716	285,973	-0,018	-0,023
-278,701	-123,973	-0,099	-0,011
-277,686	-64,433	0,125	-0,037
-276,672	62,499	-0,051	-0,038
-275,657	-33,346	0,087	0,035
-274,643	137,397	-0,027	-0,026
-273,628	-200,000	0,016	-0,067
-272,613	149,366	0,072	-0,071
-271,599	-53,343	-0,164	-0,055
-270,584	800,000	-0,047	-0,122
-269,570	341,862	0,006	0,009
-268,555	-200,000	0,001	0,068
-267,540	557,737	-0,020	-0,035
-266,526	-175,190	-0,090	-0,002
-265,511	-141,283	0,009	0,001
-264,497	177,519	0,062	-0,066
-263,482	-200,000	-0,005	0,106
-262,467	274,245	0,110	0,142
-261,453	616,344	-0,026	-0,048
-260,438	27,782	-0,054	0,033
-259,424	231,146	0,067	-0,080
-258,409	-200,000	0,015	0,052
-257,395	86,967	0,051	0,041
-256,380	-200,000	0,001	0,104
-255,365	800,000	-0,042	0,123
-254,351	-131,603	-0,042	0,004
-253,336	-200,000	0,011	0,041
-252,322	24,920	0,120	-0,073
-251,307	-178,665	-0,159	-0,003
-250,292	-200,000	-0,010	0,089
-249,278	-200,000	0,028	0,109
-248,263	66,391	0,068	0,050
-247,249	249,466	0,072	0,089
-246,234	-200,000	0,004	-0,040
-245,219	-200,000	0,010	-0,187
-244,205	-85,221	-0,070	0,016
-243,190	-55,249	0,125	0,041
-242,176	0,202	0,082	-0,042
-241,161	19,272	0,091	0,053
-240,146	737,923	-0,069	0,135
-239,132	-200,000	-0,009	0,104
-238,117	445,340	-0,095	-0,153
-237,103	-77,255	0,091	0,023
-236,088	-79,831	0,031	0,008
-235,073	-82,942	0,089	0,021
-234,059	-200,000	0,017	0,055
-233,044	26,354	0,112	0,068
-232,030	-25,024	-0,121	0,052
-231,015	591,279	0,027	-0,048
-230,000	-200,000	0,016	-0,080
-228,986	-200,000	0,025	-0,106
-227,971	-42,993	0,091	-0,034
-226,957	-97,749	0,085	-0,016
-225,942	125,447	0,088	0,081
-224,927	-68,919	-0,105	0,029
-223,913	40,386	-0,082	0,054
-222,898	-200,000	0,022	-0,084
-221,884	800,000	0,037	-0,080
-220,869	-98,720	-0,068	0,013
-219,855	-132,612	0,097	0,009
-218,840	800,000	-0,054	-0,154
-217,825	-162,974	0,057	-0,002
-216,811	-200,000	-0,003	0,049
-215,796	523,323	0,081	-0,140
-214,782	385,566	0,103	-0,155
-213,767	-200,000	0,006	-0,044
-212,752	-17,555	0,096	0,044
-211,738	-130,726	0,090	-0,009
-210,723	169,181	0,048	0,050
-209,709	43,753	0,083	0,055
-208,694	800,000	0,083	-0,191
-207,679	-21,029	0,062	0,027
-206,665	213,217	0,051	0,059
-205,650	-200,000	0,012	0,160
-204,636	75,072	0,080	0,061
-203,621	37,545	0,093	0,060
-202,606	400,932	-0,038	0,058
-201,592	-12,593	0,122	-0,058
-200,577	218,580	-0,093	-0,108
-199,563	12,817	0,132	0,074
-198,548	-82,603	-0,024	0,006
-197,533	-200,000	0,025	-0,092
-196,519	-74,875	-0,032	0,008
-195,504	800,000	-0,036	-0,098
-194,490	18,044	0,023	0,013
-193,475	-200,000	-0,043	-0,236
-192,460	142,082	-0,050	-0,048
-191,446	800,000	0,018	0,038
-190,431	-200,000	-0,017	-0,121
-189,417	-200,000	0,014	0,050
-188,402	466,352	0,021	0,035
-187,387	-200,000	-0,058	-0,193
-186,373	-200,000	0,008	0,029
-185,358	338,589	0,019	-0,026
-184,344	-200,000	-0,001	-0,026
-183,329	151,611	0,049	0,049
-182,315	-200,000	0,002	-0,041
-181,300	117,142	-0,051	0,046
-180,285	-200,000	-0,002	0,069
-179,271	243,521	0,092	-0,113
-178,256	-42,257	-0,202	-0,075
-177,242	-66,436	0,126	0,036
-176,227	437,647	0,083	0,132
-175,212	-69,641	-0,041	0,011
-174,198	561,434	0,040	-0,071
-173,183	205,229	-0,100	-0,113
-172,169	-99,629	-0,173	-0,031
-171,154	251,734	-0,068	-0,085
-170,139	-82,988	0,028	0,007
-169,125	800,000	0,033	0,067
-168,110	490,908	-0,025	-0,042
-167,096	515,966	-0,026	-0,044
-166,081	162,724	0,045	0,046
-165,066	800,000	0,032	0,066
-164,052	-187,527	-0,102	0,001
-163,037	2,561	0,042	-0,022
-162,023	800,000	-0,033	0,082
-161,008	-200,000	-0,004	0,101
-159,993	30,588	-0,063	0,039
-158,979	-200,000	-0,002	-0,043
-157,964	-200,000	0,017	-0,059
-156,950	-200,000	0,005	0,052
-155,935	-157,540	-0,063	0,003
-154,920	370,828	0,023	-0,034
-153,906	-200,000	-0,012	0,121
-152,891	319,633	-0,048	0,067
-151,877	800,000	0,075	0,199
-150,862	-168,835	-0,102	-0,003
-149,847	-78,605	-0,161	0,040
-148,833	301,644	-0,010	0,014
-147,818	335,410	0,019	0,027
-146,804	313,574	0,036	-0,049
-145,789	683,127	-0,032	0,061
-144,775	511,519	-0,076	-0,130
-143,760	420,941	0,048	-0,076
-142,745	-200,000	-0,019	0,101
-141,731	800,000	0,028	0,059
-140,716	-48,986	0,064	0,022
-139,702	-38,024	0,122	0,047
-138,687	-46,341	-0,083	-0,030
-137,672	800,000	0,026	0,056
-136,658	-135,531	-0,144	0,012
-135,643	-200,000	-0,005	0,047
-134,629	-200,000	-0,015	-0,083
-133,614	64,167	-0,092	0,068
-132,599	32,776	0,119	0,075
-131,585	-19,904	-0,028	0,013
-130,570	-200,000	-0,025	-0,131
-129,556	129,630	0,132	0,123
-128,541	-42,151	-0,019	0,007
-127,526	3,647	0,043	-0,023
-126,512	-46,856	-0,029	-0,010
-125,497	-200,000	-0,007	0,084
-124,483	168,233	0,078	-0,080
-123,468	-26,028	-0,072	-0,031
-122,453	-104,388	0,028	0,005
-121,439	717,861	0,062	-0,120
-120,424	-200,000	-0,017	0,083
-119,410	-84,323	-0,041	-0,009
-118,395	-51,199	-0,070	-0,024
-117,380	-200,000	-0,038	0,142
-116,366	188,995	0,015	-0,017
-115,351	82,446	0,046	0,036
-114,337	-5,250	-0,137	0,068
-113,322	-62,360	-0,047	-0,014
-112,307	-200,000	-0,022	-0,109
-111,293	800,000	0,046	0,142
-110,278	-200,000	-0,028	0,130
-109,264	66,147	0,078	-0,057
-108,249	111,239	0,032	-0,028
-107,234	-2,817	-0,158	0,080
-106,220	-200,000	-0,003	-0,100
-105,205	35,570	-0,148	0,094
-104,191	800,000	0,012	-0,025
-103,176	800,000	-0,014	0,042
-102,162	-200,000	0,021	-0,112
-101,147	-8,663	-0,107	0,052
-100,132	-200,000	-0,004	-0,051
-99,118	262,659	0,050	-0,064
-98,103	279,706	0,089	0,115
-97,089	23,503	-0,091	-0,054
-96,074	-110,321	0,189	0,028
-95,059	31,744	-0,044	0,028
-94,045	-132,067	0,048	0,004
-93,030	407,648	-0,034	-0,052
-92,016	-16,099	-0,035	0,016
-91,001	-200,000	-0,012	0,124
-89,986	-39,101	0,053	0,020
-88,972	266,303	0,033	0,042
-87,957	501,977	0,025	-0,041
-86,943	325,856	-0,028	0,039
-85,928	800,000	-0,047	-0,128
-84,913	800,000	0,068	-0,181
-83,899	800,000	0,031	0,089
-82,884	-200,000	0,021	0,093
-81,870	-137,187	0,153	0,012
-80,855	800,000	0,053	0,119
-79,840	175,278	-0,087	-0,092
-78,826	75,522	0,152	-0,116
-77,811	405,646	-0,048	-0,073
-76,797	57,962	-0,124	-0,088
-75,782	800,000	0,040	-0,111
-74,767	115,798	0,121	0,108
-73,753	800,000	0,043	0,113
-72,738	498,886	-0,010	-0,017
-71,724	800,000	-0,050	-0,115
-70,709	-200,000	-0,017	-0,151
-69,694	-200,000	0,006	0,074
-68,680	172,977	0,048	0,050
-67,665	800,000	0,073	0,205
-66,651	-141,938	0,129	-0,009
-65,636	-130,490	0,130	-0,013
-64,622	-39,014	-0,085	-0,032
-63,607	-200,000	0,016	-0,100
-62,592	84,243	0,053	-0,042
-61,578	109,394	0,111	0,096
-60,563	376,403	0,099	0,146
-59,549	50,142	-0,068	-0,047
-58,534	-148,359	-1,376	-0,081
-57,519	549,411	-0,795	-1,387
-56,505	-200,000	-0,857	-4,486
-55,490	-103,303	0,575	-0,097
-54,476	800,000	4,885	11,580
-53,461	-200,000	14,566	262,859
-52,446	-200,000	696,249	2281,435
-51,432	603,720	1622,595	2938,178
-50,417	118,874	1630,950	1460,537
-49,403	76,656	1284,249	986,189
-48,388	37,436	1021,979	655,351
-47,373	23,342	981,180	582,884
-46,359	22,452	970,572	573,643
-45,344	21,254	966,253	567,158
-44,330	21,259	964,710	566,246
-43,315	21,095	963,330	564,878
-42,300	21,114	962,250	564,286
-41,286	21,014	961,207	563,328
-40,271	21,042	960,223	562,818
-39,257	21,078	959,281	562,360
-38,242	21,068	958,379	561,776
-37,227	20,987	957,738	561,117
-36,213	21,019	956,617	560,541
-35,198	20,975	955,754	559,870
-34,184	21,059	955,124	559,750
-33,169	21,017	954,179	559,039
-32,154	21,031	953,259	558,524
-31,140	21,030	952,482	558,042
-30,125	21,034	951,672	557,560
-29,111	21,060	950,775	557,096
-28,096	21,096	950,161	556,830
-27,082	21,007	949,488	556,127
-26,067	21,034	948,702	555,733
-25,052	21,068	947,898	555,349
-24,038	21,019	947,289	554,811
-23,023	21,053	946,837	554,632
-22,009	21,095	945,881	554,185
-20,994	21,050	945,528	553,813
-19,979	21,015	944,694	553,189
-18,965	21,031	944,043	552,839
-17,950	21,016	943,602	552,511
-16,936	20,966	943,030	551,994
-15,921	20,963	942,168	551,460
-14,906	20,928	941,356	550,851
-13,892	20,990	940,775	550,685
-12,877	20,858	940,444	550,051
-11,863	20,912	939,534	549,668
-10,848	20,944	939,072	549,477
-9,833	21,033	938,655	549,492
-8,819	21,006	938,086	549,053
-7,804	20,922	937,432	548,382
-6,790	20,868	936,898	547,878
-5,775	20,936	936,280	547,711
-4,760	20,915	935,760	547,318
-3,746	20,929	934,937	546,858
-2,731	20,735	934,230	545,810
-1,717	20,778	933,450	545,470
-0,702	20,757	932,909	545,065
0,313	20,563	932,253	544,893
1,327	22,944	929,871	550,930
2,342	30,437	806,871	498,323
3,356	24,874	508,248	304,379
4,371	0,936	374,160	193,564
5,386	-1,781	357,165	181,417
6,400	-3,076	351,225	176,817
7,415	-3,602	348,417	174,757
8,429	-3,805	347,066	173,821
9,444	-3,821	346,168	173,336
10,459	-3,697	345,274	173,021
11,473	-3,891	344,860	172,567
12,488	-3,713	344,137	172,401
13,502	-3,966	343,749	171,892
14,517	-3,665	343,131	171,923
15,531	-3,906	342,646	171,380
16,546	-3,803	342,260	171,294
17,561	-3,718	341,793	171,145
18,575	-3,836	341,520	170,854
19,590	-3,867	341,021	170,553
20,604	-3,716	340,655	170,532
21,619	-3,933	340,408	170,139
22,634	-3,758	339,906	170,077
23,648	-3,687	339,447	169,915
24,663	-3,845	339,212	169,598
25,677	-3,883	339,031	169,448
26,692	-3,733	338,636	169,410
27,707	-3,864	338,366	169,108
28,721	-3,685	338,012	169,124
29,736	-3,746	337,739	168,902
30,750	-3,738	337,483	168,768
31,765	-3,875	337,084	168,395
32,780	-3,838	336,898	168,329
33,794	-3,766	336,565	168,231
34,809	-3,708	336,314	168,157
35,823	-3,882	335,936	167,753
36,838	-3,874	335,674	167,616
37,853	-3,799	335,216	167,459
38,867	-3,785	335,056	167,380
39,882	-3,892	334,868	167,148
40,896	-3,751	334,672	167,197
41,911	-3,967	334,299	166,748
42,926	-3,723	333,991	166,859
43,940	-3,767	333,762	166,680
44,955	-3,835	333,530	166,471
45,969	-3,790	333,325	166,405
46,984	-3,732	332,852	166,221
47,999	-3,823	332,808	166,080
49,013	-3,701	332,589	166,095
50,028	-3,822	332,338	165,817
51,042	-3,665	331,952	165,788
52,057	-3,819	331,669	165,457
53,071	-3,803	331,491	165,372
54,086	-3,804	331,215	165,219
55,101	-3,716	331,024	165,208
56,115	-3,814	330,714	164,927
57,130	-3,673	330,397	164,914
58,144	-3,871	330,142	164,549
59,159	-3,797	329,854	164,474
60,174	-3,870	329,685	164,292
61,188	-3,855	329,470	164,188
62,203	-3,779	329,084	164,066
63,217	-3,713	328,921	164,045
64,232	-3,750	328,664	163,860
65,247	-3,730	328,254	163,664
66,261	-3,689	328,147	163,642
67,276	-3,750	327,925	163,448
68,290	-3,775	327,651	163,268
69,305	-3,689	327,180	163,116
70,320	-3,958	327,216	162,818
71,334	-3,803	326,875	162,808
72,349	-3,682	326,595	162,789
73,363	-3,684	326,237	162,593
74,378	-3,726	325,976	162,403
75,393	-3,680	325,765	162,333
76,407	-3,739	325,588	162,166
77,422	-3,635	325,388	162,167
78,436	-3,709	325,050	161,901
79,451	-3,551	324,461	161,769
80,466	-3,680	324,406	161,585
81,480	-3,727	324,157	161,394
82,495	-3,839	324,048	161,201
83,509	-3,659	323,747	161,236
84,524	-3,567	323,537	161,219
85,539	-3,463	323,241	161,173
86,553	-3,694	323,041	160,803
87,568	-3,901	322,880	160,479
88,582	-3,730	322,477	160,454
89,597	-3,861	322,298	160,206
90,611	-3,858	321,988	160,041
91,626	-3,610	321,807	160,210
92,641	-3,715	321,568	159,961
93,655	-3,592	321,259	159,928
94,670	-3,969	321,141	159,441
95,684	-3,798	320,759	159,425
96,699	-3,768	320,740	159,434
97,714	-3,683	320,305	159,296
98,728	-3,781	320,097	159,072
99,743	-3,618	320,016	159,196
100,757	-3,798	319,660	158,808
101,772	-3,706	319,520	158,824
102,787	-3,805	319,169	158,528
103,801	-3,827	319,044	158,428
104,816	-3,782	318,723	158,303
105,830	-3,636	318,518	158,346
106,845	-3,780	318,379	158,107
107,860	-3,685	317,961	157,988
108,874	-3,611	317,808	157,978
109,889	-3,813	317,556	157,620
110,903	-3,775	317,310	157,525
111,918	-3,696	317,180	157,531
112,933	-3,734	316,933	157,353
113,947	-3,713	316,788	157,290
114,962	-3,680	316,385	157,112
115,976	-3,667	316,200	157,020
116,991	-3,709	316,063	156,892
118,006	-3,767	315,917	156,744
119,020	-3,765	315,651	156,600
120,035	-3,740	315,360	156,468
121,049	-3,869	315,194	156,234
122,064	-3,610	314,917	156,361
123,079	-3,769	314,676	156,056
124,093	-3,686	314,484	156,036
125,108	-3,760	314,250	155,827
126,122	-3,668	314,079	155,826
127,137	-3,779	313,716	155,513
128,151	-3,692	313,533	155,502
129,166	-3,780	313,486	155,371
130,181	-3,661	313,051	155,268
131,195	-3,691	312,906	155,151
132,210	-3,768	312,553	154,879
133,224	-3,865	312,387	154,681
134,239	-3,719	312,228	154,743
135,254	-3,658	311,872	154,618
136,268	-3,693	311,687	154,475
137,283	-3,733	311,438	154,296
138,297	-3,707	311,156	154,170
139,312	-3,640	311,008	154,154
140,327	-3,643	310,653	153,960
141,341	-3,755	310,701	153,852
142,356	-3,652	310,423	153,810
143,370	-3,570	310,060	153,703
144,385	-3,779	309,969	153,423
145,400	-3,813	309,951	153,365
146,414	-3,664	309,528	153,299
147,429	-3,762	309,226	153,033
148,443	-3,678	309,052	153,021
149,458	-3,705	308,802	152,856
150,473	-3,578	308,672	152,910
151,487	-3,662	308,307	152,629
152,502	-3,459	308,215	152,782
153,516	-3,641	308,008	152,475
154,531	-3,781	307,842	152,232
155,546	-3,666	307,651	152,245
156,560	-3,579	307,428	152,212
157,575	-3,590	307,045	151,997
158,589	-3,597	306,856	151,883
159,604	-3,649	306,638	151,707
160,619	-3,431	306,317	151,762
161,633	-3,539	306,164	151,561
162,648	-3,574	306,031	151,445
163,662	-3,642	305,861	151,276
164,677	-3,733	305,722	151,099
165,692	-3,747	305,566	150,995
166,706	-3,630	305,314	150,978
167,721	-3,574	305,144	150,938
168,735	-3,568	304,970	150,844
169,750	-3,711	304,814	150,607
170,764	-3,597	304,588	150,599
171,779	-3,747	304,387	150,331
172,794	-3,538	304,195	150,439
173,808	-3,576	303,972	150,276
174,823	-3,692	303,639	149,978
175,837	-3,759	303,351	149,754
176,852	-3,584	303,336	149,913
177,867	-3,695	303,173	149,704
178,881	-3,490	302,840	149,737
179,896	-3,599	302,672	149,530
180,910	-3,584	302,355	149,374
181,925	-3,655	302,184	149,204
182,940	-3,551	302,057	149,234
183,954	-3,659	301,912	149,039
184,969	-3,697	301,694	148,879
185,983	-3,613	301,510	148,861
186,998	-3,639	301,197	148,667
188,013	-3,599	300,897	148,546
189,027	-3,627	300,855	148,484
190,042	-3,688	300,697	148,330
191,056	-3,490	300,365	148,355
192,071	-3,582	300,176	148,155
193,086	-3,601	299,986	148,028
194,100	-3,609	299,695	147,864
195,115	-3,648	299,579	147,753
196,129	-3,514	299,247	147,712
197,144	-3,502	298,994	147,587
198,159	-3,574	298,818	147,414
199,173	-3,409	298,625	147,473
200,188	-3,720	298,474	147,070
201,202	-3,606	298,246	147,060
202,217	-3,520	298,053	147,038
203,232	-3,491	297,752	146,906
204,246	-3,536	297,471	146,709
205,261	-3,634	297,398	146,561
206,275	-3,607	297,233	146,494
207,290	-3,349	296,923	146,587
208,304	-3,662	296,921	146,259
209,319	-3,576	296,657	146,202
210,334	-3,548	296,483	146,132
211,348	-3,612	296,249	145,939
212,363	-3,580	296,060	145,865
213,377	-3,533	295,677	145,710
214,392	-3,550	295,688	145,685
215,407	-3,593	295,465	145,520
216,421	-3,623	295,311	145,401
217,436	-3,549	295,061	145,338
218,450	-3,497	294,742	145,220
219,465	-3,396	294,468	145,173
220,480	-3,499	294,388	145,018
221,494	-3,488	294,203	144,925
222,509	-3,547	294,194	144,849
223,523	-3,517	293,921	144,732
224,538	-3,511	293,756	144,643
225,553	-3,595	293,477	144,410
226,567	-3,646	293,232	144,226
227,582	-3,485	293,150	144,332
228,596	-3,468	292,929	144,227
229,611	-3,414	292,789	144,198
230,626	-3,465	292,602	144,043
231,640	-3,386	292,365	143,992
232,655	-3,644	292,226	143,656
233,669	-3,666	292,019	143,520
234,684	-3,469	291,834	143,610
235,699	-3,480	291,568	143,455
236,713	-3,635	291,441	143,228
237,728	-3,707	291,213	143,032
238,742	-3,606	290,966	142,997
239,757	-3,525	290,687	142,927
240,772	-3,551	290,585	142,839
241,786	-3,366	290,257	142,846
242,801	-3,337	290,196	142,831
243,815	-3,532	290,133	142,596
244,830	-3,646	290,113	142,462
245,844	-3,460	289,620	142,389
246,859	-3,683	289,614	142,156
247,874	-3,409	289,214	142,214
248,888	-3,598	289,010	141,918
249,903	-3,437	289,004	142,058
250,917	-3,673	288,943	141,786
251,932	-3,390	288,407	141,786
252,947	-3,392	288,397	141,766
253,961	-3,640	288,067	141,351
254,976	-3,654	287,932	141,258
255,990	-3,432	287,746	141,370
257,005	-2,704	288,093	142,234
258,020	-0,467	288,443	144,567
259,034	0,351	288,926	145,590
260,049	0,709	288,880	145,903
261,063	1,308	288,773	146,417
262,078	1,570	288,803	146,673
263,093	1,834	288,677	146,852
264,107	2,004	288,765	147,049
265,122	2,205	288,525	147,108
266,136	2,430	288,367	147,232
267,151	2,357	288,202	147,064
268,166	2,403	287,996	146,990
269,180	2,446	287,924	146,982
270,195	2,434	287,687	146,836
271,209	2,341	287,427	146,601
272,224	2,675	287,128	146,756
273,239	2,120	287,118	146,204
274,253	2,157	286,814	146,072
275,268	2,279	286,517	146,024
276,282	2,259	286,318	145,891
277,297	2,142	286,130	145,670
278,312	2,217	286,153	145,740
279,326	2,313	285,896	145,688
280,341	2,349	285,706	145,614
281,355	2,066	285,627	145,289
282,370	2,395	285,201	145,374
283,384	2,152	285,115	145,085
284,399	2,194	284,877	144,991
285,414	1,978	284,811	144,738
286,428	1,947	284,693	144,636
287,443	2,283	284,298	144,742
288,457	2,213	284,160	144,592
289,472	2,111	283,897	144,349
290,487	2,146	283,645	144,241
291,501	1,939	283,541	143,979
292,516	2,007	283,361	143,939
293,530	2,049	283,245	143,907
294,545	2,131	283,132	143,915
295,560	2,007	282,871	143,652
296,574	2,029	282,787	143,617
297,589	2,116	282,391	143,485
298,603	2,064	282,290	143,372
299,618	2,191	282,124	143,395
300,633	2,170	281,856	143,226
301,647	2,110	281,732	143,094
302,662	2,118	281,550	142,996
303,676	2,253	281,475	143,072
304,691	2,134	281,358	142,888
305,706	2,284	281,047	142,859
306,720	2,227	280,890	142,712
307,735	2,240	280,793	142,663
308,749	2,190	280,614	142,512
309,764	2,203	280,497	142,452
310,779	2,345	280,188	142,416
311,793	2,428	279,841	142,303
312,808	2,195	279,720	142,012
313,822	2,093	279,672	141,880
314,837	2,147	279,493	141,827
315,852	2,258	279,226	141,782
316,866	2,297	279,130	141,757
317,881	2,193	278,892	141,527
318,895	2,189	278,796	141,462
319,910	2,145	278,492	141,254
320,925	2,283	278,257	141,251
321,939	2,084	278,173	141,010
322,954	2,300	278,017	141,119
323,968	2,228	277,830	140,945
324,983	2,197	277,697	140,836
325,997	2,216	277,507	140,745
327,012	2,220	277,188	140,573
328,027	2,403	277,060	140,665
329,041	2,425	276,970	140,627
330,056	2,331	276,778	140,431
331,070	2,344	276,495	140,287
332,085	2,438	276,306	140,265
333,100	2,402	276,112	140,121
334,114	2,252	276,004	139,916
335,129	2,363	275,807	139,905
336,143	2,401	275,744	139,896
337,158	2,403	275,510	139,766
338,173	2,443	275,377	139,723
339,187	2,360	275,165	139,527
340,202	2,283	275,009	139,365
341,216	2,310	274,741	139,241
342,231	2,301	274,691	139,195
343,246	2,495	274,510	139,269
344,260	2,406	274,362	139,100
345,275	2,426	274,118	138,982
346,289	2,445	273,913	138,883
347,304	2,388	273,766	138,745
348,319	2,275	273,536	138,512
349,333	2,367	273,429	138,530
350,348	2,511	273,119	138,491
351,362	2,452	273,070	138,400
352,377	2,367	272,884	138,216
353,392	2,274	272,775	138,064
354,406	2,333	272,666	138,051
355,421	190,122	1348,316	1422,853
356,435	153,438	1479,461	1422,952
