DTS Sentinel unit serial number:	SN410029Multiplexer serial number:	ORYXHardware model number:	OX2-SRSoftware version number:	ORYX F/W v4,00 Oryx Data Collector v3.7.2.0data status	okinstallation	B4 Nyhavnadifferential loss correction	single-endedforward channel	channel 2reverse channel	N/Adate	2023/12/15time	15:05:13forward acquisition time	300,00reverse acquisition time	0,00gamma	499,1914k internal	0,3157k external	0,3157temperature offset calibration	1,0000default loss term (dB/km)	0,3820temperature slope calibration	1,0000multiplexer offset coefficient	1,0000multiplexer slope coefficient	1,0000fibre end	0,00T internal ref (°C)	15,85T ext. ref 1 (°C)	2,23T ext. ref 2 (°C)	2,35length (m)	temperature (°C)	Stokes	anti-Stokes-744,400	118,435	0,036	0,033
-743,385	-106,466	-0,258	0,042
-742,371	-101,543	0,129	0,023
-741,356	-70,775	-0,265	0,073
-740,342	326,766	0,056	0,079
-739,327	-125,183	-0,252	0,028
-738,312	-200,000	-0,000	0,155
-737,298	-94,093	-0,236	0,047
-736,283	123,722	0,133	0,123
-735,269	-44,061	-0,241	0,089
-734,254	-81,287	0,169	-0,041
-733,239	-74,710	-0,556	-0,146
-732,225	-40,781	0,218	0,083
-731,210	784,618	0,042	-0,084
-730,196	145,582	0,065	-0,064
-729,181	-200,000	-0,016	-0,207
-728,167	-170,432	0,061	-0,002
-727,152	-120,742	-0,064	0,008
-726,137	128,328	0,042	-0,040
-725,123	-200,000	0,003	-0,094
-724,108	-107,765	-0,162	-0,026
-723,094	-93,796	-0,148	0,030
-722,079	452,831	-0,034	-0,056
-721,064	-200,000	0,034	-0,136
-720,050	800,000	-0,029	0,075
-719,035	-200,000	0,003	-0,010
-718,021	751,095	-0,036	-0,072
-717,006	238,570	0,068	0,083
-715,991	-200,000	-0,011	-0,093
-714,977	589,567	0,052	-0,094
-713,962	800,000	-0,020	0,066
-712,948	-37,098	-0,036	-0,014
-711,933	-51,251	0,028	-0,010
-710,918	-3,800	0,030	0,015
-709,904	-4,641	-0,026	-0,013
-708,889	-104,893	-0,027	0,005
-707,875	-2,004	-0,031	-0,016
-706,860	7,045	0,136	0,074
-705,845	-151,981	0,198	0,010
-704,831	-75,887	0,053	-0,014
-703,816	-99,041	0,018	-0,003
-702,802	-14,898	0,051	-0,024
-701,787	523,035	0,066	-0,115
-700,772	-200,000	0,013	-0,074
-699,758	800,000	-0,024	0,076
-698,743	666,743	0,025	0,048
-697,729	36,229	0,021	0,013
-696,714	-62,258	0,112	0,034
-695,699	-164,664	0,065	0,002
-694,685	-112,234	-0,094	0,014
-693,670	-14,363	-0,112	-0,053
-692,656	-22,152	0,080	0,036
-691,641	206,400	0,207	-0,238
-690,627	-155,063	-0,014	-0,001
-689,612	-64,120	-0,045	-0,013
-688,597	-72,791	0,104	-0,028
-687,583	800,000	-0,008	0,020
-686,568	-23,216	-0,093	-0,041
-685,554	-200,000	0,000	-0,053
-684,539	-200,000	0,010	-0,062
-683,524	800,000	-0,043	-0,135
-682,510	47,543	-0,110	-0,076
-681,495	-200,000	-0,002	-0,030
-680,481	-147,969	-0,166	0,010
-679,466	-200,000	-0,009	-0,100
-678,451	40,099	-0,098	0,065
-677,437	-200,000	-0,013	-0,070
-676,422	82,007	0,043	-0,034
-675,408	-200,000	-0,023	-0,136
-674,393	-200,000	0,034	-0,129
-673,378	-57,195	-0,121	0,039
-672,364	-200,000	-0,012	-0,086
-671,349	419,361	0,062	0,099
-670,335	52,741	0,007	-0,005
-669,320	215,954	0,096	-0,112
-668,305	-55,661	0,084	-0,028
-667,291	52,493	0,077	0,054
-666,276	800,000	0,036	-0,088
-665,262	-200,000	0,008	0,030
-664,247	800,000	-0,034	-0,104
-663,232	-200,000	-0,046	-0,254
-662,218	-70,786	-0,034	0,009
-661,203	-119,078	-0,046	-0,006
-660,189	136,879	0,055	-0,053
-659,174	103,770	-0,042	0,037
-658,159	-123,590	0,109	0,013
-657,145	800,000	-0,024	0,053
-656,130	-200,000	0,031	0,117
-655,116	278,765	-0,038	0,050
-654,101	-45,487	0,060	-0,022
-653,086	154,865	-0,009	-0,009
-652,072	-19,264	-0,079	-0,036
-651,057	284,893	-0,030	-0,040
-650,043	72,833	-0,106	0,081
-649,028	800,000	-0,050	0,102
-648,014	-200,000	-0,022	0,147
-646,999	720,161	0,045	0,087
-645,984	229,770	0,061	-0,074
-644,970	-200,000	-0,015	0,052
-643,955	500,644	-0,034	-0,057
-642,941	-200,000	-0,008	-0,082
-641,926	-150,542	0,114	-0,006
-640,911	-200,000	0,002	0,116
-639,897	615,249	-0,005	-0,008
-638,882	587,292	-0,060	0,109
-637,868	-187,936	0,072	-0,001
-636,853	196,159	-0,025	-0,028
-635,838	564,205	-0,033	0,059
-634,824	-94,101	-0,156	0,031
-633,809	61,019	0,082	0,059
-632,795	55,889	-0,083	0,059
-631,780	53,399	-0,064	0,045
-630,765	-30,227	0,085	0,035
-629,751	800,000	0,038	0,089
-628,736	345,430	0,036	-0,052
-627,722	-200,000	0,015	-0,093
-626,707	274,116	0,062	-0,081
-625,692	-5,335	0,106	-0,053
-624,678	-102,047	0,091	0,016
-623,663	191,654	0,014	0,015
-622,649	-200,000	-0,039	-0,161
-621,634	800,000	0,029	-0,061
-620,619	-200,000	0,036	-0,202
-619,605	172,588	0,028	-0,030
-618,590	-200,000	0,011	-0,060
-617,576	61,712	0,060	-0,044
-616,561	290,491	0,045	0,060
-615,546	800,000	0,050	0,125
-614,532	-44,271	-0,100	-0,037
-613,517	71,155	0,057	0,044
-612,503	800,000	-0,019	0,041
-611,488	-200,000	-0,003	0,011
-610,474	-80,324	-0,044	0,011
-609,459	58,445	-0,072	-0,052
-608,444	-200,000	-0,005	0,121
-607,430	-200,000	0,008	-0,069
-606,415	-169,038	-0,175	-0,005
-605,401	-200,000	0,007	0,033
-604,386	-70,204	0,089	0,025
-603,371	219,722	0,066	0,078
-602,357	-200,000	-0,040	0,237
-601,342	61,376	-0,107	-0,078
-600,328	8,984	-0,163	-0,090
-599,313	133,242	0,049	0,046
-598,298	96,697	-0,042	0,035
-597,284	211,873	-0,056	0,065
-596,269	800,000	-0,027	-0,067
-595,255	167,307	0,043	-0,045
-594,240	772,074	0,061	0,123
-593,225	-200,000	0,010	-0,110
-592,211	-184,015	-0,238	-0,003
-591,196	45,702	0,048	0,032
-590,182	20,687	0,151	-0,089
-589,167	15,788	-0,105	0,061
-588,152	27,879	0,040	0,025
-587,138	341,507	-0,047	0,068
-586,123	-99,683	-0,229	0,042
-585,109	800,000	-0,051	0,133
-584,094	-186,131	0,027	0,000
-583,079	393,717	0,013	-0,021
-582,065	-31,625	0,044	-0,018
-581,050	-200,000	0,032	0,135
-580,036	800,000	-0,025	-0,068
-579,021	99,912	-0,073	-0,062
-578,006	201,887	0,031	0,035
-576,992	-106,379	-0,158	-0,026
-575,977	-200,000	0,015	0,060
-574,963	251,918	0,120	0,150
-573,948	-200,000	-0,004	0,043
-572,934	800,000	0,091	-0,185
-571,919	-38,714	-0,045	0,017
-570,904	-200,000	-0,024	-0,129
-569,890	-55,490	-0,101	-0,033
-568,875	-70,925	0,105	-0,029
-567,861	72,042	0,103	0,078
-566,846	349,200	-0,018	0,026
-565,831	17,470	-0,109	0,063
-564,817	800,000	0,029	0,076
-563,802	600,018	-0,044	-0,081
-562,788	-200,000	-0,024	-0,099
-561,773	800,000	-0,014	-0,036
-560,758	800,000	0,061	0,142
-559,744	800,000	-0,047	0,099
-558,729	800,000	0,056	0,144
-557,715	56,203	-0,026	-0,018
-556,700	-200,000	0,007	-0,066
-555,685	42,347	-0,061	-0,040
-554,671	-12,715	0,100	0,048
-553,656	800,000	-0,036	0,079
-552,642	212,273	-0,086	-0,100
-551,627	71,049	-0,028	0,021
-550,612	168,267	0,057	0,059
-549,598	123,037	-0,111	0,102
-548,583	-63,863	-0,049	-0,015
-547,569	-200,000	0,007	0,044
-546,554	800,000	0,051	-0,151
-545,539	-200,000	-0,021	-0,213
-544,525	399,253	-0,054	-0,084
-543,510	800,000	-0,054	0,122
-542,496	6,752	-0,019	0,010
-541,481	-200,000	-0,007	-0,042
-540,466	286,454	-0,028	-0,038
-539,452	136,027	0,060	0,058
-538,437	-102,062	0,090	-0,016
-537,423	40,047	0,007	0,005
-536,408	-132,340	-0,078	-0,007
-535,393	159,249	-0,066	0,068
-534,379	-99,768	0,131	0,024
-533,364	153,080	0,099	0,099
-532,350	800,000	0,104	-0,218
-531,335	-200,000	-0,026	0,094
-530,321	-20,886	0,075	0,034
-529,306	-76,333	0,052	-0,013
-528,291	-200,000	0,008	0,054
-527,277	-200,000	0,041	0,139
-526,262	-68,068	0,153	0,043
-525,248	156,418	-0,023	0,024
-524,233	364,823	-0,045	0,066
-523,218	328,045	0,035	-0,050
-522,204	58,674	0,039	0,028
-521,189	-98,300	-0,079	0,015
-520,175	129,763	0,030	-0,028
-519,160	373,940	0,016	0,024
-518,145	-18,917	0,123	0,056
-517,131	-104,736	0,116	0,019
-516,116	83,556	-0,095	-0,075
-515,102	-200,000	-0,011	0,040
-514,087	800,000	0,030	0,068
-513,072	-200,000	-0,026	-0,098
-512,058	-200,000	-0,019	-0,130
-511,043	-200,000	0,013	-0,061
-510,029	91,305	0,061	0,050
-509,014	1,180	0,086	0,045
-507,999	289,750	-0,012	-0,016
-506,985	-200,000	-0,008	-0,044
-505,970	43,536	0,011	-0,007
-504,956	800,000	-0,068	-0,149
-503,941	800,000	0,043	-0,096
-502,926	-39,962	0,069	0,026
-501,912	-200,000	0,005	0,177
-500,897	260,388	-0,046	0,058
-499,883	-124,988	0,054	-0,006
-498,868	-134,524	-0,083	0,007
-497,853	-200,000	0,014	-0,058
-496,839	-96,506	0,081	0,015
-495,824	721,063	-0,062	0,122
-494,810	800,000	0,066	0,189
-493,795	124,132	-0,081	-0,074
-492,781	231,971	0,041	-0,049
-491,766	176,783	-0,042	-0,044
-490,751	60,261	-0,140	-0,101
-489,737	-118,237	-0,022	0,003
-488,722	-125,315	-0,106	0,012
-487,708	-200,000	-0,025	-0,125
-486,693	-200,000	-0,001	-0,018
-485,678	-42,157	0,079	-0,029
-484,664	-134,304	-0,113	-0,010
-483,649	-200,000	-0,074	-0,289
-482,635	648,412	0,043	-0,081
-481,620	219,213	0,026	0,031
-480,605	-200,000	-0,001	-0,084
-479,591	-200,000	-0,005	0,098
-478,576	269,011	0,043	-0,055
-477,562	193,325	-0,067	-0,074
-476,547	336,258	0,021	0,029
-475,532	-200,000	-0,006	-0,130
-474,518	-62,541	0,074	0,022
-473,503	-200,000	-0,037	0,275
-472,489	-121,144	-0,047	-0,006
-471,474	-113,819	-0,141	0,020
-470,459	30,145	-0,090	-0,056
-469,445	527,568	-0,038	0,065
-468,430	261,741	0,159	-0,201
-467,416	-136,422	0,097	0,008
-466,401	242,286	-0,121	0,148
-465,386	800,000	0,026	0,070
-464,372	-113,346	-0,160	-0,023
-463,357	416,757	-0,083	-0,130
-462,343	-200,000	0,041	-0,166
-461,328	218,704	0,133	-0,155
-460,313	221,087	-0,062	-0,073
-459,299	-125,334	0,053	0,006
-458,284	-200,000	-0,000	0,008
-457,270	-200,000	0,004	0,134
-456,255	800,000	-0,027	-0,056
-455,241	302,303	-0,054	0,073
-454,226	-82,989	-0,122	-0,029
-453,211	-43,213	-0,104	-0,038
-452,197	95,899	0,130	-0,108
-451,182	-149,031	0,082	0,005
-450,168	-69,856	0,107	0,030
-449,153	-116,021	-0,202	-0,027
-448,138	800,000	-0,078	-0,169
-447,124	44,763	-0,089	-0,060
-446,109	613,069	0,018	-0,033
-445,095	-200,000	0,011	-0,109
-444,080	47,966	0,129	0,088
-443,065	113,620	0,038	-0,033
-442,051	26,883	0,071	0,043
-441,036	299,490	0,061	0,083
-440,022	314,794	-0,052	-0,071
-439,007	53,173	0,070	0,049
-437,992	-52,755	-0,026	-0,009
-436,978	-57,297	0,050	-0,016
-435,963	800,000	-0,045	0,104
-434,949	-53,043	-0,187	0,062
-433,934	481,969	-0,124	0,205
-432,919	-58,110	0,052	-0,017
-431,905	800,000	-0,023	0,072
-430,890	181,265	-0,049	0,053
-429,876	-79,519	0,057	-0,014
-428,861	-62,431	0,210	-0,063
-427,846	800,000	0,032	0,101
-426,832	-97,810	-0,129	-0,024
-425,817	-200,000	0,020	-0,081
-424,803	-39,502	0,057	-0,022
-423,788	-171,641	-0,054	0,001
-422,773	-200,000	0,011	-0,075
-421,759	-105,491	0,171	0,028
-420,744	-200,000	-0,006	-0,060
-419,730	-54,883	0,093	0,031
-418,715	-78,169	-0,035	-0,009
-417,701	-156,516	-0,057	-0,003
-416,686	459,517	-0,049	-0,079
-415,671	90,222	0,058	0,047
-414,657	-130,694	-0,084	0,008
-413,642	559,875	0,051	-0,091
-412,628	-31,950	-0,125	-0,051
-411,613	381,488	-0,070	-0,105
-410,598	212,152	-0,110	-0,126
-409,584	19,713	-0,073	0,043
-408,569	-120,520	0,040	-0,005
-407,555	800,000	-0,046	0,127
-406,540	95,083	-0,096	0,079
-405,525	665,865	0,030	-0,056
-404,511	800,000	-0,054	-0,162
-403,496	-200,000	-0,039	-0,155
-402,482	135,496	-0,073	-0,069
-401,467	-114,680	0,134	0,018
-400,452	377,490	-0,044	0,065
-399,438	-12,604	0,101	-0,048
-398,423	-114,843	-0,058	-0,008
-397,409	240,118	0,086	-0,104
-396,394	800,000	0,014	-0,040
-395,379	54,711	0,052	-0,036
-394,365	-84,237	0,156	0,036
-393,350	40,838	0,013	-0,008
-392,336	-200,000	-0,005	0,037
-391,321	274,655	-0,054	-0,069
-390,306	105,835	0,052	-0,045
-389,292	800,000	-0,064	-0,172
-388,277	14,599	0,014	0,008
-387,263	800,000	0,003	0,008
-386,248	-15,397	0,172	0,079
-385,233	800,000	-0,009	-0,020
-384,219	-200,000	0,015	0,101
-383,204	-52,045	-0,065	0,022
-382,190	314,739	0,003	0,004
-381,175	-8,702	0,153	0,074
-380,160	800,000	-0,026	-0,055
-379,146	25,867	0,059	0,035
-378,131	-23,614	-0,104	-0,045
-377,117	39,660	0,075	0,049
-376,102	-56,849	0,056	0,018
-375,088	-200,000	-0,009	-0,029
-374,073	-138,411	-0,048	-0,004
-373,058	263,354	-0,024	0,031
-372,044	-200,000	-0,000	0,028
-371,029	97,681	-0,044	0,037
-370,015	438,610	-0,079	-0,125
-369,000	1,802	-0,121	0,063
-367,985	-200,000	-0,011	-0,068
-366,971	196,438	0,075	0,083
-365,956	97,272	0,220	0,183
-364,942	624,981	-0,078	0,144
-363,927	-119,109	-0,020	-0,003
-362,912	800,000	-0,048	-0,108
-361,898	-200,000	0,003	0,021
-360,883	19,128	-0,054	0,031
-359,869	-200,000	-0,008	0,040
-358,854	-64,759	0,017	-0,005
-357,839	461,040	0,013	0,021
-356,825	227,671	0,065	0,077
-355,810	137,557	0,062	-0,059
-354,796	612,073	0,008	0,015
-353,781	-102,160	-0,065	0,011
-352,766	800,000	-0,019	-0,062
-351,752	-140,529	-0,163	-0,012
-350,737	-200,000	-0,027	0,128
-349,723	461,583	-0,075	0,123
-348,708	800,000	0,037	-0,075
-347,693	1,870	0,079	0,041
-346,679	562,148	-0,037	-0,066
-345,664	11,248	0,153	0,085
-344,650	-41,331	0,045	0,017
-343,635	-106,686	0,109	0,017
-342,620	-200,000	-0,028	0,095
-341,606	-1,660	0,035	0,018
-340,591	800,000	-0,022	0,064
-339,577	103,941	-0,086	-0,074
-338,562	-6,078	-0,095	-0,047
-337,548	-200,000	0,018	0,107
-336,533	-177,853	0,061	0,001
-335,518	-131,379	-0,014	-0,001
-334,504	161,150	0,114	0,115
-333,489	49,659	-0,093	-0,063
-332,475	403,220	0,022	0,033
-331,460	-49,302	-0,108	0,037
-330,445	260,747	0,034	0,043
-329,431	-200,000	-0,031	0,103
-328,416	-200,000	0,004	0,056
-327,402	639,139	0,043	0,079
-326,387	800,000	0,046	-0,130
-325,372	-29,538	-0,121	-0,050
-324,358	-91,070	-0,096	0,020
-323,343	132,306	0,048	-0,045
-322,329	-33,850	0,046	0,018
-321,314	-132,661	0,154	0,014
-320,299	-200,000	-0,005	-0,066
-319,285	-2,644	0,167	0,085
-318,270	-59,420	-0,071	-0,022
-317,256	27,138	-0,089	-0,054
-316,241	-200,000	-0,022	-0,092
-315,226	30,286	0,071	0,044
-314,212	-200,000	-0,006	0,020
-313,197	-74,577	0,099	0,026
-312,183	-200,000	-0,012	-0,045
-311,168	69,879	-0,019	0,014
-310,153	457,474	-0,034	0,055
-309,139	89,127	0,109	0,088
-308,124	38,073	0,132	-0,085
-307,110	-61,529	0,084	0,025
-306,095	-17,586	-0,042	-0,019
-305,080	-64,930	0,085	-0,025
-304,066	-132,811	-0,108	-0,010
-303,051	-200,000	-0,009	-0,092
-302,037	-5,812	0,089	-0,044
-301,022	32,649	0,052	0,032
-300,008	48,404	-0,132	-0,089
-298,993	280,300	0,070	0,091
-297,978	800,000	0,031	0,081
-296,964	-200,000	-0,000	-0,009
-295,949	307,859	0,076	-0,103
-294,935	50,181	-0,037	-0,025
-293,920	52,709	0,085	-0,059
-292,905	249,522	-0,034	0,041
-291,891	-27,462	0,115	0,048
-290,876	106,803	0,077	-0,066
-289,862	350,605	-0,018	0,026
-288,847	196,242	-0,060	0,066
-287,832	146,075	-0,055	-0,054
-286,818	-200,000	0,003	0,122
-285,803	-36,528	0,165	-0,064
-284,789	-81,480	0,102	0,024
-283,774	-200,000	-0,019	0,143
-282,759	-154,512	0,086	0,004
-281,745	-200,000	0,024	-0,138
-280,730	-111,231	-0,049	-0,007
-279,716	133,844	0,038	0,036
-278,701	-200,000	-0,000	-0,046
-277,686	-139,925	0,105	0,008
-276,672	-21,608	0,031	0,014
-275,657	800,000	-0,043	0,109
-274,643	-200,000	-0,030	-0,118
-273,628	-71,164	-0,203	-0,055
-272,613	-33,038	-0,054	-0,021
-271,599	87,433	0,078	-0,062
-270,584	800,000	-0,025	-0,061
-269,570	0,660	0,075	0,039
-268,555	370,241	-0,066	-0,097
-267,540	-16,779	0,072	-0,033
-266,526	478,878	-0,064	-0,105
-265,511	9,488	-0,057	-0,031
-264,497	71,576	0,084	0,063
-263,482	-200,000	-0,010	-0,050
-262,467	-200,000	0,004	0,100
-261,453	-69,837	0,020	-0,005
-260,438	-18,560	-0,174	0,078
-259,424	108,866	0,067	-0,058
-258,409	-200,000	0,001	-0,142
-257,395	-73,837	-0,095	-0,025
-256,380	-9,992	0,174	0,083
-255,365	-122,454	-0,058	0,007
-254,351	800,000	0,051	0,134
-253,336	-200,000	0,001	0,031
-252,322	152,036	-0,142	-0,140
-251,307	-200,000	0,019	-0,087
-250,292	-19,064	-0,042	-0,019
-249,278	-116,648	0,145	-0,019
-248,263	370,353	-0,032	0,047
-247,249	293,968	0,065	0,086
-246,234	211,659	0,104	-0,118
-245,219	-200,000	-0,030	-0,111
-244,205	-147,282	-0,066	-0,004
-243,190	-3,793	-0,025	-0,013
-242,176	-136,387	-0,087	-0,007
-241,161	48,953	0,100	-0,068
-240,146	242,998	-0,179	0,217
-239,132	-200,000	0,004	0,056
-238,117	-200,000	-0,001	-0,085
-237,103	800,000	0,020	-0,052
-236,088	-30,794	-0,113	-0,046
-235,073	-21,689	0,047	0,020
-234,059	233,712	-0,004	-0,005
-233,044	2,999	0,025	0,013
-232,030	118,897	0,063	-0,056
-231,015	-200,000	0,012	-0,097
-230,000	136,885	-0,041	0,039
-228,986	426,276	0,029	0,045
-227,971	800,000	0,058	0,159
-226,957	325,226	0,080	0,111
-225,942	-200,000	-0,044	0,183
-224,927	-114,814	-0,078	0,011
-223,913	505,375	-0,065	-0,109
-222,898	-35,115	0,096	-0,038
-221,884	690,338	-0,017	-0,032
-220,869	157,363	-0,031	0,031
-219,855	99,548	-0,092	0,077
-218,840	342,098	0,043	0,061
-217,825	403,963	0,100	0,153
-216,811	8,838	-0,077	0,042
-215,796	37,280	0,109	-0,069
-214,782	117,013	-0,037	-0,032
-213,767	-39,948	-0,042	0,016
-212,752	8,450	-0,067	-0,037
-211,738	-94,427	-0,045	0,009
-210,723	204,254	-0,054	-0,061
-209,709	160,379	-0,071	-0,071
-208,694	-200,000	0,130	-0,000
-207,679	-200,000	-0,011	0,120
-206,665	188,172	0,122	-0,131
-205,650	59,392	-0,091	-0,065
-204,636	-33,737	0,163	0,065
-203,621	-29,005	-0,102	-0,042
-202,606	9,402	0,054	-0,030
-201,592	322,143	0,044	0,060
-200,577	143,366	-0,048	-0,046
-199,563	-89,395	0,056	-0,012
-198,548	-73,405	-0,080	0,021
-197,533	-123,496	0,059	-0,007
-196,519	-41,284	-0,010	-0,004
-195,504	56,884	-0,138	-0,097
-194,490	-200,000	-0,005	-0,030
-193,475	51,404	0,059	-0,040
-192,460	116,400	-0,052	0,046
-191,446	800,000	0,007	-0,015
-190,431	-100,711	0,104	-0,018
-189,417	21,514	0,091	-0,053
-188,402	-200,000	-0,001	0,006
-187,387	-200,000	-0,018	-0,088
-186,373	-200,000	-0,005	-0,202
-185,358	-88,874	0,058	0,012
-184,344	218,158	0,043	0,050
-183,329	680,675	0,034	-0,064
-182,315	800,000	-0,031	-0,091
-181,300	-121,882	0,075	0,009
-180,285	-125,968	-0,154	-0,017
-179,271	33,869	-0,063	0,040
-178,256	-200,000	0,007	0,092
-177,242	-200,000	-0,011	0,069
-176,227	-200,000	-0,000	-0,124
-175,212	-200,000	0,023	0,076
-174,198	800,000	-0,015	0,042
-173,183	46,374	-0,070	0,046
-172,169	-200,000	-0,004	0,148
-171,154	510,072	-0,081	-0,136
-170,139	-200,000	0,008	0,083
-169,125	23,900	-0,155	0,092
-168,110	-35,754	-0,105	0,041
-167,096	-90,992	-0,052	-0,011
-166,081	-62,279	0,103	0,031
-165,066	8,294	-0,071	-0,038
-164,052	-200,000	-0,003	0,030
-163,037	-200,000	-0,017	-0,056
-162,023	70,109	0,104	0,077
-161,008	119,378	0,027	-0,024
-159,993	-200,000	0,020	0,139
-158,979	-109,768	-0,093	-0,014
-157,964	93,880	-0,081	-0,066
-156,950	-193,410	-0,103	0,001
-155,935	-70,246	0,145	0,039
-154,920	53,613	0,069	-0,048
-153,906	464,432	0,023	-0,037
-152,891	-200,000	-0,018	0,091
-151,877	46,763	0,106	-0,071
-150,862	800,000	0,043	-0,110
-149,847	-200,000	0,017	-0,115
-148,833	-200,000	-0,010	-0,092
-147,818	-200,000	0,007	-0,043
-146,804	-59,823	0,207	-0,063
-145,789	84,000	-0,066	-0,052
-144,775	294,358	0,012	0,016
-143,760	800,000	0,041	-0,090
-142,745	-105,103	0,015	-0,003
-141,731	-200,000	0,001	0,010
-140,716	389,810	0,086	-0,129
-139,702	-49,844	-0,109	0,037
-138,687	-76,206	0,120	-0,030
-137,672	181,644	0,055	0,058
-136,658	-200,000	-0,014	-0,075
-135,643	403,466	-0,095	-0,145
-134,629	-147,023	0,021	0,001
-133,614	270,733	0,035	0,045
-132,599	800,000	0,017	0,041
-131,585	221,537	-0,001	0,001
-130,570	626,534	0,020	0,037
-129,556	-83,814	-0,144	0,033
-128,541	419,998	-0,080	-0,124
-127,526	-200,000	0,047	-0,152
-126,512	136,296	-0,128	0,120
-125,497	479,541	0,069	0,113
-124,483	210,833	0,042	0,047
-123,468	-95,572	0,052	0,010
-122,453	-84,417	0,015	-0,003
-121,439	-200,000	0,011	-0,090
-120,424	49,917	0,129	0,088
-119,410	-200,000	-0,018	0,106
-118,395	-110,121	0,128	0,019
-117,380	0,368	0,043	0,022
-116,366	-200,000	0,034	0,124
-115,351	-40,122	-0,035	0,013
-114,337	179,513	-0,098	-0,103
-113,322	-22,018	-0,150	0,065
-112,307	232,134	-0,049	-0,058
-111,293	-178,944	0,125	-0,002
-110,278	250,634	-0,027	0,034
-109,264	543,604	-0,008	0,014
-108,249	-45,504	0,029	0,010
-107,234	260,363	-0,082	0,102
-106,220	-200,000	-0,004	0,054
-105,205	38,882	-0,016	0,010
-104,191	-200,000	-0,018	0,129
-103,176	-200,000	0,002	-0,015
-102,162	800,000	0,020	0,051
-101,147	-70,066	-0,073	-0,020
-100,132	-31,066	-0,086	0,035
-99,118	-200,000	0,020	0,091
-98,103	-200,000	0,001	0,076
-97,089	115,793	-0,131	0,115
-96,074	38,926	0,044	0,028
-95,059	-200,000	0,037	0,144
-94,045	-200,000	-0,003	-0,011
-93,030	580,059	0,028	0,049
-92,016	94,422	0,048	-0,039
-91,001	53,602	0,137	0,095
-89,986	-200,000	-0,014	0,162
-88,972	451,843	-0,051	0,082
-87,957	800,000	-0,048	0,097
-86,943	-127,698	0,033	-0,003
-85,928	-200,000	0,005	-0,085
-84,913	-47,580	0,041	-0,014
-83,899	-64,452	-0,100	0,029
-82,884	-79,516	-0,035	0,008
-81,870	14,501	0,175	0,098
-80,855	85,149	-0,099	-0,078
-79,840	64,296	0,068	0,049
-78,826	-114,472	-0,197	0,027
-77,811	-143,824	-0,010	-0,001
-76,797	-200,000	0,000	0,019
-75,782	800,000	-0,037	-0,110
-74,767	-102,444	-0,052	-0,009
-73,753	69,415	0,071	0,052
-72,738	-200,000	-0,018	0,104
-71,724	-139,078	-0,063	0,005
-70,709	14,093	0,084	-0,047
-69,694	-200,000	0,006	-0,027
-68,680	-200,000	0,014	0,124
-67,665	-165,735	0,043	-0,001
-66,651	325,458	0,064	0,088
-65,636	-200,000	-0,020	0,079
-64,622	-119,050	-0,013	-0,002
-63,607	198,296	0,050	0,055
-62,592	50,052	0,161	0,109
-61,578	-200,000	-0,023	-0,151
-60,563	-200,000	0,019	0,064
-59,549	-108,711	-0,081	0,012
-58,534	-5,719	-1,952	-0,957
-57,519	-200,000	-0,247	-0,909
-56,505	-200,000	-1,289	-4,819
-55,490	61,009	0,735	0,523
-54,476	800,000	5,158	11,960
-53,461	-200,000	17,400	283,550
-52,446	800,000	721,443	2220,381
-51,432	544,985	1634,786	2814,810
-50,417	112,482	1627,271	1413,301
-49,403	76,922	1284,519	978,119
-48,388	33,018	1028,035	638,025
-47,373	20,309	989,947	572,478
-46,359	18,747	978,120	560,491
-45,344	16,223	974,040	549,865
-44,330	16,344	972,828	549,558
-43,315	15,926	970,917	547,088
-42,300	15,876	969,680	546,207
-41,286	15,862	968,853	545,674
-40,271	15,856	967,821	545,051
-39,257	15,926	966,965	544,777
-38,242	15,871	966,165	544,126
-37,227	15,921	965,247	543,748
-36,213	15,851	964,504	543,082
-35,198	15,869	963,546	542,577
-34,184	15,904	962,826	542,265
-33,169	15,883	961,676	541,529
-32,154	15,886	960,762	541,003
-31,140	15,932	959,895	540,639
-30,125	15,931	959,271	540,265
-29,111	15,913	958,451	539,724
-28,096	15,901	957,903	539,354
-27,082	15,880	957,380	538,970
-26,067	15,874	956,545	538,461
-25,052	15,875	955,703	537,967
-24,038	15,855	954,919	537,442
-23,023	15,838	954,289	537,009
-22,009	15,898	953,589	536,788
-20,994	15,931	953,063	536,577
-19,979	15,875	952,466	536,041
-18,965	15,824	951,894	535,534
-17,950	15,908	951,279	535,433
-16,936	15,856	950,571	534,848
-15,921	15,834	949,889	534,371
-14,906	15,735	949,292	533,700
-13,892	15,755	948,668	533,392
-12,877	15,725	948,111	532,962
-11,863	15,739	947,261	532,507
-10,848	15,703	946,816	532,123
-9,833	15,826	946,430	532,276
-8,819	15,835	945,605	531,819
-7,804	15,800	944,910	531,294
-6,790	15,784	944,412	530,943
-5,775	15,804	943,941	530,720
-4,760	15,786	943,346	530,309
-3,746	15,769	942,861	529,960
-2,731	15,659	941,973	529,092
-1,717	15,582	941,448	528,532
-0,702	15,660	940,749	528,365
0,313	15,441	939,980	528,038
1,327	18,070	937,498	534,885
2,342	24,905	810,742	481,066
3,356	18,744	519,440	297,486
4,371	-2,526	394,740	197,620
5,386	-4,802	378,530	186,546
6,400	-6,194	372,427	181,751
7,415	-7,177	369,427	179,029
8,429	-7,516	367,807	177,801
9,444	-7,428	366,732	177,376
10,459	-7,782	365,928	176,528
11,473	-7,823	365,202	176,111
12,488	-7,761	364,632	175,898
13,502	-7,929	364,026	175,380
14,517	-8,243	363,275	174,614
15,531	-8,431	362,530	174,007
16,546	-8,570	362,124	173,624
17,561	-8,614	361,661	173,332
18,575	-8,635	361,341	173,137
19,590	-8,576	360,937	173,002
20,604	-8,391	360,392	172,952
21,619	-8,576	359,898	172,473
22,634	-8,637	359,705	172,290
23,648	-8,538	359,138	172,125
24,663	-8,677	358,991	171,868
25,677	-8,584	358,616	171,787
26,692	-8,544	358,487	171,759
27,707	-8,586	357,851	171,387
28,721	-8,626	357,726	171,264
29,736	-8,646	357,190	170,967
30,750	-8,636	356,967	170,857
31,765	-8,552	356,631	170,784
32,780	-8,679	356,438	170,522
33,794	-8,664	356,081	170,354
34,809	-8,584	355,732	170,269
35,823	-8,539	355,393	170,146
36,838	-8,678	355,141	169,842
37,853	-8,670	354,823	169,684
38,867	-8,601	354,454	169,576
39,882	-8,743	354,253	169,293
40,896	-8,553	353,829	169,305
41,911	-8,658	353,484	168,998
42,926	-8,790	353,365	168,767
43,940	-8,755	352,949	168,595
44,955	-8,906	352,907	168,378
45,969	-8,906	352,591	168,213
46,984	-8,845	352,137	168,055
47,999	-9,038	351,933	167,711
49,013	-9,013	351,615	167,574
50,028	-8,872	351,268	167,562
51,042	-8,943	351,127	167,396
52,057	-8,997	350,716	167,120
53,071	-8,883	350,526	167,150
54,086	-8,898	350,233	166,977
55,101	-9,008	349,913	166,679
56,115	-8,950	349,758	166,659
57,130	-8,626	349,488	166,902
58,144	-8,464	349,260	166,971
59,159	-8,529	349,009	166,758
60,174	-8,483	348,650	166,627
61,188	-8,445	348,433	166,553
62,203	-8,456	348,081	166,357
63,217	-8,408	347,719	166,226
64,232	-8,557	347,592	165,974
65,247	-8,326	347,420	166,151
66,261	-8,476	347,089	165,800
67,276	-8,666	346,577	165,317
68,290	-8,728	346,273	165,084
69,305	-8,733	346,145	165,002
70,320	-8,702	345,660	164,793
71,334	-8,670	345,517	164,748
72,349	-8,416	345,552	165,048
73,363	-8,464	345,090	164,756
74,378	-8,328	344,738	164,734
75,393	-8,410	344,377	164,450
76,407	-8,555	344,213	164,188
77,422	-8,515	343,828	164,036
78,436	-8,584	343,731	163,894
79,451	-8,315	343,274	163,976
80,466	-8,584	342,995	163,514
81,480	-8,662	342,710	163,273
82,495	-8,759	342,396	162,996
83,509	-8,943	342,428	162,782
84,524	-8,840	341,940	162,655
85,539	-8,690	341,575	162,642
86,553	-8,741	341,253	162,415
87,568	-8,862	341,277	162,271
88,582	-8,764	340,813	162,149
89,597	-8,830	340,628	161,970
90,611	-8,960	340,680	161,831
91,626	-8,529	340,171	162,073
92,641	-8,600	339,989	161,889
93,655	-8,753	339,712	161,566
94,670	-8,638	339,315	161,496
95,684	-8,731	339,230	161,334
96,699	-8,769	339,016	161,173
97,714	-8,852	338,688	160,908
98,728	-8,817	338,309	160,754
99,743	-8,881	338,194	160,611
100,757	-8,815	337,777	160,475
101,772	-8,790	337,623	160,416
102,787	-8,899	337,481	160,210
103,801	-8,654	337,187	160,335
104,816	-8,704	336,875	160,116
105,830	-8,597	336,683	160,133
106,845	-8,578	336,545	160,075
107,860	-8,596	336,370	159,956
108,874	-8,616	336,007	159,747
109,889	-8,720	335,819	159,525
110,903	-8,559	335,439	159,513
111,918	-8,717	335,282	159,245
112,933	-8,681	335,131	159,199
113,947	-8,689	334,864	159,050
114,962	-8,544	334,486	159,020
115,976	-8,709	334,321	158,740
116,991	-8,734	333,980	158,536
118,006	-8,554	333,655	158,571
119,020	-8,650	333,694	158,467
120,035	-8,488	333,547	158,566
121,049	-8,509	333,221	158,373
122,064	-8,688	333,103	158,101
123,079	-8,541	332,715	158,069
124,093	-8,618	332,333	157,786
125,108	-8,727	332,027	157,504
126,122	-8,801	331,899	157,346
127,137	-8,739	331,620	157,270
128,151	-8,730	331,281	157,105
129,166	-8,671	331,177	157,108
130,181	-8,781	330,924	156,850
131,195	-8,691	330,653	156,809
132,210	-8,807	330,524	156,604
133,224	-8,697	330,131	156,527
134,239	-8,667	330,014	156,491
135,254	-8,741	329,769	156,278
136,268	-8,548	329,455	156,331
137,283	-8,720	329,132	155,972
138,297	-8,672	328,870	155,887
139,312	-8,801	328,648	155,624
140,327	-8,486	328,379	155,833
141,341	-8,524	328,351	155,764
142,356	-8,380	328,243	155,859
143,370	-8,279	327,943	155,814
144,385	-8,228	327,680	155,732
145,400	-8,401	327,432	155,408
146,414	-8,353	327,300	155,385
147,429	-8,380	326,935	155,168
148,443	-8,281	326,784	155,191
149,458	-8,167	326,619	155,226
150,473	-8,239	326,386	155,022
151,487	-8,289	325,996	154,767
152,502	-8,316	325,829	154,645
153,516	-8,477	325,603	154,347
154,531	-8,401	325,444	154,341
155,546	-8,304	325,118	154,280
156,560	-8,551	325,028	153,951
157,575	-8,474	324,597	153,818
158,589	-8,348	324,516	153,904
159,604	-8,234	324,259	153,893
160,619	-8,249	323,963	153,723
161,633	-8,147	323,712	153,701
162,648	-8,360	323,652	153,426
163,662	-8,216	323,400	153,450
164,677	-8,491	323,178	153,032
165,692	-8,349	323,046	153,110
166,706	-8,319	322,899	153,060
167,721	-8,257	322,574	152,959
168,735	-8,108	322,440	153,044
169,750	-8,267	322,225	152,755
170,764	-8,141	322,029	152,786
171,779	-8,214	321,884	152,624
172,794	-8,164	321,414	152,443
173,808	-8,344	321,213	152,138
174,823	-8,595	320,786	151,651
175,837	-8,627	320,719	151,571
176,852	-8,370	320,589	151,774
177,867	-8,161	320,479	151,934
178,881	-8,350	320,354	151,658
179,896	-8,256	319,886	151,523
180,910	-8,234	319,774	151,480
181,925	-8,051	319,605	151,583
182,940	-8,187	319,432	151,342
183,954	-8,093	319,119	151,282
184,969	-8,210	319,017	151,094
185,983	-8,129	318,654	150,995
186,998	-8,141	318,373	150,836
188,013	-8,048	318,264	150,870
189,027	-8,145	318,119	150,684
190,042	-8,061	317,901	150,657
191,056	-7,959	317,742	150,678
192,071	-8,000	317,400	150,458
193,086	-7,853	317,285	150,547
194,100	-7,987	317,145	150,325
195,115	-8,136	316,732	149,957
196,129	-8,036	316,572	149,975
197,144	-7,894	316,235	149,952
198,159	-7,963	316,053	149,779
199,173	-7,953	315,963	149,734
200,188	-7,811	315,865	149,824
201,202	-8,110	315,458	149,301
202,217	-8,402	314,968	148,746
203,232	-8,519	314,783	148,522
204,246	-8,289	314,619	148,674
205,261	-8,130	314,649	148,844
206,275	-8,012	314,184	148,735
207,290	-7,998	314,062	148,679
208,304	-8,139	313,905	148,443
209,319	-8,115	313,710	148,362
210,334	-7,995	313,354	148,307
211,348	-8,200	313,354	148,078
212,363	-8,107	313,043	148,016
213,377	-8,191	312,897	147,845
214,392	-8,102	312,676	147,821
215,407	-8,435	312,317	147,288
216,421	-8,400	311,995	147,160
217,436	-8,374	311,848	147,105
218,450	-8,348	311,764	147,080
219,465	-8,228	311,442	147,041
220,480	-8,197	311,225	146,957
221,494	-8,312	311,136	146,782
222,509	-8,271	311,003	146,749
223,523	-8,213	310,888	146,742
224,538	-8,078	310,636	146,751
225,553	-7,945	310,471	146,798
226,567	-8,098	310,169	146,483
227,582	-7,843	309,953	146,633
228,596	-8,123	310,028	146,365
229,611	-8,061	309,649	146,237
230,626	-8,150	309,463	146,044
231,640	-8,254	308,960	145,685
232,655	-8,530	308,747	145,286
233,669	-8,627	308,552	145,081
234,684	-8,561	308,339	145,036
235,699	-8,419	308,185	145,097
236,713	-8,446	308,039	144,988
237,728	-8,438	307,852	144,896
238,742	-8,369	307,660	144,863
239,757	-8,247	307,498	144,900
240,772	-8,027	307,254	144,998
241,786	-8,282	307,054	144,628
242,801	-8,120	306,793	144,659
243,815	-8,195	306,787	144,566
244,830	-8,137	306,343	144,404
245,844	-8,239	306,265	144,250
246,859	-8,104	306,080	144,288
247,874	-8,007	305,869	144,275
248,888	-8,323	305,702	143,861
249,903	-8,007	305,638	144,140
250,917	-8,013	305,496	144,055
251,932	-7,634	305,393	144,380
252,947	-6,664	305,706	145,507
253,961	-6,434	305,469	145,617
254,976	-6,524	305,069	145,322
255,990	-6,959	304,853	144,763
257,005	-5,466	305,493	146,578
258,020	-2,612	306,504	149,972
259,034	-1,152	306,873	151,634
260,049	-0,563	306,949	152,260
261,063	0,010	306,972	152,844
262,078	0,107	306,845	152,866
263,093	-0,019	306,771	152,687
264,107	0,358	306,566	152,956
265,122	0,465	306,435	152,986
266,136	0,187	306,189	152,566
267,151	0,477	305,981	152,745
268,166	0,650	305,950	152,892
269,180	0,674	305,703	152,779
270,195	0,522	305,394	152,457
271,209	0,499	305,250	152,348
272,224	0,612	305,113	152,381
273,239	0,747	304,830	152,362
274,253	0,917	304,702	152,457
275,268	0,641	304,584	152,105
276,282	0,733	304,338	152,062
277,297	0,632	304,300	151,926
278,312	0,780	304,060	151,943
279,326	0,570	303,842	151,609
280,341	0,608	303,617	151,521
281,355	0,641	303,206	151,336
282,370	0,783	303,061	151,393
283,384	0,839	302,907	151,359
284,399	0,626	302,848	151,101
285,414	0,593	302,488	150,875
286,428	0,544	302,191	150,664
287,443	0,527	301,904	150,491
288,457	0,467	301,807	150,369
289,472	0,399	301,686	150,227
290,487	0,621	301,453	150,320
291,501	0,457	301,289	150,061
292,516	0,545	301,177	150,080
293,530	0,533	301,039	149,986
294,545	0,448	300,678	149,707
295,560	0,335	300,508	149,496
296,574	0,686	300,446	149,803
297,589	0,537	300,282	149,558
298,603	0,651	299,971	149,504
299,618	0,782	299,767	149,519
300,633	0,755	299,549	149,370
301,647	0,588	299,392	149,113
302,662	0,557	299,014	148,881
303,676	0,294	298,963	148,581
304,691	0,450	298,747	148,615
305,706	0,506	298,466	148,518
306,720	0,734	298,481	148,737
307,735	0,480	298,277	148,371
308,749	0,297	298,071	148,075
309,764	0,312	297,882	147,983
310,779	0,499	297,706	148,066
311,793	0,353	297,480	147,797
312,808	0,658	297,075	147,883
313,822	0,433	296,986	147,604
314,837	0,571	296,906	147,686
315,852	0,816	296,632	147,778
316,866	0,618	296,366	147,437
317,881	0,626	296,276	147,388
318,895	0,689	296,096	147,346
319,910	0,624	295,822	147,134
320,925	0,587	295,755	147,051
321,939	0,643	295,536	146,984
322,954	0,722	295,281	146,921
323,968	0,591	295,130	146,704
324,983	0,777	294,953	146,786
325,997	0,635	294,877	146,595
327,012	0,566	294,538	146,347
328,027	0,652	294,383	146,341
329,041	0,765	294,344	146,419
330,056	0,713	294,026	146,196
331,070	0,753	293,722	146,071
332,085	0,666	293,582	145,904
333,100	0,656	293,507	145,844
334,114	0,793	293,306	145,864
335,129	0,732	293,024	145,652
336,143	0,721	292,752	145,493
337,158	0,669	292,579	145,344
338,173	0,674	292,567	145,330
339,187	0,807	292,336	145,331
340,202	0,778	292,074	145,160
341,216	0,725	292,019	145,068
342,231	0,870	291,767	145,070
343,246	0,841	291,617	144,954
344,260	0,955	291,439	144,963
345,275	0,804	291,251	144,711
346,289	0,705	290,999	144,478
347,304	0,884	290,719	144,498
348,319	0,808	290,521	144,313
349,333	0,895	290,537	144,392
350,348	0,687	290,307	144,065
351,362	0,602	290,286	143,960
352,377	0,882	290,035	144,091
353,392	0,780	289,894	143,911
354,406	1,037	289,415	143,906
355,421	193,170	1325,303	1395,121
356,435	156,686	1451,485	1395,111
