DTS Sentinel unit serial number:	SN410029Multiplexer serial number:	ORYXHardware model number:	OX2-SRSoftware version number:	ORYX F/W v4,00 Oryx Data Collector v3.7.2.0data status	okinstallation	B4 Nyhavnadifferential loss correction	single-endedforward channel	channel 2reverse channel	N/Adate	2023/12/18time	20:05:13forward acquisition time	300,00reverse acquisition time	0,00gamma	499,1914k internal	0,3124k external	0,3124temperature offset calibration	1,0000default loss term (dB/km)	0,3820temperature slope calibration	1,0000multiplexer offset coefficient	1,0000multiplexer slope coefficient	1,0000fibre end	0,00T internal ref (°C)	21,88T ext. ref 1 (°C)	7,11T ext. ref 2 (°C)	7,09length (m)	temperature (°C)	Stokes	anti-Stokes-744,400	31,873	-0,011	-0,007
-743,385	-144,610	-0,378	0,026
-742,371	-2,004	0,070	0,037
-741,356	-200,000	-0,034	0,125
-740,342	800,000	-0,031	-0,068
-739,327	-12,753	-0,330	0,160
-738,312	800,000	-0,016	-0,048
-737,298	-83,283	-0,161	0,038
-736,283	74,721	0,074	0,058
-735,269	-190,027	-0,091	0,001
-734,254	-200,000	-0,027	-0,151
-733,239	-130,870	-0,417	-0,041
-732,225	34,846	0,161	-0,105
-731,210	367,446	-0,015	0,023
-730,196	-200,000	-0,003	0,021
-729,181	380,676	-0,046	-0,071
-728,167	-105,790	-0,103	-0,017
-727,152	17,460	-0,038	-0,023
-726,137	-105,526	-0,165	0,028
-725,123	-99,512	-0,067	0,012
-724,108	-50,579	0,095	0,033
-723,094	55,585	-0,080	0,058
-722,079	259,248	-0,023	-0,030
-721,064	332,720	-0,052	0,075
-720,050	-145,737	-0,066	0,004
-719,035	-43,401	0,076	0,028
-718,021	-200,000	-0,012	-0,068
-717,006	-53,966	-0,024	0,008
-715,991	-200,000	0,013	-0,166
-714,977	104,266	0,046	0,040
-713,962	-45,187	-0,088	0,032
-712,948	-200,000	0,021	0,113
-711,933	-200,000	0,002	-0,076
-710,918	-161,897	-0,164	-0,006
-709,904	526,613	-0,079	-0,140
-708,889	-200,000	0,008	0,049
-707,875	263,804	-0,063	-0,081
-706,860	29,564	0,081	-0,051
-705,845	54,901	-0,043	0,031
-704,831	0,476	0,064	0,034
-703,816	-200,000	-0,008	-0,083
-702,802	-41,906	0,094	-0,036
-701,787	-92,909	-0,184	-0,038
-700,772	58,385	-0,018	0,013
-699,758	526,088	0,019	0,034
-698,743	-200,000	-0,020	-0,146
-697,729	-200,000	0,014	0,072
-696,714	-153,018	0,069	0,004
-695,699	54,996	0,065	-0,047
-694,685	-200,000	-0,015	-0,061
-693,670	-156,602	-0,114	-0,005
-692,656	-64,986	0,052	-0,016
-691,641	-62,746	0,109	0,033
-690,627	345,529	0,033	-0,049
-689,612	798,966	0,029	0,059
-688,597	-148,784	-0,084	-0,005
-687,583	232,796	-0,111	-0,135
-686,568	-200,000	-0,003	-0,011
-685,554	-111,608	-0,095	0,014
-684,539	-106,145	0,023	0,004
-683,524	192,694	0,090	-0,101
-682,510	800,000	0,048	0,106
-681,495	319,253	0,019	-0,026
-680,481	-4,561	-0,095	0,049
-679,466	46,490	-0,064	0,044
-678,451	186,636	-0,109	0,121
-677,437	686,111	0,052	-0,101
-676,422	250,194	0,051	-0,064
-675,408	124,182	-0,057	-0,053
-674,393	237,417	-0,008	-0,010
-673,378	125,704	-0,107	-0,100
-672,364	800,000	-0,054	-0,154
-671,349	-200,000	0,003	-0,028
-670,335	800,000	0,059	0,130
-669,320	34,640	-0,107	-0,069
-668,305	343,505	-0,028	-0,041
-667,291	266,519	0,066	-0,086
-666,276	665,450	-0,047	0,090
-665,262	-200,000	0,014	0,081
-664,247	403,544	-0,044	-0,069
-663,232	180,634	0,027	0,029
-662,218	-200,000	-0,009	-0,035
-661,203	800,000	-0,033	0,083
-660,189	9,429	-0,071	-0,040
-659,174	-99,108	-0,096	0,018
-658,159	14,740	-0,070	-0,040
-657,145	-65,413	0,135	0,040
-656,130	322,280	-0,054	0,076
-655,116	-200,000	0,053	0,186
-654,101	42,983	0,045	-0,030
-653,086	-161,765	-0,052	0,002
-652,072	203,517	0,052	0,059
-651,057	-200,000	-0,027	-0,141
-650,043	-200,000	0,003	0,106
-649,028	85,711	0,034	0,027
-648,014	800,000	0,057	-0,139
-646,999	-57,906	0,107	0,034
-645,984	42,180	-0,074	-0,050
-644,970	-20,258	-0,096	0,044
-643,955	220,738	-0,046	0,055
-642,941	-33,743	-0,196	-0,080
-641,926	-21,752	0,047	-0,021
-640,911	-45,449	-0,071	-0,026
-639,897	75,275	0,140	-0,110
-638,882	-163,933	0,118	-0,004
-637,868	85,688	-0,037	-0,030
-636,853	-56,122	-0,093	-0,031
-635,838	800,000	-0,026	0,078
-634,824	-200,000	-0,012	0,166
-633,809	800,000	-0,026	-0,068
-632,795	-60,312	-0,061	0,019
-631,780	15,059	0,051	0,030
-630,765	-22,960	-0,109	0,048
-629,751	-200,000	0,002	0,144
-628,736	216,539	-0,095	-0,113
-627,722	-200,000	-0,002	0,050
-626,707	800,000	0,016	0,051
-625,692	-153,254	0,110	0,006
-624,678	-8,793	-0,021	0,010
-623,663	194,300	0,064	0,072
-622,649	-38,840	-0,062	0,024
-621,634	-137,487	-0,036	0,003
-620,619	93,349	-0,073	-0,061
-619,605	-36,648	0,027	-0,011
-618,590	-200,000	0,033	0,110
-617,576	-109,803	-0,169	0,026
-616,561	585,782	0,032	0,059
-615,546	74,189	-0,079	-0,061
-614,532	800,000	-0,062	-0,194
-613,517	-175,520	0,105	-0,002
-612,503	674,309	0,067	0,130
-611,488	7,925	-0,065	-0,036
-610,474	-98,343	0,170	0,032
-609,459	157,497	-0,023	0,024
-608,444	800,000	-0,056	-0,151
-607,430	-200,000	0,003	0,043
-606,415	24,305	0,054	0,033
-605,401	268,935	0,019	0,025
-604,386	23,127	0,037	0,022
-603,371	800,000	0,025	0,053
-602,357	-78,333	-0,071	0,018
-601,342	-156,823	0,178	0,008
-600,328	197,989	-0,066	-0,074
-599,313	302,052	0,075	-0,102
-598,298	200,684	0,064	0,073
-597,284	-200,000	-0,002	0,059
-596,269	766,679	0,019	0,038
-595,255	134,422	0,036	0,035
-594,240	-200,000	0,008	-0,115
-593,225	-185,211	-0,079	-0,001
-592,211	-43,612	-0,060	-0,022
-591,196	-200,000	-0,003	-0,084
-590,182	-37,784	-0,084	-0,033
-589,167	-107,109	-0,125	0,020
-588,152	268,223	0,116	0,151
-587,138	81,042	-0,093	-0,075
-586,123	-32,232	-0,136	0,056
-585,109	-45,279	0,018	-0,007
-584,094	800,000	-0,032	-0,094
-583,079	800,000	-0,019	-0,040
-582,065	-84,900	-0,086	-0,020
-581,050	-152,695	0,027	0,001
-580,036	50,212	0,053	-0,037
-579,021	-31,941	-0,078	0,032
-578,006	-200,000	-0,014	0,046
-576,992	67,787	0,030	0,022
-575,977	21,653	0,069	0,041
-574,963	-200,000	0,045	0,164
-573,948	24,813	-0,034	-0,021
-572,934	272,892	-0,026	0,034
-571,919	800,000	-0,054	-0,125
-570,904	-31,473	-0,165	0,068
-569,890	800,000	-0,005	0,013
-568,875	81,539	-0,019	0,015
-567,861	-77,314	0,088	-0,023
-566,846	-79,476	-0,069	-0,017
-565,831	361,262	0,022	0,033
-564,817	-169,793	0,020	0,001
-563,802	116,824	0,084	0,076
-562,788	101,437	0,070	0,061
-561,773	330,001	-0,034	-0,048
-560,758	644,707	-0,046	0,088
-559,744	-200,000	0,000	0,047
-558,729	111,572	-0,053	0,048
-557,715	-200,000	0,029	-0,132
-556,700	-200,000	0,018	-0,164
-555,685	-63,971	-0,097	-0,029
-554,671	147,359	0,127	0,126
-553,656	197,600	-0,056	-0,064
-552,642	49,673	-0,069	0,048
-551,627	134,586	-0,021	0,020
-550,612	-200,000	-0,001	-0,166
-549,598	800,000	0,071	-0,170
-548,583	-200,000	0,009	-0,033
-547,569	-101,424	-0,077	0,014
-546,554	-200,000	-0,018	0,105
-545,539	-200,000	0,008	0,047
-544,525	-115,500	0,091	-0,013
-543,510	-135,030	-0,114	-0,010
-542,496	-74,356	-0,033	0,009
-541,481	-200,000	-0,027	-0,102
-540,466	1,339	-0,048	-0,025
-539,452	190,039	-0,143	0,159
-538,437	447,354	0,076	0,124
-537,423	38,507	0,069	0,045
-536,408	-200,000	-0,010	0,054
-535,393	800,000	-0,020	-0,049
-534,379	243,821	-0,015	0,018
-533,364	800,000	0,018	0,053
-532,350	190,524	0,033	0,036
-531,335	-48,850	0,059	0,021
-530,321	465,167	0,026	0,043
-529,306	800,000	-0,036	-0,074
-528,291	388,290	-0,010	0,016
-527,277	130,347	0,047	-0,045
-526,262	173,794	-0,022	0,023
-525,248	208,168	-0,018	-0,021
-524,233	-200,000	0,011	0,049
-523,218	800,000	-0,024	0,055
-522,204	417,024	-0,041	0,066
-521,189	-174,586	0,052	0,001
-520,175	198,585	-0,007	-0,007
-519,160	-200,000	-0,013	-0,073
-518,145	-43,781	0,062	0,023
-517,131	4,353	0,133	0,072
-516,116	52,613	-0,081	-0,057
-515,102	-200,000	0,017	-0,057
-514,087	-72,421	-0,153	-0,042
-513,072	-151,787	0,042	0,002
-512,058	4,068	0,076	-0,041
-511,043	338,387	0,070	-0,101
-510,029	20,537	-0,036	0,021
-509,014	31,318	0,045	0,029
-507,999	-200,000	0,025	0,088
-506,985	-111,922	-0,056	-0,008
-505,970	78,659	-0,057	-0,045
-504,956	-103,231	-0,118	-0,020
-503,941	225,817	0,045	-0,054
-502,926	-10,581	0,188	0,092
-501,912	87,942	0,055	0,045
-500,897	256,362	0,055	-0,070
-499,883	800,000	-0,031	0,084
-498,868	-8,394	0,033	-0,016
-497,853	199,706	-0,017	0,019
-496,839	-10,163	0,025	0,012
-495,824	-115,673	0,075	0,010
-494,810	-200,000	-0,027	0,096
-493,795	800,000	0,008	-0,020
-492,781	-140,902	-0,065	0,005
-491,766	-80,128	-0,103	0,025
-490,751	-35,361	0,076	-0,030
-489,737	-2,545	-0,048	-0,025
-488,722	-132,647	-0,125	-0,012
-487,708	800,000	0,038	0,087
-486,693	-173,525	-0,070	-0,002
-485,678	16,748	0,044	-0,025
-484,664	41,161	0,078	-0,052
-483,649	800,000	-0,016	-0,034
-482,635	-5,365	-0,026	-0,013
-481,620	-29,672	0,049	0,020
-480,605	-28,660	0,090	-0,038
-479,591	800,000	-0,035	0,082
-478,576	241,578	-0,145	-0,179
-477,562	139,926	-0,048	0,047
-476,547	-29,140	-0,115	-0,048
-475,532	279,523	-0,033	0,044
-474,518	717,642	-0,037	0,073
-473,503	319,765	-0,020	0,028
-472,489	130,039	-0,063	0,059
-471,474	-26,586	-0,032	0,014
-470,459	569,123	-0,068	-0,122
-469,445	-66,432	0,109	-0,032
-468,430	184,689	0,064	-0,070
-467,416	-200,000	-0,046	0,000
-466,401	-47,213	0,027	-0,010
-465,386	562,446	0,100	0,179
-464,372	800,000	0,045	-0,135
-463,357	69,950	-0,062	-0,047
-462,343	-200,000	-0,013	0,115
-461,328	800,000	0,052	-0,130
-460,313	-72,801	-0,088	0,024
-459,299	800,000	-0,077	0,162
-458,284	56,631	0,025	0,018
-457,270	-153,347	-0,084	-0,004
-456,255	-5,159	-0,066	0,034
-455,241	-200,000	0,012	-0,186
-454,226	-200,000	-0,015	-0,120
-453,211	43,895	0,044	0,030
-452,197	-38,420	-0,047	0,018
-451,182	126,620	0,008	0,008
-450,168	-133,938	-0,031	-0,003
-449,153	-200,000	-0,011	0,161
-448,138	361,518	-0,023	-0,034
-447,124	-82,738	0,142	-0,033
-446,109	454,302	-0,050	-0,081
-445,095	180,994	-0,053	-0,058
-444,080	-200,000	-0,025	0,119
-443,065	-85,870	-0,040	0,009
-442,051	294,361	0,060	0,080
-441,036	-200,000	0,005	0,085
-440,022	800,000	-0,021	0,048
-439,007	800,000	-0,036	0,104
-437,992	800,000	0,049	0,143
-436,978	-103,690	0,128	-0,022
-435,963	430,940	-0,024	-0,038
-434,949	-200,000	-0,036	-0,123
-433,934	792,471	0,050	-0,102
-432,919	158,988	-0,081	-0,083
-431,905	88,953	-0,053	0,043
-430,890	-200,000	0,040	-0,165
-429,876	-117,453	0,100	0,013
-428,861	800,000	-0,040	0,113
-427,846	-17,131	-0,017	0,008
-426,832	4,477	-0,065	-0,035
-425,817	72,662	-0,177	-0,136
-424,803	-200,000	0,005	-0,110
-423,788	127,952	-0,033	0,031
-422,773	800,000	0,025	0,055
-421,759	146,584	-0,077	0,076
-420,744	390,884	0,032	0,049
-419,730	23,082	-0,046	-0,028
-418,715	160,126	0,044	0,046
-417,701	63,100	-0,080	-0,059
-416,686	-31,605	-0,070	-0,029
-415,671	800,000	-0,005	0,014
-414,657	14,072	0,087	0,050
-413,642	-62,073	0,062	0,019
-412,628	197,581	-0,039	-0,044
-411,613	-28,770	-0,050	-0,021
-410,598	-25,635	-0,096	-0,042
-409,584	-154,013	-0,075	-0,004
-408,569	-186,794	0,034	-0,000
-407,555	-200,000	-0,010	0,065
-406,540	55,443	0,132	-0,094
-405,525	-200,000	0,034	0,139
-404,511	218,127	0,068	-0,080
-403,496	-12,220	-0,171	-0,082
-402,482	343,343	0,047	-0,068
-401,467	332,939	0,080	0,115
-400,452	-200,000	-0,006	0,021
-399,438	645,092	-0,014	-0,027
-398,423	-76,140	0,030	0,008
-397,409	-200,000	-0,007	0,145
-396,394	-200,000	-0,019	-0,148
-395,379	-73,660	0,095	-0,025
-394,365	-200,000	0,052	0,237
-393,350	168,711	-0,063	0,066
-392,336	-200,000	0,013	-0,166
-391,321	-200,000	-0,027	-0,110
-390,306	800,000	0,015	-0,034
-389,292	76,213	0,112	0,087
-388,277	-30,119	0,028	-0,012
-387,263	-200,000	-0,005	-0,180
-386,248	-200,000	-0,017	-0,102
-385,233	-115,375	-0,083	0,011
-384,219	-49,843	0,078	-0,027
-383,204	-200,000	-0,049	-0,209
-382,190	-4,413	-0,105	-0,053
-381,175	27,023	0,075	-0,046
-380,160	800,000	0,048	-0,153
-379,146	-118,975	0,137	0,017
-378,131	70,644	0,178	0,135
-377,117	105,782	0,046	-0,040
-376,102	800,000	-0,049	-0,154
-375,088	800,000	0,073	-0,169
-374,073	329,773	-0,059	0,084
-373,058	-68,491	0,169	-0,048
-372,044	-200,000	-0,005	-0,076
-371,029	-200,000	-0,033	0,133
-370,015	444,158	0,003	-0,005
-369,000	800,000	0,053	-0,113
-367,985	-165,747	0,125	0,004
-366,971	215,464	-0,075	0,088
-365,956	-103,854	0,077	-0,013
-364,942	161,042	-0,110	0,113
-363,927	83,694	-0,062	0,050
-362,912	62,190	-0,069	0,051
-361,898	-73,161	-0,091	-0,024
-360,883	-79,279	0,037	-0,009
-359,869	-139,887	-0,044	0,003
-358,854	238,964	-0,051	0,062
-357,839	482,607	0,089	0,149
-356,825	-111,711	0,028	-0,004
-355,810	-116,100	0,147	-0,020
-354,796	800,000	0,010	0,025
-353,781	-200,000	0,013	-0,075
-352,766	249,331	0,105	-0,131
-351,752	800,000	0,027	0,067
-350,737	-29,887	-0,091	-0,038
-349,723	366,426	-0,086	0,127
-348,708	-17,445	0,102	0,047
-347,693	-11,036	-0,026	0,012
-346,679	40,201	-0,024	0,016
-345,664	800,000	-0,069	-0,144
-344,650	-200,000	-0,009	0,079
-343,635	610,714	0,031	0,056
-342,620	-200,000	-0,030	0,121
-341,606	645,417	0,005	-0,010
-340,591	0,322	-0,035	-0,018
-339,577	-200,000	0,007	-0,086
-338,562	-200,000	-0,013	-0,061
-337,548	-120,688	-0,113	0,014
-336,533	65,287	-0,018	0,013
-335,518	-200,000	0,009	0,137
-334,504	-68,186	0,055	0,016
-333,489	433,348	0,048	-0,077
-332,475	270,449	-0,088	0,114
-331,460	188,479	-0,030	-0,033
-330,445	297,111	-0,044	-0,060
-329,431	-200,000	0,003	-0,083
-328,416	77,603	0,108	0,084
-327,402	-200,000	0,026	0,122
-326,387	-2,023	-0,065	0,033
-325,372	-97,983	-0,049	0,009
-324,358	-40,410	0,125	-0,047
-323,343	-200,000	-0,021	-0,093
-322,329	316,618	-0,049	0,068
-321,314	-9,303	0,124	-0,061
-320,299	-200,000	0,016	0,118
-319,285	-91,164	-0,086	0,018
-318,270	39,237	-0,097	0,064
-317,256	-200,000	-0,004	-0,013
-316,241	-200,000	-0,005	-0,082
-315,226	800,000	0,032	0,074
-314,212	-67,669	0,104	-0,030
-313,197	800,000	0,031	0,084
-312,183	800,000	0,084	0,206
-311,168	-200,000	-0,034	-0,122
-310,153	-200,000	-0,004	-0,184
-309,139	-144,416	-0,116	0,008
-308,124	87,695	0,038	0,031
-307,110	-66,209	0,093	0,027
-306,095	800,000	-0,016	0,040
-305,080	-200,000	0,088	-0,000
-304,066	152,308	-0,070	0,070
-303,051	115,836	-0,055	0,050
-302,037	144,248	0,036	-0,035
-301,022	159,721	0,062	0,063
-300,008	800,000	-0,046	0,103
-298,993	34,486	-0,093	0,059
-297,978	800,000	0,039	-0,101
-296,964	-11,529	-0,021	-0,010
-295,949	-200,000	-0,016	0,086
-294,935	800,000	-0,020	0,050
-293,920	-9,368	-0,100	0,049
-292,905	491,446	-0,025	-0,041
-291,891	150,909	0,068	0,067
-290,876	182,972	0,045	-0,049
-289,862	18,147	-0,079	-0,046
-288,847	482,864	0,090	-0,150
-287,832	-80,151	0,200	-0,049
-286,818	-62,910	-0,096	0,029
-285,803	775,411	-0,024	-0,048
-284,789	800,000	0,026	-0,069
-283,774	5,003	-0,103	-0,055
-282,759	-200,000	-0,000	0,090
-281,745	-46,518	-0,135	0,048
-280,730	100,314	0,088	-0,075
-279,716	-20,110	-0,072	-0,032
-278,701	-200,000	-0,015	0,067
-277,686	-200,000	-0,004	0,189
-276,672	-200,000	-0,017	0,138
-275,657	800,000	0,047	0,106
-274,643	317,591	-0,023	0,032
-273,628	250,506	0,034	0,042
-272,613	-80,905	-0,153	-0,037
-271,599	-152,993	0,070	-0,004
-270,584	-200,000	0,133	-0,000
-269,570	380,206	0,011	-0,017
-268,555	-200,000	0,014	-0,131
-267,540	800,000	-0,009	0,026
-266,526	-63,977	-0,074	-0,022
-265,511	-46,980	-0,020	-0,007
-264,497	-200,000	0,013	-0,078
-263,482	-160,177	0,158	-0,006
-262,467	-200,000	-0,029	-0,129
-261,453	800,000	0,011	-0,033
-260,438	72,411	0,011	0,008
-259,424	253,321	-0,026	-0,032
-258,409	451,583	-0,095	-0,154
-257,395	-200,000	0,021	-0,087
-256,380	-52,899	-0,114	-0,038
-255,365	800,000	-0,018	-0,049
-254,351	-101,832	0,085	0,015
-253,336	-34,959	-0,123	0,049
-252,322	59,395	-0,182	-0,131
-251,307	36,954	0,150	-0,097
-250,292	172,344	-0,095	-0,100
-249,278	-25,745	0,106	0,046
-248,263	525,878	-0,050	-0,086
-247,249	768,320	0,047	0,095
-246,234	-200,000	0,013	0,057
-245,219	800,000	0,017	-0,039
-244,205	-200,000	-0,010	0,044
-243,190	41,175	0,061	-0,040
-242,176	-86,869	0,040	0,009
-241,161	-200,000	0,029	0,117
-240,146	104,109	-0,060	-0,051
-239,132	-77,424	0,099	0,025
-238,117	-182,834	-0,052	-0,001
-237,103	800,000	-0,021	0,046
-236,088	-94,308	0,196	-0,039
-235,073	-200,000	-0,034	0,110
-234,059	-200,000	-0,037	0,163
-233,044	-95,776	-0,106	-0,020
-232,030	-154,769	0,086	0,004
-231,015	28,615	-0,103	-0,064
-230,000	-163,067	0,132	-0,005
-228,986	611,744	-0,045	0,082
-227,971	-25,254	-0,095	-0,041
-226,957	-40,726	0,084	-0,032
-225,942	497,627	0,042	0,070
-224,927	800,000	0,020	0,056
-223,913	-90,139	-0,089	0,019
-222,898	39,023	-0,096	-0,062
-221,884	237,047	-0,033	-0,040
-220,869	310,564	0,060	-0,082
-219,855	-57,126	0,049	0,016
-218,840	-59,334	0,031	-0,010
-217,825	800,000	0,036	0,096
-216,811	-200,000	0,008	-0,043
-215,796	560,790	0,033	-0,058
-214,782	639,774	-0,022	-0,041
-213,767	-56,530	0,144	-0,046
-212,752	-179,018	0,135	-0,002
-211,738	800,000	-0,029	-0,088
-210,723	10,407	-0,081	0,045
-209,709	190,728	0,043	-0,047
-208,694	-200,000	0,005	-0,041
-207,679	-127,418	-0,106	0,011
-206,665	41,534	0,054	0,036
-205,650	238,290	0,049	0,059
-204,636	-72,110	-0,050	0,013
-203,621	-200,000	0,017	0,080
-202,606	63,843	0,048	0,035
-201,592	-93,190	-0,044	0,009
-200,577	-32,217	0,081	-0,033
-199,563	-200,000	-0,011	0,080
-198,548	800,000	0,031	0,063
-197,533	-62,010	0,022	-0,007
-196,519	-75,575	0,042	0,011
-195,504	89,821	-0,127	0,104
-194,490	355,089	0,102	0,148
-193,475	-200,000	-0,005	-0,033
-192,460	12,778	-0,051	-0,029
-191,446	498,678	0,038	-0,064
-190,431	800,000	-0,036	-0,086
-189,417	131,897	0,133	0,124
-188,402	-51,320	0,089	-0,030
-187,387	-61,740	-0,117	-0,036
-186,373	800,000	0,038	-0,098
-185,358	-23,652	0,094	0,041
-184,344	433,045	0,002	0,003
-183,329	103,515	0,084	-0,072
-182,315	12,588	0,072	0,040
-181,300	381,658	-0,031	-0,047
-180,285	448,041	-0,103	-0,166
-179,271	-200,000	0,011	-0,078
-178,256	204,203	0,113	0,127
-177,242	7,791	0,135	-0,074
-176,227	166,039	0,088	-0,091
-175,212	216,451	-0,058	0,067
-174,198	217,754	0,072	0,084
-173,183	-62,783	-0,102	-0,031
-172,169	800,000	-0,077	-0,174
-171,154	32,426	-0,058	0,036
-170,139	197,270	0,076	-0,084
-169,125	161,241	-0,026	0,027
-168,110	-200,000	0,020	0,123
-167,096	574,678	-0,096	0,171
-166,081	-29,693	-0,177	0,073
-165,066	-200,000	0,006	-0,045
-164,052	-200,000	0,003	-0,201
-163,037	-126,336	0,023	0,002
-162,023	-125,902	0,144	0,016
-161,008	80,057	0,139	0,108
-159,993	196,587	0,046	-0,051
-158,979	-200,000	0,005	-0,022
-157,964	-200,000	0,013	-0,049
-156,950	-200,000	-0,013	-0,103
-155,935	574,671	0,085	0,152
-154,920	-200,000	-0,011	0,082
-153,906	-100,675	0,124	0,022
-152,891	800,000	-0,043	-0,096
-151,877	-200,000	0,025	0,146
-150,862	-36,253	-0,099	0,039
-149,847	-200,000	0,008	-0,065
-148,833	800,000	-0,034	0,097
-147,818	-46,863	0,065	0,023
-146,804	34,787	-0,110	0,070
-145,789	-130,741	0,038	-0,004
-144,775	4,087	-0,035	-0,019
-143,760	-69,801	-0,104	0,029
-142,745	-200,000	0,006	0,119
-141,731	-145,707	0,138	-0,009
-140,716	-200,000	-0,005	0,085
-139,702	-134,122	-0,093	-0,008
-138,687	38,096	0,031	0,020
-137,672	-34,769	-0,049	0,019
-136,658	-200,000	-0,018	0,073
-135,643	-200,000	-0,011	-0,055
-134,629	800,000	0,027	-0,065
-133,614	-200,000	-0,013	0,044
-132,599	241,349	0,066	0,080
-131,585	258,709	-0,027	0,034
-130,570	-1,958	0,051	-0,026
-129,556	-70,623	0,028	-0,008
-128,541	800,000	0,039	-0,080
-127,526	-110,657	-0,024	0,004
-126,512	-94,527	-0,079	-0,016
-125,497	222,802	0,166	0,194
-124,483	800,000	0,037	0,115
-123,468	23,320	-0,063	-0,038
-122,453	290,229	0,051	0,067
-121,439	315,090	0,055	0,075
-120,424	261,392	-0,027	-0,034
-119,410	-200,000	0,025	0,192
-118,395	-133,777	-0,011	0,001
-117,380	129,809	-0,057	0,053
-116,366	144,166	0,126	0,122
-115,351	-103,717	-0,067	-0,011
-114,337	105,835	-0,067	0,057
-113,322	58,443	-0,117	-0,083
-112,307	-136,206	-0,075	0,006
-111,293	191,466	0,011	-0,012
-110,278	800,000	-0,059	0,150
-109,264	-200,000	0,003	-0,024
-108,249	800,000	-0,032	0,069
-107,234	42,773	0,055	-0,036
-106,220	-200,000	0,016	0,051
-105,205	-200,000	0,021	0,124
-104,191	800,000	0,008	-0,020
-103,176	667,612	0,043	0,081
-102,162	800,000	0,032	0,074
-101,147	-18,384	-0,057	0,026
-100,132	51,237	-0,040	0,028
-99,118	-6,242	0,022	-0,011
-98,103	51,147	0,021	0,015
-97,089	-200,000	-0,006	0,108
-96,074	76,221	0,030	0,023
-95,059	35,864	0,155	0,099
-94,045	-122,565	-0,085	0,010
-93,030	708,355	0,039	0,075
-92,016	800,000	-0,065	0,163
-91,001	-113,038	0,055	-0,008
-89,986	-72,256	-0,044	-0,012
-88,972	-146,363	0,045	0,003
-87,957	-200,000	-0,017	0,098
-86,943	10,037	0,058	-0,032
-85,928	-89,006	-0,072	0,015
-84,913	-200,000	0,013	0,084
-83,899	-145,169	0,172	-0,011
-82,884	-85,238	-0,095	0,021
-81,870	800,000	0,012	0,027
-80,855	251,917	-0,020	-0,025
-79,840	156,683	0,094	-0,094
-78,826	-105,991	0,117	0,019
-77,811	122,072	-0,047	-0,043
-76,797	-200,000	0,013	0,069
-75,782	727,633	0,056	-0,109
-74,767	-200,000	-0,012	0,066
-73,753	319,482	-0,044	0,060
-72,738	-48,999	0,154	-0,053
-71,724	-6,645	-0,084	-0,041
-70,709	-200,000	0,004	-0,053
-69,694	16,815	0,122	0,070
-68,680	328,589	0,072	0,100
-67,665	-35,700	0,116	0,045
-66,651	-12,550	-0,055	-0,026
-65,636	-33,442	0,050	0,020
-64,622	103,138	0,095	0,081
-63,607	-39,470	0,084	0,032
-62,592	800,000	-0,007	0,022
-61,578	-11,817	0,109	-0,052
-60,563	29,738	-0,076	0,047
-59,549	58,276	-0,033	-0,024
-58,534	-145,697	-1,448	-0,092
-57,519	657,884	-0,750	-1,405
-56,505	-200,000	-0,849	-4,358
-55,490	-41,489	0,499	-0,185
-54,476	800,000	4,986	11,800
-53,461	-200,000	14,020	254,449
-52,446	-200,000	693,803	2263,074
-51,432	600,089	1624,088	2936,550
-50,417	117,794	1633,562	1459,043
-49,403	73,579	1287,520	977,134
-48,388	37,419	1023,644	656,947
-47,373	23,914	981,961	585,767
-46,359	23,210	971,444	577,160
-45,344	22,158	967,170	571,161
-44,330	22,129	965,807	570,240
-43,315	21,927	964,256	568,641
-42,300	21,911	963,198	567,943
-41,286	21,913	962,247	567,367
-40,271	21,945	961,163	566,810
-39,257	21,932	960,323	566,248
-38,242	21,909	959,334	565,568
-37,227	21,923	958,658	565,194
-36,213	21,806	957,814	564,295
-35,198	21,843	956,843	563,819
-34,184	21,881	956,210	563,548
-33,169	21,902	955,280	563,045
-32,154	21,965	954,295	562,645
-31,140	21,910	953,438	561,940
-30,125	21,949	952,678	561,593
-29,111	21,956	951,751	561,049
-28,096	21,904	951,300	560,592
-27,082	21,908	950,462	560,091
-26,067	21,960	949,726	559,799
-25,052	21,930	948,993	559,250
-24,038	21,887	948,593	558,855
-23,023	21,891	947,740	558,344
-22,009	21,961	947,096	558,164
-20,994	21,924	946,444	557,640
-19,979	21,892	945,906	557,198
-18,965	21,889	945,204	556,755
-17,950	21,918	944,553	556,441
-16,936	21,873	943,859	555,867
-15,921	21,836	943,112	555,287
-14,906	21,749	942,507	554,631
-13,892	21,823	941,770	554,411
-12,877	21,852	941,149	554,117
-11,863	21,741	940,574	553,403
-10,848	21,787	940,108	553,252
-9,833	21,958	939,456	553,390
-8,819	21,879	939,034	552,867
-7,804	21,797	938,234	552,117
-6,790	21,821	937,669	551,838
-5,775	21,866	936,992	551,560
-4,760	21,853	936,356	551,122
-3,746	21,805	935,869	550,661
-2,731	21,631	935,172	549,680
-1,717	21,598	934,487	549,153
-0,702	21,645	933,692	548,812
0,313	21,404	933,126	548,546
1,327	23,871	930,916	554,956
2,342	31,374	809,251	502,778
3,356	26,046	509,869	307,635
4,371	1,802	374,664	195,114
5,386	-1,267	357,695	182,482
6,400	-2,275	351,750	178,211
7,415	-2,564	349,017	176,463
8,429	-2,402	347,672	175,962
9,444	-2,507	346,863	175,411
10,459	-2,391	345,993	175,093
11,473	-2,420	345,465	174,777
12,488	-2,503	344,906	174,379
13,502	-2,549	344,364	174,035
14,517	-2,602	343,862	173,704
15,531	-2,312	343,258	173,726
16,546	-2,380	342,902	173,449
17,561	-2,374	342,623	173,299
18,575	-2,373	342,259	173,101
19,590	-2,426	341,634	172,707
20,604	-2,210	341,483	172,870
21,619	-2,244	340,888	172,513
22,634	-2,493	340,774	172,148
23,648	-2,364	340,291	172,041
24,663	-2,280	340,095	172,024
25,677	-2,234	339,625	171,825
26,692	-2,385	339,439	171,539
27,707	-2,299	339,094	171,450
28,721	-2,466	339,004	171,194
29,736	-2,337	338,606	171,128
30,750	-2,437	338,262	170,822
31,765	-2,263	337,977	170,865
32,780	-2,334	337,661	170,608
33,794	-2,312	337,290	170,431
34,809	-2,460	337,080	170,138
35,823	-2,254	336,709	170,174
36,838	-2,276	336,374	169,965
37,853	-2,448	336,293	169,709
38,867	-2,397	335,915	169,562
39,882	-2,357	335,717	169,493
40,896	-2,387	335,443	169,306
41,911	-2,174	335,147	169,387
42,926	-2,398	334,845	168,961
43,940	-2,381	334,578	168,830
44,955	-2,395	334,461	168,740
45,969	-2,410	334,187	168,570
46,984	-2,381	333,808	168,397
47,999	-2,330	333,662	168,367
49,013	-2,436	333,362	168,079
50,028	-2,453	332,986	167,855
51,042	-2,504	332,752	167,664
52,057	-2,553	332,472	167,452
53,071	-2,580	332,319	167,330
54,086	-2,513	332,045	167,252
55,101	-2,364	331,794	167,281
56,115	-2,359	331,416	167,080
57,130	-2,319	331,274	167,040
58,144	-2,263	330,900	166,900
59,159	-2,402	330,764	166,659
60,174	-2,287	330,387	166,585
61,188	-2,443	330,348	166,374
62,203	-2,357	329,761	166,160
63,217	-2,378	329,731	166,107
64,232	-2,555	329,451	165,750
65,247	-2,484	329,202	165,691
66,261	-2,268	328,830	165,732
67,276	-2,374	328,628	165,496
68,290	-2,229	328,192	165,425
69,305	-2,537	328,167	165,051
70,320	-2,414	327,941	165,061
71,334	-2,293	327,484	164,952
72,349	-2,519	327,410	164,646
73,363	-2,358	327,031	164,622
74,378	-2,357	326,838	164,511
75,393	-2,270	326,468	164,407
76,407	-2,332	326,470	164,324
77,422	-2,367	326,133	164,100
78,436	-2,385	325,852	163,925
79,451	-2,294	325,585	163,877
80,466	-2,372	325,326	163,645
81,480	-2,335	325,020	163,519
82,495	-2,201	324,719	163,501
83,509	-2,328	324,683	163,328
84,524	-2,271	324,407	163,238
85,539	-2,222	324,081	163,113
86,553	-2,454	323,987	162,794
87,568	-2,390	323,667	162,689
88,582	-2,428	323,509	162,553
89,597	-2,330	323,133	162,458
90,611	-2,266	322,855	162,375
91,626	-2,383	322,840	162,223
92,641	-2,203	322,463	162,219
93,655	-2,400	322,468	161,989
94,670	-2,501	322,053	161,655
95,684	-2,196	321,698	161,797
96,699	-2,358	321,471	161,491
97,714	-2,446	321,356	161,322
98,728	-2,280	321,079	161,351
99,743	-2,399	320,818	161,075
100,757	-2,383	320,535	160,936
101,772	-2,255	320,401	160,995
102,787	-2,369	320,070	160,689
103,801	-2,397	319,934	160,575
104,816	-2,353	319,704	160,494
105,830	-2,370	319,462	160,340
106,845	-2,334	319,242	160,254
107,860	-2,321	319,095	160,180
108,874	-2,294	318,822	160,059
109,889	-2,283	318,354	159,822
110,903	-2,424	318,255	159,604
111,918	-2,249	318,029	159,667
112,933	-2,366	317,697	159,359
113,947	-2,413	317,611	159,251
114,962	-2,286	317,342	159,239
115,976	-2,414	317,104	158,966
116,991	-2,255	316,789	158,966
118,006	-2,380	316,717	158,781
119,020	-2,323	316,578	158,759
120,035	-2,281	316,264	158,633
121,049	-2,240	316,071	158,566
122,064	-2,426	315,902	158,267
123,079	-2,420	315,733	158,175
124,093	-2,394	315,430	158,037
125,108	-2,292	315,111	157,972
126,122	-2,423	315,050	157,787
127,137	-2,195	314,636	157,810
128,151	-2,202	314,419	157,679
129,166	-2,404	314,293	157,385
130,181	-2,308	314,022	157,339
131,195	-2,316	313,767	157,189
132,210	-2,355	313,605	157,051
133,224	-2,384	313,243	156,825
134,239	-2,467	313,127	156,665
135,254	-2,363	312,865	156,630
136,268	-2,195	312,552	156,638
137,283	-2,272	312,439	156,486
138,297	-2,461	312,306	156,204
139,312	-2,520	312,014	155,981
140,327	-2,385	311,813	156,011
141,341	-2,332	311,575	155,933
142,356	-2,244	311,337	155,893
143,370	-2,257	311,142	155,769
144,385	-2,282	310,970	155,643
145,400	-2,186	310,713	155,601
146,414	-2,312	310,427	155,311
147,429	-2,165	310,217	155,348
148,443	-2,192	309,927	155,160
149,458	-2,254	309,920	155,077
150,473	-2,263	309,671	154,929
151,487	-2,200	309,340	154,816
152,502	-2,174	309,198	154,758
153,516	-2,239	308,947	154,551
154,531	-2,292	308,873	154,444
155,546	-2,478	308,562	154,080
156,560	-2,283	308,286	154,133
157,575	-2,232	308,023	154,041
158,589	-2,282	307,859	153,893
159,604	-2,187	307,712	153,905
160,619	-2,231	307,383	153,680
161,633	-2,247	307,256	153,586
162,648	-2,199	307,075	153,533
163,662	-2,402	306,909	153,225
164,677	-2,300	306,700	153,212
165,692	-2,231	306,503	153,172
166,706	-2,216	306,147	152,997
167,721	-2,253	306,124	152,933
168,735	-2,125	305,839	152,910
169,750	-2,156	305,687	152,788
170,764	-2,374	305,574	152,491
171,779	-2,333	305,384	152,425
172,794	-2,204	305,084	152,396
173,808	-2,213	304,892	152,277
174,823	-2,264	304,634	152,082
175,837	-2,221	304,368	151,981
176,852	-2,380	304,274	151,756
177,867	-2,229	304,171	151,846
178,881	-2,318	303,874	151,593
179,896	-2,257	303,754	151,583
180,910	-2,350	303,457	151,325
181,925	-2,377	303,233	151,172
182,940	-2,196	302,923	151,190
183,954	-2,246	302,729	151,029
184,969	-2,225	302,601	150,973
185,983	-1,919	302,455	151,200
186,998	-2,258	302,338	150,780
188,013	-2,173	302,004	150,688
189,027	-2,151	301,845	150,617
190,042	-2,213	301,673	150,455
191,056	-2,377	301,545	150,210
192,071	-2,304	301,087	150,042
193,086	-2,336	300,921	149,914
194,100	-2,241	300,720	149,897
195,115	-2,232	300,544	149,806
196,129	-2,313	300,350	149,613
197,144	-2,182	300,041	149,579
198,159	-2,307	299,921	149,379
199,173	-2,257	299,708	149,309
200,188	-2,458	299,513	148,996
201,202	-2,164	299,112	149,080
202,217	-2,295	299,078	148,917
203,232	-2,415	298,879	148,684
204,246	-2,275	298,712	148,729
205,261	-2,208	298,419	148,637
206,275	-2,255	298,280	148,508
207,290	-2,202	298,066	148,441
208,304	-2,151	297,925	148,410
209,319	-2,149	297,677	148,275
210,334	-2,157	297,469	148,150
211,348	-2,312	297,473	147,983
212,363	-2,205	297,163	147,923
213,377	-2,119	296,923	147,876
214,392	-2,225	296,676	147,634
215,407	-2,264	296,581	147,534
216,421	-2,187	296,357	147,487
217,436	-2,141	295,999	147,342
218,450	-2,309	295,767	147,045
219,465	-2,214	295,727	147,107
220,480	-2,132	295,565	147,095
221,494	-2,229	295,401	146,903
222,509	-2,298	295,243	146,743
223,523	-2,185	294,859	146,652
224,538	-2,359	294,780	146,426
225,553	-2,270	294,543	146,384
226,567	-2,119	294,352	146,426
227,582	-2,095	294,185	146,354
228,596	-2,129	294,021	146,226
229,611	-2,098	293,754	146,110
230,626	-2,326	293,639	145,813
231,640	-2,057	293,301	145,900
232,655	-2,227	293,194	145,665
233,669	-2,464	293,186	145,413
234,684	-2,144	292,825	145,538
235,699	-2,061	292,651	145,521
236,713	-2,215	292,524	145,292
237,728	-2,067	292,177	145,252
238,742	-2,171	291,948	145,024
239,757	-2,167	291,798	144,940
240,772	-2,251	291,571	144,732
241,786	-2,189	291,496	144,742
242,801	-2,281	291,226	144,505
243,815	-2,154	290,978	144,493
244,830	-2,319	290,866	144,263
245,844	-2,191	290,748	144,317
246,859	-2,413	290,662	144,044
247,874	-2,316	290,318	143,956
248,888	-2,413	290,192	143,786
249,903	-2,266	289,971	143,807
250,917	-2,269	289,729	143,672
251,932	-2,346	289,529	143,484
252,947	-2,443	289,386	143,305
253,961	-2,953	288,986	142,598
254,976	-3,022	288,577	142,316
255,990	-3,062	288,371	142,163
257,005	-2,527	288,650	142,808
258,020	-0,407	289,392	145,231
259,034	1,299	289,720	147,045
260,049	1,850	289,645	147,531
261,063	2,209	289,724	147,908
262,078	2,321	289,691	147,987
263,093	2,733	289,546	148,300
264,107	2,781	289,367	148,242
265,122	3,218	289,400	148,670
266,136	3,195	289,255	148,560
267,151	3,267	289,056	148,514
268,166	3,227	288,903	148,384
269,180	3,346	288,571	148,316
270,195	3,290	288,427	148,174
271,209	3,226	288,303	148,034
272,224	3,079	288,070	147,760
273,239	2,941	287,783	147,467
274,253	2,943	287,580	147,351
275,268	2,981	287,461	147,314
276,282	2,747	287,322	147,004
277,297	2,815	287,023	146,903
278,312	2,848	286,894	146,856
279,326	2,976	286,720	146,876
280,341	2,966	286,481	146,732
281,355	2,935	286,285	146,588
282,370	2,872	286,165	146,454
283,384	2,924	285,980	146,396
284,399	3,158	285,637	146,431
285,414	2,916	285,520	146,127
286,428	2,832	285,341	145,941
287,443	2,800	285,190	145,821
288,457	2,806	284,986	145,709
289,472	2,655	284,756	145,434
290,487	2,779	284,518	145,418
291,501	2,815	284,322	145,339
292,516	2,809	284,186	145,252
293,530	2,683	284,109	145,079
294,545	2,642	283,873	144,906
295,560	2,736	283,790	144,940
296,574	2,566	283,633	144,686
297,589	2,589	283,325	144,537
298,603	2,687	282,947	144,424
299,618	2,519	282,970	144,265
300,633	2,712	282,657	144,275
301,647	2,755	282,615	144,281
302,662	2,806	282,497	144,256
303,676	2,967	282,242	144,265
304,691	2,928	282,094	144,140
305,706	2,988	281,953	144,112
306,720	3,014	281,798	144,044
307,735	3,212	281,537	144,084
308,749	3,034	281,418	143,843
309,764	3,034	281,168	143,702
310,779	3,010	281,023	143,593
311,793	3,022	280,758	143,456
312,808	3,057	280,507	143,347
313,822	2,932	280,453	143,190
314,837	2,862	280,313	143,041
315,852	2,870	280,228	142,991
316,866	2,709	280,062	142,743
317,881	3,041	279,692	142,852
318,895	2,840	279,468	142,538
319,910	2,711	279,334	142,336
320,925	2,822	279,093	142,304
321,939	2,839	279,002	142,261
322,954	3,086	278,964	142,459
323,968	3,080	278,641	142,276
324,983	3,056	278,620	142,230
325,997	3,117	278,290	142,106
327,012	3,009	278,204	141,949
328,027	3,221	277,853	141,954
329,041	3,165	277,835	141,880
330,056	2,902	277,669	141,538
331,070	3,064	277,510	141,595
332,085	2,986	277,297	141,402
333,100	3,096	277,072	141,376
334,114	2,968	276,975	141,195
335,129	2,991	276,676	141,052
336,143	3,051	276,559	141,034
337,158	3,310	276,366	141,163
338,173	3,038	276,327	140,879
339,187	3,018	276,049	140,706
340,202	3,029	275,770	140,562
341,216	2,971	275,654	140,437
342,231	2,944	275,474	140,308
343,246	3,073	275,330	140,341
344,260	3,220	275,178	140,385
345,275	3,127	275,077	140,236
346,289	3,208	274,813	140,163
347,304	3,260	274,583	140,081
348,319	2,989	274,487	139,771
349,333	2,868	274,278	139,542
350,348	3,089	274,121	139,651
351,362	3,109	273,909	139,549
352,377	3,026	273,845	139,428
353,392	3,013	273,617	139,288
354,406	2,966	273,556	139,202
355,421	191,666	1350,862	1431,929
356,435	154,765	1482,218	1432,065
