DTS Sentinel unit serial number:	SN410029Multiplexer serial number:	ORYXHardware model number:	OX2-SRSoftware version number:	ORYX F/W v4,00 Oryx Data Collector v3.7.2.0data status	okinstallation	B4 Nyhavnadifferential loss correction	single-endedforward channel	channel 2reverse channel	N/Adate	2023/12/18time	23:40:14forward acquisition time	300,00reverse acquisition time	0,00gamma	499,1914k internal	0,3124k external	0,3124temperature offset calibration	1,0000default loss term (dB/km)	0,3820temperature slope calibration	1,0000multiplexer offset coefficient	1,0000multiplexer slope coefficient	1,0000fibre end	0,00T internal ref (°C)	22,25T ext. ref 1 (°C)	7,63T ext. ref 2 (°C)	7,69length (m)	temperature (°C)	Stokes	anti-Stokes-744,400	-200,000	0,002	0,039
-743,385	-128,228	-0,382	0,040
-742,371	-169,916	0,116	-0,003
-741,356	-51,937	-0,249	0,086
-740,342	800,000	0,015	-0,046
-739,327	-21,912	-0,206	0,093
-738,312	93,668	-0,072	-0,061
-737,298	40,570	-0,264	0,177
-736,283	738,891	0,040	-0,079
-735,269	633,990	-0,099	0,188
-734,254	-85,217	0,026	0,006
-733,239	-25,977	-0,334	-0,146
-732,225	86,294	0,114	-0,094
-731,210	298,665	-0,070	0,096
-730,196	-95,002	-0,082	0,016
-729,181	800,000	-0,034	-0,086
-728,167	-200,000	0,003	-0,025
-727,152	-200,000	0,032	-0,104
-726,137	97,857	0,053	-0,046
-725,123	133,271	-0,068	-0,066
-724,108	661,930	-0,087	-0,167
-723,094	784,161	-0,032	-0,065
-722,079	-34,158	-0,137	-0,056
-721,064	-200,000	0,006	-0,077
-720,050	-123,064	-0,077	-0,009
-719,035	180,691	-0,039	-0,043
-718,021	14,157	-0,167	-0,096
-717,006	-9,294	-0,045	0,022
-715,991	-96,859	-0,193	0,037
-714,977	149,642	-0,051	0,052
-713,962	21,373	-0,076	0,046
-712,948	462,989	0,015	0,025
-711,933	-1,478	-0,141	0,074
-710,918	202,442	-0,038	-0,044
-709,904	448,976	-0,044	-0,072
-708,889	-200,000	-0,014	-0,130
-707,875	796,951	0,046	-0,096
-706,860	192,838	0,088	-0,099
-705,845	-192,856	-0,031	0,000
-704,831	-3,310	-0,063	0,032
-703,816	800,000	0,011	-0,027
-702,802	-16,044	-0,084	-0,040
-701,787	-116,246	-0,156	-0,021
-700,772	422,371	0,010	0,016
-699,758	-117,866	-0,134	0,018
-698,743	400,442	-0,058	0,091
-697,729	491,545	-0,029	0,050
-696,714	-90,880	-0,028	0,006
-695,699	368,273	-0,011	0,016
-694,685	-56,061	-0,032	-0,010
-693,670	407,360	-0,010	0,016
-692,656	226,870	-0,094	-0,113
-691,641	-200,000	0,009	-0,120
-690,627	487,477	0,076	-0,130
-689,612	326,126	0,056	-0,079
-688,597	25,406	-0,125	-0,077
-687,583	426,122	0,065	-0,104
-686,568	-139,305	-0,044	-0,003
-685,554	800,000	0,009	0,019
-684,539	-23,350	0,094	-0,042
-683,524	-123,295	-0,159	-0,019
-682,510	100,205	0,095	-0,082
-681,495	-66,772	0,057	-0,017
-680,481	287,641	-0,055	-0,074
-679,466	800,000	-0,020	-0,063
-678,451	-200,000	0,031	0,171
-677,437	517,819	-0,033	-0,057
-676,422	-52,356	0,076	-0,026
-675,408	-19,272	-0,038	0,017
-674,393	-200,000	-0,021	0,077
-673,378	-200,000	-0,024	-0,120
-672,364	-200,000	-0,007	-0,106
-671,349	800,000	-0,031	-0,088
-670,335	800,000	-0,024	-0,061
-669,320	377,031	-0,095	0,145
-668,305	800,000	0,057	-0,132
-667,291	10,454	-0,116	-0,065
-666,276	-120,982	0,043	-0,005
-665,262	62,944	-0,021	0,016
-664,247	251,023	-0,050	0,063
-663,232	628,894	-0,054	-0,102
-662,218	152,481	-0,053	0,054
-661,203	-30,400	-0,057	-0,024
-660,189	800,000	-0,045	-0,106
-659,174	208,339	0,044	-0,051
-658,159	16,401	0,030	-0,018
-657,145	405,728	-0,156	0,245
-656,130	-200,000	0,006	0,059
-655,116	-200,000	-0,009	0,097
-654,101	-4,848	0,008	0,004
-653,086	-200,000	0,021	0,128
-652,072	-16,567	-0,082	0,038
-651,057	146,529	-0,049	-0,049
-650,043	-128,311	-0,058	-0,006
-649,028	-166,235	-0,087	0,003
-648,014	765,110	0,032	0,066
-646,999	-200,000	0,001	0,201
-645,984	-18,642	0,023	-0,010
-644,970	-200,000	-0,003	-0,175
-643,955	-185,622	-0,039	0,000
-642,941	72,042	-0,155	-0,120
-641,926	800,000	-0,053	-0,111
-640,911	800,000	-0,022	0,063
-639,897	-200,000	0,012	-0,078
-638,882	-36,994	-0,132	0,052
-637,868	-79,860	0,050	-0,012
-636,853	-15,035	-0,109	-0,051
-635,838	-36,308	-0,129	-0,051
-634,824	-200,000	-0,027	0,090
-633,809	141,012	0,014	-0,014
-632,795	162,363	-0,078	0,081
-631,780	524,781	0,071	0,125
-630,765	82,119	-0,054	-0,044
-629,751	800,000	0,036	-0,081
-628,736	-140,421	-0,041	0,003
-627,722	58,533	0,007	0,005
-626,707	-200,000	-0,014	-0,261
-625,692	-200,000	-0,012	-0,081
-624,678	23,077	0,215	0,131
-623,663	-76,611	-0,038	-0,010
-622,649	-200,000	-0,028	-0,153
-621,634	-75,266	0,025	-0,006
-620,619	-96,541	0,083	-0,016
-619,605	800,000	0,047	0,143
-618,590	260,465	-0,102	-0,132
-617,576	469,966	0,083	0,139
-616,561	-200,000	-0,025	-0,095
-615,546	800,000	-0,063	-0,148
-614,532	-124,596	-0,051	-0,006
-613,517	29,216	-0,063	-0,039
-612,503	-200,000	-0,001	0,079
-611,488	198,151	-0,080	-0,090
-610,474	-200,000	0,009	0,051
-609,459	65,681	0,086	0,065
-608,444	-100,759	-0,060	-0,011
-607,430	136,619	0,045	-0,044
-606,415	26,922	-0,044	0,028
-605,401	-34,349	-0,078	0,032
-604,386	-152,862	0,113	-0,006
-603,371	-122,162	0,029	0,003
-602,357	-93,871	0,035	0,007
-601,342	369,965	0,054	-0,081
-600,328	349,436	-0,109	0,160
-599,313	-200,000	0,034	-0,126
-598,298	-67,502	0,080	-0,023
-597,284	294,360	0,051	0,069
-596,269	-200,000	0,003	-0,042
-595,255	800,000	0,075	0,185
-594,240	800,000	-0,037	-0,083
-593,225	-82,599	0,040	0,010
-592,211	-200,000	-0,002	-0,139
-591,196	-30,423	0,094	0,039
-590,182	-16,642	0,087	-0,041
-589,167	696,065	0,103	0,202
-588,152	800,000	-0,066	0,175
-587,138	-200,000	-0,025	0,102
-586,123	-200,000	0,000	0,022
-585,109	-27,889	-0,201	0,086
-584,094	368,985	0,081	-0,121
-583,079	348,043	0,098	-0,143
-582,065	559,921	0,028	0,049
-581,050	76,331	0,041	-0,032
-580,036	-36,173	-0,026	0,010
-579,021	-200,000	0,003	-0,045
-578,006	800,000	0,037	-0,086
-576,992	538,489	-0,089	-0,158
-575,977	434,690	0,027	0,044
-574,963	189,506	0,104	0,116
-573,948	107,820	-0,016	0,014
-572,934	-200,000	0,004	-0,091
-571,919	11,436	0,163	-0,092
-570,904	118,691	-0,120	-0,110
-569,890	215,418	0,066	-0,078
-568,875	41,287	0,082	-0,055
-567,861	-200,000	0,016	-0,102
-566,846	38,234	0,068	0,045
-565,831	-46,797	0,045	0,016
-564,817	-74,580	-0,099	0,026
-563,802	164,451	0,081	-0,085
-562,788	84,937	-0,108	0,088
-561,773	-198,580	0,083	-0,000
-560,758	140,126	0,075	0,073
-559,744	292,114	-0,039	-0,053
-558,729	12,022	-0,092	-0,052
-557,715	-200,000	0,005	0,024
-556,700	14,461	-0,128	0,074
-555,685	-65,280	-0,114	0,034
-554,671	12,790	-0,091	0,052
-553,656	-132,026	-0,037	0,004
-552,642	800,000	-0,037	-0,101
-551,627	800,000	-0,044	-0,099
-550,612	112,186	-0,017	0,015
-549,598	-98,731	-0,024	0,004
-548,583	-77,130	0,053	0,013
-547,569	-10,594	-0,087	-0,043
-546,554	-162,534	0,103	-0,004
-545,539	-142,204	0,039	-0,003
-544,525	-200,000	-0,031	0,124
-543,510	-26,421	0,084	-0,036
-542,496	1,373	-0,117	0,062
-541,481	-200,000	-0,020	-0,197
-540,466	-88,655	-0,026	-0,006
-539,452	200,022	0,063	0,072
-538,437	307,891	-0,095	0,131
-537,423	407,378	-0,045	-0,070
-536,408	-200,000	-0,007	-0,058
-535,393	319,608	0,032	-0,045
-534,379	18,623	0,020	0,012
-533,364	683,213	0,061	0,119
-532,350	-113,858	0,046	-0,007
-531,335	611,198	-0,036	0,067
-530,321	800,000	-0,050	0,117
-529,306	-200,000	0,011	-0,133
-528,291	-200,000	0,027	-0,188
-527,277	-200,000	-0,022	-0,074
-526,262	800,000	-0,059	-0,124
-525,248	-200,000	0,043	-0,147
-524,233	-200,000	-0,055	0,195
-523,218	-200,000	-0,005	-0,078
-522,204	95,013	0,065	0,054
-521,189	387,513	0,029	-0,044
-520,175	551,575	0,049	-0,088
-519,160	-69,594	-0,085	0,024
-518,145	800,000	-0,034	-0,071
-517,131	-165,377	-0,065	-0,002
-516,116	-200,000	-0,018	-0,109
-515,102	-125,097	0,058	-0,006
-514,087	-31,048	0,059	-0,024
-513,072	800,000	0,029	-0,088
-512,058	119,177	-0,121	-0,110
-511,043	72,597	-0,065	0,050
-510,029	748,828	0,010	0,020
-509,014	370,865	0,053	0,080
-507,999	-200,000	0,024	0,098
-506,985	-17,621	-0,118	-0,055
-505,970	-200,000	0,030	-0,159
-504,956	288,705	0,056	-0,075
-503,941	-158,853	-0,034	0,001
-502,926	509,284	0,034	0,059
-501,912	61,784	0,137	0,100
-500,897	299,403	0,016	-0,022
-499,883	23,928	-0,066	0,040
-498,868	-52,595	-0,136	-0,046
-497,853	-18,411	-0,100	0,046
-496,839	-76,269	0,144	0,037
-495,824	-200,000	0,020	-0,163
-494,810	800,000	0,043	0,104
-493,795	-61,655	0,024	-0,007
-492,781	-62,288	-0,078	-0,024
-491,766	800,000	0,019	0,055
-490,751	-200,000	-0,048	-0,160
-489,737	-98,903	0,103	0,019
-488,722	800,000	-0,035	0,075
-487,708	487,491	0,027	-0,046
-486,693	800,000	0,017	-0,046
-485,678	118,802	-0,065	0,060
-484,664	732,567	-0,033	0,065
-483,649	-4,147	-0,166	0,084
-482,635	382,936	0,030	-0,046
-481,620	14,314	-0,070	-0,040
-480,605	169,829	0,084	-0,089
-479,591	-56,011	0,024	-0,008
-478,576	-103,919	-0,034	0,006
-477,562	-75,201	0,045	0,012
-476,547	-61,149	-0,108	-0,033
-475,532	800,000	-0,042	-0,089
-474,518	21,721	-0,058	-0,035
-473,503	-200,000	0,011	0,160
-472,489	35,990	0,074	0,048
-471,474	-200,000	-0,021	-0,089
-470,459	-27,704	0,053	-0,023
-469,445	227,759	-0,045	0,054
-468,430	107,002	-0,038	-0,033
-467,416	-200,000	0,023	-0,075
-466,401	-136,213	0,128	0,011
-465,386	216,339	0,049	0,057
-464,372	-23,918	0,144	-0,063
-463,357	570,467	0,016	0,028
-462,343	386,418	-0,040	0,060
-461,328	-65,075	-0,087	-0,026
-460,313	82,223	0,024	0,019
-459,299	37,820	0,063	0,041
-458,284	-200,000	-0,004	0,071
-457,270	-55,752	0,059	0,019
-456,255	-200,000	-0,098	-0,000
-455,241	250,268	0,125	-0,157
-454,226	326,983	-0,070	-0,099
-453,211	-200,000	0,005	0,037
-452,197	63,154	0,095	0,070
-451,182	-200,000	0,003	0,055
-450,168	176,372	0,092	0,099
-449,153	800,000	-0,019	-0,047
-448,138	-14,143	-0,097	-0,046
-447,124	-120,626	0,087	-0,011
-446,109	-58,515	-0,149	0,047
-445,095	108,988	-0,055	-0,048
-444,080	800,000	0,008	0,021
-443,065	417,139	-0,027	-0,042
-442,051	372,143	-0,022	-0,032
-441,036	189,408	-0,122	-0,134
-440,022	800,000	-0,017	-0,039
-439,007	-42,932	0,076	0,028
-437,992	184,391	0,114	0,124
-436,978	-200,000	-0,016	-0,144
-435,963	-16,372	-0,053	0,025
-434,949	-200,000	0,006	0,067
-433,934	-200,000	-0,005	-0,037
-432,919	-200,000	-0,027	-0,117
-431,905	266,197	-0,053	0,068
-430,890	-108,185	0,042	-0,007
-429,876	601,727	-0,028	0,051
-428,861	355,297	0,033	-0,049
-427,846	-200,000	0,011	-0,162
-426,832	212,984	-0,056	-0,066
-425,817	-111,282	0,032	0,005
-424,803	141,620	-0,072	-0,071
-423,788	735,245	0,006	0,012
-422,773	-200,000	0,004	0,063
-421,759	-29,606	0,106	0,044
-420,744	-46,646	-0,056	0,020
-419,730	800,000	-0,059	-0,151
-418,715	800,000	0,013	-0,043
-417,701	-200,000	0,031	0,124
-416,686	-200,000	-0,000	-0,003
-415,671	-93,585	-0,092	-0,019
-414,657	286,433	0,050	0,066
-413,642	21,942	-0,050	0,030
-412,628	471,070	-0,067	0,112
-411,613	528,778	0,016	0,028
-410,598	239,779	-0,143	-0,176
-409,584	-115,509	0,055	-0,007
-408,569	-78,654	0,060	-0,015
-407,555	11,635	-0,023	0,013
-406,540	77,309	0,127	0,099
-405,525	191,251	-0,064	0,070
-404,511	800,000	-0,025	-0,076
-403,496	278,483	-0,042	-0,055
-402,482	-200,000	-0,018	0,139
-401,467	63,703	0,016	0,012
-400,452	454,006	-0,085	0,139
-399,438	207,691	-0,112	0,128
-398,423	503,655	0,042	-0,072
-397,409	-2,940	0,059	0,030
-396,394	-131,599	0,104	0,010
-395,379	202,568	0,115	0,131
-394,365	378,502	0,028	0,042
-393,350	-59,813	0,049	0,015
-392,336	-200,000	-0,018	-0,084
-391,321	24,530	-0,050	-0,030
-390,306	141,648	0,052	-0,050
-389,292	-164,708	-0,086	0,003
-388,277	412,554	-0,065	-0,102
-387,263	-96,953	-0,053	-0,010
-386,248	129,920	-0,095	-0,090
-385,233	800,000	-0,056	0,144
-384,219	344,091	0,007	-0,010
-383,204	-120,227	0,176	0,022
-382,190	-200,000	-0,001	-0,038
-381,175	-35,434	0,042	-0,017
-380,160	101,056	-0,113	-0,097
-379,146	506,095	0,018	-0,031
-378,131	47,660	0,102	0,070
-377,117	-200,000	-0,030	0,119
-376,102	-110,078	-0,097	-0,015
-375,088	800,000	-0,020	0,061
-374,073	225,575	0,130	0,155
-373,058	-200,000	0,030	0,100
-372,044	-19,772	0,070	-0,032
-371,029	56,273	0,080	-0,057
-370,015	-12,763	0,101	0,048
-369,000	-200,000	-0,002	0,052
-367,985	114,504	-0,067	-0,060
-366,971	-34,088	0,078	0,031
-365,956	800,000	0,014	0,040
-364,942	154,641	0,059	-0,060
-363,927	46,062	0,064	-0,043
-362,912	54,941	-0,047	-0,033
-361,898	-12,450	0,081	-0,039
-360,883	346,808	0,028	0,040
-359,869	26,160	-0,080	-0,049
-358,854	139,385	-0,080	-0,078
-357,839	-13,562	0,100	0,047
-356,825	90,419	0,027	0,022
-355,810	-3,024	-0,054	-0,027
-354,796	-118,697	-0,115	0,015
-353,781	-47,264	-0,044	0,016
-352,766	800,000	0,026	-0,080
-351,752	562,349	0,027	0,048
-350,737	-200,000	-0,015	-0,057
-349,723	800,000	-0,054	0,149
-348,708	118,724	0,051	0,046
-347,693	800,000	0,044	-0,094
-346,679	203,573	-0,050	0,057
-345,664	800,000	-0,022	-0,066
-344,650	-50,629	0,047	0,016
-343,635	87,218	-0,056	0,045
-342,620	-200,000	0,008	0,170
-341,606	800,000	0,029	0,086
-340,591	-88,461	-0,160	-0,035
-339,577	59,841	0,090	-0,065
-338,562	800,000	0,046	-0,100
-337,548	170,260	0,057	-0,060
-336,533	800,000	0,045	0,108
-335,518	278,895	-0,060	0,079
-334,504	776,108	-0,007	0,014
-333,489	-39,314	-0,163	0,062
-332,475	-200,000	-0,014	-0,083
-331,460	800,000	-0,051	-0,145
-330,445	87,378	0,033	0,027
-329,431	3,918	-0,163	-0,087
-328,416	800,000	0,026	0,075
-327,402	800,000	-0,020	0,065
-326,387	112,804	-0,049	-0,044
-325,372	643,537	0,017	-0,031
-324,358	-200,000	-0,003	-0,084
-323,343	-192,267	-0,127	0,001
-322,329	-200,000	-0,011	-0,047
-321,314	362,484	-0,033	0,048
-320,299	104,384	0,083	0,071
-319,285	-124,944	0,133	0,015
-318,270	800,000	-0,033	0,099
-317,256	-53,416	0,040	0,013
-316,241	800,000	0,006	0,020
-315,226	-65,987	0,207	-0,060
-314,212	296,589	0,082	-0,110
-313,197	130,019	0,058	0,055
-312,183	283,708	0,052	0,069
-311,168	-118,036	-0,179	-0,023
-310,153	-200,000	0,006	-0,121
-309,139	-200,000	-0,012	-0,143
-308,124	-200,000	-0,057	0,000
-307,110	-173,056	0,030	-0,001
-306,095	-95,801	0,127	-0,025
-305,080	169,797	0,042	0,044
-304,066	-1,591	-0,032	0,017
-303,051	19,483	-0,008	0,005
-302,037	32,625	0,087	0,055
-301,022	101,951	-0,083	0,071
-300,008	206,013	-0,083	0,095
-298,993	-98,271	-0,048	-0,009
-297,978	101,391	0,021	-0,018
-296,964	259,408	0,039	0,049
-295,949	-141,376	-0,112	-0,008
-294,935	208,541	-0,035	0,040
-293,920	420,939	-0,110	-0,174
-292,905	336,137	0,062	0,089
-291,891	-200,000	0,009	0,032
-290,876	117,269	-0,063	-0,057
-289,862	-95,467	0,059	-0,011
-288,847	-200,000	0,012	0,077
-287,832	102,300	-0,101	-0,086
-286,818	800,000	-0,015	-0,039
-285,803	109,477	0,086	-0,075
-284,789	-148,390	0,152	-0,009
-283,774	-200,000	0,005	0,074
-282,759	800,000	-0,009	0,027
-281,745	112,738	-0,058	-0,051
-280,730	-200,000	-0,007	-0,128
-279,716	-150,724	0,092	0,005
-278,701	142,465	-0,037	-0,036
-277,686	-200,000	0,023	0,093
-276,672	359,605	0,060	0,088
-275,657	-200,000	0,015	-0,101
-274,643	-51,211	0,076	-0,026
-273,628	-200,000	-0,005	0,022
-272,613	-106,338	-0,155	0,025
-271,599	-200,000	0,025	0,117
-270,584	107,627	-0,026	0,022
-269,570	-200,000	0,007	-0,023
-268,555	-27,269	-0,036	-0,015
-267,540	800,000	0,009	-0,027
-266,526	125,872	-0,091	-0,084
-265,511	800,000	-0,049	0,100
-264,497	188,003	0,094	0,102
-263,482	-200,000	-0,022	0,084
-262,467	-38,364	-0,107	0,041
-261,453	-53,274	0,094	-0,031
-260,438	-67,577	-0,101	0,029
-259,424	-12,295	0,027	-0,013
-258,409	-64,552	-0,007	-0,002
-257,395	-200,000	0,016	0,105
-256,380	800,000	0,034	0,071
-255,365	242,119	-0,030	-0,037
-254,351	800,000	0,029	-0,060
-253,336	274,855	-0,085	0,111
-252,322	-200,000	0,001	-0,141
-251,307	-99,668	0,091	-0,017
-250,292	255,358	0,035	0,044
-249,278	35,539	0,061	0,039
-248,263	-65,714	0,104	0,030
-247,249	-47,175	-0,030	0,011
-246,234	34,777	-0,010	-0,006
-245,219	7,809	0,030	-0,016
-244,205	-124,588	0,053	0,006
-243,190	221,253	-0,042	0,050
-242,176	-200,000	0,013	0,155
-241,161	117,382	-0,077	0,069
-240,146	92,142	-0,095	-0,078
-239,132	-200,000	0,014	0,079
-238,117	-27,475	-0,044	-0,019
-237,103	-94,054	-0,171	-0,034
-236,088	-173,774	0,010	0,000
-235,073	-99,965	-0,114	-0,021
-234,059	-95,414	0,024	-0,005
-233,044	-69,451	0,112	0,031
-232,030	-43,156	0,015	0,006
-231,015	104,094	-0,018	0,016
-230,000	-67,951	-0,044	0,013
-228,986	283,124	0,093	-0,122
-227,971	-38,269	-0,096	0,037
-226,957	-200,000	0,014	0,095
-225,942	19,581	0,132	0,077
-224,927	-43,037	0,125	-0,046
-223,913	-200,000	0,033	0,133
-222,898	800,000	0,044	0,126
-221,884	476,142	-0,053	-0,087
-220,869	-28,545	0,048	-0,020
-219,855	800,000	0,005	0,012
-218,840	27,012	0,073	0,045
-217,825	-200,000	-0,001	-0,135
-216,811	-200,000	0,013	-0,054
-215,796	-51,933	-0,074	-0,025
-214,782	-11,675	-0,072	-0,034
-213,767	-200,000	0,003	-0,059
-212,752	61,666	0,094	-0,068
-211,738	-21,416	0,134	0,059
-210,723	42,908	-0,096	-0,064
-209,709	118,506	-0,031	-0,028
-208,694	-200,000	-0,024	-0,207
-207,679	-158,235	-0,067	0,003
-206,665	-200,000	0,009	-0,100
-205,650	-185,015	-0,058	0,001
-204,636	-200,000	0,017	0,124
-203,621	61,036	0,065	0,047
-202,606	513,069	0,070	0,119
-201,592	800,000	0,063	-0,132
-200,577	240,949	0,071	0,087
-199,563	-200,000	0,022	0,072
-198,548	800,000	0,024	0,062
-197,533	89,788	0,077	-0,063
-196,519	79,439	-0,029	-0,023
-195,504	-148,444	-0,136	0,008
-194,490	-103,026	-0,097	-0,017
-193,475	467,400	-0,085	0,139
-192,460	-86,704	0,154	0,034
-191,446	343,816	-0,057	0,082
-190,431	-200,000	0,031	0,138
-189,417	-200,000	0,049	0,164
-188,402	116,334	0,006	-0,005
-187,387	59,686	0,089	0,064
-186,373	63,989	-0,144	-0,105
-185,358	42,601	0,189	0,125
-184,344	264,788	0,090	0,114
-183,329	-200,000	0,013	0,044
-182,315	125,263	-0,057	0,052
-181,300	512,854	-0,064	0,109
-180,285	-200,000	-0,003	-0,059
-179,271	800,000	-0,051	-0,109
-178,256	-74,357	-0,087	-0,023
-177,242	93,926	0,141	0,116
-176,227	-200,000	-0,002	-0,032
-175,212	17,803	-0,046	0,026
-174,198	591,676	0,032	-0,057
-173,183	-12,940	0,132	-0,063
-172,169	800,000	0,065	-0,132
-171,154	-200,000	-0,010	-0,049
-170,139	76,612	-0,026	0,020
-169,125	153,755	0,059	-0,059
-168,110	766,568	0,103	0,205
-167,096	-166,650	-0,095	-0,003
-166,081	50,432	-0,061	0,042
-165,066	800,000	0,011	0,023
-164,052	677,819	-0,033	0,062
-163,037	-26,994	0,069	0,029
-162,023	-155,157	-0,143	-0,007
-161,008	-75,093	0,049	-0,013
-159,993	249,949	0,057	0,071
-158,979	-200,000	0,029	-0,155
-157,964	209,059	-0,054	-0,062
-156,950	-69,313	0,035	0,010
-155,935	-160,161	0,028	-0,001
-154,920	800,000	0,026	-0,056
-153,906	-200,000	0,017	0,117
-152,891	800,000	0,044	0,101
-151,877	-200,000	0,006	0,031
-150,862	41,495	-0,099	-0,065
-149,847	-200,000	0,021	0,085
-148,833	800,000	-0,031	0,081
-147,818	71,938	-0,079	0,059
-146,804	-76,079	0,012	0,003
-145,789	165,943	0,056	-0,058
-144,775	-38,188	-0,049	-0,019
-143,760	-155,640	-0,075	0,003
-142,745	-200,000	0,006	-0,063
-141,731	140,293	-0,069	0,067
-140,716	800,000	-0,005	-0,015
-139,702	487,742	0,076	0,127
-138,687	-29,598	-0,093	0,039
-137,672	800,000	-0,039	0,099
-136,658	-200,000	-0,039	-0,128
-135,643	-9,564	0,066	0,032
-134,629	-145,479	0,057	0,004
-133,614	-88,522	-0,024	-0,005
-132,599	230,878	0,071	0,084
-131,585	800,000	0,076	0,163
-130,570	800,000	-0,035	0,080
-129,556	147,266	-0,081	0,080
-128,541	172,756	0,097	-0,102
-127,526	-18,705	-0,085	0,038
-126,512	-200,000	-0,029	-0,168
-125,497	800,000	-0,044	0,105
-124,483	188,185	0,103	0,112
-123,468	76,593	-0,071	0,055
-122,453	130,591	0,065	-0,060
-121,439	200,050	-0,055	-0,061
-120,424	62,401	0,049	-0,035
-119,410	74,526	0,086	-0,066
-118,395	-200,000	-0,005	0,060
-117,380	216,101	-0,053	0,061
-116,366	57,259	0,068	0,048
-115,351	253,883	0,125	-0,156
-114,337	112,888	0,043	-0,038
-113,322	22,350	-0,068	0,040
-112,307	285,260	-0,069	-0,091
-111,293	-200,000	0,018	0,063
-110,278	-200,000	0,040	0,000
-109,264	89,760	-0,088	-0,071
-108,249	148,911	-0,050	0,049
-107,234	-4,460	0,061	0,031
-106,220	800,000	-0,032	0,092
-105,205	193,589	0,059	0,064
-104,191	17,604	0,069	-0,040
-103,176	34,115	0,038	-0,024
-102,162	41,817	-0,056	-0,037
-101,147	-200,000	-0,031	0,119
-100,132	-94,268	0,066	-0,013
-99,118	94,249	0,071	0,058
-98,103	37,390	-0,061	-0,039
-97,089	-200,000	-0,004	0,036
-96,074	800,000	0,053	0,135
-95,059	722,602	-0,027	0,052
-94,045	-20,147	0,081	-0,036
-93,030	127,356	-0,011	-0,010
-92,016	141,271	0,114	-0,110
-91,001	54,889	0,039	0,028
-89,986	-82,766	0,052	0,012
-88,972	-200,000	0,008	-0,073
-87,957	104,480	0,068	0,058
-86,943	-200,000	0,008	-0,083
-85,928	191,976	0,068	0,074
-84,913	800,000	0,010	-0,033
-83,899	-1,880	-0,168	-0,086
-82,884	50,938	0,087	-0,060
-81,870	29,889	0,055	-0,034
-80,855	-200,000	-0,021	0,070
-79,840	-200,000	-0,040	0,138
-78,826	800,000	0,010	0,026
-77,811	64,085	0,041	-0,030
-76,797	622,926	0,067	0,123
-75,782	-28,906	0,205	0,085
-74,767	-114,513	0,043	-0,006
-73,753	-200,000	-0,007	0,093
-72,738	139,718	0,067	0,065
-71,724	200,871	-0,053	0,060
-70,709	-200,000	0,004	-0,039
-69,694	15,337	-0,066	-0,038
-68,680	-149,984	0,157	0,009
-67,665	168,929	0,046	0,048
-66,651	156,138	-0,053	0,053
-65,636	-200,000	0,025	-0,108
-64,622	-200,000	0,011	0,056
-63,607	-121,204	-0,149	0,018
-62,592	-200,000	0,011	0,070
-61,578	521,656	-0,084	-0,144
-60,563	-200,000	-0,006	-0,068
-59,549	-31,365	-0,086	0,035
-58,534	-196,009	-1,375	-0,007
-57,519	507,702	-0,930	-1,572
-56,505	-200,000	-0,823	-4,352
-55,490	-76,005	0,589	-0,150
-54,476	800,000	4,895	11,788
-53,461	-200,000	13,581	251,901
-52,446	-200,000	689,502	2265,962
-51,432	608,602	1621,016	2947,246
-50,417	119,586	1633,570	1467,587
-49,403	74,597	1287,876	981,541
-48,388	38,063	1023,778	659,228
-47,373	24,274	981,611	586,754
-46,359	23,484	971,239	577,941
-45,344	22,536	966,865	572,221
-44,330	22,443	965,501	571,088
-43,315	22,330	964,073	569,852
-42,300	22,322	962,922	569,125
-41,286	22,281	962,246	568,567
-40,271	22,236	961,114	567,731
-39,257	22,319	960,082	567,367
-38,242	22,306	959,194	566,778
-37,227	22,256	958,394	566,120
-36,213	22,186	957,701	565,463
-35,198	22,234	956,659	564,981
-34,184	22,275	956,111	564,766
-33,169	22,247	955,162	564,092
-32,154	22,304	954,136	563,651
-31,140	22,299	953,197	563,057
-30,125	22,337	952,354	562,656
-29,111	22,274	951,602	561,988
-28,096	22,337	950,937	561,776
-27,082	22,285	950,271	561,193
-26,067	22,268	949,427	560,617
-25,052	22,271	948,950	560,323
-24,038	22,279	948,298	559,942
-23,023	22,302	947,462	559,500
-22,009	22,321	946,910	559,212
-20,994	22,311	946,294	558,794
-19,979	22,354	945,423	558,396
-18,965	22,278	945,010	557,888
-17,950	22,237	944,392	557,369
-16,936	22,293	943,573	557,042
-15,921	22,225	942,965	556,445
-14,906	22,201	942,176	555,881
-13,892	22,206	941,659	555,569
-12,877	22,187	941,151	555,186
-11,863	22,138	940,499	554,625
-10,848	22,161	939,848	554,293
-9,833	22,250	939,403	554,289
-8,819	22,219	938,854	553,846
-7,804	22,233	938,108	553,428
-6,790	22,157	937,525	552,823
-5,775	22,226	936,856	552,622
-4,760	22,199	936,366	552,226
-3,746	22,193	935,746	551,821
-2,731	21,995	935,388	550,962
-1,717	21,948	934,480	550,256
-0,702	21,972	933,817	549,920
0,313	21,825	933,014	549,816
1,327	24,446	930,624	556,590
2,342	32,335	808,721	505,051
3,356	27,098	508,328	308,505
4,371	2,125	372,628	194,469
5,386	-0,927	355,590	181,826
6,400	-2,006	349,284	177,287
7,415	-2,701	346,757	175,159
8,429	-2,902	345,453	174,245
9,444	-2,776	344,445	173,871
10,459	-2,764	343,762	173,525
11,473	-2,874	343,242	173,117
12,488	-2,843	342,452	172,740
13,502	-2,908	342,157	172,498
14,517	-2,820	341,473	172,242
15,531	-2,898	341,086	171,939
16,546	-2,815	340,552	171,752
17,561	-2,783	340,175	171,585
18,575	-2,792	339,709	171,324
19,590	-2,850	339,410	171,090
20,604	-2,786	339,011	170,948
21,619	-3,054	338,646	170,437
22,634	-2,625	338,184	170,688
23,648	-2,692	337,845	170,424
24,663	-2,716	337,670	170,293
25,677	-2,877	337,322	169,915
26,692	-2,878	337,143	169,808
27,707	-2,736	336,757	169,763
28,721	-2,781	336,435	169,534
29,736	-2,845	336,216	169,335
30,750	-2,768	335,761	169,179
31,765	-2,962	335,717	168,918
32,780	-2,955	335,345	168,724
33,794	-2,708	334,971	168,805
34,809	-2,817	334,766	168,562
35,823	-2,913	334,501	168,302
36,838	-2,880	334,232	168,190
37,853	-2,773	333,916	168,138
38,867	-2,880	333,767	167,926
39,882	-2,810	333,390	167,802
40,896	-2,788	333,091	167,661
41,911	-2,609	332,793	167,701
42,926	-2,610	332,544	167,560
43,940	-2,923	332,255	167,042
44,955	-2,790	331,966	167,033
45,969	-2,793	331,748	166,905
46,984	-2,831	331,428	166,685
47,999	-2,945	331,262	166,457
49,013	-2,909	330,907	166,305
50,028	-2,896	330,692	166,197
51,042	-2,889	330,479	166,083
52,057	-3,010	330,164	165,773
53,071	-2,852	330,001	165,855
54,086	-2,944	329,602	165,536
55,101	-2,813	329,310	165,522
56,115	-2,700	329,115	165,538
57,130	-2,764	328,848	165,315
58,144	-2,728	328,539	165,187
59,159	-2,686	328,264	165,081
60,174	-2,738	327,955	164,853
61,188	-2,663	327,746	164,817
62,203	-2,748	327,523	164,594
63,217	-2,765	327,277	164,437
64,232	-2,834	327,129	164,271
65,247	-2,740	326,724	164,158
66,261	-2,897	326,600	163,905
67,276	-2,765	326,222	163,848
68,290	-2,900	325,954	163,548
69,305	-2,741	325,764	163,616
70,320	-2,701	325,526	163,527
71,334	-2,756	325,321	163,348
72,349	-2,754	324,923	163,136
73,363	-2,816	324,790	162,986
74,378	-2,791	324,591	162,899
75,393	-2,720	324,158	162,746
76,407	-2,654	324,020	162,735
77,422	-2,657	323,820	162,617
78,436	-2,714	323,519	162,388
79,451	-2,621	323,259	162,346
80,466	-2,874	322,983	161,913
81,480	-2,835	322,780	161,840
82,495	-2,761	322,404	161,718
83,509	-2,817	322,351	161,616
84,524	-2,733	321,991	161,514
85,539	-2,764	321,836	161,387
86,553	-2,900	321,663	161,136
87,568	-2,804	321,318	161,055
88,582	-2,791	321,073	160,932
89,597	-2,725	320,846	160,876
90,611	-2,863	320,601	160,587
91,626	-2,721	320,335	160,596
92,641	-2,719	320,185	160,509
93,655	-2,638	319,907	160,444
94,670	-2,951	319,730	159,998
95,684	-2,873	319,505	159,956
96,699	-2,618	319,173	160,055
97,714	-2,780	318,953	159,753
98,728	-2,895	318,933	159,603
99,743	-2,821	318,600	159,503
100,757	-2,789	318,402	159,425
101,772	-2,850	318,155	159,221
102,787	-2,762	317,881	159,165
103,801	-2,688	317,480	159,030
104,816	-2,738	317,277	158,860
105,830	-2,725	317,113	158,777
106,845	-2,726	316,875	158,643
107,860	-2,691	316,698	158,579
108,874	-2,711	316,472	158,430
109,889	-2,808	316,337	158,243
110,903	-2,653	315,943	158,200
111,918	-2,979	315,922	157,823
112,933	-2,745	315,491	157,846
113,947	-2,803	315,306	157,676
114,962	-2,654	315,149	157,744
115,976	-2,872	315,059	157,451
116,991	-2,864	314,659	157,245
118,006	-2,789	314,449	157,206
119,020	-2,808	314,425	157,161
120,035	-2,705	314,138	157,113
121,049	-2,732	314,023	157,013
122,064	-2,723	313,731	156,862
123,079	-2,644	313,333	156,734
124,093	-2,730	313,207	156,565
125,108	-2,683	312,837	156,416
126,122	-2,789	312,619	156,181
127,137	-2,689	312,483	156,205
128,151	-2,678	312,249	156,086
129,166	-2,713	311,990	155,905
130,181	-2,777	311,771	155,713
131,195	-2,770	311,553	155,598
132,210	-2,625	311,279	155,602
133,224	-2,677	311,131	155,459
134,239	-2,600	310,868	155,394
135,254	-2,777	310,691	155,106
136,268	-2,792	310,493	154,977
137,283	-2,782	310,081	154,768
138,297	-2,843	310,013	154,655
139,312	-2,761	309,797	154,620
140,327	-2,722	309,558	154,528
141,341	-2,640	309,339	154,492
142,356	-2,628	309,113	154,377
143,370	-2,783	309,011	154,150
144,385	-2,739	308,822	154,089
145,400	-2,632	308,411	153,982
146,414	-2,751	308,293	153,784
147,429	-2,708	308,029	153,684
148,443	-2,623	307,893	153,691
149,458	-2,667	307,630	153,500
150,473	-2,571	307,443	153,494
151,487	-2,596	307,115	153,290
152,502	-2,759	307,095	153,096
153,516	-2,761	306,802	152,934
154,531	-2,592	306,488	152,940
155,546	-2,708	306,398	152,762
156,560	-2,701	306,136	152,624
157,575	-2,730	305,876	152,451
158,589	-2,707	305,621	152,334
159,604	-2,524	305,437	152,419
160,619	-2,621	305,231	152,202
161,633	-2,724	305,076	152,004
162,648	-2,473	304,831	152,129
163,662	-2,726	304,849	151,862
164,677	-2,773	304,473	151,612
165,692	-2,714	304,340	151,593
166,706	-2,583	304,122	151,606
167,721	-2,494	303,737	151,493
168,735	-2,637	303,676	151,301
169,750	-2,813	303,445	150,991
170,764	-2,642	303,343	151,103
171,779	-2,680	303,172	150,966
172,794	-2,728	302,984	150,810
173,808	-2,590	302,787	150,840
174,823	-2,683	302,442	150,559
175,837	-2,790	302,309	150,370
176,852	-2,707	302,188	150,381
177,867	-2,620	301,855	150,291
178,881	-2,734	301,814	150,140
179,896	-2,642	301,473	150,052
180,910	-2,512	301,234	150,052
181,925	-2,588	301,062	149,875
182,940	-2,405	300,820	149,928
183,954	-2,582	300,700	149,674
184,969	-2,606	300,477	149,526
185,983	-2,614	300,252	149,392
186,998	-2,627	300,214	149,347
188,013	-2,620	299,948	149,209
189,027	-2,553	299,632	149,106
190,042	-2,449	299,496	149,131
191,056	-2,519	299,077	148,837
192,071	-2,548	299,063	148,788
193,086	-2,726	298,743	148,435
194,100	-2,689	298,637	148,407
195,115	-2,557	298,409	148,414
196,129	-2,519	298,287	148,378
197,144	-2,659	298,006	148,084
198,159	-2,627	297,707	147,955
199,173	-2,786	297,560	147,707
200,188	-2,464	297,173	147,827
201,202	-2,438	297,119	147,813
202,217	-2,842	296,957	147,312
203,232	-2,725	296,760	147,319
204,246	-2,562	296,532	147,357
205,261	-2,409	296,246	147,355
206,275	-2,730	296,210	147,002
207,290	-2,653	296,081	147,003
208,304	-2,615	295,784	146,879
209,319	-2,668	295,573	146,709
210,334	-2,623	295,382	146,645
211,348	-2,615	295,099	146,501
212,363	-2,488	294,857	146,494
213,377	-2,670	294,964	146,352
214,392	-2,526	294,613	146,309
215,407	-2,522	294,375	146,181
216,421	-2,649	294,096	145,904
217,436	-2,593	293,949	145,873
218,450	-2,544	293,674	145,772
219,465	-2,644	293,530	145,589
220,480	-2,501	293,391	145,648
221,494	-2,584	293,271	145,493
222,509	-2,567	293,116	145,421
223,523	-2,543	292,830	145,289
224,538	-2,634	292,661	145,102
225,553	-2,489	292,363	145,085
226,567	-2,472	292,225	145,021
227,582	-2,574	292,058	144,824
228,596	-2,533	291,918	144,782
229,611	-2,514	291,781	144,721
230,626	-2,758	291,609	144,381
231,640	-2,564	291,287	144,400
232,655	-2,554	290,993	144,251
233,669	-2,733	290,879	144,006
234,684	-2,508	290,711	144,131
235,699	-2,434	290,549	144,110
236,713	-2,621	290,175	143,728
237,728	-2,678	290,199	143,671
238,742	-2,517	289,869	143,654
239,757	-2,649	289,708	143,431
240,772	-2,517	289,545	143,467
241,786	-2,478	289,368	143,405
242,801	-2,625	289,167	143,149
243,815	-2,694	289,078	143,024
244,830	-2,473	288,914	143,146
245,844	-2,590	288,630	142,879
246,859	-2,622	288,389	142,715
247,874	-2,650	288,178	142,571
248,888	-2,680	288,027	142,455
249,903	-2,608	288,023	142,510
250,917	-2,526	287,836	142,485
251,932	-2,507	287,498	142,323
252,947	-2,589	287,264	142,114
253,961	-2,969	286,864	141,537
254,976	-3,726	286,542	140,633
255,990	-3,716	286,257	140,490
257,005	-3,072	286,534	141,236
258,020	-0,745	287,144	143,777
259,034	0,705	287,683	145,438
260,049	1,289	287,633	145,965
261,063	1,716	287,733	146,416
262,078	2,036	287,566	146,627
263,093	2,145	287,472	146,671
264,107	2,419	287,485	146,929
265,122	2,708	287,283	147,092
266,136	2,734	287,199	147,061
267,151	2,730	286,896	146,889
268,166	2,758	286,622	146,762
269,180	2,808	286,557	146,765
270,195	2,720	286,430	146,602
271,209	2,671	286,177	146,412
272,224	2,617	285,945	146,228
273,239	2,617	285,603	146,040
274,253	2,660	285,531	146,032
275,268	2,345	285,396	145,648
276,282	2,540	285,027	145,633
277,297	2,699	284,969	145,743
278,312	2,574	284,845	145,547
279,326	2,551	284,675	145,425
280,341	2,532	284,352	145,229
281,355	2,407	284,320	145,080
282,370	2,543	283,934	145,000
283,384	2,477	283,962	144,938
284,399	2,373	283,546	144,615
285,414	2,355	283,528	144,575
286,428	2,479	283,392	144,611
287,443	2,391	283,188	144,410
288,457	2,356	282,937	144,236
289,472	2,420	282,612	144,118
290,487	2,351	282,439	143,951
291,501	2,398	282,347	143,936
292,516	2,164	282,217	143,636
293,530	2,291	282,145	143,707
294,545	2,263	281,816	143,500
295,560	2,362	281,578	143,460
296,574	2,287	281,325	143,247
297,589	2,388	281,135	143,232
298,603	2,158	281,044	142,957
299,618	2,270	280,825	142,938
300,633	2,340	280,774	142,965
301,647	2,146	280,677	142,721
302,662	2,402	280,372	142,793
303,676	2,711	280,221	142,993
304,691	2,585	279,991	142,745
305,706	2,560	279,951	142,689
306,720	2,579	279,862	142,649
307,735	2,639	279,519	142,517
308,749	2,562	279,328	142,335
309,764	2,575	279,167	142,252
310,779	2,534	278,881	142,056
311,793	2,449	278,854	141,950
312,808	2,549	278,561	141,881
313,822	2,535	278,562	141,856
314,837	2,403	278,239	141,556
315,852	2,602	278,076	141,645
316,866	2,484	277,955	141,462
317,881	2,464	277,755	141,329
318,895	2,354	277,529	141,098
319,910	2,421	277,429	141,097
320,925	2,457	277,083	140,942
321,939	2,522	276,906	140,901
322,954	2,480	276,902	140,846
323,968	2,711	276,664	140,927
324,983	2,591	276,497	140,717
325,997	2,605	276,309	140,623
327,012	2,607	276,128	140,520
328,027	2,423	276,062	140,304
329,041	2,594	275,745	140,288
330,056	2,510	275,693	140,172
331,070	2,557	275,407	140,057
332,085	2,661	275,261	140,065
333,100	2,743	274,995	139,993
334,114	2,757	274,814	139,902
335,129	2,624	274,593	139,655
336,143	2,738	274,521	139,710
337,158	2,551	274,373	139,451
338,173	2,458	274,253	139,292
339,187	2,616	274,224	139,410
340,202	2,593	273,937	139,230
341,216	2,550	273,656	139,036
342,231	2,735	273,322	139,023
343,246	2,640	273,448	138,988
344,260	2,607	273,281	138,860
345,275	2,703	273,043	138,815
346,289	2,622	272,858	138,634
347,304	2,723	272,667	138,617
348,319	2,769	272,464	138,543
349,333	2,687	272,275	138,360
350,348	2,616	272,187	138,239
351,362	2,597	271,963	138,096
352,377	2,736	271,829	138,141
353,392	2,767	271,490	137,984
354,406	2,752	271,441	137,934
355,421	192,866	1348,035	1432,904
356,435	155,734	1479,314	1433,046
