DTS Sentinel unit serial number:	SN410029Multiplexer serial number:	ORYXHardware model number:	OX2-SRSoftware version number:	ORYX F/W v4,00 Oryx Data Collector v3.7.2.0data status	okinstallation	B4 Nyhavnadifferential loss correction	single-endedforward channel	channel 2reverse channel	N/Adate	2023/12/16time	13:25:13forward acquisition time	300,00reverse acquisition time	0,00gamma	499,1914k internal	0,3125k external	0,3125temperature offset calibration	1,0000default loss term (dB/km)	0,3820temperature slope calibration	1,0000multiplexer offset coefficient	1,0000multiplexer slope coefficient	1,0000fibre end	0,00T internal ref (°C)	24,75T ext. ref 1 (°C)	11,18T ext. ref 2 (°C)	11,41length (m)	temperature (°C)	Stokes	anti-Stokes-744,400	228,287	-0,030	-0,037
-743,385	97,173	-0,196	0,167
-742,371	397,138	-0,001	0,002
-741,356	-200,000	0,000	0,185
-740,342	241,752	0,073	-0,091
-739,327	144,822	-0,188	0,187
-738,312	-150,697	0,082	-0,005
-737,298	-63,969	-0,191	0,058
-736,283	334,859	-0,048	-0,069
-735,269	-137,767	-0,309	-0,025
-734,254	-200,000	0,022	-0,108
-733,239	-95,534	-0,438	-0,087
-732,225	-2,747	0,112	0,058
-731,210	-200,000	0,020	0,000
-730,196	39,072	0,080	0,053
-729,181	246,125	0,049	-0,061
-728,167	163,600	-0,104	-0,109
-727,152	-200,000	-0,005	0,045
-726,137	800,000	0,021	-0,063
-725,123	100,925	-0,080	-0,069
-724,108	-20,468	-0,050	0,023
-723,094	-32,188	-0,120	-0,050
-722,079	-117,442	-0,087	0,012
-721,064	-82,559	-0,094	-0,023
-720,050	-127,186	-0,027	0,003
-719,035	-105,484	0,061	0,010
-718,021	-200,000	-0,015	-0,135
-717,006	-5,346	0,026	0,013
-715,991	800,000	-0,086	-0,197
-714,977	-200,000	-0,005	-0,035
-713,962	-56,200	-0,134	-0,044
-712,948	-51,488	0,078	-0,027
-711,933	-89,006	0,165	0,036
-710,918	-171,328	-0,200	0,005
-709,904	188,927	-0,020	0,023
-708,889	119,384	-0,030	-0,028
-707,875	-45,257	-0,004	-0,002
-706,860	681,453	0,028	0,054
-705,845	800,000	0,061	-0,183
-704,831	332,434	0,012	0,017
-703,816	-69,933	-0,102	0,029
-702,802	161,741	0,104	0,108
-701,787	57,353	0,058	-0,042
-700,772	569,875	0,039	-0,072
-699,758	-200,000	-0,003	0,038
-698,743	37,906	0,078	0,052
-697,729	400,606	0,051	-0,079
-696,714	-67,442	0,078	0,023
-695,699	-200,000	-0,017	0,186
-694,685	30,122	-0,119	-0,075
-693,670	-200,000	-0,011	-0,042
-692,656	6,318	0,087	-0,048
-691,641	326,337	-0,083	0,119
-690,627	-200,000	0,034	0,117
-689,612	-8,299	-0,091	0,045
-688,597	-19,479	-0,035	-0,016
-687,583	53,043	0,079	0,056
-686,568	22,367	-0,173	0,105
-685,554	-31,128	0,117	-0,049
-684,539	-20,095	-0,059	0,027
-683,524	77,343	0,019	-0,015
-682,510	35,152	-0,093	0,060
-681,495	3,449	-0,078	-0,042
-680,481	-200,000	0,033	-0,111
-679,466	763,077	-0,013	-0,027
-678,451	79,596	-0,156	-0,125
-677,437	62,151	0,054	-0,040
-676,422	21,502	0,151	-0,091
-675,408	13,352	0,092	-0,053
-674,393	-88,139	0,197	-0,043
-673,378	-126,020	-0,096	-0,011
-672,364	-89,087	-0,110	-0,024
-671,349	156,481	-0,065	0,066
-670,335	800,000	0,099	-0,210
-669,320	140,296	0,037	-0,036
-668,305	331,686	-0,019	-0,028
-667,291	129,401	-0,027	-0,025
-666,276	800,000	-0,034	0,090
-665,262	-200,000	-0,012	-0,120
-664,247	266,583	0,083	0,108
-663,232	-169,444	-0,104	0,003
-662,218	177,972	-0,041	0,045
-661,203	800,000	-0,002	-0,005
-660,189	800,000	-0,048	0,128
-659,174	-200,000	0,003	-0,112
-658,159	-200,000	0,005	0,037
-657,145	182,122	0,041	0,044
-656,130	-67,531	0,162	0,047
-655,116	213,178	0,050	-0,059
-654,101	800,000	0,009	0,026
-653,086	-200,000	-0,002	-0,053
-652,072	24,591	-0,033	-0,020
-651,057	441,113	0,050	-0,081
-650,043	115,214	-0,095	-0,086
-649,028	800,000	-0,045	-0,102
-648,014	-144,410	0,148	-0,010
-646,999	238,811	-0,126	0,156
-645,984	-47,473	-0,161	0,058
-644,970	-200,000	0,042	-0,139
-643,955	459,289	-0,029	0,048
-642,941	60,186	-0,138	0,101
-641,926	800,000	0,037	0,105
-640,911	-28,081	-0,054	-0,023
-639,897	800,000	-0,055	0,123
-638,882	559,886	0,070	0,126
-637,868	-200,000	-0,015	0,059
-636,853	800,000	0,032	0,072
-635,838	-200,000	-0,011	-0,095
-634,824	176,604	-0,082	-0,089
-633,809	28,552	0,038	0,024
-632,795	-80,684	0,034	-0,008
-631,780	357,062	-0,072	-0,106
-630,765	106,348	0,058	-0,051
-629,751	207,996	0,011	-0,012
-628,736	800,000	0,030	-0,066
-627,722	-164,370	-0,049	0,002
-626,707	73,075	-0,042	0,032
-625,692	33,297	0,064	-0,041
-624,678	-117,815	0,127	0,017
-623,663	166,060	-0,059	-0,062
-622,649	-140,995	0,043	0,003
-621,634	-94,372	-0,178	-0,036
-620,619	-125,184	-0,127	0,014
-619,605	298,811	-0,014	0,019
-618,590	-194,387	-0,143	0,001
-617,576	-91,243	0,102	-0,021
-616,561	-87,805	0,103	0,023
-615,546	800,000	-0,051	-0,139
-614,532	-200,000	-0,027	-0,148
-613,517	-200,000	0,026	0,103
-612,503	-76,166	-0,075	0,020
-611,488	-133,879	0,127	-0,012
-610,474	26,454	0,062	-0,039
-609,459	81,257	-0,053	0,043
-608,444	394,713	0,064	-0,100
-607,430	-200,000	0,024	-0,097
-606,415	687,269	0,006	0,013
-605,401	332,607	-0,079	0,113
-604,386	150,714	0,098	0,098
-603,371	-76,707	-0,043	-0,011
-602,357	-23,100	-0,073	0,033
-601,342	201,712	-0,066	0,075
-600,328	177,334	-0,034	-0,037
-599,313	800,000	0,045	-0,139
-598,298	237,563	0,034	-0,042
-597,284	244,723	0,018	0,022
-596,269	-17,915	0,047	-0,022
-595,255	-200,000	-0,029	-0,124
-594,240	800,000	-0,060	-0,182
-593,225	24,791	-0,119	0,073
-592,211	74,546	-0,125	0,097
-591,196	-200,000	-0,001	-0,015
-590,182	800,000	0,056	-0,138
-589,167	-134,068	0,083	-0,008
-588,152	423,721	-0,057	0,091
-587,138	440,009	0,038	-0,062
-586,123	800,000	-0,056	-0,118
-585,109	-200,000	0,008	-0,041
-584,094	217,318	-0,102	-0,120
-583,079	-148,160	0,165	0,010
-582,065	800,000	-0,072	0,218
-581,050	-200,000	-0,014	0,099
-580,036	75,280	-0,066	-0,052
-579,021	526,880	0,047	-0,082
-578,006	-200,000	-0,001	-0,021
-576,992	-170,059	-0,037	-0,001
-575,977	258,987	0,072	-0,092
-574,963	-200,000	0,024	0,101
-573,948	-89,527	-0,088	0,019
-572,934	-200,000	-0,004	0,034
-571,919	800,000	-0,035	-0,098
-570,904	373,528	-0,064	-0,097
-569,890	-56,690	-0,083	0,027
-568,875	32,328	0,071	-0,045
-567,861	-200,000	-0,034	0,116
-566,846	102,934	-0,076	0,066
-565,831	29,495	0,072	-0,045
-564,817	800,000	-0,051	-0,105
-563,802	-123,879	-0,186	-0,021
-562,788	-185,048	0,170	-0,002
-561,773	328,491	-0,029	-0,041
-560,758	-28,409	-0,027	0,011
-559,744	-53,192	-0,026	-0,009
-558,729	-200,000	0,012	0,047
-557,715	-36,323	-0,143	0,057
-556,700	22,025	0,089	-0,054
-555,685	140,347	0,065	0,063
-554,671	800,000	-0,042	0,110
-553,656	73,930	0,047	-0,037
-552,642	-156,113	0,081	0,004
-551,627	141,210	-0,123	0,120
-550,612	-126,257	0,071	-0,008
-549,598	800,000	-0,030	-0,082
-548,583	222,867	0,064	-0,077
-547,569	185,635	-0,094	-0,103
-546,554	-144,240	0,105	0,007
-545,539	-109,786	-0,080	-0,012
-544,525	-200,000	0,008	0,071
-543,510	-200,000	-0,010	-0,040
-542,496	-82,665	-0,082	0,019
-541,481	509,365	-0,087	0,150
-540,466	255,613	-0,080	0,102
-539,452	70,115	0,102	-0,077
-538,437	72,406	0,051	0,040
-537,423	-2,990	0,082	0,042
-536,408	46,070	0,041	0,028
-535,393	-200,000	-0,005	0,081
-534,379	244,524	0,007	-0,008
-533,364	-138,801	0,139	-0,011
-532,350	-46,497	0,087	0,031
-531,335	-0,316	-0,005	0,003
-530,321	322,406	-0,026	0,036
-529,306	156,950	-0,028	0,029
-528,291	-200,000	0,022	-0,124
-527,277	-122,616	0,106	-0,013
-526,262	800,000	-0,013	0,032
-525,248	715,376	-0,070	-0,138
-524,233	727,738	-0,040	-0,079
-523,218	323,050	-0,061	-0,086
-522,204	121,660	0,033	-0,030
-521,189	48,869	-0,130	-0,090
-520,175	-101,842	-0,036	0,006
-519,160	-200,000	-0,028	-0,100
-518,145	20,039	0,085	0,051
-517,131	-200,000	-0,003	-0,024
-516,116	800,000	0,011	-0,028
-515,102	-135,848	-0,052	-0,004
-514,087	-139,043	0,015	-0,001
-513,072	-116,498	-0,082	0,011
-512,058	81,245	0,039	0,031
-511,043	800,000	-0,040	-0,084
-510,029	-200,000	0,059	-0,198
-509,014	89,944	0,058	-0,048
-507,999	27,362	-0,037	-0,023
-506,985	-78,001	0,016	-0,004
-505,970	800,000	-0,081	-0,193
-504,956	108,178	-0,101	0,089
-503,941	-27,180	0,045	-0,019
-502,926	50,792	0,035	0,024
-501,912	-39,171	0,094	-0,036
-500,897	-200,000	0,013	0,053
-499,883	99,415	-0,205	-0,175
-498,868	32,217	0,096	-0,061
-497,853	271,043	-0,062	0,081
-496,839	588,942	-0,060	0,110
-495,824	-200,000	0,038	-0,145
-494,810	15,790	0,126	0,073
-493,795	3,536	0,095	0,051
-492,781	123,914	-0,028	0,026
-491,766	-200,000	-0,008	0,052
-490,751	12,435	-0,051	0,029
-489,737	-52,357	0,127	0,043
-488,722	-44,572	-0,044	-0,016
-487,708	-200,000	0,140	-0,000
-486,693	97,768	-0,070	0,060
-485,678	432,164	-0,028	-0,044
-484,664	364,126	-0,088	-0,131
-483,649	214,109	-0,048	-0,056
-482,635	598,899	-0,060	-0,110
-481,620	-53,078	0,139	0,047
-480,605	-200,000	0,004	0,066
-479,591	73,501	0,027	0,021
-478,576	-200,000	-0,024	-0,146
-477,562	59,270	-0,003	-0,002
-476,547	-3,202	-0,110	-0,056
-475,532	74,913	0,068	-0,053
-474,518	-200,000	0,051	0,187
-473,503	-140,477	-0,132	0,010
-472,489	99,389	-0,066	0,056
-471,474	-93,040	0,139	-0,028
-470,459	-200,000	-0,017	-0,057
-469,445	-136,985	0,035	0,003
-468,430	74,409	-0,072	-0,056
-467,416	72,283	-0,112	-0,086
-466,401	-19,917	0,149	0,068
-465,386	650,579	0,056	0,107
-464,372	-200,000	0,012	0,052
-463,357	101,672	-0,124	-0,107
-462,343	127,384	0,068	-0,064
-461,328	44,913	-0,125	-0,085
-460,313	-15,920	-0,063	-0,029
-459,299	286,613	0,065	0,087
-458,284	779,974	0,021	0,042
-457,270	65,531	-0,132	0,099
-456,255	-200,000	0,003	0,085
-455,241	207,462	0,069	-0,079
-454,226	800,000	0,027	0,059
-453,211	-164,920	0,080	-0,003
-452,197	-21,828	0,015	-0,007
-451,182	3,383	0,083	0,045
-450,168	-27,697	-0,066	0,028
-449,153	-63,041	-0,025	0,007
-448,138	57,182	-0,062	-0,044
-447,124	387,876	-0,092	-0,141
-446,109	-19,242	0,007	0,003
-445,095	800,000	-0,029	0,087
-444,080	167,417	0,065	-0,069
-443,065	-84,600	0,077	0,018
-442,051	800,000	0,047	0,144
-441,036	12,024	0,101	-0,057
-440,022	23,634	-0,123	-0,074
-439,007	-200,000	0,023	-0,138
-437,992	1,912	0,134	-0,071
-436,978	-200,000	0,033	-0,113
-435,963	389,520	0,053	0,081
-434,949	-200,000	0,022	-0,089
-433,934	-200,000	0,022	0,074
-432,919	800,000	-0,050	0,111
-431,905	34,840	-0,048	-0,031
-430,890	576,482	-0,034	-0,061
-429,876	100,545	0,060	-0,052
-428,861	8,093	0,057	-0,032
-427,846	102,504	0,040	0,035
-426,832	-200,000	0,015	0,067
-425,817	-200,000	-0,020	-0,081
-424,803	-46,996	0,070	0,025
-423,788	4,091	0,125	-0,067
-422,773	-99,705	0,091	-0,017
-421,759	-200,000	-0,005	-0,098
-420,744	215,731	-0,089	-0,104
-419,730	83,916	0,025	-0,020
-418,715	-70,320	-0,055	-0,015
-417,701	800,000	-0,052	-0,126
-416,686	38,591	0,088	0,058
-415,671	194,228	0,026	0,029
-414,657	-108,702	0,150	0,023
-413,642	800,000	0,012	0,037
-412,628	205,802	-0,015	0,017
-411,613	20,213	-0,062	0,037
-410,598	387,784	-0,045	0,069
-409,584	800,000	-0,062	-0,128
-408,569	-118,204	0,069	0,009
-407,555	-200,000	0,021	0,072
-406,540	362,349	-0,055	0,082
-405,525	-200,000	-0,029	0,195
-404,511	181,874	-0,093	-0,101
-403,496	-52,797	-0,113	-0,038
-402,482	248,938	0,071	0,088
-401,467	137,243	0,077	0,074
-400,452	304,646	0,070	0,096
-399,438	-200,000	0,031	0,166
-398,423	-200,000	0,007	0,024
-397,409	604,015	0,013	0,023
-396,394	375,859	-0,006	-0,010
-395,379	459,970	-0,015	0,024
-394,365	-200,000	0,001	0,014
-393,350	130,828	0,035	-0,033
-392,336	212,758	0,128	-0,148
-391,321	-93,008	-0,101	0,021
-390,306	-200,000	-0,022	-0,074
-389,292	780,735	-0,056	-0,113
-388,277	-47,997	0,091	0,032
-387,263	-61,550	0,093	0,028
-386,248	115,163	0,028	-0,025
-385,233	-149,758	-0,081	-0,005
-384,219	443,004	-0,032	-0,052
-383,204	-83,817	0,108	0,025
-382,190	-57,057	0,080	-0,026
-381,175	-200,000	0,053	-0,194
-380,160	-100,161	0,190	-0,034
-379,146	383,082	0,020	-0,031
-378,131	363,078	0,053	0,079
-377,117	-78,779	0,049	-0,012
-376,102	800,000	0,042	0,131
-375,088	-200,000	-0,001	0,011
-374,073	565,821	0,022	-0,040
-373,058	76,895	0,038	0,030
-372,044	266,327	0,094	0,120
-371,029	-10,881	0,079	0,038
-370,015	-200,000	-0,033	0,196
-369,000	163,221	-0,032	0,033
-367,985	-90,292	0,029	-0,006
-366,971	-200,000	0,000	0,012
-365,956	27,459	0,024	0,014
-364,942	-178,190	0,060	-0,001
-363,927	-200,000	0,056	0,196
-362,912	502,109	0,045	-0,077
-361,898	217,125	-0,044	-0,052
-360,883	-200,000	-0,018	-0,071
-359,869	-200,000	-0,041	0,148
-358,854	-50,665	0,116	0,040
-357,839	-200,000	-0,012	0,039
-356,825	-48,235	0,104	-0,037
-355,810	-200,000	0,004	0,066
-354,796	332,097	0,027	0,038
-353,781	-200,000	0,008	-0,119
-352,766	591,112	-0,009	0,016
-351,752	143,203	-0,050	0,049
-350,737	-32,479	0,072	0,029
-349,723	522,817	-0,013	0,022
-348,708	376,080	0,020	0,031
-347,693	51,436	0,052	-0,036
-346,679	-73,983	0,076	0,020
-345,664	392,146	-0,066	0,100
-344,650	26,247	0,156	0,095
-343,635	-200,000	0,001	-0,135
-342,620	-200,000	0,022	0,137
-341,606	24,422	-0,075	0,045
-340,591	-78,559	-0,220	-0,055
-339,577	55,399	-0,106	0,075
-338,562	169,480	-0,032	-0,034
-337,548	800,000	0,018	-0,055
-336,533	-200,000	-0,007	0,038
-335,518	-119,982	-0,079	-0,010
-334,504	386,123	-0,049	0,074
-333,489	-200,000	-0,024	-0,155
-332,475	216,909	0,095	-0,111
-331,460	58,133	0,117	-0,084
-330,445	499,035	0,052	-0,088
-329,431	573,116	-0,016	-0,029
-328,416	169,241	-0,084	0,088
-327,402	-84,114	0,032	0,007
-326,387	-122,744	0,094	-0,011
-325,372	-31,733	-0,056	0,023
-324,358	-53,221	-0,072	-0,024
-323,343	-180,364	0,165	-0,002
-322,329	-200,000	0,013	-0,102
-321,314	800,000	-0,040	-0,103
-320,299	223,458	0,129	0,153
-319,285	-130,985	0,059	0,006
-318,270	-200,000	-0,050	-0,164
-317,256	-200,000	0,017	-0,134
-316,241	-101,800	-0,076	-0,013
-315,226	-200,000	-0,008	-0,071
-314,212	800,000	0,047	0,134
-313,197	-200,000	0,014	-0,071
-312,183	-138,952	0,095	0,007
-311,168	-144,419	-0,079	-0,005
-310,153	538,610	-0,024	0,042
-309,139	110,465	-0,090	-0,079
-308,124	784,866	-0,016	0,033
-307,110	800,000	-0,046	0,134
-306,095	-16,825	0,089	-0,041
-305,080	-23,895	0,123	0,053
-304,066	-200,000	-0,028	0,107
-303,051	138,426	0,048	-0,046
-302,037	227,909	0,031	-0,037
-301,022	-200,000	-0,026	-0,115
-300,008	319,884	0,075	0,104
-298,993	157,458	0,087	0,088
-297,978	-200,000	0,011	-0,051
-296,964	-86,339	-0,130	-0,029
-295,949	-157,505	-0,043	-0,002
-294,935	-104,584	-0,022	-0,004
-293,920	-130,459	0,060	-0,006
-292,905	143,300	-0,029	0,028
-291,891	269,062	0,053	0,068
-290,876	291,776	0,065	-0,087
-289,862	-134,047	0,062	-0,006
-288,847	-200,000	-0,002	0,046
-287,832	-46,068	-0,137	-0,049
-286,818	-200,000	-0,021	0,098
-285,803	800,000	0,023	-0,053
-284,789	80,076	0,049	0,039
-283,774	223,120	0,040	-0,047
-282,759	800,000	0,050	0,121
-281,745	-52,150	-0,026	0,009
-280,730	639,814	0,089	-0,167
-279,716	194,491	-0,081	0,090
-278,701	-200,000	-0,008	-0,107
-277,686	-25,511	0,130	0,056
-276,672	598,764	-0,034	0,063
-275,657	612,930	-0,082	0,150
-274,643	46,172	0,111	0,075
-273,628	353,605	-0,057	-0,083
-272,613	-40,249	0,071	0,027
-271,599	-61,283	0,026	0,008
-270,584	-200,000	0,006	0,107
-269,570	800,000	-0,007	-0,021
-268,555	-200,000	-0,021	-0,075
-267,540	447,892	0,081	0,130
-266,526	-32,603	-0,066	-0,027
-265,511	-68,826	-0,105	-0,029
-264,497	21,250	-0,098	-0,058
-263,482	329,186	0,028	-0,040
-262,467	167,114	0,032	0,033
-261,453	539,264	-0,004	0,006
-260,438	19,776	-0,102	0,060
-259,424	800,000	-0,056	0,123
-258,409	-133,034	-0,131	0,012
-257,395	99,571	0,053	0,045
-256,380	-121,931	0,106	0,013
-255,365	-200,000	-0,018	0,070
-254,351	-200,000	0,026	-0,112
-253,336	54,461	0,060	-0,042
-252,322	353,466	-0,045	-0,065
-251,307	-48,683	-0,085	-0,030
-250,292	137,425	-0,047	0,045
-249,278	99,744	-0,037	0,032
-248,263	149,282	-0,019	0,019
-247,249	-105,443	0,063	0,010
-246,234	256,335	-0,096	-0,120
-245,219	14,097	-0,051	0,029
-244,205	28,863	-0,113	0,070
-243,190	-83,507	0,105	0,024
-242,176	17,078	-0,095	-0,055
-241,161	-200,000	-0,009	0,030
-240,146	-46,092	0,080	0,029
-239,132	79,294	-0,123	0,096
-238,117	-83,910	-0,178	-0,041
-237,103	476,798	0,056	-0,093
-236,088	-200,000	-0,023	-0,077
-235,073	800,000	-0,003	-0,006
-234,059	586,090	0,049	0,089
-233,044	-42,135	-0,068	0,025
-232,030	800,000	-0,037	0,111
-231,015	800,000	-0,038	-0,120
-230,000	-200,000	0,011	0,056
-228,986	-200,000	0,047	0,167
-227,971	-200,000	-0,031	-0,113
-226,957	800,000	-0,005	-0,011
-225,942	800,000	0,048	0,126
-224,927	800,000	-0,016	-0,049
-223,913	-21,900	-0,040	0,018
-222,898	-94,879	0,102	-0,020
-221,884	-200,000	-0,002	-0,084
-220,869	800,000	-0,055	0,142
-219,855	800,000	-0,051	0,113
-218,840	-107,670	0,067	-0,011
-217,825	-200,000	-0,058	-0,205
-216,811	55,799	0,034	0,024
-215,796	-200,000	0,023	0,122
-214,782	-27,716	-0,047	-0,020
-213,767	800,000	0,040	0,106
-212,752	-200,000	0,019	0,089
-211,738	162,002	-0,037	-0,037
-210,723	800,000	0,011	-0,030
-209,709	800,000	0,025	-0,079
-208,694	340,634	-0,055	-0,079
-207,679	-200,000	-0,001	0,041
-206,665	-137,906	0,084	-0,007
-205,650	-200,000	0,025	0,106
-204,636	-170,726	0,060	0,001
-203,621	199,042	-0,099	0,111
-202,606	408,594	-0,025	-0,039
-201,592	160,115	-0,123	-0,125
-200,577	-200,000	-0,005	-0,065
-199,563	422,235	-0,052	0,081
-198,548	19,037	0,110	0,064
-197,533	-38,020	-0,040	-0,015
-196,519	41,475	0,117	0,077
-195,504	-145,998	-0,131	0,008
-194,490	236,267	0,031	-0,038
-193,475	-31,206	-0,172	-0,070
-192,460	4,471	0,022	0,012
-191,446	220,720	0,070	-0,082
-190,431	521,490	0,025	-0,043
-189,417	161,646	-0,021	0,022
-188,402	-180,538	-0,064	0,001
-187,387	595,574	-0,059	-0,107
-186,373	-200,000	0,000	-0,064
-185,358	-200,000	0,025	0,143
-184,344	98,976	-0,049	-0,042
-183,329	-31,254	-0,146	0,060
-182,315	-200,000	0,032	0,111
-181,300	800,000	-0,047	0,104
-180,285	-106,414	-0,091	-0,015
-179,271	147,778	-0,070	-0,069
-178,256	654,546	0,041	0,077
-177,242	-59,394	0,099	0,031
-176,227	640,529	0,040	0,074
-175,212	153,807	-0,103	0,103
-174,198	511,398	0,047	-0,079
-173,183	87,435	-0,077	0,062
-172,169	-200,000	0,020	-0,132
-171,154	-71,669	-0,131	0,035
-170,139	164,661	0,066	-0,068
-169,125	-43,740	0,176	-0,064
-168,110	800,000	0,043	-0,090
-167,096	247,771	0,055	0,068
-166,081	513,379	0,027	0,046
-165,066	-66,247	0,078	0,022
-164,052	-200,000	-0,004	0,024
-163,037	42,535	-0,084	0,056
-162,023	-35,469	0,085	-0,033
-161,008	96,179	-0,028	0,023
-159,993	800,000	0,022	-0,061
-158,979	-200,000	0,015	0,053
-157,964	-33,963	0,011	0,004
-156,950	800,000	-0,045	-0,092
-155,935	-200,000	-0,008	0,062
-154,920	-200,000	-0,010	0,125
-153,906	18,842	0,029	0,017
-152,891	281,308	-0,083	0,108
-151,877	800,000	0,067	-0,150
-150,862	-117,095	-0,184	0,024
-149,847	800,000	0,042	0,087
-148,833	-200,000	0,030	-0,122
-147,818	-48,008	0,126	0,044
-146,804	-200,000	-0,003	-0,019
-145,789	-151,607	-0,134	0,007
-144,775	110,441	-0,065	-0,057
-143,760	-6,129	-0,086	-0,043
-142,745	-17,703	0,117	-0,053
-141,731	-1,630	-0,058	-0,029
-140,716	-200,000	0,026	0,087
-139,702	-88,532	0,035	0,008
-138,687	-200,000	-0,021	-0,173
-137,672	120,279	-0,041	0,037
-136,658	-160,327	-0,113	0,004
-135,643	800,000	-0,022	-0,064
-134,629	-41,639	0,110	-0,041
-133,614	-200,000	-0,029	0,131
-132,599	44,660	0,069	0,046
-131,585	128,517	-0,113	-0,105
-130,570	800,000	-0,039	0,090
-129,556	91,498	-0,071	-0,058
-128,541	-103,983	-0,010	-0,002
-127,526	72,138	-0,061	-0,046
-126,512	-39,749	0,028	-0,010
-125,497	-200,000	0,006	-0,068
-124,483	-116,577	-0,079	-0,010
-123,468	149,960	0,027	0,026
-122,453	800,000	0,070	-0,144
-121,439	-200,000	-0,007	0,028
-120,424	335,759	0,063	0,089
-119,410	-20,836	0,171	0,076
-118,395	100,158	-0,068	-0,057
-117,380	683,228	0,018	0,035
-116,366	-200,000	0,014	-0,045
-115,351	-200,000	-0,034	-0,177
-114,337	-74,111	-0,196	-0,051
-113,322	-200,000	0,028	-0,113
-112,307	-200,000	-0,005	0,032
-111,293	377,174	-0,009	0,013
-110,278	422,059	-0,012	0,019
-109,264	3,916	-0,026	0,014
-108,249	-123,506	-0,154	-0,018
-107,234	276,178	0,061	-0,079
-106,220	331,324	-0,054	-0,076
-105,205	28,969	0,069	-0,042
-104,191	-129,533	-0,086	-0,009
-103,176	-68,173	-0,126	-0,035
-102,162	-103,780	0,025	0,004
-101,147	-200,000	0,002	0,043
-100,132	-95,040	-0,071	-0,014
-99,118	77,188	-0,128	-0,099
-98,103	11,907	0,106	0,059
-97,089	197,361	0,067	0,075
-96,074	-170,597	-0,139	-0,003
-95,059	-73,669	0,042	-0,011
-94,045	-200,000	-0,020	-0,085
-93,030	608,980	-0,029	-0,052
-92,016	-73,256	-0,029	-0,008
-91,001	369,912	0,090	0,133
-89,986	-200,000	-0,016	0,140
-88,972	5,528	0,104	-0,056
-87,957	314,111	-0,009	-0,012
-86,943	189,045	0,119	0,130
-85,928	-200,000	-0,009	-0,085
-84,913	12,790	0,039	-0,022
-83,899	800,000	-0,050	-0,104
-82,884	-200,000	0,018	0,115
-81,870	232,169	-0,046	0,055
-80,855	-106,733	0,092	0,015
-79,840	57,572	0,146	0,103
-78,826	-200,000	-0,005	-0,028
-77,811	-200,000	-0,011	-0,067
-76,797	132,193	-0,031	-0,029
-75,782	-200,000	0,004	0,012
-74,767	440,494	0,020	0,031
-73,753	380,407	0,083	0,124
-72,738	800,000	0,024	-0,067
-71,724	-167,729	0,099	-0,003
-70,709	-200,000	-0,006	-0,104
-69,694	63,554	-0,103	-0,075
-68,680	-108,067	0,038	-0,006
-67,665	18,208	0,085	-0,049
-66,651	-28,562	-0,076	-0,032
-65,636	614,329	0,052	-0,096
-64,622	292,402	-0,056	0,074
-63,607	40,558	-0,092	-0,060
-62,592	-188,523	0,033	0,000
-61,578	45,403	-0,078	-0,052
-60,563	-200,000	0,043	0,172
-59,549	48,142	-0,085	0,057
-58,534	-104,459	-1,019	0,169
-57,519	437,180	-1,067	-1,692
-56,505	-200,000	-0,623	-4,366
-55,490	105,294	0,621	-0,532
-54,476	800,000	4,647	11,550
-53,461	-200,000	11,813	225,789
-52,446	-200,000	674,186	2194,111
-51,432	589,620	1621,251	2909,708
-50,417	124,436	1651,158	1505,806
-49,403	77,959	1306,806	1009,239
-48,388	41,480	1038,889	680,371
-47,373	26,539	994,632	601,821
-46,359	25,684	984,791	593,012
-45,344	24,993	980,416	588,071
-44,330	24,851	979,015	586,740
-43,315	24,759	977,427	585,461
-42,300	24,756	976,494	584,871
-41,286	24,802	975,454	584,374
-40,271	24,784	974,368	583,641
-39,257	24,781	973,502	583,089
-38,242	24,782	972,768	582,632
-37,227	24,756	971,808	581,946
-36,213	24,665	971,141	581,227
-35,198	24,729	969,958	580,706
-34,184	24,812	969,185	580,489
-33,169	24,745	968,111	579,605
-32,154	24,798	967,162	579,188
-31,140	24,769	966,327	578,569
-30,125	24,803	965,703	578,284
-29,111	24,823	964,800	577,787
-28,096	24,799	964,036	577,226
-27,082	24,803	963,389	576,829
-26,067	24,823	962,716	576,469
-25,052	24,757	962,023	575,816
-24,038	24,811	961,350	575,566
-23,023	24,773	960,599	574,971
-22,009	24,756	959,950	574,504
-20,994	24,766	959,365	574,165
-19,979	24,841	958,605	573,930
-18,965	24,828	957,932	573,462
-17,950	24,799	957,302	572,968
-16,936	24,792	956,578	572,487
-15,921	24,702	955,873	571,755
-14,906	24,650	955,238	571,185
-13,892	24,710	954,460	570,888
-12,877	24,703	953,963	570,547
-11,863	24,677	953,352	570,075
-10,848	24,670	952,732	569,658
-9,833	24,797	952,407	569,851
-8,819	24,688	951,823	569,128
-7,804	24,708	951,017	568,688
-6,790	24,664	950,515	568,225
-5,775	24,689	949,799	567,855
-4,760	24,683	949,267	567,493
-3,746	24,661	948,836	567,145
-2,731	24,598	948,037	566,444
-1,717	24,474	947,301	565,585
-0,702	24,517	946,667	565,320
0,313	24,251	946,004	564,932
1,327	26,831	943,667	571,680
2,342	35,147	823,407	521,680
3,356	31,286	518,311	321,679
4,371	6,835	377,390	202,953
5,386	3,761	359,729	189,646
6,400	2,266	353,637	184,603
7,415	1,153	350,834	181,781
8,429	1,064	349,169	180,796
9,444	0,950	348,162	180,122
10,459	0,887	347,634	179,757
11,473	0,888	346,988	179,408
12,488	1,188	346,373	179,432
13,502	1,246	345,709	179,141
14,517	0,962	345,359	178,606
15,531	0,840	344,533	178,019
16,546	0,578	344,256	177,550
17,561	0,533	343,720	177,205
18,575	0,875	343,296	177,374
19,590	0,827	342,856	177,074
20,604	0,548	342,653	176,625
21,619	0,616	342,286	176,499
22,634	0,633	341,795	176,250
23,648	0,612	341,443	176,029
24,663	0,705	341,138	175,965
25,677	0,589	340,955	175,719
26,692	0,606	340,571	175,526
27,707	0,708	340,219	175,448
28,721	0,645	339,928	175,208
29,736	0,561	339,666	174,960
30,750	0,534	339,336	174,743
31,765	0,589	338,924	174,579
32,780	0,573	338,729	174,445
33,794	0,538	338,538	174,290
34,809	0,483	338,225	174,049
35,823	0,677	337,821	174,050
36,838	0,592	337,654	173,851
37,853	0,542	337,295	173,592
38,867	0,540	337,083	173,465
39,882	0,473	336,854	173,254
40,896	0,533	336,565	173,159
41,911	0,342	336,354	172,815
42,926	0,548	335,903	172,805
43,940	0,437	335,627	172,520
44,955	0,418	335,389	172,362
45,969	0,451	335,007	172,188
46,984	0,235	334,838	171,837
47,999	0,061	334,444	171,420
49,013	-0,001	334,149	171,183
50,028	-0,224	333,930	170,800
51,042	-0,204	333,671	170,675
52,057	-0,311	333,268	170,332
53,071	-0,167	332,921	170,303
54,086	-0,224	332,884	170,205
55,101	-0,135	332,628	170,159
56,115	0,040	332,495	170,276
57,130	0,559	332,518	170,863
58,144	0,631	332,107	170,718
59,159	0,736	331,966	170,750
60,174	0,762	331,684	170,620
61,188	0,905	331,334	170,586
62,203	0,778	331,214	170,365
63,217	0,749	330,911	170,162
64,232	0,810	330,585	170,048
65,247	0,835	330,543	170,039
66,261	0,699	330,069	169,626
67,276	0,514	329,759	169,244
68,290	0,341	329,386	168,842
69,305	0,600	329,077	168,960
70,320	0,377	328,937	168,622
71,334	0,539	328,728	168,682
72,349	0,841	328,571	168,927
73,363	0,824	328,318	168,761
74,378	0,653	328,042	168,414
75,393	0,821	327,887	168,507
76,407	0,666	327,766	168,257
77,422	0,688	327,245	167,998
78,436	0,748	327,091	167,971
79,451	0,834	326,815	167,910
80,466	0,519	326,538	167,402
81,480	0,503	326,194	167,193
82,495	0,402	325,936	166,933
83,509	0,471	325,944	166,999
84,524	0,318	325,430	166,551
85,539	0,195	325,142	166,252
86,553	0,228	324,846	166,123
87,568	0,354	324,697	166,171
88,582	0,346	324,539	166,067
89,597	0,316	324,241	165,866
90,611	0,441	324,165	165,950
91,626	0,708	324,035	166,164
92,641	0,543	323,548	165,718
93,655	0,472	323,481	165,591
94,670	0,597	323,139	165,538
95,684	0,509	322,804	165,255
96,699	0,400	322,762	165,099
97,714	0,497	322,399	165,005
98,728	0,244	322,066	164,542
99,743	0,254	321,827	164,416
100,757	0,154	321,667	164,210
101,772	0,308	321,463	164,261
102,787	0,311	321,211	164,120
103,801	0,464	321,070	164,201
104,816	0,405	320,977	164,074
105,830	0,710	320,730	164,267
106,845	0,620	320,530	164,051
107,860	0,553	320,370	163,881
108,874	0,596	319,926	163,687
109,889	0,460	319,820	163,470
110,903	0,392	319,460	163,197
111,918	0,494	319,143	163,131
112,933	0,494	319,065	163,077
113,947	0,670	318,772	163,104
114,962	0,651	318,601	162,981
115,976	0,630	318,376	162,828
116,991	0,621	318,174	162,701
118,006	0,471	317,956	162,413
119,020	0,683	317,847	162,572
120,035	0,766	317,729	162,588
121,049	0,809	317,381	162,441
122,064	0,546	317,242	162,072
123,079	0,598	316,870	161,923
124,093	0,566	316,663	161,768
125,108	0,418	316,308	161,413
126,122	0,315	316,003	161,133
127,137	-0,002	315,819	160,683
128,151	0,107	315,574	160,662
129,166	0,196	315,408	160,658
130,181	0,227	315,105	160,522
131,195	0,164	314,750	160,261
132,210	0,404	314,732	160,493
133,224	0,471	314,572	160,469
134,239	0,708	314,381	160,611
135,254	0,590	314,204	160,380
136,268	0,442	313,933	160,070
137,283	0,225	313,635	159,672
138,297	-0,014	313,351	159,259
139,312	0,051	313,081	159,176
140,327	0,434	313,049	159,554
141,341	0,756	312,856	159,783
142,356	1,084	312,739	160,057
143,370	1,017	312,656	159,930
144,385	1,100	312,351	159,847
145,400	0,924	312,098	159,518
146,414	0,935	311,918	159,422
147,429	0,860	311,790	159,263
148,443	0,836	311,531	159,092
149,458	0,962	311,235	159,059
150,473	1,111	311,093	159,130
151,487	0,982	310,834	158,847
152,502	0,910	310,614	158,644
153,516	0,917	310,405	158,532
154,531	1,055	310,037	158,474
155,546	0,899	310,001	158,278
156,560	0,971	309,733	158,202
157,575	0,782	309,551	157,897
158,589	0,903	309,193	157,827
159,604	1,064	309,069	157,919
160,619	0,886	308,993	157,679
161,633	0,973	308,546	157,528
162,648	0,897	308,367	157,343
163,662	0,915	308,282	157,304
164,677	0,953	308,263	157,321
165,692	1,000	307,994	157,219
166,706	0,994	307,642	157,018
167,721	0,925	307,532	156,876
168,735	0,822	307,324	156,649
169,750	0,958	307,120	156,672
170,764	1,042	306,930	156,649
171,779	1,048	306,823	156,586
172,794	1,113	306,600	156,526
173,808	1,023	306,249	156,240
174,823	0,695	305,805	155,660
175,837	0,362	305,570	155,182
176,852	0,896	305,455	155,662
177,867	1,186	305,366	155,902
178,881	1,164	305,339	155,852
179,896	1,055	305,215	155,662
180,910	1,233	304,800	155,621
181,925	1,152	304,702	155,472
182,940	1,151	304,537	155,374
183,954	1,078	304,335	155,181
184,969	0,984	304,091	154,946
185,983	1,051	303,831	154,869
186,998	1,129	303,708	154,873
188,013	1,175	303,300	154,698
189,027	1,171	303,210	154,634
190,042	1,219	303,106	154,616
191,056	1,204	302,947	154,507
192,071	1,319	302,683	154,476
193,086	1,238	302,617	154,345
194,100	1,139	302,350	154,094
195,115	1,565	302,080	154,378
196,129	1,075	301,784	153,713
197,144	1,217	301,564	153,732
198,159	1,271	301,368	153,673
199,173	1,147	301,236	153,466
200,188	1,365	301,137	153,624
201,202	1,125	300,716	153,151
202,217	0,552	300,208	152,298
203,232	0,516	300,122	152,204
204,246	0,842	300,091	152,505
205,261	1,000	299,965	152,588
206,275	1,100	299,876	152,630
207,290	1,329	299,487	152,650
208,304	1,156	299,316	152,375
209,319	1,176	299,149	152,296
210,334	1,210	298,983	152,233
211,348	1,263	298,720	152,138
212,363	1,295	298,427	152,008
213,377	1,215	298,428	151,915
214,392	1,030	298,220	151,609
215,407	0,982	297,970	151,420
216,421	0,685	297,681	150,961
217,436	0,849	297,383	150,961
218,450	0,952	297,315	151,016
219,465	0,989	297,239	151,002
220,480	1,209	296,981	151,077
221,494	1,091	296,754	150,830
222,509	1,041	296,573	150,674
223,523	1,103	296,584	150,729
224,538	1,244	296,440	150,783
225,553	1,343	296,113	150,702
226,567	1,312	295,977	150,589
227,582	1,545	295,649	150,640
228,596	1,255	295,624	150,325
229,611	1,357	295,462	150,331
230,626	1,264	295,229	150,107
231,640	0,853	294,825	149,480
232,655	0,431	294,544	148,905
233,669	0,506	294,188	148,786
234,684	0,406	294,019	148,588
235,699	0,499	293,931	148,622
236,713	0,681	293,767	148,706
237,728	0,734	293,691	148,707
238,742	1,123	293,412	148,937
239,757	1,246	293,374	149,026
240,772	1,358	293,067	148,967
241,786	1,182	292,902	148,696
242,801	0,920	292,711	148,328
243,815	0,888	292,617	148,236
244,830	0,872	292,471	148,133
245,844	0,901	292,202	148,012
246,859	0,913	291,945	147,880
247,874	0,802	291,881	147,726
248,888	0,773	291,673	147,578
249,903	1,151	291,491	147,844
250,917	1,195	291,502	147,879
251,932	1,234	291,289	147,796
252,947	2,049	291,404	148,641
253,961	1,928	291,104	148,356
254,976	2,118	291,188	148,572
255,990	3,392	291,303	149,863
257,005	3,991	291,574	150,576
258,020	4,705	291,571	151,260
259,034	4,360	291,257	150,746
260,049	4,317	291,106	150,612
261,063	4,121	290,744	150,221
262,078	4,373	290,682	150,421
263,093	5,043	290,769	151,106
264,107	4,980	290,546	150,915
265,122	5,074	290,455	150,946
266,136	5,350	290,375	151,159
267,151	5,282	290,159	150,967
268,166	4,973	289,789	150,462
269,180	4,815	289,526	150,158
270,195	4,968	289,428	150,242
271,209	5,016	289,154	150,133
272,224	4,948	288,930	149,938
273,239	4,594	288,901	149,567
274,253	4,887	288,652	149,708
275,268	5,344	288,573	150,094
276,282	5,219	288,375	149,858
277,297	5,243	288,221	149,787
278,312	5,370	288,150	149,859
279,326	5,090	287,783	149,386
280,341	4,831	287,625	149,041
281,355	4,850	287,356	148,907
282,370	4,714	287,111	148,635
283,384	4,589	286,740	148,310
284,399	4,854	286,777	148,570
285,414	4,873	286,629	148,498
286,428	4,811	286,469	148,343
287,443	4,563	286,153	147,929
288,457	4,325	286,013	147,615
289,472	4,612	285,758	147,746
290,487	4,607	285,484	147,586
291,501	4,458	285,250	147,310
292,516	4,197	285,171	147,006
293,530	4,278	284,928	146,946
294,545	4,485	284,966	147,149
295,560	4,662	284,683	147,159
296,574	4,458	284,377	146,793
297,589	4,501	284,263	146,762
298,603	4,989	284,317	147,240
299,618	4,920	284,045	147,021
300,633	4,801	283,901	146,820
301,647	4,696	283,744	146,627
302,662	4,875	283,362	146,586
303,676	4,673	283,119	146,256
304,691	4,269	283,054	145,827
305,706	4,150	282,767	145,554
306,720	4,327	282,633	145,639
307,735	4,344	282,448	145,547
308,749	4,618	282,212	145,670
309,764	4,530	282,123	145,528
310,779	4,506	281,937	145,398
311,793	4,213	281,548	144,908
312,808	4,240	281,440	144,865
313,822	4,403	281,223	144,893
314,837	4,440	281,106	144,855
315,852	4,210	280,846	144,492
316,866	4,331	280,621	144,477
317,881	4,413	280,625	144,543
318,895	4,535	280,413	144,535
319,910	4,076	280,159	143,962
320,925	3,935	280,120	143,797
321,939	4,243	279,772	143,894
322,954	4,554	279,661	144,114
323,968	4,503	279,691	144,068
324,983	4,705	279,324	144,055
325,997	4,519	279,343	143,879
327,012	4,771	279,099	143,975
328,027	4,807	278,898	143,891
329,041	4,502	278,752	143,520
330,056	4,553	278,494	143,421
331,070	4,375	278,480	143,236
332,085	4,430	278,075	143,067
333,100	4,537	278,043	143,137
334,114	4,550	277,771	142,996
335,129	4,108	277,610	142,491
336,143	4,553	277,515	142,841
337,158	4,887	277,398	143,076
338,173	4,512	277,063	142,545
339,187	4,375	276,908	142,326
340,202	4,467	276,696	142,290
341,216	4,699	276,595	142,438
342,231	4,524	276,490	142,211
343,246	4,609	276,225	142,140
344,260	4,545	276,018	141,962
345,275	4,544	276,026	141,952
346,289	4,894	275,849	142,170
347,304	4,836	275,693	142,023
348,319	4,598	275,465	141,675
349,333	4,535	275,314	141,528
350,348	4,797	275,117	141,653
351,362	4,887	275,028	141,677
352,377	4,923	274,752	141,555
353,392	4,915	274,634	141,474
354,406	4,775	274,716	141,376
355,421	191,247	1336,001	1414,100
356,435	154,533	1465,445	1414,259
