DTS Sentinel unit serial number:	SN410029Multiplexer serial number:	ORYXHardware model number:	OX2-SRSoftware version number:	ORYX F/W v4,00 Oryx Data Collector v3.7.2.0data status	okinstallation	B4 Nyhavnadifferential loss correction	single-endedforward channel	channel 2reverse channel	N/Adate	2023/12/15time	15:30:13forward acquisition time	300,00reverse acquisition time	0,00gamma	499,1914k internal	0,3153k external	0,3153temperature offset calibration	1,0000default loss term (dB/km)	0,3820temperature slope calibration	1,0000multiplexer offset coefficient	1,0000multiplexer slope coefficient	1,0000fibre end	0,00T internal ref (°C)	16,39T ext. ref 1 (°C)	2,76T ext. ref 2 (°C)	2,89length (m)	temperature (°C)	Stokes	anti-Stokes-744,400	-200,000	-0,009	0,061
-743,385	181,835	-0,132	0,144
-742,371	42,325	0,082	0,055
-741,356	23,178	-0,194	0,117
-740,342	-0,393	0,096	0,050
-739,327	-154,719	-0,275	0,013
-738,312	-200,000	-0,002	0,094
-737,298	-0,107	-0,144	0,075
-736,283	-1,916	0,219	0,113
-735,269	-27,105	-0,258	-0,111
-734,254	-20,269	0,075	0,034
-733,239	-120,055	-0,514	-0,064
-732,225	-89,831	0,225	0,048
-731,210	-16,960	0,008	-0,004
-730,196	23,373	0,070	-0,042
-729,181	-117,528	-0,030	-0,004
-728,167	-188,879	-0,043	0,000
-727,152	55,296	0,069	-0,049
-726,137	109,761	-0,072	0,064
-725,123	225,468	-0,070	-0,084
-724,108	-62,703	-0,173	0,053
-723,094	-108,994	-0,124	0,019
-722,079	800,000	-0,079	-0,173
-721,064	-128,632	-0,046	0,005
-720,050	-94,867	0,145	0,029
-719,035	26,023	-0,146	0,090
-718,021	761,166	0,091	-0,182
-717,006	-131,421	-0,121	-0,012
-715,991	33,862	-0,047	-0,030
-714,977	446,370	-0,124	-0,201
-713,962	84,471	0,017	0,014
-712,948	65,729	-0,048	-0,036
-711,933	-200,000	0,003	-0,012
-710,918	-200,000	0,009	-0,048
-709,904	-16,014	-0,142	-0,066
-708,889	-29,960	0,128	0,053
-707,875	-137,890	-0,233	-0,019
-706,860	-41,335	-0,091	0,034
-705,845	483,623	0,047	0,079
-704,831	-200,000	-0,012	-0,058
-703,816	84,009	-0,098	0,079
-702,802	-200,000	-0,002	-0,036
-701,787	800,000	0,063	-0,143
-700,772	-200,000	-0,004	0,131
-699,758	-115,203	-0,076	-0,010
-698,743	-200,000	0,005	0,038
-697,729	8,622	-0,072	-0,040
-696,714	437,633	-0,050	0,081
-695,699	164,604	-0,057	0,059
-694,685	-200,000	0,015	-0,053
-693,670	800,000	-0,033	0,104
-692,656	-78,605	0,093	-0,023
-691,641	-14,435	-0,003	0,001
-690,627	-67,757	0,068	-0,020
-689,612	241,972	-0,082	0,101
-688,597	-66,972	-0,027	0,008
-687,583	463,013	-0,028	-0,046
-686,568	60,470	-0,157	-0,114
-685,554	-107,181	-0,058	0,009
-684,539	460,552	-0,017	-0,029
-683,524	-24,734	-0,133	-0,058
-682,510	8,430	0,080	-0,044
-681,495	-200,000	-0,008	-0,056
-680,481	39,424	-0,079	0,052
-679,466	-96,357	-0,156	-0,030
-678,451	-86,321	-0,054	0,012
-677,437	-200,000	-0,010	-0,039
-676,422	-134,001	-0,063	0,006
-675,408	-200,000	-0,003	-0,015
-674,393	526,598	0,041	0,071
-673,378	-12,659	-0,125	-0,060
-672,364	-74,181	-0,143	-0,038
-671,349	-200,000	0,004	-0,043
-670,335	164,189	-0,102	-0,106
-669,320	355,582	0,091	-0,134
-668,305	426,856	-0,062	-0,098
-667,291	-31,163	0,120	0,049
-666,276	-36,159	0,079	0,031
-665,262	13,476	-0,109	-0,062
-664,247	-77,066	0,034	-0,009
-663,232	163,999	0,115	0,120
-662,218	2,626	-0,059	-0,031
-661,203	542,561	-0,060	0,106
-660,189	-158,019	0,143	0,006
-659,174	-200,000	-0,009	-0,091
-658,159	104,741	0,130	-0,112
-657,145	-28,198	-0,095	0,040
-656,130	431,834	0,028	0,046
-655,116	-200,000	0,005	0,034
-654,101	-174,638	0,140	-0,003
-653,086	800,000	0,027	-0,060
-652,072	-200,000	-0,004	-0,137
-651,057	52,395	-0,080	-0,056
-650,043	-200,000	0,007	-0,038
-649,028	-200,000	-0,008	-0,062
-648,014	69,893	0,122	-0,092
-646,999	-200,000	-0,012	0,045
-645,984	-165,773	-0,037	-0,001
-644,970	77,889	-0,107	0,084
-643,955	329,573	-0,042	0,059
-642,941	-200,000	-0,019	0,091
-641,926	-179,483	-0,121	-0,002
-640,911	213,192	0,061	-0,071
-639,897	318,550	-0,057	0,080
-638,882	44,956	-0,054	0,036
-637,868	82,089	-0,039	-0,031
-636,853	-113,797	-0,068	-0,010
-635,838	-20,053	-0,073	-0,033
-634,824	443,038	-0,035	0,056
-633,809	93,680	-0,014	0,012
-632,795	800,000	0,015	-0,034
-631,780	149,225	-0,053	0,052
-630,765	32,936	0,047	-0,030
-629,751	-0,545	-0,074	-0,039
-628,736	800,000	-0,034	0,079
-627,722	-120,857	-0,056	-0,007
-626,707	-200,000	0,004	-0,014
-625,692	-200,000	-0,003	-0,034
-624,678	-165,883	0,096	0,003
-623,663	-116,307	-0,133	-0,018
-622,649	-200,000	-0,041	-0,134
-621,634	269,312	-0,075	-0,097
-620,619	42,806	-0,065	0,043
-619,605	800,000	0,050	-0,128
-618,590	52,114	0,090	0,063
-617,576	345,225	0,030	0,043
-616,561	800,000	0,015	-0,036
-615,546	-32,412	-0,110	0,045
-614,532	-200,000	-0,021	-0,114
-613,517	524,237	-0,047	0,082
-612,503	-200,000	0,023	-0,085
-611,488	-200,000	0,000	0,030
-610,474	-129,260	0,070	-0,007
-609,459	275,825	0,066	-0,086
-608,444	89,160	0,068	-0,055
-607,430	-82,663	-0,066	-0,016
-606,415	1,205	0,024	-0,013
-605,401	800,000	-0,008	0,026
-604,386	800,000	0,024	-0,075
-603,371	68,277	-0,008	-0,006
-602,357	3,448	-0,092	0,049
-601,342	-89,818	0,041	0,009
-600,328	140,929	-0,077	-0,075
-599,313	501,186	0,047	0,081
-598,298	-200,000	-0,003	-0,010
-597,284	-123,438	-0,060	0,007
-596,269	-55,118	-0,028	0,009
-595,255	-98,349	0,051	0,010
-594,240	-81,612	0,117	0,028
-593,225	-8,833	-0,036	-0,018
-592,211	-157,479	-0,069	-0,003
-591,196	36,117	0,066	0,042
-590,182	345,941	0,015	0,022
-589,167	-25,737	0,042	-0,018
-588,152	54,586	-0,094	0,066
-587,138	479,214	0,073	-0,121
-586,123	84,275	-0,043	-0,034
-585,109	662,340	-0,072	-0,137
-584,094	-200,000	-0,002	-0,044
-583,079	800,000	-0,011	0,028
-582,065	11,962	0,060	-0,034
-581,050	7,689	-0,117	-0,064
-580,036	-54,855	0,127	0,042
-579,021	211,903	-0,151	-0,175
-578,006	-74,630	-0,060	0,016
-576,992	-69,302	0,137	-0,038
-575,977	-200,000	-0,025	0,098
-574,963	-80,064	-0,056	-0,014
-573,948	209,812	-0,087	0,100
-572,934	800,000	0,027	-0,071
-571,919	800,000	-0,055	-0,144
-570,904	58,249	0,082	0,059
-569,890	192,949	0,043	-0,048
-568,875	800,000	-0,034	0,087
-567,861	-200,000	0,014	0,078
-566,846	800,000	0,058	0,125
-565,831	237,446	-0,052	-0,063
-564,817	-136,937	0,008	0,001
-563,802	-87,810	-0,126	0,028
-562,788	-200,000	-0,009	-0,169
-561,773	800,000	-0,022	-0,054
-560,758	139,495	0,065	-0,062
-559,744	169,687	0,044	-0,046
-558,729	-101,139	-0,161	0,029
-557,715	-78,470	-0,103	-0,026
-556,700	800,000	0,045	-0,100
-555,685	-200,000	-0,001	-0,022
-554,671	-29,663	0,083	0,035
-553,656	-200,000	0,002	0,032
-552,642	-88,855	0,103	-0,022
-551,627	133,792	-0,109	0,104
-550,612	-98,657	-0,072	0,013
-549,598	459,797	-0,066	-0,108
-548,583	285,567	-0,068	-0,090
-547,569	800,000	0,020	0,060
-546,554	800,000	-0,013	-0,031
-545,539	-92,688	0,093	0,019
-544,525	173,112	0,067	0,070
-543,510	-200,000	-0,021	0,085
-542,496	800,000	-0,024	0,051
-541,481	502,347	-0,050	0,085
-540,466	-200,000	-0,016	0,118
-539,452	-48,346	-0,078	-0,027
-538,437	-200,000	-0,015	0,179
-537,423	800,000	-0,033	0,078
-536,408	221,172	0,037	-0,044
-535,393	-13,121	-0,095	-0,045
-534,379	-18,421	0,163	-0,074
-533,364	327,496	-0,064	-0,089
-532,350	473,725	-0,041	0,068
-531,335	130,672	0,131	0,123
-530,321	37,252	0,152	0,098
-529,306	80,053	-0,048	-0,038
-528,291	24,799	-0,121	0,073
-527,277	-15,872	0,078	0,036
-526,262	-200,000	0,010	-0,034
-525,248	97,154	0,096	0,080
-524,233	-200,000	0,009	0,093
-523,218	-42,577	0,162	0,060
-522,204	365,311	-0,046	0,068
-521,189	29,636	0,058	0,036
-520,175	-200,000	0,034	-0,217
-519,160	-62,070	0,081	0,025
-518,145	-200,000	0,003	0,031
-517,131	-107,828	0,017	-0,003
-516,116	-46,038	0,089	0,032
-515,102	617,919	0,060	-0,110
-514,087	-101,673	-0,130	0,023
-513,072	-67,030	-0,074	-0,021
-512,058	-134,816	0,092	0,008
-511,043	195,025	0,034	0,037
-510,029	800,000	-0,013	-0,037
-509,014	45,935	0,076	0,052
-507,999	134,338	0,019	0,018
-506,985	-200,000	-0,017	0,185
-505,970	-200,000	0,010	0,042
-504,956	-131,767	-0,025	0,002
-503,941	-115,706	0,141	0,019
-502,926	800,000	-0,040	-0,082
-501,912	-200,000	0,015	0,186
-500,897	163,212	-0,099	-0,102
-499,883	145,734	-0,007	0,007
-498,868	628,452	0,014	0,026
-497,853	-65,167	0,148	0,043
-496,839	79,592	-0,066	0,052
-495,824	800,000	0,058	-0,151
-494,810	-200,000	0,007	0,070
-493,795	-200,000	-0,020	0,091
-492,781	176,797	0,028	-0,030
-491,766	-46,074	-0,067	0,024
-490,751	-97,105	-0,120	0,023
-489,737	-48,420	-0,115	0,040
-488,722	-200,000	0,012	-0,071
-487,708	71,954	0,122	0,092
-486,693	362,744	0,067	0,099
-485,678	271,004	0,063	-0,081
-484,664	2,452	-0,037	0,019
-483,649	648,456	0,099	-0,185
-482,635	46,001	-0,079	0,053
-481,620	800,000	0,008	0,026
-480,605	-200,000	-0,002	0,159
-479,591	-200,000	0,055	-0,182
-478,576	800,000	-0,041	0,091
-477,562	233,172	-0,067	0,081
-476,547	-200,000	0,000	-0,069
-475,532	787,889	0,048	0,097
-474,518	800,000	0,025	0,051
-473,503	25,105	-0,079	0,048
-472,489	800,000	0,035	0,108
-471,474	-16,594	-0,052	0,024
-470,459	-13,046	-0,087	0,041
-469,445	800,000	0,032	-0,088
-468,430	-110,186	0,098	-0,015
-467,416	-200,000	0,005	0,126
-466,401	6,213	-0,048	-0,026
-465,386	-200,000	-0,017	0,071
-464,372	216,685	0,070	-0,082
-463,357	11,491	-0,133	-0,074
-462,343	-46,084	0,104	-0,037
-461,328	-200,000	0,004	-0,130
-460,313	-32,348	0,067	0,027
-459,299	800,000	0,043	0,089
-458,284	-200,000	0,012	-0,072
-457,270	2,004	0,074	-0,039
-456,255	800,000	0,030	-0,061
-455,241	11,599	-0,086	-0,048
-454,226	-200,000	-0,022	-0,081
-453,211	609,848	0,044	-0,080
-452,197	-200,000	0,014	0,139
-451,182	-0,208	-0,031	0,016
-450,168	496,517	0,090	0,152
-449,153	76,272	-0,056	0,043
-448,138	-26,754	0,036	0,015
-447,124	749,176	-0,075	-0,148
-446,109	179,381	-0,092	-0,099
-445,095	337,190	0,062	0,089
-444,080	303,617	0,062	0,084
-443,065	-47,983	-0,140	0,049
-442,051	78,440	-0,082	-0,064
-441,036	-102,940	0,045	-0,008
-440,022	-3,131	0,078	-0,040
-439,007	-96,771	-0,062	-0,012
-437,992	63,465	-0,026	-0,019
-436,978	-200,000	0,023	0,099
-435,963	-200,000	-0,032	0,204
-434,949	800,000	0,035	0,105
-433,934	800,000	0,019	0,043
-432,919	800,000	0,104	-0,239
-431,905	-200,000	0,004	-0,027
-430,890	-99,784	-0,019	-0,003
-429,876	-43,764	-0,063	0,023
-428,861	800,000	-0,032	0,080
-427,846	-200,000	0,015	-0,070
-426,832	-39,881	-0,081	-0,031
-425,817	362,482	-0,029	0,042
-424,803	-74,249	0,139	0,036
-423,788	34,310	0,093	-0,059
-422,773	800,000	-0,032	-0,087
-421,759	247,048	0,083	0,102
-420,744	162,667	-0,036	-0,037
-419,730	-38,881	-0,164	0,063
-418,715	473,397	0,068	-0,112
-417,701	126,810	0,105	-0,097
-416,686	-84,029	0,022	0,005
-415,671	-64,263	0,055	-0,016
-414,657	321,723	0,089	0,123
-413,642	-200,000	-0,002	-0,056
-412,628	100,646	-0,018	-0,016
-411,613	99,917	-0,042	-0,036
-410,598	-200,000	-0,011	0,135
-409,584	-94,356	0,133	-0,026
-408,569	247,507	-0,035	0,043
-407,555	-200,000	0,012	0,122
-406,540	186,317	-0,036	0,039
-405,525	800,000	0,014	-0,041
-404,511	-57,135	0,140	-0,045
-403,496	111,857	-0,139	-0,122
-402,482	-4,811	0,141	0,071
-401,467	328,045	0,041	0,058
-400,452	217,070	0,029	-0,034
-399,438	-26,826	0,064	0,027
-398,423	-32,844	0,010	0,004
-397,409	-8,483	-0,063	-0,031
-396,394	800,000	-0,046	-0,125
-395,379	-123,706	0,085	0,010
-394,365	81,523	0,135	0,107
-393,350	315,642	-0,031	0,043
-392,336	-200,000	0,028	-0,142
-391,321	781,352	0,090	-0,180
-390,306	218,698	-0,061	-0,071
-389,292	210,570	0,097	-0,111
-388,277	-101,011	-0,016	-0,003
-387,263	-12,430	0,076	0,036
-386,248	52,187	-0,055	0,038
-385,233	-123,950	0,021	0,002
-384,219	800,000	0,042	0,091
-383,204	204,893	-0,035	-0,039
-382,190	151,468	0,092	0,092
-381,175	15,784	0,048	-0,027
-380,160	-174,837	-0,115	0,002
-379,146	800,000	0,089	0,184
-378,131	-200,000	0,007	0,163
-377,117	233,341	-0,016	0,019
-376,102	-200,000	-0,017	-0,061
-375,088	-163,527	0,024	0,001
-374,073	-19,281	0,071	0,032
-373,058	250,044	0,086	0,107
-372,044	800,000	-0,025	0,070
-371,029	-200,000	0,011	0,081
-370,015	0,787	0,061	-0,032
-369,000	-200,000	0,000	-0,077
-367,985	86,770	-0,055	-0,044
-366,971	800,000	-0,036	-0,079
-365,956	-145,119	-0,034	0,002
-364,942	-103,432	-0,023	0,004
-363,927	341,766	0,124	0,177
-362,912	-200,000	0,056	-0,211
-361,898	-105,746	-0,075	0,012
-360,883	-64,608	0,150	-0,044
-359,869	237,273	-0,018	0,021
-358,854	-200,000	0,008	0,081
-357,839	-154,978	0,107	-0,005
-356,825	-197,129	0,036	0,000
-355,810	309,233	-0,044	0,060
-354,796	516,130	0,047	-0,081
-353,781	-200,000	-0,013	-0,082
-352,766	66,184	0,040	-0,030
-351,752	-200,000	0,018	-0,100
-350,737	489,590	-0,018	0,030
-349,723	53,762	0,088	0,061
-348,708	-200,000	-0,006	-0,031
-347,693	72,942	0,060	-0,046
-346,679	-77,029	-0,116	0,029
-345,664	800,000	-0,032	-0,096
-344,650	-200,000	0,002	0,074
-343,635	289,373	-0,049	0,064
-342,620	800,000	-0,066	0,136
-341,606	-12,395	0,046	-0,022
-340,591	-71,388	-0,070	-0,019
-339,577	-200,000	0,043	-0,161
-338,562	-13,205	0,063	0,030
-337,548	-200,000	0,008	0,046
-336,533	19,163	0,085	0,049
-335,518	181,576	0,068	0,072
-334,504	-50,265	0,056	-0,019
-333,489	123,564	0,067	-0,061
-332,475	-38,563	0,097	0,037
-331,460	800,000	-0,016	0,034
-330,445	800,000	0,016	-0,047
-329,431	-200,000	0,007	0,070
-328,416	-54,957	-0,004	-0,001
-327,402	-165,143	-0,053	0,002
-326,387	800,000	-0,050	-0,119
-325,372	-186,691	0,037	0,000
-324,358	-200,000	-0,002	0,075
-323,343	39,893	0,114	-0,074
-322,329	171,002	0,079	0,082
-321,314	252,141	0,094	0,116
-320,299	570,737	-0,062	0,111
-319,285	254,307	0,112	-0,139
-318,270	235,575	0,020	-0,024
-317,256	121,494	-0,100	-0,090
-316,241	-200,000	-0,008	-0,104
-315,226	-103,632	0,074	-0,012
-314,212	800,000	0,008	-0,022
-313,197	-200,000	0,029	0,124
-312,183	225,326	-0,087	-0,102
-311,168	-96,598	-0,056	-0,011
-310,153	-83,687	0,100	-0,023
-309,139	-200,000	0,000	0,061
-308,124	-23,108	0,131	-0,057
-307,110	800,000	-0,033	-0,092
-306,095	-59,405	0,076	0,024
-305,080	-39,669	-0,026	0,010
-304,066	260,480	-0,049	0,062
-303,051	-123,295	-0,247	-0,028
-302,037	307,170	-0,067	0,091
-301,022	14,858	0,062	-0,035
-300,008	378,968	0,043	0,064
-298,993	35,804	-0,063	-0,040
-297,978	-60,131	0,105	0,032
-296,964	-160,577	-0,152	0,006
-295,949	-95,031	-0,045	0,009
-294,935	322,147	0,067	0,093
-293,920	-87,507	-0,034	0,008
-292,905	-115,219	-0,090	-0,012
-291,891	-59,884	0,082	0,025
-290,876	39,176	0,128	0,083
-289,862	-200,000	0,000	-0,037
-288,847	553,598	-0,067	-0,117
-287,832	85,879	0,056	0,045
-286,818	-200,000	0,005	-0,082
-285,803	11,343	-0,063	0,035
-284,789	157,521	0,049	0,049
-283,774	67,442	0,104	0,077
-282,759	-53,252	-0,081	-0,027
-281,745	506,006	-0,044	-0,075
-280,730	12,653	-0,198	-0,111
-279,716	800,000	0,016	-0,034
-278,701	163,721	0,053	-0,054
-277,686	-200,000	-0,011	-0,091
-276,672	-38,062	-0,084	-0,032
-275,657	50,012	-0,148	-0,101
-274,643	800,000	0,023	0,051
-273,628	-64,100	-0,030	0,009
-272,613	145,769	-0,070	-0,068
-271,599	28,096	-0,113	-0,069
-270,584	-159,502	0,059	-0,002
-269,570	-178,476	-0,003	0,000
-268,555	512,908	0,041	0,069
-267,540	800,000	0,019	-0,045
-266,526	-45,826	-0,106	0,038
-265,511	800,000	-0,054	0,159
-264,497	594,264	-0,054	0,097
-263,482	-200,000	0,003	0,102
-262,467	68,764	0,085	0,063
-261,453	-200,000	-0,022	0,100
-260,438	96,927	0,109	0,090
-259,424	-10,265	-0,091	-0,043
-258,409	-156,143	-0,066	-0,003
-257,395	-5,842	0,089	-0,044
-256,380	-82,225	-0,067	-0,016
-255,365	269,131	-0,054	0,068
-254,351	21,332	0,045	-0,027
-253,336	-12,561	-0,108	0,051
-252,322	7,453	-0,049	0,026
-251,307	139,212	-0,089	-0,085
-250,292	185,800	-0,065	-0,070
-249,278	374,730	0,069	0,102
-248,263	293,295	0,061	0,081
-247,249	800,000	0,011	-0,032
-246,234	198,378	-0,039	0,044
-245,219	-98,689	-0,124	0,023
-244,205	-200,000	-0,014	-0,157
-243,190	199,685	0,044	0,049
-242,176	-200,000	-0,002	-0,045
-241,161	6,085	0,081	-0,043
-240,146	101,637	-0,013	0,011
-239,132	150,733	-0,033	0,033
-238,117	-141,730	-0,049	0,003
-237,103	182,419	-0,027	-0,029
-236,088	800,000	0,030	0,066
-235,073	-200,000	0,010	0,063
-234,059	-200,000	-0,015	-0,077
-233,044	-75,794	-0,038	0,010
-232,030	-115,142	0,110	0,015
-231,015	725,630	-0,023	0,045
-230,000	318,706	-0,067	-0,093
-228,986	800,000	-0,054	-0,136
-227,971	-200,000	0,001	0,127
-226,957	-200,000	-0,005	0,057
-225,942	80,358	0,113	0,088
-224,927	247,008	-0,048	-0,059
-223,913	436,017	-0,091	-0,143
-222,898	160,056	-0,122	-0,123
-221,884	800,000	0,022	0,052
-220,869	197,320	0,069	0,076
-219,855	-200,000	0,013	0,096
-218,840	-200,000	-0,006	0,061
-217,825	431,966	-0,061	-0,097
-216,811	-7,716	-0,096	-0,047
-215,796	-119,407	-0,089	0,011
-214,782	-68,282	0,057	-0,016
-213,767	-200,000	0,019	0,087
-212,752	87,552	-0,063	0,050
-211,738	22,349	-0,063	0,037
-210,723	279,109	0,062	-0,080
-209,709	800,000	0,030	-0,076
-208,694	-103,974	0,020	0,003
-207,679	800,000	-0,085	0,197
-206,665	800,000	-0,025	0,073
-205,650	-108,337	0,101	0,016
-204,636	-99,481	-0,114	-0,021
-203,621	187,417	-0,047	-0,051
-202,606	193,477	-0,035	-0,039
-201,592	530,029	-0,063	-0,109
-200,577	120,342	0,075	-0,067
-199,563	800,000	-0,043	-0,134
-198,548	-13,906	-0,148	0,069
-197,533	712,853	0,044	0,085
-196,519	139,401	0,085	-0,081
-195,504	57,817	-0,053	-0,037
-194,490	-26,550	-0,124	0,052
-193,475	725,831	-0,051	-0,100
-192,460	-200,000	0,023	-0,080
-191,446	20,290	0,011	0,006
-190,431	-200,000	-0,012	-0,100
-189,417	241,519	0,076	-0,092
-188,402	800,000	-0,026	-0,070
-187,387	-200,000	-0,158	0,000
-186,373	-200,000	0,003	-0,177
-185,358	-200,000	0,010	0,037
-184,344	-118,974	-0,053	-0,007
-183,329	-200,000	-0,012	-0,043
-182,315	274,835	0,057	-0,073
-181,300	800,000	0,062	0,137
-180,285	603,226	-0,035	-0,064
-179,271	109,186	0,071	0,061
-178,256	800,000	-0,020	0,064
-177,242	37,190	0,164	0,105
-176,227	-149,311	-0,100	0,006
-175,212	-15,737	-0,033	-0,015
-174,198	-149,736	-0,080	0,004
-173,183	-33,629	0,037	-0,015
-172,169	13,066	0,067	-0,038
-171,154	607,411	0,023	-0,042
-170,139	-159,149	0,153	-0,006
-169,125	84,274	0,029	0,023
-168,110	69,605	0,053	-0,039
-167,096	238,305	0,073	0,088
-166,081	350,857	-0,060	-0,085
-165,066	-200,000	0,006	-0,084
-164,052	401,133	-0,014	0,021
-163,037	-200,000	0,005	-0,096
-162,023	-200,000	-0,002	-0,063
-161,008	-47,624	-0,069	0,024
-159,993	-22,802	-0,052	0,022
-158,979	-112,516	0,017	0,002
-157,964	800,000	0,082	-0,181
-156,950	-200,000	-0,002	-0,094
-155,935	-130,019	0,081	0,008
-154,920	800,000	-0,032	0,095
-153,906	800,000	-0,020	0,043
-152,891	-200,000	0,005	0,031
-151,877	-156,212	-0,064	0,003
-150,862	-149,423	0,047	-0,003
-149,847	-16,978	-0,158	-0,072
-148,833	-13,104	0,066	0,031
-147,818	800,000	0,076	0,210
-146,804	-200,000	0,008	0,082
-145,789	-63,637	0,134	0,039
-144,775	-200,000	-0,008	-0,101
-143,760	800,000	0,022	0,059
-142,745	-200,000	-0,008	-0,112
-141,731	-119,365	0,021	0,003
-140,716	167,862	-0,020	-0,021
-139,702	-122,941	0,136	-0,016
-138,687	114,296	-0,076	-0,067
-137,672	-21,534	-0,155	0,068
-136,658	-180,825	-0,110	-0,002
-135,643	-200,000	-0,022	-0,108
-134,629	800,000	-0,003	0,007
-133,614	390,100	-0,105	0,158
-132,599	-200,000	0,026	0,159
-131,585	-200,000	0,005	0,109
-130,570	-40,521	-0,111	0,041
-129,556	393,545	-0,032	0,048
-128,541	63,683	-0,035	-0,026
-127,526	800,000	0,087	-0,197
-126,512	-16,503	-0,078	-0,036
-125,497	-54,394	0,094	-0,030
-124,483	569,124	-0,063	-0,110
-123,468	39,512	-0,142	0,091
-122,453	-126,338	-0,048	0,005
-121,439	224,591	0,027	-0,032
-120,424	-200,000	0,011	-0,059
-119,410	384,241	0,071	0,106
-118,395	-95,193	0,047	-0,009
-117,380	-200,000	0,003	-0,019
-116,366	800,000	-0,002	0,005
-115,351	168,880	-0,031	-0,032
-114,337	403,705	-0,069	-0,106
-113,322	11,245	-0,203	0,111
-112,307	417,271	-0,012	-0,018
-111,293	-200,000	0,035	0,171
-110,278	425,081	0,080	0,125
-109,264	84,665	0,054	-0,043
-108,249	70,442	-0,027	0,020
-107,234	-92,549	0,095	-0,019
-106,220	88,405	-0,053	-0,042
-105,205	24,137	0,073	-0,043
-104,191	-194,961	0,089	0,000
-103,176	149,055	-0,093	0,090
-102,162	-68,789	0,137	-0,038
-101,147	-64,088	-0,099	0,029
-100,132	23,078	-0,160	0,094
-99,118	116,050	0,114	-0,100
-98,103	290,950	0,101	0,132
-97,089	62,852	0,046	0,033
-96,074	674,863	0,039	0,073
-95,059	463,718	-0,097	0,157
-94,045	-200,000	-0,024	-0,180
-93,030	297,537	-0,060	-0,080
-92,016	14,586	0,020	-0,011
-91,001	-105,221	0,087	-0,014
-89,986	-200,000	-0,007	0,038
-88,972	-144,257	0,063	-0,004
-87,957	288,447	0,018	-0,024
-86,943	-116,368	0,156	-0,021
-85,928	-200,000	0,010	-0,114
-84,913	25,733	0,046	-0,027
-83,899	153,400	0,081	-0,080
-82,884	-200,000	-0,006	-0,088
-81,870	-200,000	0,027	0,131
-80,855	-49,005	0,097	-0,033
-79,840	-94,053	-0,052	0,010
-78,826	-22,078	-0,079	0,034
-77,811	-200,000	-0,007	-0,029
-76,797	54,400	-0,024	-0,017
-75,782	378,253	-0,051	0,076
-74,767	-34,821	0,050	-0,019
-73,753	616,643	0,021	-0,039
-72,738	396,567	0,063	0,096
-71,724	-137,673	0,021	0,002
-70,709	-200,000	0,007	0,033
-69,694	13,010	0,022	-0,012
-68,680	-96,120	0,145	-0,027
-67,665	10,319	0,080	-0,044
-66,651	238,835	0,094	-0,113
-65,636	4,874	-0,057	-0,030
-64,622	-73,040	-0,053	-0,014
-63,607	-100,790	-0,148	-0,026
-62,592	800,000	0,044	-0,099
-61,578	74,343	0,025	-0,019
-60,563	800,000	0,018	0,051
-59,549	-180,699	-0,042	-0,001
-58,534	-11,637	-1,931	-0,908
-57,519	800,000	-0,428	-1,036
-56,505	-200,000	-1,173	-4,885
-55,490	46,517	0,811	0,540
-54,476	800,000	5,237	11,988
-53,461	-200,000	17,112	275,260
-52,446	800,000	718,562	2192,079
-51,432	537,378	1631,912	2796,619
-50,417	113,362	1626,057	1417,838
-49,403	78,051	1286,261	984,933
-48,388	33,594	1031,269	642,637
-47,373	20,452	993,707	575,705
-46,359	19,062	981,823	564,217
-45,344	16,723	977,676	554,120
-44,330	16,885	976,071	553,718
-43,315	16,487	974,510	551,505
-42,300	16,421	973,387	550,631
-41,286	16,446	972,418	550,145
-40,271	16,384	971,529	549,417
-39,257	16,473	970,668	549,198
-38,242	16,418	969,863	548,541
-37,227	16,441	969,031	548,124
-36,213	16,437	968,246	547,645
-35,198	16,432	967,269	547,056
-34,184	16,527	966,384	546,843
-33,169	16,400	965,485	545,897
-32,154	16,438	964,526	545,457
-31,140	16,418	963,772	544,944
-30,125	16,439	963,041	544,579
-29,111	16,476	962,093	544,139
-28,096	16,464	961,672	543,840
-27,082	16,444	960,964	543,356
-26,067	16,430	960,178	542,844
-25,052	16,407	959,369	542,292
-24,038	16,399	958,639	541,830
-23,023	16,358	957,979	541,303
-22,009	16,434	957,143	541,055
-20,994	16,430	956,672	540,756
-19,979	16,407	956,170	540,375
-18,965	16,414	955,519	540,007
-17,950	16,411	954,872	539,610
-16,936	16,428	954,089	539,203
-15,921	16,380	953,371	538,622
-14,906	16,263	952,927	537,975
-13,892	16,302	952,151	537,641
-12,877	16,326	951,455	537,300
-11,863	16,286	950,733	536,745
-10,848	16,277	950,359	536,485
-9,833	16,410	949,845	536,596
-8,819	16,380	949,093	536,054
-7,804	16,285	948,459	535,372
-6,790	16,265	947,738	534,881
-5,775	16,338	947,312	534,854
-4,760	16,330	946,792	534,511
-3,746	16,297	946,232	534,069
-2,731	16,163	945,443	533,177
-1,717	16,144	944,688	532,669
-0,702	16,188	944,001	532,401
0,313	15,938	943,456	532,103
1,327	18,509	940,923	538,766
2,342	25,423	814,024	484,905
3,356	19,613	519,312	299,226
4,371	-1,958	392,530	197,471
5,386	-4,435	376,139	186,025
6,400	-5,726	369,989	181,333
7,415	-6,526	366,981	178,838
8,429	-6,838	365,383	177,654
9,444	-6,882	364,228	177,023
10,459	-7,064	363,549	176,450
11,473	-7,154	362,925	176,020
12,488	-7,122	362,272	175,727
13,502	-7,235	361,620	175,255
14,517	-7,493	360,993	174,616
15,531	-7,857	360,009	173,677
16,546	-7,863	359,753	173,531
17,561	-7,977	359,218	173,118
18,575	-7,875	358,974	173,109
19,590	-7,909	358,395	172,773
20,604	-8,015	358,125	172,498
21,619	-8,080	357,711	172,204
22,634	-7,976	357,400	172,165
23,648	-8,110	357,044	171,814
24,663	-7,876	356,493	171,819
25,677	-7,882	356,159	171,636
26,692	-8,079	356,047	171,327
27,707	-8,151	355,728	171,071
28,721	-8,094	355,223	170,881
29,736	-8,171	354,926	170,631
30,750	-8,152	354,615	170,489
31,765	-8,090	354,296	170,395
32,780	-8,179	354,142	170,198
33,794	-8,246	353,823	169,948
34,809	-8,033	353,278	169,929
35,823	-8,033	353,160	169,856
36,838	-7,988	352,637	169,645
37,853	-8,112	352,625	169,474
38,867	-8,080	352,144	169,267
39,882	-8,192	351,815	168,958
40,896	-8,233	351,662	168,821
41,911	-8,310	351,127	168,457
42,926	-8,102	350,882	168,573
43,940	-8,205	350,686	168,341
44,955	-8,324	350,495	168,091
45,969	-8,196	350,095	168,038
46,984	-8,301	349,883	167,795
47,999	-8,356	349,526	167,544
49,013	-8,450	349,345	167,329
50,028	-8,441	348,918	167,121
51,042	-8,473	348,621	166,927
52,057	-8,421	348,440	166,886
53,071	-8,598	348,204	166,548
54,086	-8,374	347,907	166,656
55,101	-8,351	347,624	166,534
56,115	-8,446	347,407	166,302
57,130	-8,049	347,165	166,642
58,144	-7,903	347,077	166,758
59,159	-7,912	346,802	166,599
60,174	-7,726	346,307	166,567
61,188	-7,628	345,992	166,516
62,203	-7,900	345,888	166,130
63,217	-8,023	345,461	165,765
64,232	-8,026	345,363	165,700
65,247	-7,560	345,081	166,097
66,261	-7,866	344,766	165,573
67,276	-8,116	344,295	165,038
68,290	-8,257	344,007	164,720
69,305	-7,989	343,806	164,923
70,320	-8,078	343,500	164,657
71,334	-8,167	343,386	164,484
72,349	-7,841	343,312	164,815
73,363	-7,681	342,944	164,810
74,378	-7,706	342,563	164,584
75,393	-7,807	342,387	164,367
76,407	-8,004	341,938	163,908
77,422	-7,973	341,730	163,829
78,436	-7,865	341,477	163,818
79,451	-7,863	341,342	163,741
80,466	-7,937	340,869	163,414
81,480	-8,303	340,508	162,802
82,495	-8,311	340,188	162,625
83,509	-8,231	339,966	162,598
84,524	-8,172	339,658	162,505
85,539	-8,241	339,409	162,291
86,553	-8,339	339,104	162,017
87,568	-8,317	338,946	161,953
88,582	-8,253	338,689	161,890
89,597	-8,318	338,503	161,711
90,611	-8,331	338,316	161,593
91,626	-8,044	338,170	161,838
92,641	-8,022	337,759	161,652
93,655	-8,072	337,459	161,436
94,670	-8,238	337,344	161,177
95,684	-8,173	337,092	161,117
96,699	-8,127	336,763	160,998
97,714	-8,339	336,391	160,563
98,728	-8,287	336,244	160,539
99,743	-8,260	336,034	160,455
100,757	-8,297	335,595	160,188
101,772	-8,331	335,480	160,081
102,787	-8,213	335,251	160,092
103,801	-7,975	334,948	160,203
104,816	-8,086	334,813	159,998
105,830	-8,134	334,617	159,835
106,845	-8,071	334,584	159,877
107,860	-7,900	334,035	159,795
108,874	-8,081	333,864	159,493
109,889	-8,027	333,640	159,434
110,903	-8,150	333,447	159,187
111,918	-8,051	333,253	159,193
112,933	-8,063	332,837	158,966
113,947	-8,080	332,687	158,861
114,962	-8,022	332,380	158,766
115,976	-8,013	332,034	158,596
116,991	-8,095	331,899	158,426
118,006	-8,061	331,628	158,320
119,020	-8,056	331,586	158,291
120,035	-7,945	331,284	158,259
121,049	-7,909	331,184	158,236
122,064	-7,937	330,810	158,012
123,079	-7,849	330,371	157,887
124,093	-7,963	330,256	157,690
125,108	-8,255	329,965	157,211
126,122	-8,419	329,776	156,924
127,137	-8,440	329,462	156,737
128,151	-8,347	329,316	156,757
129,166	-8,238	328,973	156,702
130,181	-8,264	328,740	156,547
131,195	-8,301	328,389	156,325
132,210	-8,171	328,313	156,420
133,224	-8,147	328,116	156,338
134,239	-8,025	327,919	156,366
135,254	-7,826	327,480	156,364
136,268	-8,098	327,529	156,072
137,283	-8,275	326,948	155,584
138,297	-8,345	326,742	155,395
139,312	-8,185	326,580	155,482
140,327	-7,989	326,463	155,628
141,341	-7,873	326,387	155,707
142,356	-7,643	326,114	155,816
143,370	-7,611	325,924	155,746
144,385	-7,595	325,643	155,616
145,400	-7,743	325,410	155,328
146,414	-7,704	325,136	155,227
147,429	-7,668	324,861	155,121
148,443	-7,697	324,715	155,005
149,458	-7,657	324,612	154,987
150,473	-7,601	324,331	154,899
151,487	-7,756	324,053	154,583
152,502	-7,661	323,848	154,576
153,516	-7,596	323,558	154,495
154,531	-7,636	323,439	154,381
155,546	-7,724	323,076	154,097
156,560	-7,699	322,790	153,974
157,575	-7,881	322,583	153,663
158,589	-7,915	322,437	153,543
159,604	-7,566	322,209	153,801
160,619	-7,624	322,014	153,631
161,633	-7,698	321,755	153,413
162,648	-7,648	321,563	153,362
163,662	-7,695	321,285	153,165
164,677	-7,928	321,125	152,822
165,692	-7,657	320,953	153,021
166,706	-7,659	320,713	152,890
167,721	-7,586	320,492	152,850
168,735	-7,542	320,468	152,872
169,750	-7,494	320,150	152,759
170,764	-7,491	319,976	152,666
171,779	-7,369	319,768	152,685
172,794	-7,427	319,503	152,481
173,808	-7,702	319,272	152,062
174,823	-7,974	318,784	151,524
175,837	-7,952	318,610	151,451
176,852	-7,730	318,552	151,648
177,867	-7,555	318,459	151,778
178,881	-7,542	318,178	151,645
179,896	-7,444	317,966	151,635
180,910	-7,504	317,802	151,479
181,925	-7,531	317,599	151,341
182,940	-7,572	317,560	151,264
183,954	-7,549	317,199	151,103
184,969	-7,512	316,991	151,030
185,983	-7,519	316,805	150,920
186,998	-7,571	316,462	150,689
188,013	-7,541	316,232	150,598
189,027	-7,504	316,096	150,559
190,042	-7,399	315,979	150,602
191,056	-7,407	315,843	150,515
192,071	-7,230	315,501	150,527
193,086	-7,176	315,323	150,485
194,100	-7,413	315,118	150,123
195,115	-7,463	314,942	149,972
196,129	-7,381	314,580	149,873
197,144	-7,369	314,483	149,826
198,159	-7,351	314,208	149,702
199,173	-7,421	314,110	149,567
200,188	-7,203	313,692	149,585
201,202	-7,495	313,510	149,177
202,217	-7,944	313,142	148,515
203,232	-8,036	312,722	148,206
204,246	-7,761	312,893	148,563
205,261	-7,278	312,596	148,917
206,275	-7,263	312,358	148,807
207,290	-7,487	312,189	148,477
208,304	-7,510	311,948	148,325
209,319	-7,635	311,818	148,119
210,334	-7,419	311,547	148,204
211,348	-7,370	311,381	148,163
212,363	-7,244	311,018	148,108
213,377	-7,477	310,969	147,828
214,392	-7,589	310,681	147,561
215,407	-7,712	310,337	147,256
216,421	-7,836	310,045	146,975
217,436	-7,860	310,030	146,930
218,450	-7,883	309,855	146,810
219,465	-7,524	309,350	146,931
220,480	-7,551	309,519	146,970
221,494	-7,726	309,280	146,662
222,509	-7,582	308,917	146,626
223,523	-7,557	308,754	146,562
224,538	-7,521	308,673	146,547
225,553	-7,450	308,544	146,547
226,567	-7,438	308,317	146,438
227,582	-7,498	308,140	146,279
228,596	-7,496	307,923	146,165
229,611	-7,373	307,886	146,261
230,626	-7,196	307,424	146,211
231,640	-8,022	307,152	145,217
232,655	-7,875	306,768	145,174
233,669	-8,098	306,655	144,878
234,684	-8,066	306,395	144,776
235,699	-7,992	306,325	144,805
236,713	-7,878	306,032	144,771
237,728	-7,847	305,871	144,713
238,742	-7,705	305,666	144,749
239,757	-7,633	305,542	144,751
240,772	-7,585	305,303	144,675
241,786	-7,430	305,313	144,826
242,801	-7,745	305,044	144,363
243,815	-7,664	304,768	144,302
244,830	-7,542	304,526	144,299
245,844	-7,572	304,349	144,171
246,859	-7,554	304,224	144,118
247,874	-7,417	304,020	144,148
248,888	-7,497	303,903	143,998
249,903	-7,330	303,745	144,080
250,917	-7,283	303,584	144,039
251,932	-6,996	303,633	144,341
252,947	-5,852	303,934	145,636
253,961	-5,625	303,595	145,691
254,976	-6,499	303,109	144,558
255,990	-6,561	302,895	144,380
257,005	-4,910	303,709	146,433
258,020	-2,017	304,556	149,774
259,034	-1,171	304,851	150,766
260,049	-0,286	304,826	151,641
261,063	0,132	304,898	152,087
262,078	0,213	304,941	152,178
263,093	0,342	304,555	152,102
264,107	0,512	304,330	152,149
265,122	0,316	304,442	151,993
266,136	0,558	304,099	152,053
267,151	0,579	303,965	151,994
268,166	0,624	303,730	151,908
269,180	0,667	303,423	151,785
270,195	0,518	303,436	151,627
271,209	0,417	303,105	151,346
272,224	0,416	302,941	151,250
273,239	0,758	302,814	151,517
274,253	0,590	302,699	151,277
275,268	0,660	302,369	151,170
276,282	0,726	302,073	151,074
277,297	0,689	301,976	150,974
278,312	0,675	301,834	150,876
279,326	0,600	301,543	150,643
280,341	0,360	301,394	150,314
281,355	0,395	301,330	150,303
282,370	0,648	300,934	150,347
283,384	0,474	300,801	150,092
284,399	0,370	300,640	149,894
285,414	0,566	300,445	149,980
286,428	0,393	300,234	149,688
287,443	0,394	300,023	149,571
288,457	0,550	299,716	149,560
289,472	0,500	299,461	149,369
290,487	0,352	299,347	149,152
291,501	0,553	299,253	149,291
292,516	0,636	299,007	149,238
293,530	0,508	298,822	149,005
294,545	0,524	298,593	148,894
295,560	0,616	298,383	148,866
296,574	0,695	298,055	148,768
297,589	0,483	298,132	148,583
298,603	0,412	297,867	148,367
299,618	0,460	297,643	148,290
300,633	0,508	297,415	148,211
301,647	0,542	297,230	148,139
302,662	0,639	297,040	148,127
303,676	0,273	296,890	147,678
304,691	0,392	296,572	147,624
305,706	0,736	296,428	147,877
306,720	0,519	296,325	147,599
307,735	0,570	296,193	147,571
308,749	0,583	295,925	147,437
309,764	0,423	295,859	147,234
310,779	0,485	295,673	147,189
311,793	0,533	295,221	146,998
312,808	0,408	295,128	146,817
313,822	0,525	294,971	146,839
314,837	0,577	294,696	146,741
315,852	0,620	294,621	146,732
316,866	0,636	294,368	146,608
317,881	0,560	294,196	146,436
318,895	0,536	294,004	146,303
319,910	0,515	293,963	146,250
320,925	0,602	293,666	146,173
321,939	0,663	293,406	146,090
322,954	0,592	293,303	145,957
323,968	0,630	293,012	145,835
324,983	0,525	292,966	145,698
325,997	0,588	292,775	145,652
327,012	0,644	292,432	145,521
328,027	0,500	292,298	145,302
329,041	0,599	292,236	145,355
330,056	0,618	291,903	145,194
331,070	0,663	291,772	145,160
332,085	0,509	291,680	144,953
333,100	0,567	291,348	144,831
334,114	0,620	291,078	144,734
335,129	0,608	290,897	144,620
336,143	0,586	290,859	144,567
337,158	0,603	290,626	144,455
338,173	0,669	290,355	144,371
339,187	0,627	290,324	144,302
340,202	0,603	290,044	144,126
341,216	0,721	289,947	144,179
342,231	0,682	289,813	144,062
343,246	0,801	289,566	144,041
344,260	0,684	289,404	143,835
345,275	0,860	289,148	143,863
346,289	0,644	289,056	143,598
347,304	0,702	288,784	143,506
348,319	0,630	288,682	143,373
349,333	0,704	288,378	143,280
350,348	0,406	288,291	142,940
351,362	0,713	288,001	143,076
352,377	0,649	287,956	142,980
353,392	0,856	287,662	143,018
354,406	0,726	287,499	142,800
355,421	193,173	1326,345	1397,625
356,435	156,623	1452,896	1397,631
