DTS Sentinel unit serial number:	SN410029Multiplexer serial number:	ORYXHardware model number:	OX2-SRSoftware version number:	ORYX F/W v4,00 Oryx Data Collector v3.7.2.0data status	okinstallation	B4 Nyhavnadifferential loss correction	single-endedforward channel	channel 2reverse channel	N/Adate	2023/12/19time	03:50:13forward acquisition time	300,00reverse acquisition time	0,00gamma	499,1914k internal	0,3125k external	0,3125temperature offset calibration	1,0000default loss term (dB/km)	0,3820temperature slope calibration	1,0000multiplexer offset coefficient	1,0000multiplexer slope coefficient	1,0000fibre end	0,00T internal ref (°C)	21,01T ext. ref 1 (°C)	5,76T ext. ref 2 (°C)	5,76length (m)	temperature (°C)	Stokes	anti-Stokes-744,400	-37,248	0,116	-0,046
-743,385	25,426	-0,298	0,184
-742,371	-9,267	0,055	-0,027
-741,356	800,000	-0,082	0,224
-740,342	-132,725	0,013	0,001
-739,327	388,332	-0,197	0,304
-738,312	368,688	0,036	0,055
-737,298	-69,608	-0,193	0,055
-736,283	76,406	0,098	-0,077
-735,269	-39,593	-0,133	0,052
-734,254	247,660	0,073	-0,092
-733,239	-150,926	-0,441	-0,024
-732,225	-107,296	0,167	0,027
-731,210	186,190	0,040	0,044
-730,196	-172,392	-0,138	0,003
-729,181	461,339	0,088	0,147
-728,167	-200,000	0,032	0,126
-727,152	-97,476	-0,052	0,010
-726,137	800,000	0,019	-0,041
-725,123	36,247	-0,060	-0,039
-724,108	800,000	-0,033	-0,077
-723,094	-113,935	-0,109	-0,016
-722,079	354,410	-0,078	-0,116
-721,064	588,701	-0,107	-0,196
-720,050	400,746	-0,045	-0,071
-719,035	-139,894	-0,038	0,003
-718,021	6,084	-0,078	-0,043
-717,006	317,382	0,067	-0,094
-715,991	-200,000	-0,014	0,084
-714,977	-200,000	-0,036	-0,126
-713,962	-200,000	-0,005	-0,031
-712,948	-14,346	-0,063	0,030
-711,933	310,720	-0,007	-0,010
-710,918	701,264	0,035	0,069
-709,904	390,140	-0,078	-0,121
-708,889	97,395	-0,063	-0,054
-707,875	53,407	-0,079	-0,057
-706,860	-120,475	-0,070	0,009
-705,845	800,000	-0,034	-0,096
-704,831	602,463	-0,052	0,096
-703,816	755,261	0,028	-0,057
-702,802	-8,270	-0,151	0,075
-701,787	800,000	-0,044	0,139
-700,772	800,000	-0,022	-0,068
-699,758	-200,000	0,025	-0,101
-698,743	-200,000	-0,000	-0,020
-697,729	348,364	0,034	0,050
-696,714	-200,000	0,019	0,082
-695,699	554,087	0,078	-0,140
-694,685	648,071	-0,117	-0,224
-693,670	148,677	-0,091	-0,092
-692,656	8,991	-0,059	0,033
-691,641	23,806	-0,105	0,064
-690,627	336,879	0,038	-0,056
-689,612	800,000	-0,022	-0,057
-688,597	-200,000	-0,010	-0,174
-687,583	-200,000	0,025	-0,117
-686,568	394,650	-0,102	-0,158
-685,554	-200,000	-0,030	-0,162
-684,539	11,116	-0,135	0,077
-683,524	-89,146	0,097	0,021
-682,510	312,534	0,054	0,076
-681,495	203,742	-0,032	-0,037
-680,481	591,051	0,039	-0,072
-679,466	639,621	-0,042	-0,080
-678,451	-200,000	-0,007	-0,057
-677,437	-200,000	0,008	-0,027
-676,422	-17,335	0,046	0,021
-675,408	78,605	-0,043	-0,034
-674,393	9,816	-0,046	0,026
-673,378	456,312	-0,047	-0,077
-672,364	-150,985	-0,153	0,008
-671,349	54,917	-0,191	-0,137
-670,335	-200,000	0,020	0,070
-669,320	17,236	0,016	0,009
-668,305	-200,000	-0,021	0,157
-667,291	190,903	-0,063	0,070
-666,276	-200,000	0,004	0,075
-665,262	637,907	-0,063	-0,119
-664,247	-200,000	-0,020	0,080
-663,232	-136,357	0,025	-0,002
-662,218	-200,000	-0,004	-0,105
-661,203	-157,833	-0,039	0,002
-660,189	-158,579	-0,054	-0,002
-659,174	-6,525	-0,090	-0,046
-658,159	759,173	-0,070	0,141
-657,145	312,670	-0,048	0,067
-656,130	800,000	-0,019	-0,060
-655,116	644,442	-0,032	-0,060
-654,101	4,724	0,017	-0,009
-653,086	11,902	-0,065	-0,037
-652,072	-200,000	0,009	0,110
-651,057	-60,910	0,031	-0,010
-650,043	-200,000	-0,011	0,143
-649,028	310,108	-0,080	0,112
-648,014	-111,864	0,050	-0,007
-646,999	-200,000	0,022	0,126
-645,984	-9,255	-0,180	0,089
-644,970	25,262	-0,033	-0,020
-643,955	-55,203	-0,133	0,044
-642,941	362,781	-0,115	-0,172
-641,926	-62,033	-0,029	0,009
-640,911	-200,000	-0,007	0,088
-639,897	-200,000	0,035	0,138
-638,882	222,176	-0,029	-0,035
-637,868	-200,000	-0,003	0,073
-636,853	-200,000	-0,002	-0,026
-635,838	150,108	-0,064	-0,065
-634,824	-200,000	-0,033	-0,142
-633,809	195,007	0,014	-0,016
-632,795	-200,000	0,022	0,120
-631,780	59,874	-0,056	-0,041
-630,765	-200,000	-0,002	-0,084
-629,751	19,526	-0,036	0,021
-628,736	147,429	0,067	-0,067
-627,722	-200,000	0,011	-0,072
-626,707	-74,635	0,057	0,015
-625,692	-200,000	0,021	0,077
-624,678	-200,000	-0,011	-0,068
-623,663	800,000	-0,011	0,028
-622,649	-200,000	-0,010	-0,062
-621,634	-200,000	-0,043	0,158
-620,619	148,857	-0,053	-0,053
-619,605	-200,000	-0,006	0,085
-618,590	715,819	-0,065	-0,128
-617,576	172,648	-0,062	0,067
-616,561	26,568	0,029	-0,018
-615,546	-200,000	-0,002	-0,043
-614,532	800,000	-0,028	-0,072
-613,517	800,000	-0,026	0,080
-612,503	106,123	0,098	0,086
-611,488	-64,429	-0,077	0,023
-610,474	-124,256	0,011	0,001
-609,459	468,183	-0,033	0,056
-608,444	271,863	-0,057	0,075
-607,430	219,593	-0,096	-0,114
-606,415	62,617	-0,070	0,052
-605,401	-177,773	-0,063	0,001
-604,386	86,993	0,033	-0,027
-603,371	236,758	0,022	-0,026
-602,357	54,623	-0,089	-0,064
-601,342	506,314	-0,065	0,111
-600,328	800,000	-0,014	-0,035
-599,313	-92,019	0,031	-0,006
-598,298	-172,868	-0,069	-0,002
-597,284	683,729	-0,044	0,086
-596,269	-200,000	0,025	0,088
-595,255	9,256	0,056	0,032
-594,240	-200,000	-0,002	0,073
-593,225	129,557	0,023	-0,022
-592,211	55,100	-0,048	0,034
-591,196	14,587	0,103	0,060
-590,182	-5,762	-0,090	0,046
-589,167	-200,000	0,004	-0,128
-588,152	240,843	0,061	0,075
-587,138	800,000	-0,004	0,010
-586,123	800,000	-0,027	-0,075
-585,109	-108,710	0,159	-0,025
-584,094	-200,000	0,009	0,035
-583,079	368,617	0,054	0,081
-582,065	-14,008	-0,043	0,020
-581,050	83,777	0,109	0,088
-580,036	-200,000	-0,003	-0,026
-579,021	-50,037	-0,097	-0,034
-578,006	800,000	0,014	0,036
-576,992	-200,000	0,000	-0,010
-575,977	163,239	-0,025	-0,026
-574,963	226,019	0,065	-0,078
-573,948	-100,420	-0,117	0,021
-572,934	-55,913	-0,031	0,010
-571,919	-65,438	-0,041	-0,012
-570,904	260,742	-0,079	-0,101
-569,890	120,415	0,027	-0,025
-568,875	406,004	0,042	0,066
-567,861	100,400	0,110	0,095
-566,846	356,795	-0,019	-0,028
-565,831	-200,000	-0,009	-0,050
-564,817	363,218	-0,082	-0,123
-563,802	-31,426	-0,044	0,018
-562,788	315,695	-0,058	-0,082
-561,773	800,000	0,040	-0,091
-560,758	7,195	0,108	0,060
-559,744	-41,144	-0,038	-0,015
-558,729	71,599	-0,014	-0,011
-557,715	-200,000	0,041	-0,164
-556,700	74,162	0,056	-0,044
-555,685	-200,000	-0,040	-0,132
-554,671	-72,731	-0,112	-0,030
-553,656	206,452	0,037	0,043
-552,642	173,570	0,036	-0,038
-551,627	-105,424	-0,128	0,021
-550,612	200,507	0,015	-0,017
-549,598	48,810	-0,055	0,038
-548,583	800,000	0,018	0,057
-547,569	115,863	-0,074	-0,067
-546,554	-142,458	-0,051	0,004
-545,539	358,396	0,080	0,118
-544,525	-124,529	0,010	0,001
-543,510	-97,218	-0,031	-0,006
-542,496	-200,000	0,033	0,122
-541,481	-200,000	-0,016	-0,093
-540,466	126,483	-0,080	0,075
-539,452	-200,000	-0,001	-0,017
-538,437	-74,561	0,153	-0,040
-537,423	-46,595	-0,108	0,039
-536,408	-200,000	-0,002	0,039
-535,393	32,379	-0,047	-0,030
-534,379	-89,261	-0,166	-0,036
-533,364	422,794	-0,090	-0,144
-532,350	-48,063	0,050	0,018
-531,335	-200,000	-0,019	-0,151
-530,321	-63,210	0,072	-0,022
-529,306	213,725	0,078	-0,092
-528,291	121,007	-0,108	-0,099
-527,277	-200,000	0,010	0,095
-526,262	-111,369	-0,151	-0,022
-525,248	-101,555	0,137	-0,024
-524,233	540,362	0,008	-0,014
-523,218	87,634	-0,072	0,059
-522,204	368,255	-0,048	-0,072
-521,189	69,171	0,082	-0,062
-520,175	392,348	-0,041	0,063
-519,160	800,000	0,033	-0,107
-518,145	-56,156	-0,051	0,017
-517,131	-200,000	-0,040	0,149
-516,116	-72,033	0,074	0,020
-515,102	-96,537	0,049	-0,009
-514,087	-200,000	-0,024	-0,110
-513,072	43,753	-0,101	-0,068
-512,058	-200,000	0,049	0,193
-511,043	-200,000	0,017	0,119
-510,029	11,238	0,063	0,036
-509,014	-53,207	0,080	0,027
-507,999	-200,000	-0,001	0,096
-506,985	-200,000	0,015	-0,096
-505,970	800,000	0,033	-0,095
-504,956	148,710	-0,031	-0,030
-503,941	-200,000	0,014	0,078
-502,926	-58,124	-0,130	0,042
-501,912	-200,000	0,006	0,090
-500,897	112,157	-0,093	-0,083
-499,883	-45,409	0,058	-0,021
-498,868	-200,000	-0,157	0,000
-497,853	1,366	-0,075	0,039
-496,839	-21,682	-0,123	-0,055
-495,824	51,985	0,153	-0,107
-494,810	-200,000	-0,017	0,165
-493,795	374,392	0,101	0,153
-492,781	-78,994	0,086	-0,021
-491,766	-3,947	-0,151	0,077
-490,751	-116,883	-0,066	0,009
-489,737	311,107	0,057	-0,079
-488,722	-200,000	-0,022	0,106
-487,708	800,000	-0,041	0,098
-486,693	33,493	0,116	0,074
-485,678	16,357	0,171	-0,099
-484,664	374,874	-0,060	-0,091
-483,649	-10,414	-0,035	0,017
-482,635	-156,330	0,077	-0,004
-481,620	-200,000	0,022	-0,089
-480,605	230,119	0,062	0,075
-479,591	-200,000	0,014	-0,139
-478,576	-200,000	0,041	0,172
-477,562	-84,656	-0,037	-0,009
-476,547	-200,000	0,006	-0,144
-475,532	-78,100	-0,133	-0,034
-474,518	-68,608	0,111	-0,031
-473,503	-200,000	-0,012	0,109
-472,489	-200,000	0,006	-0,023
-471,474	32,212	-0,122	-0,077
-470,459	-200,000	0,002	-0,044
-469,445	-200,000	0,003	0,029
-468,430	-200,000	0,013	0,053
-467,416	800,000	-0,042	-0,101
-466,401	-57,773	0,119	-0,038
-465,386	70,051	-0,079	0,060
-464,372	279,874	0,029	-0,039
-463,357	800,000	0,012	0,032
-462,343	-45,586	-0,134	-0,049
-461,328	800,000	-0,023	-0,065
-460,313	71,850	0,103	0,079
-459,299	-200,000	-0,050	0,203
-458,284	149,118	0,094	0,094
-457,270	-200,000	-0,018	0,149
-456,255	-164,487	0,090	0,003
-455,241	52,592	-0,065	-0,045
-454,226	-54,847	0,106	-0,035
-453,211	228,741	-0,103	-0,124
-452,197	-89,371	0,075	0,016
-451,182	376,911	-0,060	-0,090
-450,168	-119,855	0,131	-0,016
-449,153	-200,000	-0,012	-0,066
-448,138	224,096	-0,080	-0,095
-447,124	21,004	-0,019	-0,011
-446,109	-63,698	-0,125	0,038
-445,095	209,771	0,087	-0,101
-444,080	-120,945	0,074	0,009
-443,065	-200,000	0,014	0,129
-442,051	62,277	0,068	0,050
-441,036	524,292	-0,026	0,045
-440,022	27,342	-0,096	0,059
-439,007	125,986	-0,041	0,038
-437,992	-14,111	0,160	0,076
-436,978	-200,000	0,007	-0,041
-435,963	-200,000	0,021	0,073
-434,949	800,000	-0,047	-0,120
-433,934	41,121	-0,153	-0,102
-432,919	113,561	-0,062	0,055
-431,905	-200,000	0,005	0,178
-430,890	-120,837	0,107	0,013
-429,876	-200,000	0,001	-0,042
-428,861	-200,000	0,028	0,121
-427,846	337,855	0,039	-0,056
-426,832	-107,612	0,016	0,002
-425,817	315,507	-0,071	-0,098
-424,803	0,165	-0,073	-0,038
-423,788	-66,480	0,081	-0,023
-422,773	-200,000	-0,007	-0,195
-421,759	28,354	0,043	-0,027
-420,744	496,893	0,045	-0,076
-419,730	-82,873	0,137	-0,032
-418,715	-28,315	0,073	-0,031
-417,701	-51,562	-0,087	-0,030
-416,686	-200,000	-0,026	0,109
-415,671	-200,000	-0,000	-0,091
-414,657	20,345	0,019	-0,011
-413,642	-200,000	-0,007	0,122
-412,628	472,865	0,054	0,090
-411,613	122,742	-0,075	-0,069
-410,598	-66,539	0,063	-0,018
-409,584	69,918	0,042	-0,032
-408,569	800,000	-0,026	-0,080
-407,555	145,874	-0,082	0,081
-406,540	-200,000	-0,016	-0,072
-405,525	-200,000	-0,012	0,053
-404,511	720,762	-0,016	0,032
-403,496	800,000	0,041	-0,108
-402,482	-152,778	0,055	0,003
-401,467	111,292	-0,032	-0,028
-400,452	-200,000	-0,005	0,052
-399,438	34,565	0,081	-0,052
-398,423	58,631	-0,013	0,009
-397,409	-200,000	-0,020	0,097
-396,394	-200,000	0,007	-0,164
-395,379	-78,786	0,037	0,009
-394,365	-200,000	0,015	0,161
-393,350	-55,018	-0,053	0,017
-392,336	-200,000	0,002	-0,026
-391,321	-109,942	0,114	-0,017
-390,306	630,432	-0,048	-0,090
-389,292	-114,758	0,075	-0,010
-388,277	177,434	0,027	-0,029
-387,263	-200,000	-0,003	-0,026
-386,248	-23,120	-0,121	-0,053
-385,233	-200,000	-0,033	0,113
-384,219	-104,646	-0,084	-0,014
-383,204	-61,480	-0,112	-0,034
-382,190	250,688	0,078	-0,097
-381,175	-43,680	0,134	-0,049
-380,160	24,184	-0,050	0,030
-379,146	75,020	0,067	0,052
-378,131	-53,734	-0,061	-0,020
-377,117	-61,038	-0,078	0,024
-376,102	-187,642	-0,158	-0,001
-375,088	-118,920	0,026	-0,003
-374,073	-200,000	-0,001	-0,177
-373,058	-200,000	0,045	0,166
-372,044	-118,867	0,085	0,011
-371,029	-119,166	0,059	0,008
-370,015	565,970	-0,088	-0,157
-369,000	46,330	-0,177	-0,120
-367,985	-149,226	0,054	-0,003
-366,971	-42,784	0,047	-0,017
-365,956	800,000	0,022	0,063
-364,942	-1,737	0,094	0,048
-363,927	-61,635	0,077	0,024
-362,912	74,741	0,068	0,052
-361,898	-65,649	-0,051	-0,015
-360,883	-57,356	-0,060	0,019
-359,869	-200,000	-0,054	-0,250
-358,854	-152,499	0,084	-0,004
-357,839	-91,640	0,237	0,049
-356,825	135,605	0,033	-0,031
-355,810	-200,000	0,031	-0,104
-354,796	-49,857	-0,043	0,015
-353,781	140,913	0,135	-0,131
-352,766	-164,275	-0,054	0,002
-351,752	-101,236	0,053	-0,009
-350,737	-200,000	0,184	-0,000
-349,723	-79,688	0,068	0,017
-348,708	-200,000	0,005	0,090
-347,693	139,266	0,094	-0,091
-346,679	9,941	-0,161	0,090
-345,664	215,944	-0,053	0,061
-344,650	442,732	-0,005	-0,008
-343,635	61,296	0,111	0,081
-342,620	-109,836	0,080	0,012
-341,606	228,879	0,061	-0,073
-340,591	-9,154	0,034	-0,016
-339,577	-97,710	0,014	0,003
-338,562	-200,000	0,015	-0,115
-337,548	203,156	-0,020	0,022
-336,533	32,694	0,055	0,035
-335,518	800,000	0,040	-0,120
-334,504	-88,946	-0,051	-0,011
-333,489	64,567	-0,045	0,033
-332,475	-200,000	-0,013	-0,072
-331,460	-200,000	-0,014	-0,080
-330,445	110,284	-0,110	0,097
-329,431	-200,000	-0,046	0,164
-328,416	800,000	0,019	0,044
-327,402	-200,000	-0,008	0,194
-326,387	2,616	-0,127	0,067
-325,372	800,000	0,027	-0,063
-324,358	80,433	0,052	-0,041
-323,343	503,714	-0,015	-0,026
-322,329	-136,943	0,168	0,014
-321,314	39,108	-0,051	-0,033
-320,299	39,729	0,045	0,030
-319,285	-200,000	0,021	0,087
-318,270	-15,790	0,065	-0,030
-317,256	652,946	-0,043	-0,080
-316,241	57,816	-0,063	-0,045
-315,226	22,494	-0,036	-0,021
-314,212	-153,295	0,100	0,005
-313,197	359,571	0,059	0,086
-312,183	-53,330	-0,023	-0,008
-311,168	56,035	0,004	-0,003
-310,153	133,558	0,090	-0,085
-309,139	61,732	-0,196	-0,143
-308,124	204,424	0,064	0,072
-307,110	800,000	0,031	0,067
-306,095	-80,111	-0,045	0,011
-305,080	800,000	0,031	0,094
-304,066	-200,000	-0,011	0,050
-303,051	21,528	-0,076	-0,045
-302,037	-200,000	-0,015	0,153
-301,022	-96,714	0,090	-0,017
-300,008	53,645	0,124	0,087
-298,993	-64,637	-0,049	0,014
-297,978	-86,652	0,110	0,024
-296,964	-48,635	0,096	0,034
-295,949	-200,000	0,020	-0,152
-294,935	106,789	-0,028	0,024
-293,920	27,147	-0,033	-0,020
-292,905	-21,528	-0,064	-0,028
-291,891	-60,395	0,092	-0,029
-290,876	-200,000	-0,016	0,120
-289,862	-200,000	0,006	0,066
-288,847	-200,000	-0,016	-0,079
-287,832	-200,000	-0,026	0,093
-286,818	-200,000	-0,009	0,044
-285,803	800,000	-0,009	-0,020
-284,789	114,574	0,061	0,054
-283,774	342,582	0,076	0,109
-282,759	-70,162	-0,069	0,019
-281,745	-122,134	0,104	0,012
-280,730	329,402	0,043	0,060
-279,716	800,000	0,028	-0,085
-278,701	-181,591	0,093	-0,001
-277,686	-200,000	-0,022	-0,141
-276,672	-103,192	-0,040	0,007
-275,657	-200,000	0,011	-0,043
-274,643	-200,000	-0,003	0,066
-273,628	-200,000	0,022	-0,172
-272,613	800,000	0,026	-0,077
-271,599	419,103	-0,101	0,159
-270,584	107,038	0,095	0,083
-269,570	800,000	0,017	0,037
-268,555	166,073	-0,033	-0,035
-267,540	-200,000	0,007	0,076
-266,526	-200,000	0,030	-0,132
-265,511	483,122	-0,049	-0,082
-264,497	680,510	0,027	-0,051
-263,482	-200,000	-0,017	-0,059
-262,467	-200,000	-0,009	-0,075
-261,453	565,445	0,074	-0,131
-260,438	-200,000	0,055	0,000
-259,424	-83,591	-0,105	0,024
-258,409	688,086	0,069	0,133
-257,395	-200,000	0,019	0,113
-256,380	275,578	-0,059	0,076
-255,365	-86,554	0,019	0,004
-254,351	323,880	-0,010	-0,014
-253,336	-140,609	-0,167	0,012
-252,322	537,510	-0,056	-0,097
-251,307	-148,586	0,161	-0,009
-250,292	-200,000	-0,007	-0,032
-249,278	-112,609	0,097	0,014
-248,263	313,247	0,117	0,162
-247,249	-200,000	0,016	0,162
-246,234	-135,099	0,053	-0,005
-245,219	150,815	0,043	-0,043
-244,205	-155,351	-0,044	0,002
-243,190	76,089	-0,081	0,063
-242,176	-109,568	-0,074	-0,011
-241,161	-200,000	-0,055	0,232
-240,146	-200,000	-0,003	-0,059
-239,132	229,974	-0,065	0,078
-238,117	-150,693	0,134	0,007
-237,103	-121,934	0,042	-0,005
-236,088	362,792	-0,027	-0,039
-235,073	-116,705	0,036	0,005
-234,059	-200,000	0,006	-0,038
-233,044	126,086	-0,032	0,029
-232,030	158,879	-0,017	0,017
-231,015	-200,000	-0,032	-0,265
-230,000	151,660	0,096	0,096
-228,986	800,000	0,047	-0,107
-227,971	-200,000	0,001	0,053
-226,957	-200,000	-0,002	0,157
-225,942	-200,000	0,002	0,175
-224,927	6,868	-0,140	0,076
-223,913	-141,326	-0,145	-0,011
-222,898	800,000	-0,067	0,162
-221,884	800,000	0,039	0,080
-220,869	298,703	-0,023	-0,031
-219,855	96,134	0,161	0,134
-218,840	800,000	-0,068	0,178
-217,825	52,488	0,104	0,073
-216,811	322,489	0,044	0,061
-215,796	-123,865	0,096	0,011
-214,782	-200,000	-0,013	-0,046
-213,767	78,695	0,087	0,068
-212,752	89,801	0,107	-0,087
-211,738	110,553	0,129	0,113
-210,723	-31,817	-0,027	0,011
-209,709	-131,690	0,047	0,004
-208,694	-135,015	-0,095	0,008
-207,679	69,060	0,032	-0,024
-206,665	-200,000	0,006	-0,110
-205,650	773,062	0,027	0,055
-204,636	-95,761	-0,066	0,013
-203,621	800,000	0,061	-0,154
-202,606	-112,746	0,071	-0,010
-201,592	-200,000	-0,009	-0,045
-200,577	50,573	-0,073	-0,051
-199,563	-200,000	0,014	-0,132
-198,548	-200,000	-0,035	-0,129
-197,533	51,477	0,045	-0,031
-196,519	208,036	0,081	0,092
-195,504	-147,308	-0,126	-0,008
-194,490	-200,000	0,013	0,080
-193,475	-68,195	-0,053	0,015
-192,460	789,847	-0,029	-0,059
-191,446	-200,000	0,036	-0,139
-190,431	537,196	-0,049	-0,086
-189,417	247,488	0,114	-0,141
-188,402	-96,636	-0,131	-0,025
-187,387	185,055	0,104	0,113
-186,373	519,667	0,025	0,044
-185,358	-23,654	-0,009	0,004
-184,344	-200,000	0,007	0,162
-183,329	-200,000	0,002	0,119
-182,315	-200,000	0,012	0,137
-181,300	-6,407	-0,106	0,052
-180,285	-200,000	0,003	0,093
-179,271	-66,027	-0,075	-0,022
-178,256	-68,272	-0,047	0,013
-177,242	-81,114	0,056	0,013
-176,227	-97,737	-0,052	-0,010
-175,212	4,646	0,041	0,022
-174,198	496,799	0,051	-0,085
-173,183	17,063	-0,153	-0,088
-172,169	-142,323	-0,101	-0,007
-171,154	-126,564	0,073	-0,008
-170,139	-28,863	-0,023	-0,010
-169,125	-200,000	-0,009	0,082
-168,110	-200,000	0,010	-0,077
-167,096	-200,000	-0,029	-0,116
-166,081	29,255	-0,101	-0,063
-165,066	-140,558	-0,094	-0,007
-164,052	800,000	0,113	-0,234
-163,037	-150,371	-0,063	0,003
-162,023	-35,988	0,094	-0,037
-161,008	-100,918	0,108	-0,019
-159,993	72,685	-0,140	-0,106
-158,979	800,000	0,022	-0,053
-157,964	-200,000	0,024	-0,097
-156,950	362,216	0,040	-0,059
-155,935	-200,000	0,008	-0,041
-154,920	-178,586	-0,157	-0,003
-153,906	-200,000	0,026	0,124
-152,891	-33,157	-0,017	0,007
-151,877	-200,000	0,003	-0,062
-150,862	-150,772	0,131	-0,007
-149,847	264,836	-0,021	-0,026
-148,833	-54,708	0,060	-0,020
-147,818	75,770	0,034	0,026
-146,804	-200,000	0,011	0,082
-145,789	249,032	0,076	0,093
-144,775	-103,241	0,102	-0,017
-143,760	107,641	-0,031	-0,027
-142,745	-54,185	-0,232	-0,076
-141,731	800,000	-0,020	0,049
-140,716	-97,530	-0,078	-0,015
-139,702	14,623	0,103	-0,058
-138,687	248,627	-0,050	0,062
-137,672	-200,000	0,030	-0,104
-136,658	-7,339	0,079	0,039
-135,643	-18,871	-0,088	-0,040
-134,629	-170,026	0,064	0,002
-133,614	123,192	0,119	0,108
-132,599	-200,000	-0,013	0,086
-131,585	-71,543	0,038	0,010
-130,570	574,529	-0,066	0,117
-129,556	-200,000	0,007	-0,108
-128,541	-54,024	-0,068	-0,022
-127,526	405,772	0,040	0,062
-126,512	42,591	-0,142	-0,093
-125,497	-87,223	-0,046	-0,010
-124,483	-44,444	-0,059	-0,021
-123,468	800,000	-0,044	-0,093
-122,453	617,647	0,095	-0,175
-121,439	-200,000	-0,000	-0,027
-120,424	296,407	0,044	0,059
-119,410	637,044	0,053	0,098
-118,395	-121,906	0,103	0,012
-117,380	-200,000	0,009	-0,040
-116,366	503,673	0,077	0,130
-115,351	247,793	0,064	0,079
-114,337	169,389	-0,060	0,062
-113,322	254,232	-0,133	-0,166
-112,307	-72,088	0,128	-0,034
-111,293	-200,000	-0,005	-0,108
-110,278	90,765	0,027	-0,022
-109,264	800,000	0,026	0,061
-108,249	45,129	0,037	0,024
-107,234	19,202	-0,084	0,049
-106,220	-200,000	0,001	0,085
-105,205	-200,000	-0,003	-0,016
-104,191	-157,714	0,155	0,007
-103,176	-33,956	-0,040	-0,016
-102,162	76,500	0,090	0,070
-101,147	800,000	-0,008	-0,023
-100,132	98,774	0,058	-0,049
-99,118	194,020	0,051	-0,057
-98,103	339,193	-0,046	-0,066
-97,089	301,301	-0,083	0,112
-96,074	800,000	0,011	0,034
-95,059	-200,000	-0,010	0,117
-94,045	-161,122	-0,082	0,003
-93,030	-200,000	0,003	-0,011
-92,016	138,779	-0,045	-0,043
-91,001	102,930	0,132	0,112
-89,986	-200,000	0,016	-0,068
-88,972	11,609	0,056	0,031
-87,957	800,000	-0,022	0,060
-86,943	-57,748	-0,067	-0,021
-85,928	501,508	0,034	-0,058
-84,913	-200,000	-0,011	-0,052
-83,899	61,920	0,101	-0,073
-82,884	-69,919	0,071	0,019
-81,870	-159,554	0,110	0,004
-80,855	36,646	-0,022	-0,014
-79,840	534,180	-0,008	-0,013
-78,826	-75,862	0,043	0,011
-77,811	-121,379	-0,029	-0,003
-76,797	84,015	0,068	0,054
-75,782	95,346	-0,093	0,077
-74,767	121,245	-0,081	0,073
-73,753	22,219	0,144	0,085
-72,738	-137,873	-0,024	-0,002
-71,724	296,705	-0,068	0,090
-70,709	-89,870	-0,141	-0,030
-69,694	-16,527	-0,098	0,045
-68,680	163,712	0,067	-0,068
-67,665	800,000	0,040	-0,087
-66,651	-56,097	0,094	-0,030
-65,636	56,929	-0,036	-0,025
-64,622	-38,125	-0,033	0,013
-63,607	1,422	-0,114	-0,059
-62,592	555,115	0,063	0,110
-61,578	-105,899	0,073	0,012
-60,563	-10,864	-0,034	-0,016
-59,549	-200,000	0,020	0,117
-58,534	-98,151	-1,480	-0,273
-57,519	632,836	-0,759	-1,401
-56,505	-200,000	-0,899	-4,372
-55,490	-79,121	0,534	-0,131
-54,476	800,000	4,925	11,705
-53,461	-200,000	14,633	262,706
-52,446	-200,000	696,453	2281,768
-51,432	604,342	1622,332	2940,107
-50,417	118,608	1630,282	1459,281
-49,403	76,492	1283,884	985,659
-48,388	37,426	1021,577	655,330
-47,373	23,261	981,075	582,794
-46,359	22,406	970,307	573,575
-45,344	21,203	966,106	567,140
-44,330	21,242	964,461	566,279
-43,315	21,105	962,871	564,877
-42,300	21,091	961,856	564,214
-41,286	21,053	960,957	563,541
-40,271	21,049	959,763	562,804
-39,257	21,065	959,045	562,412
-38,242	21,089	958,006	561,861
-37,227	21,042	957,250	561,240
-36,213	21,033	956,266	560,615
-35,198	20,962	955,496	559,911
-34,184	21,031	954,895	559,760
-33,169	21,004	953,840	559,031
-32,154	21,090	952,868	558,715
-31,140	21,074	951,968	558,115
-30,125	21,062	951,577	557,826
-29,111	21,030	950,514	557,076
-28,096	21,081	949,685	556,733
-27,082	21,044	949,176	556,292
-26,067	21,058	948,364	555,840
-25,052	21,014	947,729	555,307
-24,038	21,023	947,099	554,942
-23,023	21,029	946,482	554,579
-22,009	21,103	945,657	554,310
-20,994	21,053	945,096	553,800
-19,979	21,072	944,562	553,526
-18,965	21,084	944,024	553,227
-17,950	21,086	943,114	552,678
-16,936	21,031	942,717	552,248
-15,921	20,954	942,100	551,617
-14,906	20,852	941,330	550,823
-13,892	20,951	940,620	550,699
-12,877	20,889	940,110	550,181
-11,863	20,899	939,221	549,671
-10,848	20,915	938,912	549,519
-9,833	20,977	938,447	549,421
-8,819	20,984	937,934	549,121
-7,804	20,868	937,212	548,309
-6,790	20,958	936,495	548,154
-5,775	20,969	935,904	547,821
-4,760	20,942	935,360	547,397
-3,746	20,942	934,650	546,956
-2,731	20,773	934,145	546,107
-1,717	20,753	933,315	545,538
-0,702	20,700	932,772	545,031
0,313	20,530	932,019	544,880
1,327	23,017	929,532	551,188
2,342	30,514	806,586	498,562
3,356	25,015	507,240	304,142
4,371	0,613	373,571	192,924
5,386	-2,486	356,752	180,416
6,400	-3,583	350,859	176,093
7,415	-3,969	348,146	174,252
8,429	-3,804	346,774	173,748
9,444	-3,873	345,890	173,207
10,459	-3,899	345,346	172,889
11,473	-3,887	344,613	172,520
12,488	-3,993	343,896	172,020
13,502	-3,942	343,403	171,818
14,517	-3,863	342,974	171,681
15,531	-3,766	342,319	171,453
16,546	-3,738	341,994	171,308
17,561	-3,562	341,512	171,259
18,575	-3,723	341,235	170,915
19,590	-3,684	340,751	170,703
20,604	-3,647	340,561	170,636
21,619	-3,723	340,097	170,300
22,634	-3,594	339,689	170,231
23,648	-3,765	339,446	169,894
24,663	-3,660	338,935	169,746
25,677	-3,800	338,892	169,546
26,692	-3,746	338,454	169,374
27,707	-3,698	338,131	169,254
28,721	-3,785	337,817	168,980
29,736	-3,784	337,554	168,835
30,750	-3,733	337,205	168,704
31,765	-3,868	336,908	168,385
32,780	-3,756	336,506	168,298
33,794	-3,797	336,464	168,214
34,809	-3,764	336,096	168,054
35,823	-3,692	335,848	167,997
36,838	-3,786	335,465	167,683
37,853	-3,766	335,138	167,528
38,867	-3,804	334,979	167,389
39,882	-3,782	334,810	167,315
40,896	-3,652	334,293	167,191
41,911	-3,758	334,170	166,993
42,926	-3,742	333,873	166,848
43,940	-3,696	333,596	166,748
44,955	-3,687	333,186	166,538
45,969	-3,654	332,956	166,446
46,984	-3,727	332,917	166,328
47,999	-3,613	332,550	166,260
49,013	-3,713	332,424	166,069
50,028	-3,685	332,168	165,957
51,042	-3,736	331,777	165,689
52,057	-3,802	331,607	165,515
53,071	-3,696	331,308	165,471
54,086	-3,824	331,087	165,200
55,101	-3,679	330,738	165,176
56,115	-3,812	330,550	164,917
57,130	-3,753	330,206	164,797
58,144	-3,756	329,929	164,640
59,159	-3,766	329,549	164,426
60,174	-3,813	329,349	164,258
61,188	-3,751	329,072	164,175
62,203	-3,800	328,935	164,036
63,217	-3,805	328,743	163,921
64,232	-3,747	328,438	163,819
65,247	-3,846	328,037	163,492
66,261	-3,910	327,844	163,310
67,276	-3,884	327,729	163,267
68,290	-3,744	327,400	163,246
69,305	-3,830	327,175	163,023
70,320	-3,677	326,914	163,049
71,334	-3,717	326,579	162,823
72,349	-3,721	326,203	162,617
73,363	-3,905	325,954	162,273
74,378	-3,659	325,790	162,451
75,393	-3,688	325,404	162,213
76,407	-3,697	325,327	162,150
77,422	-3,659	324,941	161,985
78,436	-3,601	324,695	161,913
79,451	-3,748	324,562	161,668
80,466	-3,634	324,205	161,603
81,480	-3,726	324,019	161,393
82,495	-3,679	323,766	161,305
83,509	-3,779	323,492	161,043
84,524	-3,661	323,353	161,090
85,539	-3,598	323,140	161,040
86,553	-3,587	322,834	160,884
87,568	-3,708	322,609	160,625
88,582	-3,647	322,326	160,537
89,597	-3,745	322,153	160,329
90,611	-3,611	321,956	160,364
91,626	-3,769	321,651	160,023
92,641	-3,821	321,220	159,737
93,655	-3,616	321,045	159,861
94,670	-3,603	320,893	159,785
95,684	-3,761	320,776	159,540
96,699	-3,678	320,494	159,477
97,714	-3,566	320,292	159,485
98,728	-3,587	319,891	159,248
99,743	-3,785	319,902	159,023
100,757	-3,563	319,464	159,033
101,772	-3,787	319,375	158,730
102,787	-3,770	319,096	158,595
103,801	-3,649	318,732	158,532
104,816	-3,823	318,617	158,271
105,830	-3,729	318,379	158,242
106,845	-3,717	318,131	158,117
107,860	-3,733	317,811	157,926
108,874	-3,759	317,585	157,772
109,889	-3,907	317,407	157,509
110,903	-3,866	317,207	157,440
111,918	-3,820	316,879	157,313
112,933	-3,785	316,776	157,286
113,947	-3,671	316,442	157,229
114,962	-3,692	316,247	157,096
115,976	-3,634	315,783	156,913
116,991	-3,701	315,949	156,909
118,006	-3,700	315,526	156,686
119,020	-3,746	315,445	156,582
120,035	-3,611	315,254	156,620
121,049	-3,775	314,964	156,285
122,064	-3,699	314,666	156,205
123,079	-3,826	314,584	156,014
124,093	-3,696	314,241	155,970
125,108	-3,677	313,881	155,797
126,122	-3,740	313,790	155,671
127,137	-3,692	313,563	155,595
128,151	-3,656	313,423	155,551
129,166	-3,706	313,174	155,360
130,181	-3,500	312,795	155,378
131,195	-3,740	312,610	155,016
132,210	-3,625	312,422	155,032
133,224	-3,624	312,194	154,905
134,239	-3,555	311,997	154,867
135,254	-3,838	311,767	154,439
136,268	-3,664	311,500	154,478
137,283	-3,636	311,221	154,354
138,297	-3,514	310,901	154,312
139,312	-3,663	310,781	154,081
140,327	-3,661	310,591	153,975
141,341	-3,664	310,355	153,841
142,356	-3,549	310,108	153,827
143,370	-3,546	309,944	153,735
144,385	-3,720	309,718	153,425
145,400	-3,544	309,533	153,505
146,414	-3,724	309,339	153,205
147,429	-3,661	309,059	153,119
148,443	-3,685	308,783	152,944
149,458	-3,720	308,660	152,832
150,473	-3,680	308,361	152,713
151,487	-3,670	308,253	152,657
152,502	-3,693	308,128	152,557
153,516	-3,640	307,512	152,293
154,531	-3,579	307,434	152,305
155,546	-3,566	307,299	152,238
156,560	-3,576	307,060	152,096
157,575	-3,635	306,705	151,845
158,589	-3,534	306,486	151,829
159,604	-3,609	306,392	151,690
160,619	-3,526	306,103	151,620
161,633	-3,456	305,981	151,619
162,648	-3,624	305,779	151,330
163,662	-3,507	305,538	151,319
164,677	-3,674	305,563	151,145
165,692	-3,613	305,238	151,034
166,706	-3,665	305,147	150,921
167,721	-3,557	304,819	150,857
168,735	-3,558	304,735	150,802
169,750	-3,594	304,500	150,635
170,764	-3,696	304,213	150,373
171,779	-3,628	304,004	150,327
172,794	-3,613	303,860	150,258
173,808	-3,529	303,652	150,228
174,823	-3,678	303,529	150,001
175,837	-3,552	303,139	149,924
176,852	-3,690	302,960	149,680
177,867	-3,627	302,799	149,651
178,881	-3,699	302,654	149,494
179,896	-3,529	302,388	149,523
180,910	-3,643	302,195	149,297
181,925	-3,616	302,026	149,229
182,940	-3,723	301,855	149,021
183,954	-3,598	301,504	148,962
184,969	-3,704	301,564	148,870
185,983	-3,330	301,117	149,019
186,998	-3,546	301,072	148,762
188,013	-3,548	300,867	148,645
189,027	-3,622	300,593	148,421
190,042	-3,551	300,382	148,377
191,056	-3,635	300,223	148,199
192,071	-3,583	300,053	148,155
193,086	-3,642	299,597	147,856
194,100	-3,592	299,449	147,821
195,115	-3,452	299,208	147,831
196,129	-3,429	299,137	147,806
197,144	-3,364	298,794	147,689
198,159	-3,429	298,529	147,479
199,173	-3,526	298,354	147,281
200,188	-3,452	298,134	147,234
201,202	-3,633	297,964	146,955
202,217	-3,600	297,807	146,897
203,232	-3,672	297,676	146,747
204,246	-3,562	297,352	146,685
205,261	-3,664	297,222	146,505
206,275	-3,554	296,988	146,487
207,290	-3,518	296,838	146,437
208,304	-3,642	296,602	146,182
209,319	-3,478	296,299	146,184
210,334	-3,661	296,216	145,947
211,348	-3,412	295,921	146,038
212,363	-3,568	295,749	145,784
213,377	-3,580	295,439	145,606
214,392	-3,641	295,490	145,558
215,407	-3,623	295,236	145,437
216,421	-3,632	295,033	145,315
217,436	-3,652	294,740	145,138
218,450	-3,580	294,566	145,111
219,465	-3,694	294,428	144,917
220,480	-3,675	294,096	144,760
221,494	-3,586	294,034	144,804
222,509	-3,484	293,854	144,804
223,523	-3,535	293,655	144,643
224,538	-3,620	293,505	144,471
225,553	-3,715	293,277	144,252
226,567	-3,617	293,092	144,246
227,582	-3,559	292,762	144,128
228,596	-3,571	292,697	144,071
229,611	-3,571	292,503	143,962
230,626	-3,569	292,290	143,846
231,640	-3,571	291,968	143,674
232,655	-3,513	291,988	143,728
233,669	-3,537	291,693	143,546
234,684	-3,601	291,579	143,413
235,699	-3,818	291,476	143,138
236,713	-3,554	291,153	143,225
237,728	-3,350	290,851	143,264
238,742	-3,603	290,741	142,949
239,757	-3,578	290,547	142,865
240,772	-3,667	290,333	142,660
241,786	-3,679	290,082	142,512
242,801	-3,580	289,938	142,525
243,815	-3,461	289,736	142,530
244,830	-3,639	289,647	142,299
245,844	-3,556	289,270	142,183
246,859	-3,633	289,174	142,047
247,874	-3,676	288,970	141,893
248,888	-3,608	288,876	141,901
249,903	-3,618	288,690	141,787
250,917	-3,588	288,519	141,718
251,932	-3,637	288,232	141,518
252,947	-3,806	287,938	141,196
253,961	-4,147	287,541	140,659
254,976	-4,365	287,528	140,428
255,990	-3,975	287,305	140,685
257,005	-2,850	287,571	141,894
258,020	-0,659	288,302	144,370
259,034	0,518	288,627	145,662
260,049	1,010	288,517	146,071
261,063	1,466	288,555	146,520
262,078	1,654	288,501	146,662
263,093	1,904	288,373	146,826
264,107	2,219	288,486	147,176
265,122	2,361	288,393	147,253
266,136	2,399	288,148	147,151
267,151	2,386	288,003	147,051
268,166	2,524	287,681	147,006
269,180	2,560	287,533	146,953
270,195	2,234	287,418	146,567
271,209	2,507	287,191	146,701
272,224	2,321	287,053	146,438
273,239	2,421	286,905	146,446
274,253	2,353	286,599	146,212
275,268	2,224	286,404	145,975
276,282	2,088	286,235	145,745
277,297	2,280	285,940	145,766
278,312	2,185	285,769	145,575
279,326	2,174	285,728	145,530
280,341	2,451	285,429	145,630
281,355	2,305	285,258	145,390
282,370	2,269	285,244	145,336
283,384	2,331	284,762	145,137
284,399	2,093	284,761	144,896
285,414	2,276	284,534	144,942
286,428	2,328	284,254	144,835
287,443	2,169	284,229	144,659
288,457	2,000	283,985	144,361
289,472	2,107	283,682	144,295
290,487	2,077	283,545	144,185
291,501	2,007	283,488	144,076
292,516	2,125	283,185	144,021
293,530	1,953	283,062	143,783
294,545	2,070	282,916	143,806
295,560	1,887	282,766	143,544
296,574	2,016	282,399	143,467
297,589	1,911	282,311	143,311
298,603	2,080	281,973	143,286
299,618	1,889	281,978	143,094
300,633	2,286	281,685	143,308
301,647	2,184	281,572	143,142
302,662	2,208	281,331	143,029
303,676	2,214	281,335	143,024
304,691	2,369	281,024	142,998
305,706	2,197	280,840	142,731
306,720	2,367	280,729	142,821
307,735	2,293	280,584	142,665
308,749	2,274	280,215	142,447
309,764	2,393	280,138	142,506
310,779	2,080	279,952	142,106
311,793	2,036	279,757	141,954
312,808	2,345	279,441	142,069
313,822	2,236	279,433	141,950
314,837	2,345	279,115	141,878
315,852	2,409	279,055	141,895
316,866	2,161	278,846	141,545
317,881	2,351	278,646	141,608
318,895	2,292	278,485	141,459
319,910	2,267	278,318	141,337
320,925	2,284	278,123	141,242
321,939	2,196	278,089	141,130
322,954	2,289	277,706	141,009
323,968	2,367	277,581	141,006
324,983	2,466	277,475	141,031
325,997	2,291	277,232	140,733
327,012	2,266	277,076	140,618
328,027	2,142	277,047	140,476
329,041	2,354	276,712	140,490
330,056	2,421	276,622	140,493
331,070	2,296	276,448	140,277
332,085	2,330	276,274	140,207
333,100	2,202	276,073	139,974
334,114	2,302	275,772	139,902
335,129	2,391	275,705	139,937
336,143	2,316	275,558	139,781
337,158	2,496	275,229	139,767
338,173	2,414	275,244	139,687
339,187	2,325	274,981	139,460
340,202	2,499	274,763	139,496
341,216	2,331	274,621	139,258
342,231	2,334	274,358	139,115
343,246	2,276	274,229	138,983
344,260	2,473	274,071	139,071
345,275	2,430	273,966	138,967
346,289	2,413	273,824	138,866
347,304	2,339	273,678	138,713
348,319	2,439	273,336	138,618
349,333	2,404	273,216	138,512
350,348	2,440	272,908	138,377
351,362	2,405	272,929	138,344
352,377	2,545	272,752	138,368
353,392	2,277	272,694	138,083
354,406	2,349	272,443	138,009
355,421	192,217	1347,375	1429,365
356,435	155,221	1478,427	1429,493
