DTS Sentinel unit serial number:	SN410029Multiplexer serial number:	ORYXHardware model number:	OX2-SRSoftware version number:	ORYX F/W v4,00 Oryx Data Collector v3.7.2.0data status	okinstallation	B4 Nyhavnadifferential loss correction	single-endedforward channel	channel 2reverse channel	N/Adate	2023/12/16time	05:30:13forward acquisition time	300,00reverse acquisition time	0,00gamma	499,1914k internal	0,3128k external	0,3128temperature offset calibration	1,0000default loss term (dB/km)	0,3820temperature slope calibration	1,0000multiplexer offset coefficient	1,0000multiplexer slope coefficient	1,0000fibre end	0,00T internal ref (°C)	22,16T ext. ref 1 (°C)	7,37T ext. ref 2 (°C)	7,57length (m)	temperature (°C)	Stokes	anti-Stokes-744,400	-200,000	-0,007	-0,065
-743,385	241,528	-0,100	0,124
-742,371	-8,114	0,130	0,065
-741,356	139,430	-0,191	0,187
-740,342	517,636	0,064	-0,111
-739,327	790,262	-0,065	0,133
-738,312	-114,955	0,025	0,003
-737,298	-41,785	-0,183	-0,070
-736,283	-83,539	0,060	-0,014
-735,269	-108,178	-0,321	0,051
-734,254	240,035	-0,089	-0,111
-733,239	-66,678	-0,408	-0,119
-732,225	627,142	0,022	-0,041
-731,210	800,000	-0,015	0,047
-730,196	-200,000	0,013	0,140
-729,181	-200,000	0,001	0,029
-728,167	90,245	-0,082	0,068
-727,152	800,000	0,030	-0,095
-726,137	-83,917	-0,025	-0,006
-725,123	-84,096	-0,089	0,021
-724,108	147,077	-0,144	-0,144
-723,094	-200,000	-0,049	-0,187
-722,079	14,620	0,096	-0,056
-721,064	155,151	-0,067	-0,069
-720,050	27,042	-0,024	0,015
-719,035	-157,540	-0,011	-0,000
-718,021	168,947	0,118	0,126
-717,006	187,848	-0,088	-0,097
-715,991	800,000	-0,035	-0,094
-714,977	-5,585	-0,101	0,051
-713,962	-67,768	-0,133	-0,038
-712,948	184,847	0,069	0,076
-711,933	-90,421	0,073	-0,016
-710,918	217,646	-0,122	0,144
-709,904	-75,008	-0,140	-0,037
-708,889	163,241	-0,087	-0,091
-707,875	-19,395	0,093	-0,043
-706,860	129,569	0,190	0,180
-705,845	397,273	-0,047	-0,072
-704,831	-200,000	0,004	0,076
-703,816	0,744	-0,061	0,032
-702,802	433,895	-0,016	0,025
-701,787	-115,854	-0,125	0,017
-700,772	-149,604	-0,109	0,006
-699,758	800,000	0,016	0,043
-698,743	-143,892	0,032	0,002
-697,729	246,234	0,049	0,061
-696,714	-41,142	0,044	-0,017
-695,699	385,508	-0,027	-0,041
-694,685	114,371	-0,108	0,098
-693,670	20,810	-0,062	-0,037
-692,656	583,902	0,017	-0,032
-691,641	-50,877	0,068	-0,024
-690,627	-14,399	0,033	-0,015
-689,612	-200,000	-0,012	0,062
-688,597	1,986	-0,113	0,061
-687,583	-96,656	-0,159	0,031
-686,568	455,792	-0,036	0,060
-685,554	-114,087	-0,078	-0,011
-684,539	35,896	0,086	-0,056
-683,524	-200,000	-0,012	-0,047
-682,510	-200,000	0,016	0,052
-681,495	800,000	0,030	0,079
-680,481	164,333	-0,040	-0,042
-679,466	-9,264	-0,058	0,028
-678,451	-200,000	-0,020	-0,065
-677,437	-200,000	0,001	0,038
-676,422	132,948	0,039	0,037
-675,408	428,666	0,002	-0,003
-674,393	-184,443	0,188	-0,002
-673,378	-18,491	-0,201	-0,093
-672,364	512,718	-0,073	-0,126
-671,349	800,000	-0,024	0,070
-670,335	-104,032	-0,080	-0,014
-669,320	-45,607	0,065	-0,024
-668,305	73,722	0,032	0,025
-667,291	-123,281	-0,130	-0,015
-666,276	103,069	-0,108	0,094
-665,262	800,000	-0,016	-0,036
-664,247	8,313	-0,127	-0,071
-663,232	145,475	0,079	-0,078
-662,218	-200,000	-0,013	0,146
-661,203	-53,617	0,039	-0,013
-660,189	-18,658	-0,174	0,080
-659,174	340,345	-0,083	0,121
-658,159	194,965	0,058	0,065
-657,145	-69,738	-0,077	-0,022
-656,130	800,000	-0,047	-0,138
-655,116	-200,000	0,013	-0,085
-654,101	-200,000	-0,004	0,248
-653,086	289,797	-0,020	-0,027
-652,072	159,002	0,117	-0,121
-651,057	381,498	0,040	-0,061
-650,043	-95,259	0,048	0,010
-649,028	800,000	-0,021	-0,043
-648,014	-200,000	-0,019	-0,112
-646,999	193,519	-0,104	-0,117
-645,984	154,245	0,055	0,056
-644,970	-165,527	0,068	0,002
-643,955	-12,465	-0,116	0,056
-642,941	394,453	-0,045	-0,070
-641,926	54,892	0,016	-0,011
-640,911	-200,000	0,021	-0,087
-639,897	-19,698	-0,040	-0,018
-638,882	184,176	-0,092	0,101
-637,868	4,749	-0,109	-0,059
-636,853	-67,722	-0,061	0,018
-635,838	-200,000	0,013	-0,057
-634,824	24,681	-0,186	-0,114
-633,809	-131,340	-0,051	-0,005
-632,795	-67,601	0,079	0,023
-631,780	-200,000	0,016	0,061
-630,765	-200,000	-0,002	-0,086
-629,751	-83,724	-0,096	-0,023
-628,736	-200,000	-0,014	-0,052
-627,722	-200,000	0,039	0,133
-626,707	800,000	0,013	-0,033
-625,692	800,000	-0,093	0,201
-624,678	-200,000	-0,029	0,184
-623,663	280,289	-0,010	0,013
-622,649	-2,856	-0,002	-0,001
-621,634	116,011	0,094	-0,085
-620,619	800,000	0,031	-0,100
-619,605	800,000	0,047	0,123
-618,590	-200,000	-0,030	0,109
-617,576	717,840	0,040	0,080
-616,561	-171,347	0,044	0,001
-615,546	667,497	-0,064	-0,122
-614,532	230,366	0,055	-0,066
-613,517	496,446	0,025	0,042
-612,503	-65,760	-0,084	-0,025
-611,488	-200,000	0,000	0,003
-610,474	-57,748	0,012	0,004
-609,459	177,360	0,047	-0,050
-608,444	140,623	-0,102	-0,100
-607,430	-147,832	-0,107	-0,007
-606,415	-200,000	0,009	-0,097
-605,401	75,008	-0,073	0,057
-604,386	28,356	0,187	0,116
-603,371	-200,000	-0,003	-0,116
-602,357	-200,000	0,036	0,221
-601,342	800,000	-0,023	-0,070
-600,328	14,115	-0,100	-0,057
-599,313	-200,000	-0,003	-0,128
-598,298	37,045	-0,096	0,063
-597,284	800,000	0,020	0,053
-596,269	800,000	-0,026	0,073
-595,255	565,648	-0,015	-0,028
-594,240	759,542	0,059	0,118
-593,225	218,927	0,026	-0,031
-592,211	-200,000	0,017	0,095
-591,196	-55,120	-0,157	0,052
-590,182	121,185	0,032	-0,029
-589,167	66,272	0,115	0,086
-588,152	-147,140	-0,084	-0,005
-587,138	-112,336	0,068	-0,010
-586,123	-200,000	-0,006	-0,095
-585,109	-200,000	-0,023	-0,103
-584,094	576,150	-0,109	-0,198
-583,079	800,000	-0,049	-0,146
-582,065	335,351	0,109	-0,157
-581,050	133,021	0,067	-0,064
-580,036	14,792	0,045	-0,026
-579,021	-137,360	-0,066	-0,005
-578,006	800,000	0,014	-0,044
-576,992	113,421	-0,104	0,093
-575,977	272,716	-0,039	0,051
-574,963	89,321	0,064	-0,052
-573,948	-37,147	0,079	-0,031
-572,934	482,502	0,037	-0,063
-571,919	-18,137	0,063	0,029
-570,904	420,847	0,042	0,066
-569,890	-200,000	0,010	-0,135
-568,875	-200,000	0,021	0,108
-567,861	316,892	-0,096	0,134
-566,846	-136,017	0,130	0,011
-565,831	-42,768	-0,026	0,010
-564,817	-104,099	-0,050	0,009
-563,802	-25,586	0,118	-0,051
-562,788	-200,000	-0,002	-0,046
-561,773	-13,108	0,103	-0,049
-560,758	800,000	-0,046	-0,106
-559,744	-113,531	-0,048	-0,007
-558,729	712,443	-0,070	-0,139
-557,715	17,595	0,119	0,070
-556,700	98,913	0,100	-0,085
-555,685	-200,000	0,014	0,081
-554,671	-200,000	0,017	-0,076
-553,656	-67,598	-0,078	0,022
-552,642	-200,000	-0,021	0,151
-551,627	176,228	-0,040	-0,043
-550,612	180,448	-0,038	-0,041
-549,598	-200,000	0,008	0,054
-548,583	-79,701	-0,116	0,029
-547,569	332,040	0,074	0,105
-546,554	-200,000	0,037	0,124
-545,539	800,000	0,072	0,225
-544,525	186,489	-0,049	-0,054
-543,510	394,534	-0,052	-0,080
-542,496	-200,000	0,029	-0,146
-541,481	-200,000	0,037	-0,245
-540,466	-117,588	0,062	0,008
-539,452	167,350	0,023	0,024
-538,437	-29,081	0,034	-0,014
-537,423	278,701	-0,021	-0,027
-536,408	156,032	-0,096	-0,098
-535,393	-140,147	-0,094	0,007
-534,379	141,371	0,090	-0,088
-533,364	-69,912	0,136	-0,038
-532,350	142,080	0,046	-0,045
-531,335	800,000	0,010	-0,024
-530,321	638,838	0,021	-0,039
-529,306	-200,000	0,009	-0,086
-528,291	800,000	0,037	0,098
-527,277	-200,000	0,004	-0,070
-526,262	-135,396	-0,053	-0,005
-525,248	422,401	0,035	0,056
-524,233	-200,000	-0,022	-0,086
-523,218	334,889	0,056	0,080
-522,204	-10,408	-0,093	0,045
-521,189	-63,729	-0,044	-0,013
-520,175	263,201	-0,057	0,073
-519,160	-47,423	-0,038	0,014
-518,145	580,960	0,032	-0,058
-517,131	-200,000	-0,006	-0,129
-516,116	800,000	-0,022	0,053
-515,102	-200,000	-0,001	0,064
-514,087	800,000	-0,046	-0,104
-513,072	-200,000	0,028	-0,219
-512,058	-200,000	0,014	-0,108
-511,043	800,000	-0,006	-0,020
-510,029	-39,937	0,028	0,011
-509,014	-127,365	0,119	0,013
-507,999	800,000	0,040	0,089
-506,985	56,468	-0,142	-0,102
-505,970	633,175	-0,014	0,027
-504,956	-122,558	-0,056	0,007
-503,941	-43,710	0,057	0,021
-502,926	-165,639	0,123	0,004
-501,912	-160,508	0,077	0,003
-500,897	-98,817	-0,061	-0,011
-499,883	109,735	0,074	-0,065
-498,868	195,646	-0,035	0,040
-497,853	35,679	-0,068	0,044
-496,839	-187,279	0,054	0,001
-495,824	800,000	-0,017	0,042
-494,810	144,469	-0,070	0,069
-493,795	-88,298	0,186	-0,041
-492,781	14,849	-0,053	0,030
-491,766	-0,254	-0,082	-0,043
-490,751	-77,085	-0,094	0,024
-489,737	-107,366	0,054	0,009
-488,722	-122,978	-0,083	-0,010
-487,708	309,170	0,045	0,062
-486,693	-200,000	-0,006	0,129
-485,678	-200,000	0,030	0,186
-484,664	800,000	0,016	-0,044
-483,649	-29,367	-0,110	-0,046
-482,635	411,200	0,049	0,077
-481,620	800,000	-0,047	0,103
-480,605	-37,264	0,112	-0,044
-479,591	17,654	0,053	-0,031
-478,576	-27,174	-0,041	0,017
-477,562	-103,466	0,068	-0,012
-476,547	-127,930	-0,104	-0,011
-475,532	800,000	-0,023	-0,062
-474,518	-101,040	-0,045	-0,008
-473,503	-200,000	-0,014	0,134
-472,489	-200,000	0,018	-0,101
-471,474	-200,000	-0,006	-0,093
-470,459	-144,902	-0,023	0,001
-469,445	-38,402	0,070	0,027
-468,430	-103,200	-0,052	0,009
-467,416	-46,122	0,186	0,067
-466,401	-154,076	0,140	0,007
-465,386	115,160	0,037	0,033
-464,372	-200,000	0,004	-0,052
-463,357	-44,106	-0,030	-0,011
-462,343	-200,000	0,008	-0,046
-461,328	53,422	-0,041	0,029
-460,313	800,000	-0,030	0,082
-459,299	82,243	-0,045	0,036
-458,284	210,904	-0,051	-0,060
-457,270	-77,208	0,148	-0,038
-456,255	800,000	-0,055	-0,117
-455,241	-200,000	0,028	-0,141
-454,226	-38,942	-0,124	-0,048
-453,211	-162,569	0,038	-0,001
-452,197	-200,000	0,015	0,059
-451,182	-200,000	-0,030	0,118
-450,168	118,073	0,059	-0,054
-449,153	-143,288	-0,089	0,006
-448,138	-77,100	-0,082	-0,021
-447,124	347,195	-0,075	0,109
-446,109	275,372	-0,068	-0,089
-445,095	-189,163	0,158	-0,001
-444,080	116,989	-0,099	0,090
-443,065	106,006	0,097	-0,085
-442,051	-200,000	-0,029	-0,144
-441,036	214,936	-0,079	-0,092
-440,022	-200,000	0,001	-0,033
-439,007	-7,772	0,154	0,076
-437,992	-128,812	-0,146	-0,015
-436,978	-200,000	-0,019	-0,082
-435,963	345,311	-0,047	0,067
-434,949	-61,255	-0,065	-0,020
-433,934	230,164	-0,037	0,045
-432,919	-114,762	-0,071	0,010
-431,905	-200,000	0,011	-0,122
-430,890	-84,718	-0,095	0,022
-429,876	220,586	0,052	0,061
-428,861	552,662	0,060	-0,107
-427,846	-59,776	-0,048	-0,015
-426,832	-200,000	-0,001	0,049
-425,817	-155,323	-0,023	0,001
-424,803	-70,958	0,041	-0,011
-423,788	122,639	0,051	-0,047
-422,773	7,337	-0,048	0,026
-421,759	66,338	-0,023	0,017
-420,744	13,502	-0,097	-0,055
-419,730	-44,427	0,042	0,015
-418,715	-156,603	-0,006	-0,000
-417,701	800,000	0,080	0,171
-416,686	-200,000	-0,017	0,057
-415,671	319,507	0,024	-0,033
-414,657	182,251	0,138	0,149
-413,642	-95,372	-0,154	0,030
-412,628	-200,000	0,007	-0,058
-411,613	775,897	0,035	0,071
-410,598	435,416	-0,078	0,126
-409,584	-200,000	-0,029	0,110
-408,569	-69,215	0,140	-0,039
-407,555	168,277	-0,037	0,039
-406,540	5,205	0,134	0,073
-405,525	35,880	0,131	0,084
-404,511	202,401	-0,080	0,091
-403,496	-36,392	-0,085	-0,033
-402,482	-44,793	0,075	0,027
-401,467	242,541	0,052	0,065
-400,452	124,105	0,056	-0,051
-399,438	674,362	0,092	0,176
-398,423	-101,634	-0,090	-0,016
-397,409	-200,000	-0,039	-0,142
-396,394	502,382	0,114	-0,193
-395,379	-87,780	-0,145	-0,032
-394,365	-140,887	0,072	0,005
-393,350	60,865	0,091	0,066
-392,336	20,039	-0,110	0,065
-391,321	88,555	-0,072	0,059
-390,306	123,358	-0,052	0,048
-389,292	-200,000	-0,022	0,111
-388,277	89,225	0,091	-0,075
-387,263	-200,000	-0,013	-0,141
-386,248	-200,000	0,008	0,086
-385,233	82,758	-0,025	0,020
-384,219	678,975	0,038	-0,073
-383,204	-200,000	0,000	0,069
-382,190	-200,000	0,004	0,035
-381,175	-10,374	-0,090	-0,044
-380,160	-87,897	0,029	-0,006
-379,146	60,191	0,102	0,074
-378,131	-200,000	0,010	0,084
-377,117	390,185	-0,079	0,121
-376,102	433,660	0,068	0,109
-375,088	-141,476	-0,058	-0,004
-374,073	-200,000	-0,009	-0,141
-373,058	75,454	-0,069	-0,054
-372,044	-103,301	0,094	-0,016
-371,029	18,992	-0,016	0,009
-370,015	117,163	0,091	0,082
-369,000	273,881	-0,081	-0,105
-367,985	-200,000	0,003	-0,078
-366,971	252,335	0,039	0,048
-365,956	17,146	-0,068	-0,040
-364,942	-200,000	0,016	-0,064
-363,927	-44,127	0,100	0,037
-362,912	604,509	0,066	0,121
-361,898	227,872	-0,039	0,047
-360,883	162,302	-0,039	-0,041
-359,869	422,748	-0,060	-0,096
-358,854	691,947	-0,039	-0,075
-357,839	800,000	-0,064	0,207
-356,825	-200,000	0,029	0,164
-355,810	800,000	0,015	-0,044
-354,796	-200,000	-0,016	-0,062
-353,781	-29,882	-0,086	0,036
-352,766	-200,000	0,004	-0,088
-351,752	156,128	-0,053	-0,053
-350,737	800,000	-0,011	-0,024
-349,723	530,676	0,019	-0,032
-348,708	309,383	0,041	0,057
-347,693	268,166	-0,035	0,045
-346,679	-92,345	-0,095	-0,019
-345,664	-200,000	0,005	-0,091
-344,650	-200,000	-0,008	0,059
-343,635	-49,822	0,049	0,017
-342,620	-20,298	0,089	-0,040
-341,606	800,000	0,052	0,117
-340,591	-133,935	0,099	-0,009
-339,577	-64,938	-0,296	0,087
-338,562	-161,358	0,050	-0,002
-337,548	-200,000	0,030	-0,114
-336,533	-80,736	-0,014	0,003
-335,518	94,232	0,025	-0,021
-334,504	-200,000	0,007	-0,060
-333,489	59,617	-0,090	0,065
-332,475	54,603	-0,051	-0,036
-331,460	-43,410	0,168	0,062
-330,445	-63,971	0,167	0,050
-329,431	423,973	0,043	0,067
-328,416	-33,421	0,046	0,019
-327,402	399,472	-0,080	-0,124
-326,387	-28,789	0,099	0,042
-325,372	800,000	-0,035	0,112
-324,358	403,414	0,040	-0,062
-323,343	685,012	-0,031	0,060
-322,329	-200,000	-0,007	0,166
-321,314	-83,915	0,191	0,044
-320,299	94,883	0,128	0,107
-319,285	288,830	-0,065	0,087
-318,270	-138,564	-0,034	0,003
-317,256	800,000	0,078	-0,181
-316,241	-200,000	-0,016	-0,077
-315,226	296,296	-0,050	0,068
-314,212	145,717	-0,061	-0,060
-313,197	413,892	-0,014	0,022
-312,183	-3,572	0,047	0,024
-311,168	-200,000	-0,003	-0,018
-310,153	-11,495	-0,104	-0,050
-309,139	-200,000	0,013	0,090
-308,124	-200,000	0,017	-0,094
-307,110	370,334	0,045	-0,067
-306,095	-200,000	-0,024	-0,159
-305,080	88,180	-0,055	-0,045
-304,066	-39,413	0,031	-0,012
-303,051	227,591	-0,101	-0,120
-302,037	-200,000	-0,020	-0,065
-301,022	800,000	0,042	-0,091
-300,008	-61,342	-0,055	0,017
-298,993	-39,629	0,086	0,033
-297,978	77,231	0,015	0,012
-296,964	-200,000	-0,012	0,115
-295,949	-200,000	0,014	-0,120
-294,935	114,478	-0,050	0,044
-293,920	244,806	0,070	-0,086
-292,905	-144,171	0,036	0,002
-291,891	-131,251	-0,042	0,004
-290,876	130,876	0,038	-0,036
-289,862	-200,000	0,010	0,198
-288,847	-200,000	-0,025	-0,111
-287,832	-200,000	-0,038	0,134
-286,818	-85,030	0,010	0,002
-285,803	659,017	0,006	0,011
-284,789	-200,000	0,037	0,132
-283,774	-168,529	0,157	0,004
-282,759	12,092	-0,103	0,058
-281,745	639,570	-0,045	0,085
-280,730	-112,223	-0,142	-0,021
-279,716	-77,797	-0,124	-0,031
-278,701	-54,911	-0,224	0,073
-277,686	6,848	-0,120	-0,065
-276,672	-137,259	0,072	-0,006
-275,657	-200,000	-0,012	0,042
-274,643	483,312	-0,046	-0,077
-273,628	41,398	-0,208	-0,137
-272,613	289,101	0,028	-0,038
-271,599	-55,844	0,084	0,027
-270,584	58,442	-0,005	-0,004
-269,570	117,860	-0,024	-0,022
-268,555	193,316	-0,094	0,104
-267,540	-200,000	0,027	-0,104
-266,526	151,398	-0,099	-0,099
-265,511	-44,552	-0,020	-0,007
-264,497	800,000	-0,038	0,120
-263,482	-81,225	0,116	0,028
-262,467	20,234	0,032	-0,019
-261,453	201,518	-0,072	0,081
-260,438	800,000	0,040	0,101
-259,424	228,755	-0,091	0,109
-258,409	-200,000	0,026	-0,186
-257,395	-84,626	0,138	-0,031
-256,380	-8,975	0,082	0,040
-255,365	-200,000	0,012	0,065
-254,351	-56,416	0,060	0,019
-253,336	800,000	-0,011	0,030
-252,322	37,638	-0,167	-0,108
-251,307	137,477	0,092	0,088
-250,292	-20,309	0,074	0,033
-249,278	-108,279	0,130	0,020
-248,263	135,446	-0,037	-0,035
-247,249	11,997	0,105	-0,059
-246,234	-34,667	0,107	-0,042
-245,219	511,645	0,006	-0,010
-244,205	-200,000	0,029	-0,130
-243,190	115,825	0,112	0,100
-242,176	207,911	0,134	0,153
-241,161	429,296	-0,026	-0,041
-240,146	-200,000	0,001	-0,085
-239,132	783,341	0,054	-0,109
-238,117	-200,000	-0,002	-0,081
-237,103	-3,092	-0,059	0,030
-236,088	-99,299	-0,047	-0,009
-235,073	182,613	0,116	0,125
-234,059	800,000	-0,011	0,035
-233,044	29,397	-0,085	0,052
-232,030	543,590	-0,068	-0,119
-231,015	277,860	-0,047	0,061
-230,000	518,162	0,077	-0,132
-228,986	800,000	-0,010	-0,024
-227,971	-157,893	-0,111	-0,005
-226,957	-177,623	0,101	-0,002
-225,942	800,000	0,020	0,040
-224,927	-107,700	-0,079	0,012
-223,913	-168,073	-0,014	0,000
-222,898	79,920	0,053	-0,042
-221,884	-200,000	0,012	-0,087
-220,869	68,027	0,081	0,061
-219,855	-200,000	0,011	-0,093
-218,840	605,586	0,008	0,014
-217,825	-200,000	0,017	0,124
-216,811	800,000	0,013	-0,028
-215,796	-200,000	-0,005	0,065
-214,782	-200,000	-0,019	0,120
-213,767	400,143	0,036	0,055
-212,752	-99,473	0,061	0,011
-211,738	-200,000	0,025	-0,147
-210,723	166,911	0,075	0,078
-209,709	-19,829	-0,126	-0,056
-208,694	60,952	0,058	-0,042
-207,679	-109,904	-0,114	-0,017
-206,665	91,374	-0,022	-0,018
-205,650	-200,000	0,009	0,063
-204,636	-35,595	0,086	-0,034
-203,621	-200,000	0,006	-0,027
-202,606	-28,077	-0,050	0,021
-201,592	225,439	0,068	0,080
-200,577	-200,000	-0,012	-0,103
-199,563	-200,000	0,018	0,066
-198,548	-200,000	0,006	0,043
-197,533	-106,480	0,171	-0,027
-196,519	-19,974	0,103	-0,046
-195,504	47,199	0,045	0,031
-194,490	-9,344	0,100	-0,048
-193,475	-185,442	-0,075	-0,001
-192,460	-45,965	0,072	0,026
-191,446	398,367	-0,001	-0,002
-190,431	150,848	0,053	0,053
-189,417	153,061	-0,045	-0,045
-188,402	-165,390	-0,045	-0,001
-187,387	-165,187	-0,056	0,002
-186,373	-48,621	-0,219	-0,076
-185,358	-200,000	-0,017	0,057
-184,344	720,672	0,053	-0,103
-183,329	-200,000	0,005	0,096
-182,315	-200,000	0,049	0,223
-181,300	12,628	-0,087	0,049
-180,285	77,407	0,117	-0,090
-179,271	-200,000	-0,001	0,054
-178,256	129,035	-0,042	-0,039
-177,242	-200,000	0,026	0,138
-176,227	-200,000	0,019	0,063
-175,212	786,177	-0,033	0,065
-174,198	-200,000	-0,002	0,037
-173,183	107,761	-0,035	0,030
-172,169	-131,768	0,106	-0,010
-171,154	218,242	-0,133	-0,155
-170,139	-200,000	0,032	-0,104
-169,125	240,466	-0,058	-0,071
-168,110	-200,000	-0,005	0,083
-167,096	-149,695	-0,047	-0,003
-166,081	-138,356	-0,105	-0,008
-165,066	-200,000	0,004	-0,144
-164,052	-200,000	0,017	0,076
-163,037	-51,698	0,040	-0,013
-162,023	-200,000	0,010	0,065
-161,008	32,427	0,082	0,051
-159,993	8,929	-0,065	0,036
-158,979	-155,097	0,068	0,003
-157,964	-200,000	-0,016	-0,094
-156,950	800,000	-0,026	0,075
-155,935	-200,000	-0,001	-0,046
-154,920	-25,988	0,091	-0,039
-153,906	161,239	-0,032	0,032
-152,891	-200,000	-0,001	0,156
-151,877	-70,295	-0,147	-0,040
-150,862	105,181	-0,066	0,056
-149,847	132,867	0,133	-0,125
-148,833	-200,000	-0,008	-0,059
-147,818	800,000	0,036	-0,084
-146,804	-47,998	0,152	0,053
-145,789	800,000	0,048	-0,118
-144,775	-17,807	-0,061	0,028
-143,760	800,000	0,024	-0,068
-142,745	-200,000	-0,000	-0,045
-141,731	89,643	0,053	-0,043
-140,716	-77,566	-0,108	-0,027
-139,702	-200,000	-0,019	-0,132
-138,687	800,000	-0,021	-0,048
-137,672	270,765	-0,071	-0,091
-136,658	126,836	-0,084	0,077
-135,643	754,528	0,019	-0,038
-134,629	800,000	0,002	-0,007
-133,614	22,765	0,083	-0,049
-132,599	726,244	-0,068	-0,132
-131,585	308,077	0,008	-0,011
-130,570	-40,263	-0,075	-0,028
-129,556	-200,000	0,006	-0,140
-128,541	-200,000	0,007	-0,066
-127,526	800,000	0,030	-0,077
-126,512	-200,000	-0,021	0,122
-125,497	-105,022	0,225	0,037
-124,483	162,916	0,027	-0,028
-123,468	-26,650	0,130	-0,055
-122,453	-58,060	0,019	-0,006
-121,439	-76,543	-0,090	0,023
-120,424	800,000	-0,027	0,058
-119,410	800,000	0,035	-0,071
-118,395	600,183	0,043	0,078
-117,380	-200,000	0,018	0,119
-116,366	2,776	-0,050	0,026
-115,351	10,932	-0,071	-0,039
-114,337	800,000	-0,029	0,070
-113,322	-84,335	0,094	-0,021
-112,307	-200,000	0,004	0,066
-111,293	-14,299	0,120	0,056
-110,278	327,205	0,105	-0,147
-109,264	-200,000	0,022	-0,107
-108,249	-200,000	-0,003	0,057
-107,234	-200,000	0,025	0,105
-106,220	686,347	-0,010	-0,020
-105,205	410,273	0,083	0,128
-104,191	-200,000	-0,043	0,150
-103,176	-200,000	0,003	0,041
-102,162	800,000	0,031	-0,073
-101,147	-200,000	0,024	-0,100
-100,132	145,261	-0,113	-0,110
-99,118	-48,086	-0,128	0,045
-98,103	800,000	-0,026	0,076
-97,089	-136,831	0,098	0,008
-96,074	-200,000	0,049	0,000
-95,059	-54,513	-0,055	-0,018
-94,045	-200,000	-0,034	-0,160
-93,030	748,974	-0,013	-0,026
-92,016	517,476	-0,024	-0,040
-91,001	244,829	-0,037	0,045
-89,986	308,363	0,109	-0,148
-88,972	-42,343	0,109	0,040
-87,957	39,516	0,045	0,029
-86,943	190,284	-0,070	0,077
-85,928	112,706	-0,105	-0,092
-84,913	-200,000	0,020	0,104
-83,899	190,550	0,081	0,088
-82,884	125,932	-0,087	0,079
-81,870	800,000	-0,014	0,045
-80,855	294,766	0,077	0,102
-79,840	800,000	-0,055	-0,138
-78,826	16,773	0,095	-0,055
-77,811	-200,000	0,009	-0,085
-76,797	26,221	-0,113	0,068
-75,782	273,058	0,026	-0,034
-74,767	274,755	-0,011	0,014
-73,753	44,709	0,074	-0,049
-72,738	800,000	0,036	0,077
-71,724	629,769	-0,038	-0,069
-70,709	-113,024	-0,064	0,009
-69,694	-88,123	-0,022	-0,005
-68,680	138,589	0,073	-0,069
-67,665	-200,000	-0,013	-0,052
-66,651	437,108	0,030	-0,048
-65,636	800,000	-0,038	-0,100
-64,622	157,050	-0,008	0,008
-63,607	-22,684	0,100	-0,044
-62,592	-200,000	-0,012	0,089
-61,578	-70,842	-0,034	0,009
-60,563	-200,000	-0,015	0,095
-59,549	29,148	-0,164	0,101
-58,534	-128,750	-1,341	-0,135
-57,519	510,723	-0,839	-1,420
-56,505	-200,000	-0,931	-4,358
-55,490	-53,194	0,605	-0,200
-54,476	800,000	4,873	11,488
-53,461	-200,000	13,790	251,534
-52,446	-200,000	691,083	2244,304
-51,432	587,004	1621,078	2902,183
-50,417	118,580	1631,459	1459,120
-49,403	73,921	1285,982	976,157
-48,388	38,063	1022,338	657,491
-47,373	24,184	980,486	585,065
-46,359	23,393	970,019	576,209
-45,344	22,399	965,679	570,369
-44,330	22,394	964,140	569,423
-43,315	22,229	962,786	568,063
-42,300	22,195	961,686	567,280
-41,286	22,241	960,709	566,832
-40,271	22,124	959,942	565,979
-39,257	22,150	958,955	565,457
-38,242	22,203	957,927	565,001
-37,227	22,152	957,237	564,408
-36,213	22,128	956,292	563,751
-35,198	22,126	955,433	563,212
-34,184	22,144	954,806	562,881
-33,169	22,175	953,862	562,400
-32,154	22,247	952,935	562,064
-31,140	22,183	952,080	561,333
-30,125	22,257	951,312	561,095
-29,111	22,236	950,319	560,418
-28,096	22,150	949,857	559,849
-27,082	22,177	949,244	559,550
-26,067	22,209	948,193	559,012
-25,052	22,156	947,719	558,541
-24,038	22,253	946,963	558,382
-23,023	22,140	946,481	557,715
-22,009	22,198	945,687	557,411
-20,994	22,240	945,090	557,171
-19,979	22,282	944,227	556,773
-18,965	22,186	943,760	556,170
-17,950	22,276	943,037	556,008
-16,936	22,125	942,418	555,141
-15,921	22,141	941,840	554,829
-14,906	22,079	941,037	554,137
-13,892	22,056	940,352	553,640
-12,877	22,121	939,700	553,440
-11,863	22,052	939,253	552,936
-10,848	22,016	938,779	552,520
-9,833	22,166	938,222	552,647
-8,819	22,199	937,567	552,344
-7,804	22,062	936,981	551,542
-6,790	22,070	936,504	551,265
-5,775	22,119	935,884	551,033
-4,760	22,049	935,071	550,311
-3,746	22,043	934,594	549,989
-2,731	21,929	933,839	549,166
-1,717	21,910	933,099	548,648
-0,702	21,899	932,436	548,203
0,313	21,656	931,888	547,944
1,327	24,316	929,552	554,860
2,342	32,183	808,117	503,643
3,356	27,314	508,758	308,755
4,371	3,063	373,400	195,835
5,386	0,018	356,356	183,152
6,400	-1,446	350,247	178,233
7,415	-2,310	347,376	175,723
8,429	-2,508	346,023	174,787
9,444	-2,650	344,978	174,076
10,459	-2,550	344,250	173,810
11,473	-2,530	343,662	173,522
12,488	-2,173	343,310	173,751
13,502	-2,171	342,771	173,465
14,517	-2,319	342,109	172,940
15,531	-2,450	341,572	172,499
16,546	-2,491	341,137	172,216
17,561	-2,552	340,698	171,908
18,575	-2,426	340,213	171,795
19,590	-2,491	339,883	171,537
20,604	-2,549	339,594	171,308
21,619	-2,581	339,243	171,078
22,634	-2,522	338,854	170,935
23,648	-2,451	338,419	170,784
24,663	-2,575	338,149	170,488
25,677	-2,570	338,001	170,404
26,692	-2,572	337,627	170,198
27,707	-2,402	337,279	170,204
28,721	-2,443	336,857	169,929
29,736	-2,564	336,523	169,606
30,750	-2,616	336,276	169,405
31,765	-2,543	336,085	169,378
32,780	-2,524	335,892	169,288
33,794	-2,576	335,546	169,039
34,809	-2,477	335,205	168,965
35,823	-2,485	334,829	168,752
36,838	-2,587	334,591	168,499
37,853	-2,475	334,217	168,425
38,867	-2,660	334,049	168,113
39,882	-2,567	333,731	168,045
40,896	-2,682	333,444	167,754
41,911	-2,604	333,129	167,669
42,926	-2,635	332,825	167,466
43,940	-2,577	332,487	167,347
44,955	-2,647	332,323	167,170
45,969	-2,742	332,102	166,935
46,984	-2,815	331,792	166,681
47,999	-3,041	331,396	166,210
49,013	-3,142	331,142	165,954
50,028	-3,117	330,819	165,806
51,042	-3,236	330,515	165,504
52,057	-3,293	330,363	165,348
53,071	-3,210	330,026	165,259
54,086	-3,141	329,983	165,301
55,101	-3,075	329,602	165,169
56,115	-3,057	329,379	165,064
57,130	-2,602	329,240	165,493
58,144	-2,306	328,996	165,689
59,159	-2,429	328,753	165,412
60,174	-2,371	328,452	165,312
61,188	-2,465	328,386	165,159
62,203	-2,375	327,952	165,027
63,217	-2,444	327,752	164,834
64,232	-2,290	327,420	164,825
65,247	-2,247	327,322	164,809
66,261	-2,367	326,954	164,475
67,276	-2,605	326,577	164,004
68,290	-2,666	326,231	163,748
69,305	-2,869	326,209	163,495
70,320	-2,763	325,794	163,390
71,334	-2,648	325,719	163,468
72,349	-2,360	325,543	163,685
73,363	-2,333	325,274	163,564
74,378	-2,375	324,903	163,317
75,393	-2,401	324,694	163,169
76,407	-2,453	324,624	163,061
77,422	-2,452	324,212	162,841
78,436	-2,408	323,958	162,748
79,451	-2,501	323,738	162,519
80,466	-2,554	323,358	162,256
81,480	-2,820	323,208	161,871
82,495	-2,629	322,866	161,897
83,509	-2,654	322,701	161,773
84,524	-2,808	322,351	161,413
85,539	-2,796	321,954	161,212
86,553	-2,768	321,829	161,166
87,568	-2,760	321,639	161,066
88,582	-2,789	321,433	160,917
89,597	-2,686	321,151	160,875
90,611	-2,727	321,114	160,796
91,626	-2,589	320,760	160,756
92,641	-2,605	320,501	160,594
93,655	-2,691	320,281	160,375
94,670	-2,695	320,155	160,294
95,684	-2,625	319,798	160,177
96,699	-2,625	319,553	160,041
97,714	-2,817	319,404	159,741
98,728	-2,826	319,026	159,529
99,743	-2,746	318,703	159,440
100,757	-2,937	318,712	159,222
101,772	-2,788	318,401	159,215
102,787	-2,615	318,006	159,190
103,801	-2,635	317,834	159,069
104,816	-2,634	317,758	159,018
105,830	-2,432	317,641	159,165
106,845	-2,513	317,377	158,930
107,860	-2,558	317,060	158,708
108,874	-2,585	316,886	158,577
109,889	-2,653	316,540	158,317
110,903	-2,556	316,225	158,250
111,918	-2,701	316,067	158,000
112,933	-2,761	316,050	157,914
113,947	-2,595	315,720	157,914
114,962	-2,520	315,566	157,902
115,976	-2,552	315,361	157,751
116,991	-2,520	314,883	157,533
118,006	-2,633	314,872	157,392
119,020	-2,560	314,635	157,338
120,035	-2,433	314,512	157,398
121,049	-2,425	314,355	157,314
122,064	-2,565	314,217	157,082
123,079	-2,539	313,742	156,858
124,093	-2,577	313,518	156,691
125,108	-2,762	313,251	156,347
126,122	-2,972	312,950	155,958
127,137	-2,972	312,565	155,752
128,151	-2,863	312,468	155,806
129,166	-2,684	312,243	155,870
130,181	-2,853	312,016	155,563
131,195	-2,792	311,799	155,506
132,210	-2,768	311,782	155,509
133,224	-2,425	311,469	155,703
134,239	-2,647	311,295	155,367
135,254	-2,593	310,888	155,207
136,268	-2,758	310,791	154,970
137,283	-2,759	310,450	154,786
138,297	-2,807	310,162	154,577
139,312	-2,853	309,926	154,397
140,327	-2,719	309,906	154,514
141,341	-2,292	309,773	154,885
142,356	-2,279	309,699	154,848
143,370	-2,293	309,343	154,641
144,385	-2,169	309,078	154,625
145,400	-2,384	309,015	154,354
146,414	-2,289	308,734	154,300
147,429	-2,362	308,580	154,133
148,443	-2,401	308,282	153,929
149,458	-2,133	308,060	154,084
150,473	-2,210	307,856	153,889
151,487	-2,396	307,711	153,608
152,502	-2,248	307,626	153,706
153,516	-2,261	307,384	153,559
154,531	-2,288	307,017	153,333
155,546	-2,173	306,776	153,319
156,560	-2,287	306,682	153,140
157,575	-2,513	306,505	152,802
158,589	-2,558	306,204	152,592
159,604	-2,197	305,952	152,828
160,619	-2,338	305,806	152,594
161,633	-2,307	305,645	152,533
162,648	-2,467	305,565	152,313
163,662	-2,163	305,118	152,392
164,677	-2,358	304,969	152,102
165,692	-2,280	304,757	152,063
166,706	-2,261	304,680	152,031
167,721	-2,098	304,361	152,027
168,735	-2,309	304,144	151,687
169,750	-2,252	304,159	151,740
170,764	-2,150	303,866	151,686
171,779	-2,254	303,697	151,480
172,794	-2,098	303,631	151,594
173,808	-2,327	303,380	151,220
174,823	-2,591	302,804	150,648
175,837	-2,832	302,588	150,280
176,852	-2,418	302,678	150,737
177,867	-2,114	302,533	150,962
178,881	-2,142	302,317	150,812
179,896	-2,156	302,122	150,687
180,910	-2,156	301,839	150,533
181,925	-2,245	301,716	150,367
182,940	-2,145	301,575	150,385
183,954	-2,039	301,343	150,365
184,969	-2,126	300,948	150,066
185,983	-2,239	300,868	149,897
186,998	-2,230	300,599	149,759
188,013	-2,333	300,477	149,580
189,027	-2,127	300,299	149,687
190,042	-2,330	300,027	149,332
191,056	-1,961	299,891	149,627
192,071	-1,961	299,754	149,545
193,086	-1,896	299,601	149,520
194,100	-2,014	299,326	149,251
195,115	-2,132	299,148	149,029
196,129	-2,167	298,810	148,811
197,144	-2,067	298,563	148,776
198,159	-1,961	298,444	148,811
199,173	-1,935	298,186	148,695
200,188	-1,910	298,001	148,615
201,202	-2,112	297,617	148,207
202,217	-2,503	297,308	147,646
203,232	-2,659	297,122	147,384
204,246	-2,349	297,146	147,694
205,261	-2,196	297,024	147,775
206,275	-2,022	296,817	147,833
207,290	-2,028	296,668	147,740
208,304	-2,296	296,419	147,334
209,319	-2,166	296,097	147,290
210,334	-2,205	296,011	147,196
211,348	-2,151	295,738	147,100
212,363	-2,246	295,563	146,905
213,377	-2,166	295,566	146,974
214,392	-2,122	295,233	146,840
215,407	-2,272	294,981	146,551
216,421	-2,511	294,804	146,212
217,436	-2,416	294,432	146,110
218,450	-2,558	294,324	145,902
219,465	-2,297	294,228	146,101
220,480	-2,257	293,966	145,997
221,494	-2,228	293,846	145,953
222,509	-2,356	293,625	145,703
223,523	-2,103	293,451	145,855
224,538	-2,304	293,364	145,599
225,553	-2,054	293,225	145,765
226,567	-2,041	293,065	145,685
227,582	-2,162	292,912	145,476
228,596	-1,921	292,677	145,585
229,611	-2,042	292,529	145,379
230,626	-1,982	292,154	145,238
231,640	-2,497	291,878	144,582
232,655	-2,678	291,597	144,251
233,669	-2,878	291,292	143,890
234,684	-2,815	291,254	143,920
235,699	-2,726	291,097	143,918
236,713	-2,627	290,969	143,939
237,728	-2,525	290,757	143,922
238,742	-2,509	290,585	143,839
239,757	-2,234	290,300	143,954
240,772	-2,127	290,322	144,057
241,786	-2,291	290,138	143,793
242,801	-2,368	289,884	143,578
243,815	-2,306	289,458	143,415
244,830	-2,271	289,494	143,455
245,844	-2,521	289,271	143,087
246,859	-2,507	289,150	143,028
247,874	-2,319	288,912	143,081
248,888	-2,383	288,638	142,870
249,903	-2,377	288,734	142,911
250,917	-2,177	288,490	142,971
251,932	-1,950	288,300	143,086
252,947	-1,435	288,239	143,542
253,961	-1,841	288,163	143,098
254,976	-0,770	288,414	144,250
255,990	1,808	289,057	147,064
257,005	2,584	289,332	147,945
258,020	3,906	289,805	149,458
259,034	4,215	289,494	149,584
260,049	3,797	289,303	149,067
261,063	3,693	289,175	148,888
262,078	3,801	289,089	148,935
263,093	4,655	288,997	149,700
264,107	4,397	288,846	149,359
265,122	4,539	288,806	149,463
266,136	4,802	288,605	149,600
267,151	4,633	288,291	149,260
268,166	4,403	288,059	148,905
269,180	4,472	287,776	148,812
270,195	4,344	287,672	148,621
271,209	4,434	287,551	148,632
272,224	4,239	287,322	148,314
273,239	4,375	287,091	148,312
274,253	4,260	286,893	148,085
275,268	4,765	286,990	148,608
276,282	4,618	286,740	148,324
277,297	4,732	286,492	148,292
278,312	4,888	286,336	148,347
279,326	4,779	286,150	148,133
280,341	4,388	285,933	147,633
281,355	4,171	285,898	147,395
282,370	4,169	285,439	147,143
283,384	4,304	285,161	147,115
284,399	4,394	285,112	147,163
285,414	4,455	285,146	147,225
286,428	4,333	284,721	146,877
287,443	4,145	284,359	146,498
288,457	4,064	284,158	146,305
289,472	3,918	284,117	146,131
290,487	3,985	283,743	145,990
291,501	3,818	283,523	145,705
292,516	3,700	283,401	145,517
293,530	3,694	283,291	145,442
294,545	3,930	283,319	145,668
295,560	4,127	283,203	145,782
296,574	3,815	282,783	145,257
297,589	4,025	282,651	145,375
298,603	4,320	282,625	145,627
299,618	4,433	282,437	145,624
300,633	4,465	282,161	145,498
301,647	4,309	281,984	145,248
302,662	4,262	281,865	145,129
303,676	4,055	281,676	144,825
304,691	3,823	281,338	144,420
305,706	3,861	281,069	144,304
306,720	3,742	280,814	144,049
307,735	3,717	280,658	143,933
308,749	3,893	280,653	144,082
309,764	3,954	280,471	144,033
310,779	3,910	280,168	143,823
311,793	3,659	280,066	143,523
312,808	3,794	279,872	143,538
313,822	3,843	279,735	143,500
314,837	3,822	279,507	143,350
315,852	3,675	279,258	143,074
316,866	3,674	279,314	143,088
317,881	3,890	279,008	143,120
318,895	3,751	278,709	142,824
319,910	3,503	278,564	142,507
320,925	3,562	278,268	142,398
321,939	3,695	278,286	142,518
322,954	4,022	278,123	142,725
323,968	4,028	278,015	142,662
324,983	4,062	277,742	142,541
325,997	3,995	277,663	142,425
327,012	4,078	277,479	142,395
328,027	4,172	277,347	142,402
329,041	4,066	277,055	142,140
330,056	4,024	277,011	142,067
331,070	3,938	276,719	141,825
332,085	3,957	276,458	141,697
333,100	3,905	276,400	141,606
334,114	3,891	276,185	141,471
335,129	3,756	275,990	141,233
336,143	4,064	275,860	141,438
337,158	4,265	275,678	141,516
338,173	4,125	275,493	141,280
339,187	3,983	275,352	141,065
340,202	4,044	275,098	140,978
341,216	4,001	274,934	140,842
342,231	4,015	274,875	140,812
343,246	4,017	274,672	140,697
344,260	3,812	274,464	140,391
345,275	3,930	274,461	140,485
346,289	4,389	274,236	140,776
347,304	4,355	274,083	140,654
348,319	3,975	273,932	140,218
349,333	4,064	273,767	140,202
350,348	4,366	273,522	140,338
351,362	4,364	273,400	140,262
352,377	4,158	273,185	139,951
353,392	4,273	273,095	139,998
354,406	4,302	272,876	139,899
355,421	192,479	1330,765	1411,549
356,435	155,561	1459,736	1411,677
