DTS Sentinel unit serial number:	SN410029Multiplexer serial number:	ORYXHardware model number:	OX2-SRSoftware version number:	ORYX F/W v4,00 Oryx Data Collector v3.7.2.0data status	okinstallation	B4 Nyhavnadifferential loss correction	single-endedforward channel	channel 2reverse channel	N/Adate	2023/12/15time	22:20:13forward acquisition time	300,00reverse acquisition time	0,00gamma	499,1914k internal	0,3132k external	0,3132temperature offset calibration	1,0000default loss term (dB/km)	0,3820temperature slope calibration	1,0000multiplexer offset coefficient	1,0000multiplexer slope coefficient	1,0000fibre end	0,00T internal ref (°C)	21,31T ext. ref 1 (°C)	6,60T ext. ref 2 (°C)	6,77length (m)	temperature (°C)	Stokes	anti-Stokes-744,400	-200,000	-0,018	-0,119
-743,385	-83,826	-0,211	0,050
-742,371	-33,554	-0,034	0,014
-741,356	-126,113	-0,181	0,020
-740,342	-200,000	0,113	-0,000
-739,327	-126,564	-0,241	-0,026
-738,312	-200,000	0,000	-0,004
-737,298	-20,269	-0,193	0,088
-736,283	2,414	0,115	-0,061
-735,269	-174,929	-0,172	0,003
-734,254	-55,474	0,032	0,011
-733,239	-85,790	-0,358	-0,082
-732,225	127,619	0,091	-0,086
-731,210	-200,000	0,023	0,094
-730,196	488,945	0,045	0,076
-729,181	661,187	-0,043	-0,082
-728,167	11,579	-0,026	0,015
-727,152	-50,719	-0,146	-0,051
-726,137	-200,000	0,022	-0,121
-725,123	-154,775	-0,074	0,004
-724,108	-200,000	0,025	-0,093
-723,094	177,887	-0,093	-0,101
-722,079	420,332	-0,101	-0,161
-721,064	-200,000	-0,032	-0,127
-720,050	-200,000	-0,022	0,100
-719,035	-128,128	-0,077	0,008
-718,021	-104,080	-0,124	-0,021
-717,006	-200,000	0,013	-0,157
-715,991	-200,000	-0,018	-0,062
-714,977	800,000	-0,040	-0,105
-713,962	800,000	-0,055	-0,142
-712,948	-200,000	0,006	0,060
-711,933	175,495	0,070	-0,075
-710,918	-138,513	-0,085	0,007
-709,904	-200,000	-0,005	-0,106
-708,889	-200,000	-0,006	0,059
-707,875	134,453	-0,060	-0,058
-706,860	118,345	-0,038	0,034
-705,845	581,017	0,037	-0,068
-704,831	800,000	-0,026	0,057
-703,816	30,877	0,124	-0,079
-702,802	118,287	-0,050	0,046
-701,787	-200,000	0,013	-0,045
-700,772	18,570	-0,123	-0,073
-699,758	13,043	-0,091	0,052
-698,743	171,365	-0,034	0,036
-697,729	174,523	-0,050	-0,054
-696,714	-200,000	0,010	-0,117
-695,699	-49,555	0,059	-0,021
-694,685	254,155	-0,022	-0,028
-693,670	43,434	0,066	-0,045
-692,656	-63,169	0,036	0,011
-691,641	63,353	0,129	0,096
-690,627	172,946	-0,053	-0,056
-689,612	-200,000	-0,038	0,129
-688,597	25,478	0,063	-0,039
-687,583	-200,000	0,003	0,084
-686,568	800,000	-0,031	-0,069
-685,554	800,000	-0,010	0,028
-684,539	217,923	-0,041	-0,048
-683,524	-32,423	-0,046	-0,019
-682,510	-200,000	-0,057	0,249
-681,495	445,094	0,105	0,171
-680,481	-190,396	-0,087	0,001
-679,466	24,360	-0,109	-0,066
-678,451	-200,000	-0,043	-0,317
-677,437	800,000	0,003	-0,006
-676,422	-7,426	0,070	0,035
-675,408	-14,109	-0,158	0,075
-674,393	637,519	-0,021	0,040
-673,378	-200,000	0,003	-0,013
-672,364	391,665	-0,067	-0,103
-671,349	346,438	-0,058	-0,085
-670,335	-190,240	0,090	-0,001
-669,320	-200,000	0,016	0,136
-668,305	648,764	-0,044	0,084
-667,291	-128,299	-0,051	0,005
-666,276	800,000	-0,066	-0,210
-665,262	223,350	0,027	-0,033
-664,247	-97,589	-0,080	0,015
-663,232	-119,078	0,160	-0,020
-662,218	-63,188	0,064	0,020
-661,203	-7,339	-0,042	0,021
-660,189	-200,000	0,025	0,090
-659,174	-200,000	-0,008	-0,160
-658,159	800,000	0,047	-0,117
-657,145	166,649	-0,028	-0,030
-656,130	-200,000	0,017	-0,262
-655,116	250,573	-0,082	-0,103
-654,101	106,125	-0,044	-0,039
-653,086	-159,797	-0,095	0,004
-652,072	-200,000	-0,035	0,115
-651,057	153,876	0,041	-0,041
-650,043	285,272	-0,005	0,006
-649,028	102,780	-0,074	0,064
-648,014	163,316	0,069	0,072
-646,999	337,166	0,060	-0,087
-645,984	4,287	0,027	0,015
-644,970	325,790	0,039	-0,056
-643,955	-200,000	0,010	-0,067
-642,941	36,488	0,151	-0,099
-641,926	-97,883	-0,157	0,030
-640,911	-200,000	-0,010	-0,135
-639,897	420,899	0,074	-0,117
-638,882	129,364	0,061	0,057
-637,868	-200,000	0,021	0,149
-636,853	82,022	-0,027	0,021
-635,838	-200,000	-0,003	-0,063
-634,824	-101,292	-0,059	0,011
-633,809	-200,000	-0,013	0,054
-632,795	800,000	0,035	0,095
-631,780	-200,000	0,008	0,108
-630,765	-14,009	0,161	0,076
-629,751	-200,000	0,002	0,055
-628,736	265,904	-0,022	-0,029
-627,722	209,921	-0,037	-0,043
-626,707	285,703	-0,040	0,053
-625,692	5,528	0,098	0,053
-624,678	183,622	-0,011	0,012
-623,663	800,000	0,080	0,205
-622,649	158,632	0,033	0,034
-621,634	800,000	-0,035	-0,091
-620,619	336,535	0,086	-0,124
-619,605	742,468	-0,051	0,101
-618,590	800,000	0,061	0,167
-617,576	-200,000	-0,063	0,210
-616,561	-200,000	0,016	-0,077
-615,546	540,805	0,006	-0,010
-614,532	-200,000	-0,000	0,035
-613,517	16,893	-0,132	0,077
-612,503	-52,505	0,014	-0,005
-611,488	-0,523	0,087	0,045
-610,474	-17,173	-0,033	-0,015
-609,459	621,037	-0,079	-0,148
-608,444	250,459	-0,033	-0,042
-607,430	-151,265	-0,049	-0,003
-606,415	41,774	-0,078	0,052
-605,401	800,000	-0,024	-0,078
-604,386	69,792	0,016	-0,012
-603,371	-200,000	0,008	-0,070
-602,357	514,816	-0,089	0,155
-601,342	-49,589	-0,068	0,024
-600,328	-48,093	0,075	-0,027
-599,313	-200,000	0,026	-0,126
-598,298	-200,000	0,037	-0,127
-597,284	-153,437	0,118	0,006
-596,269	-157,569	-0,078	0,003
-595,255	-122,033	0,094	-0,011
-594,240	35,307	0,060	-0,039
-593,225	126,320	-0,110	-0,103
-592,211	-4,207	-0,034	-0,017
-591,196	-200,000	0,046	-0,171
-590,182	485,674	0,064	0,108
-589,167	800,000	-0,045	0,140
-588,152	-200,000	-0,019	0,099
-587,138	800,000	-0,062	-0,148
-586,123	800,000	-0,061	-0,152
-585,109	-200,000	-0,015	-0,066
-584,094	-200,000	-0,002	-0,089
-583,079	87,349	-0,050	-0,041
-582,065	800,000	0,041	0,130
-581,050	-31,969	0,090	-0,037
-580,036	-47,662	-0,086	-0,031
-579,021	45,008	-0,016	-0,011
-578,006	-200,000	0,012	-0,090
-576,992	44,275	-0,082	-0,055
-575,977	800,000	0,037	-0,092
-574,963	800,000	-0,068	0,152
-573,948	-38,378	-0,055	0,022
-572,934	15,880	0,069	-0,040
-571,919	-131,414	-0,082	-0,008
-570,904	-200,000	0,000	0,062
-569,890	-40,617	-0,117	0,045
-568,875	26,035	-0,015	-0,009
-567,861	-98,640	0,126	0,024
-566,846	-66,151	-0,159	0,047
-565,831	357,280	0,075	0,111
-564,817	356,322	-0,065	-0,097
-563,802	-116,147	0,161	-0,022
-562,788	-6,287	-0,072	-0,036
-561,773	-12,217	-0,162	-0,078
-560,758	-200,000	-0,018	0,107
-559,744	295,462	-0,010	-0,014
-558,729	387,300	-0,087	0,133
-557,715	40,186	0,005	0,003
-556,700	-152,582	-0,134	0,007
-555,685	44,368	0,068	0,046
-554,671	-200,000	0,001	0,098
-553,656	800,000	0,004	-0,009
-552,642	-200,000	0,005	0,161
-551,627	299,710	-0,070	0,095
-550,612	290,916	-0,069	0,093
-549,598	184,272	0,108	-0,118
-548,583	-31,932	-0,167	-0,069
-547,569	-200,000	0,028	0,097
-546,554	-16,059	-0,065	-0,030
-545,539	24,119	-0,102	0,062
-544,525	280,734	-0,021	0,028
-543,510	-98,750	-0,113	0,021
-542,496	-200,000	-0,002	0,075
-541,481	753,457	-0,027	0,054
-540,466	110,437	0,110	-0,097
-539,452	-200,000	0,001	0,010
-538,437	-42,671	0,111	-0,042
-537,423	-200,000	0,031	-0,161
-536,408	800,000	-0,029	-0,085
-535,393	-200,000	0,014	-0,108
-534,379	207,086	-0,049	-0,056
-533,364	209,917	0,091	0,106
-532,350	-200,000	-0,002	-0,050
-531,335	-58,966	-0,110	0,035
-530,321	214,063	0,035	0,041
-529,306	462,641	-0,040	0,066
-528,291	-76,117	0,055	0,014
-527,277	-24,378	0,022	0,010
-526,262	-124,360	0,022	-0,002
-525,248	-200,000	-0,034	0,144
-524,233	800,000	-0,011	-0,026
-523,218	-2,753	0,066	0,034
-522,204	-84,120	-0,057	-0,013
-521,189	249,892	-0,051	0,064
-520,175	147,829	0,091	0,091
-519,160	72,817	-0,020	-0,016
-518,145	-93,212	0,150	-0,030
-517,131	-175,278	-0,037	-0,001
-516,116	-200,000	0,011	0,100
-515,102	44,218	-0,025	-0,017
-514,087	-174,705	-0,067	-0,001
-513,072	-139,945	0,035	-0,003
-512,058	443,811	0,029	-0,046
-511,043	-200,000	-0,010	-0,120
-510,029	3,536	0,084	0,045
-509,014	198,581	0,038	0,043
-507,999	92,601	0,115	0,095
-506,985	-200,000	0,018	-0,088
-505,970	-96,169	-0,120	0,023
-504,956	79,647	0,103	0,081
-503,941	263,270	-0,110	-0,141
-502,926	345,384	0,070	-0,101
-501,912	800,000	-0,015	0,043
-500,897	800,000	-0,036	0,085
-499,883	-189,014	-0,171	-0,001
-498,868	487,776	-0,032	0,054
-497,853	224,726	-0,082	-0,098
-496,839	-200,000	-0,003	-0,115
-495,824	-31,428	0,127	-0,052
-494,810	-172,557	0,091	0,002
-493,795	378,785	-0,051	0,077
-492,781	255,087	0,009	0,012
-491,766	122,215	0,047	0,043
-490,751	-200,000	0,018	-0,066
-489,737	-200,000	-0,017	0,134
-488,722	1,123	-0,074	0,039
-487,708	-200,000	0,009	0,086
-486,693	-84,274	0,080	0,018
-485,678	61,635	-0,050	0,037
-484,664	766,347	-0,028	0,056
-483,649	137,012	0,096	-0,092
-482,635	-200,000	-0,003	-0,029
-481,620	-200,000	0,004	-0,133
-480,605	-200,000	-0,013	-0,044
-479,591	-200,000	-0,030	-0,147
-478,576	-119,360	-0,162	0,021
-477,562	107,873	-0,079	-0,069
-476,547	372,714	-0,062	-0,093
-475,532	800,000	-0,043	-0,108
-474,518	-200,000	-0,014	-0,061
-473,503	-40,607	-0,042	-0,016
-472,489	331,577	-0,050	0,071
-471,474	267,073	0,085	-0,109
-470,459	283,928	-0,110	-0,146
-469,445	-200,000	0,001	-0,031
-468,430	62,901	0,093	-0,068
-467,416	-88,809	0,098	-0,021
-466,401	-56,442	-0,125	-0,041
-465,386	-200,000	-0,014	0,099
-464,372	236,757	-0,083	0,102
-463,357	-33,803	-0,081	0,033
-462,343	80,303	-0,103	0,081
-461,328	-76,288	-0,087	-0,022
-460,313	470,489	0,010	-0,017
-459,299	-200,000	0,023	0,114
-458,284	6,726	0,078	0,043
-457,270	800,000	0,010	0,026
-456,255	-200,000	0,015	0,067
-455,241	-200,000	-0,021	-0,097
-454,226	141,712	0,073	0,071
-453,211	311,010	0,027	0,037
-452,197	-7,084	-0,052	-0,026
-451,182	-3,847	0,021	0,011
-450,168	-200,000	-0,016	0,065
-449,153	800,000	0,031	-0,090
-448,138	345,930	-0,095	-0,138
-447,124	-29,422	-0,156	0,065
-446,109	-102,784	-0,102	-0,018
-445,095	368,530	0,049	-0,073
-444,080	736,402	0,051	0,101
-443,065	800,000	-0,017	0,050
-442,051	154,422	-0,011	0,011
-441,036	-4,532	0,065	-0,033
-440,022	328,803	0,026	0,037
-439,007	-200,000	-0,011	0,143
-437,992	-52,586	0,220	-0,074
-436,978	-200,000	-0,018	0,079
-435,963	-108,461	0,059	0,009
-434,949	20,603	-0,014	-0,008
-433,934	725,341	-0,091	-0,179
-432,919	-67,752	0,061	0,017
-431,905	800,000	-0,029	0,068
-430,890	-152,976	0,062	0,003
-429,876	107,711	0,051	-0,044
-428,861	-73,862	-0,076	0,020
-427,846	-21,242	-0,041	-0,019
-426,832	322,257	0,031	-0,043
-425,817	114,388	-0,093	-0,083
-424,803	-37,635	0,096	-0,037
-423,788	265,735	-0,075	0,096
-422,773	800,000	-0,012	0,038
-421,759	-200,000	0,004	0,080
-420,744	-200,000	0,021	0,145
-419,730	-18,846	-0,136	-0,062
-418,715	-73,183	-0,103	0,027
-417,701	308,355	0,042	-0,057
-416,686	-100,550	0,110	-0,020
-415,671	800,000	0,035	-0,110
-414,657	230,967	0,063	-0,075
-413,642	152,317	0,093	-0,094
-412,628	45,435	-0,094	0,063
-411,613	-85,963	0,083	0,019
-410,598	-105,029	-0,039	-0,006
-409,584	177,098	0,009	-0,010
-408,569	-200,000	-0,023	0,134
-407,555	-37,404	0,127	0,050
-406,540	-200,000	-0,017	0,071
-405,525	-37,208	-0,088	-0,034
-404,511	-151,604	-0,074	-0,004
-403,496	-64,030	-0,025	0,007
-402,482	-53,819	0,017	0,006
-401,467	446,642	-0,039	0,063
-400,452	57,078	0,160	-0,114
-399,438	15,957	0,052	-0,030
-398,423	-200,000	0,001	-0,027
-397,409	145,844	-0,037	-0,036
-396,394	-113,601	0,027	0,004
-395,379	-200,000	-0,028	-0,093
-394,365	-200,000	-0,009	0,082
-393,350	-28,241	-0,045	0,019
-392,336	189,736	0,048	-0,053
-391,321	-200,000	0,020	0,065
-390,306	-112,116	-0,045	0,007
-389,292	145,143	0,058	-0,057
-388,277	800,000	0,039	-0,112
-387,263	-20,177	-0,123	0,055
-386,248	-66,272	-0,101	0,029
-385,233	-200,000	-0,005	0,192
-384,219	800,000	-0,014	0,042
-383,204	800,000	-0,059	-0,163
-382,190	-200,000	0,017	-0,089
-381,175	627,272	-0,024	0,045
-380,160	-121,718	0,048	0,006
-379,146	-200,000	0,003	0,034
-378,131	-127,427	0,146	0,015
-377,117	800,000	-0,006	-0,015
-376,102	328,149	-0,084	-0,118
-375,088	800,000	0,009	-0,024
-374,073	180,203	0,159	-0,171
-373,058	-76,425	0,034	-0,009
-372,044	624,518	-0,033	-0,062
-371,029	151,998	-0,035	0,035
-370,015	139,756	0,125	-0,120
-369,000	47,461	0,064	-0,044
-367,985	-59,403	0,130	-0,041
-366,971	594,862	-0,054	-0,099
-365,956	163,848	0,025	-0,025
-364,942	47,483	0,176	0,120
-363,927	69,430	0,104	0,078
-362,912	-200,000	-0,000	0,066
-361,898	-200,000	-0,004	0,050
-360,883	-112,822	-0,089	-0,013
-359,869	-39,863	-0,082	-0,031
-358,854	-200,000	0,009	-0,098
-357,839	-109,563	0,080	0,012
-356,825	-87,604	0,055	0,012
-355,810	-200,000	0,022	-0,074
-354,796	40,788	-0,098	-0,065
-353,781	800,000	0,020	0,056
-352,766	311,415	0,050	0,069
-351,752	-55,770	0,078	-0,025
-350,737	-114,800	0,061	-0,008
-349,723	-25,118	0,144	-0,062
-348,708	126,487	-0,086	0,079
-347,693	-73,110	-0,072	-0,019
-346,679	800,000	-0,066	0,139
-345,664	51,949	-0,071	-0,049
-344,650	-200,000	0,046	0,180
-343,635	-200,000	-0,005	-0,105
-342,620	-145,214	0,081	-0,005
-341,606	15,120	-0,034	0,019
-340,591	33,612	-0,049	-0,031
-339,577	-59,776	-0,027	0,008
-338,562	800,000	0,042	-0,091
-337,548	800,000	-0,041	0,107
-336,533	476,764	0,071	0,118
-335,518	-46,668	-0,136	-0,048
-334,504	-200,000	-0,013	0,052
-333,489	540,296	-0,014	-0,024
-332,475	-200,000	-0,015	0,069
-331,460	124,449	0,054	-0,050
-330,445	252,406	-0,021	-0,026
-329,431	-96,213	0,073	-0,014
-328,416	-36,055	0,162	0,064
-327,402	-38,264	-0,080	0,031
-326,387	-123,929	0,031	-0,004
-325,372	-92,223	-0,164	-0,034
-324,358	200,947	-0,043	-0,048
-323,343	-82,851	-0,088	0,021
-322,329	25,617	0,115	-0,070
-321,314	252,855	0,089	0,112
-320,299	800,000	-0,064	0,134
-319,285	-36,751	0,114	0,045
-318,270	800,000	0,009	0,026
-317,256	-200,000	0,008	-0,031
-316,241	35,555	0,102	0,065
-315,226	67,302	0,089	0,067
-314,212	-2,279	0,125	0,064
-313,197	115,764	-0,125	0,112
-312,183	-200,000	0,017	-0,079
-311,168	289,408	-0,068	-0,090
-310,153	470,849	-0,135	-0,223
-309,139	-129,060	0,101	-0,010
-308,124	79,754	-0,016	-0,012
-307,110	97,564	0,045	0,038
-306,095	800,000	-0,015	0,035
-305,080	-200,000	0,001	0,090
-304,066	800,000	-0,039	0,100
-303,051	-11,709	-0,038	-0,018
-302,037	799,661	0,010	-0,020
-301,022	-103,225	0,163	0,028
-300,008	-47,624	0,132	0,047
-298,993	221,390	-0,060	0,071
-297,978	-101,877	0,124	-0,022
-296,964	-84,187	-0,128	-0,029
-295,949	-51,764	0,149	-0,050
-294,935	800,000	0,034	-0,076
-293,920	800,000	0,046	0,112
-292,905	369,571	0,034	0,050
-291,891	-200,000	-0,001	0,148
-290,876	-143,413	-0,043	0,003
-289,862	212,116	-0,032	0,037
-288,847	502,090	-0,032	-0,054
-287,832	33,638	-0,076	-0,048
-286,818	-200,000	0,004	0,058
-285,803	-200,000	-0,008	-0,058
-284,789	314,777	0,025	-0,035
-283,774	8,338	-0,032	0,018
-282,759	-94,250	-0,093	0,018
-281,745	-200,000	0,028	0,217
-280,730	-87,333	-0,079	-0,017
-279,716	707,925	-0,024	-0,047
-278,701	11,727	0,048	-0,027
-277,686	1,570	0,095	0,050
-276,672	-6,389	0,133	0,066
-275,657	-200,000	0,007	0,105
-274,643	800,000	-0,053	-0,155
-273,628	5,338	-0,014	0,007
-272,613	115,875	0,049	0,043
-271,599	-67,808	0,077	0,022
-270,584	-200,000	0,012	0,061
-269,570	-120,004	0,083	-0,010
-268,555	800,000	-0,009	0,024
-267,540	-200,000	-0,012	-0,051
-266,526	-200,000	-0,000	-0,132
-265,511	-200,000	-0,031	0,137
-264,497	329,770	0,020	0,028
-263,482	-52,602	0,088	0,030
-262,467	-148,593	0,097	-0,006
-261,453	800,000	0,020	-0,060
-260,438	125,504	-0,029	-0,026
-259,424	-135,351	-0,086	0,007
-258,409	-200,000	-0,005	-0,037
-257,395	411,002	-0,020	0,031
-256,380	-200,000	-0,018	-0,105
-255,365	287,136	-0,019	0,025
-254,351	-200,000	0,001	0,092
-253,336	-69,947	-0,069	-0,019
-252,322	800,000	-0,014	-0,045
-251,307	122,671	-0,121	0,110
-250,292	800,000	0,038	0,099
-249,278	-200,000	0,001	0,003
-248,263	292,488	-0,066	-0,088
-247,249	-200,000	-0,022	-0,081
-246,234	-18,537	0,115	0,052
-245,219	179,277	-0,077	-0,082
-244,205	-200,000	-0,000	-0,097
-243,190	-200,000	0,017	-0,096
-242,176	-138,729	-0,105	0,008
-241,161	140,225	0,118	0,113
-240,146	-200,000	-0,046	0,206
-239,132	66,884	0,038	0,028
-238,117	398,146	-0,046	-0,070
-237,103	623,348	-0,086	-0,159
-236,088	127,281	-0,030	-0,028
-235,073	171,767	0,016	-0,017
-234,059	131,844	0,160	0,150
-233,044	-54,762	-0,082	-0,027
-232,030	-200,000	0,015	-0,113
-231,015	650,668	0,021	0,039
-230,000	-200,000	-0,001	-0,058
-228,986	-92,448	0,102	0,021
-227,971	-200,000	0,004	-0,092
-226,957	-200,000	-0,019	-0,171
-225,942	56,728	-0,045	-0,032
-224,927	800,000	-0,031	-0,077
-223,913	-57,110	0,056	0,018
-222,898	-200,000	0,017	-0,071
-221,884	-18,342	-0,034	-0,015
-220,869	-200,000	0,011	0,037
-219,855	-200,000	-0,031	-0,101
-218,840	800,000	0,049	0,124
-217,825	-200,000	-0,001	-0,047
-216,811	-93,074	-0,101	0,020
-215,796	-81,721	-0,077	0,018
-214,782	-168,942	0,047	-0,001
-213,767	-44,096	0,106	0,039
-212,752	-200,000	-0,012	0,103
-211,738	256,970	0,020	-0,025
-210,723	321,476	0,054	0,074
-209,709	-200,000	0,007	0,055
-208,694	-200,000	-0,012	0,139
-207,679	73,207	0,052	-0,040
-206,665	84,728	0,078	-0,062
-205,650	-200,000	0,037	0,141
-204,636	800,000	-0,038	0,098
-203,621	226,315	0,064	-0,076
-202,606	-200,000	-0,022	0,138
-201,592	-36,972	-0,022	-0,008
-200,577	779,890	-0,057	-0,115
-199,563	800,000	0,031	0,095
-198,548	53,856	-0,144	0,101
-197,533	344,976	0,025	-0,035
-196,519	-30,352	-0,045	-0,018
-195,504	-96,656	0,043	-0,008
-194,490	88,570	-0,102	-0,082
-193,475	800,000	0,008	0,023
-192,460	-200,000	0,017	0,069
-191,446	24,583	-0,028	0,017
-190,431	-200,000	0,015	-0,103
-189,417	800,000	0,050	0,115
-188,402	8,356	-0,037	-0,020
-187,387	-200,000	0,013	-0,152
-186,373	-161,614	-0,104	0,004
-185,358	9,449	0,043	0,024
-184,344	-136,319	0,108	0,009
-183,329	46,380	0,111	0,075
-182,315	493,993	-0,092	-0,155
-181,300	800,000	0,033	-0,069
-180,285	476,749	-0,083	-0,137
-179,271	-200,000	-0,003	0,031
-178,256	-200,000	0,010	-0,147
-177,242	-31,423	-0,160	0,065
-176,227	31,675	0,110	-0,069
-175,212	-200,000	-0,023	0,174
-174,198	800,000	-0,058	-0,141
-173,183	584,574	-0,076	-0,136
-172,169	-200,000	-0,015	-0,060
-171,154	185,090	-0,120	0,130
-170,139	-152,007	0,117	0,006
-169,125	-200,000	0,023	-0,086
-168,110	681,049	0,035	-0,066
-167,096	-200,000	0,008	-0,050
-166,081	27,296	-0,067	-0,041
-165,066	-143,574	-0,076	-0,005
-164,052	89,626	0,020	0,016
-163,037	-38,300	0,053	0,020
-162,023	800,000	0,057	-0,128
-161,008	-94,366	0,075	0,015
-159,993	194,527	-0,020	0,022
-158,979	736,822	0,016	0,032
-157,964	-200,000	-0,015	-0,075
-156,950	350,443	0,089	-0,128
-155,935	511,339	-0,040	-0,068
-154,920	-200,000	-0,019	0,095
-153,906	-200,000	0,010	0,054
-152,891	124,647	0,057	0,052
-151,877	34,252	-0,096	0,061
-150,862	693,401	-0,070	0,133
-149,847	800,000	-0,023	-0,073
-148,833	54,908	-0,058	0,040
-147,818	800,000	0,012	0,034
-146,804	-134,219	-0,166	-0,015
-145,789	-105,612	0,040	-0,006
-144,775	16,712	-0,125	0,072
-143,760	-112,774	-0,168	0,024
-142,745	-83,926	-0,034	0,008
-141,731	-112,916	-0,123	-0,017
-140,716	-200,000	0,022	-0,076
-139,702	416,316	-0,050	0,078
-138,687	-80,129	0,075	0,018
-137,672	800,000	-0,037	0,089
-136,658	700,003	0,034	-0,064
-135,643	292,118	0,005	0,006
-134,629	249,045	-0,057	-0,070
-133,614	53,701	-0,059	0,041
-132,599	-200,000	-0,006	0,166
-131,585	589,919	0,053	0,096
-130,570	-200,000	-0,003	0,080
-129,556	-200,000	-0,009	-0,043
-128,541	107,624	0,057	-0,049
-127,526	16,820	0,053	0,030
-126,512	590,857	0,034	-0,061
-125,497	29,988	-0,076	0,047
-124,483	-200,000	-0,014	0,130
-123,468	-147,811	-0,249	-0,015
-122,453	242,413	-0,040	-0,049
-121,439	183,983	-0,011	-0,012
-120,424	-147,097	-0,089	0,005
-119,410	14,530	0,103	-0,058
-118,395	-200,000	-0,022	0,112
-117,380	-200,000	0,009	0,126
-116,366	98,649	0,041	-0,034
-115,351	-29,328	0,105	-0,044
-114,337	800,000	-0,066	0,182
-113,322	-200,000	0,002	0,052
-112,307	197,903	0,102	0,114
-111,293	-43,979	0,210	0,076
-110,278	656,718	-0,017	-0,032
-109,264	-95,678	0,160	0,031
-108,249	213,715	-0,038	-0,043
-107,234	-200,000	-0,001	0,024
-106,220	800,000	0,014	-0,035
-105,205	-119,127	0,230	-0,029
-104,191	-200,000	0,033	-0,111
-103,176	526,547	0,048	0,083
-102,162	57,366	-0,072	0,051
-101,147	380,608	-0,067	-0,100
-100,132	-200,000	0,038	-0,149
-99,118	143,461	-0,071	-0,069
-98,103	-200,000	0,015	0,064
-97,089	251,848	0,078	0,096
-96,074	576,742	0,040	0,072
-95,059	-13,787	0,144	0,067
-94,045	-143,380	-0,116	0,008
-93,030	-200,000	0,006	0,041
-92,016	-200,000	0,026	-0,180
-91,001	186,673	-0,044	0,048
-89,986	14,702	0,150	0,085
-88,972	300,403	-0,112	0,151
-87,957	-200,000	-0,006	-0,073
-86,943	-111,450	-0,091	0,013
-85,928	-200,000	-0,015	-0,069
-84,913	109,996	-0,067	-0,058
-83,899	205,312	-0,060	0,068
-82,884	-200,000	-0,007	0,147
-81,870	596,536	-0,097	0,174
-80,855	154,654	-0,078	0,078
-79,840	-33,845	-0,137	-0,054
-78,826	-200,000	-0,000	-0,048
-77,811	800,000	0,033	-0,083
-76,797	-200,000	-0,002	0,035
-75,782	800,000	-0,013	0,035
-74,767	17,815	0,080	0,046
-73,753	82,556	0,048	0,038
-72,738	11,310	-0,042	0,023
-71,724	-68,912	-0,075	-0,021
-70,709	73,175	0,017	0,013
-69,694	-200,000	-0,019	0,061
-68,680	298,912	0,065	-0,087
-67,665	800,000	-0,033	0,073
-66,651	-31,499	-0,009	-0,004
-65,636	70,298	0,046	0,034
-64,622	399,036	-0,097	-0,147
-63,607	-200,000	-0,004	-0,069
-62,592	134,811	0,027	-0,025
-61,578	-200,000	-0,024	-0,126
-60,563	-52,752	0,142	0,047
-59,549	102,847	-0,137	0,116
-58,534	-97,160	-1,359	-0,255
-57,519	800,000	-0,707	-1,499
-56,505	-200,000	-0,748	-4,575
-55,490	-87,896	0,596	-0,129
-54,476	800,000	4,826	11,508
-53,461	-200,000	14,407	255,953
-52,446	-200,000	694,186	2237,243
-51,432	577,511	1619,673	2877,359
-50,417	117,522	1628,212	1449,387
-49,403	74,903	1282,385	976,166
-48,388	37,486	1020,567	653,584
-47,373	23,465	979,215	581,208
-46,359	22,691	968,657	572,391
-45,344	21,584	964,075	566,063
-44,330	21,576	962,603	565,149
-43,315	21,316	961,469	563,618
-42,300	21,373	960,275	563,081
-41,286	21,456	959,191	562,691
-40,271	21,431	958,080	561,936
-39,257	21,350	957,302	561,195
-38,242	21,292	956,389	560,451
-37,227	21,328	955,589	560,077
-36,213	21,314	954,671	559,472
-35,198	21,306	953,780	558,901
-34,184	21,281	953,410	558,581
-33,169	21,288	952,333	557,951
-32,154	21,373	951,340	557,621
-31,140	21,380	950,415	557,078
-30,125	21,401	949,853	556,796
-29,111	21,307	948,862	555,890
-28,096	21,348	948,075	555,538
-27,082	21,309	947,586	555,104
-26,067	21,370	946,805	554,819
-25,052	21,318	946,103	554,222
-24,038	21,343	945,394	553,864
-23,023	21,420	944,764	553,719
-22,009	21,463	943,977	553,371
-20,994	21,367	943,647	552,850
-19,979	21,373	942,852	552,382
-18,965	21,357	942,339	552,009
-17,950	21,324	941,695	551,506
-16,936	21,320	940,992	551,059
-15,921	21,288	940,220	550,484
-14,906	21,246	939,591	549,961
-13,892	21,236	938,986	549,554
-12,877	21,187	938,372	549,017
-11,863	21,176	937,856	548,656
-10,848	21,195	937,415	548,439
-9,833	21,353	936,546	548,408
-8,819	21,251	936,339	547,940
-7,804	21,291	935,567	547,592
-6,790	21,273	934,845	547,093
-5,775	21,351	934,372	547,038
-4,760	21,261	933,678	546,328
-3,746	21,213	933,097	545,817
-2,731	21,084	932,380	544,969
-1,717	21,064	931,681	544,476
-0,702	21,099	930,881	544,097
0,313	20,790	930,589	543,780
1,327	23,382	928,123	550,399
2,342	31,099	805,892	498,718
3,356	26,150	507,095	305,384
4,371	2,448	372,738	194,458
5,386	-0,494	355,605	181,912
6,400	-2,109	349,616	176,893
7,415	-2,936	346,556	174,343
8,429	-3,122	345,137	173,393
9,444	-3,070	344,137	172,937
10,459	-3,116	343,441	172,518
11,473	-3,077	342,841	172,247
12,488	-2,900	342,415	172,226
13,502	-2,970	341,829	171,834
14,517	-3,030	341,278	171,470
15,531	-3,389	340,612	170,700
16,546	-3,232	340,053	170,589
17,561	-3,496	339,869	170,173
18,575	-3,374	339,507	170,119
19,590	-3,463	339,150	169,821
20,604	-3,350	338,801	169,763
21,619	-3,538	338,310	169,282
22,634	-3,179	337,880	169,469
23,648	-3,409	337,436	168,965
24,663	-3,387	337,208	168,862
25,677	-3,383	336,958	168,725
26,692	-3,315	336,706	168,663
27,707	-3,353	336,285	168,393
28,721	-3,301	335,922	168,256
29,736	-3,456	335,762	167,983
30,750	-3,497	335,374	167,726
31,765	-3,508	335,190	167,607
32,780	-3,455	334,943	167,529
33,794	-3,649	334,716	167,178
34,809	-3,538	334,298	167,081
35,823	-3,489	334,028	166,988
36,838	-3,703	333,828	166,628
37,853	-3,552	333,390	166,568
38,867	-3,669	333,279	166,363
39,882	-3,616	332,986	166,262
40,896	-3,506	332,661	166,210
41,911	-3,534	332,301	165,985
42,926	-3,434	332,019	165,942
43,940	-3,523	331,738	165,687
44,955	-3,571	331,524	165,509
45,969	-3,483	331,333	165,499
46,984	-3,579	330,922	165,171
47,999	-3,886	330,820	164,757
49,013	-3,904	330,248	164,437
50,028	-3,922	330,012	164,284
51,042	-3,946	329,799	164,137
52,057	-3,915	329,399	163,958
53,071	-3,853	329,217	163,923
54,086	-3,795	328,977	163,854
55,101	-3,746	328,812	163,813
56,115	-3,754	328,724	163,744
57,130	-3,354	328,475	164,056
58,144	-3,411	328,177	163,829
59,159	-3,410	328,018	163,736
60,174	-3,284	327,597	163,652
61,188	-3,348	327,514	163,525
62,203	-3,402	327,252	163,319
63,217	-3,396	327,211	163,290
64,232	-3,302	326,586	163,069
65,247	-3,108	326,420	163,188
66,261	-3,219	326,067	162,874
67,276	-3,461	325,671	162,391
68,290	-3,703	325,590	162,067
69,305	-3,544	325,253	162,061
70,320	-3,607	325,113	161,908
71,334	-3,567	324,891	161,827
72,349	-3,286	324,719	162,039
73,363	-3,360	324,419	161,793
74,378	-3,254	324,069	161,721
75,393	-3,517	323,930	161,346
76,407	-3,458	323,687	161,276
77,422	-3,383	323,379	161,191
78,436	-3,383	323,100	161,038
79,451	-3,330	322,899	160,981
80,466	-3,329	322,421	160,730
81,480	-3,593	322,296	160,362
82,495	-3,581	321,999	160,214
83,509	-3,555	321,809	160,133
84,524	-3,587	321,487	159,924
85,539	-3,502	321,342	159,931
86,553	-3,546	321,038	159,717
87,568	-3,626	320,898	159,545
88,582	-3,639	320,712	159,424
89,597	-3,535	320,316	159,327
90,611	-3,600	320,396	159,282
91,626	-3,492	320,049	159,213
92,641	-3,449	319,774	159,109
93,655	-3,534	319,567	158,899
94,670	-3,483	319,129	158,722
95,684	-3,467	318,973	158,648
96,699	-3,582	318,765	158,406
97,714	-3,670	318,673	158,250
98,728	-3,570	318,258	158,138
99,743	-3,630	317,941	157,901
100,757	-3,621	317,783	157,818
101,772	-3,695	317,685	157,676
102,787	-3,599	317,482	157,665
103,801	-3,565	317,137	157,516
104,816	-3,542	316,995	157,456
105,830	-3,239	316,602	157,575
106,845	-3,392	316,574	157,381
107,860	-3,470	316,330	157,162
108,874	-3,541	315,976	156,895
109,889	-3,609	315,985	156,813
110,903	-3,466	315,434	156,679
111,918	-3,503	315,321	156,569
112,933	-3,424	315,121	156,541
113,947	-3,345	314,814	156,459
114,962	-3,307	314,644	156,402
115,976	-3,390	314,449	156,202
116,991	-3,666	314,267	155,802
118,006	-3,423	313,898	155,864
119,020	-3,474	313,880	155,788
120,035	-3,232	313,467	155,827
121,049	-3,180	313,413	155,842
122,064	-3,500	313,382	155,470
123,079	-3,493	312,957	155,254
124,093	-3,450	312,753	155,184
125,108	-3,464	312,463	155,012
126,122	-3,624	312,150	154,673
127,137	-3,754	311,924	154,409
128,151	-3,510	311,590	154,489
129,166	-3,574	311,616	154,420
130,181	-3,682	311,383	154,176
131,195	-3,713	311,048	153,963
132,210	-3,378	310,764	154,163
133,224	-3,418	310,652	154,052
134,239	-3,545	310,667	153,911
135,254	-3,431	310,422	153,896
136,268	-3,501	310,075	153,637
137,283	-3,657	309,624	153,236
138,297	-3,699	309,391	153,063
139,312	-3,657	309,274	153,036
140,327	-3,490	309,140	153,131
141,341	-3,219	308,860	153,263
142,356	-3,165	308,669	153,212
143,370	-3,105	308,571	153,212
144,385	-3,190	308,465	153,056
145,400	-3,212	308,182	152,880
146,414	-3,146	307,966	152,827
147,429	-3,252	307,698	152,570
148,443	-3,050	307,512	152,675
149,458	-3,095	307,331	152,525
150,473	-3,223	307,177	152,301
151,487	-3,221	307,006	152,205
152,502	-3,149	306,592	152,061
153,516	-3,224	306,402	151,876
154,531	-3,034	306,285	152,001
155,546	-3,091	306,084	151,829
156,560	-3,329	305,805	151,430
157,575	-3,584	305,660	151,080
158,589	-3,310	305,342	151,193
159,604	-3,207	305,140	151,186
160,619	-3,167	304,985	151,137
161,633	-3,192	304,810	151,012
162,648	-3,148	304,554	150,916
163,662	-3,264	304,491	150,752
164,677	-3,201	304,157	150,638
165,692	-3,148	303,951	150,577
166,706	-3,145	303,812	150,498
167,721	-3,136	303,693	150,435
168,735	-3,235	303,448	150,199
169,750	-3,107	303,394	150,290
170,764	-2,972	303,163	150,301
171,779	-3,058	302,790	150,014
172,794	-3,001	302,659	149,994
173,808	-3,312	302,497	149,582
174,823	-3,421	302,162	149,292
175,837	-3,616	301,818	148,908
176,852	-3,253	301,867	149,291
177,867	-3,116	301,581	149,276
178,881	-3,085	301,448	149,229
179,896	-2,953	301,228	149,241
180,910	-3,011	301,081	149,096
181,925	-3,305	300,889	148,687
182,940	-3,096	300,619	148,754
183,954	-3,089	300,487	148,682
184,969	-3,036	300,207	148,585
185,983	-2,986	300,142	148,590
186,998	-3,032	299,812	148,366
188,013	-3,178	299,667	148,134
189,027	-3,219	299,624	148,057
190,042	-3,166	299,404	147,989
191,056	-3,035	299,079	147,949
192,071	-2,924	298,916	147,966
193,086	-2,793	298,601	147,930
194,100	-2,901	298,429	147,723
195,115	-2,995	298,254	147,527
196,129	-3,137	297,997	147,244
197,144	-3,107	297,741	147,135
198,159	-3,042	297,616	147,125
199,173	-3,035	297,397	147,011
200,188	-2,882	297,227	147,068
201,202	-2,994	296,913	146,787
202,217	-3,556	296,645	146,078
203,232	-3,708	296,447	145,815
204,246	-3,238	296,216	146,158
205,261	-2,926	296,021	146,362
206,275	-3,025	295,917	146,198
207,290	-2,909	295,746	146,216
208,304	-2,972	295,528	146,033
209,319	-2,954	295,157	145,855
210,334	-3,040	295,077	145,716
211,348	-3,273	294,946	145,407
212,363	-2,915	294,699	145,628
213,377	-3,043	294,612	145,445
214,392	-2,994	294,357	145,354
215,407	-3,164	293,972	144,983
216,421	-3,444	293,844	144,629
217,436	-3,382	293,727	144,620
218,450	-3,244	293,381	144,573
219,465	-3,241	293,370	144,558
220,480	-3,077	293,189	144,618
221,494	-3,162	292,952	144,404
222,509	-3,248	292,813	144,237
223,523	-3,078	292,635	144,305
224,538	-3,127	292,455	144,155
225,553	-3,122	292,363	144,102
226,567	-3,059	292,193	144,067
227,582	-3,156	292,013	143,870
228,596	-2,961	291,751	143,920
229,611	-2,901	291,643	143,913
230,626	-2,975	291,268	143,642
231,640	-3,397	291,011	143,089
232,655	-3,493	290,756	142,856
233,669	-3,614	290,555	142,626
234,684	-3,439	290,443	142,730
235,699	-3,574	290,312	142,521
236,713	-3,410	290,107	142,568
237,728	-3,257	290,117	142,709
238,742	-3,207	289,732	142,556
239,757	-3,262	289,639	142,445
240,772	-3,105	289,417	142,476
241,786	-3,148	289,175	142,301
242,801	-3,105	289,018	142,253
243,815	-3,235	288,868	142,041
244,830	-3,245	288,691	141,931
245,844	-3,174	288,466	141,877
246,859	-3,222	288,255	141,714
247,874	-3,143	287,996	141,650
248,888	-3,237	287,909	141,504
249,903	-2,996	287,766	141,654
250,917	-2,931	287,591	141,619
251,932	-2,856	287,575	141,671
252,947	-2,160	287,507	142,298
253,961	-2,370	287,318	141,989
254,976	-1,915	287,588	142,550
255,990	0,835	288,372	145,590
257,005	1,608	288,391	146,335
258,020	2,802	288,828	147,701
259,034	3,369	288,851	148,247
260,049	3,182	288,670	147,961
261,063	2,869	288,353	147,483
262,078	3,188	288,241	147,720
263,093	3,819	288,348	148,371
264,107	3,829	288,110	148,246
265,122	3,886	287,997	148,229
266,136	4,158	287,823	148,388
267,151	4,012	287,545	148,092
268,166	3,808	287,388	147,801
269,180	3,715	287,168	147,585
270,195	3,834	287,098	147,651
271,209	3,804	286,827	147,469
272,224	3,696	286,646	147,260
273,239	3,797	286,335	147,183
274,253	3,776	286,149	147,054
275,268	3,874	286,136	147,129
276,282	3,989	285,880	147,093
277,297	3,934	285,742	146,957
278,312	4,282	285,726	147,268
279,326	4,126	285,455	146,966
280,341	4,090	285,182	146,778
281,355	3,799	284,941	146,364
282,370	3,665	284,847	146,175
283,384	3,698	284,674	146,105
284,399	3,973	284,475	146,251
285,414	3,851	284,337	146,051
286,428	3,829	283,990	145,839
287,443	3,573	283,744	145,457
288,457	3,409	283,463	145,145
289,472	3,347	283,383	145,031
290,487	3,456	283,112	144,983
291,501	3,384	282,758	144,721
292,516	3,280	282,696	144,579
293,530	3,154	282,601	144,397
294,545	3,490	282,563	144,683
295,560	3,690	282,295	144,721
296,574	3,504	282,100	144,433
297,589	3,406	282,018	144,286
298,603	3,816	281,935	144,617
299,618	3,721	281,694	144,390
300,633	3,676	281,491	144,231
301,647	3,762	281,387	144,246
302,662	3,766	281,153	144,116
303,676	3,433	280,884	143,654
304,691	3,340	280,566	143,392
305,706	3,124	280,280	143,030
306,720	3,092	280,031	142,861
307,735	3,071	279,810	142,716
308,749	3,185	279,835	142,822
309,764	3,253	279,712	142,810
310,779	3,225	279,378	142,600
311,793	3,039	279,296	142,373
312,808	3,080	279,200	142,350
313,822	3,100	278,848	142,176
314,837	3,061	278,688	142,045
315,852	2,962	278,579	141,885
316,866	3,087	278,213	141,802
317,881	3,252	278,051	141,860
318,895	3,111	277,901	141,640
319,910	2,831	277,846	141,340
320,925	2,771	277,573	141,133
321,939	3,135	277,508	141,424
322,954	3,179	277,377	141,386
323,968	3,158	277,329	141,329
324,983	3,566	277,003	141,526
325,997	3,504	276,929	141,419
327,012	3,265	276,748	141,093
328,027	3,281	276,491	140,964
329,041	3,254	276,247	140,803
330,056	3,418	276,127	140,880
331,070	3,166	276,088	140,616
332,085	3,145	275,776	140,425
333,100	3,197	275,582	140,361
334,114	3,367	275,310	140,366
335,129	3,182	275,107	140,081
336,143	3,314	275,096	140,183
337,158	3,588	274,987	140,366
338,173	3,329	274,788	140,016
339,187	3,194	274,602	139,784
340,202	3,355	274,395	139,814
341,216	3,482	274,369	139,904
342,231	3,485	274,033	139,723
343,246	3,399	273,945	139,587
344,260	3,234	273,865	139,384
345,275	3,520	273,703	139,549
346,289	3,831	273,514	139,723
347,304	3,692	273,226	139,438
348,319	3,390	273,018	139,044
349,333	3,359	272,975	138,983
350,348	3,625	272,938	139,193
351,362	3,898	272,506	139,207
352,377	3,702	272,517	139,023
353,392	3,660	272,260	138,841
354,406	3,826	272,060	138,877
355,421	192,289	1330,837	1409,251
356,435	155,370	1459,903	1409,350
