DTS Sentinel unit serial number:	SN410029Multiplexer serial number:	ORYXHardware model number:	OX2-SRSoftware version number:	ORYX F/W v4,00 Oryx Data Collector v3.7.2.0data status	okinstallation	B4 Nyhavnadifferential loss correction	single-endedforward channel	channel 2reverse channel	N/Adate	2023/12/15time	15:00:13forward acquisition time	300,00reverse acquisition time	0,00gamma	499,1914k internal	0,3157k external	0,3157temperature offset calibration	1,0000default loss term (dB/km)	0,3820temperature slope calibration	1,0000multiplexer offset coefficient	1,0000multiplexer slope coefficient	1,0000fibre end	0,00T internal ref (°C)	15,74T ext. ref 1 (°C)	2,18T ext. ref 2 (°C)	2,32length (m)	temperature (°C)	Stokes	anti-Stokes-744,400	-44,181	0,074	-0,027
-743,385	-165,353	-0,294	0,009
-742,371	149,705	0,133	0,133
-741,356	-94,854	-0,239	0,047
-740,342	3,412	0,177	0,095
-739,327	-143,383	-0,358	0,025
-738,312	12,970	-0,110	0,063
-737,298	-20,016	-0,185	-0,084
-736,283	-55,508	0,126	0,042
-735,269	-45,886	-0,299	0,108
-734,254	-99,563	0,199	0,037
-733,239	-61,711	-0,436	-0,134
-732,225	42,306	0,110	0,073
-731,210	-153,074	-0,022	0,001
-730,196	-72,956	0,038	0,010
-729,181	-74,562	-0,100	-0,026
-728,167	-37,556	-0,101	-0,040
-727,152	125,105	0,066	-0,061
-726,137	62,229	0,157	-0,115
-725,123	46,691	-0,009	-0,006
-724,108	-200,000	-0,017	-0,073
-723,094	-125,124	-0,115	0,013
-722,079	-109,123	0,031	0,005
-721,064	136,781	-0,025	-0,024
-720,050	388,434	0,086	-0,132
-719,035	-45,039	-0,091	0,033
-718,021	-97,502	-0,171	-0,032
-717,006	29,266	0,027	0,017
-715,991	800,000	-0,016	-0,045
-714,977	154,238	0,035	-0,036
-713,962	-93,050	0,067	0,014
-712,948	-59,898	-0,060	0,019
-711,933	-15,690	-0,092	0,043
-710,918	-67,217	-0,112	-0,032
-709,904	-101,377	-0,081	0,014
-708,889	-200,000	-0,031	-0,106
-707,875	800,000	-0,059	-0,184
-706,860	147,040	0,017	0,017
-705,845	-113,606	-0,091	0,013
-704,831	548,826	-0,034	0,060
-703,816	-26,497	0,083	0,035
-702,802	800,000	-0,007	0,014
-701,787	288,821	-0,056	-0,075
-700,772	210,832	-0,127	0,147
-699,758	-105,705	0,084	-0,014
-698,743	125,482	0,028	-0,026
-697,729	271,561	-0,012	0,016
-696,714	205,242	-0,040	0,046
-695,699	-200,000	0,005	0,028
-694,685	192,447	0,048	-0,053
-693,670	396,476	0,055	-0,084
-692,656	-200,000	0,019	-0,063
-691,641	-200,000	0,044	0,180
-690,627	-12,041	0,068	0,033
-689,612	700,162	-0,060	0,117
-688,597	201,246	0,065	-0,074
-687,583	-168,369	-0,158	0,004
-686,568	282,944	-0,038	-0,050
-685,554	-200,000	-0,022	0,071
-684,539	800,000	-0,036	-0,081
-683,524	-139,799	-0,065	-0,005
-682,510	158,825	0,088	0,090
-681,495	364,699	-0,080	-0,119
-680,481	3,618	-0,063	-0,034
-679,466	-200,000	0,007	0,112
-678,451	800,000	-0,034	-0,079
-677,437	800,000	-0,018	0,047
-676,422	91,886	-0,137	-0,114
-675,408	-200,000	0,013	0,130
-674,393	-200,000	0,009	0,046
-673,378	-129,718	0,048	-0,005
-672,364	-39,304	-0,072	0,028
-671,349	-0,503	-0,153	-0,080
-670,335	800,000	0,032	0,084
-669,320	55,103	0,148	-0,105
-668,305	-170,326	-0,100	0,003
-667,291	78,610	-0,032	0,025
-666,276	-104,987	-0,079	0,013
-665,262	20,975	-0,067	-0,040
-664,247	800,000	-0,057	-0,169
-663,232	-200,000	-0,023	-0,166
-662,218	-126,095	0,097	0,011
-661,203	24,499	-0,137	0,083
-660,189	-200,000	0,017	-0,113
-659,174	800,000	-0,041	-0,116
-658,159	-200,000	0,008	-0,044
-657,145	-51,795	-0,171	0,058
-656,130	182,202	-0,039	-0,042
-655,116	-200,000	-0,013	-0,105
-654,101	148,681	-0,147	0,146
-653,086	717,003	-0,030	-0,059
-652,072	8,539	-0,046	0,025
-651,057	-123,542	-0,095	-0,011
-650,043	-200,000	-0,026	0,093
-649,028	800,000	-0,023	-0,067
-648,014	800,000	-0,058	0,153
-646,999	800,000	0,010	-0,029
-645,984	-200,000	-0,019	0,133
-644,970	23,974	-0,119	-0,072
-643,955	-53,586	-0,145	0,048
-642,941	-92,340	-0,135	0,028
-641,926	329,719	0,057	-0,081
-640,911	-200,000	-0,028	0,092
-639,897	800,000	0,039	-0,089
-638,882	-200,000	0,010	0,096
-637,868	-16,373	-0,115	0,053
-636,853	406,497	-0,020	-0,031
-635,838	-200,000	-0,055	-0,181
-634,824	800,000	0,040	-0,116
-633,809	63,692	0,041	-0,030
-632,795	185,482	-0,012	-0,013
-631,780	156,518	0,035	-0,036
-630,765	-21,699	-0,051	-0,023
-629,751	-52,256	-0,105	-0,036
-628,736	-200,000	0,012	0,056
-627,722	114,084	-0,037	-0,033
-626,707	-200,000	0,030	0,126
-625,692	15,694	0,074	0,042
-624,678	-200,000	-0,005	-0,126
-623,663	-200,000	-0,009	0,128
-622,649	-200,000	0,025	0,081
-621,634	-19,909	-0,070	-0,032
-620,619	736,843	-0,048	0,095
-619,605	540,468	0,021	-0,037
-618,590	800,000	-0,039	-0,092
-617,576	800,000	-0,040	0,115
-616,561	8,078	-0,154	-0,084
-615,546	-200,000	0,007	0,062
-614,532	12,946	0,106	-0,060
-613,517	81,040	0,103	0,081
-612,503	12,799	0,021	-0,012
-611,488	21,788	0,100	-0,060
-610,474	-78,122	-0,129	0,032
-609,459	27,991	-0,100	-0,062
-608,444	13,704	-0,108	0,061
-607,430	187,420	0,021	-0,023
-606,415	89,037	-0,110	-0,090
-605,401	-114,119	-0,037	0,005
-604,386	-200,000	0,012	0,102
-603,371	107,786	-0,045	0,039
-602,357	7,345	0,058	0,031
-601,342	-66,924	-0,090	0,026
-600,328	800,000	-0,028	0,070
-599,313	-14,432	-0,057	0,027
-598,298	800,000	-0,017	0,047
-597,284	187,640	-0,018	-0,020
-596,269	79,382	0,068	0,053
-595,255	-54,859	0,074	-0,024
-594,240	578,213	0,075	0,135
-593,225	-61,726	-0,022	-0,007
-592,211	10,093	-0,045	-0,025
-591,196	-122,085	0,090	0,011
-590,182	800,000	0,050	-0,109
-589,167	-102,332	-0,057	0,010
-588,152	800,000	-0,027	0,072
-587,138	580,208	0,074	0,133
-586,123	-40,268	-0,019	-0,007
-585,109	700,895	0,013	0,024
-584,094	-200,000	0,004	0,060
-583,079	-115,037	-0,037	-0,005
-582,065	-17,320	-0,066	-0,030
-581,050	800,000	0,014	0,033
-580,036	-1,490	-0,067	-0,035
-579,021	800,000	-0,070	-0,182
-578,006	749,197	0,020	0,039
-576,992	-8,295	0,159	-0,078
-575,977	800,000	0,028	0,082
-574,963	-200,000	-0,008	0,154
-573,948	-200,000	-0,010	-0,039
-572,934	27,000	0,087	0,054
-571,919	287,225	-0,063	-0,084
-570,904	-200,000	-0,008	0,031
-569,890	164,762	-0,085	-0,088
-568,875	704,333	-0,027	0,052
-567,861	432,653	-0,006	-0,010
-566,846	-24,863	0,071	-0,031
-565,831	800,000	-0,027	0,062
-564,817	-200,000	-0,016	-0,091
-563,802	91,939	-0,014	0,012
-562,788	-177,193	0,185	-0,003
-561,773	-200,000	0,010	-0,126
-560,758	800,000	0,027	-0,080
-559,744	192,827	-0,098	0,108
-558,729	-86,313	0,043	0,010
-557,715	-194,691	-0,105	0,001
-556,700	191,997	-0,043	0,048
-555,685	800,000	0,021	-0,061
-554,671	-200,000	-0,026	-0,134
-553,656	772,012	-0,038	0,075
-552,642	-167,012	0,072	0,002
-551,627	24,088	0,042	-0,025
-550,612	22,598	-0,011	0,007
-549,598	303,242	0,107	-0,145
-548,583	-200,000	-0,119	0,000
-547,569	-200,000	0,014	0,096
-546,554	394,082	0,050	-0,076
-545,539	-200,000	0,057	0,213
-544,525	800,000	-0,006	0,019
-543,510	800,000	0,039	-0,121
-542,496	152,339	0,049	-0,049
-541,481	800,000	0,012	-0,024
-540,466	259,847	-0,070	0,089
-539,452	-65,752	0,123	0,036
-538,437	-200,000	0,019	0,166
-537,423	75,353	0,141	0,109
-536,408	-200,000	0,008	0,036
-535,393	295,986	-0,050	-0,067
-534,379	413,108	-0,040	0,062
-533,364	800,000	-0,040	0,089
-532,350	-200,000	-0,034	-0,193
-531,335	800,000	0,041	0,109
-530,321	800,000	0,048	0,105
-529,306	528,688	-0,047	-0,082
-528,291	137,657	-0,084	-0,080
-527,277	124,480	0,028	-0,026
-526,262	-200,000	0,001	-0,131
-525,248	800,000	0,010	-0,021
-524,233	286,254	0,045	-0,060
-523,218	-200,000	-0,010	0,107
-522,204	-200,000	0,023	0,110
-521,189	127,901	0,042	0,039
-520,175	-200,000	0,022	-0,071
-519,160	218,298	-0,020	-0,023
-518,145	-62,379	0,025	0,008
-517,131	-4,093	0,049	0,025
-516,116	-69,739	0,082	0,023
-515,102	66,635	0,097	-0,072
-514,087	36,626	0,024	0,016
-513,072	133,168	-0,118	-0,112
-512,058	-87,386	0,230	-0,050
-511,043	-200,000	-0,016	-0,127
-510,029	-184,481	-0,172	0,002
-509,014	138,966	-0,035	-0,034
-507,999	404,309	-0,088	-0,136
-506,985	-102,564	0,032	0,006
-505,970	-200,000	-0,032	-0,125
-504,956	41,895	0,031	-0,020
-503,941	70,286	-0,025	-0,019
-502,926	226,327	-0,078	0,093
-501,912	-110,513	0,102	-0,015
-500,897	-57,344	-0,056	0,018
-499,883	484,413	0,040	0,068
-498,868	-96,162	0,100	0,019
-497,853	167,410	-0,102	-0,106
-496,839	234,226	-0,078	-0,094
-495,824	-35,110	-0,117	-0,046
-494,810	296,220	0,009	0,012
-493,795	-88,362	0,143	0,031
-492,781	800,000	-0,041	-0,114
-491,766	241,022	0,076	0,093
-490,751	-67,418	0,071	0,020
-489,737	-200,000	-0,006	0,130
-488,722	-200,000	0,038	-0,147
-487,708	84,131	0,068	0,054
-486,693	-200,000	-0,008	0,051
-485,678	-103,534	-0,199	0,034
-484,664	-200,000	0,017	0,155
-483,649	-200,000	0,000	0,041
-482,635	126,956	0,083	-0,077
-481,620	-55,399	-0,129	0,042
-480,605	800,000	0,020	0,065
-479,591	22,919	0,030	0,018
-478,576	-35,717	-0,139	-0,055
-477,562	-194,851	0,088	0,000
-476,547	800,000	0,015	0,043
-475,532	5,174	0,051	0,027
-474,518	-61,385	-0,118	0,036
-473,503	-50,195	0,189	0,065
-472,489	181,488	0,069	0,075
-471,474	-200,000	-0,009	-0,045
-470,459	43,471	0,071	0,047
-469,445	-67,521	-0,055	0,016
-468,430	-200,000	-0,037	0,130
-467,416	-200,000	-0,013	0,144
-466,401	-200,000	-0,002	0,070
-465,386	134,814	0,081	-0,076
-464,372	-57,944	-0,075	-0,024
-463,357	800,000	0,019	-0,055
-462,343	768,475	-0,043	-0,085
-461,328	-32,381	-0,034	0,014
-460,313	-5,075	0,087	0,043
-459,299	-200,000	0,030	0,127
-458,284	376,521	0,086	0,128
-457,270	110,250	0,054	0,047
-456,255	0,899	0,076	0,040
-455,241	-71,305	-0,190	0,051
-454,226	-13,535	-0,129	-0,061
-453,211	233,296	0,085	0,102
-452,197	-49,081	0,088	-0,031
-451,182	41,848	0,081	0,054
-450,168	253,522	-0,070	0,087
-449,153	-200,000	-0,014	-0,107
-448,138	-200,000	0,010	0,032
-447,124	-200,000	0,003	0,148
-446,109	276,743	-0,050	-0,065
-445,095	-142,576	0,176	0,012
-444,080	-200,000	-0,025	-0,116
-443,065	769,250	-0,080	0,158
-442,051	118,053	0,069	-0,062
-441,036	239,519	0,096	-0,117
-440,022	458,816	0,039	0,064
-439,007	217,969	-0,082	-0,096
-437,992	-21,915	-0,078	0,035
-436,978	-200,000	0,016	0,089
-435,963	800,000	0,022	0,047
-434,949	256,341	0,018	-0,022
-433,934	451,668	-0,054	0,087
-432,919	192,219	-0,020	0,022
-431,905	-42,169	-0,053	0,020
-430,890	8,210	0,106	0,058
-429,876	73,991	0,058	0,044
-428,861	53,472	-0,051	0,036
-427,846	38,058	-0,035	0,023
-426,832	-200,000	0,016	-0,102
-425,817	800,000	0,020	0,058
-424,803	37,130	-0,095	0,061
-423,788	57,389	-0,042	-0,030
-422,773	-200,000	-0,002	-0,092
-421,759	-148,997	0,072	0,004
-420,744	-23,854	-0,061	0,026
-419,730	800,000	-0,039	0,087
-418,715	159,460	-0,065	-0,066
-417,701	-123,834	-0,175	-0,020
-416,686	-200,000	0,027	-0,159
-415,671	-4,436	0,124	-0,062
-414,657	-106,470	0,094	-0,015
-413,642	105,338	0,062	0,054
-412,628	800,000	-0,038	-0,101
-411,613	170,054	-0,137	-0,142
-410,598	-200,000	-0,002	-0,127
-409,584	238,275	-0,028	-0,034
-408,569	-27,649	-0,106	0,044
-407,555	-200,000	-0,004	0,052
-406,540	50,597	-0,060	0,042
-405,525	193,468	0,071	-0,078
-404,511	327,254	0,035	0,049
-403,496	-200,000	0,005	0,018
-402,482	-94,703	0,055	0,011
-401,467	547,517	-0,034	-0,060
-400,452	-49,945	-0,077	0,027
-399,438	88,443	0,066	-0,053
-398,423	393,854	-0,084	-0,127
-397,409	-79,310	0,162	0,040
-396,394	113,619	-0,093	-0,082
-395,379	-50,680	0,073	0,025
-394,365	25,705	-0,048	0,029
-393,350	-200,000	0,029	0,117
-392,336	17,751	0,056	-0,032
-391,321	26,625	-0,086	-0,052
-390,306	-54,845	-0,150	-0,049
-389,292	-200,000	-0,008	-0,076
-388,277	-22,940	0,109	-0,048
-387,263	800,000	-0,019	-0,053
-386,248	-52,032	0,098	-0,033
-385,233	38,601	-0,035	0,022
-384,219	-200,000	0,008	-0,031
-383,204	-200,000	0,038	-0,237
-382,190	130,801	-0,045	0,042
-381,175	594,640	-0,084	-0,152
-380,160	91,617	-0,042	0,034
-379,146	485,259	0,065	0,108
-378,131	-200,000	0,027	-0,173
-377,117	-200,000	0,014	-0,046
-376,102	449,488	-0,020	0,032
-375,088	-172,436	-0,083	0,002
-374,073	-186,070	0,036	0,000
-373,058	-200,000	-0,011	-0,068
-372,044	-192,527	-0,141	-0,001
-371,029	-16,383	0,177	0,081
-370,015	-200,000	-0,017	-0,142
-369,000	-85,147	-0,055	-0,012
-367,985	-200,000	0,000	-0,026
-366,971	800,000	0,025	-0,071
-365,956	404,316	0,052	0,080
-364,942	-200,000	0,017	0,064
-363,927	49,064	-0,060	-0,041
-362,912	70,287	0,066	-0,050
-361,898	96,712	-0,066	-0,055
-360,883	91,411	-0,091	-0,074
-359,869	153,486	-0,017	0,017
-358,854	278,507	-0,045	-0,059
-357,839	-200,000	-0,001	0,085
-356,825	-4,257	-0,132	0,066
-355,810	-200,000	0,002	0,013
-354,796	-7,971	-0,057	0,028
-353,781	-200,000	0,015	-0,070
-352,766	79,618	-0,065	0,051
-351,752	800,000	-0,029	0,082
-350,737	7,781	0,071	-0,038
-349,723	-138,848	-0,063	0,005
-348,708	260,162	0,026	0,032
-347,693	50,262	-0,099	0,068
-346,679	800,000	-0,044	0,104
-345,664	800,000	0,028	-0,088
-344,650	-53,981	-0,021	-0,007
-343,635	-200,000	0,005	0,092
-342,620	-114,445	-0,027	-0,004
-341,606	-9,363	0,086	0,041
-340,591	-130,781	-0,118	0,011
-339,577	800,000	-0,012	-0,032
-338,562	235,091	0,065	-0,078
-337,548	9,729	0,092	0,050
-336,533	-200,000	-0,020	-0,117
-335,518	86,500	0,044	-0,035
-334,504	-200,000	0,000	0,062
-333,489	108,720	-0,044	0,038
-332,475	9,916	0,086	0,047
-331,460	-67,214	-0,127	0,036
-330,445	87,078	-0,129	-0,104
-329,431	-42,708	-0,034	0,013
-328,416	25,633	0,071	0,043
-327,402	-61,010	0,140	-0,043
-326,387	99,524	-0,038	-0,031
-325,372	-65,532	-0,067	-0,019
-324,358	27,854	-0,082	0,050
-323,343	12,616	0,082	-0,046
-322,329	800,000	0,017	0,037
-321,314	-64,483	0,212	-0,062
-320,299	259,450	-0,059	0,075
-319,285	-41,763	-0,152	-0,056
-318,270	44,381	0,124	-0,083
-317,256	-200,000	0,036	0,000
-316,241	128,672	-0,077	0,071
-315,226	-200,000	0,007	-0,102
-314,212	800,000	0,028	-0,074
-313,197	427,635	0,057	0,090
-312,183	66,361	-0,100	0,074
-311,168	-200,000	0,016	-0,057
-310,153	-200,000	0,001	0,041
-309,139	215,916	-0,050	-0,058
-308,124	-200,000	0,005	0,080
-307,110	-36,582	0,120	0,046
-306,095	-200,000	-0,014	-0,073
-305,080	-14,807	-0,114	0,053
-304,066	-200,000	0,005	-0,037
-303,051	-200,000	0,001	-0,074
-302,037	800,000	0,062	0,140
-301,022	303,964	0,088	-0,118
-300,008	19,182	0,064	0,037
-298,993	497,344	0,036	0,059
-297,978	600,233	0,044	-0,080
-296,964	-98,438	-0,146	0,027
-295,949	-200,000	-0,005	-0,163
-294,935	-53,747	-0,086	0,028
-293,920	40,162	-0,049	0,032
-292,905	126,667	0,100	0,092
-291,891	-129,814	0,076	0,008
-290,876	29,173	0,036	0,022
-289,862	30,394	-0,031	0,019
-288,847	-200,000	0,008	-0,087
-287,832	-62,872	0,187	-0,056
-286,818	-200,000	0,006	0,022
-285,803	-148,599	0,071	0,004
-284,789	201,214	0,035	-0,039
-283,774	6,650	-0,091	0,049
-282,759	125,015	0,045	-0,041
-281,745	779,006	-0,025	0,050
-280,730	-200,000	0,021	-0,068
-279,716	-74,360	-0,127	-0,033
-278,701	-112,566	-0,083	-0,012
-277,686	117,986	0,023	0,021
-276,672	800,000	-0,007	-0,020
-275,657	15,598	-0,072	0,041
-274,643	-19,982	-0,136	0,060
-273,628	86,424	-0,026	-0,021
-272,613	213,906	-0,062	-0,071
-271,599	-63,724	0,056	-0,016
-270,584	-17,772	0,111	-0,050
-269,570	800,000	0,025	-0,058
-268,555	-3,525	0,062	0,031
-267,540	208,186	-0,041	0,046
-266,526	-47,085	0,045	0,016
-265,511	-92,685	-0,114	-0,023
-264,497	800,000	-0,022	-0,044
-263,482	319,970	-0,036	0,049
-262,467	15,379	0,034	0,019
-261,453	-85,417	0,113	0,025
-260,438	156,856	-0,062	-0,062
-259,424	-38,890	0,131	-0,050
-258,409	-200,000	0,004	-0,105
-257,395	9,760	0,155	-0,085
-256,380	-200,000	0,035	0,130
-255,365	-200,000	0,019	0,120
-254,351	800,000	0,014	0,032
-253,336	93,204	0,042	0,034
-252,322	-172,540	-0,104	0,002
-251,307	-106,543	-0,054	-0,009
-250,292	-115,687	0,056	0,008
-249,278	661,740	-0,120	0,224
-248,263	-6,200	0,089	0,044
-247,249	-200,000	0,010	0,049
-246,234	-74,272	0,018	-0,005
-245,219	800,000	0,014	-0,030
-244,205	31,478	-0,043	-0,027
-243,190	145,705	0,067	-0,065
-242,176	-36,636	0,040	0,015
-241,161	-35,987	-0,145	0,057
-240,146	-200,000	-0,002	0,069
-239,132	225,329	0,052	-0,061
-238,117	-200,000	0,000	0,040
-237,103	220,509	0,021	0,024
-236,088	-200,000	0,008	-0,095
-235,073	800,000	0,013	-0,036
-234,059	212,108	0,099	0,112
-233,044	-22,809	-0,009	-0,004
-232,030	178,928	0,048	0,051
-231,015	69,744	-0,077	0,058
-230,000	31,523	-0,130	0,080
-228,986	128,129	-0,013	0,012
-227,971	-150,965	-0,063	0,003
-226,957	92,433	0,029	-0,024
-225,942	-16,645	0,091	0,042
-224,927	-200,000	0,007	-0,054
-223,913	-49,876	-0,026	-0,009
-222,898	-55,983	0,133	0,043
-221,884	-166,503	0,152	-0,004
-220,869	145,110	-0,043	0,041
-219,855	-41,504	0,007	0,003
-218,840	-146,914	-0,088	-0,005
-217,825	183,876	0,049	0,052
-216,811	800,000	-0,042	-0,107
-215,796	97,612	-0,125	-0,104
-214,782	800,000	0,055	-0,142
-213,767	800,000	0,033	0,092
-212,752	254,396	0,139	0,172
-211,738	320,189	-0,020	0,027
-210,723	216,754	0,042	-0,049
-209,709	494,011	-0,083	0,138
-208,694	-200,000	-0,001	-0,078
-207,679	216,932	0,008	-0,009
-206,665	512,846	-0,042	0,070
-205,650	17,965	0,041	-0,024
-204,636	-67,625	0,141	-0,040
-203,621	190,184	0,029	0,031
-202,606	-162,411	0,087	0,003
-201,592	-200,000	0,001	-0,099
-200,577	-200,000	0,043	-0,182
-199,563	-200,000	-0,007	0,118
-198,548	-17,081	0,070	0,032
-197,533	359,346	0,040	0,058
-196,519	-200,000	0,019	0,069
-195,504	720,622	-0,062	0,119
-194,490	38,042	0,052	-0,033
-193,475	441,041	-0,041	0,065
-192,460	453,381	0,020	0,032
-191,446	-4,519	0,030	-0,015
-190,431	-63,723	0,030	-0,009
-189,417	-100,770	0,157	0,028
-188,402	800,000	0,035	-0,079
-187,387	484,956	-0,111	-0,183
-186,373	74,554	0,099	-0,075
-185,358	800,000	0,026	-0,068
-184,344	-200,000	0,000	-0,035
-183,329	169,095	-0,162	0,167
-182,315	-200,000	0,026	0,088
-181,300	23,854	0,020	0,012
-180,285	61,090	-0,124	0,089
-179,271	-200,000	0,007	0,084
-178,256	-128,550	0,086	-0,009
-177,242	-200,000	-0,017	-0,074
-176,227	-71,775	0,173	-0,046
-175,212	-87,952	0,036	-0,008
-174,198	343,383	0,032	-0,045
-173,183	53,509	-0,143	-0,099
-172,169	125,798	-0,064	-0,058
-171,154	143,830	0,051	-0,050
-170,139	800,000	0,022	0,054
-169,125	-56,646	-0,164	0,052
-168,110	176,169	0,101	0,106
-167,096	-106,614	-0,040	0,006
-166,081	13,369	-0,215	-0,120
-165,066	-200,000	0,006	-0,088
-164,052	36,891	0,043	-0,027
-163,037	-32,910	-0,058	0,023
-162,023	117,088	0,086	-0,076
-161,008	-98,095	0,181	0,033
-159,993	208,400	0,065	-0,073
-158,979	641,906	-0,034	-0,062
-157,964	-2,476	-0,125	0,063
-156,950	154,600	0,072	-0,071
-155,935	-89,015	-0,033	0,007
-154,920	388,704	-0,026	0,038
-153,906	-73,133	0,021	-0,006
-152,891	800,000	0,024	-0,071
-151,877	-200,000	-0,042	-0,141
-150,862	-170,964	-0,065	-0,002
-149,847	-93,958	0,110	0,022
-148,833	-22,709	0,028	0,012
-147,818	310,008	0,011	-0,015
-146,804	-200,000	-0,012	0,041
-145,789	-200,000	-0,004	-0,024
-144,775	-200,000	-0,004	0,073
-143,760	-50,271	-0,062	-0,021
-142,745	-35,074	-0,092	-0,036
-141,731	-200,000	0,008	0,049
-140,716	-91,582	0,078	0,016
-139,702	87,802	0,022	-0,018
-138,687	-200,000	-0,000	0,028
-137,672	-182,399	-0,137	0,002
-136,658	304,704	0,052	0,070
-135,643	800,000	-0,024	-0,074
-134,629	-119,209	-0,074	0,009
-133,614	-200,000	0,005	0,054
-132,599	800,000	0,082	-0,167
-131,585	-94,309	-0,027	0,005
-130,570	-65,303	0,032	0,009
-129,556	323,015	-0,071	-0,098
-128,541	75,222	-0,102	-0,077
-127,526	800,000	0,048	-0,115
-126,512	430,558	0,035	0,055
-125,497	-88,847	0,143	0,030
-124,483	274,051	-0,056	0,072
-123,468	-70,380	0,084	0,023
-122,453	35,243	-0,068	-0,043
-121,439	800,000	-0,026	0,060
-120,424	29,976	0,067	0,041
-119,410	-200,000	0,013	0,113
-118,395	-200,000	-0,017	-0,070
-117,380	191,053	-0,031	-0,034
-116,366	363,522	0,036	-0,053
-115,351	-42,232	0,083	0,030
-114,337	-44,377	-0,132	-0,047
-113,322	78,438	0,068	-0,053
-112,307	59,791	0,174	0,123
-111,293	20,374	-0,116	0,067
-110,278	215,527	0,116	0,133
-109,264	558,847	-0,017	0,029
-108,249	261,576	-0,072	-0,090
-107,234	800,000	-0,023	-0,069
-106,220	4,825	0,036	0,019
-105,205	42,513	-0,091	-0,060
-104,191	115,376	0,070	0,061
-103,176	-200,000	0,027	-0,140
-102,162	758,332	-0,057	0,112
-101,147	800,000	-0,026	0,079
-100,132	80,222	-0,154	-0,119
-99,118	-200,000	-0,039	-0,127
-98,103	363,035	-0,091	-0,131
-97,089	-92,757	-0,050	0,010
-96,074	-200,000	0,003	0,132
-95,059	800,000	0,029	0,086
-94,045	-105,250	-0,010	0,002
-93,030	-80,922	-0,078	-0,019
-92,016	800,000	-0,021	-0,056
-91,001	-200,000	-0,003	-0,033
-89,986	-200,000	0,007	0,034
-88,972	116,009	0,108	0,095
-87,957	54,541	-0,092	-0,064
-86,943	-121,126	0,121	-0,014
-85,928	-200,000	0,004	0,046
-84,913	800,000	0,023	0,064
-83,899	274,280	0,030	0,038
-82,884	-34,928	-0,051	-0,020
-81,870	172,754	0,093	0,096
-80,855	17,275	-0,109	-0,062
-79,840	193,094	0,076	-0,083
-78,826	93,835	-0,056	0,046
-77,811	206,101	-0,051	-0,057
-76,797	-36,593	0,064	0,025
-75,782	-200,000	0,006	-0,067
-74,767	-24,879	-0,041	0,017
-73,753	92,656	0,057	0,046
-72,738	800,000	-0,031	-0,078
-71,724	-200,000	0,011	-0,102
-70,709	60,834	-0,102	0,072
-69,694	-52,620	-0,088	0,029
-68,680	783,783	-0,069	0,136
-67,665	-200,000	0,014	0,154
-66,651	-200,000	-0,012	-0,056
-65,636	800,000	-0,081	0,164
-64,622	54,516	0,103	-0,071
-63,607	112,297	-0,069	0,060
-62,592	-200,000	-0,013	0,070
-61,578	-186,458	0,038	-0,000
-60,563	-111,089	0,178	-0,026
-59,549	800,000	-0,029	0,064
-58,534	-13,513	-1,936	-0,897
-57,519	-200,000	-0,251	-1,045
-56,505	-200,000	-1,200	-4,924
-55,490	4,657	0,823	0,433
-54,476	800,000	5,138	11,773
-53,461	-200,000	17,545	286,067
-52,446	800,000	722,310	2228,298
-51,432	546,846	1635,439	2819,383
-50,417	112,342	1627,262	1412,402
-49,403	76,818	1283,944	977,110
-48,388	32,894	1027,295	637,042
-47,373	20,375	989,168	572,152
-46,359	18,736	977,542	560,034
-45,344	16,043	973,707	549,001
-44,330	16,273	972,063	548,804
-43,315	15,820	970,204	546,252
-42,300	15,713	969,279	545,363
-41,286	15,768	968,114	544,865
-40,271	15,713	967,424	544,274
-39,257	15,779	966,202	543,780
-38,242	15,778	965,439	543,327
-37,227	15,828	964,478	542,926
-36,213	15,825	963,702	542,456
-35,198	15,742	962,784	541,652
-34,184	15,799	962,133	541,448
-33,169	15,692	961,190	540,548
-32,154	15,721	960,262	540,101
-31,140	15,753	959,371	539,679
-30,125	15,734	958,554	539,139
-29,111	15,755	957,826	538,775
-28,096	15,778	957,340	538,555
-27,082	15,778	956,531	538,079
-26,067	15,768	955,774	537,599
-25,052	15,770	955,032	537,166
-24,038	15,817	954,171	536,813
-23,023	15,748	953,631	536,264
-22,009	15,830	952,943	536,119
-20,994	15,791	952,413	535,675
-19,979	15,782	951,884	535,329
-18,965	15,807	951,108	534,949
-17,950	15,798	950,639	534,636
-16,936	15,729	950,047	534,062
-15,921	15,722	949,287	533,591
-14,906	15,603	948,552	532,779
-13,892	15,643	947,927	532,533
-12,877	15,651	947,302	532,185
-11,863	15,655	946,838	531,918
-10,848	15,652	946,110	531,478
-9,833	15,740	945,771	531,545
-8,819	15,779	945,015	531,223
-7,804	15,686	944,358	530,537
-6,790	15,601	943,814	529,941
-5,775	15,693	943,324	529,937
-4,760	15,682	942,624	529,487
-3,746	15,671	941,996	529,080
-2,731	15,506	941,308	528,150
-1,717	15,543	940,576	527,835
-0,702	15,546	939,975	527,486
0,313	15,312	939,236	527,129
1,327	17,923	936,934	534,014
2,342	24,840	810,019	480,387
3,356	18,815	518,892	297,249
4,371	-2,420	394,213	197,466
5,386	-4,776	378,149	186,361
6,400	-6,266	371,803	181,325
7,415	-7,322	368,953	178,587
8,429	-7,543	367,307	177,496
9,444	-7,573	366,156	176,887
10,459	-7,704	365,437	176,361
11,473	-7,875	364,666	175,760
12,488	-7,934	364,128	175,411
13,502	-8,117	363,457	174,845
14,517	-8,191	362,778	174,411
15,531	-8,621	362,224	173,597
16,546	-8,646	361,780	173,337
17,561	-8,727	361,148	172,919
18,575	-8,631	360,855	172,882
19,590	-8,675	360,362	172,576
20,604	-8,538	359,976	172,544
21,619	-8,722	359,715	172,177
22,634	-8,650	359,216	172,012
23,648	-8,783	358,887	171,676
24,663	-8,665	358,548	171,643
25,677	-8,664	358,178	171,451
26,692	-8,563	357,806	171,381
27,707	-8,568	357,503	171,215
28,721	-8,700	357,223	170,905
29,736	-8,536	356,706	170,842
30,750	-8,724	356,623	170,558
31,765	-8,710	356,224	170,369
32,780	-8,609	355,842	170,294
33,794	-8,748	355,653	170,020
34,809	-8,627	355,232	169,949
35,823	-8,774	355,200	169,741
36,838	-8,806	354,675	169,437
37,853	-8,731	354,371	169,366
38,867	-8,797	354,012	169,100
39,882	-8,670	353,641	169,061
40,896	-8,837	353,524	168,789
41,911	-8,747	353,158	168,707
42,926	-8,805	352,844	168,473
43,940	-8,804	352,462	168,277
44,955	-8,828	352,371	168,190
45,969	-8,843	351,888	167,925
46,984	-8,881	351,760	167,805
47,999	-8,906	351,464	167,617
49,013	-8,944	351,312	167,485
50,028	-8,776	350,882	167,466
51,042	-8,918	350,657	167,174
52,057	-8,927	350,383	167,018
53,071	-9,008	350,149	166,795
54,086	-9,040	349,727	166,540
55,101	-8,874	349,444	166,588
56,115	-8,854	349,240	166,500
57,130	-8,743	349,051	166,527
58,144	-8,481	348,784	166,697
59,159	-8,402	348,471	166,626
60,174	-8,395	348,174	166,477
61,188	-8,557	347,986	166,180
62,203	-8,593	347,626	165,951
63,217	-8,630	347,371	165,771
64,232	-8,598	347,217	165,721
65,247	-8,363	346,904	165,833
66,261	-8,466	346,464	165,487
67,276	-8,778	346,217	164,986
68,290	-8,741	345,726	164,782
69,305	-8,703	345,704	164,801
70,320	-8,808	345,278	164,459
71,334	-8,691	345,030	164,465
72,349	-8,477	344,853	164,616
73,363	-8,447	344,677	164,553
74,378	-8,617	344,501	164,255
75,393	-8,600	344,080	164,060
76,407	-8,534	343,757	163,968
77,422	-8,596	343,513	163,765
78,436	-8,580	343,418	163,723
79,451	-8,523	343,130	163,638
80,466	-8,629	342,739	163,313
81,480	-8,784	342,349	162,933
82,495	-8,928	342,120	162,641
83,509	-8,862	341,841	162,571
84,524	-8,700	341,605	162,632
85,539	-8,873	341,364	162,303
86,553	-8,899	341,028	162,098
87,568	-8,799	340,789	162,086
88,582	-8,760	340,401	161,933
89,597	-8,792	340,110	161,743
90,611	-8,776	340,090	161,737
91,626	-8,568	339,908	161,876
92,641	-8,707	339,644	161,576
93,655	-8,801	339,328	161,303
94,670	-8,955	339,099	161,002
95,684	-8,717	338,851	161,144
96,699	-8,696	338,497	160,985
97,714	-8,752	338,311	160,818
98,728	-8,921	337,957	160,441
99,743	-8,815	337,595	160,376
100,757	-8,786	337,455	160,329
101,772	-8,791	337,184	160,180
102,787	-8,961	336,982	159,875
103,801	-8,792	336,729	159,934
104,816	-8,772	336,601	159,883
105,830	-8,671	336,375	159,876
106,845	-8,516	336,023	159,871
107,860	-8,525	335,855	159,767
108,874	-8,589	335,440	159,482
109,889	-8,675	335,192	159,253
110,903	-8,605	335,065	159,257
111,918	-8,681	334,853	159,055
112,933	-8,667	334,629	158,951
113,947	-8,813	334,305	158,618
114,962	-8,545	334,091	158,805
115,976	-8,641	333,890	158,587
116,991	-8,643	333,685	158,474
118,006	-8,777	333,477	158,210
119,020	-8,615	333,271	158,280
120,035	-8,621	333,069	158,163
121,049	-8,612	332,803	158,033
122,064	-8,679	332,793	157,938
123,079	-8,450	332,163	157,883
124,093	-8,641	332,052	157,602
125,108	-8,792	331,766	157,283
126,122	-8,890	331,620	157,089
127,137	-9,020	331,190	156,725
128,151	-8,868	330,985	156,785
129,166	-8,803	330,771	156,742
130,181	-8,795	330,416	156,569
131,195	-8,800	330,168	156,432
132,210	-8,784	330,075	156,391
133,224	-8,623	329,708	156,384
134,239	-8,598	329,584	156,339
135,254	-8,606	329,269	156,166
136,268	-8,698	328,950	155,899
137,283	-8,721	328,641	155,713
138,297	-8,814	328,610	155,581
139,312	-8,655	328,221	155,560
140,327	-8,592	328,118	155,566
141,341	-8,406	328,010	155,708
142,356	-8,343	327,860	155,692
143,370	-8,396	327,674	155,532
144,385	-8,353	327,485	155,476
145,400	-8,424	327,114	155,208
146,414	-8,322	326,779	155,147
147,429	-8,475	326,661	154,908
148,443	-8,446	326,450	154,826
149,458	-8,490	326,079	154,589
150,473	-8,203	325,906	154,808
151,487	-8,506	325,810	154,415
152,502	-8,302	325,426	154,444
153,516	-8,274	325,211	154,358
154,531	-8,418	325,096	154,133
155,546	-8,472	324,898	153,966
156,560	-8,498	324,527	153,748
157,575	-8,604	324,163	153,445
158,589	-8,514	324,137	153,518
159,604	-8,349	323,881	153,563
160,619	-8,265	323,681	153,547
161,633	-8,271	323,355	153,371
162,648	-8,283	323,176	153,260
163,662	-8,385	323,044	153,073
164,677	-8,473	322,850	152,871
165,692	-8,433	322,560	152,764
166,706	-8,298	322,328	152,787
167,721	-8,255	322,254	152,786
168,735	-8,159	321,965	152,739
169,750	-8,214	321,832	152,602
170,764	-8,257	321,673	152,467
171,779	-8,372	321,420	152,208
172,794	-8,258	321,276	152,250
173,808	-8,537	320,855	151,735
174,823	-8,569	320,543	151,540
175,837	-8,670	320,256	151,281
176,852	-8,551	320,302	151,418
177,867	-8,327	320,060	151,532
178,881	-8,188	319,910	151,597
179,896	-8,267	319,539	151,323
180,910	-8,136	319,400	151,385
181,925	-8,108	319,135	151,276
182,940	-8,219	318,922	151,042
183,954	-8,213	318,724	150,941
184,969	-8,263	318,556	150,794
185,983	-8,192	318,327	150,748
186,998	-8,072	318,069	150,742
188,013	-8,144	317,924	150,582
189,027	-8,214	317,628	150,353
190,042	-8,142	317,442	150,330
191,056	-7,966	317,309	150,441
192,071	-8,018	317,001	150,225
193,086	-7,967	316,864	150,201
194,100	-8,121	316,626	149,912
195,115	-8,093	316,328	149,787
196,129	-8,110	316,064	149,630
197,144	-8,139	316,067	149,588
198,159	-8,225	315,702	149,311
199,173	-8,137	315,576	149,331
200,188	-7,930	315,203	149,360
201,202	-8,180	314,994	148,984
202,217	-8,584	314,595	148,354
203,232	-8,518	314,426	148,331
204,246	-8,285	314,286	148,498
205,261	-8,342	314,159	148,365
206,275	-8,150	313,932	148,446
207,290	-8,192	313,713	148,286
208,304	-8,215	313,378	148,089
209,319	-8,134	313,191	148,074
210,334	-7,996	313,063	148,145
211,348	-8,065	312,849	147,958
212,363	-8,086	312,728	147,865
213,377	-8,168	312,491	147,654
214,392	-8,286	312,246	147,401
215,407	-8,478	312,094	147,115
216,421	-8,456	311,763	146,969
217,436	-8,448	311,586	146,881
218,450	-8,447	311,370	146,767
219,465	-8,291	311,226	146,849
220,480	-8,372	311,099	146,691
221,494	-8,385	310,786	146,517
222,509	-8,325	310,690	146,521
223,523	-8,200	310,415	146,509
224,538	-8,034	310,190	146,562
225,553	-8,189	310,041	146,317
226,567	-8,066	309,866	146,350
227,582	-8,195	309,771	146,158
228,596	-8,259	309,548	145,973
229,611	-8,184	309,364	145,951
230,626	-8,044	308,933	145,880
231,640	-8,379	308,812	145,462
232,655	-8,647	308,345	144,952
233,669	-8,511	308,331	145,074
234,684	-8,656	308,092	144,799
235,699	-8,495	307,795	144,812
236,713	-8,423	307,698	144,828
237,728	-8,305	307,369	144,781
238,742	-8,289	307,281	144,744
239,757	-8,328	307,201	144,653
240,772	-8,217	306,862	144,595
241,786	-8,133	306,735	144,609
242,801	-8,275	306,499	144,339
243,815	-8,293	306,393	144,257
244,830	-8,107	306,088	144,291
245,844	-8,341	306,036	144,015
246,859	-8,167	305,704	144,023
247,874	-8,206	305,580	143,912
248,888	-8,270	305,386	143,743
249,903	-8,084	305,292	143,875
250,917	-8,040	305,141	143,837
251,932	-7,916	305,167	143,963
252,947	-6,928	305,169	144,960
253,961	-6,448	305,192	145,447
254,976	-6,654	304,987	145,127
255,990	-6,922	304,652	144,681
257,005	-5,570	305,036	146,230
258,020	-2,753	306,232	149,671
259,034	-1,222	306,523	151,365
260,049	-0,232	306,651	152,426
261,063	0,214	306,692	152,888
262,078	0,218	306,509	152,788
263,093	0,031	306,492	152,575
264,107	0,314	306,308	152,758
265,122	0,460	306,300	152,890
266,136	0,538	305,907	152,759
267,151	0,572	305,731	152,692
268,166	0,796	305,583	152,832
269,180	0,828	305,539	152,829
270,195	0,855	305,165	152,656
271,209	0,742	304,999	152,445
272,224	0,828	304,934	152,485
273,239	0,799	304,755	152,353
274,253	0,913	304,476	152,315
275,268	0,949	304,351	152,275
276,282	0,847	304,149	152,058
277,297	0,892	303,898	151,964
278,312	0,906	303,626	151,829
279,326	0,886	303,309	151,637
280,341	0,876	303,301	151,609
281,355	0,927	302,964	151,478
282,370	0,842	302,967	151,381
283,384	0,793	302,721	151,196
284,399	0,806	302,418	151,044
285,414	0,739	302,327	150,917
286,428	0,816	302,097	150,867
287,443	0,751	301,828	150,653
288,457	0,606	301,501	150,331
289,472	0,485	301,413	150,153
290,487	0,345	301,159	149,874
291,501	0,607	300,916	150,001
292,516	0,570	300,821	149,903
293,530	0,709	300,610	149,923
294,545	0,536	300,486	149,675
295,560	0,517	300,285	149,543
296,574	0,871	300,175	149,827
297,589	0,801	299,937	149,626
298,603	0,829	299,756	149,550
299,618	0,870	299,524	149,462
300,633	1,094	299,212	149,515
301,647	0,857	299,176	149,248
302,662	0,702	299,033	149,010
303,676	0,680	298,762	148,840
304,691	0,872	298,409	148,840
305,706	0,765	298,314	148,675
306,720	0,634	298,261	148,505
307,735	0,518	298,049	148,271
308,749	0,623	297,672	148,175
309,764	0,586	297,543	148,060
310,779	0,842	297,406	148,232
311,793	0,894	297,187	148,161
312,808	0,681	297,061	147,874
313,822	0,759	296,894	147,855
314,837	0,849	296,598	147,783
315,852	0,714	296,552	147,615
316,866	0,790	296,318	147,559
317,881	0,470	296,047	147,098
318,895	0,664	295,834	147,169
319,910	0,485	295,656	146,891
320,925	0,700	295,548	147,036
321,939	0,834	295,260	147,010
322,954	0,575	295,121	146,674
323,968	0,674	294,985	146,690
324,983	0,926	294,830	146,846
325,997	1,085	294,439	146,793
327,012	0,682	294,403	146,369
328,027	0,702	294,291	146,320
329,041	0,842	294,085	146,341
330,056	0,848	293,890	146,236
331,070	0,761	293,692	146,041
332,085	0,777	293,437	145,917
333,100	1,028	293,224	146,041
334,114	1,049	292,907	145,890
335,129	0,726	292,801	145,512
336,143	0,881	292,692	145,595
337,158	0,796	292,510	145,409
338,173	0,951	292,326	145,454
339,187	0,913	292,115	145,300
340,202	0,936	291,886	145,195
341,216	1,093	291,644	145,213
342,231	1,021	291,520	145,068
343,246	1,037	291,446	145,035
344,260	0,750	291,345	144,695
345,275	0,939	291,023	144,704
346,289	1,064	290,709	144,655
347,304	0,946	290,693	144,521
348,319	0,941	290,658	144,486
349,333	0,872	290,306	144,232
350,348	0,819	290,013	144,022
351,362	0,956	289,809	144,039
352,377	0,976	289,755	144,019
353,392	0,966	289,667	143,953
354,406	0,933	289,441	143,796
355,421	192,220	1326,185	1392,777
356,435	155,873	1452,469	1392,767
