DTS Sentinel unit serial number:	SN410029Multiplexer serial number:	ORYXHardware model number:	OX2-SRSoftware version number:	ORYX F/W v4,00 Oryx Data Collector v3.7.2.0data status	okinstallation	B4 Nyhavnadifferential loss correction	single-endedforward channel	channel 2reverse channel	N/Adate	2023/12/19time	13:10:13forward acquisition time	300,00reverse acquisition time	0,00gamma	499,1914k internal	0,3128k external	0,3128temperature offset calibration	1,0000default loss term (dB/km)	0,3820temperature slope calibration	1,0000multiplexer offset coefficient	1,0000multiplexer slope coefficient	1,0000fibre end	0,00T internal ref (°C)	19,42T ext. ref 1 (°C)	4,46T ext. ref 2 (°C)	4,44length (m)	temperature (°C)	Stokes	anti-Stokes-744,400	-200,000	-0,037	-0,166
-743,385	165,978	-0,234	0,247
-742,371	2,228	0,056	0,030
-741,356	-2,197	-0,211	0,110
-740,342	-137,088	0,139	0,012
-739,327	-137,590	-0,319	-0,026
-738,312	-138,703	0,068	0,005
-737,298	-8,082	-0,247	0,124
-736,283	-200,000	-0,005	0,020
-735,269	-98,713	-0,287	0,054
-734,254	-64,508	0,083	-0,025
-733,239	-71,281	-0,347	-0,096
-732,225	-116,499	0,044	-0,006
-731,210	-200,000	0,006	0,130
-730,196	88,192	-0,065	0,054
-729,181	336,130	-0,056	-0,081
-728,167	-57,109	-0,082	0,027
-727,152	-200,000	0,017	0,119
-726,137	-57,484	-0,126	-0,041
-725,123	166,663	0,103	0,108
-724,108	-200,000	0,004	-0,156
-723,094	-200,000	-0,009	-0,179
-722,079	-200,000	-0,036	-0,161
-721,064	131,925	0,109	-0,104
-720,050	-200,000	0,029	-0,163
-719,035	-200,000	-0,011	-0,064
-718,021	-170,668	-0,180	-0,005
-717,006	-88,162	-0,107	0,024
-715,991	302,731	-0,093	0,128
-714,977	800,000	0,045	-0,125
-713,962	-148,110	-0,166	0,010
-712,948	-35,197	-0,056	0,023
-711,933	-200,000	-0,030	-0,121
-710,918	63,718	-0,067	0,050
-709,904	153,160	-0,028	0,029
-708,889	348,437	0,056	-0,082
-707,875	615,233	0,067	-0,126
-706,860	-6,383	0,049	0,025
-705,845	-149,064	0,092	-0,005
-704,831	200,063	-0,057	-0,065
-703,816	800,000	-0,038	0,109
-702,802	434,415	0,037	-0,060
-701,787	-38,192	-0,020	0,008
-700,772	-56,870	-0,028	-0,009
-699,758	-200,000	0,015	-0,082
-698,743	-141,588	-0,058	0,004
-697,729	-52,863	0,135	-0,046
-696,714	620,288	-0,067	-0,126
-695,699	-113,270	-0,096	-0,014
-694,685	-133,560	-0,052	-0,005
-693,670	406,504	-0,051	-0,080
-692,656	-118,849	0,175	0,023
-691,641	-38,321	-0,030	-0,012
-690,627	-200,000	-0,035	0,137
-689,612	126,445	0,070	-0,066
-688,597	229,111	0,033	0,040
-687,583	168,929	-0,146	-0,155
-686,568	66,278	-0,123	-0,093
-685,554	219,897	0,027	-0,032
-684,539	5,668	0,107	-0,058
-683,524	38,879	0,051	-0,034
-682,510	227,501	0,102	-0,123
-681,495	7,935	-0,169	-0,094
-680,481	-200,000	0,012	0,112
-679,466	65,386	0,076	-0,057
-678,451	151,139	-0,122	-0,123
-677,437	98,723	0,015	0,012
-676,422	220,369	-0,091	0,109
-675,408	114,617	-0,102	-0,092
-674,393	395,841	-0,016	-0,026
-673,378	-73,750	-0,043	-0,012
-672,364	-67,515	-0,176	0,051
-671,349	-200,000	0,007	-0,040
-670,335	-5,462	-0,111	0,056
-669,320	271,475	-0,075	0,098
-668,305	-77,197	-0,089	0,023
-667,291	-200,000	-0,013	0,085
-666,276	-200,000	-0,014	-0,136
-665,262	-120,690	-0,017	0,002
-664,247	-42,674	-0,096	-0,036
-663,232	136,876	0,138	-0,133
-662,218	-108,859	0,074	-0,012
-661,203	-200,000	-0,015	0,077
-660,189	800,000	-0,039	0,118
-659,174	-52,436	-0,064	0,022
-658,159	103,629	-0,118	-0,103
-657,145	-200,000	0,011	0,059
-656,130	-141,899	-0,179	-0,013
-655,116	-200,000	-0,007	-0,077
-654,101	-200,000	0,005	0,124
-653,086	167,495	-0,083	-0,088
-652,072	-200,000	0,017	0,108
-651,057	231,043	-0,070	0,085
-650,043	568,084	-0,054	-0,097
-649,028	488,141	0,046	0,078
-648,014	-0,116	0,133	-0,070
-646,999	-19,484	0,081	-0,037
-645,984	480,781	0,027	0,045
-644,970	800,000	-0,035	0,083
-643,955	-22,996	-0,100	0,045
-642,941	1,334	-0,170	-0,090
-641,926	-200,000	-0,040	0,132
-640,911	-45,665	0,079	0,029
-639,897	159,170	0,021	-0,022
-638,882	662,063	0,055	-0,106
-637,868	147,787	-0,045	0,045
-636,853	800,000	0,040	-0,087
-635,838	-200,000	0,006	0,045
-634,824	144,287	0,091	-0,090
-633,809	27,155	0,066	0,041
-632,795	31,788	0,065	-0,042
-631,780	27,075	0,037	0,023
-630,765	800,000	0,059	0,150
-629,751	111,057	-0,107	-0,096
-628,736	-200,000	-0,014	-0,108
-627,722	736,998	0,078	-0,156
-626,707	-62,284	0,094	-0,029
-625,692	-9,851	0,089	0,044
-624,678	-200,000	0,010	0,038
-623,663	800,000	-0,032	0,090
-622,649	13,863	0,138	-0,080
-621,634	109,070	-0,080	0,071
-620,619	76,148	-0,045	0,035
-619,605	91,819	0,097	0,081
-618,590	-76,663	-0,039	0,010
-617,576	101,257	0,202	-0,174
-616,561	-200,000	0,015	-0,085
-615,546	140,476	-0,053	-0,052
-614,532	236,300	0,051	-0,063
-613,517	-16,849	-0,104	-0,048
-612,503	-200,000	0,013	-0,092
-611,488	418,586	-0,042	-0,067
-610,474	247,303	0,049	0,061
-609,459	53,467	-0,088	0,062
-608,444	-103,636	-0,046	-0,008
-607,430	12,345	-0,134	0,076
-606,415	-159,677	-0,170	0,007
-605,401	-200,000	0,014	-0,070
-604,386	379,019	0,032	-0,049
-603,371	-9,474	-0,074	-0,036
-602,357	-200,000	-0,022	0,137
-601,342	110,375	0,149	-0,133
-600,328	-1,236	-0,099	0,052
-599,313	533,334	0,056	-0,098
-598,298	-56,116	-0,082	-0,027
-597,284	131,613	0,065	-0,062
-596,269	165,326	0,026	-0,028
-595,255	64,210	0,021	-0,015
-594,240	-97,391	0,050	-0,010
-593,225	434,432	-0,086	-0,139
-592,211	-200,000	0,028	0,146
-591,196	39,796	-0,068	0,045
-590,182	-24,300	0,052	0,023
-589,167	800,000	0,014	-0,033
-588,152	-5,573	0,075	0,038
-587,138	-27,924	0,048	-0,020
-586,123	520,107	0,070	0,122
-585,109	-200,000	-0,004	-0,100
-584,094	-160,352	-0,102	-0,004
-583,079	-200,000	0,013	-0,072
-582,065	-68,788	-0,058	0,017
-581,050	-200,000	-0,008	-0,046
-580,036	73,316	-0,084	-0,065
-579,021	-200,000	-0,014	-0,149
-578,006	331,145	-0,050	-0,072
-576,992	23,033	0,132	0,080
-575,977	-200,000	0,008	-0,077
-574,963	-64,496	0,025	-0,008
-573,948	-5,867	-0,072	0,036
-572,934	-88,110	0,128	-0,028
-571,919	217,903	-0,054	-0,064
-570,904	99,614	-0,107	-0,092
-569,890	-200,000	-0,025	-0,091
-568,875	-200,000	-0,009	-0,168
-567,861	800,000	0,018	-0,042
-566,846	55,963	0,089	0,064
-565,831	-200,000	0,054	0,250
-564,817	116,175	-0,080	0,072
-563,802	-147,613	-0,057	0,003
-562,788	-200,000	-0,011	0,079
-561,773	175,642	0,100	-0,107
-560,758	800,000	0,007	-0,019
-559,744	800,000	0,025	-0,073
-558,729	16,082	0,054	0,031
-557,715	0,852	0,047	-0,025
-556,700	-200,000	0,045	-0,193
-555,685	48,878	-0,145	0,100
-554,671	50,885	0,094	0,066
-553,656	65,402	0,047	0,035
-552,642	252,222	0,091	0,115
-551,627	1,662	0,062	0,033
-550,612	451,438	-0,016	0,027
-549,598	-20,584	-0,089	0,040
-548,583	159,419	0,045	0,046
-547,569	201,244	-0,107	0,122
-546,554	-15,476	0,132	-0,062
-545,539	800,000	0,018	0,039
-544,525	262,940	-0,014	0,018
-543,510	-53,652	-0,135	0,045
-542,496	800,000	-0,015	0,049
-541,481	-28,750	-0,043	-0,018
-540,466	-103,973	-0,060	-0,010
-539,452	161,111	-0,034	-0,035
-538,437	-200,000	0,012	0,071
-537,423	165,703	0,111	0,116
-536,408	8,472	-0,102	-0,056
-535,393	-200,000	0,025	-0,163
-534,379	-22,438	-0,194	-0,087
-533,364	800,000	-0,051	-0,145
-532,350	-127,601	-0,075	0,008
-531,335	10,476	0,091	-0,051
-530,321	-200,000	0,007	0,075
-529,306	386,038	-0,012	-0,018
-528,291	229,770	0,051	-0,062
-527,277	27,958	0,041	0,025
-526,262	-110,448	-0,036	0,005
-525,248	800,000	-0,079	0,237
-524,233	-135,042	0,086	0,008
-523,218	-36,054	-0,060	-0,024
-522,204	-200,000	0,016	0,106
-521,189	336,432	-0,049	0,070
-520,175	-200,000	-0,016	-0,137
-519,160	474,078	-0,040	-0,066
-518,145	-153,422	0,086	-0,004
-517,131	444,015	-0,127	0,206
-516,116	7,334	0,044	0,024
-515,102	15,143	-0,018	0,010
-514,087	-65,905	-0,086	0,025
-513,072	-111,265	-0,043	-0,006
-512,058	-147,613	-0,044	0,003
-511,043	8,942	0,039	0,022
-510,029	-200,000	0,011	0,053
-509,014	746,693	-0,032	-0,064
-507,999	45,447	0,057	-0,038
-506,985	800,000	-0,026	-0,084
-505,970	618,630	-0,018	0,033
-504,956	800,000	-0,051	-0,147
-503,941	-84,717	-0,074	-0,017
-502,926	56,063	-0,051	-0,037
-501,912	-200,000	0,007	-0,053
-500,897	202,990	0,040	0,045
-499,883	-99,019	0,072	-0,013
-498,868	-200,000	-0,011	-0,139
-497,853	77,912	0,109	-0,086
-496,839	70,982	0,056	0,043
-495,824	8,602	0,065	0,036
-494,810	-200,000	-0,002	0,032
-493,795	146,025	0,072	0,071
-492,781	-200,000	-0,008	0,075
-491,766	-4,675	0,067	0,034
-490,751	34,630	-0,031	0,020
-489,737	-200,000	-0,011	-0,050
-488,722	800,000	0,023	-0,053
-487,708	800,000	-0,025	-0,070
-486,693	800,000	0,028	-0,070
-485,678	-200,000	0,003	0,091
-484,664	97,401	0,033	-0,028
-483,649	-200,000	-0,012	-0,107
-482,635	-200,000	-0,012	-0,063
-481,620	609,640	0,035	-0,064
-480,605	800,000	0,024	0,056
-479,591	18,755	0,104	0,061
-478,576	-200,000	0,008	0,125
-477,562	-200,000	0,017	-0,131
-476,547	698,470	0,056	-0,109
-475,532	800,000	-0,020	0,041
-474,518	-109,550	0,010	-0,002
-473,503	195,190	-0,015	-0,016
-472,489	800,000	-0,030	0,088
-471,474	11,201	0,155	-0,087
-470,459	800,000	-0,051	-0,147
-469,445	-143,529	0,056	-0,004
-468,430	-200,000	-0,003	0,040
-467,416	-200,000	-0,031	0,103
-466,401	-200,000	0,015	0,052
-465,386	53,623	-0,019	0,013
-464,372	208,081	0,025	-0,029
-463,357	-200,000	0,010	-0,059
-462,343	-200,000	0,031	-0,118
-461,328	800,000	0,044	-0,103
-460,313	49,182	0,110	-0,076
-459,299	-200,000	-0,004	0,059
-458,284	-175,748	0,018	0,000
-457,270	133,288	0,006	-0,006
-456,255	800,000	-0,008	0,019
-455,241	-166,968	-0,091	0,003
-454,226	403,177	0,087	-0,136
-453,211	33,780	0,031	0,020
-452,197	92,470	-0,054	-0,045
-451,182	-200,000	-0,009	0,147
-450,168	180,011	-0,017	-0,018
-449,153	29,419	-0,064	-0,040
-448,138	344,367	0,055	0,079
-447,124	800,000	0,045	0,101
-446,109	-122,657	-0,030	0,004
-445,095	149,124	0,113	0,113
-444,080	-200,000	-0,017	0,089
-443,065	23,426	0,127	0,076
-442,051	800,000	-0,068	0,174
-441,036	-200,000	0,017	0,079
-440,022	-14,078	0,123	-0,058
-439,007	-114,839	0,112	0,016
-437,992	226,273	-0,073	0,088
-436,978	202,229	0,139	0,157
-435,963	-47,331	-0,090	0,032
-434,949	-47,256	-0,101	-0,036
-433,934	-200,000	0,023	-0,178
-432,919	-200,000	-0,014	-0,105
-431,905	-200,000	0,018	-0,062
-430,890	-32,703	0,044	-0,018
-429,876	800,000	0,062	-0,126
-428,861	172,305	0,030	-0,031
-427,846	800,000	0,019	0,051
-426,832	790,308	0,025	-0,052
-425,817	-73,513	-0,246	-0,066
-424,803	-39,516	0,088	-0,034
-423,788	-45,079	-0,037	-0,013
-422,773	-91,171	0,182	0,038
-421,759	-106,948	-0,056	-0,009
-420,744	-200,000	-0,019	-0,153
-419,730	418,139	-0,036	-0,057
-418,715	-200,000	-0,023	-0,099
-417,701	143,411	0,014	-0,013
-416,686	800,000	0,023	-0,056
-415,671	95,964	0,155	0,130
-414,657	660,416	-0,023	-0,043
-413,642	-40,962	-0,079	-0,030
-412,628	-200,000	0,011	0,068
-411,613	-200,000	-0,001	-0,035
-410,598	-68,537	0,033	-0,009
-409,584	-119,592	0,106	-0,013
-408,569	26,684	0,077	0,047
-407,555	-94,103	-0,017	-0,003
-406,540	322,525	0,032	-0,044
-405,525	53,630	-0,059	-0,042
-404,511	-120,875	0,068	-0,008
-403,496	-57,880	-0,101	0,032
-402,482	-84,196	-0,080	-0,018
-401,467	675,617	-0,041	-0,079
-400,452	299,369	0,099	0,135
-399,438	-200,000	0,021	-0,089
-398,423	-200,000	0,027	-0,144
-397,409	-131,890	0,145	0,014
-396,394	43,843	-0,114	0,077
-395,379	-44,025	-0,092	-0,034
-394,365	0,858	0,075	0,039
-393,350	92,475	-0,147	0,121
-392,336	166,474	-0,037	-0,039
-391,321	363,965	-0,062	0,092
-390,306	79,466	0,056	0,044
-389,292	118,723	-0,049	-0,045
-388,277	207,383	-0,112	0,128
-387,263	-36,240	0,061	-0,024
-386,248	-200,000	0,015	0,112
-385,233	-176,703	0,048	0,001
-384,219	800,000	-0,052	-0,140
-383,204	28,668	-0,050	-0,031
-382,190	-141,203	-0,054	-0,004
-381,175	-197,397	-0,125	0,001
-380,160	-200,000	0,013	0,000
-379,146	105,718	0,041	-0,036
-378,131	388,697	-0,036	0,055
-377,117	-135,737	-0,133	-0,011
-376,102	110,771	0,077	0,068
-375,088	444,278	-0,055	-0,089
-374,073	-52,923	-0,068	0,023
-373,058	-119,361	0,113	-0,014
-372,044	-59,303	-0,014	-0,004
-371,029	620,288	-0,068	-0,126
-370,015	-10,405	-0,043	0,021
-369,000	-200,000	-0,012	0,040
-367,985	-197,701	0,078	-0,000
-366,971	800,000	-0,027	0,084
-365,956	23,667	0,032	-0,019
-364,942	79,389	0,084	-0,066
-363,927	-200,000	0,002	-0,084
-362,912	-200,000	-0,043	-0,145
-361,898	4,274	-0,084	-0,045
-360,883	-168,718	-0,011	-0,000
-359,869	-82,424	-0,072	-0,017
-358,854	40,214	0,074	0,049
-357,839	-44,458	0,078	0,028
-356,825	535,781	0,053	-0,093
-355,810	-124,152	-0,121	-0,014
-354,796	-103,040	-0,042	0,007
-353,781	-41,101	-0,017	0,006
-352,766	800,000	-0,041	0,086
-351,752	-12,919	-0,062	0,029
-350,737	673,997	-0,013	0,025
-349,723	-4,791	0,106	-0,053
-348,708	607,218	-0,061	-0,111
-347,693	-200,000	-0,027	-0,088
-346,679	65,544	-0,067	-0,050
-345,664	130,350	0,060	-0,056
-344,650	-18,260	0,020	-0,009
-343,635	-200,000	0,008	0,126
-342,620	453,594	0,021	-0,035
-341,606	-200,000	0,022	-0,078
-340,591	-88,517	-0,074	-0,016
-339,577	800,000	-0,039	0,093
-338,562	-166,344	0,040	0,001
-337,548	-22,690	-0,159	-0,070
-336,533	-125,787	0,100	0,011
-335,518	800,000	0,025	0,067
-334,504	800,000	0,049	0,101
-333,489	-16,734	-0,028	-0,013
-332,475	-143,655	-0,126	0,009
-331,460	-200,000	-0,001	-0,037
-330,445	317,418	0,065	-0,091
-329,431	-135,347	0,054	0,005
-328,416	-19,305	0,114	0,052
-327,402	-15,450	0,124	0,058
-326,387	-200,000	-0,004	0,106
-325,372	401,386	-0,052	0,080
-324,358	-74,179	0,068	-0,018
-323,343	-200,000	0,004	-0,131
-322,329	5,238	0,068	-0,037
-321,314	-200,000	0,017	0,072
-320,299	800,000	0,035	-0,072
-319,285	-143,796	-0,040	-0,003
-318,270	219,787	0,036	-0,042
-317,256	88,471	-0,123	-0,100
-316,241	800,000	-0,023	-0,051
-315,226	36,202	0,035	-0,023
-314,212	-108,537	0,083	0,013
-313,197	56,456	-0,016	0,011
-312,183	428,906	0,026	-0,042
-311,168	54,196	-0,016	0,012
-310,153	2,849	-0,048	-0,025
-309,139	-36,523	0,156	0,061
-308,124	-137,971	0,076	-0,006
-307,110	-52,967	-0,067	0,023
-306,095	-137,322	0,126	-0,010
-305,080	506,644	0,063	0,108
-304,066	378,704	0,033	-0,049
-303,051	-200,000	0,001	-0,042
-302,037	800,000	-0,044	-0,119
-301,022	220,047	0,061	-0,072
-300,008	-200,000	0,009	0,191
-298,993	-191,520	-0,032	-0,000
-297,978	-200,000	-0,020	0,139
-296,964	52,770	0,076	-0,053
-295,949	-200,000	-0,033	-0,148
-294,935	800,000	0,015	-0,036
-293,920	17,366	0,141	-0,081
-292,905	-200,000	0,002	-0,042
-291,891	-200,000	-0,013	0,068
-290,876	219,230	0,048	0,056
-289,862	-200,000	-0,005	-0,073
-288,847	209,719	0,022	0,025
-287,832	-87,905	-0,150	-0,033
-286,818	800,000	-0,026	-0,063
-285,803	-72,420	0,101	0,027
-284,789	8,894	0,025	0,013
-283,774	-129,324	-0,002	0,000
-282,759	99,293	-0,030	-0,025
-281,745	-54,465	-0,150	0,049
-280,730	-106,242	0,045	-0,007
-279,716	800,000	0,025	0,065
-278,701	-200,000	-0,016	0,099
-277,686	-101,921	0,078	0,014
-276,672	299,955	0,044	-0,060
-275,657	-200,000	0,022	0,136
-274,643	-200,000	-0,024	-0,087
-273,628	228,474	0,035	-0,042
-272,613	-200,000	0,003	-0,078
-271,599	-115,481	0,062	0,008
-270,584	332,078	0,076	0,108
-269,570	-73,598	0,154	0,041
-268,555	63,477	-0,110	-0,080
-267,540	-33,706	0,057	0,023
-266,526	-73,872	-0,172	-0,045
-265,511	-0,601	0,081	0,042
-264,497	-48,827	-0,113	0,040
-263,482	48,609	0,065	0,044
-262,467	-200,000	-0,014	0,142
-261,453	-55,608	0,091	0,030
-260,438	641,724	-0,046	0,086
-259,424	-87,284	0,042	-0,009
-258,409	242,353	-0,081	-0,100
-257,395	-200,000	0,008	0,074
-256,380	-200,000	-0,007	0,097
-255,365	-200,000	0,004	0,035
-254,351	-57,330	-0,094	0,030
-253,336	800,000	0,023	-0,060
-252,322	-200,000	0,001	-0,017
-251,307	-32,589	0,056	-0,023
-250,292	800,000	0,058	0,172
-249,278	20,240	-0,131	0,077
-248,263	800,000	0,014	-0,038
-247,249	768,070	-0,046	0,092
-246,234	357,096	-0,038	-0,056
-245,219	108,782	0,047	-0,041
-244,205	46,068	-0,111	0,075
-243,190	-63,432	-0,131	-0,039
-242,176	77,303	0,069	-0,054
-241,161	362,192	0,090	0,133
-240,146	181,856	-0,113	0,121
-239,132	-58,155	0,023	0,007
-238,117	-93,637	-0,098	-0,020
-237,103	48,614	-0,059	-0,040
-236,088	-157,790	0,002	0,000
-235,073	397,159	-0,045	0,068
-234,059	37,507	-0,063	0,041
-233,044	-200,000	-0,007	0,109
-232,030	345,337	0,058	-0,084
-231,015	-111,924	-0,030	-0,004
-230,000	-200,000	0,011	0,067
-228,986	-200,000	-0,001	0,071
-227,971	73,675	-0,104	0,080
-226,957	288,419	0,095	0,125
-225,942	-200,000	-0,032	0,126
-224,927	800,000	0,038	0,104
-223,913	-156,576	-0,102	0,005
-222,898	-128,946	-0,082	-0,008
-221,884	-110,541	-0,105	0,016
-220,869	20,128	0,102	0,060
-219,855	-10,976	0,133	0,064
-218,840	-13,381	-0,134	0,063
-217,825	-200,000	-0,001	0,130
-216,811	123,856	-0,015	0,013
-215,796	-58,826	0,030	0,009
-214,782	120,853	0,077	0,070
-213,767	45,060	0,014	0,009
-212,752	-73,453	0,098	-0,026
-211,738	257,380	0,027	0,034
-210,723	44,344	0,063	0,042
-209,709	-28,330	-0,108	-0,045
-208,694	-94,137	-0,092	0,018
-207,679	224,962	-0,107	0,127
-206,665	-200,000	-0,018	-0,082
-205,650	263,657	0,034	0,044
-204,636	407,385	-0,050	0,077
-203,621	-200,000	-0,011	0,240
-202,606	661,032	-0,079	0,149
-201,592	297,096	0,046	0,061
-200,577	-200,000	0,012	0,050
-199,563	-22,346	0,049	0,021
-198,548	385,811	-0,071	0,107
-197,533	248,115	0,075	-0,093
-196,519	-109,781	0,113	-0,017
-195,504	60,294	-0,126	-0,090
-194,490	800,000	0,036	-0,073
-193,475	-118,595	0,047	0,006
-192,460	-200,000	-0,002	-0,035
-191,446	800,000	0,050	-0,138
-190,431	124,309	-0,060	0,055
-189,417	800,000	-0,071	0,221
-188,402	5,315	-0,072	-0,038
-187,387	-200,000	-0,010	0,079
-186,373	48,139	0,039	0,027
-185,358	-121,083	0,062	-0,007
-184,344	-25,121	0,020	-0,009
-183,329	54,555	-0,035	0,025
-182,315	-14,761	0,040	0,018
-181,300	800,000	-0,023	-0,059
-180,285	151,232	0,017	0,017
-179,271	-65,162	-0,074	-0,022
-178,256	-142,185	-0,006	0,000
-177,242	-11,301	-0,066	0,032
-176,227	-200,000	0,003	0,098
-175,212	-126,493	0,042	-0,004
-174,198	-10,724	-0,090	-0,043
-173,183	-81,501	-0,138	-0,033
-172,169	117,809	0,044	0,040
-171,154	82,685	-0,121	-0,096
-170,139	800,000	-0,033	-0,082
-169,125	86,317	-0,114	0,091
-168,110	-15,633	0,099	-0,046
-167,096	800,000	-0,025	0,071
-166,081	333,299	-0,088	-0,124
-165,066	-200,000	0,015	-0,120
-164,052	-200,000	0,022	-0,073
-163,037	-200,000	-0,006	-0,092
-162,023	672,098	0,011	-0,022
-161,008	-200,000	-0,023	-0,075
-159,993	-200,000	0,001	0,054
-158,979	-48,238	-0,111	-0,039
-157,964	-200,000	0,000	0,090
-156,950	250,489	-0,089	0,110
-155,935	289,519	-0,059	-0,078
-154,920	-200,000	-0,020	-0,143
-153,906	-200,000	-0,006	-0,060
-152,891	246,086	0,014	-0,018
-151,877	-200,000	0,018	-0,130
-150,862	-200,000	0,001	-0,091
-149,847	238,196	-0,072	-0,087
-148,833	328,719	-0,038	0,054
-147,818	120,122	0,057	-0,051
-146,804	-200,000	-0,028	-0,093
-145,789	-81,070	-0,105	0,025
-144,775	-31,453	-0,041	0,017
-143,760	720,657	-0,032	-0,063
-142,745	-200,000	-0,001	-0,093
-141,731	800,000	-0,051	-0,138
-140,716	800,000	-0,021	-0,044
-139,702	9,286	-0,036	0,020
-138,687	-72,946	-0,132	0,035
-137,672	697,918	-0,059	-0,114
-136,658	-49,673	-0,057	0,020
-135,643	-25,408	0,029	0,013
-134,629	-200,000	-0,013	-0,111
-133,614	800,000	-0,031	0,090
-132,599	372,505	-0,080	0,119
-131,585	156,823	0,081	0,082
-130,570	-106,459	-0,116	-0,019
-129,556	800,000	-0,062	0,129
-128,541	-117,320	-0,010	0,001
-127,526	202,415	-0,054	-0,060
-126,512	-200,000	0,045	0,162
-125,497	-15,159	-0,045	-0,021
-124,483	-58,831	0,028	0,009
-123,468	119,288	0,021	-0,019
-122,453	-32,252	-0,232	0,094
-121,439	-54,099	0,125	0,041
-120,424	-200,000	0,045	-0,226
-119,410	800,000	0,072	-0,160
-118,395	91,504	0,049	-0,040
-117,380	-114,052	-0,027	0,004
-116,366	-200,000	0,001	-0,027
-115,351	15,999	-0,054	-0,031
-114,337	-97,159	-0,131	0,025
-113,322	218,829	-0,074	-0,086
-112,307	-200,000	-0,026	0,085
-111,293	-200,000	0,010	0,069
-110,278	-33,949	0,033	-0,013
-109,264	130,988	0,020	-0,019
-108,249	-160,813	0,112	-0,004
-107,234	-200,000	-0,011	0,094
-106,220	-200,000	-0,007	0,034
-105,205	631,533	0,042	0,077
-104,191	-55,071	0,066	0,021
-103,176	387,422	0,069	0,103
-102,162	-200,000	-0,000	0,110
-101,147	-200,000	0,027	0,142
-100,132	-200,000	-0,013	0,123
-99,118	-200,000	0,007	-0,063
-98,103	69,357	0,087	-0,065
-97,089	-82,584	0,046	-0,011
-96,074	800,000	0,054	0,111
-95,059	178,989	0,093	-0,098
-94,045	714,906	0,034	0,066
-93,030	4,515	-0,105	0,056
-92,016	-200,000	0,011	-0,114
-91,001	556,800	0,043	-0,076
-89,986	-200,000	-0,020	0,085
-88,972	304,250	-0,023	0,032
-87,957	800,000	0,064	-0,183
-86,943	149,137	-0,089	-0,087
-85,928	-129,019	0,048	-0,005
-84,913	-141,697	-0,043	-0,003
-83,899	-150,842	-0,104	0,006
-82,884	289,925	0,059	0,078
-81,870	784,101	-0,040	0,081
-80,855	-133,638	0,071	0,006
-79,840	422,250	-0,091	-0,142
-78,826	-49,971	0,067	-0,023
-77,811	-200,000	-0,013	0,059
-76,797	121,077	-0,038	0,034
-75,782	59,227	0,128	0,092
-74,767	-200,000	-0,024	0,079
-73,753	-8,724	0,100	0,048
-72,738	478,341	-0,025	-0,040
-71,724	-79,507	-0,158	0,038
-70,709	-98,770	0,129	-0,024
-69,694	54,738	-0,073	0,051
-68,680	36,066	-0,041	-0,026
-67,665	-103,016	0,172	-0,029
-66,651	800,000	-0,108	0,222
-65,636	-93,132	-0,078	-0,016
-64,622	800,000	0,019	0,041
-63,607	-15,765	-0,091	0,042
-62,592	-200,000	-0,034	-0,122
-61,578	-3,342	-0,041	-0,021
-60,563	200,667	-0,079	-0,088
-59,549	66,938	-0,065	0,048
-58,534	-85,727	-1,614	-0,360
-57,519	800,000	-0,768	-1,555
-56,505	-200,000	-0,858	-4,633
-55,490	-109,353	0,659	0,100
-54,476	800,000	4,959	11,879
-53,461	-200,000	15,327	270,446
-52,446	-200,000	696,198	2253,882
-51,432	589,589	1615,844	2897,846
-50,417	120,949	1624,289	1463,874
-49,403	82,585	1281,560	1007,480
-48,388	37,407	1022,275	655,228
-47,373	22,205	983,434	580,260
-46,359	21,217	972,318	570,434
-45,344	19,661	968,331	562,973
-44,330	19,835	966,603	562,517
-43,315	19,557	965,102	560,712
-42,300	19,501	964,221	559,994
-41,286	19,472	963,239	559,309
-40,271	19,511	962,203	558,813
-39,257	19,518	961,388	558,338
-38,242	19,460	960,570	557,653
-37,227	19,509	959,849	557,371
-36,213	19,448	958,971	556,641
-35,198	19,451	957,914	556,015
-34,184	19,546	957,181	555,875
-33,169	19,410	956,348	554,931
-32,154	19,443	955,347	554,434
-31,140	19,420	954,608	553,910
-30,125	19,509	953,633	553,609
-29,111	19,490	952,926	553,116
-28,096	19,482	952,236	552,667
-27,082	19,441	951,770	552,243
-26,067	19,441	950,795	551,654
-25,052	19,446	950,090	551,238
-24,038	19,493	949,421	550,980
-23,023	19,539	948,560	550,605
-22,009	19,446	948,101	550,020
-20,994	19,497	947,416	549,764
-19,979	19,467	946,791	549,285
-18,965	19,412	946,116	548,693
-17,950	19,434	945,679	548,488
-16,936	19,374	945,100	547,938
-15,921	19,347	944,363	547,405
-14,906	19,280	943,799	546,843
-13,892	19,292	943,137	546,474
-12,877	19,375	942,319	546,244
-11,863	19,289	941,670	545,572
-10,848	19,280	941,118	545,202
-9,833	19,458	940,733	545,522
-8,819	19,419	939,956	544,928
-7,804	19,356	939,373	544,366
-6,790	19,338	938,818	543,968
-5,775	19,387	938,305	543,805
-4,760	19,372	937,556	543,301
-3,746	19,357	936,933	542,871
-2,731	19,203	936,322	542,007
-1,717	19,125	935,575	541,306
-0,702	19,150	935,031	541,049
0,313	18,993	934,282	540,936
1,327	21,478	932,203	547,519
2,342	28,906	806,477	493,785
3,356	23,216	506,254	300,258
4,371	-1,093	373,747	190,679
5,386	-3,682	357,075	178,974
6,400	-4,883	351,283	174,601
7,415	-5,186	348,720	172,948
8,429	-5,345	347,373	172,073
9,444	-5,383	346,527	171,594
10,459	-5,264	345,710	171,315
11,473	-5,429	345,286	170,893
12,488	-5,224	344,478	170,723
13,502	-5,382	344,047	170,306
14,517	-5,290	343,628	170,192
15,531	-5,171	343,146	170,079
16,546	-5,201	342,752	169,834
17,561	-5,269	342,293	169,511
18,575	-5,120	341,926	169,489
19,590	-5,335	341,406	168,963
20,604	-5,162	341,007	168,954
21,619	-5,327	340,834	168,660
22,634	-5,365	340,467	168,418
23,648	-5,196	340,112	168,426
24,663	-4,985	339,712	168,460
25,677	-5,181	339,559	168,140
26,692	-5,151	339,083	167,925
27,707	-5,229	338,804	167,680
28,721	-5,251	338,503	167,490
29,736	-5,109	338,217	167,500
30,750	-5,300	338,008	167,158
31,765	-5,233	337,721	167,079
32,780	-5,218	337,401	166,924
33,794	-5,300	337,118	166,673
34,809	-5,159	336,845	166,687
35,823	-5,182	336,469	166,460
36,838	-5,188	336,212	166,311
37,853	-5,277	336,054	166,115
38,867	-5,183	335,662	166,015
39,882	-5,309	335,396	165,723
40,896	-5,195	335,143	165,714
41,911	-5,164	334,913	165,622
42,926	-5,170	334,644	165,467
43,940	-5,165	334,352	165,314
44,955	-5,212	334,077	165,109
45,969	-5,275	333,799	164,885
46,984	-5,225	333,622	164,840
47,999	-5,143	333,306	164,763
49,013	-5,104	333,117	164,699
50,028	-5,101	332,920	164,591
51,042	-5,155	332,552	164,333
52,057	-5,126	332,260	164,207
53,071	-5,178	331,976	163,992
54,086	-5,221	331,777	163,830
55,101	-5,241	331,536	163,675
56,115	-5,246	331,374	163,575
57,130	-5,146	330,982	163,479
58,144	-5,173	330,649	163,270
59,159	-5,263	330,505	163,081
60,174	-5,045	330,014	163,073
61,188	-5,239	329,841	162,753
62,203	-5,264	329,650	162,616
63,217	-5,223	329,378	162,513
64,232	-5,248	329,094	162,330
65,247	-5,204	328,947	162,293
66,261	-5,135	328,733	162,250
67,276	-5,202	328,452	162,022
68,290	-5,197	328,061	161,820
69,305	-5,110	327,982	161,864
70,320	-5,146	327,619	161,631
71,334	-5,099	327,440	161,581
72,349	-5,182	327,216	161,363
73,363	-5,182	326,831	161,159
74,378	-5,174	326,475	160,978
75,393	-5,193	326,328	160,869
76,407	-5,242	326,136	160,705
77,422	-5,157	325,756	160,599
78,436	-5,197	325,629	160,477
79,451	-5,188	325,331	160,326
80,466	-5,084	325,017	160,272
81,480	-5,185	324,845	160,061
82,495	-5,283	324,673	159,854
83,509	-5,144	324,382	159,851
84,524	-5,175	324,255	159,739
85,539	-5,104	323,872	159,615
86,553	-5,137	323,506	159,384
87,568	-5,198	323,295	159,198
88,582	-5,226	323,175	159,094
89,597	-5,063	322,786	159,069
90,611	-5,217	322,711	158,847
91,626	-5,217	322,459	158,709
92,641	-5,183	322,212	158,611
93,655	-5,200	321,966	158,457
94,670	-5,109	321,631	158,377
95,684	-4,970	321,543	158,473
96,699	-5,173	321,346	158,138
97,714	-5,166	321,020	157,972
98,728	-5,328	321,051	157,795
99,743	-5,114	320,614	157,801
100,757	-5,089	320,120	157,571
101,772	-5,154	320,088	157,470
102,787	-5,109	319,840	157,383
103,801	-5,151	319,715	157,262
104,816	-4,953	319,292	157,256
105,830	-5,212	319,279	156,953
106,845	-5,202	318,854	156,741
107,860	-5,070	318,777	156,833
108,874	-5,204	318,506	156,539
109,889	-5,082	318,240	156,528
110,903	-5,074	317,926	156,369
111,918	-5,181	317,793	156,173
112,933	-5,090	317,567	156,146
113,947	-5,148	317,368	155,971
114,962	-5,051	317,052	155,907
115,976	-5,104	316,877	155,750
116,991	-5,169	316,660	155,560
118,006	-5,163	316,495	155,471
119,020	-5,219	316,377	155,339
120,035	-5,233	316,187	155,217
121,049	-5,145	315,979	155,195
122,064	-5,152	315,679	155,027
123,079	-5,168	315,485	154,901
124,093	-5,200	315,173	154,699
125,108	-5,228	315,003	154,571
126,122	-5,094	314,785	154,594
127,137	-5,153	314,537	154,396
128,151	-5,159	314,202	154,211
129,166	-4,933	314,046	154,363
130,181	-5,017	313,846	154,160
131,195	-5,079	313,559	153,940
132,210	-5,150	313,220	153,684
133,224	-5,222	313,152	153,560
134,239	-4,983	312,852	153,654
135,254	-5,063	312,625	153,443
136,268	-5,082	312,339	153,269
137,283	-5,041	312,099	153,181
138,297	-5,196	311,921	152,915
139,312	-5,143	311,701	152,851
140,327	-5,106	311,354	152,706
141,341	-4,939	311,223	152,806
142,356	-4,940	311,108	152,734
143,370	-5,115	310,766	152,368
144,385	-5,146	310,672	152,275
145,400	-5,160	310,438	152,132
146,414	-5,020	310,203	152,151
147,429	-5,220	309,982	151,817
148,443	-5,006	309,637	151,861
149,458	-5,054	309,454	151,707
150,473	-5,120	309,341	151,569
151,487	-5,173	309,239	151,449
152,502	-5,044	308,806	151,360
153,516	-4,959	308,493	151,282
154,531	-5,063	308,411	151,119
155,546	-4,914	308,004	151,062
156,560	-5,205	308,056	150,769
157,575	-5,104	307,720	150,697
158,589	-5,009	307,507	150,678
159,604	-5,228	307,411	150,389
160,619	-5,087	307,181	150,411
161,633	-5,156	307,020	150,247
162,648	-5,154	306,687	150,072
163,662	-5,027	306,425	150,062
164,677	-5,069	306,337	149,962
165,692	-5,191	306,121	149,717
166,706	-5,005	305,892	149,784
167,721	-4,920	305,627	149,730
168,735	-4,959	305,562	149,644
169,750	-5,085	305,346	149,394
170,764	-5,100	305,133	149,262
171,779	-5,050	305,138	149,302
172,794	-5,065	304,776	149,096
173,808	-5,137	304,687	148,964
174,823	-5,022	304,290	148,876
175,837	-4,982	304,067	148,795
176,852	-5,189	303,943	148,507
177,867	-4,983	303,819	148,646
178,881	-5,092	303,542	148,384
179,896	-4,997	303,373	148,387
180,910	-5,032	302,890	148,101
181,925	-4,987	302,771	148,076
182,940	-5,053	302,614	147,918
183,954	-5,061	302,598	147,889
184,969	-4,950	302,208	147,799
185,983	-4,985	302,164	147,729
186,998	-5,154	301,858	147,393
188,013	-5,127	301,739	147,349
189,027	-5,013	301,469	147,321
190,042	-5,051	301,160	147,117
191,056	-5,040	301,142	147,108
192,071	-4,916	300,786	147,047
193,086	-4,903	300,448	146,882
194,100	-5,055	300,406	146,693
195,115	-5,047	300,112	146,545
196,129	-5,094	300,020	146,438
197,144	-5,029	299,723	146,347
198,159	-4,931	299,402	146,276
199,173	-5,052	299,316	146,098
200,188	-5,014	298,954	145,948
201,202	-4,986	298,789	145,882
202,217	-4,970	298,683	145,834
203,232	-5,047	298,523	145,665
204,246	-5,080	298,240	145,481
205,261	-5,121	298,104	145,360
206,275	-5,031	297,807	145,292
207,290	-4,952	297,783	145,348
208,304	-5,087	297,425	145,024
209,319	-5,032	297,208	144,960
210,334	-5,083	297,141	144,864
211,348	-5,023	296,811	144,750
212,363	-5,001	296,633	144,673
213,377	-4,952	296,439	144,614
214,392	-5,038	296,250	144,423
215,407	-5,139	295,980	144,176
216,421	-4,957	295,751	144,234
217,436	-4,962	295,636	144,161
218,450	-5,123	295,569	143,954
219,465	-5,105	295,276	143,817
220,480	-4,930	295,002	143,845
221,494	-4,952	294,900	143,761
222,509	-5,011	294,689	143,586
223,523	-4,928	294,442	143,536
224,538	-4,940	294,299	143,441
225,553	-5,011	294,056	143,239
226,567	-5,064	293,997	143,145
227,582	-4,953	293,685	143,090
228,596	-5,104	293,613	142,893
229,611	-4,855	293,289	142,970
230,626	-4,920	293,064	142,782
231,640	-4,947	292,943	142,684
232,655	-4,799	292,626	142,663
233,669	-4,912	292,582	142,517
234,684	-5,042	292,418	142,297
235,699	-4,987	292,180	142,223
236,713	-4,882	292,035	142,243
237,728	-4,929	291,796	142,067
238,742	-4,867	291,558	142,000
239,757	-5,061	291,416	141,727
240,772	-4,959	291,231	141,725
241,786	-4,951	290,977	141,596
242,801	-5,002	290,795	141,445
243,815	-4,977	290,631	141,377
244,830	-4,973	290,448	141,280
245,844	-4,974	290,295	141,192
246,859	-4,936	290,064	141,104
247,874	-5,060	289,962	140,920
248,888	-5,151	289,642	140,663
249,903	-4,888	289,367	140,775
250,917	-5,132	289,309	140,495
251,932	-5,134	289,134	140,396
252,947	-5,010	288,832	140,357
253,961	-5,242	288,491	139,954
254,976	-5,437	288,264	139,641
255,990	-5,071	288,275	139,989
257,005	-3,651	288,721	141,576
258,020	-1,438	289,536	144,121
259,034	-0,022	289,860	145,650
260,049	0,311	289,904	145,984
261,063	0,709	289,910	146,362
262,078	1,145	289,752	146,693
263,093	1,475	289,627	146,937
264,107	1,594	289,555	147,003
265,122	1,698	289,599	147,114
266,136	1,838	289,353	147,112
267,151	1,872	289,267	147,088
268,166	2,018	288,781	146,969
269,180	1,901	288,763	146,833
270,195	2,049	288,462	146,811
271,209	1,796	288,330	146,485
272,224	1,769	288,154	146,357
273,239	1,755	288,154	146,330
274,253	1,791	287,850	146,198
275,268	1,719	287,680	146,029
276,282	1,757	287,555	145,989
277,297	1,780	287,076	145,755
278,312	1,810	287,007	145,736
279,326	1,771	286,898	145,630
280,341	1,808	286,737	145,570
281,355	1,843	286,494	145,469
282,370	1,809	286,345	145,347
283,384	1,786	286,011	145,143
284,399	1,855	285,970	145,175
285,414	1,668	285,772	144,883
286,428	1,762	285,491	144,817
287,443	1,773	285,343	144,739
288,457	1,664	285,225	144,562
289,472	1,687	284,998	144,456
290,487	1,665	284,704	144,273
291,501	1,587	284,452	144,059
292,516	1,638	284,461	144,099
293,530	1,721	284,374	144,121
294,545	1,627	284,051	143,855
295,560	1,719	283,841	143,823
296,574	1,600	283,646	143,599
297,589	1,637	283,544	143,569
298,603	1,593	283,258	143,370
299,618	1,477	283,197	143,216
300,633	1,518	282,958	143,121
301,647	1,650	282,837	143,173
302,662	1,555	282,520	142,910
303,676	1,787	282,383	143,047
304,691	1,694	282,222	142,865
305,706	1,941	281,986	142,965
306,720	1,759	281,755	142,664
307,735	1,729	281,727	142,609
308,749	1,860	281,512	142,610
309,764	1,713	281,334	142,369
310,779	1,859	281,012	142,331
311,793	1,820	280,979	142,265
312,808	1,875	280,679	142,152
313,822	1,792	280,734	142,089
314,837	1,791	280,461	141,938
315,852	1,715	280,197	141,720
316,866	1,792	280,035	141,697
317,881	1,773	279,892	141,595
318,895	1,629	279,669	141,335
319,910	1,619	279,490	141,223
320,925	1,593	279,370	141,125
321,939	1,774	279,069	141,129
322,954	1,701	278,981	141,004
323,968	1,906	278,861	141,121
324,983	1,802	278,643	140,902
325,997	1,882	278,463	140,872
327,012	1,980	278,271	140,853
328,027	1,856	278,163	140,671
329,041	1,926	277,981	140,632
330,056	1,925	277,793	140,524
331,070	1,795	277,656	140,321
332,085	1,817	277,428	140,214
333,100	1,839	277,231	140,122
334,114	1,966	276,899	140,059
335,129	1,679	276,832	139,748
336,143	1,766	276,705	139,751
337,158	1,840	276,545	139,726
338,173	1,893	276,416	139,697
339,187	1,838	276,324	139,587
340,202	1,835	275,911	139,364
341,216	1,871	275,812	139,335
342,231	1,758	275,547	139,084
343,246	1,976	275,471	139,234
344,260	1,990	275,262	139,129
345,275	1,848	275,292	139,001
346,289	1,913	275,069	138,936
347,304	2,037	274,742	138,871
348,319	2,015	274,592	138,764
349,333	1,991	274,423	138,644
350,348	1,785	274,274	138,368
351,362	1,749	274,123	138,246
352,377	1,930	273,863	138,268
353,392	1,891	273,796	138,186
354,406	1,919	273,624	138,113
355,421	192,080	1348,055	1428,573
356,435	155,135	1479,017	1428,667
