DTS Sentinel unit serial number:	SN410029Multiplexer serial number:	ORYXHardware model number:	OX2-SRSoftware version number:	ORYX F/W v4,00 Oryx Data Collector v3.7.2.0data status	okinstallation	B4 Nyhavnadifferential loss correction	single-endedforward channel	channel 2reverse channel	N/Adate	2023/12/15time	16:35:13forward acquisition time	300,00reverse acquisition time	0,00gamma	499,1914k internal	0,3145k external	0,3145temperature offset calibration	1,0000default loss term (dB/km)	0,3820temperature slope calibration	1,0000multiplexer offset coefficient	1,0000multiplexer slope coefficient	1,0000fibre end	0,00T internal ref (°C)	17,57T ext. ref 1 (°C)	3,52T ext. ref 2 (°C)	3,67length (m)	temperature (°C)	Stokes	anti-Stokes-744,400	174,642	0,161	0,173
-743,385	-114,103	-0,295	0,042
-742,371	324,951	0,054	0,076
-741,356	-149,849	-0,330	0,019
-740,342	-14,018	0,144	-0,068
-739,327	-55,292	-0,170	0,056
-738,312	800,000	0,048	-0,131
-737,298	-156,854	-0,318	0,014
-736,283	195,774	0,156	-0,176
-735,269	-177,693	-0,232	-0,004
-734,254	800,000	-0,024	0,073
-733,239	-124,897	-0,491	-0,055
-732,225	800,000	0,027	0,066
-731,210	619,250	0,047	0,087
-730,196	-143,081	0,057	-0,004
-729,181	-182,679	0,028	0,000
-728,167	71,441	-0,067	-0,051
-727,152	142,888	-0,075	-0,074
-726,137	800,000	0,048	0,136
-725,123	136,322	-0,121	-0,117
-724,108	191,144	-0,111	-0,123
-723,094	9,973	-0,154	-0,086
-722,079	-19,738	-0,050	-0,023
-721,064	27,849	-0,113	0,071
-720,050	-1,707	0,067	0,035
-719,035	-106,824	-0,122	0,020
-718,021	362,615	-0,030	-0,044
-717,006	800,000	-0,056	-0,116
-715,991	-200,000	-0,006	-0,132
-714,977	384,125	-0,031	0,047
-713,962	800,000	0,004	-0,010
-712,948	800,000	0,061	-0,129
-711,933	-21,003	0,027	0,012
-710,918	-75,145	-0,066	0,017
-709,904	117,379	-0,063	-0,057
-708,889	19,431	-0,114	0,068
-707,875	615,499	-0,070	0,131
-706,860	-55,254	-0,126	-0,042
-705,845	-111,066	-0,040	-0,006
-704,831	28,002	-0,035	0,022
-703,816	-48,002	0,057	-0,020
-702,802	-95,937	-0,097	-0,019
-701,787	218,246	-0,114	-0,135
-700,772	-31,902	0,020	-0,008
-699,758	95,132	-0,055	-0,046
-698,743	138,699	0,074	0,072
-697,729	84,627	0,038	0,031
-696,714	133,585	0,007	0,007
-695,699	-37,744	0,003	-0,001
-694,685	200,740	-0,037	-0,042
-693,670	196,307	-0,097	-0,109
-692,656	147,582	0,075	-0,075
-691,641	-90,060	-0,101	-0,021
-690,627	-15,212	0,045	-0,021
-689,612	54,626	-0,045	-0,032
-688,597	325,685	0,031	0,044
-687,583	800,000	0,047	-0,121
-686,568	195,233	-0,088	-0,099
-685,554	619,564	0,032	0,060
-684,539	-200,000	-0,009	-0,063
-683,524	387,681	-0,055	-0,085
-682,510	-44,854	0,164	-0,060
-681,495	800,000	-0,020	0,059
-680,481	144,696	0,051	0,050
-679,466	-90,439	-0,067	-0,014
-678,451	-200,000	0,013	-0,052
-677,437	280,499	-0,068	-0,089
-676,422	370,876	-0,037	-0,056
-675,408	-200,000	0,012	-0,049
-674,393	-131,347	-0,024	-0,002
-673,378	800,000	0,064	-0,145
-672,364	-104,802	-0,090	-0,015
-671,349	-32,530	-0,115	0,047
-670,335	800,000	0,015	-0,031
-669,320	-123,863	-0,028	0,003
-668,305	800,000	0,019	-0,057
-667,291	-13,570	0,071	0,034
-666,276	316,044	-0,077	-0,107
-665,262	43,832	-0,065	-0,044
-664,247	-147,643	-0,125	0,008
-663,232	800,000	0,043	-0,112
-662,218	352,346	-0,047	0,069
-661,203	52,799	-0,058	-0,041
-660,189	49,795	-0,072	-0,050
-659,174	800,000	0,050	0,160
-658,159	-62,090	-0,149	0,046
-657,145	83,436	0,050	-0,040
-656,130	-70,579	-0,013	0,004
-655,116	320,808	0,071	0,100
-654,101	-78,730	-0,097	-0,024
-653,086	9,844	-0,073	0,041
-652,072	-11,180	-0,184	0,089
-651,057	-63,198	-0,167	-0,051
-650,043	-117,017	-0,058	-0,008
-649,028	-200,000	-0,018	0,064
-648,014	-49,079	-0,059	0,021
-646,999	-49,918	-0,108	-0,038
-645,984	800,000	0,050	-0,106
-644,970	589,292	-0,040	0,073
-643,955	-29,158	-0,094	0,040
-642,941	217,845	-0,053	-0,062
-641,926	-108,586	-0,166	0,026
-640,911	-142,523	-0,118	0,008
-639,897	-99,669	-0,046	0,008
-638,882	-78,998	-0,125	0,031
-637,868	38,822	-0,112	-0,073
-636,853	-158,042	-0,129	-0,005
-635,838	-200,000	-0,030	-0,225
-634,824	333,885	0,053	0,075
-633,809	-136,511	-0,042	0,004
-632,795	-67,108	0,067	-0,019
-631,780	132,091	-0,062	-0,059
-630,765	-73,250	-0,107	-0,029
-629,751	483,614	0,088	-0,148
-628,736	39,943	-0,054	0,035
-627,722	249,179	-0,054	0,067
-626,707	-42,425	-0,119	-0,044
-625,692	394,326	0,052	0,080
-624,678	-36,746	-0,090	-0,035
-623,663	-151,185	0,118	0,006
-622,649	391,246	0,011	0,017
-621,634	1,550	0,084	0,044
-620,619	800,000	-0,014	-0,040
-619,605	139,500	-0,023	0,022
-618,590	-200,000	0,025	-0,123
-617,576	243,635	0,087	-0,108
-616,561	396,027	-0,104	-0,160
-615,546	800,000	-0,029	0,064
-614,532	103,314	-0,092	-0,080
-613,517	-200,000	0,022	0,097
-612,503	-52,345	-0,107	-0,036
-611,488	746,993	0,039	0,078
-610,474	-200,000	0,007	0,104
-609,459	264,593	-0,043	0,056
-608,444	183,120	-0,014	0,015
-607,430	-57,724	-0,090	0,029
-606,415	-200,000	-0,036	-0,119
-605,401	25,590	-0,114	0,070
-604,386	177,727	0,078	-0,083
-603,371	514,994	-0,047	0,081
-602,357	-200,000	0,039	-0,202
-601,342	-113,502	-0,085	-0,012
-600,328	800,000	-0,076	-0,179
-599,313	33,269	-0,018	-0,011
-598,298	-15,650	-0,145	-0,068
-597,284	-48,640	0,106	-0,037
-596,269	-119,874	0,068	-0,009
-595,255	71,217	0,063	0,048
-594,240	800,000	-0,043	-0,098
-593,225	71,008	-0,078	-0,059
-592,211	522,632	0,017	0,030
-591,196	57,447	-0,056	-0,040
-590,182	46,566	-0,036	0,024
-589,167	403,229	0,075	0,116
-588,152	-200,000	0,026	-0,100
-587,138	800,000	-0,042	0,107
-586,123	-200,000	0,009	-0,043
-585,109	177,350	-0,035	0,038
-584,094	31,265	-0,068	-0,043
-583,079	419,207	0,024	-0,039
-582,065	800,000	0,061	0,150
-581,050	-200,000	-0,027	0,094
-580,036	33,609	0,063	-0,040
-579,021	-101,048	0,014	-0,002
-578,006	-200,000	0,008	-0,042
-576,992	181,051	-0,085	-0,093
-575,977	-12,474	0,139	0,066
-574,963	-88,288	0,185	-0,040
-573,948	17,491	-0,159	0,093
-572,934	105,810	0,060	-0,052
-571,919	-124,084	-0,079	0,009
-570,904	800,000	0,031	-0,094
-569,890	238,794	0,049	0,060
-568,875	-25,424	0,040	0,017
-567,861	61,047	0,051	-0,037
-566,846	-26,180	0,161	0,069
-565,831	11,680	0,088	-0,050
-564,817	-200,000	0,019	-0,084
-563,802	555,979	-0,054	-0,096
-562,788	324,636	-0,025	-0,035
-561,773	98,000	0,114	0,096
-560,758	-28,466	0,107	-0,045
-559,744	-200,000	-0,020	-0,066
-558,729	314,033	-0,112	0,156
-557,715	445,749	0,028	-0,045
-556,700	-6,638	0,020	0,010
-555,685	800,000	0,028	0,057
-554,671	191,906	-0,127	0,141
-553,656	-13,903	-0,067	0,032
-552,642	800,000	0,056	0,119
-551,627	-101,947	-0,153	0,027
-550,612	-178,539	0,100	0,002
-549,598	-200,000	0,000	-0,047
-548,583	157,166	-0,019	-0,019
-547,569	-8,463	-0,026	-0,013
-546,554	116,824	0,044	-0,039
-545,539	125,939	-0,060	0,055
-544,525	-200,000	0,006	0,027
-543,510	800,000	-0,054	0,138
-542,496	22,495	-0,131	-0,079
-541,481	367,541	0,055	-0,082
-540,466	562,520	0,083	-0,148
-539,452	-200,000	0,014	0,067
-538,437	44,657	0,123	0,083
-537,423	800,000	-0,044	0,109
-536,408	-57,564	-0,073	-0,023
-535,393	237,222	-0,037	-0,045
-534,379	800,000	0,064	-0,136
-533,364	800,000	0,057	-0,133
-532,350	-200,000	-0,001	0,047
-531,335	39,540	-0,091	0,060
-530,321	100,030	-0,026	-0,022
-529,306	800,000	0,031	0,069
-528,291	-75,964	-0,134	-0,035
-527,277	446,285	-0,035	-0,057
-526,262	-23,548	0,096	-0,042
-525,248	309,493	0,034	0,047
-524,233	168,565	0,136	0,143
-523,218	-20,262	-0,022	0,010
-522,204	98,653	-0,081	-0,068
-521,189	-31,025	-0,213	-0,088
-520,175	-13,253	0,097	-0,046
-519,160	-30,717	-0,070	0,029
-518,145	800,000	0,026	-0,057
-517,131	800,000	-0,037	0,114
-516,116	-47,587	0,016	-0,006
-515,102	20,308	-0,035	-0,021
-514,087	93,286	-0,055	0,046
-513,072	344,930	-0,055	0,079
-512,058	665,385	0,037	-0,070
-511,043	388,577	0,025	0,039
-510,029	103,087	0,053	-0,045
-509,014	-161,841	0,032	-0,001
-507,999	215,872	0,056	0,066
-506,985	-200,000	0,004	0,048
-505,970	84,616	0,030	-0,024
-504,956	644,337	-0,019	-0,036
-503,941	-200,000	-0,027	-0,097
-502,926	463,181	0,038	0,062
-501,912	-159,176	0,102	0,004
-500,897	-20,809	-0,016	0,007
-499,883	-200,000	-0,027	0,136
-498,868	-87,446	-0,173	0,038
-497,853	800,000	0,026	-0,053
-496,839	-84,679	-0,039	-0,009
-495,824	-35,423	-0,093	0,037
-494,810	800,000	-0,015	0,041
-493,795	724,250	-0,025	-0,049
-492,781	179,612	0,053	-0,057
-491,766	800,000	-0,054	-0,116
-490,751	-200,000	-0,024	-0,102
-489,737	239,074	-0,076	-0,093
-488,722	-6,947	-0,096	-0,048
-487,708	-17,175	-0,079	0,036
-486,693	-200,000	0,000	0,049
-485,678	800,000	-0,006	-0,015
-484,664	38,879	-0,173	-0,113
-483,649	-200,000	-0,017	-0,115
-482,635	544,211	0,026	0,046
-481,620	800,000	0,030	0,067
-480,605	-35,165	0,116	0,046
-479,591	127,926	-0,042	0,039
-478,576	-200,000	0,006	0,027
-477,562	-200,000	0,019	-0,165
-476,547	-200,000	0,012	-0,094
-475,532	800,000	0,012	-0,032
-474,518	101,727	0,041	-0,035
-473,503	223,323	0,074	0,088
-472,489	7,749	0,080	0,044
-471,474	151,542	-0,078	0,078
-470,459	-29,938	0,032	0,013
-469,445	-97,333	-0,061	-0,012
-468,430	-200,000	0,045	0,222
-467,416	6,267	0,040	-0,022
-466,401	-200,000	0,009	-0,142
-465,386	285,972	0,089	-0,117
-464,372	41,098	0,052	-0,034
-463,357	-1,995	-0,022	0,011
-462,343	-200,000	-0,038	0,193
-461,328	-20,571	-0,072	0,032
-460,313	-200,000	-0,027	-0,134
-459,299	654,465	-0,011	-0,021
-458,284	-200,000	0,054	0,223
-457,270	273,682	0,005	-0,006
-456,255	-166,943	-0,161	-0,005
-455,241	296,143	-0,060	-0,081
-454,226	235,726	-0,027	0,033
-453,211	253,760	0,050	0,063
-452,197	18,981	0,102	0,060
-451,182	800,000	0,001	-0,004
-450,168	173,789	-0,080	0,084
-449,153	117,598	0,064	0,058
-448,138	362,979	-0,017	-0,025
-447,124	-145,440	0,039	0,003
-446,109	800,000	-0,008	-0,026
-445,095	93,092	-0,051	0,042
-444,080	-5,976	0,135	0,068
-443,065	800,000	-0,042	0,108
-442,051	467,233	0,043	0,071
-441,036	581,856	-0,057	0,103
-440,022	330,879	0,133	-0,188
-439,007	-66,949	0,200	0,057
-437,992	50,088	0,056	0,039
-436,978	-28,363	0,175	-0,073
-435,963	196,982	0,056	-0,062
-434,949	236,364	0,010	-0,012
-433,934	-112,000	0,098	-0,014
-432,919	800,000	-0,018	-0,056
-431,905	91,717	-0,108	0,089
-430,890	-200,000	0,014	-0,085
-429,876	-200,000	0,005	-0,113
-428,861	800,000	0,052	0,153
-427,846	137,045	0,036	-0,034
-426,832	-200,000	0,015	-0,068
-425,817	-129,896	-0,168	0,017
-424,803	611,009	-0,085	-0,156
-423,788	-200,000	-0,026	-0,088
-422,773	-200,000	0,006	0,043
-421,759	-147,664	0,095	-0,006
-420,744	-200,000	0,017	0,113
-419,730	800,000	0,034	-0,091
-418,715	232,853	-0,076	-0,092
-417,701	623,906	-0,030	0,056
-416,686	-200,000	-0,000	0,219
-415,671	-123,356	0,119	-0,014
-414,657	158,752	-0,019	0,019
-413,642	-200,000	-0,112	-0,000
-412,628	-44,471	0,043	0,015
-411,613	183,650	-0,076	-0,082
-410,598	289,332	0,042	-0,055
-409,584	800,000	-0,014	0,033
-408,569	-95,411	0,119	0,023
-407,555	143,930	0,028	-0,027
-406,540	-200,000	0,010	-0,092
-405,525	216,671	0,018	-0,021
-404,511	258,654	-0,099	-0,125
-403,496	-82,801	0,115	0,027
-402,482	-25,676	-0,122	0,052
-401,467	-40,446	0,078	0,029
-400,452	-22,689	0,118	0,052
-399,438	-121,919	-0,050	0,006
-398,423	-200,000	0,009	-0,123
-397,409	-200,000	0,001	0,019
-396,394	217,083	-0,066	0,077
-395,379	-200,000	-0,014	-0,188
-394,365	-200,000	-0,013	-0,099
-393,350	450,952	0,018	-0,029
-392,336	543,058	-0,019	0,033
-391,321	-200,000	-0,002	-0,117
-390,306	-200,000	-0,003	-0,024
-389,292	-18,332	0,132	0,060
-388,277	800,000	-0,039	-0,106
-387,263	-103,835	-0,031	0,005
-386,248	800,000	0,065	0,141
-385,233	296,673	0,055	0,074
-384,219	10,932	0,023	0,013
-383,204	470,774	-0,061	-0,100
-382,190	-200,000	-0,011	-0,087
-381,175	-120,494	0,025	0,003
-380,160	-200,000	0,003	-0,072
-379,146	-200,000	-0,002	-0,078
-378,131	-200,000	0,005	0,093
-377,117	182,427	-0,047	-0,050
-376,102	244,214	-0,062	-0,076
-375,088	800,000	-0,021	-0,066
-374,073	59,387	0,054	0,038
-373,058	-34,640	0,131	0,052
-372,044	154,841	0,032	0,032
-371,029	55,083	-0,016	-0,011
-370,015	190,764	0,081	0,089
-369,000	667,583	0,012	0,023
-367,985	800,000	0,017	0,054
-366,971	143,824	0,042	-0,041
-365,956	361,524	0,054	-0,079
-364,942	-55,772	0,073	-0,024
-363,927	364,820	-0,065	0,096
-362,912	203,328	-0,070	-0,079
-361,898	-54,053	0,081	-0,027
-360,883	-2,097	-0,027	-0,014
-359,869	-200,000	-0,002	0,037
-358,854	658,336	0,020	0,038
-357,839	800,000	-0,007	-0,019
-356,825	176,509	0,031	0,033
-355,810	-55,593	-0,116	0,038
-354,796	77,100	-0,007	0,006
-353,781	151,292	-0,032	-0,032
-352,766	-117,189	0,017	-0,002
-351,752	800,000	0,013	0,040
-350,737	-57,810	-0,012	0,004
-349,723	-200,000	-0,023	0,087
-348,708	107,914	0,077	0,067
-347,693	277,559	-0,044	-0,058
-346,679	-200,000	-0,007	-0,068
-345,664	124,891	0,061	-0,056
-344,650	-200,000	0,026	-0,137
-343,635	-200,000	-0,022	-0,110
-342,620	-200,000	-0,010	0,060
-341,606	130,859	0,038	-0,036
-340,591	800,000	0,037	-0,107
-339,577	157,316	-0,047	-0,048
-338,562	-200,000	0,016	0,090
-337,548	-41,105	-0,160	0,060
-336,533	315,188	0,121	0,167
-335,518	-200,000	-0,006	0,024
-334,504	246,867	-0,023	0,028
-333,489	36,167	-0,098	0,063
-332,475	800,000	-0,027	0,082
-331,460	-113,918	0,081	-0,011
-330,445	-15,612	0,053	-0,025
-329,431	572,522	0,056	-0,099
-328,416	187,699	0,079	0,086
-327,402	-32,613	-0,092	-0,037
-326,387	-107,110	-0,098	-0,016
-325,372	354,303	0,084	-0,122
-324,358	37,942	-0,136	-0,088
-323,343	-96,513	-0,113	-0,022
-322,329	-75,489	0,037	0,010
-321,314	563,138	0,074	0,132
-320,299	103,547	0,095	0,081
-319,285	85,252	0,121	0,097
-318,270	-200,000	0,025	-0,084
-317,256	-177,638	-0,078	0,001
-316,241	-142,346	-0,093	0,007
-315,226	-172,160	0,115	0,003
-314,212	372,809	0,017	0,025
-313,197	-84,246	0,161	0,037
-312,183	-200,000	-0,007	0,029
-311,168	111,284	-0,025	0,022
-310,153	-83,547	-0,072	-0,017
-309,139	-200,000	-0,016	0,065
-308,124	-55,072	-0,123	-0,040
-307,110	62,206	0,080	0,058
-306,095	-76,302	0,134	-0,034
-305,080	240,522	-0,051	0,062
-304,066	182,794	-0,034	-0,036
-303,051	-63,917	-0,028	-0,008
-302,037	-14,606	-0,048	0,022
-301,022	-81,861	0,087	-0,021
-300,008	-139,747	0,165	0,013
-298,993	11,029	0,024	0,013
-297,978	-34,706	0,070	-0,028
-296,964	104,876	0,023	0,020
-295,949	336,577	-0,067	-0,095
-294,935	-200,000	-0,011	0,065
-293,920	36,369	0,087	-0,056
-292,905	10,882	0,007	0,004
-291,891	-200,000	-0,047	0,222
-290,876	-63,585	0,107	-0,032
-289,862	119,878	0,033	0,030
-288,847	-200,000	0,016	0,058
-287,832	800,000	0,017	-0,035
-286,818	-200,000	-0,012	0,081
-285,803	-115,262	0,145	0,020
-284,789	-24,011	0,138	-0,060
-283,774	245,395	-0,046	-0,057
-282,759	89,596	-0,079	0,064
-281,745	-101,243	-0,118	-0,021
-280,730	800,000	-0,061	-0,134
-279,716	-200,000	0,011	0,078
-278,701	14,167	0,111	-0,063
-277,686	676,031	-0,073	-0,138
-276,672	311,085	-0,074	-0,100
-275,657	154,141	0,075	-0,075
-274,643	-175,822	-0,111	-0,002
-273,628	-164,464	0,069	-0,002
-272,613	213,229	-0,079	-0,091
-271,599	205,081	-0,070	0,079
-270,584	189,877	0,059	0,064
-269,570	139,747	-0,093	0,089
-268,555	128,755	-0,083	0,077
-267,540	187,566	-0,065	0,070
-266,526	124,829	0,090	-0,083
-265,511	25,976	-0,041	0,025
-264,497	385,647	0,058	-0,088
-263,482	-200,000	-0,020	0,063
-262,467	800,000	0,062	0,188
-261,453	-200,000	-0,036	0,165
-260,438	-27,505	0,088	0,037
-259,424	60,421	0,092	-0,066
-258,409	-200,000	-0,006	-0,090
-257,395	-200,000	0,003	-0,017
-256,380	800,000	0,010	-0,029
-255,365	-200,000	0,012	0,129
-254,351	-143,427	-0,017	-0,001
-253,336	-200,000	0,001	-0,140
-252,322	-200,000	-0,024	0,104
-251,307	-200,000	-0,001	-0,050
-250,292	-200,000	-0,026	0,096
-249,278	254,799	-0,064	0,079
-248,263	-200,000	0,004	0,093
-247,249	30,747	0,055	0,034
-246,234	-101,567	-0,047	0,008
-245,219	130,539	-0,139	-0,129
-244,205	-44,046	-0,070	-0,025
-243,190	-88,590	-0,042	0,009
-242,176	718,615	-0,027	0,053
-241,161	-85,097	0,071	0,016
-240,146	230,044	0,014	-0,016
-239,132	800,000	-0,024	-0,065
-238,117	800,000	-0,070	-0,197
-237,103	222,764	0,058	-0,068
-236,088	-184,749	-0,072	-0,001
-235,073	-1,094	0,065	0,033
-234,059	-99,881	-0,110	-0,020
-233,044	55,629	0,028	-0,020
-232,030	-93,850	-0,029	-0,006
-231,015	373,368	0,111	-0,164
-230,000	50,799	-0,157	0,108
-228,986	-118,689	-0,042	-0,005
-227,971	398,909	-0,041	-0,062
-226,957	-31,332	0,161	0,066
-225,942	-200,000	-0,013	0,083
-224,927	-200,000	0,027	0,097
-223,913	-200,000	-0,036	-0,122
-222,898	-115,429	0,203	0,027
-221,884	-91,205	-0,058	-0,012
-220,869	296,091	0,014	0,018
-219,855	-80,222	0,080	-0,019
-218,840	308,843	-0,038	0,051
-217,825	-8,727	-0,063	0,031
-216,811	800,000	-0,059	-0,123
-215,796	800,000	-0,032	-0,090
-214,782	-29,282	0,165	-0,068
-213,767	98,458	-0,043	-0,036
-212,752	0,183	0,093	0,048
-211,738	41,492	0,044	-0,029
-210,723	242,422	-0,018	0,022
-209,709	758,928	-0,016	0,031
-208,694	-70,217	0,110	0,030
-207,679	-53,698	-0,080	0,026
-206,665	101,080	0,052	0,044
-205,650	-114,655	0,026	-0,004
-204,636	-200,000	-0,014	0,139
-203,621	798,833	-0,014	0,029
-202,606	457,736	-0,104	0,169
-201,592	22,712	-0,151	-0,089
-200,577	800,000	0,025	0,065
-199,563	-200,000	0,027	0,114
-198,548	-200,000	-0,041	0,143
-197,533	205,373	0,098	0,111
-196,519	15,932	0,021	-0,012
-195,504	61,971	0,022	0,016
-194,490	-87,824	0,034	-0,007
-193,475	-200,000	-0,004	-0,097
-192,460	-163,933	0,104	-0,003
-191,446	307,153	0,047	-0,064
-190,431	477,282	0,030	-0,049
-189,417	-5,370	-0,137	-0,068
-188,402	-51,913	-0,046	-0,015
-187,387	-48,893	-0,056	0,019
-186,373	76,098	0,104	0,080
-185,358	-137,667	-0,029	-0,002
-184,344	121,343	0,098	0,088
-183,329	-200,000	-0,044	0,173
-182,315	-82,310	0,055	0,013
-181,300	-4,438	-0,074	-0,037
-180,285	-59,196	0,064	0,020
-179,271	-124,737	0,151	0,017
-178,256	800,000	0,038	0,100
-177,242	-200,000	-0,011	0,047
-176,227	-86,153	0,150	0,033
-175,212	63,733	0,142	0,104
-174,198	800,000	-0,003	0,010
-173,183	-52,889	-0,094	-0,031
-172,169	800,000	-0,013	0,028
-171,154	20,850	0,107	0,063
-170,139	-200,000	0,024	0,080
-169,125	4,451	0,161	0,085
-168,110	144,607	-0,085	0,082
-167,096	800,000	0,031	-0,090
-166,081	205,360	-0,116	-0,131
-165,066	800,000	0,026	-0,057
-164,052	314,369	-0,038	-0,051
-163,037	165,314	0,024	-0,024
-162,023	151,398	-0,036	-0,036
-161,008	800,000	-0,018	0,046
-159,993	55,332	-0,077	0,054
-158,979	-126,967	-0,057	0,006
-157,964	-50,397	0,055	0,019
-156,950	743,823	-0,038	-0,074
-155,935	-146,157	0,103	-0,006
-154,920	-85,460	0,050	-0,011
-153,906	-200,000	-0,005	-0,043
-152,891	771,366	-0,032	0,064
-151,877	-102,187	0,119	0,021
-150,862	-111,439	0,114	0,017
-149,847	800,000	-0,021	-0,057
-148,833	-122,668	-0,068	0,008
-147,818	416,180	-0,035	0,055
-146,804	-200,000	-0,012	0,102
-145,789	165,148	0,095	0,097
-144,775	-1,389	-0,101	0,051
-143,760	-5,161	-0,161	-0,080
-142,745	103,865	-0,072	-0,061
-141,731	-107,245	0,055	0,009
-140,716	-200,000	0,017	-0,065
-139,702	-110,903	0,161	0,024
-138,687	-200,000	0,014	0,047
-137,672	352,513	-0,085	0,122
-136,658	175,924	0,069	0,072
-135,643	40,633	-0,004	0,003
-134,629	-151,940	-0,134	0,007
-133,614	30,384	-0,023	0,014
-132,599	642,363	0,030	0,056
-131,585	-101,436	0,054	-0,009
-130,570	-200,000	-0,011	0,302
-129,556	596,692	0,058	-0,104
-128,541	20,479	-0,075	-0,043
-127,526	-14,068	0,109	0,051
-126,512	50,559	0,092	-0,063
-125,497	-200,000	-0,037	-0,136
-124,483	-125,264	-0,059	0,006
-123,468	-83,047	0,124	0,029
-122,453	-44,127	-0,074	0,027
-121,439	800,000	0,030	-0,079
-120,424	16,621	-0,093	-0,053
-119,410	193,690	0,024	-0,027
-118,395	155,665	0,206	0,206
-117,380	-66,843	-0,058	0,017
-116,366	685,819	0,045	0,085
-115,351	265,016	0,049	-0,061
-114,337	281,038	0,030	-0,039
-113,322	-200,000	0,015	-0,167
-112,307	800,000	0,035	-0,080
-111,293	-75,479	-0,030	0,008
-110,278	800,000	0,019	-0,042
-109,264	-200,000	-0,020	-0,076
-108,249	43,824	-0,077	0,051
-107,234	-200,000	-0,008	-0,173
-106,220	239,546	-0,021	-0,025
-105,205	-80,385	-0,018	0,004
-104,191	800,000	-0,035	0,088
-103,176	175,836	-0,125	-0,131
-102,162	-142,073	0,080	0,006
-101,147	238,200	0,075	0,090
-100,132	141,086	-0,010	0,010
-99,118	-83,455	-0,105	0,024
-98,103	292,109	0,023	-0,030
-97,089	-200,000	0,024	0,101
-96,074	290,873	0,047	-0,062
-95,059	-50,455	-0,127	-0,043
-94,045	800,000	0,022	0,062
-93,030	-0,670	-0,104	0,053
-92,016	388,125	-0,043	-0,065
-91,001	135,086	-0,076	-0,071
-89,986	442,209	-0,023	-0,036
-88,972	-200,000	-0,021	-0,191
-87,957	242,162	0,087	-0,106
-86,943	800,000	-0,052	0,114
-85,928	-200,000	-0,024	-0,238
-84,913	-15,658	0,084	-0,038
-83,899	-49,069	-0,085	0,029
-82,884	69,697	0,061	-0,046
-81,870	800,000	-0,020	-0,047
-80,855	149,061	-0,071	0,069
-79,840	-87,153	-0,162	0,035
-78,826	800,000	-0,023	-0,065
-77,811	-38,984	-0,216	-0,082
-76,797	-83,416	0,060	-0,014
-75,782	512,933	0,029	-0,049
-74,767	245,129	0,039	-0,048
-73,753	-200,000	0,046	-0,150
-72,738	274,302	-0,065	-0,083
-71,724	459,148	0,080	0,128
-70,709	-46,896	0,080	-0,028
-69,694	644,505	-0,030	-0,056
-68,680	31,163	0,084	-0,052
-67,665	-200,000	-0,033	-0,120
-66,651	375,357	0,042	0,062
-65,636	267,295	0,031	0,039
-64,622	-200,000	0,000	-0,021
-63,607	-200,000	0,068	-0,237
-62,592	190,486	0,012	-0,013
-61,578	-108,839	-0,074	0,011
-60,563	173,636	0,056	-0,059
-59,549	-76,689	0,104	-0,026
-58,534	-41,870	-1,889	-0,694
-57,519	800,000	-0,512	-1,072
-56,505	-200,000	-1,093	-4,749
-55,490	9,075	0,679	0,369
-54,476	800,000	5,080	11,766
-53,461	-200,000	16,498	273,626
-52,446	800,000	711,445	2218,657
-51,432	555,351	1624,616	2829,441
-50,417	121,140	1620,699	1453,680
-49,403	85,309	1281,306	1012,609
-48,388	36,576	1028,215	652,670
-47,373	21,128	990,643	577,786
-46,359	19,908	979,185	567,061
-45,344	17,950	974,775	558,052
-44,330	18,095	973,503	557,779
-43,315	17,676	971,903	555,465
-42,300	17,675	970,740	554,777
-41,286	17,655	969,778	554,138
-40,271	17,646	968,836	553,548
-39,257	17,658	968,057	553,120
-38,242	17,638	967,315	552,610
-37,227	17,603	966,430	551,971
-36,213	17,601	965,390	551,347
-35,198	17,579	964,671	550,844
-34,184	17,656	963,924	550,644
-33,169	17,554	963,083	549,811
-32,154	17,636	961,911	549,386
-31,140	17,580	961,542	548,974
-30,125	17,686	960,401	548,641
-29,111	17,680	959,591	548,139
-28,096	17,658	959,078	547,754
-27,082	17,601	958,475	547,203
-26,067	17,597	957,754	546,755
-25,052	17,600	956,779	546,187
-24,038	17,573	956,129	545,706
-23,023	17,536	955,525	545,220
-22,009	17,634	954,696	545,041
-20,994	17,698	953,851	544,745
-19,979	17,604	953,555	544,251
-18,965	17,613	952,746	543,796
-17,950	17,611	952,308	543,519
-16,936	17,530	951,730	542,908
-15,921	17,474	950,933	542,253
-14,906	17,493	950,235	541,894
-13,892	17,504	949,450	541,460
-12,877	17,510	948,791	541,080
-11,863	17,414	948,283	540,464
-10,848	17,405	947,979	540,239
-9,833	17,559	947,373	540,366
-8,819	17,530	946,663	539,847
-7,804	17,518	946,033	539,428
-6,790	17,448	945,562	538,914
-5,775	17,506	945,006	538,761
-4,760	17,540	944,238	538,409
-3,746	17,478	943,611	537,834
-2,731	17,315	942,992	536,943
-1,717	17,348	942,218	536,585
-0,702	17,349	941,643	536,237
0,313	17,100	941,010	535,899
1,327	19,795	938,727	543,076
2,342	26,985	811,546	489,017
3,356	21,241	515,422	300,636
4,371	-0,976	386,746	196,405
5,386	-3,406	370,178	184,894
6,400	-4,754	363,782	180,003
7,415	-5,822	360,960	177,267
8,429	-5,889	359,400	176,403
9,444	-5,983	358,431	175,797
10,459	-6,149	357,620	175,179
11,473	-6,112	356,970	174,891
12,488	-6,047	356,410	174,681
13,502	-6,096	355,874	174,342
14,517	-6,351	355,343	173,756
15,531	-6,681	354,587	172,969
16,546	-6,731	354,170	172,689
17,561	-6,828	353,797	172,375
18,575	-6,656	353,168	172,261
19,590	-6,855	352,885	171,867
20,604	-6,542	352,370	171,979
21,619	-6,874	352,040	171,402
22,634	-6,884	351,745	171,231
23,648	-7,010	351,450	170,920
24,663	-6,930	351,089	170,826
25,677	-6,823	350,741	170,770
26,692	-6,703	350,397	170,732
27,707	-6,781	349,906	170,383
28,721	-6,957	349,827	170,119
29,736	-6,742	349,395	170,151
30,750	-6,998	349,182	169,726
31,765	-6,937	348,820	169,608
32,780	-6,868	348,478	169,508
33,794	-6,932	348,292	169,327
34,809	-6,993	347,874	169,036
35,823	-6,992	347,662	168,919
36,838	-7,107	347,357	168,619
37,853	-7,117	347,016	168,426
38,867	-7,040	346,754	168,376
39,882	-7,033	346,401	168,197
40,896	-7,011	346,109	168,068
41,911	-7,006	345,782	167,899
42,926	-7,009	345,523	167,755
43,940	-7,111	345,030	167,380
44,955	-7,193	344,871	167,191
45,969	-7,403	344,731	166,860
46,984	-7,389	344,281	166,645
47,999	-7,480	343,941	166,358
49,013	-7,547	343,736	166,165
50,028	-7,607	343,512	165,971
51,042	-7,626	343,130	165,750
52,057	-7,423	342,821	165,824
53,071	-7,598	342,661	165,526
54,086	-7,683	342,366	165,269
55,101	-7,434	342,042	165,390
56,115	-7,435	341,926	165,318
57,130	-7,043	341,989	165,792
58,144	-6,589	341,489	166,064
59,159	-6,662	341,311	165,878
60,174	-6,551	341,173	165,925
61,188	-6,712	340,813	165,548
62,203	-6,781	340,550	165,325
63,217	-6,855	340,379	165,142
64,232	-6,839	340,141	165,030
65,247	-6,656	339,903	165,112
66,261	-6,668	339,503	164,889
67,276	-6,885	338,846	164,304
68,290	-7,303	338,740	163,754
69,305	-7,135	338,560	163,847
70,320	-7,162	338,262	163,657
71,334	-6,964	338,079	163,782
72,349	-6,644	337,899	164,050
73,363	-6,628	337,608	163,913
74,378	-6,553	337,353	163,860
75,393	-6,793	336,999	163,398
76,407	-6,868	336,802	163,202
77,422	-6,886	336,511	163,025
78,436	-6,625	336,318	163,217
79,451	-6,605	335,958	163,051
80,466	-6,935	335,641	162,505
81,480	-7,090	335,171	162,086
82,495	-7,190	335,058	161,901
83,509	-7,262	334,863	161,711
84,524	-7,340	334,681	161,519
85,539	-7,452	334,367	161,225
86,553	-7,462	334,057	161,050
87,568	-7,244	333,635	161,080
88,582	-7,339	333,447	160,868
89,597	-7,241	333,225	160,858
90,611	-7,161	333,195	160,920
91,626	-6,986	332,952	160,987
92,641	-7,068	332,709	160,762
93,655	-7,079	332,415	160,593
94,670	-7,122	332,237	160,444
95,684	-7,042	331,824	160,320
96,699	-7,065	331,660	160,202
97,714	-7,095	331,242	159,951
98,728	-7,396	331,239	159,596
99,743	-7,292	330,692	159,435
100,757	-7,351	330,522	159,272
101,772	-7,492	330,333	159,008
102,787	-7,255	330,084	159,141
103,801	-7,207	329,895	159,089
104,816	-7,068	329,714	159,144
105,830	-6,944	329,621	159,224
106,845	-6,736	329,355	159,314
107,860	-6,828	329,006	159,029
108,874	-7,017	328,797	158,701
109,889	-6,887	328,480	158,680
110,903	-6,991	328,183	158,407
111,918	-6,980	328,072	158,351
112,933	-7,025	327,780	158,145
113,947	-7,128	327,660	157,958
114,962	-6,956	327,311	157,968
115,976	-6,977	327,142	157,849
116,991	-7,125	326,941	157,573
118,006	-7,117	326,705	157,455
119,020	-6,858	326,503	157,631
120,035	-6,763	326,414	157,679
121,049	-6,953	326,302	157,400
122,064	-6,856	325,887	157,293
123,079	-7,054	325,732	156,985
124,093	-7,049	325,202	156,722
125,108	-7,175	325,012	156,477
126,122	-7,482	324,667	155,958
127,137	-7,392	324,436	155,932
128,151	-7,497	324,273	155,724
129,166	-7,289	324,068	155,840
130,181	-7,359	323,862	155,651
131,195	-7,223	323,380	155,555
132,210	-7,120	323,214	155,574
133,224	-6,974	323,083	155,657
134,239	-6,938	322,845	155,569
135,254	-6,945	322,871	155,559
136,268	-6,917	322,377	155,338
137,283	-7,295	321,987	154,723
138,297	-7,403	321,764	154,485
139,312	-7,330	321,687	154,514
140,327	-6,918	321,586	154,900
141,341	-6,392	321,309	155,326
142,356	-6,506	321,286	155,178
143,370	-6,517	321,107	155,065
144,385	-6,374	320,823	155,070
145,400	-6,431	320,696	154,932
146,414	-6,477	320,473	154,760
147,429	-6,365	320,100	154,688
148,443	-6,584	320,061	154,418
149,458	-6,493	319,743	154,350
150,473	-6,413	319,388	154,251
151,487	-6,610	319,204	153,936
152,502	-6,539	318,989	153,895
153,516	-6,445	318,746	153,865
154,531	-6,518	318,598	153,702
155,546	-6,607	318,410	153,501
156,560	-6,613	317,850	153,211
157,575	-6,749	317,797	153,025
158,589	-6,701	317,512	152,926
159,604	-6,528	317,361	153,025
160,619	-6,438	317,238	153,049
161,633	-6,419	317,044	152,962
162,648	-6,530	316,783	152,704
163,662	-6,528	316,521	152,566
164,677	-6,436	316,394	152,590
165,692	-6,709	316,257	152,218
166,706	-6,421	315,934	152,356
167,721	-6,374	315,842	152,349
168,735	-6,386	315,768	152,286
169,750	-6,316	315,445	152,192
170,764	-6,372	315,268	152,033
171,779	-6,389	315,088	151,915
172,794	-6,266	314,801	151,893
173,808	-6,451	314,382	151,482
174,823	-7,014	314,167	150,766
175,837	-7,121	314,012	150,565
176,852	-6,680	313,958	150,994
177,867	-6,262	313,826	151,361
178,881	-6,256	313,574	151,232
179,896	-6,237	313,390	151,150
180,910	-6,289	313,139	150,960
181,925	-6,253	312,900	150,869
182,940	-6,267	312,686	150,738
183,954	-6,323	312,525	150,588
184,969	-6,326	312,404	150,513
185,983	-6,371	312,184	150,346
186,998	-6,251	311,813	150,281
188,013	-6,241	311,653	150,201
189,027	-6,414	311,553	149,957
190,042	-5,967	311,210	150,248
191,056	-6,039	311,077	150,095
192,071	-6,017	310,927	150,032
193,086	-6,116	310,887	149,895
194,100	-6,035	310,351	149,708
195,115	-6,047	310,261	149,639
196,129	-6,117	309,983	149,419
197,144	-6,210	309,774	149,207
198,159	-6,119	309,587	149,199
199,173	-6,017	309,358	149,182
200,188	-5,989	309,175	149,109
201,202	-6,444	308,775	148,430
202,217	-6,902	308,462	147,789
203,232	-7,009	308,204	147,541
204,246	-6,673	308,138	147,846
205,261	-6,187	308,109	148,323
206,275	-6,080	307,752	148,249
207,290	-6,147	307,698	148,140
208,304	-6,201	307,369	147,913
209,319	-6,090	307,259	147,962
210,334	-6,202	306,994	147,705
211,348	-6,127	306,699	147,628
212,363	-6,134	306,643	147,579
213,377	-6,001	306,443	147,608
214,392	-6,148	306,109	147,283
215,407	-6,503	305,833	146,771
216,421	-6,721	305,631	146,436
217,436	-6,664	305,272	146,310
218,450	-6,659	305,170	146,253
219,465	-6,430	305,178	146,479
220,480	-6,264	305,000	146,551
221,494	-6,382	304,696	146,271
222,509	-6,705	304,660	145,909
223,523	-6,363	304,401	146,123
224,538	-6,339	304,264	146,068
225,553	-6,227	304,131	146,106
226,567	-6,021	303,965	146,224
227,582	-5,870	303,777	146,275
228,596	-6,178	303,714	145,916
229,611	-5,986	303,427	145,962
230,626	-6,349	303,231	145,485
231,640	-6,803	302,648	144,730
232,655	-7,033	302,294	144,313
233,669	-7,039	302,075	144,190
234,684	-6,941	301,794	144,142
235,699	-6,949	301,761	144,105
236,713	-6,972	301,610	143,997
237,728	-6,640	301,495	144,267
238,742	-6,543	301,304	144,260
239,757	-6,546	301,275	144,230
240,772	-6,438	301,119	144,252
241,786	-6,430	300,899	144,142
242,801	-6,672	300,501	143,694
243,815	-6,715	300,470	143,622
244,830	-6,485	300,127	143,678
245,844	-6,797	299,951	143,267
246,859	-6,667	299,739	143,283
247,874	-6,606	299,502	143,218
248,888	-6,708	299,533	143,118
249,903	-6,163	299,386	143,583
250,917	-6,106	299,085	143,483
251,932	-5,638	299,143	143,968
252,947	-5,012	299,310	144,665
253,961	-4,955	299,056	144,586
254,976	-4,493	299,308	145,159
255,990	-3,431	299,263	146,190
257,005	-3,709	299,281	145,907
258,020	-1,316	300,186	148,741
259,034	-0,461	300,261	149,624
260,049	-0,257	299,998	149,684
261,063	-0,003	299,964	149,909
262,078	0,313	299,949	150,205
263,093	0,377	299,884	150,223
264,107	0,345	299,441	149,956
265,122	0,523	299,217	150,008
266,136	0,498	299,195	149,959
267,151	0,473	299,071	149,859
268,166	0,762	298,923	150,059
269,180	0,664	298,564	149,768
270,195	0,752	298,438	149,779
271,209	0,552	298,258	149,476
272,224	0,624	298,144	149,477
273,239	0,730	297,987	149,491
274,253	0,761	297,632	149,330
275,268	0,672	297,644	149,234
276,282	0,607	297,362	149,016
277,297	0,609	297,103	148,874
278,312	0,747	296,933	148,913
279,326	0,510	296,721	148,558
280,341	0,724	296,492	148,643
281,355	0,532	296,470	148,428
282,370	0,644	296,095	148,338
283,384	0,431	296,052	148,092
284,399	0,691	295,767	148,194
285,414	0,535	295,475	147,880
286,428	0,532	295,349	147,801
287,443	0,567	295,207	147,751
288,457	0,487	295,000	147,555
289,472	0,618	294,859	147,600
290,487	0,551	294,706	147,445
291,501	0,400	294,441	147,151
292,516	0,540	294,289	147,199
293,530	0,898	294,032	147,408
294,545	0,469	293,986	146,952
295,560	0,554	293,688	146,873
296,574	0,712	293,382	146,862
297,589	0,681	293,115	146,684
298,603	0,635	293,010	146,574
299,618	0,380	292,876	146,245
300,633	0,512	292,639	146,243
301,647	0,534	292,378	146,120
302,662	0,578	292,354	146,138
303,676	0,443	292,107	145,870
304,691	0,552	291,931	145,875
305,706	0,590	291,762	145,815
306,720	0,489	291,623	145,634
307,735	0,501	291,415	145,529
308,749	0,571	291,119	145,436
309,764	0,539	290,893	145,280
310,779	0,558	290,766	145,221
311,793	0,462	290,590	145,028
312,808	0,759	290,329	145,171
313,822	0,491	290,328	144,898
314,837	0,693	289,891	144,863
315,852	0,755	289,802	144,865
316,866	0,674	289,615	144,681
317,881	0,611	289,584	144,591
318,895	0,548	289,343	144,398
319,910	0,626	289,109	144,343
320,925	0,418	289,070	144,111
321,939	0,473	288,734	143,984
322,954	0,499	288,690	143,973
323,968	0,589	288,368	143,886
324,983	0,508	288,237	143,730
325,997	0,728	287,978	143,799
327,012	0,509	287,870	143,522
328,027	0,554	287,629	143,433
329,041	0,578	287,418	143,338
330,056	0,639	287,419	143,384
331,070	0,621	287,113	143,201
332,085	0,717	286,912	143,179
333,100	0,576	286,657	142,905
334,114	0,692	286,331	142,840
335,129	0,566	286,219	142,652
336,143	0,721	286,086	142,720
337,158	0,773	285,867	142,648
338,173	0,737	285,771	142,552
339,187	0,770	285,483	142,428
340,202	0,605	285,446	142,240
341,216	0,668	285,259	142,194
342,231	0,575	285,061	141,995
343,246	0,631	284,873	141,941
344,260	0,703	284,694	141,908
345,275	0,628	284,572	141,763
346,289	0,541	284,454	141,609
347,304	0,721	284,062	141,571
348,319	0,714	283,927	141,484
349,333	0,770	283,755	141,439
350,348	0,640	283,624	141,239
351,362	0,624	283,427	141,113
352,377	0,745	283,309	141,155
353,392	0,671	283,408	141,123
354,406	0,771	282,859	140,931
355,421	192,060	1328,274	1399,979
356,435	155,520	1455,656	1400,005
