DTS Sentinel unit serial number:	SN410029Multiplexer serial number:	ORYXHardware model number:	OX2-SRSoftware version number:	ORYX F/W v4,00 Oryx Data Collector v3.7.2.0data status	okinstallation	B4 Nyhavnadifferential loss correction	single-endedforward channel	channel 2reverse channel	N/Adate	2023/12/16time	08:55:13forward acquisition time	300,00reverse acquisition time	0,00gamma	499,1914k internal	0,3127k external	0,3127temperature offset calibration	1,0000default loss term (dB/km)	0,3820temperature slope calibration	1,0000multiplexer offset coefficient	1,0000multiplexer slope coefficient	1,0000fibre end	0,00T internal ref (°C)	22,78T ext. ref 1 (°C)	8,79T ext. ref 2 (°C)	8,94length (m)	temperature (°C)	Stokes	anti-Stokes-744,400	157,680	0,085	0,088
-743,385	501,777	-0,076	0,131
-742,371	372,222	0,067	-0,102
-741,356	-200,000	-0,032	0,246
-740,342	-77,017	-0,073	0,019
-739,327	-71,889	-0,258	0,071
-738,312	-67,771	0,049	-0,014
-737,298	27,064	-0,192	0,119
-736,283	-111,350	0,116	-0,017
-735,269	188,217	-0,180	0,201
-734,254	-93,227	-0,113	-0,023
-733,239	-45,222	-0,440	-0,162
-732,225	-147,684	0,121	-0,007
-731,210	800,000	-0,052	0,111
-730,196	800,000	-0,017	-0,037
-729,181	-55,578	0,068	0,023
-728,167	800,000	-0,003	0,008
-727,152	-200,000	-0,001	-0,053
-726,137	800,000	-0,032	-0,075
-725,123	17,482	0,091	-0,054
-724,108	-57,427	0,113	0,037
-723,094	-200,000	-0,003	-0,135
-722,079	-94,666	-0,072	-0,014
-721,064	143,736	0,068	-0,067
-720,050	800,000	-0,042	-0,129
-719,035	800,000	-0,016	-0,049
-718,021	74,691	-0,053	-0,041
-717,006	-155,071	-0,232	-0,011
-715,991	-200,000	0,017	-0,112
-714,977	-112,714	-0,154	-0,022
-713,962	800,000	-0,045	-0,129
-712,948	203,109	0,037	-0,043
-711,933	-47,370	0,122	-0,044
-710,918	-9,240	0,093	-0,046
-709,904	-121,954	-0,029	0,004
-708,889	-200,000	-0,008	0,047
-707,875	-122,021	0,091	-0,011
-706,860	-200,000	0,004	-0,027
-705,845	-200,000	0,010	0,000
-704,831	-200,000	-0,006	0,091
-703,816	20,220	-0,051	0,030
-702,802	54,594	-0,164	-0,117
-701,787	800,000	0,027	-0,059
-700,772	-20,418	-0,100	-0,046
-699,758	800,000	0,038	-0,110
-698,743	20,565	0,049	-0,029
-697,729	-184,343	-0,037	-0,000
-696,714	400,383	0,104	0,163
-695,699	326,420	-0,048	-0,068
-694,685	-82,500	-0,029	0,007
-693,670	-170,826	-0,117	-0,003
-692,656	-142,153	-0,100	-0,007
-691,641	-93,158	0,127	0,026
-690,627	-200,000	-0,010	-0,035
-689,612	-200,000	-0,008	-0,074
-688,597	-200,000	0,007	-0,041
-687,583	800,000	-0,018	-0,056
-686,568	-110,729	-0,140	-0,021
-685,554	-38,399	0,063	0,025
-684,539	-7,741	0,025	0,012
-683,524	201,834	-0,102	0,117
-682,510	800,000	-0,009	0,021
-681,495	-200,000	0,008	0,056
-680,481	267,818	0,101	-0,132
-679,466	-51,187	-0,128	-0,044
-678,451	-141,038	0,098	0,007
-677,437	-200,000	-0,002	-0,032
-676,422	-35,612	-0,070	-0,028
-675,408	43,928	-0,063	-0,043
-674,393	800,000	-0,025	0,065
-673,378	-200,000	0,004	-0,058
-672,364	-126,927	-0,147	-0,016
-671,349	222,747	0,097	-0,117
-670,335	249,270	-0,062	0,078
-669,320	-42,490	0,122	0,046
-668,305	-200,000	-0,005	-0,021
-667,291	-136,643	-0,049	-0,004
-666,276	25,530	-0,070	0,043
-665,262	-55,527	-0,026	-0,009
-664,247	141,333	-0,044	-0,043
-663,232	-200,000	-0,005	0,056
-662,218	147,068	-0,089	0,089
-661,203	-200,000	0,078	0,000
-660,189	800,000	-0,028	-0,082
-659,174	800,000	-0,063	-0,163
-658,159	-200,000	-0,009	0,043
-657,145	800,000	0,037	-0,105
-656,130	-136,905	-0,104	-0,009
-655,116	37,932	-0,052	-0,035
-654,101	658,334	-0,045	0,086
-653,086	-24,185	0,128	0,057
-652,072	81,163	-0,003	-0,003
-651,057	414,126	-0,027	-0,042
-650,043	-44,369	-0,116	-0,043
-649,028	163,399	0,087	-0,091
-648,014	-200,000	0,020	-0,104
-646,999	-188,058	0,139	0,001
-645,984	-200,000	-0,005	0,160
-644,970	-200,000	0,006	0,065
-643,955	104,726	-0,068	-0,059
-642,941	-59,079	-0,040	-0,013
-641,926	800,000	-0,017	-0,053
-640,911	-115,616	-0,068	-0,009
-639,897	-200,000	-0,010	0,164
-638,882	253,898	-0,017	0,022
-637,868	800,000	0,013	-0,028
-636,853	781,901	0,009	0,019
-635,838	44,308	-0,041	0,028
-634,824	-172,449	0,136	0,003
-633,809	-85,684	-0,086	-0,020
-632,795	-200,000	-0,037	-0,124
-631,780	298,153	-0,032	0,044
-630,765	-200,000	0,004	0,082
-629,751	-12,860	-0,034	-0,016
-628,736	55,548	0,016	0,011
-627,722	-4,399	-0,105	-0,054
-626,707	-54,438	0,094	-0,031
-625,692	-200,000	-0,029	0,216
-624,678	800,000	-0,025	0,078
-623,663	253,759	0,060	0,076
-622,649	800,000	0,025	0,067
-621,634	-200,000	-0,022	-0,168
-620,619	-21,438	-0,156	-0,070
-619,605	-39,677	0,047	-0,018
-618,590	417,398	-0,069	-0,110
-617,576	-134,189	0,067	-0,006
-616,561	-81,352	0,057	0,014
-615,546	-200,000	0,001	-0,027
-614,532	-121,389	-0,191	-0,023
-613,517	-62,487	0,019	-0,006
-612,503	-122,455	-0,169	-0,020
-611,488	-200,000	-0,023	0,083
-610,474	273,031	-0,036	0,047
-609,459	-66,258	-0,023	-0,007
-608,444	800,000	0,002	-0,004
-607,430	-53,607	-0,167	-0,056
-606,415	195,754	0,037	0,042
-605,401	12,810	-0,040	-0,023
-604,386	403,825	0,086	0,134
-603,371	-200,000	-0,008	0,051
-602,357	-45,304	-0,026	0,010
-601,342	-200,000	-0,008	0,068
-600,328	-200,000	-0,032	0,136
-599,313	221,896	-0,028	-0,033
-598,298	-200,000	0,018	0,078
-597,284	-200,000	-0,003	0,013
-596,269	175,768	0,013	0,014
-595,255	-200,000	-0,001	0,059
-594,240	201,791	-0,094	0,107
-593,225	589,202	-0,040	-0,074
-592,211	-101,503	-0,142	-0,025
-591,196	-22,181	0,117	0,052
-590,182	800,000	-0,022	0,048
-589,167	-95,346	-0,082	0,016
-588,152	-200,000	0,009	0,169
-587,138	171,995	-0,035	-0,037
-586,123	-200,000	0,014	-0,119
-585,109	2,626	0,196	-0,105
-584,094	-113,970	-0,114	-0,016
-583,079	-200,000	0,009	-0,053
-582,065	-25,396	0,174	0,076
-581,050	-200,000	-0,003	0,179
-580,036	61,021	0,061	0,045
-579,021	800,000	-0,020	-0,063
-578,006	800,000	-0,024	-0,071
-576,992	-78,592	-0,023	-0,006
-575,977	-200,000	-0,008	0,068
-574,963	-15,354	0,127	0,060
-573,948	743,317	0,043	0,086
-572,934	14,186	0,086	-0,049
-571,919	114,139	-0,053	0,048
-570,904	-200,000	0,002	-0,056
-569,890	-94,549	-0,037	-0,007
-568,875	800,000	0,020	0,056
-567,861	-156,738	0,053	0,002
-566,846	800,000	0,020	0,052
-565,831	194,152	-0,065	0,073
-564,817	63,226	-0,134	-0,099
-563,802	800,000	-0,035	-0,104
-562,788	37,050	0,038	-0,025
-561,773	238,573	0,009	-0,011
-560,758	800,000	0,045	-0,116
-559,744	-60,023	-0,070	-0,022
-558,729	-200,000	0,018	0,072
-557,715	-88,829	0,075	0,016
-556,700	201,250	-0,039	-0,044
-555,685	-182,851	-0,151	-0,002
-554,671	-41,566	-0,174	0,066
-553,656	560,820	-0,011	0,020
-552,642	158,109	0,115	0,117
-551,627	800,000	0,022	-0,066
-550,612	-113,924	0,024	-0,003
-549,598	-200,000	0,038	0,133
-548,583	-132,487	0,092	-0,009
-547,569	-129,084	0,049	-0,005
-546,554	-200,000	0,022	0,197
-545,539	800,000	-0,054	-0,112
-544,525	-153,421	-0,077	0,004
-543,510	800,000	-0,026	0,082
-542,496	-57,373	0,124	0,040
-541,481	-154,115	-0,083	0,004
-540,466	-200,000	0,021	0,143
-539,452	-110,522	0,051	0,008
-538,437	-200,000	0,013	0,071
-537,423	42,176	0,137	0,092
-536,408	366,369	-0,052	-0,077
-535,393	-200,000	-0,020	0,102
-534,379	-53,694	-0,091	-0,030
-533,364	43,647	-0,078	-0,053
-532,350	-72,893	-0,112	0,030
-531,335	-121,705	0,046	0,005
-530,321	-56,892	0,052	-0,017
-529,306	737,802	-0,087	-0,172
-528,291	86,890	0,085	-0,069
-527,277	-4,781	-0,080	-0,041
-526,262	-189,054	-0,038	0,000
-525,248	74,044	-0,009	-0,007
-524,233	-91,094	0,224	0,047
-523,218	273,213	0,059	0,078
-522,204	-58,589	-0,099	0,032
-521,189	-200,000	-0,007	0,052
-520,175	-200,000	-0,010	-0,088
-519,160	132,212	0,081	-0,077
-518,145	800,000	0,032	0,081
-517,131	-200,000	0,011	0,045
-516,116	-63,920	-0,118	-0,035
-515,102	146,712	0,037	-0,037
-514,087	-200,000	-0,010	0,049
-513,072	-26,003	0,081	-0,035
-512,058	22,384	-0,105	-0,063
-511,043	800,000	-0,015	0,036
-510,029	-200,000	0,002	0,085
-509,014	448,555	-0,050	0,081
-507,999	743,696	0,038	-0,076
-506,985	-103,297	0,021	-0,004
-505,970	39,759	-0,048	-0,032
-504,956	78,293	-0,109	-0,086
-503,941	183,185	0,144	0,157
-502,926	-155,362	0,099	0,005
-501,912	800,000	-0,030	-0,082
-500,897	-38,820	-0,021	0,008
-499,883	702,736	-0,034	-0,066
-498,868	800,000	-0,062	-0,168
-497,853	-65,451	0,095	-0,028
-496,839	17,984	-0,069	0,040
-495,824	-82,390	0,089	-0,021
-494,810	-200,000	0,057	0,192
-493,795	113,894	0,030	0,027
-492,781	30,653	-0,113	-0,071
-491,766	-171,189	-0,115	-0,003
-490,751	-125,902	-0,174	-0,019
-489,737	-200,000	0,004	-0,055
-488,722	-200,000	-0,045	0,193
-487,708	111,237	0,154	0,136
-486,693	-200,000	-0,008	0,042
-485,678	187,885	0,094	-0,104
-484,664	-200,000	0,033	-0,108
-483,649	23,687	-0,123	-0,074
-482,635	30,461	-0,103	0,065
-481,620	-200,000	-0,018	0,138
-480,605	-200,000	-0,001	-0,138
-479,591	-56,244	0,132	0,043
-478,576	23,058	-0,047	0,028
-477,562	66,440	0,097	0,072
-476,547	-190,646	0,100	-0,001
-475,532	157,905	0,025	0,025
-474,518	-200,000	0,014	-0,105
-473,503	-112,132	0,163	-0,024
-472,489	-200,000	-0,012	0,063
-471,474	800,000	-0,013	-0,029
-470,459	230,745	0,097	-0,118
-469,445	-200,000	0,003	0,113
-468,430	800,000	0,064	-0,167
-467,416	-30,161	-0,046	-0,019
-466,401	800,000	-0,033	0,086
-465,386	800,000	0,054	-0,155
-464,372	-200,000	0,032	-0,141
-463,357	-53,648	-0,161	0,054
-462,343	245,252	0,011	-0,014
-461,328	800,000	-0,016	-0,039
-460,313	43,443	-0,079	0,053
-459,299	-17,607	-0,161	0,074
-458,284	800,000	0,042	0,104
-457,270	163,531	0,104	0,108
-456,255	-118,716	-0,091	0,012
-455,241	800,000	-0,009	-0,027
-454,226	-200,000	0,012	-0,177
-453,211	331,270	-0,035	-0,050
-452,197	39,226	0,038	0,025
-451,182	-200,000	-0,019	0,121
-450,168	-64,821	0,078	-0,023
-449,153	-71,692	-0,061	0,017
-448,138	-90,201	-0,128	0,027
-447,124	29,986	0,037	0,023
-446,109	-162,661	0,019	-0,001
-445,095	800,000	0,056	0,136
-444,080	156,489	0,059	0,060
-443,065	-200,000	0,015	0,077
-442,051	-76,133	-0,118	-0,030
-441,036	21,877	-0,098	-0,059
-440,022	521,819	-0,053	0,092
-439,007	-167,962	-0,061	0,002
-437,992	10,603	0,081	-0,045
-436,978	154,722	0,160	0,162
-435,963	-200,000	0,003	-0,047
-434,949	101,704	-0,076	0,066
-433,934	642,384	-0,074	-0,139
-432,919	800,000	0,021	-0,045
-431,905	510,746	0,014	-0,025
-430,890	-200,000	-0,012	0,095
-429,876	-141,973	0,122	0,009
-428,861	-11,871	0,234	-0,112
-427,846	229,716	-0,074	0,089
-426,832	-200,000	0,010	-0,033
-425,817	43,679	-0,073	0,049
-424,803	-200,000	-0,038	-0,131
-423,788	770,027	-0,022	0,045
-422,773	60,475	-0,127	0,092
-421,759	-200,000	0,009	0,097
-420,744	176,223	-0,025	-0,027
-419,730	-13,200	0,029	0,014
-418,715	796,292	0,082	-0,167
-417,701	-31,069	-0,084	-0,035
-416,686	74,176	0,051	-0,039
-415,671	157,771	0,143	0,146
-414,657	446,025	0,106	0,172
-413,642	4,049	0,042	0,023
-412,628	115,692	-0,127	-0,114
-411,613	-55,879	-0,145	-0,047
-410,598	800,000	-0,023	-0,051
-409,584	-200,000	0,007	0,105
-408,569	-200,000	0,010	-0,046
-407,555	-109,892	0,215	-0,033
-406,540	-84,327	0,079	-0,018
-405,525	81,248	0,027	0,021
-404,511	-98,514	-0,041	-0,008
-403,496	800,000	0,025	-0,055
-402,482	-200,000	-0,007	0,064
-401,467	373,366	0,006	-0,009
-400,452	800,000	0,035	0,077
-399,438	-104,768	-0,064	0,011
-398,423	-200,000	-0,013	-0,046
-397,409	-106,025	-0,127	-0,021
-396,394	-200,000	-0,027	-0,142
-395,379	800,000	0,052	-0,112
-394,365	-200,000	0,006	0,052
-393,350	164,973	-0,063	-0,065
-392,336	800,000	-0,009	0,022
-391,321	-200,000	0,017	-0,141
-390,306	232,839	-0,116	0,141
-389,292	113,245	-0,093	0,083
-388,277	-49,137	-0,093	-0,032
-387,263	-37,327	-0,045	-0,017
-386,248	291,012	-0,034	0,046
-385,233	-200,000	0,007	0,040
-384,219	800,000	0,017	0,047
-383,204	763,767	-0,024	-0,049
-382,190	695,663	-0,044	-0,085
-381,175	-200,000	-0,043	0,164
-380,160	46,286	0,106	0,072
-379,146	599,989	0,063	0,116
-378,131	502,334	0,035	-0,059
-377,117	-148,762	0,085	0,005
-376,102	800,000	0,048	-0,120
-375,088	496,434	-0,039	-0,065
-374,073	-79,056	-0,045	-0,011
-373,058	800,000	-0,024	0,052
-372,044	-200,000	0,016	0,101
-371,029	-200,000	0,001	0,041
-370,015	-13,514	0,121	0,057
-369,000	-200,000	-0,005	0,093
-367,985	247,396	-0,065	0,081
-366,971	800,000	0,026	-0,069
-365,956	535,907	0,034	-0,059
-364,942	165,677	0,034	0,035
-363,927	125,638	-0,072	0,066
-362,912	54,209	0,050	-0,035
-361,898	163,792	-0,108	0,111
-360,883	-130,926	-0,127	-0,012
-359,869	-74,376	0,074	0,019
-358,854	160,943	0,091	-0,093
-357,839	800,000	0,033	-0,084
-356,825	-22,248	-0,085	0,038
-355,810	291,797	0,033	-0,044
-354,796	800,000	0,008	-0,020
-353,781	43,332	-0,036	-0,024
-352,766	-200,000	-0,007	-0,081
-351,752	800,000	0,035	-0,074
-350,737	-77,486	0,142	0,036
-349,723	538,181	0,062	-0,109
-348,708	-200,000	-0,001	-0,133
-347,693	433,348	-0,024	-0,038
-346,679	-22,114	0,047	-0,021
-345,664	639,932	-0,028	0,052
-344,650	-200,000	-0,027	-0,175
-343,635	16,128	-0,038	0,022
-342,620	800,000	0,037	0,116
-341,606	65,658	0,118	0,088
-340,591	-195,946	0,084	0,000
-339,577	-20,160	0,116	0,052
-338,562	800,000	0,042	0,101
-337,548	179,058	0,026	-0,028
-336,533	-200,000	0,011	-0,068
-335,518	-200,000	-0,043	0,200
-334,504	-200,000	0,014	0,083
-333,489	326,289	-0,024	-0,033
-332,475	-62,958	-0,050	-0,015
-331,460	-200,000	0,033	-0,136
-330,445	-88,961	0,030	0,006
-329,431	-145,702	-0,015	-0,001
-328,416	-200,000	0,083	-0,000
-327,402	-200,000	-0,013	-0,110
-326,387	-109,792	0,078	0,012
-325,372	103,904	-0,078	-0,067
-324,358	307,089	-0,035	0,048
-323,343	-200,000	0,042	-0,174
-322,329	-200,000	-0,006	-0,085
-321,314	-163,026	0,131	0,005
-320,299	-70,611	0,007	0,002
-319,285	800,000	-0,059	-0,145
-318,270	14,379	0,065	-0,037
-317,256	313,596	0,013	0,018
-316,241	-115,004	-0,144	0,020
-315,226	800,000	0,032	0,071
-314,212	-52,358	0,205	0,069
-313,197	286,919	0,026	-0,035
-312,183	84,770	0,040	0,032
-311,168	147,003	-0,101	0,099
-310,153	800,000	0,028	-0,067
-309,139	-200,000	-0,027	0,098
-308,124	-67,511	0,220	-0,063
-307,110	50,314	-0,073	0,050
-306,095	0,131	0,097	0,050
-305,080	-58,382	0,061	-0,019
-304,066	120,282	-0,057	-0,052
-303,051	4,285	-0,113	-0,060
-302,037	661,298	-0,095	-0,180
-301,022	800,000	0,050	0,124
-300,008	-200,000	0,004	-0,144
-298,993	-106,591	0,046	0,007
-297,978	800,000	-0,052	0,112
-296,964	-137,827	0,047	0,004
-295,949	37,484	0,112	-0,073
-294,935	202,899	-0,083	-0,094
-293,920	66,512	0,044	0,033
-292,905	-160,838	-0,057	-0,002
-291,891	-195,325	-0,165	-0,001
-290,876	-200,000	0,015	0,116
-289,862	-200,000	0,001	-0,129
-288,847	197,155	-0,067	0,075
-287,832	673,626	0,054	-0,104
-286,818	-200,000	-0,014	-0,059
-285,803	-200,000	0,009	-0,073
-284,789	-155,748	0,141	-0,006
-283,774	800,000	-0,033	0,084
-282,759	8,115	-0,154	-0,084
-281,745	-106,583	-0,019	-0,003
-280,730	36,787	-0,147	-0,095
-279,716	-145,610	0,034	-0,002
-278,701	-200,000	0,014	-0,063
-277,686	800,000	-0,031	0,072
-276,672	800,000	-0,007	0,018
-275,657	356,425	0,024	-0,034
-274,643	83,430	0,089	-0,071
-273,628	92,940	0,005	0,005
-272,613	-200,000	-0,041	0,136
-271,599	423,327	-0,051	0,080
-270,584	-58,664	0,072	0,023
-269,570	614,933	-0,036	-0,066
-268,555	149,821	-0,123	0,122
-267,540	800,000	0,062	0,157
-266,526	-75,423	-0,093	-0,024
-265,511	-79,040	-0,167	0,041
-264,497	-65,387	-0,064	-0,019
-263,482	-200,000	0,006	0,051
-262,467	-200,000	0,005	0,097
-261,453	49,583	0,057	0,039
-260,438	-77,343	-0,098	0,025
-259,424	-200,000	0,002	-0,085
-258,409	98,334	-0,005	-0,004
-257,395	2,146	0,030	-0,016
-256,380	-18,728	0,040	0,018
-255,365	-38,815	0,069	0,027
-254,351	-93,149	0,109	0,022
-253,336	-200,000	-0,034	-0,163
-252,322	60,808	0,037	0,027
-251,307	800,000	-0,061	-0,142
-250,292	-115,855	0,070	0,009
-249,278	35,001	-0,053	0,034
-248,263	159,256	0,046	0,047
-247,249	453,120	-0,014	0,022
-246,234	103,716	-0,016	-0,014
-245,219	290,877	-0,083	-0,111
-244,205	800,000	0,047	0,127
-243,190	83,707	-0,033	0,026
-242,176	-200,000	0,020	-0,067
-241,161	-3,361	0,114	0,058
-240,146	800,000	0,054	0,122
-239,132	94,218	-0,037	-0,031
-238,117	-200,000	0,008	0,103
-237,103	-200,000	0,010	0,052
-236,088	-122,235	0,039	-0,005
-235,073	308,611	-0,035	-0,048
-234,059	-185,813	-0,060	-0,001
-233,044	128,557	0,085	0,079
-232,030	101,409	0,058	0,049
-231,015	800,000	-0,065	-0,137
-230,000	800,000	-0,003	0,011
-228,986	-104,473	0,085	-0,014
-227,971	-87,413	0,118	0,026
-226,957	800,000	-0,025	0,060
-225,942	367,902	0,069	-0,102
-224,927	198,643	0,044	-0,049
-223,913	321,448	0,027	-0,038
-222,898	-200,000	-0,023	0,099
-221,884	734,174	0,038	-0,074
-220,869	218,855	0,108	-0,127
-219,855	502,639	0,030	-0,051
-218,840	-200,000	0,035	0,113
-217,825	800,000	0,020	-0,048
-216,811	-49,078	-0,063	-0,022
-215,796	60,051	-0,095	-0,068
-214,782	358,908	-0,046	-0,067
-213,767	109,529	-0,076	-0,066
-212,752	-86,945	-0,031	0,007
-211,738	-200,000	-0,005	-0,126
-210,723	168,155	0,043	-0,044
-209,709	800,000	-0,035	0,096
-208,694	-112,424	-0,121	-0,017
-207,679	-114,391	-0,065	0,009
-206,665	-38,711	0,147	0,056
-205,650	-69,495	0,081	-0,023
-204,636	220,168	0,037	0,043
-203,621	-75,818	-0,083	-0,021
-202,606	10,221	-0,114	0,063
-201,592	342,682	-0,091	-0,131
-200,577	-200,000	0,001	-0,047
-199,563	-188,952	-0,039	0,000
-198,548	-62,642	-0,059	-0,018
-197,533	-200,000	0,002	0,038
-196,519	130,152	0,042	-0,039
-195,504	44,081	0,068	-0,045
-194,490	127,281	-0,101	-0,093
-193,475	277,795	0,023	0,030
-192,460	103,777	-0,008	-0,006
-191,446	-157,728	0,013	-0,001
-190,431	-0,036	-0,056	-0,029
-189,417	-200,000	0,006	-0,027
-188,402	183,951	-0,031	0,033
-187,387	7,934	0,026	-0,014
-186,373	48,992	0,140	0,095
-185,358	-185,769	0,062	0,001
-184,344	-192,001	0,046	0,000
-183,329	-200,000	0,004	-0,054
-182,315	45,429	-0,031	-0,021
-181,300	91,250	-0,154	-0,126
-180,285	39,650	0,101	-0,066
-179,271	84,227	-0,109	-0,087
-178,256	69,678	0,076	-0,057
-177,242	800,000	0,034	-0,099
-176,227	56,726	0,093	-0,066
-175,212	33,071	0,106	0,067
-174,198	83,843	-0,064	-0,051
-173,183	-200,000	-0,005	-0,077
-172,169	152,681	-0,031	0,031
-171,154	297,880	0,039	-0,053
-170,139	-87,418	0,105	-0,023
-169,125	39,277	0,078	-0,051
-168,110	107,872	-0,043	0,038
-167,096	-134,544	-0,160	-0,014
-166,081	-152,758	-0,153	0,008
-165,066	-85,901	-0,064	-0,014
-164,052	-200,000	0,012	0,160
-163,037	800,000	-0,078	-0,242
-162,023	800,000	0,024	0,065
-161,008	-200,000	0,005	0,032
-159,993	-107,478	0,021	0,003
-158,979	800,000	0,009	-0,021
-157,964	-200,000	0,024	-0,082
-156,950	-200,000	0,003	-0,042
-155,935	-200,000	0,030	0,183
-154,920	231,743	-0,023	0,028
-153,906	-133,507	0,196	-0,018
-152,891	744,971	0,027	-0,054
-151,877	137,784	-0,061	0,058
-150,862	246,489	-0,059	-0,072
-149,847	398,120	-0,057	-0,088
-148,833	441,486	0,019	0,031
-147,818	40,490	0,073	0,047
-146,804	28,794	-0,026	-0,016
-145,789	-200,000	-0,037	0,118
-144,775	178,155	-0,024	-0,026
-143,760	-175,833	0,029	-0,001
-142,745	15,110	-0,118	0,067
-141,731	-200,000	0,010	0,089
-140,716	800,000	0,028	-0,059
-139,702	21,636	0,078	-0,046
-138,687	70,003	-0,054	-0,041
-137,672	93,353	0,048	0,039
-136,658	-13,065	0,058	-0,027
-135,643	72,613	-0,105	0,079
-134,629	289,017	-0,100	-0,132
-133,614	800,000	-0,040	0,109
-132,599	508,268	-0,035	0,059
-131,585	-200,000	0,030	0,138
-130,570	12,079	-0,011	0,006
-129,556	180,301	0,052	-0,055
-128,541	-35,737	-0,074	0,029
-127,526	252,909	0,115	-0,143
-126,512	-200,000	0,012	0,044
-125,497	5,887	0,113	0,061
-124,483	-76,055	0,053	-0,014
-123,468	-48,513	-0,068	-0,024
-122,453	23,692	-0,046	0,027
-121,439	130,266	-0,138	-0,128
-120,424	-200,000	0,030	0,114
-119,410	268,937	-0,053	0,067
-118,395	800,000	0,039	0,118
-117,380	401,903	0,039	0,059
-116,366	-200,000	-0,004	-0,048
-115,351	141,621	0,135	-0,130
-114,337	-200,000	-0,013	-0,048
-113,322	800,000	-0,039	-0,096
-112,307	-200,000	0,006	-0,075
-111,293	-200,000	0,047	0,183
-110,278	54,507	0,102	-0,071
-109,264	-200,000	0,006	-0,030
-108,249	800,000	-0,051	-0,112
-107,234	54,848	-0,089	0,062
-106,220	800,000	0,043	0,088
-105,205	800,000	0,017	-0,048
-104,191	-16,642	-0,084	0,039
-103,176	-200,000	0,010	0,100
-102,162	-119,492	-0,011	0,001
-101,147	-120,321	-0,064	0,008
-100,132	719,739	0,048	-0,093
-99,118	365,000	-0,072	-0,106
-98,103	-200,000	0,009	-0,109
-97,089	-200,000	0,007	-0,056
-96,074	-137,814	-0,128	0,010
-95,059	16,377	0,092	-0,053
-94,045	-200,000	0,010	-0,108
-93,030	-88,413	-0,038	0,008
-92,016	89,926	0,091	-0,073
-91,001	-163,490	-0,080	0,003
-89,986	800,000	-0,027	0,054
-88,972	198,045	0,102	-0,113
-87,957	6,788	-0,059	-0,032
-86,943	-76,071	-0,109	-0,028
-85,928	313,557	0,043	-0,059
-84,913	571,208	-0,020	-0,036
-83,899	714,590	0,056	-0,109
-82,884	-15,512	0,095	0,044
-81,870	6,923	0,019	0,010
-80,855	114,046	0,096	0,085
-79,840	551,726	-0,025	0,044
-78,826	-200,000	0,001	0,072
-77,811	706,385	-0,086	-0,166
-76,797	111,955	0,010	0,009
-75,782	413,504	-0,094	0,145
-74,767	150,527	0,082	0,081
-73,753	-144,620	-0,046	0,003
-72,738	-126,018	0,157	0,017
-71,724	98,696	-0,088	0,073
-70,709	-73,240	0,140	-0,037
-69,694	54,488	0,025	-0,017
-68,680	-200,000	-0,001	0,159
-67,665	-200,000	0,011	0,106
-66,651	396,874	0,031	0,048
-65,636	-200,000	-0,003	-0,032
-64,622	107,813	-0,033	-0,028
-63,607	166,582	-0,050	0,051
-62,592	-77,872	-0,080	-0,020
-61,578	-172,008	-0,104	0,002
-60,563	497,927	-0,017	-0,029
-59,549	-92,567	-0,094	0,019
-58,534	-111,907	-1,351	-0,196
-57,519	731,745	-0,785	-1,529
-56,505	-200,000	-0,725	-4,446
-55,490	85,366	0,470	-0,374
-54,476	800,000	4,902	11,471
-53,461	-200,000	13,282	250,860
-52,446	-200,000	685,276	2265,910
-51,432	605,896	1618,041	2933,897
-50,417	121,484	1633,406	1475,025
-49,403	74,651	1288,324	981,158
-48,388	38,746	1023,503	660,737
-47,373	24,712	981,273	587,438
-46,359	23,963	970,922	578,768
-45,344	23,053	966,643	573,229
-44,330	22,915	965,281	571,949
-43,315	22,867	963,716	570,843
-42,300	22,811	962,696	570,035
-41,286	22,841	961,747	569,546
-40,271	22,780	961,065	568,923
-39,257	22,781	959,942	568,238
-38,242	22,842	959,038	567,877
-37,227	22,782	958,270	567,206
-36,213	22,734	957,391	566,509
-35,198	22,725	956,512	565,936
-34,184	22,807	955,815	565,767
-33,169	22,745	954,879	564,991
-32,154	22,834	953,937	564,695
-31,140	22,814	953,008	564,059
-30,125	22,870	952,267	563,779
-29,111	22,866	951,351	563,203
-28,096	22,841	950,795	562,770
-27,082	22,789	950,311	562,296
-26,067	22,847	949,196	561,800
-25,052	22,843	948,662	561,446
-24,038	22,856	948,021	561,088
-23,023	22,756	947,456	560,409
-22,009	22,871	946,784	560,359
-20,994	22,813	946,127	559,761
-19,979	22,816	945,476	559,363
-18,965	22,803	944,935	558,980
-17,950	22,852	944,237	558,702
-16,936	22,825	943,481	558,147
-15,921	22,769	942,886	557,593
-14,906	22,685	942,282	556,947
-13,892	22,709	941,405	556,485
-12,877	22,714	940,941	556,201
-11,863	22,653	940,264	555,586
-10,848	22,719	939,859	555,534
-9,833	22,757	939,319	555,315
-8,819	22,814	938,668	555,088
-7,804	22,703	937,901	554,260
-6,790	22,663	937,335	553,777
-5,775	22,721	936,871	553,666
-4,760	22,760	936,013	553,258
-3,746	22,689	935,695	552,824
-2,731	22,596	934,841	552,006
-1,717	22,544	934,324	551,516
-0,702	22,560	933,403	550,998
0,313	22,333	933,071	550,921
1,327	24,938	930,471	557,507
2,342	32,753	809,333	506,079
3,356	28,330	509,039	310,745
4,371	4,304	372,740	197,129
5,386	1,339	355,474	184,363
6,400	-0,131	349,486	179,475
7,415	-1,202	346,591	176,695
8,429	-1,359	345,064	175,715
9,444	-1,351	344,155	175,246
10,459	-1,294	343,477	174,952
11,473	-1,274	342,875	174,653
12,488	-0,972	342,506	174,806
13,502	-0,935	341,920	174,535
14,517	-1,158	341,281	173,932
15,531	-1,552	340,818	173,218
16,546	-1,521	340,305	172,978
17,561	-1,488	339,759	172,724
18,575	-1,486	339,554	172,606
19,590	-1,690	339,172	172,159
20,604	-1,539	338,759	172,110
21,619	-1,391	338,277	172,022
22,634	-1,567	338,086	171,704
23,648	-1,447	337,686	171,625
24,663	-1,475	337,458	171,461
25,677	-1,463	337,106	171,281
26,692	-1,502	336,767	171,049
27,707	-1,631	336,464	170,731
28,721	-1,501	336,182	170,723
29,736	-1,596	335,905	170,457
30,750	-1,535	335,627	170,371
31,765	-1,480	335,186	170,195
32,780	-1,617	335,049	169,953
33,794	-1,533	334,742	169,879
34,809	-1,560	334,516	169,718
35,823	-1,572	334,125	169,491
36,838	-1,421	333,775	169,471
37,853	-1,591	333,694	169,220
38,867	-1,706	333,402	168,925
39,882	-1,691	333,228	168,839
40,896	-1,596	332,771	168,701
41,911	-1,726	332,466	168,383
42,926	-1,530	332,129	168,420
43,940	-1,636	331,946	168,191
44,955	-1,611	331,488	167,973
45,969	-1,630	331,334	167,859
46,984	-1,947	331,027	167,328
47,999	-2,026	330,701	167,059
49,013	-2,213	330,636	166,799
50,028	-2,234	330,189	166,535
51,042	-2,198	329,855	166,392
52,057	-2,260	329,648	166,204
53,071	-2,223	329,302	166,056
54,086	-2,309	329,278	165,932
55,101	-2,173	328,818	165,839
56,115	-1,874	328,770	166,136
57,130	-1,648	328,677	166,329
58,144	-1,412	328,523	166,502
59,159	-1,350	328,044	166,315
60,174	-1,414	327,980	166,195
61,188	-1,331	327,721	166,142
62,203	-1,360	327,457	165,960
63,217	-1,420	327,147	165,722
64,232	-1,282	326,868	165,720
65,247	-1,164	326,600	165,702
66,261	-1,324	326,406	165,409
67,276	-1,617	325,967	164,845
68,290	-1,859	325,747	164,449
69,305	-1,788	325,416	164,347
70,320	-1,732	325,153	164,261
71,334	-1,576	325,049	164,367
72,349	-1,325	325,055	164,636
73,363	-1,176	324,736	164,624
74,378	-1,258	324,453	164,375
75,393	-1,207	324,120	164,249
76,407	-1,357	323,895	163,954
77,422	-1,520	323,771	163,696
78,436	-1,343	323,503	163,741
79,451	-1,470	323,267	163,467
80,466	-1,385	322,606	163,212
81,480	-1,587	322,338	162,840
82,495	-1,779	322,242	162,565
83,509	-1,807	322,028	162,411
84,524	-1,683	321,696	162,366
85,539	-1,843	321,430	162,042
86,553	-1,765	321,234	162,014
87,568	-1,804	320,979	161,827
88,582	-1,834	320,797	161,690
89,597	-1,834	320,682	161,616
90,611	-1,577	320,410	161,747
91,626	-1,491	320,248	161,744
92,641	-1,533	320,080	161,599
93,655	-1,572	319,856	161,429
94,670	-1,716	319,556	161,106
95,684	-1,692	319,236	160,956
96,699	-1,659	319,002	160,860
97,714	-1,796	318,722	160,556
98,728	-1,900	318,539	160,336
99,743	-1,852	318,188	160,198
100,757	-1,808	317,954	160,112
101,772	-1,883	317,735	159,907
102,787	-1,767	317,497	159,898
103,801	-1,596	317,341	159,991
104,816	-1,608	317,155	159,870
105,830	-1,598	317,052	159,815
106,845	-1,412	316,854	159,902
107,860	-1,525	316,519	159,596
108,874	-1,497	316,335	159,519
109,889	-1,593	316,148	159,308
110,903	-1,699	315,860	159,034
111,918	-1,658	315,509	158,887
112,933	-1,581	315,321	158,861
113,947	-1,519	315,189	158,847
114,962	-1,495	314,997	158,762
115,976	-1,504	314,747	158,612
116,991	-1,627	314,503	158,342
118,006	-1,634	314,431	158,285
119,020	-1,440	314,110	158,317
120,035	-1,285	313,958	158,393
121,049	-1,370	313,853	158,234
122,064	-1,248	313,429	158,137
123,079	-1,529	313,468	157,842
124,093	-1,515	313,000	157,607
125,108	-1,814	312,759	157,154
126,122	-1,888	312,424	156,892
127,137	-2,050	312,216	156,601
128,151	-1,930	312,053	156,634
129,166	-1,813	311,796	156,615
130,181	-2,002	311,686	156,345
131,195	-1,895	311,433	156,317
132,210	-1,666	311,190	156,424
133,224	-1,637	310,974	156,333
134,239	-1,429	310,874	156,489
135,254	-1,423	310,612	156,348
136,268	-1,639	310,319	155,959
137,283	-1,870	310,023	155,552
138,297	-1,962	309,746	155,303
139,312	-2,046	309,564	155,110
140,327	-1,480	309,339	155,578
141,341	-1,304	309,358	155,759
142,356	-1,193	309,332	155,849
143,370	-1,149	308,900	155,663
144,385	-1,006	308,824	155,761
145,400	-1,359	308,536	155,232
146,414	-1,155	308,199	155,263
147,429	-1,196	308,205	155,209
148,443	-1,049	307,927	155,209
149,458	-1,070	307,747	155,082
150,473	-1,410	307,670	154,674
151,487	-1,132	307,265	154,747
152,502	-1,154	307,043	154,598
153,516	-1,372	306,902	154,286
154,531	-1,204	306,597	154,294
155,546	-1,061	306,415	154,338
156,560	-1,424	306,328	153,902
157,575	-1,420	305,987	153,721
158,589	-1,237	305,632	153,719
159,604	-1,301	305,501	153,573
160,619	-1,174	305,273	153,577
161,633	-1,292	304,965	153,286
162,648	-1,345	304,897	153,183
163,662	-1,033	304,664	153,375
164,677	-1,175	304,444	153,104
165,692	-1,194	304,349	153,023
166,706	-1,215	304,088	152,857
167,721	-1,134	303,800	152,781
168,735	-1,096	303,686	152,749
169,750	-1,175	303,721	152,672
170,764	-0,950	303,415	152,736
171,779	-0,969	303,290	152,640
172,794	-1,104	303,159	152,422
173,808	-1,250	302,695	152,025
174,823	-1,586	302,509	151,573
175,837	-1,680	302,081	151,250
176,852	-1,271	302,179	151,704
177,867	-1,019	302,029	151,872
178,881	-1,010	301,835	151,771
179,896	-0,924	301,732	151,793
180,910	-1,006	301,328	151,493
181,925	-1,077	301,327	151,407
182,940	-1,085	301,255	151,350
183,954	-0,953	300,806	151,244
184,969	-1,124	300,679	150,993
185,983	-1,218	300,515	150,802
186,998	-1,017	300,111	150,789
188,013	-1,044	300,058	150,723
189,027	-1,126	299,830	150,511
190,042	-1,100	299,722	150,470
191,056	-1,078	299,407	150,320
192,071	-0,914	299,339	150,439
193,086	-1,107	299,396	150,258
194,100	-0,824	299,094	150,381
195,115	-0,893	298,646	150,072
196,129	-1,042	298,331	149,750
197,144	-0,967	298,131	149,711
198,159	-0,845	297,889	149,700
199,173	-1,154	297,886	149,373
200,188	-0,976	297,642	149,417
201,202	-0,909	297,240	149,269
202,217	-1,580	296,942	148,432
203,232	-1,719	296,700	148,158
204,246	-1,171	296,612	148,652
205,261	-0,809	296,310	148,850
206,275	-0,987	296,439	148,722
207,290	-1,067	296,218	148,518
208,304	-1,056	296,070	148,441
209,319	-1,088	295,808	148,266
210,334	-1,048	295,619	148,197
211,348	-1,025	295,397	148,096
212,363	-0,787	294,999	148,120
213,377	-0,895	294,955	147,978
214,392	-0,974	294,821	147,818
215,407	-1,188	294,516	147,439
216,421	-1,491	294,363	147,047
217,436	-1,290	294,102	147,104
218,450	-1,325	294,076	147,043
219,465	-1,198	293,930	147,083
220,480	-1,087	293,762	147,096
221,494	-1,204	293,523	146,847
222,509	-1,249	293,250	146,653
223,523	-1,232	293,257	146,660
224,538	-1,026	293,124	146,785
225,553	-0,928	292,793	146,703
226,567	-1,034	292,667	146,521
227,582	-0,826	292,353	146,556
228,596	-0,941	292,352	146,430
229,611	-0,725	292,194	146,551
230,626	-0,725	291,781	146,330
231,640	-1,258	291,482	145,643
232,655	-1,681	291,144	145,045
233,669	-1,821	290,966	144,807
234,684	-1,818	290,646	144,637
235,699	-1,624	290,600	144,792
236,713	-1,533	290,509	144,822
237,728	-1,337	290,473	144,984
238,742	-1,169	290,182	144,990
239,757	-1,190	290,186	144,959
240,772	-0,952	289,883	145,026
241,786	-1,019	289,622	144,818
242,801	-1,253	289,527	144,529
243,815	-1,466	289,322	144,206
244,830	-1,142	289,013	144,355
245,844	-1,229	288,761	144,131
246,859	-1,225	288,697	144,091
247,874	-1,426	288,466	143,767
248,888	-1,467	288,331	143,647
249,903	-1,177	288,276	143,889
250,917	-1,037	288,132	143,939
251,932	-0,941	288,085	143,997
252,947	-0,065	288,030	144,805
253,961	-0,097	287,814	144,653
254,976	0,642	288,283	145,593
255,990	2,708	288,720	147,804
257,005	2,896	288,771	148,000
258,020	3,941	288,931	149,082
259,034	4,220	288,758	149,250
260,049	4,100	288,746	149,114
261,063	3,799	288,335	148,597
262,078	4,317	288,251	149,041
263,093	4,930	288,222	149,605
264,107	4,769	288,089	149,367
265,122	4,885	287,806	149,319
266,136	4,853	287,868	149,307
267,151	4,867	287,591	149,164
268,166	4,680	287,291	148,815
269,180	4,555	287,184	148,626
270,195	4,563	287,039	148,546
271,209	4,793	286,732	148,594
272,224	4,636	286,571	148,347
273,239	4,505	286,252	148,043
274,253	4,500	286,243	148,020
275,268	4,856	286,291	148,373
276,282	4,879	285,826	148,140
277,297	4,880	285,626	148,025
278,312	4,736	285,579	147,849
279,326	4,951	285,206	147,849
280,341	4,606	285,117	147,461
281,355	4,755	284,798	147,424
282,370	4,403	284,633	146,990
283,384	4,417	284,533	146,938
284,399	4,551	284,367	146,968
285,414	4,499	284,163	146,799
286,428	4,710	283,951	146,877
287,443	4,371	283,627	146,375
288,457	4,121	283,504	146,061
289,472	4,134	283,251	145,931
290,487	4,182	283,067	145,868
291,501	4,173	282,868	145,744
292,516	3,931	282,607	145,368
293,530	4,079	282,532	145,456
294,545	4,412	282,456	145,718
295,560	4,499	282,287	145,700
296,574	4,149	281,941	145,179
297,589	4,136	281,955	145,161
298,603	4,696	281,807	145,599
299,618	4,795	281,619	145,582
300,633	4,494	281,328	145,136
301,647	4,276	281,352	144,930
302,662	4,539	281,137	145,054
303,676	4,289	280,794	144,629
304,691	4,170	280,462	144,334
305,706	4,075	280,369	144,185
306,720	3,888	280,062	143,839
307,735	4,093	279,944	143,957
308,749	4,279	279,825	144,056
309,764	4,438	279,642	144,098
310,779	4,076	279,482	143,665
311,793	3,859	279,166	143,288
312,808	3,982	279,052	143,330
313,822	4,031	278,920	143,296
314,837	3,885	278,704	143,036
315,852	3,720	278,523	142,778
316,866	4,002	278,356	142,941
317,881	4,069	278,331	142,977
318,895	3,967	278,016	142,708
319,910	3,885	277,670	142,442
320,925	3,553	277,613	142,092
321,939	4,005	277,535	142,458
322,954	4,093	277,294	142,403
323,968	4,082	277,387	142,428
324,983	4,099	277,119	142,293
325,997	4,209	277,179	142,413
327,012	4,265	276,842	142,279
328,027	4,268	276,556	142,122
329,041	4,209	276,453	142,003
330,056	4,306	276,154	141,926
331,070	4,146	275,984	141,678
332,085	4,168	275,817	141,600
333,100	4,247	275,554	141,525
334,114	4,215	275,364	141,385
335,129	4,022	275,159	141,090
336,143	4,275	275,048	141,253
337,158	4,434	275,123	141,424
338,173	4,326	274,786	141,139
339,187	4,256	274,648	140,992
340,202	4,454	274,389	141,027
341,216	4,149	274,352	140,718
342,231	4,153	274,106	140,582
343,246	4,257	273,887	140,552
344,260	4,067	273,663	140,252
345,275	4,343	273,602	140,459
346,289	4,694	273,679	140,806
347,304	4,566	273,441	140,555
348,319	4,366	273,132	140,202
349,333	4,292	272,949	140,027
350,348	4,547	272,790	140,165
351,362	4,521	272,814	140,141
352,377	4,473	272,448	139,897
353,392	4,491	272,242	139,795
354,406	4,343	272,339	139,699
355,421	190,832	1331,525	1407,373
356,435	154,142	1460,665	1407,506
