DTS Sentinel unit serial number:	SN410029Multiplexer serial number:	ORYXHardware model number:	OX2-SRSoftware version number:	ORYX F/W v4,00 Oryx Data Collector v3.7.2.0data status	okinstallation	B4 Nyhavnadifferential loss correction	single-endedforward channel	channel 2reverse channel	N/Adate	2023/12/19time	14:00:13forward acquisition time	300,00reverse acquisition time	0,00gamma	499,1914k internal	0,3128k external	0,3128temperature offset calibration	1,0000default loss term (dB/km)	0,3820temperature slope calibration	1,0000multiplexer offset coefficient	1,0000multiplexer slope coefficient	1,0000fibre end	0,00T internal ref (°C)	19,38T ext. ref 1 (°C)	4,49T ext. ref 2 (°C)	4,45length (m)	temperature (°C)	Stokes	anti-Stokes-744,400	572,872	0,042	-0,077
-743,385	99,132	-0,164	0,141
-742,371	-55,478	-0,022	0,007
-741,356	800,000	-0,064	0,179
-740,342	800,000	-0,050	-0,123
-739,327	176,383	-0,153	0,165
-738,312	-200,000	-0,008	0,056
-737,298	-101,282	-0,354	0,064
-736,283	-143,017	0,238	0,017
-735,269	-140,268	-0,287	-0,022
-734,254	-103,124	0,081	-0,014
-733,239	-67,190	-0,340	-0,099
-732,225	-200,000	-0,014	-0,126
-731,210	-101,800	0,130	0,023
-730,196	800,000	-0,048	-0,152
-729,181	800,000	0,035	-0,079
-728,167	-113,238	-0,099	-0,014
-727,152	119,227	0,084	-0,077
-726,137	-103,539	-0,187	-0,032
-725,123	-200,000	0,002	-0,084
-724,108	40,805	-0,019	-0,013
-723,094	374,231	-0,089	-0,135
-722,079	-200,000	0,003	-0,012
-721,064	-182,396	-0,099	-0,001
-720,050	9,511	-0,028	-0,016
-719,035	74,758	-0,053	-0,041
-718,021	147,360	-0,050	-0,050
-717,006	-200,000	0,001	-0,213
-715,991	-200,000	-0,016	0,072
-714,977	-32,482	-0,079	-0,033
-713,962	106,216	-0,083	-0,073
-712,948	105,965	0,047	-0,042
-711,933	-31,243	0,040	-0,017
-710,918	25,117	-0,163	0,100
-709,904	-200,000	-0,019	-0,103
-708,889	-29,834	-0,143	0,060
-707,875	-35,686	-0,176	-0,071
-706,860	90,929	0,064	0,053
-705,845	370,534	-0,115	0,173
-704,831	112,666	-0,054	0,049
-703,816	682,765	-0,069	0,135
-702,802	-200,000	-0,015	0,083
-701,787	673,046	-0,056	-0,109
-700,772	800,000	0,020	-0,049
-699,758	89,299	0,082	-0,068
-698,743	344,127	-0,066	-0,096
-697,729	-200,000	-0,023	0,085
-696,714	160,121	-0,034	0,036
-695,699	331,585	0,139	-0,200
-694,685	531,682	0,030	0,053
-693,670	277,056	-0,080	-0,105
-692,656	283,349	-0,062	-0,083
-691,641	800,000	0,020	0,054
-690,627	177,761	-0,029	0,032
-689,612	55,260	-0,097	-0,070
-688,597	-32,043	0,064	-0,026
-687,583	721,817	-0,055	-0,110
-686,568	400,673	-0,077	-0,120
-685,554	-200,000	-0,005	0,092
-684,539	356,581	-0,033	-0,050
-683,524	800,000	-0,005	-0,015
-682,510	-200,000	0,018	-0,138
-681,495	32,812	-0,079	-0,051
-680,481	-163,595	0,136	-0,005
-679,466	-106,834	-0,139	-0,023
-678,451	-200,000	0,001	-0,009
-677,437	-200,000	0,025	0,098
-676,422	-97,379	-0,157	-0,030
-675,408	-157,782	0,145	0,006
-674,393	-200,000	-0,038	0,130
-673,378	-200,000	0,009	-0,058
-672,364	68,628	-0,032	0,024
-671,349	-1,092	-0,095	-0,050
-670,335	337,821	0,019	0,027
-669,320	261,135	-0,031	-0,040
-668,305	46,417	-0,129	-0,089
-667,291	490,193	0,024	-0,040
-666,276	-91,085	-0,064	-0,014
-665,262	7,973	-0,159	-0,088
-664,247	150,468	-0,059	0,060
-663,232	30,858	-0,058	-0,037
-662,218	-200,000	0,020	0,095
-661,203	-80,405	-0,137	-0,034
-660,189	166,427	-0,004	-0,005
-659,174	-200,000	-0,007	-0,059
-658,159	34,191	-0,073	0,047
-657,145	-200,000	-0,022	-0,094
-656,130	284,561	-0,024	-0,033
-655,116	299,494	-0,075	-0,103
-654,101	-137,514	0,155	0,013
-653,086	225,155	-0,024	-0,029
-652,072	197,060	-0,051	-0,057
-651,057	-200,000	-0,012	-0,050
-650,043	-200,000	0,017	-0,149
-649,028	-113,481	0,047	0,007
-648,014	120,718	0,111	0,102
-646,999	24,349	0,023	-0,014
-645,984	-46,010	-0,136	0,049
-644,970	69,376	-0,107	0,081
-643,955	-200,000	-0,015	0,065
-642,941	238,164	-0,089	0,110
-641,926	800,000	-0,031	-0,086
-640,911	-63,485	0,044	-0,013
-639,897	-200,000	-0,007	-0,130
-638,882	-11,252	-0,036	0,018
-637,868	-200,000	0,015	0,118
-636,853	278,981	-0,028	0,037
-635,838	-106,827	-0,040	0,006
-634,824	467,254	-0,045	-0,074
-633,809	22,979	0,030	0,018
-632,795	-154,370	0,137	0,007
-631,780	-200,000	-0,017	-0,141
-630,765	612,361	-0,071	-0,132
-629,751	749,758	-0,089	-0,179
-628,736	157,499	0,065	-0,067
-627,722	709,530	0,071	-0,139
-626,707	567,330	-0,072	-0,130
-625,692	762,639	-0,056	0,112
-624,678	-93,890	0,074	-0,015
-623,663	800,000	0,069	0,148
-622,649	-53,803	0,094	-0,032
-621,634	-95,375	-0,200	-0,040
-620,619	-200,000	-0,024	-0,150
-619,605	800,000	0,029	-0,077
-618,590	800,000	0,067	0,165
-617,576	10,294	-0,045	0,025
-616,561	-200,000	0,011	0,089
-615,546	800,000	0,012	0,037
-614,532	60,282	-0,097	-0,071
-613,517	18,086	-0,097	-0,057
-612,503	47,131	0,123	-0,085
-611,488	-200,000	0,032	0,119
-610,474	-200,000	-0,004	0,078
-609,459	-21,365	-0,118	-0,053
-608,444	70,448	-0,162	-0,124
-607,430	93,620	0,048	-0,041
-606,415	227,524	-0,026	0,032
-605,401	304,725	0,114	-0,157
-604,386	778,190	-0,035	0,071
-603,371	-200,000	0,011	-0,049
-602,357	174,095	0,072	-0,077
-601,342	95,021	-0,052	0,043
-600,328	800,000	-0,044	-0,105
-599,313	574,258	0,042	0,076
-598,298	800,000	0,050	-0,142
-597,284	-200,000	0,001	0,081
-596,269	98,996	-0,112	0,096
-595,255	-42,667	-0,092	0,035
-594,240	-35,225	0,085	0,034
-593,225	-143,229	-0,112	0,008
-592,211	12,328	-0,096	-0,055
-591,196	800,000	0,060	-0,142
-590,182	-200,000	0,003	-0,068
-589,167	-200,000	-0,030	-0,104
-588,152	800,000	-0,015	-0,050
-587,138	24,796	0,098	-0,060
-586,123	372,960	-0,080	-0,120
-585,109	51,020	0,074	0,052
-584,094	286,027	0,097	0,130
-583,079	33,534	-0,070	-0,045
-582,065	189,955	0,109	-0,121
-581,050	521,250	-0,061	-0,107
-580,036	274,610	0,060	0,079
-579,021	-23,673	-0,131	0,058
-578,006	619,908	-0,092	-0,172
-576,992	-200,000	-0,007	0,064
-575,977	-67,521	0,099	0,029
-574,963	-66,099	0,060	0,018
-573,948	112,406	-0,125	0,112
-572,934	-14,033	0,043	-0,020
-571,919	224,511	-0,049	-0,058
-570,904	-200,000	0,012	-0,084
-569,890	800,000	-0,040	-0,097
-568,875	43,464	-0,039	-0,026
-567,861	19,453	-0,017	-0,010
-566,846	-97,268	0,117	-0,022
-565,831	-150,911	-0,157	-0,009
-564,817	-45,767	-0,139	-0,050
-563,802	701,272	0,072	-0,141
-562,788	563,035	-0,051	0,091
-561,773	276,398	0,093	0,122
-560,758	92,893	0,083	0,069
-559,744	800,000	-0,031	0,092
-558,729	-200,000	0,008	0,033
-557,715	-28,248	0,083	0,035
-556,700	87,235	-0,088	-0,072
-555,685	-62,844	-0,098	0,030
-554,671	760,532	0,025	0,050
-553,656	-144,772	0,154	0,010
-552,642	800,000	0,039	0,108
-551,627	800,000	-0,027	0,077
-550,612	-143,748	-0,074	-0,005
-549,598	800,000	-0,057	-0,172
-548,583	800,000	0,003	0,006
-547,569	26,559	-0,008	-0,005
-546,554	-126,175	0,059	0,006
-545,539	175,349	0,107	0,115
-544,525	-141,528	0,081	-0,006
-543,510	-200,000	0,010	0,111
-542,496	-200,000	-0,000	-0,063
-541,481	106,588	-0,091	0,080
-540,466	200,338	0,046	0,052
-539,452	800,000	0,015	0,047
-538,437	87,106	0,111	0,090
-537,423	800,000	0,026	0,056
-536,408	-200,000	0,000	0,025
-535,393	-82,047	-0,062	0,015
-534,379	-182,902	-0,111	-0,001
-533,364	-200,000	0,006	-0,074
-532,350	-200,000	-0,030	-0,105
-531,335	-200,000	0,005	0,019
-530,321	-200,000	0,002	0,033
-529,306	800,000	-0,050	0,125
-528,291	183,871	-0,068	-0,075
-527,277	800,000	-0,016	-0,036
-526,262	474,216	0,011	-0,018
-525,248	-15,095	0,043	-0,020
-524,233	-33,770	-0,129	0,052
-523,218	-200,000	0,002	0,097
-522,204	800,000	-0,020	0,061
-521,189	-200,000	-0,017	0,168
-520,175	-44,311	-0,113	0,042
-519,160	800,000	-0,070	-0,166
-518,145	291,979	0,081	-0,109
-517,131	178,731	0,033	0,036
-516,116	150,117	0,057	0,057
-515,102	85,216	-0,100	-0,081
-514,087	35,741	0,046	-0,030
-513,072	-200,000	0,011	-0,063
-512,058	439,185	-0,034	-0,055
-511,043	-6,703	0,060	0,030
-510,029	-200,000	0,007	0,030
-509,014	654,916	0,082	0,156
-507,999	135,679	0,060	0,058
-506,985	-56,647	-0,121	-0,039
-505,970	469,300	0,035	0,058
-504,956	800,000	0,021	0,066
-503,941	-139,040	-0,094	0,007
-502,926	-52,779	-0,039	0,013
-501,912	191,748	0,070	-0,078
-500,897	-200,000	0,005	-0,087
-499,883	141,551	0,054	-0,053
-498,868	151,146	0,031	-0,031
-497,853	-8,240	0,063	0,031
-496,839	-200,000	-0,003	-0,042
-495,824	142,485	-0,070	0,069
-494,810	800,000	0,005	0,013
-493,795	-162,090	0,045	-0,002
-492,781	325,855	0,048	0,068
-491,766	-29,048	-0,098	-0,041
-490,751	478,167	0,043	-0,072
-489,737	389,498	0,025	0,038
-488,722	275,197	-0,013	0,016
-487,708	800,000	0,037	0,112
-486,693	-200,000	0,021	-0,109
-485,678	274,313	0,074	0,096
-484,664	59,868	-0,075	0,055
-483,649	-200,000	0,000	-0,083
-482,635	354,526	0,039	-0,058
-481,620	-97,850	-0,033	0,006
-480,605	-56,685	0,079	-0,025
-479,591	-200,000	-0,015	0,100
-478,576	307,039	-0,030	0,041
-477,562	-200,000	-0,005	-0,045
-476,547	-200,000	-0,010	0,047
-475,532	782,028	-0,027	0,054
-474,518	-114,804	0,041	-0,006
-473,503	139,375	0,058	0,056
-472,489	-14,876	0,061	-0,029
-471,474	72,032	-0,075	-0,057
-470,459	-20,433	-0,029	-0,013
-469,445	95,257	-0,099	0,083
-468,430	-56,986	-0,167	0,054
-467,416	461,911	0,070	0,116
-466,401	405,371	0,022	0,034
-465,386	-200,000	0,015	-0,070
-464,372	800,000	0,025	0,068
-463,357	800,000	0,027	-0,066
-462,343	-200,000	-0,008	-0,054
-461,328	-27,520	0,056	0,024
-460,313	-200,000	-0,004	-0,087
-459,299	268,366	0,064	0,083
-458,284	39,536	0,122	0,080
-457,270	29,719	0,030	-0,018
-456,255	691,383	-0,035	0,067
-455,241	138,880	0,105	-0,102
-454,226	142,141	-0,103	-0,101
-453,211	800,000	-0,022	0,061
-452,197	152,490	-0,112	0,113
-451,182	-81,803	0,087	0,021
-450,168	35,877	-0,152	0,098
-449,153	800,000	0,033	0,077
-448,138	-174,266	-0,202	-0,004
-447,124	191,933	-0,045	-0,050
-446,109	-131,370	0,119	0,011
-445,095	-106,130	-0,015	-0,002
-444,080	215,510	0,114	0,133
-443,065	555,389	0,063	0,112
-442,051	266,318	0,063	0,081
-441,036	82,878	-0,080	0,064
-440,022	164,820	-0,008	0,008
-439,007	-142,441	-0,092	0,007
-437,992	-78,519	0,120	0,030
-436,978	-200,000	0,020	0,087
-435,963	175,048	0,088	0,094
-434,949	-200,000	-0,018	0,070
-433,934	61,655	-0,135	-0,099
-432,919	675,245	-0,028	-0,053
-431,905	47,035	0,050	0,034
-430,890	-200,000	0,021	-0,071
-429,876	800,000	0,017	-0,054
-428,861	-200,000	-0,028	0,101
-427,846	611,820	0,031	-0,057
-426,832	800,000	-0,069	-0,158
-425,817	-35,109	0,072	0,029
-424,803	-200,000	0,012	-0,091
-423,788	-21,285	0,102	-0,046
-422,773	-26,060	0,034	-0,015
-421,759	-200,000	-0,015	0,094
-420,744	-99,070	0,079	0,015
-419,730	266,170	-0,141	-0,181
-418,715	-166,834	-0,063	-0,002
-417,701	-29,107	-0,088	0,037
-416,686	133,340	0,075	-0,072
-415,671	-137,373	0,116	-0,009
-414,657	-200,000	0,010	0,062
-413,642	-200,000	0,017	0,096
-412,628	289,652	-0,069	0,092
-411,613	800,000	-0,046	-0,139
-410,598	20,442	-0,099	0,059
-409,584	-200,000	0,001	0,008
-408,569	16,806	0,192	0,111
-407,555	248,864	-0,015	-0,018
-406,540	800,000	-0,043	-0,113
-405,525	-200,000	-0,004	0,130
-404,511	-200,000	-0,021	-0,083
-403,496	800,000	-0,025	-0,058
-402,482	-148,563	-0,085	-0,005
-401,467	54,829	-0,041	-0,029
-400,452	512,274	-0,023	0,040
-399,438	-200,000	0,002	0,049
-398,423	373,322	0,034	0,051
-397,409	-158,464	-0,101	-0,004
-396,394	-126,099	-0,038	0,004
-395,379	800,000	0,068	0,194
-394,365	-42,082	-0,046	-0,017
-393,350	193,996	0,140	0,156
-392,336	3,307	0,116	0,062
-391,321	-104,817	0,066	0,011
-390,306	-144,791	0,066	-0,004
-389,292	-82,839	-0,114	-0,027
-388,277	-200,000	-0,001	0,018
-387,263	10,374	0,107	0,060
-386,248	800,000	-0,055	0,161
-385,233	-50,225	0,082	0,028
-384,219	-127,788	0,107	-0,011
-383,204	-137,773	-0,142	-0,012
-382,190	353,220	-0,069	-0,101
-381,175	242,358	0,085	-0,104
-380,160	-96,897	0,048	-0,009
-379,146	-163,674	0,112	0,004
-378,131	-36,028	0,104	-0,041
-377,117	-200,000	0,004	-0,043
-376,102	84,351	-0,069	-0,055
-375,088	-200,000	0,000	-0,049
-374,073	36,072	-0,034	0,022
-373,058	212,092	-0,037	-0,043
-372,044	-200,000	-0,036	0,139
-371,029	376,392	0,041	0,061
-370,015	384,923	0,044	-0,067
-369,000	-84,873	0,104	-0,024
-367,985	-200,000	0,017	-0,108
-366,971	688,521	0,032	0,062
-365,956	-165,451	0,126	0,004
-364,942	-2,912	0,092	-0,047
-363,927	60,082	-0,085	0,062
-362,912	136,162	0,128	0,123
-361,898	800,000	0,029	-0,082
-360,883	-200,000	-0,007	-0,033
-359,869	64,057	0,026	0,019
-358,854	800,000	0,025	-0,076
-357,839	-45,531	-0,005	0,002
-356,825	-77,715	0,062	-0,016
-355,810	-33,987	-0,093	0,037
-354,796	-54,018	-0,113	0,037
-353,781	800,000	-0,048	-0,101
-352,766	49,133	-0,068	0,047
-351,752	-83,672	0,102	0,024
-350,737	164,395	-0,053	0,055
-349,723	622,207	0,033	0,061
-348,708	94,897	0,119	-0,099
-347,693	-200,000	0,005	0,054
-346,679	93,773	0,095	-0,079
-345,664	152,189	-0,101	0,101
-344,650	800,000	0,079	0,171
-343,635	600,762	0,033	0,060
-342,620	280,978	0,046	0,061
-341,606	135,705	-0,128	0,123
-340,591	202,448	-0,067	-0,075
-339,577	706,518	0,059	0,115
-338,562	388,542	0,074	-0,113
-337,548	-200,000	0,018	-0,145
-336,533	-5,784	0,095	-0,047
-335,518	83,258	0,060	0,048
-334,504	800,000	-0,022	0,058
-333,489	53,537	0,121	-0,085
-332,475	-134,509	-0,093	0,008
-331,460	-200,000	0,002	-0,060
-330,445	-43,476	-0,086	-0,032
-329,431	-200,000	-0,007	0,096
-328,416	87,983	0,091	-0,074
-327,402	-200,000	0,021	0,083
-326,387	-200,000	-0,011	0,038
-325,372	20,765	-0,097	0,057
-324,358	-45,365	0,089	-0,032
-323,343	27,361	0,133	-0,082
-322,329	-107,709	0,084	0,013
-321,314	438,134	-0,078	0,124
-320,299	-58,639	-0,060	0,019
-319,285	31,322	-0,077	0,048
-318,270	-29,578	0,086	-0,036
-317,256	-4,654	-0,097	-0,049
-316,241	-9,237	-0,078	0,038
-315,226	-144,373	0,050	0,003
-314,212	554,237	0,020	0,035
-313,197	-200,000	-0,014	-0,072
-312,183	105,494	0,090	0,078
-311,168	800,000	-0,021	-0,054
-310,153	-81,120	0,164	-0,039
-309,139	-200,000	0,007	0,030
-308,124	800,000	-0,026	0,059
-307,110	22,281	0,050	-0,030
-306,095	-200,000	-0,014	0,126
-305,080	800,000	0,026	0,076
-304,066	800,000	-0,009	-0,027
-303,051	115,922	-0,123	-0,110
-302,037	-74,970	-0,049	-0,013
-301,022	164,390	0,094	0,097
-300,008	-38,598	0,092	-0,035
-298,993	-127,495	0,043	0,005
-297,978	-81,047	-0,191	0,046
-296,964	67,417	-0,059	-0,044
-295,949	800,000	-0,003	0,008
-294,935	-106,846	-0,043	-0,007
-293,920	-54,305	0,118	-0,039
-292,905	97,313	0,030	0,025
-291,891	-20,818	0,073	0,032
-290,876	175,296	-0,047	0,050
-289,862	-200,000	-0,009	0,082
-288,847	-107,638	-0,052	0,008
-287,832	133,637	-0,099	-0,094
-286,818	-200,000	0,017	-0,152
-285,803	-53,355	0,130	0,043
-284,789	38,031	0,111	0,072
-283,774	-200,000	-0,003	0,064
-282,759	-200,000	0,007	-0,035
-281,745	800,000	-0,023	-0,060
-280,730	461,907	-0,067	-0,109
-279,716	-200,000	0,014	0,048
-278,701	263,367	-0,048	0,061
-277,686	-131,548	0,109	0,010
-276,672	-25,090	0,052	0,023
-275,657	127,691	-0,043	-0,040
-274,643	-53,052	-0,035	-0,012
-273,628	404,548	-0,099	-0,154
-272,613	-200,000	0,014	-0,049
-271,599	-200,000	-0,005	-0,064
-270,584	-29,651	0,077	0,032
-269,570	216,513	0,053	0,061
-268,555	625,971	-0,010	-0,019
-267,540	0,198	0,069	-0,036
-266,526	-200,000	-0,033	-0,115
-265,511	-50,449	0,043	0,015
-264,497	-200,000	0,011	-0,053
-263,482	332,855	0,088	0,124
-262,467	-200,000	-0,050	0,181
-261,453	-200,000	0,022	-0,097
-260,438	1,605	-0,137	-0,072
-259,424	315,380	-0,069	-0,095
-258,409	720,121	-0,051	-0,099
-257,395	232,697	-0,037	0,045
-256,380	-82,148	0,076	-0,018
-255,365	-200,000	-0,001	-0,025
-254,351	287,352	0,012	0,016
-253,336	-200,000	0,001	-0,013
-252,322	-200,000	0,000	-0,071
-251,307	-200,000	-0,006	-0,143
-250,292	258,117	0,065	0,082
-249,278	103,697	0,077	0,066
-248,263	-159,878	-0,053	-0,002
-247,249	39,996	0,029	0,019
-246,234	-28,457	-0,060	0,025
-245,219	-200,000	0,033	-0,121
-244,205	800,000	0,041	-0,108
-243,190	-2,612	-0,104	-0,053
-242,176	-21,034	0,116	0,052
-241,161	800,000	0,016	0,045
-240,146	142,625	-0,075	-0,073
-239,132	-78,420	0,078	-0,019
-238,117	800,000	-0,042	-0,112
-237,103	-200,000	0,017	0,087
-236,088	-108,230	0,199	-0,031
-235,073	-39,418	-0,062	-0,024
-234,059	259,780	0,078	-0,098
-233,044	-69,535	-0,122	-0,034
-232,030	-200,000	-0,010	-0,048
-231,015	639,385	-0,049	-0,091
-230,000	220,481	-0,151	-0,177
-228,986	431,077	-0,058	-0,093
-227,971	-10,079	0,163	-0,079
-226,957	-31,560	-0,082	0,033
-225,942	193,044	-0,092	0,102
-224,927	27,208	-0,079	0,048
-223,913	-200,000	-0,008	0,077
-222,898	-200,000	0,057	-0,200
-221,884	-176,938	0,161	0,003
-220,869	226,499	0,036	-0,042
-219,855	-100,137	0,154	0,028
-218,840	53,914	-0,025	-0,017
-217,825	-200,000	0,088	0,000
-216,811	-200,000	0,002	-0,083
-215,796	66,134	-0,069	-0,051
-214,782	28,109	0,062	-0,038
-213,767	-20,154	0,158	-0,071
-212,752	-200,000	0,048	0,159
-211,738	-200,000	-0,015	0,070
-210,723	-158,322	-0,205	-0,009
-209,709	800,000	-0,060	-0,134
-208,694	439,308	-0,014	0,022
-207,679	-63,393	-0,067	0,020
-206,665	-12,500	-0,078	-0,037
-205,650	-87,663	-0,044	-0,010
-204,636	800,000	-0,046	0,102
-203,621	-81,517	-0,020	0,005
-202,606	-200,000	0,015	0,079
-201,592	800,000	0,029	-0,059
-200,577	307,112	0,070	-0,096
-199,563	-116,654	-0,020	-0,003
-198,548	800,000	0,020	0,057
-197,533	253,495	-0,074	0,093
-196,519	-200,000	-0,007	-0,064
-195,504	48,646	0,180	0,123
-194,490	66,417	-0,071	-0,053
-193,475	210,847	-0,027	-0,031
-192,460	390,861	-0,154	0,234
-191,446	-82,268	0,044	0,010
-190,431	-96,098	0,040	-0,008
-189,417	175,887	0,042	-0,044
-188,402	171,435	-0,069	-0,073
-187,387	-38,552	0,062	-0,024
-186,373	154,910	0,061	-0,061
-185,358	800,000	0,051	0,118
-184,344	-200,000	0,029	0,123
-183,329	-200,000	0,005	0,022
-182,315	-113,248	0,071	-0,010
-181,300	151,769	-0,123	-0,122
-180,285	224,178	-0,146	0,172
-179,271	485,155	0,052	0,087
-178,256	98,005	-0,085	-0,071
-177,242	174,487	-0,081	0,086
-176,227	140,871	-0,093	-0,090
-175,212	800,000	-0,027	-0,057
-174,198	-200,000	0,016	-0,053
-173,183	209,292	0,038	0,043
-172,169	-66,297	-0,041	-0,012
-171,154	29,925	0,017	-0,010
-170,139	266,723	-0,018	0,023
-169,125	800,000	0,034	-0,079
-168,110	307,062	-0,110	0,150
-167,096	-200,000	-0,011	-0,038
-166,081	-140,992	-0,154	-0,011
-165,066	-127,699	-0,065	0,007
-164,052	800,000	-0,003	-0,009
-163,037	258,820	0,048	0,060
-162,023	-32,696	0,128	0,052
-161,008	-200,000	-0,010	-0,047
-159,993	95,749	-0,081	0,067
-158,979	68,276	-0,094	-0,070
-157,964	-200,000	-0,048	-0,172
-156,950	204,554	-0,087	-0,098
-155,935	-200,000	0,015	-0,053
-154,920	800,000	0,036	0,090
-153,906	-161,262	0,067	-0,002
-152,891	-86,055	-0,107	0,024
-151,877	392,401	-0,024	-0,036
-150,862	-53,187	-0,023	0,008
-149,847	197,836	-0,087	-0,097
-148,833	20,772	0,136	-0,080
-147,818	800,000	-0,077	0,156
-146,804	75,230	-0,061	-0,047
-145,789	-51,508	0,136	0,046
-144,775	800,000	0,041	-0,133
-143,760	-21,856	0,030	0,013
-142,745	516,665	0,025	-0,042
-141,731	-200,000	0,030	-0,149
-140,716	297,460	-0,060	-0,080
-139,702	-69,084	-0,167	0,046
-138,687	800,000	0,045	0,124
-137,672	-200,000	-0,002	0,035
-136,658	15,769	-0,056	0,032
-135,643	137,304	0,064	-0,061
-134,629	-62,373	-0,129	0,039
-133,614	-200,000	-0,025	0,093
-132,599	-89,382	0,043	-0,009
-131,585	-62,755	-0,051	0,015
-130,570	-200,000	0,020	-0,092
-129,556	181,932	0,037	0,039
-128,541	800,000	-0,048	0,101
-127,526	215,506	0,056	0,064
-126,512	800,000	0,040	0,089
-125,497	-108,291	-0,063	-0,010
-124,483	115,995	0,074	0,066
-123,468	346,966	0,062	0,089
-122,453	275,967	0,048	-0,062
-121,439	48,515	0,065	-0,044
-120,424	-134,858	-0,036	0,003
-119,410	10,002	0,047	0,026
-118,395	-141,548	0,017	-0,001
-117,380	-1,276	0,105	-0,054
-116,366	-47,658	-0,106	-0,037
-115,351	771,242	0,026	-0,052
-114,337	-140,657	0,036	0,003
-113,322	800,000	-0,013	0,033
-112,307	9,084	-0,098	-0,054
-111,293	290,902	0,087	0,115
-110,278	800,000	-0,039	0,100
-109,264	78,947	0,051	0,040
-108,249	426,088	0,033	-0,052
-107,234	40,042	0,100	-0,065
-106,220	122,346	0,106	-0,096
-105,205	9,193	-0,064	-0,035
-104,191	-114,082	0,035	0,005
-103,176	-200,000	-0,015	0,076
-102,162	800,000	-0,041	0,096
-101,147	-73,920	-0,050	-0,013
-100,132	-133,947	-0,167	0,015
-99,118	39,205	0,056	-0,037
-98,103	83,202	0,072	0,057
-97,089	68,506	0,153	0,114
-96,074	-200,000	0,016	0,108
-95,059	-200,000	0,039	0,163
-94,045	-145,696	-0,058	-0,004
-93,030	-122,164	0,120	0,014
-92,016	11,851	-0,062	-0,035
-91,001	800,000	0,037	-0,107
-89,986	111,418	0,089	0,078
-88,972	-40,424	-0,064	-0,024
-87,957	60,750	0,059	-0,042
-86,943	-50,480	0,093	0,032
-85,928	-200,000	0,004	0,083
-84,913	210,328	0,121	-0,138
-83,899	-104,656	-0,169	0,028
-82,884	-200,000	-0,016	0,136
-81,870	-200,000	-0,005	0,073
-80,855	800,000	0,046	0,107
-79,840	-109,116	-0,091	0,014
-78,826	0,358	0,154	0,080
-77,811	800,000	-0,040	-0,085
-76,797	55,290	-0,071	0,050
-75,782	-69,572	-0,012	0,003
-74,767	-63,166	-0,184	0,055
-73,753	-62,316	0,034	-0,010
-72,738	-98,608	-0,124	0,023
-71,724	53,969	0,040	0,028
-70,709	-24,028	0,070	0,030
-69,694	4,753	-0,106	0,057
-68,680	-2,981	0,061	-0,031
-67,665	53,212	0,042	0,029
-66,651	-200,000	0,009	0,069
-65,636	-140,771	-0,079	-0,006
-64,622	-14,615	0,054	-0,025
-63,607	-200,000	0,001	0,014
-62,592	-71,891	-0,118	0,032
-61,578	-157,125	0,140	-0,006
-60,563	800,000	-0,018	0,057
-59,549	104,311	-0,115	0,098
-58,534	-69,739	-1,731	-0,476
-57,519	673,908	-0,711	-1,342
-56,505	-200,000	-0,974	-4,526
-55,490	-146,692	0,542	-0,034
-54,476	800,000	4,929	11,819
-53,461	-200,000	15,218	271,437
-52,446	-200,000	696,345	2256,625
-51,432	589,725	1615,872	2898,355
-50,417	121,000	1624,032	1463,981
-49,403	82,586	1281,428	1007,451
-48,388	37,328	1022,603	655,215
-47,373	22,127	983,656	580,169
-46,359	21,119	972,590	570,307
-45,344	19,653	968,237	562,929
-44,330	19,667	966,912	562,183
-43,315	19,452	965,404	560,583
-42,300	19,410	964,425	559,855
-41,286	19,448	963,203	559,245
-40,271	19,406	962,460	558,656
-39,257	19,419	961,534	558,139
-38,242	19,456	960,625	557,708
-37,227	19,426	959,908	557,173
-36,213	19,407	959,073	556,605
-35,198	19,383	958,018	555,893
-34,184	19,470	957,408	555,800
-33,169	19,431	956,312	555,014
-32,154	19,464	955,246	554,479
-31,140	19,422	954,641	553,972
-30,125	19,469	953,872	553,656
-29,111	19,454	952,971	553,060
-28,096	19,441	952,377	552,653
-27,082	19,385	951,762	552,093
-26,067	19,399	950,933	551,636
-25,052	19,413	950,196	551,233
-24,038	19,427	949,548	550,880
-23,023	19,417	948,884	550,440
-22,009	19,432	948,294	550,124
-20,994	19,479	947,561	549,826
-19,979	19,382	947,100	549,226
-18,965	19,416	946,136	548,754
-17,950	19,365	945,861	548,409
-16,936	19,313	945,137	547,801
-15,921	19,315	944,400	547,360
-14,906	19,324	943,771	547,004
-13,892	19,319	942,988	546,510
-12,877	19,258	942,447	545,982
-11,863	19,265	941,819	545,618
-10,848	19,333	941,210	545,461
-9,833	19,355	940,887	545,323
-8,819	19,330	940,300	544,881
-7,804	19,330	939,647	544,480
-6,790	19,317	938,917	543,996
-5,775	19,308	938,385	543,636
-4,760	19,327	937,764	543,316
-3,746	19,298	936,986	542,750
-2,731	19,141	936,381	541,881
-1,717	19,090	935,817	541,372
-0,702	19,143	935,199	541,161
0,313	18,899	934,476	540,788
1,327	21,367	932,292	547,259
2,342	28,769	806,449	493,431
3,356	23,058	506,715	300,282
4,371	-0,832	374,047	191,180
5,386	-3,474	357,491	179,450
6,400	-4,751	351,679	174,970
7,415	-5,325	349,219	173,039
8,429	-5,252	347,747	172,382
9,444	-5,384	346,798	171,738
10,459	-5,381	346,229	171,445
11,473	-5,297	345,445	171,141
12,488	-5,398	344,950	170,761
13,502	-5,415	344,394	170,450
14,517	-5,321	343,896	170,300
15,531	-5,394	343,570	170,037
16,546	-5,250	343,046	169,933
17,561	-5,224	342,592	169,724
18,575	-5,293	342,214	169,439
19,590	-5,308	341,750	169,177
20,604	-5,372	341,609	169,017
21,619	-5,401	341,095	168,713
22,634	-5,345	340,788	168,612
23,648	-5,250	340,275	168,455
24,663	-5,307	340,027	168,250
25,677	-5,214	339,795	168,230
26,692	-5,222	339,573	168,095
27,707	-5,337	339,248	167,785
28,721	-5,166	338,777	167,736
29,736	-5,383	338,613	167,387
30,750	-5,292	338,246	167,296
31,765	-5,311	337,986	167,131
32,780	-5,280	337,862	167,091
33,794	-5,396	337,541	166,783
34,809	-5,214	337,112	166,766
35,823	-5,177	336,780	166,631
36,838	-5,295	336,557	166,369
37,853	-5,436	336,414	166,120
38,867	-5,363	336,064	166,016
39,882	-5,265	335,746	165,959
40,896	-5,310	335,593	165,815
41,911	-5,337	335,113	165,532
42,926	-5,284	334,975	165,511
43,940	-5,167	334,422	165,358
44,955	-5,288	334,351	165,168
45,969	-5,256	334,013	165,023
46,984	-5,345	333,985	164,892
47,999	-5,165	333,671	164,930
49,013	-5,289	333,460	164,668
50,028	-5,303	333,149	164,484
51,042	-5,407	332,991	164,272
52,057	-5,270	332,602	164,222
53,071	-5,232	332,377	164,140
54,086	-5,271	332,008	163,898
55,101	-5,232	332,135	163,991
56,115	-5,352	331,655	163,603
57,130	-5,450	331,496	163,398
58,144	-5,356	331,085	163,289
59,159	-5,223	330,648	163,209
60,174	-5,418	330,457	162,878
61,188	-5,299	330,198	162,871
62,203	-5,311	330,088	162,789
63,217	-5,404	329,961	162,607
64,232	-5,311	329,420	162,430
65,247	-5,352	329,135	162,229
66,261	-5,402	328,932	162,059
67,276	-5,230	328,550	162,049
68,290	-5,197	328,527	162,061
69,305	-5,348	328,155	161,693
70,320	-5,180	327,843	161,714
71,334	-5,343	327,656	161,424
72,349	-5,204	327,361	161,420
73,363	-5,252	327,093	161,220
74,378	-5,145	326,837	161,199
75,393	-5,236	326,618	160,976
76,407	-5,293	326,425	160,802
77,422	-5,179	326,170	160,789
78,436	-5,212	326,014	160,661
79,451	-5,219	325,594	160,432
80,466	-5,176	325,343	160,342
81,480	-5,198	325,117	160,192
82,495	-5,411	324,996	159,881
83,509	-5,256	324,734	159,909
84,524	-5,131	324,448	159,894
85,539	-5,332	324,184	159,527
86,553	-5,216	323,869	159,486
87,568	-5,265	323,683	159,326
88,582	-5,325	323,572	159,191
89,597	-5,250	323,111	159,032
90,611	-5,164	322,964	159,041
91,626	-5,270	322,695	158,777
92,641	-5,153	322,552	158,821
93,655	-5,251	322,285	158,568
94,670	-5,334	322,028	158,335
95,684	-5,402	321,815	158,143
96,699	-5,325	321,605	158,109
97,714	-5,291	321,399	158,032
98,728	-5,204	321,121	157,977
99,743	-5,268	320,985	157,826
100,757	-5,156	320,547	157,718
101,772	-5,193	320,312	157,548
102,787	-5,148	320,171	157,514
103,801	-5,276	319,964	157,258
104,816	-5,341	319,722	157,054
105,830	-5,174	319,645	157,185
106,845	-5,290	319,380	156,913
107,860	-5,277	319,041	156,748
108,874	-5,176	318,665	156,659
109,889	-5,224	318,506	156,515
110,903	-5,138	318,442	156,563
111,918	-5,232	318,008	156,233
112,933	-5,119	317,726	156,203
113,947	-5,167	317,598	156,074
114,962	-5,292	317,459	155,857
115,976	-5,389	317,370	155,693
116,991	-5,377	317,146	155,583
118,006	-5,019	316,621	155,699
119,020	-5,328	316,669	155,375
120,035	-5,251	316,392	155,308
121,049	-5,231	316,265	155,253
122,064	-5,234	315,879	155,047
123,079	-5,121	315,758	155,095
124,093	-5,198	315,487	154,866
125,108	-5,235	315,176	154,659
126,122	-5,242	314,983	154,543
127,137	-5,030	314,790	154,662
128,151	-5,168	314,555	154,385
129,166	-5,118	314,351	154,324
130,181	-5,046	313,977	154,205
131,195	-5,147	313,775	153,984
132,210	-5,330	313,646	153,711
133,224	-5,231	313,392	153,678
134,239	-5,187	313,093	153,565
135,254	-5,141	312,986	153,548
136,268	-5,108	312,728	153,443
137,283	-5,100	312,387	153,270
138,297	-5,159	312,154	153,080
139,312	-5,310	311,941	152,801
140,327	-5,238	311,632	152,713
141,341	-5,182	311,503	152,695
142,356	-5,270	311,421	152,548
143,370	-5,148	311,190	152,550
144,385	-5,084	310,930	152,477
145,400	-5,269	310,714	152,162
146,414	-5,207	310,412	152,065
147,429	-5,035	310,156	152,108
148,443	-5,159	309,914	151,846
149,458	-5,176	309,818	151,767
150,473	-5,094	309,624	151,745
151,487	-5,177	309,458	151,562
152,502	-5,155	309,205	151,448
153,516	-5,186	308,953	151,278
154,531	-5,233	308,681	151,082
155,546	-5,300	308,628	150,973
156,560	-5,168	308,250	150,913
157,575	-5,126	308,029	150,835
158,589	-5,205	307,796	150,624
159,604	-5,157	307,619	150,575
160,619	-5,097	307,477	150,555
161,633	-5,212	307,160	150,267
162,648	-5,219	306,924	150,130
163,662	-5,068	306,784	150,206
164,677	-5,108	306,626	150,072
165,692	-5,033	306,421	150,038
166,706	-5,085	306,116	149,821
167,721	-5,075	305,827	149,676
168,735	-5,115	305,845	149,630
169,750	-5,171	305,742	149,508
170,764	-5,092	305,322	149,372
171,779	-5,074	305,286	149,360
172,794	-5,249	305,051	149,050
173,808	-5,130	304,729	149,003
174,823	-5,080	304,603	148,979
175,837	-5,077	304,327	148,834
176,852	-5,226	304,242	148,625
177,867	-5,076	303,976	148,636
178,881	-5,154	303,727	148,422
179,896	-5,167	303,601	148,333
180,910	-5,102	303,406	148,292
181,925	-5,175	303,082	148,045
182,940	-5,103	302,833	147,984
183,954	-5,112	302,782	147,937
184,969	-5,130	302,641	147,836
185,983	-5,039	302,453	147,824
186,998	-5,095	302,196	147,628
188,013	-5,159	301,985	147,447
189,027	-5,127	301,720	147,337
190,042	-5,240	301,565	147,133
191,056	-5,057	301,238	147,147
192,071	-5,216	301,199	146,952
193,086	-5,185	300,880	146,815
194,100	-5,148	300,684	146,744
195,115	-5,069	300,473	146,709
196,129	-5,106	300,253	146,550
197,144	-5,080	300,001	146,441
198,159	-5,143	299,740	146,236
199,173	-4,998	299,503	146,255
200,188	-5,144	299,211	145,951
201,202	-5,351	299,216	145,731
202,217	-5,192	299,016	145,781
203,232	-5,084	298,807	145,775
204,246	-5,050	298,387	145,592
205,261	-4,881	298,224	145,670
206,275	-5,044	298,132	145,447
207,290	-5,102	298,115	145,368
208,304	-5,068	297,824	145,247
209,319	-5,077	297,613	145,123
210,334	-5,136	297,378	144,936
211,348	-5,228	297,344	144,813
212,363	-4,950	296,929	144,878
213,377	-5,034	296,735	144,685
214,392	-5,193	296,604	144,449
215,407	-5,082	296,439	144,467
216,421	-5,189	296,207	144,234
217,436	-4,979	295,825	144,245
218,450	-5,072	295,668	144,063
219,465	-5,140	295,489	143,895
220,480	-4,996	295,347	143,958
221,494	-5,221	295,264	143,679
222,509	-4,941	295,039	143,836
223,523	-5,126	294,873	143,558
224,538	-5,321	294,747	143,289
225,553	-5,107	294,430	143,335
226,567	-5,065	294,208	143,256
227,582	-5,037	294,007	143,174
228,596	-5,043	293,921	143,113
229,611	-4,993	293,548	142,968
230,626	-5,080	293,484	142,839
231,640	-5,066	293,257	142,729
232,655	-5,110	293,091	142,592
233,669	-5,046	292,796	142,499
234,684	-5,048	292,532	142,356
235,699	-4,925	292,375	142,388
236,713	-5,129	292,389	142,181
237,728	-5,075	292,165	142,112
238,742	-4,996	291,892	142,045
239,757	-5,179	291,583	141,702
240,772	-5,237	291,488	141,586
241,786	-5,140	291,347	141,600
242,801	-5,125	291,035	141,450
243,815	-5,072	290,964	141,455
244,830	-5,064	290,901	141,420
245,844	-5,199	290,586	141,122
246,859	-5,054	290,268	141,097
247,874	-5,233	290,074	140,814
248,888	-5,201	289,996	140,795
249,903	-5,207	289,824	140,693
250,917	-5,202	289,617	140,585
251,932	-5,103	289,369	140,549
252,947	-5,206	289,075	140,293
253,961	-5,331	288,869	140,059
254,976	-5,306	288,734	140,005
255,990	-5,115	288,611	140,119
257,005	-3,689	289,113	141,740
258,020	-1,296	289,827	144,414
259,034	-0,127	290,117	145,687
260,049	0,214	290,168	146,032
261,063	0,814	290,079	146,559
262,078	1,231	290,008	146,916
263,093	1,385	290,002	147,050
264,107	1,616	289,939	147,230
265,122	1,755	289,735	147,248
266,136	1,857	289,546	147,238
267,151	1,846	289,465	147,173
268,166	1,829	289,246	147,032
269,180	1,680	289,020	146,760
270,195	2,060	288,708	146,956
271,209	1,893	288,617	146,735
272,224	1,800	288,606	146,627
273,239	1,823	288,333	146,497
274,253	1,766	288,117	146,319
275,268	1,756	287,941	146,207
276,282	1,754	287,589	146,013
277,297	1,614	287,406	145,772
278,312	1,753	287,252	145,816
279,326	1,720	287,237	145,762
280,341	1,813	286,885	145,660
281,355	1,679	286,875	145,513
282,370	1,556	286,660	145,273
283,384	1,772	286,357	145,315
284,399	1,685	286,122	145,099
285,414	1,535	286,153	144,957
286,428	1,795	285,730	144,979
287,443	1,630	285,816	144,852
288,457	1,802	285,407	144,796
289,472	1,629	285,245	144,536
290,487	1,499	284,997	144,273
291,501	1,479	284,698	144,090
292,516	1,461	284,747	144,085
293,530	1,595	284,554	144,102
294,545	1,751	284,202	144,059
295,560	1,438	284,130	143,712
296,574	1,537	283,904	143,679
297,589	1,608	283,605	143,582
298,603	1,554	283,651	143,541
299,618	1,432	283,379	143,275
300,633	1,474	283,301	143,263
301,647	1,611	283,095	143,276
302,662	1,611	282,857	143,142
303,676	1,843	282,584	143,211
304,691	1,645	282,474	142,955
305,706	1,835	282,363	143,066
306,720	1,711	282,267	142,888
307,735	1,578	282,135	142,682
308,749	1,807	281,793	142,713
309,764	1,743	281,577	142,530
310,779	1,669	281,422	142,369
311,793	1,833	281,152	142,374
312,808	1,688	280,981	142,139
313,822	1,668	280,837	142,034
314,837	1,710	280,618	141,951
315,852	1,718	280,391	141,831
316,866	1,756	280,344	141,830
317,881	1,771	280,122	141,719
318,895	1,612	280,022	141,507
319,910	1,664	279,773	141,417
320,925	1,605	279,535	141,228
321,939	1,812	279,374	141,328
322,954	1,824	279,269	141,273
323,968	1,693	279,167	141,087
324,983	1,771	278,847	140,986
325,997	1,804	278,614	140,885
327,012	1,562	278,639	140,661
328,027	1,601	278,509	140,619
329,041	1,759	278,263	140,629
330,056	1,716	278,039	140,463
331,070	1,893	277,887	140,538
332,085	1,810	277,753	140,381
333,100	1,792	277,440	140,193
334,114	1,940	277,226	140,210
335,129	1,697	276,986	139,851
336,143	1,810	276,885	139,892
337,158	1,918	276,740	139,906
338,173	2,021	276,570	139,903
339,187	1,826	276,450	139,650
340,202	1,918	276,244	139,618
341,216	1,881	276,001	139,448
342,231	1,829	275,985	139,380
343,246	1,785	275,759	139,214
344,260	1,773	275,705	139,163
345,275	1,885	275,484	139,141
346,289	1,785	275,326	138,957
347,304	1,914	275,076	138,937
348,319	1,896	274,939	138,839
349,333	1,849	274,694	138,660
350,348	1,763	274,568	138,506
351,362	1,853	274,340	138,460
352,377	2,211	274,010	138,608
353,392	2,008	273,898	138,353
354,406	1,806	273,826	138,121
355,421	191,367	1348,359	1426,639
356,435	154,534	1479,339	1426,733
