DTS Sentinel unit serial number:	SN410029Multiplexer serial number:	ORYXHardware model number:	OX2-SRSoftware version number:	ORYX F/W v4,00 Oryx Data Collector v3.7.2.0data status	okinstallation	B4 Nyhavnadifferential loss correction	single-endedforward channel	channel 2reverse channel	N/Adate	2023/12/19time	04:30:13forward acquisition time	300,00reverse acquisition time	0,00gamma	499,1914k internal	0,3127k external	0,3127temperature offset calibration	1,0000default loss term (dB/km)	0,3820temperature slope calibration	1,0000multiplexer offset coefficient	1,0000multiplexer slope coefficient	1,0000fibre end	0,00T internal ref (°C)	20,93T ext. ref 1 (°C)	6,19T ext. ref 2 (°C)	6,28length (m)	temperature (°C)	Stokes	anti-Stokes-744,400	800,000	-0,062	-0,153
-743,385	240,801	-0,125	0,155
-742,371	-200,000	0,014	0,121
-741,356	-200,000	-0,035	0,262
-740,342	40,770	-0,081	0,055
-739,327	-70,973	-0,258	0,072
-738,312	-200,000	-0,022	-0,074
-737,298	-36,506	-0,198	0,079
-736,283	-136,686	-0,055	-0,005
-735,269	-103,132	-0,209	0,036
-734,254	-200,000	0,029	-0,109
-733,239	-91,808	-0,394	-0,082
-732,225	-47,276	0,223	-0,080
-731,210	-29,111	-0,074	-0,031
-730,196	-84,421	-0,175	-0,041
-729,181	800,000	-0,030	0,081
-728,167	-200,000	-0,009	0,048
-727,152	-20,137	-0,065	0,030
-726,137	-145,025	0,046	-0,003
-725,123	-105,093	-0,177	0,030
-724,108	800,000	0,022	0,067
-723,094	-0,002	-0,193	-0,102
-722,079	-46,984	-0,119	-0,043
-721,064	297,328	0,012	0,016
-720,050	-117,913	-0,053	0,007
-719,035	-200,000	0,004	-0,140
-718,021	147,134	-0,085	0,085
-717,006	-85,046	-0,017	0,004
-715,991	147,418	-0,056	0,056
-714,977	-200,000	0,022	-0,091
-713,962	-89,366	-0,096	-0,021
-712,948	551,485	0,021	-0,038
-711,933	66,809	-0,075	0,057
-710,918	93,424	0,049	0,041
-709,904	372,972	0,012	-0,018
-708,889	-200,000	-0,030	0,120
-707,875	-158,965	0,041	0,002
-706,860	-10,515	0,104	-0,051
-705,845	183,565	0,053	0,059
-704,831	-21,689	-0,038	-0,017
-703,816	368,727	0,030	-0,045
-702,802	-110,580	-0,023	-0,004
-701,787	-200,000	0,011	-0,104
-700,772	-200,000	-0,034	-0,119
-699,758	556,211	0,073	-0,131
-698,743	-108,061	-0,095	-0,015
-697,729	-18,471	0,145	0,067
-696,714	-200,000	-0,002	-0,049
-695,699	321,003	-0,082	-0,116
-694,685	-200,000	0,019	-0,158
-693,670	102,954	-0,168	-0,147
-692,656	-200,000	0,044	-0,193
-691,641	-114,451	0,132	-0,019
-690,627	404,767	-0,087	0,136
-689,612	36,776	-0,054	0,035
-688,597	-200,000	-0,040	0,135
-687,583	380,248	0,041	-0,063
-686,568	-147,772	-0,039	0,002
-685,554	-200,000	0,007	0,024
-684,539	308,101	0,111	-0,154
-683,524	18,433	0,073	-0,043
-682,510	-60,859	0,151	0,047
-681,495	63,111	-0,154	0,114
-680,481	-42,149	-0,086	0,032
-679,466	61,039	-0,081	0,059
-678,451	-81,036	0,130	0,032
-677,437	-121,732	-0,096	-0,012
-676,422	-35,904	0,052	0,021
-675,408	-51,350	-0,128	0,044
-674,393	-37,261	-0,107	-0,042
-673,378	-150,253	-0,120	0,007
-672,364	494,255	-0,050	-0,086
-671,349	146,024	-0,046	-0,046
-670,335	-200,000	-0,003	-0,048
-669,320	687,786	0,016	-0,031
-668,305	3,435	0,056	0,030
-667,291	63,042	0,037	-0,027
-666,276	203,383	-0,042	-0,048
-665,262	800,000	-0,021	-0,055
-664,247	-110,324	-0,097	-0,015
-663,232	297,712	-0,049	0,067
-662,218	602,282	-0,030	0,056
-661,203	-134,695	-0,052	0,005
-660,189	391,896	-0,032	0,050
-659,174	-200,000	-0,021	-0,140
-658,159	638,271	0,039	-0,074
-657,145	800,000	-0,020	0,046
-656,130	-200,000	0,000	0,019
-655,116	158,080	0,047	-0,049
-654,101	-97,769	-0,112	-0,021
-653,086	-14,922	0,018	-0,009
-652,072	34,724	0,017	-0,011
-651,057	-132,963	-0,046	0,004
-650,043	203,423	-0,125	-0,143
-649,028	-200,000	0,002	-0,104
-648,014	78,672	0,067	-0,053
-646,999	33,692	-0,108	0,070
-645,984	-47,166	-0,086	0,031
-644,970	-200,000	0,007	0,146
-643,955	-200,000	-0,033	0,117
-642,941	-1,093	-0,057	0,030
-641,926	12,861	0,061	-0,035
-640,911	-200,000	0,015	0,134
-639,897	-158,780	-0,135	0,006
-638,882	-200,000	0,014	0,112
-637,868	-32,091	-0,130	0,054
-636,853	-200,000	0,053	-0,182
-635,838	104,585	-0,083	-0,073
-634,824	-200,000	-0,007	0,024
-633,809	382,581	0,044	0,068
-632,795	-111,952	-0,058	0,009
-631,780	82,060	0,014	-0,011
-630,765	-200,000	-0,017	0,140
-629,751	-7,662	0,075	-0,037
-628,736	-48,770	-0,061	-0,022
-627,722	80,929	0,153	-0,122
-626,707	800,000	0,041	0,092
-625,692	135,895	0,117	0,113
-624,678	252,496	-0,093	0,117
-623,663	699,736	-0,060	0,118
-622,649	441,697	-0,059	0,096
-621,634	170,065	-0,087	-0,092
-620,619	-200,000	0,014	-0,052
-619,605	800,000	0,034	0,084
-618,590	-70,678	0,034	0,009
-617,576	-175,573	0,115	0,002
-616,561	102,894	0,054	-0,047
-615,546	285,137	-0,068	-0,092
-614,532	800,000	0,034	-0,092
-613,517	688,207	0,042	-0,082
-612,503	-79,723	0,092	0,023
-611,488	132,973	-0,072	0,069
-610,474	113,452	0,034	-0,031
-609,459	478,277	0,045	0,076
-608,444	-42,609	-0,032	0,012
-607,430	-200,000	-0,010	0,090
-606,415	208,600	0,061	-0,070
-605,401	-22,238	0,157	-0,070
-604,386	800,000	0,062	-0,169
-603,371	218,611	-0,025	0,030
-602,357	-92,503	0,058	0,012
-601,342	-200,000	-0,007	-0,071
-600,328	750,568	-0,054	-0,109
-599,313	141,907	-0,155	-0,152
-598,298	-200,000	-0,001	0,052
-597,284	6,114	0,090	0,049
-596,269	-200,000	0,007	-0,062
-595,255	233,966	0,056	0,068
-594,240	195,418	0,092	0,104
-593,225	22,695	-0,053	-0,032
-592,211	800,000	-0,066	-0,197
-591,196	-200,000	-0,011	0,038
-590,182	794,351	0,067	0,137
-589,167	800,000	-0,061	-0,136
-588,152	571,338	0,045	-0,081
-587,138	-200,000	0,003	0,059
-586,123	-131,121	-0,146	0,014
-585,109	-200,000	-0,009	-0,145
-584,094	-200,000	-0,004	-0,097
-583,079	116,465	0,032	0,029
-582,065	-200,000	0,063	0,286
-581,050	323,559	0,015	0,021
-580,036	81,008	0,064	-0,051
-579,021	23,163	-0,067	-0,040
-578,006	-200,000	0,000	-0,054
-576,992	-67,540	0,067	0,019
-575,977	602,676	-0,031	-0,056
-574,963	138,976	-0,059	-0,057
-573,948	-200,000	-0,008	0,181
-572,934	90,141	0,084	-0,069
-571,919	20,123	0,045	-0,027
-570,904	229,903	0,110	-0,133
-569,890	-108,654	-0,097	0,015
-568,875	42,895	-0,116	0,078
-567,861	122,962	0,064	-0,060
-566,846	-72,542	0,120	0,032
-565,831	-200,000	-0,014	0,110
-564,817	-79,906	0,047	-0,012
-563,802	-87,663	-0,042	0,009
-562,788	-119,394	-0,059	0,008
-561,773	320,539	-0,078	-0,110
-560,758	124,888	-0,038	0,035
-559,744	-200,000	0,014	0,235
-558,729	-200,000	-0,003	0,082
-557,715	6,119	-0,058	-0,032
-556,700	-158,481	-0,098	-0,004
-555,685	800,000	0,035	0,108
-554,671	41,114	0,009	-0,006
-553,656	-26,469	0,126	-0,055
-552,642	-131,042	-0,042	-0,004
-551,627	-200,000	0,011	0,065
-550,612	-200,000	-0,004	-0,074
-549,598	-200,000	0,036	-0,145
-548,583	418,951	0,027	-0,043
-547,569	-17,384	0,100	-0,046
-546,554	-200,000	-0,033	0,122
-545,539	-200,000	-0,037	0,180
-544,525	2,772	-0,091	0,049
-543,510	-99,531	-0,079	0,015
-542,496	-38,106	0,053	0,021
-541,481	-200,000	-0,011	0,170
-540,466	185,218	0,036	0,040
-539,452	436,443	-0,036	-0,058
-538,437	330,606	0,070	0,100
-537,423	366,269	0,064	0,096
-536,408	-5,953	-0,093	0,047
-535,393	800,000	0,076	-0,190
-534,379	-156,028	-0,087	-0,004
-533,364	800,000	0,005	-0,016
-532,350	-44,085	-0,079	0,029
-531,335	-200,000	0,032	0,119
-530,321	-95,708	0,031	0,006
-529,306	260,558	-0,062	-0,079
-528,291	-200,000	-0,000	0,081
-527,277	-121,034	-0,070	0,009
-526,262	183,089	0,015	0,017
-525,248	-92,223	0,096	0,020
-524,233	800,000	-0,030	-0,077
-523,218	149,095	0,072	0,072
-522,204	14,602	-0,094	0,054
-521,189	-158,891	-0,107	0,004
-520,175	800,000	-0,035	-0,102
-519,160	-200,000	-0,053	-0,252
-518,145	206,133	-0,079	-0,091
-517,131	-84,374	0,140	-0,032
-516,116	241,334	-0,088	-0,109
-515,102	-59,283	0,028	0,009
-514,087	-51,029	-0,060	-0,021
-513,072	-164,565	-0,109	-0,004
-512,058	-101,445	-0,092	0,016
-511,043	800,000	0,027	0,057
-510,029	386,842	-0,063	0,097
-509,014	163,754	0,032	0,033
-507,999	-158,332	0,087	0,004
-506,985	-200,000	-0,001	-0,120
-505,970	800,000	0,034	-0,102
-504,956	-7,029	-0,064	0,032
-503,941	84,163	0,035	-0,028
-502,926	-200,000	0,017	0,059
-501,912	253,530	0,008	0,010
-500,897	87,767	0,063	-0,052
-499,883	800,000	-0,010	-0,021
-498,868	800,000	0,014	-0,040
-497,853	-168,383	-0,109	-0,003
-496,839	193,033	0,067	-0,075
-495,824	-48,410	0,107	-0,038
-494,810	202,388	-0,104	0,118
-493,795	-53,169	-0,112	-0,038
-492,781	-200,000	-0,013	0,066
-491,766	800,000	0,012	-0,025
-490,751	-33,060	-0,036	-0,014
-489,737	400,347	-0,039	0,061
-488,722	800,000	0,045	-0,116
-487,708	-18,996	-0,044	0,020
-486,693	-200,000	0,002	-0,056
-485,678	-168,716	-0,051	-0,001
-484,664	800,000	0,026	-0,063
-483,649	-87,883	-0,128	-0,028
-482,635	800,000	0,027	0,075
-481,620	238,120	0,085	-0,104
-480,605	-30,928	0,186	0,077
-479,591	-141,176	0,071	0,005
-478,576	-29,041	-0,073	-0,031
-477,562	-200,000	0,031	-0,158
-476,547	800,000	0,039	-0,118
-475,532	-200,000	-0,006	-0,057
-474,518	800,000	-0,010	0,031
-473,503	301,144	-0,065	0,089
-472,489	800,000	-0,026	0,067
-471,474	-157,900	-0,091	0,004
-470,459	-25,523	0,206	-0,089
-469,445	-93,737	-0,032	0,006
-468,430	250,137	-0,031	-0,038
-467,416	66,501	-0,066	0,049
-466,401	-83,670	0,083	0,019
-465,386	621,370	-0,062	-0,116
-464,372	-16,414	-0,036	-0,017
-463,357	181,409	-0,082	-0,089
-462,343	800,000	-0,049	-0,138
-461,328	-200,000	0,010	0,102
-460,313	-200,000	-0,021	0,071
-459,299	-200,000	0,001	-0,061
-458,284	-73,010	0,132	0,035
-457,270	360,932	-0,020	-0,030
-456,255	-120,649	0,122	0,015
-455,241	-23,111	-0,083	-0,037
-454,226	-200,000	-0,000	0,008
-453,211	432,816	0,010	0,017
-452,197	674,883	-0,035	-0,068
-451,182	-200,000	0,003	-0,092
-450,168	-187,390	-0,065	0,001
-449,153	800,000	0,054	-0,125
-448,138	-82,036	-0,124	-0,030
-447,124	384,908	0,088	0,134
-446,109	588,918	0,038	-0,070
-445,095	-153,052	0,123	0,006
-444,080	-99,406	0,087	0,016
-443,065	800,000	0,039	-0,110
-442,051	800,000	-0,034	-0,079
-441,036	800,000	0,046	-0,118
-440,022	800,000	-0,026	0,053
-439,007	-42,375	0,164	0,061
-437,992	-200,000	0,018	-0,096
-436,978	-164,260	0,088	-0,003
-435,963	-74,545	0,118	0,031
-434,949	142,604	0,039	0,038
-433,934	207,819	0,019	0,022
-432,919	-200,000	0,008	-0,170
-431,905	183,392	0,016	-0,017
-430,890	-53,038	-0,162	0,054
-429,876	-18,778	-0,130	0,059
-428,861	-200,000	0,014	0,069
-427,846	2,733	-0,122	0,065
-426,832	-22,132	0,075	-0,033
-425,817	-200,000	-0,013	0,078
-424,803	-200,000	-0,009	0,095
-423,788	49,940	-0,127	0,088
-422,773	-200,000	0,032	0,105
-421,759	800,000	-0,017	-0,046
-420,744	800,000	0,036	-0,106
-419,730	25,988	0,053	0,033
-418,715	8,816	-0,039	-0,022
-417,701	41,826	0,054	-0,036
-416,686	-93,745	-0,048	0,010
-415,671	-200,000	-0,004	0,102
-414,657	285,677	-0,101	0,134
-413,642	-200,000	-0,007	0,029
-412,628	-74,582	0,058	-0,015
-411,613	101,527	-0,139	-0,119
-410,598	339,740	-0,031	-0,044
-409,584	-20,465	0,111	-0,050
-408,569	800,000	-0,011	0,033
-407,555	-200,000	0,014	0,067
-406,540	296,110	-0,044	0,059
-405,525	-56,095	0,057	-0,019
-404,511	800,000	-0,029	0,095
-403,496	353,186	-0,051	-0,074
-402,482	-48,268	0,081	0,028
-401,467	380,519	-0,064	0,096
-400,452	123,247	-0,023	0,021
-399,438	435,186	0,026	0,042
-398,423	61,743	0,057	0,042
-397,409	-200,000	-0,039	-0,166
-396,394	15,677	0,074	0,043
-395,379	-200,000	0,020	-0,111
-394,365	-200,000	-0,029	0,204
-393,350	800,000	0,047	0,125
-392,336	-200,000	0,010	-0,056
-391,321	-50,887	-0,190	0,065
-390,306	-36,753	0,083	-0,033
-389,292	-200,000	0,014	-0,106
-388,277	68,238	-0,045	0,034
-387,263	179,076	-0,019	-0,021
-386,248	262,869	0,039	0,050
-385,233	8,476	-0,062	-0,034
-384,219	19,178	-0,066	-0,039
-383,204	-23,776	-0,118	-0,052
-382,190	-200,000	0,040	-0,159
-381,175	-200,000	-0,013	-0,065
-380,160	8,701	-0,054	-0,030
-379,146	275,251	0,011	-0,014
-378,131	-84,404	-0,088	-0,020
-377,117	-90,475	0,117	-0,025
-376,102	13,200	-0,101	-0,057
-375,088	800,000	-0,074	-0,151
-374,073	567,771	-0,049	-0,087
-373,058	-140,281	0,144	-0,011
-372,044	331,285	-0,035	0,050
-371,029	-200,000	-0,012	0,130
-370,015	-200,000	-0,044	0,146
-369,000	800,000	0,029	-0,073
-367,985	126,176	-0,024	0,022
-366,971	176,043	-0,064	0,068
-365,956	-200,000	0,000	0,072
-364,942	125,347	0,047	0,044
-363,927	230,028	-0,107	0,129
-362,912	86,854	0,070	-0,057
-361,898	323,736	0,075	-0,105
-360,883	123,617	-0,058	0,054
-359,869	121,034	0,063	-0,058
-358,854	-134,348	-0,041	0,004
-357,839	-29,446	-0,027	-0,011
-356,825	447,078	-0,043	0,070
-355,810	396,047	0,027	0,041
-354,796	-200,000	-0,033	-0,154
-353,781	-200,000	0,009	0,145
-352,766	523,930	-0,083	-0,144
-351,752	298,187	0,020	-0,027
-350,737	316,911	-0,030	0,042
-349,723	800,000	-0,033	-0,086
-348,708	284,706	-0,081	0,107
-347,693	800,000	0,046	0,096
-346,679	-200,000	-0,008	0,045
-345,664	800,000	-0,065	0,188
-344,650	118,107	0,025	-0,022
-343,635	-200,000	-0,005	0,101
-342,620	-29,484	0,109	0,045
-341,606	373,154	-0,060	-0,090
-340,591	-200,000	0,013	0,059
-339,577	800,000	-0,046	-0,129
-338,562	-200,000	0,034	-0,132
-337,548	-200,000	-0,020	-0,117
-336,533	-3,707	0,045	-0,023
-335,518	102,266	0,164	0,141
-334,504	425,563	0,045	0,071
-333,489	325,408	0,058	-0,082
-332,475	-200,000	-0,001	-0,012
-331,460	-200,000	0,001	-0,007
-330,445	-12,047	0,094	-0,045
-329,431	277,911	-0,129	0,169
-328,416	-200,000	0,003	-0,031
-327,402	-124,029	0,065	-0,007
-326,387	-200,000	0,008	0,043
-325,372	-55,486	-0,042	0,014
-324,358	-200,000	0,014	-0,050
-323,343	-200,000	0,019	0,180
-322,329	383,869	-0,040	0,061
-321,314	800,000	0,035	0,105
-320,299	-200,000	0,028	0,142
-319,285	48,074	0,068	-0,047
-318,270	-141,516	0,028	-0,002
-317,256	-159,134	0,067	-0,003
-316,241	-72,316	-0,155	0,042
-315,226	776,545	-0,048	-0,097
-314,212	361,437	0,088	-0,130
-313,197	-200,000	0,006	0,057
-312,183	-117,190	-0,040	0,005
-311,168	-20,618	-0,120	0,054
-310,153	-200,000	-0,011	-0,097
-309,139	197,446	-0,029	-0,033
-308,124	90,150	-0,054	-0,044
-307,110	72,585	0,158	-0,121
-306,095	-112,985	-0,129	-0,018
-305,080	-83,876	0,082	0,019
-304,066	535,156	-0,070	-0,121
-303,051	-77,418	0,123	-0,031
-302,037	800,000	-0,026	-0,083
-301,022	90,645	0,082	0,068
-300,008	-200,000	-0,000	0,129
-298,993	800,000	0,020	0,056
-297,978	49,489	0,103	-0,071
-296,964	63,591	-0,131	-0,096
-295,949	-200,000	-0,003	0,032
-294,935	108,902	-0,055	0,048
-293,920	115,333	0,113	0,101
-292,905	51,644	0,032	-0,022
-291,891	800,000	0,014	0,042
-290,876	-64,638	0,144	-0,042
-289,862	-200,000	-0,005	-0,075
-288,847	170,621	-0,054	-0,056
-287,832	-200,000	0,024	-0,193
-286,818	158,987	0,081	-0,083
-285,803	33,145	0,045	0,028
-284,789	505,342	0,069	0,117
-283,774	-60,372	0,087	-0,027
-282,759	41,257	0,080	-0,053
-281,745	96,786	0,042	-0,035
-280,730	-41,585	-0,069	-0,026
-279,716	116,281	-0,068	-0,061
-278,701	-11,875	0,107	0,051
-277,686	-10,787	0,148	0,071
-276,672	67,475	0,081	0,060
-275,657	-200,000	0,032	-0,138
-274,643	-200,000	0,016	-0,094
-273,628	-63,294	0,105	0,031
-272,613	-145,284	-0,209	-0,014
-271,599	-130,307	-0,115	0,011
-270,584	-73,976	0,018	-0,005
-269,570	79,418	-0,048	-0,037
-268,555	-107,584	0,189	0,030
-267,540	800,000	-0,011	-0,026
-266,526	586,413	-0,069	-0,124
-265,511	-112,272	0,104	-0,015
-264,497	-11,376	0,068	-0,032
-263,482	31,417	0,056	-0,035
-262,467	800,000	0,035	0,105
-261,453	288,822	-0,066	0,087
-260,438	-200,000	-0,004	0,046
-259,424	54,674	-0,048	-0,034
-258,409	-62,560	0,004	0,001
-257,395	800,000	0,019	-0,041
-256,380	-117,805	0,105	0,014
-255,365	-200,000	-0,003	-0,056
-254,351	-41,916	-0,083	0,031
-253,336	355,657	-0,050	0,072
-252,322	26,979	0,049	0,030
-251,307	166,395	-0,049	0,050
-250,292	-147,932	0,040	-0,002
-249,278	16,092	-0,064	0,037
-248,263	117,571	0,056	0,050
-247,249	-22,906	-0,084	0,037
-246,234	614,681	0,049	-0,090
-245,219	326,202	-0,012	-0,017
-244,205	-200,000	-0,027	-0,102
-243,190	-200,000	0,001	0,014
-242,176	-5,851	0,032	0,016
-241,161	-145,857	0,098	0,006
-240,146	355,089	-0,038	-0,055
-239,132	-35,819	-0,077	-0,030
-238,117	-99,692	0,035	-0,006
-237,103	70,092	-0,065	-0,049
-236,088	-200,000	0,008	-0,082
-235,073	-46,738	-0,097	0,035
-234,059	78,302	0,024	-0,019
-233,044	120,244	0,115	0,104
-232,030	85,774	0,094	0,075
-231,015	34,978	-0,069	0,044
-230,000	-200,000	0,037	0,133
-228,986	-62,868	0,126	0,038
-227,971	-200,000	0,016	-0,063
-226,957	-175,826	0,044	0,001
-225,942	-200,000	0,022	0,133
-224,927	280,323	0,044	0,057
-223,913	-82,400	-0,117	-0,027
-222,898	-87,359	-0,118	0,026
-221,884	-200,000	-0,004	-0,106
-220,869	-200,000	-0,009	-0,037
-219,855	-37,460	0,103	-0,040
-218,840	-200,000	-0,002	0,116
-217,825	-200,000	0,021	0,172
-216,811	800,000	-0,027	-0,062
-215,796	-6,209	-0,086	-0,043
-214,782	-71,957	-0,067	-0,018
-213,767	-100,038	0,037	0,007
-212,752	-96,147	-0,103	-0,020
-211,738	-91,869	-0,093	0,019
-210,723	-200,000	0,012	-0,053
-209,709	-200,000	0,004	-0,097
-208,694	-200,000	-0,001	0,025
-207,679	147,842	0,125	0,123
-206,665	-200,000	0,028	-0,129
-205,650	-108,934	0,074	0,011
-204,636	157,445	-0,083	-0,083
-203,621	-121,125	0,070	0,008
-202,606	-167,177	-0,101	-0,003
-201,592	800,000	-0,034	0,070
-200,577	-200,000	-0,015	0,069
-199,563	207,710	0,047	0,054
-198,548	-99,786	-0,058	-0,010
-197,533	-49,514	-0,096	0,033
-196,519	-64,772	0,054	0,016
-195,504	-27,427	-0,076	-0,032
-194,490	143,536	0,053	-0,051
-193,475	502,032	0,068	-0,115
-192,460	110,832	-0,139	-0,122
-191,446	-55,082	0,095	0,031
-190,431	-25,717	0,047	0,020
-189,417	-200,000	0,006	0,045
-188,402	70,178	-0,087	0,065
-187,387	-200,000	-0,002	0,007
-186,373	-80,319	0,072	-0,018
-185,358	-155,147	-0,078	0,004
-184,344	715,158	0,030	-0,058
-183,329	366,735	0,069	-0,102
-182,315	160,850	0,057	0,058
-181,300	44,614	0,020	-0,013
-180,285	-158,952	-0,058	0,002
-179,271	-62,558	-0,131	0,040
-178,256	-200,000	0,018	0,123
-177,242	219,177	0,036	-0,042
-176,227	-200,000	0,023	0,134
-175,212	113,658	-0,122	0,108
-174,198	764,365	-0,005	0,010
-173,183	-200,000	0,002	-0,079
-172,169	105,994	-0,073	0,062
-171,154	187,291	-0,067	0,073
-170,139	-84,993	-0,160	0,036
-169,125	406,175	0,050	-0,078
-168,110	-200,000	-0,009	0,119
-167,096	-120,650	-0,106	-0,013
-166,081	800,000	-0,068	-0,165
-165,066	263,092	-0,109	-0,138
-164,052	80,807	0,086	0,067
-163,037	607,048	0,005	0,009
-162,023	166,765	0,125	0,130
-161,008	-84,395	-0,063	0,014
-159,993	-43,604	0,082	0,030
-158,979	-23,978	0,087	-0,038
-157,964	-200,000	0,002	-0,028
-156,950	800,000	0,007	0,016
-155,935	800,000	0,031	0,079
-154,920	134,622	0,024	0,022
-153,906	-54,761	0,053	0,017
-152,891	-45,683	0,022	-0,008
-151,877	28,136	-0,041	0,025
-150,862	-22,890	0,086	-0,037
-149,847	137,481	0,051	0,049
-148,833	-200,000	0,006	-0,139
-147,818	800,000	0,029	0,071
-146,804	800,000	-0,029	-0,061
-145,789	-18,147	-0,051	0,023
-144,775	-167,443	-0,023	0,001
-143,760	27,223	0,035	-0,021
-142,745	800,000	0,008	-0,020
-141,731	213,875	0,047	0,054
-140,716	51,394	0,065	0,045
-139,702	31,652	-0,069	-0,043
-138,687	92,159	0,014	-0,011
-137,672	32,597	-0,121	0,076
-136,658	800,000	-0,004	-0,010
-135,643	-200,000	0,012	-0,093
-134,629	800,000	0,016	-0,038
-133,614	476,600	0,065	0,107
-132,599	226,890	-0,092	0,108
-131,585	800,000	-0,106	0,230
-130,570	-200,000	0,016	0,052
-129,556	781,673	-0,043	-0,085
-128,541	278,080	-0,050	0,065
-127,526	443,069	0,033	-0,053
-126,512	-95,951	-0,068	-0,013
-125,497	-105,831	0,133	0,022
-124,483	79,440	-0,169	-0,132
-123,468	-200,000	0,035	0,156
-122,453	-200,000	-0,012	-0,076
-121,439	-200,000	0,018	-0,099
-120,424	33,354	-0,108	-0,068
-119,410	56,635	0,090	0,064
-118,395	-200,000	0,007	0,053
-117,380	47,681	0,074	-0,050
-116,366	27,840	0,166	0,102
-115,351	-28,628	-0,083	0,035
-114,337	-38,151	-0,095	0,036
-113,322	257,300	0,023	-0,028
-112,307	-128,459	0,182	0,019
-111,293	-200,000	0,021	0,089
-110,278	-17,969	0,089	-0,040
-109,264	195,558	-0,121	0,134
-108,249	-184,366	-0,028	0,000
-107,234	-200,000	0,006	-0,051
-106,220	-102,406	-0,103	-0,018
-105,205	-49,943	0,149	0,051
-104,191	-75,587	0,099	0,025
-103,176	800,000	0,028	0,078
-102,162	800,000	-0,048	-0,103
-101,147	348,570	0,043	-0,061
-100,132	50,102	-0,078	-0,053
-99,118	-200,000	-0,024	-0,133
-98,103	-200,000	-0,004	-0,063
-97,089	-200,000	0,024	0,090
-96,074	369,810	0,094	0,139
-95,059	-200,000	0,019	0,062
-94,045	-98,450	-0,109	-0,020
-93,030	16,611	-0,050	0,029
-92,016	-152,375	-0,042	-0,002
-91,001	-141,911	-0,067	-0,005
-89,986	381,877	-0,021	-0,031
-88,972	800,000	0,042	0,126
-87,957	-173,066	0,128	0,003
-86,943	-200,000	0,030	0,176
-85,928	-200,000	0,006	-0,062
-84,913	-200,000	-0,029	-0,205
-83,899	-37,139	0,010	-0,004
-82,884	-178,715	0,194	-0,003
-81,870	183,794	-0,045	-0,048
-80,855	-200,000	0,003	-0,022
-79,840	-142,276	0,055	-0,004
-78,826	800,000	-0,076	0,220
-77,811	800,000	0,010	-0,029
-76,797	800,000	-0,032	0,080
-75,782	408,282	-0,097	-0,150
-74,767	423,301	0,018	0,027
-73,753	-163,836	0,156	-0,005
-72,738	7,906	-0,031	0,017
-71,724	-200,000	0,004	-0,089
-70,709	108,680	-0,038	0,033
-69,694	-200,000	-0,000	-0,121
-68,680	10,772	-0,006	-0,003
-67,665	-200,000	0,039	0,209
-66,651	372,274	-0,037	-0,055
-65,636	585,949	0,016	0,028
-64,622	346,187	-0,089	-0,127
-63,607	-153,788	-0,135	-0,007
-62,592	-72,401	-0,090	0,024
-61,578	-192,451	-0,081	0,001
-60,563	254,323	0,072	0,089
-59,549	478,699	-0,059	0,096
-58,534	-108,697	-1,399	-0,215
-57,519	800,000	-0,675	-1,417
-56,505	-200,000	-0,809	-4,502
-55,490	22,292	0,560	-0,331
-54,476	800,000	4,978	11,713
-53,461	-200,000	14,556	262,484
-52,446	-200,000	696,212	2280,868
-51,432	604,825	1621,966	2939,130
-50,417	119,138	1630,012	1460,944
-49,403	77,200	1283,301	987,642
-48,388	37,551	1021,305	655,305
-47,373	23,206	980,918	582,277
-46,359	22,335	970,099	572,980
-45,344	21,218	965,655	566,686
-44,330	21,185	964,267	565,742
-43,315	21,077	962,751	564,480
-42,300	21,019	961,848	563,739
-41,286	21,012	960,900	563,138
-40,271	20,975	959,739	562,316
-39,257	21,006	958,822	561,856
-38,242	21,008	957,850	561,272
-37,227	21,016	957,091	560,828
-36,213	20,898	956,214	559,913
-35,198	20,950	955,231	559,483
-34,184	20,985	954,621	559,216
-33,169	20,914	953,693	558,421
-32,154	20,993	952,789	558,125
-31,140	20,991	951,893	557,568
-30,125	20,994	951,012	557,043
-29,111	20,979	950,254	556,526
-28,096	20,970	949,630	556,111
-27,082	20,988	948,890	555,714
-26,067	20,966	948,099	555,158
-25,052	20,995	947,468	554,860
-24,038	20,990	946,635	554,334
-23,023	20,969	946,110	553,937
-22,009	20,984	945,704	553,723
-20,994	20,984	944,786	553,166
-19,979	20,983	944,286	552,848
-18,965	20,994	943,762	552,555
-17,950	20,937	943,079	551,951
-16,936	20,924	942,495	551,547
-15,921	20,910	941,797	551,072
-14,906	20,841	941,091	550,417
-13,892	20,842	940,510	550,057
-12,877	20,851	939,625	549,546
-11,863	20,833	939,104	549,164
-10,848	20,872	938,783	549,078
-9,833	20,904	938,181	548,806
-8,819	20,925	937,537	548,471
-7,804	20,862	936,959	547,912
-6,790	20,817	936,436	547,445
-5,775	20,838	935,892	547,170
-4,760	20,869	935,061	546,761
-3,746	20,835	934,294	546,183
-2,731	20,715	933,686	545,427
-1,717	20,624	933,234	544,854
-0,702	20,652	932,476	544,481
0,313	20,486	931,794	544,379
1,327	22,970	929,327	550,687
2,342	30,259	806,698	497,735
3,356	24,754	508,028	304,041
4,371	0,654	374,368	193,308
5,386	-1,971	357,441	181,322
6,400	-3,274	351,392	176,661
7,415	-3,874	348,770	174,606
8,429	-3,883	347,362	173,874
9,444	-3,834	346,373	173,423
10,459	-3,772	345,740	173,164
11,473	-3,861	345,036	172,691
12,488	-3,939	344,556	172,343
13,502	-3,797	343,858	172,146
14,517	-3,840	343,490	171,896
15,531	-3,780	342,912	171,662
16,546	-3,767	342,461	171,436
17,561	-3,767	342,137	171,258
18,575	-3,804	341,771	171,016
19,590	-3,969	341,239	170,541
20,604	-3,826	341,042	170,595
21,619	-3,902	340,622	170,281
22,634	-3,818	340,268	170,187
23,648	-3,916	339,940	169,893
24,663	-3,738	339,462	169,848
25,677	-3,675	339,169	169,759
26,692	-3,871	339,056	169,459
27,707	-3,771	338,674	169,370
28,721	-3,599	338,309	169,372
29,736	-3,856	338,081	168,943
30,750	-4,051	337,877	168,600
31,765	-3,828	337,545	168,678
32,780	-3,746	337,143	168,557
33,794	-3,833	336,910	168,325
34,809	-3,772	336,501	168,176
35,823	-3,788	336,322	168,054
36,838	-3,714	336,067	167,996
37,853	-3,773	335,728	167,743
38,867	-3,716	335,510	167,686
39,882	-3,793	335,259	167,457
40,896	-3,802	335,007	167,305
41,911	-3,815	334,655	167,099
42,926	-3,762	334,325	166,982
43,940	-3,753	334,174	166,901
44,955	-3,700	333,662	166,691
45,969	-3,781	333,526	166,515
46,984	-3,776	333,278	166,382
47,999	-3,700	333,089	166,361
49,013	-3,771	332,910	166,174
50,028	-3,866	332,729	165,961
51,042	-3,751	332,340	165,884
52,057	-3,801	332,097	165,691
53,071	-3,781	331,771	165,537
54,086	-3,761	331,604	165,461
55,101	-3,805	331,270	165,229
56,115	-3,726	330,997	165,168
57,130	-3,870	330,858	164,920
58,144	-3,733	330,405	164,836
59,159	-3,774	330,148	164,646
60,174	-3,925	329,936	164,354
61,188	-3,850	329,713	164,313
62,203	-3,761	329,362	164,225
63,217	-3,954	329,187	163,905
64,232	-3,773	328,975	163,988
65,247	-3,778	328,675	163,819
66,261	-3,839	328,318	163,558
67,276	-3,854	328,208	163,472
68,290	-3,808	328,017	163,413
69,305	-3,752	327,561	163,235
70,320	-3,735	327,368	163,143
71,334	-3,768	327,056	162,936
72,349	-3,723	326,850	162,869
73,363	-3,649	326,534	162,780
74,378	-3,910	326,401	162,407
75,393	-3,845	325,972	162,253
76,407	-3,715	325,891	162,343
77,422	-3,663	325,638	162,260
78,436	-3,783	325,299	161,943
79,451	-3,788	325,048	161,798
80,466	-3,817	324,729	161,593
81,480	-3,706	324,531	161,603
82,495	-3,765	324,384	161,449
83,509	-3,813	324,194	161,287
84,524	-3,751	323,830	161,160
85,539	-3,757	323,743	161,097
86,553	-3,636	323,418	161,054
87,568	-3,840	323,139	160,675
88,582	-3,863	322,928	160,530
89,597	-3,787	322,654	160,464
90,611	-3,684	322,451	160,462
91,626	-3,670	322,094	160,286
92,641	-3,737	321,991	160,146
93,655	-3,849	321,958	159,993
94,670	-3,658	321,445	159,933
95,684	-3,832	321,162	159,587
96,699	-3,826	321,123	159,560
97,714	-3,768	320,882	159,490
98,728	-3,738	320,632	159,384
99,743	-3,604	320,067	159,236
100,757	-3,769	320,009	159,012
101,772	-3,738	319,708	158,882
102,787	-3,854	319,609	158,693
103,801	-3,703	319,302	158,690
104,816	-3,745	319,108	158,534
105,830	-3,639	318,775	158,470
106,845	-3,621	318,534	158,356
107,860	-3,780	318,466	158,134
108,874	-3,690	318,195	158,084
109,889	-3,830	317,887	157,764
110,903	-3,785	317,654	157,683
111,918	-3,703	317,448	157,656
112,933	-3,767	317,258	157,479
113,947	-3,822	316,978	157,266
114,962	-3,797	316,844	157,213
115,976	-3,762	316,635	157,133
116,991	-3,677	316,327	157,058
118,006	-3,786	316,160	156,843
119,020	-3,692	315,919	156,811
120,035	-3,801	315,699	156,571
121,049	-3,615	315,665	156,740
122,064	-3,684	315,244	156,442
123,079	-3,808	315,056	156,203
124,093	-3,806	314,731	156,029
125,108	-3,767	314,709	156,046
126,122	-3,758	314,424	155,901
127,137	-3,683	314,113	155,812
128,151	-3,637	313,819	155,702
129,166	-3,895	313,749	155,378
130,181	-3,660	313,365	155,425
131,195	-3,643	313,085	155,289
132,210	-3,645	312,764	155,115
133,224	-3,694	312,733	155,034
134,239	-3,834	312,450	154,731
135,254	-3,632	312,254	154,834
136,268	-3,694	312,088	154,673
137,283	-3,700	311,836	154,527
138,297	-3,555	311,610	154,555
139,312	-3,532	311,361	154,443
140,327	-3,737	311,073	154,069
141,341	-3,741	310,957	153,993
142,356	-3,747	310,685	153,838
143,370	-3,816	310,476	153,649
144,385	-3,630	310,360	153,773
145,400	-3,555	310,021	153,671
146,414	-3,768	309,955	153,400
147,429	-3,681	309,498	153,252
148,443	-3,671	309,541	153,270
149,458	-3,667	309,303	153,143
150,473	-3,633	308,855	152,943
151,487	-3,743	308,687	152,731
152,502	-3,673	308,545	152,721
153,516	-3,706	308,478	152,639
154,531	-3,721	308,105	152,425
155,546	-3,572	307,905	152,468
156,560	-3,630	307,715	152,300
157,575	-3,784	307,529	152,033
158,589	-3,690	307,258	151,984
159,604	-3,617	306,875	151,857
160,619	-3,679	306,770	151,727
161,633	-3,549	306,569	151,750
162,648	-3,547	306,456	151,682
163,662	-3,681	306,342	151,473
164,677	-3,671	306,053	151,327
165,692	-3,582	305,827	151,294
166,706	-3,759	305,690	151,029
167,721	-3,578	305,386	151,053
168,735	-3,692	305,197	150,827
169,750	-3,753	305,060	150,684
170,764	-3,747	304,901	150,598
171,779	-3,715	304,554	150,445
172,794	-3,624	304,355	150,428
173,808	-3,539	304,360	150,506
174,823	-3,587	303,909	150,220
175,837	-3,524	303,698	150,166
176,852	-3,691	303,616	149,941
177,867	-3,548	303,289	149,912
178,881	-3,580	303,176	149,810
179,896	-3,620	302,781	149,561
180,910	-3,680	302,606	149,400
181,925	-3,504	302,457	149,493
182,940	-3,622	302,262	149,263
183,954	-3,599	302,155	149,221
184,969	-3,380	301,769	149,241
185,983	-3,460	301,676	149,099
186,998	-3,461	301,514	149,004
188,013	-3,593	301,277	148,740
189,027	-3,519	301,056	148,693
190,042	-3,513	300,922	148,619
191,056	-3,703	300,797	148,351
192,071	-3,682	300,429	148,177
193,086	-3,432	300,155	148,283
194,100	-3,564	299,973	148,046
195,115	-3,542	299,817	147,978
196,129	-3,660	299,690	147,782
197,144	-3,557	299,355	147,709
198,159	-3,627	299,165	147,531
199,173	-3,595	299,049	147,493
200,188	-3,657	298,678	147,233
201,202	-3,719	298,646	147,142
202,217	-3,442	298,200	147,189
203,232	-3,628	298,058	146,918
204,246	-3,558	297,803	146,850
205,261	-3,788	297,787	146,597
206,275	-3,542	297,492	146,686
207,290	-3,454	297,246	146,640
208,304	-3,594	297,039	146,384
209,319	-3,555	296,928	146,356
210,334	-3,571	296,754	146,241
211,348	-3,564	296,412	146,067
212,363	-3,626	296,307	145,939
213,377	-3,652	296,205	145,850
214,392	-3,646	295,979	145,732
215,407	-3,520	295,724	145,720
216,421	-3,483	295,506	145,637
217,436	-3,476	295,203	145,481
218,450	-3,671	295,118	145,232
219,465	-3,637	294,960	145,174
220,480	-3,484	294,775	145,223
221,494	-3,649	294,552	144,936
222,509	-3,528	294,470	145,004
223,523	-3,685	294,238	144,719
224,538	-3,683	294,087	144,634
225,553	-3,563	293,836	144,617
226,567	-3,496	293,686	144,597
227,582	-3,711	293,433	144,246
228,596	-3,538	293,127	144,255
229,611	-3,491	293,048	144,250
230,626	-3,675	293,009	144,035
231,640	-3,630	292,868	143,998
232,655	-3,577	292,597	143,904
233,669	-3,609	292,216	143,673
234,684	-3,645	292,091	143,562
235,699	-3,581	291,893	143,515
236,713	-3,562	291,774	143,463
237,728	-3,529	291,557	143,376
238,742	-3,562	291,271	143,190
239,757	-3,701	291,088	142,950
240,772	-3,623	290,815	142,880
241,786	-3,783	290,874	142,739
242,801	-3,509	290,602	142,863
243,815	-3,462	290,249	142,722
244,830	-3,594	290,039	142,477
245,844	-3,569	289,919	142,429
246,859	-3,673	289,760	142,237
247,874	-3,437	289,593	142,373
248,888	-3,547	289,502	142,208
249,903	-3,682	289,211	141,921
250,917	-3,552	289,046	141,954
251,932	-3,547	288,784	141,817
252,947	-3,538	288,533	141,690
253,961	-3,790	288,234	141,286
254,976	-3,801	288,044	141,169
255,990	-3,747	287,975	141,175
257,005	-2,971	288,350	142,100
258,020	-0,518	288,900	144,745
259,034	0,417	289,132	145,758
260,049	0,855	289,229	146,220
261,063	1,354	289,246	146,701
262,078	1,807	289,066	147,036
263,093	2,098	289,005	147,275
264,107	2,248	289,046	147,428
265,122	2,427	288,729	147,426
266,136	2,433	288,583	147,345
267,151	2,405	288,538	147,281
268,166	2,594	288,278	147,318
269,180	2,542	287,981	147,103
270,195	2,468	287,818	146,935
271,209	2,411	287,741	146,827
272,224	2,502	287,509	146,784
273,239	2,385	287,416	146,610
274,253	2,300	287,237	146,424
275,268	2,290	286,959	146,260
276,282	2,188	286,732	146,033
277,297	2,268	286,653	146,056
278,312	2,148	286,501	145,850
279,326	2,370	286,079	145,836
280,341	2,342	285,900	145,705
281,355	2,376	285,694	145,619
282,370	2,270	285,688	145,502
283,384	2,062	285,370	145,128
284,399	2,223	285,232	145,198
285,414	2,036	285,052	144,916
286,428	2,175	284,811	144,912
287,443	2,092	284,651	144,740
288,457	2,004	284,471	144,550
289,472	2,126	284,288	144,561
290,487	2,081	283,988	144,353
291,501	2,106	283,902	144,320
292,516	2,024	283,846	144,201
293,530	2,233	283,434	144,177
294,545	1,999	283,390	143,920
295,560	1,948	283,142	143,733
296,574	2,096	282,842	143,708
297,589	1,892	282,693	143,427
298,603	2,152	282,627	143,626
299,618	2,145	282,389	143,486
300,633	2,191	282,133	143,386
301,647	2,333	282,000	143,440
302,662	2,156	281,962	143,240
303,676	2,417	281,682	143,331
304,691	2,231	281,458	143,030
305,706	2,336	281,337	143,055
306,720	2,303	281,218	142,950
307,735	2,447	281,120	143,023
308,749	2,444	280,758	142,823
309,764	2,396	280,640	142,705
310,779	2,420	280,471	142,629
311,793	2,244	280,299	142,363
312,808	2,219	280,049	142,201
313,822	2,170	279,925	142,079
314,837	2,143	279,789	141,973
315,852	2,199	279,608	141,920
316,866	2,325	279,411	141,925
317,881	2,270	279,192	141,750
318,895	2,244	279,116	141,674
319,910	2,243	278,709	141,454
320,925	2,159	278,617	141,317
321,939	2,201	278,541	141,305
322,954	2,291	278,504	141,357
323,968	2,368	278,193	141,259
324,983	2,303	278,104	141,140
325,997	2,393	277,867	141,091
327,012	2,343	277,582	140,887
328,027	2,300	277,417	140,750
329,041	2,290	277,306	140,673
330,056	2,362	277,028	140,586
331,070	2,271	276,921	140,435
332,085	2,330	276,750	140,390
333,100	2,340	276,549	140,285
334,114	2,208	276,403	140,076
335,129	2,426	276,166	140,145
336,143	2,420	275,924	140,004
337,158	2,388	275,915	139,957
338,173	2,486	275,724	139,938
339,187	2,457	275,458	139,765
340,202	2,386	275,190	139,551
341,216	2,394	275,159	139,529
342,231	2,279	274,998	139,330
343,246	2,515	274,674	139,370
344,260	2,366	274,750	139,259
345,275	2,315	274,456	139,051
346,289	2,379	274,342	139,040
347,304	2,272	274,206	138,860
348,319	2,554	273,939	138,970
349,333	2,349	273,892	138,747
350,348	2,351	273,564	138,570
351,362	2,490	273,314	138,558
352,377	2,456	273,250	138,482
353,392	2,341	272,960	138,219
354,406	2,350	272,856	138,162
355,421	191,358	1348,521	1427,147
356,435	154,499	1479,651	1427,268
