DTS Sentinel unit serial number:	SN410029Multiplexer serial number:	ORYXHardware model number:	OX2-SRSoftware version number:	ORYX F/W v4,00 Oryx Data Collector v3.7.2.0data status	okinstallation	B4 Nyhavnadifferential loss correction	single-endedforward channel	channel 2reverse channel	N/Adate	2023/12/19time	03:10:13forward acquisition time	300,00reverse acquisition time	0,00gamma	499,1914k internal	0,3125k external	0,3125temperature offset calibration	1,0000default loss term (dB/km)	0,3820temperature slope calibration	1,0000multiplexer offset coefficient	1,0000multiplexer slope coefficient	1,0000fibre end	0,00T internal ref (°C)	21,18T ext. ref 1 (°C)	6,00T ext. ref 2 (°C)	6,01length (m)	temperature (°C)	Stokes	anti-Stokes-744,400	-38,525	-0,029	-0,012
-743,385	-72,769	-0,221	0,060
-742,371	66,790	0,096	-0,072
-741,356	204,846	-0,150	0,174
-740,342	265,730	0,054	0,071
-739,327	260,615	-0,212	0,274
-738,312	-200,000	0,030	-0,126
-737,298	-117,695	-0,310	0,041
-736,283	98,933	0,108	-0,093
-735,269	-106,173	-0,237	0,039
-734,254	-1,745	-0,122	-0,064
-733,239	-90,656	-0,293	-0,062
-732,225	72,160	0,103	-0,080
-731,210	241,306	-0,118	0,147
-730,196	24,329	-0,043	-0,026
-729,181	-200,000	-0,007	-0,097
-728,167	211,614	0,034	-0,040
-727,152	275,529	-0,035	0,046
-726,137	133,807	-0,081	-0,078
-725,123	60,994	-0,135	-0,100
-724,108	-23,786	-0,171	-0,076
-723,094	-125,606	-0,105	-0,012
-722,079	-200,000	-0,030	-0,142
-721,064	304,500	-0,043	-0,059
-720,050	6,948	-0,100	-0,055
-719,035	800,000	-0,011	-0,026
-718,021	-23,086	-0,059	0,026
-717,006	371,256	-0,132	-0,200
-715,991	800,000	-0,095	-0,253
-714,977	-200,000	0,005	0,061
-713,962	-28,966	-0,107	-0,046
-712,948	-200,000	0,006	0,128
-711,933	-200,000	-0,006	-0,026
-710,918	-200,000	-0,015	-0,062
-709,904	708,171	0,060	-0,119
-708,889	800,000	-0,042	-0,125
-707,875	-139,388	-0,204	0,016
-706,860	67,001	0,093	-0,071
-705,845	-200,000	0,001	-0,042
-704,831	-141,371	-0,068	-0,005
-703,816	-36,783	0,099	0,039
-702,802	-52,968	-0,167	-0,057
-701,787	-200,000	0,034	-0,129
-700,772	-200,000	-0,030	-0,156
-699,758	-200,000	-0,001	0,121
-698,743	-74,696	0,221	-0,059
-697,729	451,876	-0,072	0,118
-696,714	286,911	-0,102	0,137
-695,699	695,500	-0,048	-0,093
-694,685	800,000	0,011	-0,031
-693,670	-200,000	0,003	-0,082
-692,656	342,566	0,061	-0,089
-691,641	-200,000	-0,016	-0,086
-690,627	-200,000	0,011	0,047
-689,612	43,070	-0,114	-0,077
-688,597	-105,745	-0,205	-0,034
-687,583	800,000	0,049	-0,124
-686,568	-200,000	-0,010	-0,062
-685,554	-140,637	-0,047	-0,004
-684,539	-143,107	0,135	-0,010
-683,524	800,000	-0,071	0,159
-682,510	409,107	0,085	0,134
-681,495	-200,000	-0,003	-0,029
-680,481	-149,827	-0,073	-0,004
-679,466	-26,101	0,061	0,026
-678,451	181,435	0,103	-0,113
-677,437	-200,000	-0,013	0,113
-676,422	362,437	-0,101	-0,151
-675,408	-146,745	-0,010	-0,001
-674,393	-107,004	-0,164	0,027
-673,378	66,904	-0,059	0,045
-672,364	470,323	0,059	0,100
-671,349	223,066	-0,067	0,080
-670,335	-29,338	0,033	0,014
-669,320	-200,000	0,031	0,000
-668,305	-200,000	0,033	0,109
-667,291	-200,000	0,023	0,124
-666,276	42,026	-0,161	0,108
-665,262	-200,000	-0,048	-0,163
-664,247	-98,478	-0,131	-0,025
-663,232	171,540	-0,024	-0,026
-662,218	-99,933	-0,115	-0,021
-661,203	46,494	-0,131	-0,090
-660,189	800,000	-0,025	-0,061
-659,174	-200,000	-0,016	-0,078
-658,159	119,957	-0,104	-0,095
-657,145	44,168	-0,070	0,048
-656,130	-77,264	-0,134	-0,034
-655,116	-200,000	-0,005	0,027
-654,101	-95,915	-0,037	-0,007
-653,086	800,000	-0,023	-0,065
-652,072	-2,108	-0,128	-0,066
-651,057	121,102	-0,111	0,102
-650,043	324,499	-0,063	-0,090
-649,028	-108,687	-0,110	0,017
-648,014	558,173	-0,028	0,051
-646,999	788,719	0,028	-0,056
-645,984	69,184	-0,084	0,064
-644,970	800,000	-0,002	0,005
-643,955	-200,000	0,001	-0,071
-642,941	800,000	-0,045	-0,099
-641,926	70,388	0,016	0,012
-640,911	-10,116	0,060	-0,029
-639,897	166,865	0,150	-0,158
-638,882	94,847	-0,089	-0,075
-637,868	43,682	0,031	0,021
-636,853	800,000	-0,012	-0,036
-635,838	211,050	-0,099	-0,116
-634,824	320,767	0,033	0,047
-633,809	-200,000	-0,003	0,135
-632,795	389,569	0,039	0,060
-631,780	-200,000	-0,031	-0,160
-630,765	620,655	-0,064	-0,120
-629,751	800,000	-0,070	-0,210
-628,736	61,468	-0,069	-0,051
-627,722	-200,000	0,004	0,026
-626,707	-35,976	0,043	0,017
-625,692	672,193	-0,017	0,033
-624,678	694,356	-0,034	-0,066
-623,663	-200,000	0,023	0,103
-622,649	8,550	-0,120	0,067
-621,634	-155,023	-0,114	-0,005
-620,619	237,779	-0,024	0,029
-619,605	381,516	-0,031	0,048
-618,590	-200,000	-0,014	0,129
-617,576	572,313	-0,035	0,063
-616,561	-156,965	0,073	0,003
-615,546	-122,607	-0,069	0,008
-614,532	462,165	-0,013	-0,022
-613,517	319,766	-0,033	0,046
-612,503	800,000	0,075	0,167
-611,488	338,842	0,053	0,076
-610,474	158,648	0,152	0,157
-609,459	-88,214	0,084	0,018
-608,444	687,734	0,056	-0,109
-607,430	70,281	-0,121	-0,093
-606,415	-46,456	-0,082	0,030
-605,401	612,193	0,052	-0,096
-604,386	32,304	0,039	0,025
-603,371	-200,000	-0,010	-0,045
-602,357	8,820	-0,120	0,067
-601,342	51,981	-0,122	-0,086
-600,328	106,498	0,023	0,020
-599,313	-200,000	0,001	-0,089
-598,298	800,000	-0,025	0,068
-597,284	267,068	0,087	0,113
-596,269	698,403	-0,038	0,074
-595,255	353,325	-0,069	-0,101
-594,240	130,592	-0,120	-0,114
-593,225	-200,000	0,028	-0,136
-592,211	800,000	-0,034	0,085
-591,196	-200,000	-0,015	0,161
-590,182	16,762	0,041	-0,024
-589,167	-200,000	0,007	0,128
-588,152	-200,000	0,007	0,027
-587,138	-33,385	0,182	-0,074
-586,123	-92,540	-0,042	0,009
-585,109	800,000	0,084	0,181
-584,094	300,096	0,055	-0,075
-583,079	-200,000	-0,009	0,167
-582,065	74,853	-0,064	0,050
-581,050	-200,000	-0,004	0,084
-580,036	-200,000	0,004	0,144
-579,021	307,292	-0,028	-0,038
-578,006	2,202	-0,086	-0,046
-576,992	158,864	-0,040	0,041
-575,977	79,900	-0,038	0,031
-574,963	17,183	0,089	0,052
-573,948	-128,544	0,090	-0,009
-572,934	-30,108	-0,060	0,025
-571,919	-200,000	-0,011	-0,048
-570,904	-97,298	-0,177	-0,034
-569,890	-200,000	-0,012	-0,124
-568,875	800,000	0,027	-0,065
-567,861	-200,000	-0,028	0,110
-566,846	-200,000	0,010	-0,041
-565,831	-98,471	-0,086	-0,016
-564,817	28,269	-0,085	-0,053
-563,802	322,170	0,063	0,089
-562,788	87,644	-0,076	-0,062
-561,773	-200,000	0,001	0,067
-560,758	573,478	0,037	0,068
-559,744	288,351	-0,105	0,141
-558,729	-125,293	0,168	-0,019
-557,715	397,671	-0,071	0,110
-556,700	27,950	-0,085	-0,053
-555,685	-50,516	-0,106	0,037
-554,671	-18,983	-0,020	-0,009
-553,656	176,866	0,051	0,055
-552,642	-200,000	0,033	0,160
-551,627	-200,000	-0,014	-0,143
-550,612	-13,149	0,097	0,047
-549,598	-200,000	-0,025	-0,088
-548,583	169,406	-0,099	-0,105
-547,569	45,808	-0,104	-0,071
-546,554	107,084	-0,019	0,017
-545,539	-1,063	0,146	-0,076
-544,525	-33,599	-0,037	-0,015
-543,510	800,000	-0,019	0,047
-542,496	161,539	-0,040	-0,041
-541,481	392,360	0,037	-0,057
-540,466	-131,967	0,071	0,007
-539,452	800,000	0,021	-0,063
-538,437	-119,924	-0,014	0,002
-537,423	-200,000	0,042	0,148
-536,408	35,881	-0,070	0,046
-535,393	152,206	-0,071	0,071
-534,379	800,000	-0,010	0,029
-533,364	333,276	0,037	-0,053
-532,350	-200,000	0,002	0,110
-531,335	20,963	-0,038	-0,022
-530,321	-44,048	0,125	-0,046
-529,306	-200,000	0,010	0,108
-528,291	-106,306	0,066	0,011
-527,277	-200,000	0,004	-0,057
-526,262	-200,000	-0,011	-0,119
-525,248	720,505	-0,021	-0,042
-524,233	279,468	0,066	-0,087
-523,218	800,000	-0,040	-0,084
-522,204	-11,788	0,030	0,015
-521,189	-132,842	-0,112	-0,010
-520,175	-134,000	0,041	0,004
-519,160	-62,864	0,140	0,043
-518,145	-200,000	0,030	-0,170
-517,131	-185,161	0,183	-0,002
-516,116	243,826	-0,012	-0,016
-515,102	-200,000	-0,004	-0,065
-514,087	-200,000	-0,012	-0,059
-513,072	187,563	-0,137	0,151
-512,058	129,220	0,082	-0,078
-511,043	21,624	0,159	-0,095
-510,029	297,462	-0,033	0,045
-509,014	-89,227	-0,086	-0,019
-507,999	-126,938	-0,066	-0,007
-506,985	95,830	-0,072	0,061
-505,970	167,631	-0,095	-0,099
-504,956	18,428	-0,045	0,026
-503,941	298,048	0,087	0,118
-502,926	50,284	0,072	0,050
-501,912	800,000	0,040	0,123
-500,897	-66,200	-0,038	0,011
-499,883	582,972	0,002	-0,004
-498,868	-129,856	-0,139	-0,014
-497,853	233,386	-0,079	-0,097
-496,839	-131,787	0,044	0,004
-495,824	-200,000	0,020	0,109
-494,810	800,000	0,003	-0,007
-493,795	226,803	-0,140	0,168
-492,781	800,000	-0,033	-0,071
-491,766	465,307	-0,064	-0,106
-490,751	235,035	-0,027	-0,033
-489,737	-200,000	0,017	-0,090
-488,722	800,000	0,051	-0,120
-487,708	800,000	-0,039	0,124
-486,693	800,000	-0,039	-0,082
-485,678	527,178	-0,006	0,011
-484,664	-200,000	0,033	0,110
-483,649	142,988	-0,132	-0,130
-482,635	-200,000	0,002	-0,060
-481,620	794,241	0,051	0,104
-480,605	-54,953	0,098	0,032
-479,591	-56,603	-0,062	-0,020
-478,576	54,027	0,098	-0,069
-477,562	431,759	-0,048	-0,077
-476,547	-200,000	0,004	-0,078
-475,532	217,152	-0,054	-0,063
-474,518	42,533	0,102	0,068
-473,503	122,251	0,039	-0,036
-472,489	-200,000	0,016	-0,120
-471,474	117,237	0,022	-0,019
-470,459	396,376	-0,074	-0,115
-469,445	-42,204	-0,064	-0,024
-468,430	-1,160	0,017	0,009
-467,416	610,582	-0,035	0,065
-466,401	-200,000	-0,013	0,164
-465,386	800,000	0,027	-0,073
-464,372	143,121	0,067	-0,065
-463,357	48,562	-0,118	-0,081
-462,343	-53,089	-0,108	-0,036
-461,328	-200,000	-0,013	-0,043
-460,313	50,209	-0,018	-0,012
-459,299	-200,000	-0,025	-0,094
-458,284	800,000	0,072	0,181
-457,270	154,264	-0,081	0,082
-456,255	-200,000	-0,005	0,051
-455,241	-200,000	-0,012	-0,066
-454,226	-200,000	0,007	-0,058
-453,211	-28,749	-0,076	0,032
-452,197	800,000	0,017	0,054
-451,182	-160,830	0,044	0,002
-450,168	666,824	0,082	-0,157
-449,153	168,386	0,022	-0,023
-448,138	39,552	-0,056	-0,037
-447,124	-80,412	-0,086	-0,021
-446,109	-153,253	0,117	-0,006
-445,095	36,632	0,062	0,040
-444,080	164,718	0,030	-0,031
-443,065	278,996	0,045	-0,060
-442,051	-200,000	0,007	0,160
-441,036	571,673	-0,059	0,107
-440,022	-200,000	0,008	0,050
-439,007	193,898	-0,054	0,060
-437,992	-200,000	0,003	0,039
-436,978	-138,528	0,055	-0,004
-435,963	480,125	-0,107	-0,179
-434,949	714,810	-0,071	0,140
-433,934	-200,000	0,005	-0,103
-432,919	37,217	0,051	-0,033
-431,905	67,724	0,049	-0,036
-430,890	-10,540	0,079	-0,038
-429,876	-200,000	-0,005	0,075
-428,861	-200,000	0,004	0,133
-427,846	-34,031	-0,144	0,058
-426,832	-85,769	-0,038	-0,009
-425,817	800,000	0,038	-0,099
-424,803	-200,000	0,000	-0,076
-423,788	469,728	0,059	-0,097
-422,773	-200,000	0,038	0,164
-421,759	-200,000	0,004	0,019
-420,744	-120,089	-0,109	-0,014
-419,730	36,373	-0,100	0,064
-418,715	800,000	-0,006	0,016
-417,701	-200,000	-0,036	0,169
-416,686	800,000	-0,040	0,082
-415,671	78,375	0,085	0,067
-414,657	800,000	0,024	0,058
-413,642	617,203	0,034	0,063
-412,628	128,155	-0,020	-0,019
-411,613	677,698	-0,023	0,045
-410,598	-200,000	-0,020	-0,102
-409,584	800,000	0,013	-0,035
-408,569	96,925	-0,143	-0,120
-407,555	-200,000	0,003	0,112
-406,540	407,938	0,012	0,018
-405,525	360,504	0,048	0,070
-404,511	-200,000	0,001	-0,062
-403,496	114,265	0,129	-0,116
-402,482	190,129	-0,112	0,124
-401,467	-200,000	-0,003	-0,026
-400,452	126,016	0,033	-0,031
-399,438	441,664	0,045	0,073
-398,423	-200,000	-0,003	0,102
-397,409	-37,627	-0,128	-0,050
-396,394	-172,063	0,067	0,002
-395,379	61,770	0,012	0,009
-394,365	174,111	-0,063	0,067
-393,350	305,840	0,062	0,085
-392,336	-200,000	0,006	0,049
-391,321	-184,904	-0,086	-0,001
-390,306	22,221	0,045	0,027
-389,292	-200,000	-0,017	0,067
-388,277	-200,000	0,007	-0,089
-387,263	-200,000	0,029	0,160
-386,248	-200,000	-0,006	-0,038
-385,233	-200,000	0,000	-0,019
-384,219	350,571	-0,075	-0,109
-383,204	-26,535	0,080	-0,034
-382,190	545,878	0,077	0,136
-381,175	301,432	0,040	0,055
-380,160	-159,221	0,100	0,004
-379,146	-200,000	0,005	0,100
-378,131	548,576	-0,030	0,052
-377,117	183,000	-0,050	-0,055
-376,102	-58,721	-0,023	-0,007
-375,088	236,474	0,050	0,061
-374,073	-101,460	-0,031	0,005
-373,058	663,716	-0,024	-0,045
-372,044	15,618	-0,123	-0,071
-371,029	313,870	-0,085	-0,117
-370,015	245,990	0,045	0,056
-369,000	-200,000	-0,001	-0,025
-367,985	-39,736	-0,117	-0,045
-366,971	-200,000	0,005	0,076
-365,956	-111,027	0,083	0,012
-364,942	-35,399	0,114	-0,045
-363,927	800,000	-0,081	0,170
-362,912	62,988	-0,065	0,047
-361,898	-200,000	-0,012	0,048
-360,883	797,025	0,027	0,055
-359,869	-11,789	-0,090	-0,043
-358,854	800,000	-0,017	0,044
-357,839	800,000	0,019	-0,046
-356,825	-88,552	0,144	-0,031
-355,810	49,190	-0,101	-0,069
-354,796	-126,287	-0,105	0,011
-353,781	-200,000	0,013	-0,055
-352,766	800,000	-0,066	-0,143
-351,752	-109,588	0,066	-0,010
-350,737	-142,929	0,079	-0,006
-349,723	717,050	0,028	0,055
-348,708	-16,262	0,061	-0,028
-347,693	-200,000	-0,003	0,035
-346,679	-43,225	-0,087	-0,032
-345,664	-15,079	0,062	0,029
-344,650	10,300	-0,045	-0,025
-343,635	-20,922	0,107	0,048
-342,620	-21,871	0,101	-0,045
-341,606	800,000	-0,009	0,023
-340,591	427,919	0,029	-0,046
-339,577	14,777	0,019	0,011
-338,562	387,024	-0,070	-0,106
-337,548	126,350	0,064	-0,059
-336,533	97,967	-0,057	-0,048
-335,518	-193,442	-0,060	0,000
-334,504	260,795	0,077	0,097
-333,489	-200,000	-0,006	-0,038
-332,475	-200,000	-0,046	-0,192
-331,460	449,145	0,058	-0,094
-330,445	301,842	0,024	-0,032
-329,431	-32,428	0,064	-0,026
-328,416	410,003	0,055	-0,085
-327,402	-200,000	0,001	0,114
-326,387	-200,000	-0,002	0,069
-325,372	-68,334	0,004	0,001
-324,358	-109,891	-0,222	0,034
-323,343	38,039	-0,057	-0,037
-322,329	519,593	0,073	0,127
-321,314	-200,000	0,002	0,054
-320,299	111,832	0,064	0,056
-319,285	-69,042	-0,189	0,053
-318,270	800,000	-0,026	0,066
-317,256	148,865	0,023	0,023
-316,241	-54,645	0,126	0,042
-315,226	-200,000	0,005	-0,045
-314,212	800,000	0,053	-0,119
-313,197	-200,000	0,002	0,094
-312,183	77,312	-0,050	-0,039
-311,168	-200,000	-0,011	0,145
-310,153	800,000	0,011	-0,032
-309,139	-101,019	-0,060	0,011
-308,124	800,000	-0,038	-0,113
-307,110	101,851	0,122	0,104
-306,095	-200,000	0,021	0,081
-305,080	800,000	0,034	-0,088
-304,066	-45,016	-0,058	0,021
-303,051	800,000	-0,009	0,020
-302,037	750,691	0,080	-0,159
-301,022	-162,917	0,110	0,004
-300,008	800,000	-0,028	0,091
-298,993	-134,423	-0,017	-0,001
-297,978	800,000	0,009	-0,025
-296,964	175,266	-0,080	0,085
-295,949	-69,147	-0,073	0,021
-294,935	614,139	0,049	-0,090
-293,920	108,136	-0,045	-0,039
-292,905	33,128	0,115	0,073
-291,891	-200,000	-0,014	-0,048
-290,876	205,465	0,182	0,207
-289,862	-7,491	-0,110	0,054
-288,847	800,000	-0,063	-0,185
-287,832	94,855	-0,156	-0,130
-286,818	-200,000	0,010	-0,083
-285,803	79,291	0,059	-0,047
-284,789	32,815	-0,055	0,035
-283,774	98,897	-0,069	-0,058
-282,759	-9,823	-0,128	0,062
-281,745	-138,616	-0,107	-0,008
-280,730	-37,845	-0,159	0,061
-279,716	179,274	-0,029	-0,031
-278,701	74,208	0,144	0,111
-277,686	338,374	0,040	-0,057
-276,672	341,300	-0,039	0,056
-275,657	309,712	-0,024	0,033
-274,643	75,194	-0,123	-0,095
-273,628	-200,000	0,003	0,022
-272,613	-200,000	-0,002	-0,072
-271,599	-200,000	0,006	-0,087
-270,584	-200,000	0,024	0,083
-269,570	-197,604	-0,075	-0,000
-268,555	204,011	0,046	0,052
-267,540	-112,598	0,002	-0,000
-266,526	-75,861	0,114	-0,029
-265,511	-200,000	0,013	0,087
-264,497	-24,177	0,038	-0,017
-263,482	-200,000	0,047	-0,165
-262,467	-200,000	0,009	-0,051
-261,453	-151,665	-0,055	0,003
-260,438	-64,987	0,218	-0,064
-259,424	-82,907	-0,159	-0,037
-258,409	27,745	0,163	-0,100
-257,395	-200,000	0,006	-0,050
-256,380	-20,603	-0,039	-0,018
-255,365	800,000	0,043	0,118
-254,351	17,856	0,163	-0,095
-253,336	-42,338	0,079	0,029
-252,322	-200,000	0,013	-0,108
-251,307	800,000	-0,047	-0,122
-250,292	87,548	0,075	0,061
-249,278	407,660	0,031	0,048
-248,263	35,212	0,108	0,069
-247,249	800,000	-0,017	-0,042
-246,234	-200,000	0,013	-0,170
-245,219	-67,147	-0,139	-0,040
-244,205	-38,924	0,054	0,021
-243,190	-50,354	0,219	0,075
-242,176	358,364	0,062	0,090
-241,161	-200,000	0,017	0,153
-240,146	-32,027	0,048	0,020
-239,132	-200,000	0,047	0,153
-238,117	800,000	-0,052	-0,112
-237,103	-85,197	-0,061	0,014
-236,088	800,000	0,020	0,050
-235,073	32,576	-0,052	0,033
-234,059	-2,241	0,145	-0,074
-233,044	-200,000	-0,006	0,139
-232,030	-200,000	-0,004	0,050
-231,015	653,530	-0,055	0,103
-230,000	269,730	-0,095	-0,122
-228,986	-75,978	0,072	0,019
-227,971	-200,000	0,009	0,098
-226,957	371,819	-0,025	-0,038
-225,942	93,029	-0,027	-0,022
-224,927	-29,874	0,063	0,026
-223,913	-101,838	-0,124	-0,022
-222,898	-179,223	0,102	-0,002
-221,884	236,193	-0,077	0,093
-220,869	-20,814	-0,109	-0,049
-219,855	-157,565	0,066	0,003
-218,840	-200,000	0,010	-0,054
-217,825	-200,000	-0,005	0,077
-216,811	166,925	0,128	0,132
-215,796	-27,807	-0,082	0,035
-214,782	-24,977	0,075	0,032
-213,767	-26,911	-0,061	-0,026
-212,752	42,638	-0,093	0,061
-211,738	-134,575	-0,048	0,004
-210,723	-200,000	0,000	-0,066
-209,709	-200,000	0,001	0,021
-208,694	-200,000	0,002	-0,037
-207,679	-0,753	0,072	0,037
-206,665	800,000	-0,049	0,124
-205,650	783,281	0,081	-0,162
-204,636	800,000	0,022	-0,054
-203,621	201,152	0,037	-0,041
-202,606	-200,000	-0,008	0,059
-201,592	462,219	0,083	-0,136
-200,577	58,317	-0,096	-0,069
-199,563	46,804	0,055	-0,037
-198,548	594,438	0,031	-0,056
-197,533	-125,398	0,160	0,018
-196,519	2,168	0,109	0,057
-195,504	-83,394	-0,035	-0,008
-194,490	-200,000	-0,005	-0,133
-193,475	-200,000	0,009	-0,085
-192,460	-63,455	0,158	-0,047
-191,446	800,000	-0,047	0,112
-190,431	137,816	-0,024	-0,023
-189,417	61,050	0,113	0,082
-188,402	9,372	0,063	-0,035
-187,387	-8,938	0,062	0,030
-186,373	198,382	-0,017	0,020
-185,358	-200,000	-0,022	-0,124
-184,344	73,222	-0,086	0,065
-183,329	-2,291	0,150	0,076
-182,315	-200,000	0,023	0,079
-181,300	170,063	0,038	0,039
-180,285	271,354	0,043	-0,055
-179,271	800,000	-0,028	-0,064
-178,256	-155,858	0,114	0,005
-177,242	-87,409	0,033	0,007
-176,227	-200,000	0,001	0,033
-175,212	151,508	0,026	-0,026
-174,198	-66,106	-0,079	-0,023
-173,183	-200,000	0,003	0,077
-172,169	51,724	0,046	-0,032
-171,154	283,970	-0,035	-0,046
-170,139	-200,000	0,005	-0,047
-169,125	621,581	-0,062	-0,113
-168,110	-200,000	0,015	-0,055
-167,096	-200,000	-0,017	-0,061
-166,081	-200,000	-0,014	-0,078
-165,066	54,485	-0,074	0,052
-164,052	-114,832	0,093	0,013
-163,037	-200,000	-0,002	-0,021
-162,023	800,000	0,053	-0,138
-161,008	-0,579	0,079	-0,040
-159,993	-67,240	0,142	-0,040
-158,979	16,504	-0,063	-0,036
-157,964	-200,000	0,003	-0,031
-156,950	800,000	0,053	0,114
-155,935	-123,807	0,158	0,018
-154,920	-136,516	-0,060	-0,005
-153,906	385,172	-0,053	0,079
-152,891	132,397	0,016	0,015
-151,877	-200,000	-0,053	0,189
-150,862	99,782	0,030	0,025
-149,847	413,181	0,003	0,005
-148,833	44,284	-0,078	-0,052
-147,818	-71,525	0,125	0,034
-146,804	264,438	0,045	0,057
-145,789	42,981	-0,011	0,007
-144,775	-130,945	0,110	-0,011
-143,760	-200,000	-0,010	-0,035
-142,745	800,000	-0,057	-0,139
-141,731	-200,000	-0,014	0,050
-140,716	216,117	-0,064	0,074
-139,702	34,710	0,060	0,038
-138,687	-163,967	-0,044	0,001
-137,672	-146,919	0,121	-0,007
-136,658	168,090	-0,080	-0,083
-135,643	-200,000	0,028	0,152
-134,629	-176,542	-0,139	-0,003
-133,614	60,981	-0,142	-0,103
-132,599	-200,000	-0,003	-0,094
-131,585	-200,000	-0,000	0,006
-130,570	800,000	-0,060	0,130
-129,556	144,039	-0,063	-0,061
-128,541	-55,849	0,113	0,037
-127,526	233,680	0,063	-0,076
-126,512	-200,000	0,046	-0,240
-125,497	-14,630	0,141	-0,066
-124,483	76,126	-0,042	0,032
-123,468	118,910	0,051	0,046
-122,453	-200,000	0,015	0,054
-121,439	-200,000	0,022	0,119
-120,424	73,077	0,043	0,033
-119,410	-34,076	0,098	0,039
-118,395	-200,000	0,025	0,166
-117,380	3,522	0,071	0,037
-116,366	75,077	-0,022	-0,017
-115,351	190,220	-0,049	0,053
-114,337	-200,000	-0,014	-0,103
-113,322	31,953	-0,117	0,073
-112,307	-144,175	0,112	0,007
-111,293	-38,673	-0,036	-0,014
-110,278	260,976	-0,061	-0,076
-109,264	27,519	-0,088	0,054
-108,249	179,846	-0,047	0,050
-107,234	-47,184	-0,112	0,039
-106,220	-200,000	0,016	-0,060
-105,205	-109,439	0,054	-0,008
-104,191	800,000	-0,029	0,084
-103,176	203,292	-0,122	0,138
-102,162	-84,527	-0,109	0,025
-101,147	14,093	-0,033	-0,018
-100,132	-91,855	0,068	-0,014
-99,118	344,706	0,051	-0,073
-98,103	800,000	0,026	-0,056
-97,089	668,429	0,062	0,117
-96,074	-41,340	0,068	0,025
-95,059	-200,000	0,028	0,120
-94,045	-200,000	0,044	-0,187
-93,030	-200,000	-0,023	-0,099
-92,016	-200,000	-0,003	-0,140
-91,001	800,000	-0,052	0,128
-89,986	109,437	-0,042	0,036
-88,972	522,508	-0,070	0,120
-87,957	90,598	0,087	-0,071
-86,943	574,800	0,070	-0,125
-85,928	156,807	0,062	-0,063
-84,913	-102,571	-0,095	-0,016
-83,899	-200,000	0,018	0,074
-82,884	800,000	-0,040	0,106
-81,870	-200,000	-0,041	0,162
-80,855	171,224	0,046	0,048
-79,840	-100,516	-0,140	-0,025
-78,826	430,256	0,059	-0,093
-77,811	800,000	-0,031	-0,079
-76,797	800,000	0,023	0,058
-75,782	320,458	0,072	0,099
-74,767	-27,211	0,060	-0,025
-73,753	147,032	0,091	-0,089
-72,738	13,782	0,020	-0,011
-71,724	-49,943	-0,151	0,052
-70,709	-100,454	-0,051	-0,009
-69,694	-84,192	-0,071	0,016
-68,680	800,000	-0,035	0,076
-67,665	-89,605	-0,117	-0,025
-66,651	800,000	-0,056	0,149
-65,636	25,257	0,068	-0,041
-64,622	206,278	0,068	-0,077
-63,607	-28,658	-0,054	0,023
-62,592	-95,087	0,127	-0,025
-61,578	-5,519	0,020	0,010
-60,563	-200,000	-0,011	0,051
-59,549	-200,000	-0,003	0,115
-58,534	-108,371	-1,402	-0,217
-57,519	605,848	-0,800	-1,453
-56,505	-200,000	-0,910	-4,367
-55,490	-115,483	0,539	-0,073
-54,476	800,000	5,044	11,648
-53,461	-200,000	14,642	261,298
-52,446	-200,000	696,175	2278,391
-51,432	603,065	1622,809	2938,945
-50,417	117,695	1631,124	1455,901
-49,403	75,159	1284,911	981,206
-48,388	37,210	1022,496	655,280
-47,373	23,386	981,533	583,563
-46,359	22,604	970,839	574,620
-45,344	21,384	966,498	568,042
-44,330	21,392	964,936	567,128
-43,315	21,264	963,575	565,886
-42,300	21,258	962,493	565,210
-41,286	21,253	961,429	564,546
-40,271	21,239	960,504	563,937
-39,257	21,232	959,414	563,252
-38,242	21,142	958,697	562,515
-37,227	21,160	957,849	562,054
-36,213	21,180	956,817	561,492
-35,198	21,124	956,039	560,831
-34,184	21,254	955,311	560,800
-33,169	21,164	954,363	559,933
-32,154	21,247	953,559	559,706
-31,140	21,241	952,577	559,088
-30,125	21,239	951,865	558,641
-29,111	21,188	951,204	558,066
-28,096	21,224	950,428	557,705
-27,082	21,173	949,880	557,199
-26,067	21,259	948,892	556,873
-25,052	21,275	948,077	556,422
-24,038	21,160	947,486	555,685
-23,023	21,272	946,639	555,525
-22,009	21,242	946,196	555,148
-20,994	21,205	945,664	554,696
-19,979	21,249	944,981	554,412
-18,965	21,313	944,369	554,235
-17,950	21,230	943,610	553,505
-16,936	21,204	942,935	553,004
-15,921	21,186	942,240	552,516
-14,906	21,088	941,876	551,970
-13,892	21,106	941,100	551,551
-12,877	21,086	940,478	551,101
-11,863	21,078	939,783	550,644
-10,848	21,062	939,464	550,386
-9,833	21,220	938,882	550,523
-8,819	21,169	938,354	550,030
-7,804	21,107	937,525	549,326
-6,790	21,062	937,066	548,892
-5,775	21,070	936,434	548,527
-4,760	21,124	935,687	548,239
-3,746	21,028	935,205	547,631
-2,731	20,917	934,496	546,844
-1,717	20,929	933,622	546,348
-0,702	20,921	933,083	545,984
0,313	20,735	932,418	545,835
1,327	23,296	929,978	552,406
2,342	31,013	807,235	500,382
3,356	25,373	508,157	305,347
4,371	0,514	374,283	193,191
5,386	-2,271	357,252	180,958
6,400	-3,286	351,389	176,744
7,415	-3,819	348,799	174,784
8,429	-3,706	347,580	174,294
9,444	-3,899	346,737	173,623
10,459	-3,708	345,955	173,445
11,473	-3,697	345,137	173,032
12,488	-3,802	344,673	172,660
13,502	-3,826	344,161	172,360
14,517	-3,733	343,583	172,165
15,531	-3,780	343,287	171,946
16,546	-3,599	342,698	171,849
17,561	-3,715	342,397	171,546
18,575	-3,483	342,001	171,605
19,590	-3,621	341,546	171,200
20,604	-3,482	341,237	171,193
21,619	-3,574	340,894	170,897
22,634	-3,595	340,541	170,681
23,648	-3,701	340,177	170,359
24,663	-3,700	339,782	170,147
25,677	-3,590	339,588	170,163
26,692	-3,521	339,272	170,070
27,707	-3,645	338,956	169,752
28,721	-3,502	338,686	169,768
29,736	-3,616	338,302	169,428
30,750	-3,646	337,935	169,194
31,765	-3,457	337,736	169,299
32,780	-3,567	337,436	169,007
33,794	-3,533	337,258	168,940
34,809	-3,489	336,975	168,835
35,823	-3,555	336,632	168,571
36,838	-3,584	336,243	168,329
37,853	-3,652	336,085	168,156
38,867	-3,567	335,712	168,052
39,882	-3,472	335,496	168,039
40,896	-3,513	335,232	167,844
41,911	-3,585	334,927	167,594
42,926	-3,494	334,555	167,498
43,940	-3,544	334,396	167,345
44,955	-3,606	334,160	167,140
45,969	-3,645	333,911	166,957
46,984	-3,665	333,674	166,800
47,999	-3,557	333,382	166,763
49,013	-3,622	333,158	166,562
50,028	-3,526	332,944	166,551
51,042	-3,655	332,589	166,210
52,057	-3,717	332,330	165,995
53,071	-3,490	332,044	166,096
54,086	-3,473	331,823	165,991
55,101	-3,457	331,686	165,926
56,115	-3,337	331,227	165,817
57,130	-3,593	331,111	165,453
58,144	-3,645	330,766	165,207
59,159	-3,554	330,376	165,101
60,174	-3,632	330,285	164,952
61,188	-3,577	330,045	164,880
62,203	-3,606	329,669	164,645
63,217	-3,519	329,401	164,595
64,232	-3,681	329,151	164,272
65,247	-3,610	328,938	164,231
66,261	-3,620	328,700	164,087
67,276	-3,705	328,493	163,872
68,290	-3,591	328,171	163,825
69,305	-3,506	327,815	163,730
70,320	-3,503	327,761	163,690
71,334	-3,450	327,376	163,543
72,349	-3,551	327,118	163,287
73,363	-3,638	326,822	163,027
74,378	-3,532	326,586	163,013
75,393	-3,640	326,425	162,797
76,407	-3,565	326,168	162,739
77,422	-3,566	325,853	162,566
78,436	-3,522	325,542	162,445
79,451	-3,684	325,362	162,161
80,466	-3,661	325,131	162,057
81,480	-3,609	324,925	161,997
82,495	-3,680	324,732	161,808
83,509	-3,495	324,286	161,777
84,524	-3,472	324,126	161,707
85,539	-3,440	323,949	161,641
86,553	-3,523	323,572	161,346
87,568	-3,531	323,407	161,240
88,582	-3,564	323,085	161,029
89,597	-3,425	322,829	161,041
90,611	-3,601	322,643	160,739
91,626	-3,628	322,590	160,669
92,641	-3,441	322,193	160,663
93,655	-3,564	322,015	160,424
94,670	-3,531	321,625	160,251
95,684	-3,550	321,459	160,134
96,699	-3,589	321,253	159,974
97,714	-3,603	321,029	159,833
98,728	-3,381	320,755	159,926
99,743	-3,565	320,609	159,638
100,757	-3,374	320,311	159,684
101,772	-3,553	320,173	159,405
102,787	-3,627	319,922	159,185
103,801	-3,611	319,718	159,086
104,816	-3,514	319,320	158,980
105,830	-3,463	319,151	158,937
106,845	-3,586	318,938	158,683
107,860	-3,528	318,560	158,543
108,874	-3,596	318,422	158,387
109,889	-3,523	318,092	158,288
110,903	-3,630	317,894	158,059
111,918	-3,714	317,811	157,913
112,933	-3,592	317,534	157,893
113,947	-3,384	317,142	157,910
114,962	-3,580	317,051	157,638
115,976	-3,638	316,688	157,381
116,991	-3,472	316,615	157,510
118,006	-3,549	316,356	157,283
119,020	-3,379	316,198	157,375
120,035	-3,476	316,009	157,162
121,049	-3,538	315,834	156,994
122,064	-3,595	315,537	156,771
123,079	-3,637	315,355	156,621
124,093	-3,412	315,025	156,685
125,108	-3,478	314,900	156,538
126,122	-3,540	314,561	156,290
127,137	-3,354	314,298	156,344
128,151	-3,592	314,232	156,043
129,166	-3,439	314,054	156,104
130,181	-3,495	313,883	155,945
131,195	-3,393	313,412	155,806
132,210	-3,559	313,341	155,580
133,224	-3,420	312,998	155,544
134,239	-3,601	312,731	155,204
135,254	-3,564	312,671	155,200
136,268	-3,523	312,280	155,036
137,283	-3,555	312,197	154,946
138,297	-3,303	311,798	155,003
139,312	-3,485	311,599	154,697
140,327	-3,500	311,401	154,569
141,341	-3,431	311,108	154,483
142,356	-3,508	311,051	154,359
143,370	-3,559	310,842	154,187
144,385	-3,532	310,684	154,123
145,400	-3,463	310,336	154,011
146,414	-3,494	310,183	153,889
147,429	-3,464	309,861	153,746
148,443	-3,395	309,761	153,756
149,458	-3,637	309,613	153,414
150,473	-3,417	309,209	153,431
151,487	-3,377	308,953	153,332
152,502	-3,475	308,975	153,227
153,516	-3,414	308,594	153,088
154,531	-3,463	308,313	152,884
155,546	-3,531	308,173	152,730
156,560	-3,546	308,056	152,642
157,575	-3,504	307,568	152,431
158,589	-3,373	307,431	152,486
159,604	-3,528	307,357	152,273
160,619	-3,341	307,029	152,294
161,633	-3,315	306,857	152,221
162,648	-3,393	306,708	152,053
163,662	-3,448	306,457	151,857
164,677	-3,523	306,366	151,721
165,692	-3,440	306,207	151,714
166,706	-3,387	305,924	151,616
167,721	-3,428	305,629	151,414
168,735	-3,432	305,569	151,366
169,750	-3,564	305,344	151,104
170,764	-3,480	305,185	151,099
171,779	-3,424	304,822	150,963
172,794	-3,400	304,746	150,938
173,808	-3,431	304,488	150,765
174,823	-3,389	304,269	150,686
175,837	-3,453	304,069	150,507
176,852	-3,461	303,939	150,421
177,867	-3,471	303,589	150,224
178,881	-3,500	303,619	150,196
179,896	-3,426	303,232	150,067
180,910	-3,546	303,211	149,920
181,925	-3,462	302,757	149,769
182,940	-3,574	302,567	149,547
183,954	-3,594	302,374	149,416
184,969	-3,482	302,404	149,534
185,983	-3,305	302,002	149,502
186,998	-3,356	301,879	149,376
188,013	-3,251	301,681	149,372
189,027	-3,501	301,418	148,973
190,042	-3,409	301,194	148,943
191,056	-3,377	300,905	148,819
192,071	-3,396	300,756	148,713
193,086	-3,550	300,556	148,444
194,100	-3,532	300,263	148,304
195,115	-3,495	300,146	148,271
196,129	-3,395	299,922	148,249
197,144	-3,448	299,726	148,085
198,159	-3,428	299,444	147,953
199,173	-3,492	299,277	147,792
200,188	-3,522	299,067	147,645
201,202	-3,420	298,897	147,651
202,217	-3,468	298,755	147,519
203,232	-3,392	298,407	147,411
204,246	-3,492	298,291	147,240
205,261	-3,325	297,972	147,237
206,275	-3,415	297,885	147,090
207,290	-3,308	297,609	147,049
208,304	-3,340	297,521	146,960
209,319	-3,313	297,302	146,867
210,334	-3,417	296,845	146,523
211,348	-3,458	296,880	146,486
212,363	-3,322	296,636	146,489
213,377	-3,289	296,369	146,377
214,392	-3,293	296,270	146,311
215,407	-3,507	296,157	146,027
216,421	-3,395	295,844	145,973
217,436	-3,565	295,577	145,657
218,450	-3,435	295,478	145,726
219,465	-3,432	295,209	145,583
220,480	-3,560	295,000	145,339
221,494	-3,381	294,849	145,430
222,509	-3,558	294,626	145,131
223,523	-3,488	294,505	145,129
224,538	-3,549	294,207	144,908
225,553	-3,380	294,046	144,984
226,567	-3,464	293,947	144,839
227,582	-3,415	293,822	144,812
228,596	-3,577	293,597	144,528
229,611	-3,384	293,397	144,608
230,626	-3,422	293,073	144,398
231,640	-3,479	292,960	144,273
232,655	-3,438	292,802	144,223
233,669	-3,367	292,535	144,148
234,684	-3,234	292,249	144,126
235,699	-3,447	292,219	143,889
236,713	-3,368	291,989	143,840
237,728	-3,522	291,844	143,604
238,742	-3,282	291,569	143,693
239,757	-3,384	291,377	143,485
240,772	-3,465	291,252	143,330
241,786	-3,416	291,029	143,256
242,801	-3,296	290,908	143,301
243,815	-3,364	290,581	143,061
244,830	-3,336	290,358	142,965
245,844	-3,381	290,309	142,884
246,859	-3,449	289,989	142,648
247,874	-3,650	289,899	142,394
248,888	-3,570	289,693	142,359
249,903	-3,326	289,318	142,400
250,917	-3,573	289,215	142,095
251,932	-3,648	289,028	141,917
252,947	-3,786	288,694	141,606
253,961	-4,304	288,154	140,826
254,976	-5,063	287,830	139,918
255,990	-4,783	287,709	140,118
257,005	-3,141	288,346	142,012
258,020	-0,737	289,183	144,755
259,034	0,463	289,528	146,085
260,049	1,013	289,523	146,604
261,063	1,415	289,599	147,021
262,078	1,767	289,402	147,250
263,093	2,002	289,402	147,466
264,107	2,276	289,306	147,670
265,122	2,251	289,127	147,541
266,136	2,586	288,941	147,757
267,151	2,572	288,842	147,680
268,166	2,598	288,517	147,526
269,180	2,602	288,283	147,397
270,195	2,600	288,244	147,362
271,209	2,368	288,150	147,076
272,224	2,381	287,898	146,948
273,239	2,428	287,595	146,825
274,253	2,452	287,257	146,662
275,268	2,272	287,265	146,480
276,282	2,266	287,007	146,330
277,297	2,506	286,730	146,406
278,312	2,265	286,681	146,136
279,326	2,384	286,462	146,126
280,341	2,366	286,303	146,014
281,355	2,353	286,037	145,854
282,370	2,248	285,853	145,646
283,384	2,248	285,693	145,552
284,399	2,344	285,524	145,544
285,414	2,200	285,395	145,328
286,428	2,310	285,152	145,296
287,443	2,169	284,978	145,060
288,457	2,158	284,690	144,890
289,472	2,186	284,550	144,833
290,487	2,244	284,244	144,719
291,501	2,007	284,111	144,413
292,516	2,120	283,922	144,412
293,530	2,132	283,940	144,419
294,545	1,974	283,798	144,184
295,560	2,078	283,451	144,094
296,574	2,123	283,194	143,993
297,589	2,089	283,078	143,889
298,603	2,024	282,825	143,685
299,618	2,191	282,596	143,714
300,633	2,115	282,582	143,623
301,647	2,149	282,419	143,559
302,662	2,155	282,067	143,373
303,676	2,265	282,041	143,451
304,691	2,368	281,755	143,390
305,706	2,400	281,787	143,423
306,720	2,418	281,551	143,308
307,735	2,453	281,225	143,161
308,749	2,327	281,143	142,989
309,764	2,349	281,000	142,924
310,779	2,509	280,695	142,906
311,793	2,254	280,646	142,629
312,808	2,465	280,335	142,656
313,822	2,195	280,147	142,295
314,837	2,350	279,990	142,348
315,852	2,297	279,849	142,214
316,866	2,285	279,642	142,085
317,881	2,533	279,459	142,210
318,895	2,539	279,296	142,121
319,910	2,155	279,160	141,681
320,925	2,245	278,882	141,610
321,939	2,306	278,712	141,569
322,954	2,338	278,670	141,564
323,968	2,293	278,454	141,400
324,983	2,417	278,377	141,464
325,997	2,474	278,059	141,342
327,012	2,327	277,959	141,142
328,027	2,573	277,624	141,188
329,041	2,402	277,646	141,028
330,056	2,489	277,348	140,944
331,070	2,425	277,128	140,760
332,085	2,471	276,896	140,673
333,100	2,459	276,804	140,603
334,114	2,421	276,679	140,491
335,129	2,427	276,429	140,357
336,143	2,435	276,369	140,322
337,158	2,411	276,085	140,143
338,173	2,356	276,000	140,037
339,187	2,407	275,827	139,983
340,202	2,535	275,553	139,949
341,216	2,335	275,373	139,662
342,231	2,343	275,294	139,617
343,246	2,524	275,157	139,702
344,260	2,566	274,970	139,632
345,275	2,522	274,676	139,430
346,289	2,498	274,626	139,370
347,304	2,651	274,298	139,332
348,319	2,471	274,253	139,131
349,333	2,387	274,021	138,925
350,348	2,570	273,872	139,004
351,362	2,604	273,530	138,849
352,377	2,468	273,569	138,732
353,392	2,746	273,283	138,828
354,406	2,564	273,239	138,628
355,421	192,040	1348,490	1430,163
356,435	155,086	1479,580	1430,282
