DTS Sentinel unit serial number:	SN410029Multiplexer serial number:	ORYXHardware model number:	OX2-SRSoftware version number:	ORYX F/W v4,00 Oryx Data Collector v3.7.2.0data status	okinstallation	B4 Nyhavnadifferential loss correction	single-endedforward channel	channel 2reverse channel	N/Adate	2023/12/16time	14:00:13forward acquisition time	300,00reverse acquisition time	0,00gamma	499,1914k internal	0,3125k external	0,3125temperature offset calibration	1,0000default loss term (dB/km)	0,3820temperature slope calibration	1,0000multiplexer offset coefficient	1,0000multiplexer slope coefficient	1,0000fibre end	0,00T internal ref (°C)	25,17T ext. ref 1 (°C)	11,35T ext. ref 2 (°C)	11,54length (m)	temperature (°C)	Stokes	anti-Stokes-744,400	-200,000	0,024	-0,089
-743,385	-33,185	-0,142	0,059
-742,371	264,077	0,096	0,125
-741,356	-73,133	-0,197	0,054
-740,342	-72,422	-0,030	-0,008
-739,327	187,652	-0,122	0,136
-738,312	-200,000	0,002	-0,019
-737,298	-39,411	-0,141	0,055
-736,283	800,000	-0,052	-0,151
-735,269	-72,170	-0,189	0,052
-734,254	-200,000	-0,005	-0,018
-733,239	-128,694	-0,263	-0,027
-732,225	-200,000	0,020	0,099
-731,210	-35,316	-0,074	0,030
-730,196	115,756	-0,119	-0,108
-729,181	-37,079	-0,033	-0,013
-728,167	-158,863	0,034	0,001
-727,152	-170,368	0,157	-0,004
-726,137	45,932	0,071	-0,049
-725,123	-200,000	0,001	-0,027
-724,108	-200,000	-0,017	-0,113
-723,094	-200,000	-0,018	-0,098
-722,079	30,041	-0,086	-0,055
-721,064	-32,150	0,057	0,023
-720,050	93,279	-0,052	0,044
-719,035	172,284	-0,051	-0,055
-718,021	-120,487	-0,200	0,025
-717,006	49,458	-0,083	-0,058
-715,991	331,710	0,048	0,070
-714,977	-163,214	-0,194	0,007
-713,962	43,192	-0,067	-0,045
-712,948	-144,167	0,118	0,008
-711,933	86,463	-0,066	-0,054
-710,918	446,849	0,018	-0,029
-709,904	118,390	-0,086	-0,079
-708,889	423,939	-0,056	0,090
-707,875	72,642	0,022	-0,017
-706,860	525,976	-0,006	-0,011
-705,845	-200,000	0,041	0,143
-704,831	800,000	-0,028	0,067
-703,816	-200,000	0,008	0,065
-702,802	637,479	-0,022	-0,041
-701,787	646,718	0,047	-0,090
-700,772	-12,583	0,062	0,030
-699,758	311,287	-0,062	0,086
-698,743	210,398	0,069	0,081
-697,729	-53,818	0,072	0,024
-696,714	82,537	-0,040	-0,032
-695,699	255,057	-0,118	-0,151
-694,685	800,000	-0,038	-0,091
-693,670	-148,367	0,058	0,003
-692,656	800,000	0,029	0,061
-691,641	11,713	-0,019	0,011
-690,627	-200,000	-0,030	0,105
-689,612	-34,878	-0,158	-0,064
-688,597	-200,000	-0,003	-0,071
-687,583	285,332	0,069	0,093
-686,568	-55,991	0,062	-0,020
-685,554	132,273	-0,031	0,029
-684,539	800,000	-0,017	-0,049
-683,524	800,000	0,039	0,123
-682,510	-200,000	-0,006	0,097
-681,495	-200,000	-0,031	0,111
-680,481	-137,296	-0,069	0,006
-679,466	-120,442	-0,145	-0,018
-678,451	-94,842	0,059	0,012
-677,437	-108,416	0,112	-0,018
-676,422	51,108	-0,101	0,071
-675,408	-30,387	0,063	-0,026
-674,393	-200,000	0,011	-0,127
-673,378	800,000	-0,014	-0,031
-672,364	800,000	0,050	-0,105
-671,349	261,476	-0,071	-0,092
-670,335	-26,886	0,075	-0,033
-669,320	-125,849	0,077	-0,009
-668,305	-57,798	0,038	0,012
-667,291	-138,090	-0,059	0,005
-666,276	23,293	-0,067	0,041
-665,262	227,425	-0,021	-0,025
-664,247	251,902	-0,139	-0,176
-663,232	243,173	0,030	-0,038
-662,218	-200,000	0,005	0,064
-661,203	-200,000	0,024	0,080
-660,189	-50,983	-0,097	0,033
-659,174	-31,404	-0,061	0,026
-658,159	245,206	-0,054	0,068
-657,145	199,795	0,021	-0,024
-656,130	-200,000	0,007	-0,116
-655,116	3,619	0,020	0,011
-654,101	-198,385	0,103	0,000
-653,086	-200,000	0,001	-0,030
-652,072	-145,393	-0,143	0,009
-651,057	88,040	0,011	0,009
-650,043	389,054	-0,111	-0,171
-649,028	-157,367	0,077	0,003
-648,014	800,000	0,007	-0,017
-646,999	800,000	-0,040	0,089
-645,984	223,423	-0,091	-0,109
-644,970	229,689	-0,034	-0,041
-643,955	229,619	-0,050	-0,061
-642,941	-53,915	-0,119	-0,040
-641,926	176,487	-0,068	0,073
-640,911	34,625	0,111	-0,072
-639,897	-200,000	0,013	0,091
-638,882	-33,663	-0,060	0,025
-637,868	-123,202	-0,116	-0,014
-636,853	541,201	-0,092	-0,163
-635,838	234,318	-0,064	-0,078
-634,824	-139,987	-0,107	0,008
-633,809	-200,000	0,041	-0,138
-632,795	92,387	-0,088	-0,073
-631,780	800,000	-0,055	0,121
-630,765	800,000	-0,082	-0,170
-629,751	-200,000	0,011	-0,107
-628,736	-188,974	-0,134	-0,001
-627,722	141,904	-0,066	-0,065
-626,707	-60,268	0,045	-0,014
-625,692	-200,000	-0,001	-0,053
-624,678	186,096	0,011	0,012
-623,663	800,000	0,022	-0,059
-622,649	-24,512	-0,103	-0,045
-621,634	34,214	-0,041	-0,026
-620,619	-34,073	-0,117	-0,047
-619,605	-200,000	0,025	-0,220
-618,590	-124,852	-0,094	0,011
-617,576	607,170	0,029	0,054
-616,561	406,628	-0,039	-0,061
-615,546	116,401	0,084	-0,076
-614,532	800,000	-0,022	-0,053
-613,517	5,493	-0,137	-0,075
-612,503	800,000	0,037	0,096
-611,488	9,124	0,104	-0,058
-610,474	-200,000	-0,006	0,051
-609,459	214,810	-0,069	-0,081
-608,444	800,000	-0,010	-0,022
-607,430	73,114	-0,101	-0,078
-606,415	29,065	0,133	-0,083
-605,401	305,771	0,035	-0,049
-604,386	-200,000	0,007	-0,067
-603,371	99,904	-0,038	0,033
-602,357	-200,000	0,005	-0,038
-601,342	203,443	0,025	-0,029
-600,328	68,484	0,071	0,054
-599,313	-200,000	0,001	-0,051
-598,298	87,522	-0,082	-0,067
-597,284	-200,000	0,014	-0,047
-596,269	-200,000	0,012	0,210
-595,255	800,000	-0,035	-0,075
-594,240	9,906	-0,025	-0,014
-593,225	-56,554	-0,087	-0,028
-592,211	-200,000	-0,008	-0,149
-591,196	173,065	0,097	0,103
-590,182	-200,000	0,000	0,006
-589,167	-40,330	0,027	0,010
-588,152	-163,841	0,036	0,001
-587,138	800,000	-0,040	-0,099
-586,123	-200,000	0,007	0,098
-585,109	735,383	-0,049	-0,097
-584,094	-200,000	-0,029	-0,147
-583,079	162,894	0,046	0,048
-582,065	-200,000	-0,017	0,102
-581,050	-200,000	0,004	0,080
-580,036	164,093	-0,121	-0,126
-579,021	-200,000	-0,001	-0,007
-578,006	-200,000	0,042	-0,139
-576,992	-0,525	-0,096	-0,050
-575,977	-17,155	-0,048	-0,023
-574,963	-58,327	0,077	-0,025
-573,948	-200,000	0,004	-0,024
-572,934	128,090	0,050	0,047
-571,919	-73,095	0,089	0,024
-570,904	86,082	-0,067	-0,054
-569,890	73,494	0,058	-0,045
-568,875	-57,694	0,101	-0,033
-567,861	20,388	-0,122	0,073
-566,846	800,000	-0,072	0,157
-565,831	800,000	-0,055	0,132
-564,817	61,836	-0,079	0,058
-563,802	-77,712	-0,060	0,015
-562,788	-62,832	-0,041	-0,012
-561,773	-42,605	-0,148	0,055
-560,758	-76,069	0,077	0,020
-559,744	-200,000	-0,004	0,034
-558,729	800,000	-0,033	-0,086
-557,715	-200,000	0,001	-0,153
-556,700	2,313	-0,153	-0,081
-555,685	-9,358	-0,140	-0,069
-554,671	69,125	0,041	0,031
-553,656	-118,751	-0,022	-0,003
-552,642	-152,418	0,134	-0,007
-551,627	-112,411	-0,115	0,017
-550,612	34,325	-0,136	-0,087
-549,598	-23,322	0,076	-0,033
-548,583	788,899	0,090	-0,183
-547,569	-82,482	-0,059	0,014
-546,554	73,525	0,053	-0,041
-545,539	-116,753	0,135	-0,018
-544,525	-131,559	0,102	-0,010
-543,510	712,643	-0,029	0,058
-542,496	-200,000	-0,014	-0,088
-541,481	800,000	0,057	-0,133
-540,466	157,379	-0,040	0,041
-539,452	-200,000	0,005	0,042
-538,437	30,896	-0,053	-0,033
-537,423	-87,218	0,145	0,032
-536,408	-139,827	-0,068	0,005
-535,393	-124,834	-0,029	0,003
-534,379	19,891	-0,113	0,067
-533,364	751,292	-0,027	0,055
-532,350	70,199	0,072	-0,055
-531,335	126,495	0,126	-0,118
-530,321	423,567	0,056	-0,090
-529,306	-200,000	-0,025	-0,087
-528,291	-104,607	0,086	0,015
-527,277	800,000	-0,039	0,119
-526,262	8,770	-0,069	-0,039
-525,248	-200,000	-0,016	0,091
-524,233	-74,537	0,080	0,021
-523,218	32,571	0,101	0,065
-522,204	144,827	0,051	-0,050
-521,189	123,573	0,052	0,049
-520,175	800,000	-0,029	0,091
-519,160	-200,000	0,016	-0,085
-518,145	670,506	0,091	0,175
-517,131	41,724	-0,090	-0,060
-516,116	591,488	-0,061	-0,111
-515,102	464,392	-0,029	0,047
-514,087	719,818	0,041	0,081
-513,072	227,248	-0,066	-0,079
-512,058	-186,526	-0,063	0,001
-511,043	-63,319	-0,015	0,005
-510,029	-40,894	0,049	0,019
-509,014	522,658	-0,047	-0,082
-507,999	56,425	0,067	-0,048
-506,985	46,574	-0,123	-0,084
-505,970	800,000	0,051	-0,119
-504,956	0,209	-0,088	0,046
-503,941	800,000	-0,019	0,047
-502,926	-200,000	0,013	-0,144
-501,912	385,752	0,064	-0,098
-500,897	126,360	0,004	0,004
-499,883	-200,000	0,000	0,013
-498,868	414,313	-0,031	-0,050
-497,853	-200,000	0,008	-0,092
-496,839	-38,489	-0,059	0,023
-495,824	400,075	0,024	-0,036
-494,810	201,069	0,056	0,064
-493,795	582,951	0,044	0,081
-492,781	82,959	-0,068	-0,055
-491,766	-151,551	-0,175	0,009
-490,751	8,980	-0,172	-0,095
-489,737	5,158	-0,113	0,061
-488,722	236,199	0,054	0,066
-487,708	-30,454	0,073	-0,031
-486,693	-54,798	-0,117	0,039
-485,678	568,174	-0,049	-0,088
-484,664	284,830	-0,087	0,116
-483,649	-175,315	0,066	-0,001
-482,635	-200,000	-0,011	-0,051
-481,620	-200,000	0,034	0,207
-480,605	-127,347	0,096	0,010
-479,591	-141,930	0,137	0,010
-478,576	47,270	-0,039	0,027
-477,562	-200,000	-0,014	0,053
-476,547	12,185	-0,056	0,032
-475,532	346,318	-0,084	0,122
-474,518	-200,000	-0,012	-0,079
-473,503	244,573	-0,041	-0,051
-472,489	233,728	-0,027	-0,033
-471,474	-49,431	0,163	-0,057
-470,459	-105,893	-0,062	-0,010
-469,445	-89,138	0,054	-0,012
-468,430	-119,610	0,164	-0,021
-467,416	800,000	0,031	-0,093
-466,401	492,044	0,017	0,029
-465,386	283,967	0,029	-0,038
-464,372	206,943	0,051	0,058
-463,357	-87,609	0,066	-0,015
-462,343	-103,538	-0,168	-0,029
-461,328	800,000	0,023	-0,052
-460,313	-124,157	0,186	0,021
-459,299	-133,537	0,159	-0,014
-458,284	-153,334	0,156	-0,008
-457,270	24,403	-0,053	-0,032
-456,255	-100,284	0,054	0,010
-455,241	-111,961	0,179	0,026
-454,226	800,000	0,030	-0,092
-453,211	-200,000	0,010	-0,058
-452,197	64,318	-0,056	-0,042
-451,182	-200,000	0,014	0,052
-450,168	9,378	0,066	0,037
-449,153	-200,000	0,010	0,042
-448,138	-97,476	-0,121	0,023
-447,124	295,209	-0,068	0,092
-446,109	800,000	-0,049	0,127
-445,095	47,566	0,134	0,092
-444,080	494,325	0,041	-0,069
-443,065	-27,763	0,080	0,034
-442,051	-200,000	0,001	0,080
-441,036	800,000	-0,068	0,174
-440,022	-20,360	-0,121	-0,055
-439,007	-16,455	-0,033	0,015
-437,992	-59,594	-0,128	0,040
-436,978	-200,000	0,008	0,141
-435,963	-200,000	-0,020	0,074
-434,949	59,425	-0,123	-0,089
-433,934	24,411	-0,036	-0,022
-432,919	-17,058	-0,028	-0,013
-431,905	145,604	-0,071	0,070
-430,890	344,218	-0,017	-0,024
-429,876	247,330	0,055	0,068
-428,861	554,312	-0,005	0,008
-427,846	800,000	0,037	-0,083
-426,832	-200,000	-0,006	0,027
-425,817	-200,000	-0,017	-0,108
-424,803	132,469	0,027	-0,026
-423,788	168,667	0,136	0,143
-422,773	-200,000	-0,043	0,175
-421,759	101,889	0,107	-0,092
-420,744	-80,516	0,049	0,012
-419,730	210,590	0,136	0,158
-418,715	-43,436	0,010	-0,004
-417,701	-200,000	-0,013	-0,047
-416,686	-200,000	-0,013	0,074
-415,671	800,000	-0,024	0,074
-414,657	-126,793	0,053	0,006
-413,642	-68,543	0,126	0,036
-412,628	-28,945	-0,080	0,033
-411,613	108,668	-0,120	-0,105
-410,598	800,000	-0,049	0,105
-409,584	-72,420	-0,025	0,007
-408,569	38,208	0,113	0,074
-407,555	70,206	-0,059	0,044
-406,540	509,520	0,021	0,036
-405,525	88,722	-0,022	0,018
-404,511	8,417	-0,052	-0,028
-403,496	160,632	0,072	-0,074
-402,482	402,354	0,100	-0,155
-401,467	800,000	-0,039	-0,116
-400,452	800,000	0,027	0,083
-399,438	-59,916	-0,098	0,031
-398,423	394,127	-0,014	-0,022
-397,409	170,055	-0,087	0,092
-396,394	-57,420	-0,006	-0,002
-395,379	-189,663	0,102	-0,001
-394,365	-96,989	0,080	0,015
-393,350	225,131	0,102	0,121
-392,336	-119,287	-0,092	-0,012
-391,321	182,767	-0,044	0,048
-390,306	-200,000	0,025	-0,145
-389,292	-119,430	0,094	0,012
-388,277	39,921	-0,060	0,039
-387,263	-122,863	-0,098	-0,012
-386,248	-72,375	0,137	0,037
-385,233	800,000	-0,010	-0,030
-384,219	-47,379	-0,169	0,060
-383,204	148,458	-0,092	-0,091
-382,190	27,048	-0,026	-0,016
-381,175	-200,000	-0,004	-0,019
-380,160	-129,038	0,068	0,007
-379,146	800,000	0,073	0,155
-378,131	-200,000	-0,010	0,108
-377,117	-108,526	0,074	0,012
-376,102	-102,247	-0,117	0,021
-375,088	-200,000	-0,002	-0,042
-374,073	590,624	0,035	-0,064
-373,058	-74,397	-0,024	0,006
-372,044	86,588	0,060	-0,048
-371,029	-52,176	-0,045	0,015
-370,015	22,676	0,050	0,030
-369,000	653,921	-0,042	0,079
-367,985	-138,727	-0,123	-0,010
-366,971	-200,000	0,040	0,131
-365,956	270,902	-0,134	0,174
-364,942	-12,959	0,082	0,039
-363,927	-200,000	0,015	0,061
-362,912	-200,000	-0,025	0,105
-361,898	-76,829	0,055	0,014
-360,883	-83,434	0,035	-0,008
-359,869	-200,000	-0,016	0,138
-358,854	79,678	0,086	-0,068
-357,839	-66,551	0,075	0,022
-356,825	284,945	0,074	0,098
-355,810	-86,662	0,017	-0,004
-354,796	-200,000	-0,016	-0,061
-353,781	178,725	-0,106	-0,114
-352,766	258,910	0,056	-0,071
-351,752	-44,621	-0,136	-0,050
-350,737	59,911	0,079	-0,057
-349,723	92,600	0,044	-0,037
-348,708	-51,067	0,007	0,002
-347,693	612,476	0,035	-0,064
-346,679	-20,732	-0,235	-0,105
-345,664	-102,668	-0,042	0,007
-344,650	-200,000	-0,017	-0,102
-343,635	632,900	0,008	0,015
-342,620	-95,381	-0,010	-0,002
-341,606	-8,247	0,066	0,033
-340,591	356,987	-0,054	-0,079
-339,577	223,436	-0,059	0,070
-338,562	-50,685	-0,163	-0,056
-337,548	-99,609	0,102	0,019
-336,533	-200,000	0,003	0,064
-335,518	800,000	0,023	0,068
-334,504	379,277	-0,020	-0,031
-333,489	-200,000	-0,001	0,078
-332,475	-200,000	0,016	0,062
-331,460	34,819	-0,009	0,006
-330,445	75,461	-0,017	0,013
-329,431	-134,562	0,087	0,008
-328,416	-200,000	0,004	-0,041
-327,402	309,795	-0,035	-0,048
-326,387	-82,936	0,089	-0,021
-325,372	-96,462	-0,115	0,022
-324,358	-99,433	-0,114	-0,021
-323,343	-200,000	-0,012	-0,191
-322,329	-200,000	0,003	-0,011
-321,314	800,000	0,035	0,105
-320,299	731,547	0,043	0,085
-319,285	501,505	0,025	0,042
-318,270	-200,000	-0,011	-0,193
-317,256	-92,797	-0,166	-0,034
-316,241	800,000	-0,038	0,101
-315,226	608,845	0,045	-0,082
-314,212	612,445	0,051	0,094
-313,197	800,000	-0,018	-0,038
-312,183	-200,000	0,036	-0,136
-311,168	-200,000	-0,044	0,142
-310,153	800,000	0,023	-0,050
-309,139	-200,000	-0,035	-0,152
-308,124	31,624	0,101	-0,063
-307,110	-77,095	0,023	0,006
-306,095	48,901	0,091	0,063
-305,080	-200,000	-0,004	0,058
-304,066	204,933	-0,029	-0,034
-303,051	-32,128	-0,067	0,027
-302,037	800,000	0,081	0,192
-301,022	218,413	0,123	-0,144
-300,008	800,000	-0,022	0,056
-298,993	-148,668	0,083	0,005
-297,978	-142,091	0,095	0,007
-296,964	83,479	-0,079	0,063
-295,949	800,000	-0,029	0,069
-294,935	-150,340	0,156	-0,009
-293,920	-200,000	0,019	0,098
-292,905	-200,000	0,001	0,048
-291,891	800,000	0,018	-0,052
-290,876	-200,000	0,004	0,031
-289,862	-104,675	0,054	-0,009
-288,847	636,681	-0,074	-0,138
-287,832	387,354	-0,029	-0,044
-286,818	-52,748	0,204	-0,069
-285,803	61,226	0,168	0,122
-284,789	-200,000	-0,023	0,164
-283,774	-80,793	0,091	0,022
-282,759	154,986	-0,030	-0,031
-281,745	2,767	-0,103	0,054
-280,730	60,702	-0,048	0,035
-279,716	72,831	0,115	0,088
-278,701	800,000	-0,024	-0,060
-277,686	-49,831	0,183	0,063
-276,672	-200,000	-0,005	-0,122
-275,657	61,193	0,185	-0,134
-274,643	330,621	-0,065	-0,091
-273,628	-200,000	-0,032	0,109
-272,613	-26,330	0,206	0,088
-271,599	-35,305	0,026	-0,010
-270,584	-112,958	0,044	0,006
-269,570	-77,356	0,108	0,027
-268,555	-200,000	-0,001	0,137
-267,540	89,747	-0,006	0,005
-266,526	-200,000	-0,028	-0,098
-265,511	402,805	-0,037	-0,057
-264,497	-27,032	-0,100	-0,043
-263,482	206,561	0,095	0,108
-262,467	243,715	-0,078	0,096
-261,453	92,915	0,060	0,049
-260,438	54,985	-0,059	-0,042
-259,424	435,254	0,061	-0,097
-258,409	184,381	0,068	-0,074
-257,395	185,380	0,042	0,045
-256,380	-200,000	-0,028	-0,094
-255,365	326,121	-0,054	0,076
-254,351	111,476	-0,108	0,095
-253,336	-200,000	0,023	-0,101
-252,322	-118,132	-0,036	0,005
-251,307	-116,468	0,010	-0,001
-250,292	-121,459	0,138	0,017
-249,278	800,000	0,026	0,081
-248,263	800,000	-0,052	0,106
-247,249	-34,704	0,035	-0,014
-246,234	188,170	-0,104	0,114
-245,219	-96,571	-0,091	0,017
-244,205	691,150	-0,023	-0,043
-243,190	-14,561	-0,134	-0,063
-242,176	800,000	0,030	0,076
-241,161	45,029	-0,067	0,045
-240,146	-22,054	0,096	-0,042
-239,132	-150,955	0,053	-0,003
-238,117	178,165	0,013	-0,014
-237,103	312,033	0,040	-0,055
-236,088	800,000	-0,044	-0,125
-235,073	-200,000	0,023	0,168
-234,059	219,964	-0,016	0,019
-233,044	-200,000	0,006	0,096
-232,030	30,021	0,109	0,067
-231,015	-200,000	-0,010	0,041
-230,000	-200,000	0,004	-0,087
-228,986	800,000	-0,094	-0,198
-227,971	-154,948	0,080	0,004
-226,957	185,198	0,042	0,046
-225,942	72,922	0,035	0,027
-224,927	800,000	0,069	0,167
-223,913	375,750	0,052	-0,078
-222,898	20,069	-0,074	-0,043
-221,884	133,341	0,101	-0,096
-220,869	-200,000	-0,020	-0,091
-219,855	-150,066	0,114	0,006
-218,840	-77,438	0,036	0,009
-217,825	238,481	-0,034	0,041
-216,811	-72,910	0,088	-0,023
-215,796	58,044	-0,069	-0,050
-214,782	164,228	0,090	0,093
-213,767	58,533	0,053	0,038
-212,752	165,199	0,066	0,068
-211,738	33,844	-0,113	0,072
-210,723	172,761	0,029	-0,031
-209,709	800,000	0,021	0,055
-208,694	-40,039	-0,090	-0,034
-207,679	487,218	0,037	-0,061
-206,665	800,000	0,034	0,088
-205,650	139,722	0,044	-0,042
-204,636	-200,000	-0,018	-0,063
-203,621	446,777	-0,110	0,177
-202,606	-200,000	0,012	0,096
-201,592	282,076	-0,068	-0,090
-200,577	-200,000	-0,042	-0,161
-199,563	-200,000	0,024	0,097
-198,548	156,913	0,166	0,168
-197,533	800,000	-0,032	-0,090
-196,519	-14,529	0,109	-0,051
-195,504	800,000	-0,058	0,151
-194,490	800,000	-0,049	-0,100
-193,475	-200,000	-0,028	-0,106
-192,460	556,633	0,067	0,118
-191,446	800,000	-0,040	-0,081
-190,431	-11,337	-0,041	0,020
-189,417	189,908	0,103	0,113
-188,402	-200,000	-0,001	0,085
-187,387	-37,725	-0,056	0,021
-186,373	257,959	0,005	0,006
-185,358	154,040	0,042	0,042
-184,344	-98,075	0,077	-0,014
-183,329	185,523	0,034	0,036
-182,315	787,814	-0,049	-0,099
-181,300	-200,000	-0,032	0,111
-180,285	20,117	0,124	0,073
-179,271	-200,000	-0,010	0,124
-178,256	38,334	-0,137	-0,089
-177,242	-200,000	0,010	0,049
-176,227	37,364	0,022	-0,014
-175,212	87,702	-0,102	0,082
-174,198	-135,843	0,088	0,007
-173,183	-200,000	0,003	-0,014
-172,169	643,406	0,021	-0,039
-171,154	-49,499	0,155	0,054
-170,139	800,000	0,020	-0,056
-169,125	9,567	0,086	-0,048
-168,110	-200,000	-0,018	-0,060
-167,096	-41,741	-0,105	0,039
-166,081	-200,000	-0,007	-0,137
-165,066	-99,451	-0,131	-0,024
-164,052	800,000	0,042	-0,091
-163,037	800,000	0,016	-0,037
-162,023	-155,263	0,081	-0,004
-161,008	-22,657	0,091	-0,040
-159,993	679,296	-0,098	0,187
-158,979	111,026	-0,130	0,114
-157,964	76,463	-0,068	-0,052
-156,950	126,754	-0,048	0,044
-155,935	-4,477	-0,057	-0,028
-154,920	611,578	0,056	0,102
-153,906	-200,000	0,049	0,193
-152,891	-46,953	-0,076	-0,027
-151,877	-200,000	-0,001	0,034
-150,862	480,950	0,012	-0,020
-149,847	139,027	-0,106	0,101
-148,833	800,000	0,022	-0,063
-147,818	800,000	-0,030	0,093
-146,804	197,285	0,028	0,031
-145,789	74,349	0,045	0,034
-144,775	169,233	-0,136	-0,141
-143,760	800,000	-0,067	-0,162
-142,745	255,399	0,046	-0,057
-141,731	154,705	-0,033	0,033
-140,716	21,328	0,063	0,037
-139,702	337,047	0,098	-0,138
-138,687	-40,996	-0,060	-0,022
-137,672	13,769	0,142	-0,080
-136,658	800,000	-0,036	-0,074
-135,643	-200,000	-0,019	-0,108
-134,629	-110,867	-0,073	-0,011
-133,614	-127,291	-0,065	0,007
-132,599	41,387	-0,092	-0,061
-131,585	-34,694	0,077	-0,031
-130,570	-200,000	0,009	-0,184
-129,556	800,000	0,038	-0,103
-128,541	-200,000	0,016	0,109
-127,526	-80,998	-0,040	0,010
-126,512	130,623	-0,012	0,011
-125,497	800,000	0,039	0,110
-124,483	-200,000	-0,027	0,105
-123,468	270,896	-0,114	0,146
-122,453	113,318	0,025	-0,022
-121,439	-180,554	0,043	-0,001
-120,424	587,244	-0,087	-0,156
-119,410	150,730	0,125	-0,123
-118,395	-81,729	-0,083	0,020
-117,380	127,594	-0,027	0,025
-116,366	696,921	-0,047	0,090
-115,351	800,000	-0,051	-0,154
-114,337	-8,760	0,056	-0,027
-113,322	-200,000	-0,014	0,066
-112,307	-200,000	-0,003	0,072
-111,293	-10,917	0,085	-0,041
-110,278	-200,000	0,020	0,111
-109,264	-200,000	0,033	0,197
-108,249	690,702	-0,025	-0,047
-107,234	-111,983	-0,100	0,014
-106,220	-107,227	-0,128	-0,020
-105,205	-200,000	0,005	0,142
-104,191	465,085	0,109	0,177
-103,176	181,065	-0,061	0,066
-102,162	9,529	-0,128	0,070
-101,147	-78,253	-0,174	0,043
-100,132	-18,309	-0,041	-0,018
-99,118	-58,827	-0,070	-0,022
-98,103	-91,647	-0,105	-0,021
-97,089	-112,113	0,127	0,018
-96,074	-149,886	-0,033	0,002
-95,059	800,000	0,049	0,123
-94,045	-200,000	-0,030	0,108
-93,030	64,699	-0,086	-0,063
-92,016	-200,000	-0,035	-0,116
-91,001	5,723	0,169	-0,091
-89,986	119,368	0,054	-0,049
-88,972	-200,000	-0,017	0,118
-87,957	800,000	0,055	-0,118
-86,943	148,509	0,079	0,078
-85,928	-144,512	-0,072	0,005
-84,913	-5,475	0,055	0,027
-83,899	234,421	-0,024	0,029
-82,884	8,868	0,025	-0,014
-81,870	-53,873	-0,019	0,006
-80,855	-36,137	-0,059	-0,023
-79,840	167,558	0,154	-0,158
-78,826	22,461	0,054	-0,032
-77,811	11,397	-0,127	-0,070
-76,797	644,076	-0,034	0,063
-75,782	800,000	-0,024	0,063
-74,767	237,237	0,085	0,103
-73,753	-21,701	0,129	0,057
-72,738	231,697	0,047	-0,056
-71,724	-32,010	0,018	-0,007
-70,709	177,288	-0,029	-0,031
-69,694	-69,415	-0,147	-0,041
-68,680	800,000	-0,045	0,097
-67,665	-200,000	-0,004	-0,064
-66,651	310,432	-0,064	0,087
-65,636	351,601	-0,060	-0,086
-64,622	800,000	0,017	-0,053
-63,607	-58,644	-0,115	0,036
-62,592	-147,708	-0,069	0,004
-61,578	162,511	-0,146	0,149
-60,563	-53,935	-0,013	-0,004
-59,549	800,000	0,015	0,044
-58,534	-78,984	-1,124	0,275
-57,519	434,943	-1,144	-1,811
-56,505	-200,000	-0,782	-4,214
-55,490	583,474	0,405	-0,724
-54,476	800,000	4,697	11,475
-53,461	-200,000	11,464	224,507
-52,446	-200,000	672,357	2201,150
-51,432	595,879	1622,788	2925,037
-50,417	124,597	1654,932	1510,224
-49,403	76,773	1309,549	1006,636
-48,388	41,562	1040,210	681,612
-47,373	26,875	995,843	603,766
-46,359	26,096	985,882	595,119
-45,344	25,431	981,695	590,370
-44,330	25,335	980,159	589,104
-43,315	25,230	978,743	587,885
-42,300	25,248	977,489	587,167
-41,286	25,267	976,606	586,675
-40,271	25,192	975,736	585,885
-39,257	25,271	974,807	585,561
-38,242	25,195	973,957	584,779
-37,227	25,233	973,116	584,377
-36,213	25,134	972,265	583,518
-35,198	25,184	971,122	582,972
-34,184	25,193	970,489	582,599
-33,169	25,191	969,658	582,069
-32,154	25,229	968,553	581,506
-31,140	25,254	967,734	581,073
-30,125	25,249	966,886	580,524
-29,111	25,169	966,178	579,816
-28,096	25,231	965,278	579,457
-27,082	25,223	964,743	579,086
-26,067	25,278	963,786	578,667
-25,052	25,245	963,060	578,101
-24,038	25,192	962,467	577,550
-23,023	25,194	961,867	577,172
-22,009	25,196	961,031	576,654
-20,994	25,205	960,361	576,259
-19,979	25,194	959,796	575,863
-18,965	25,204	959,078	575,441
-17,950	25,234	958,319	575,061
-16,936	25,178	957,711	574,491
-15,921	25,160	957,026	573,998
-14,906	25,071	956,426	573,329
-13,892	25,032	955,829	572,825
-12,877	25,091	954,863	572,412
-11,863	25,073	954,460	572,090
-10,848	25,051	954,000	571,721
-9,833	25,186	953,479	571,818
-8,819	25,188	952,803	571,397
-7,804	25,164	952,038	570,841
-6,790	25,063	951,685	570,282
-5,775	25,152	951,050	570,162
-4,760	25,082	950,498	569,585
-3,746	25,144	949,833	569,363
-2,731	24,945	949,264	568,364
-1,717	24,894	948,442	567,687
-0,702	24,891	947,744	567,237
0,313	24,700	947,169	567,138
1,327	27,155	944,948	573,566
2,342	35,294	825,152	523,261
3,356	31,292	519,928	322,737
4,371	6,868	379,162	203,977
5,386	3,890	361,219	190,619
6,400	2,230	355,216	185,409
7,415	1,306	352,139	182,668
8,429	1,240	350,850	181,904
9,444	1,232	349,729	181,297
10,459	1,103	349,019	180,759
11,473	1,119	348,558	180,522
12,488	1,326	348,017	180,474
13,502	1,371	347,515	180,251
14,517	1,343	346,703	179,781
15,531	0,922	346,214	179,010
16,546	0,951	345,758	178,793
17,561	0,958	345,440	178,621
18,575	0,954	345,076	178,412
19,590	1,020	344,583	178,219
20,604	1,122	344,200	178,126
21,619	0,777	343,832	177,512
22,634	1,021	343,524	177,625
23,648	0,951	343,192	177,355
24,663	0,825	342,880	177,029
25,677	0,839	342,655	176,914
26,692	0,884	342,255	176,745
27,707	1,047	341,789	176,679
28,721	0,971	341,606	176,480
29,736	0,966	341,157	176,226
30,750	0,781	340,967	175,897
31,765	0,844	340,832	175,884
32,780	0,920	340,452	175,762
33,794	0,929	340,227	175,640
34,809	0,759	339,933	175,275
35,823	0,849	339,555	175,169
36,838	0,815	339,246	174,955
37,853	0,765	338,880	174,692
38,867	0,761	338,708	174,583
39,882	0,781	338,463	174,465
40,896	0,855	338,277	174,439
41,911	0,930	337,660	174,192
42,926	0,914	337,576	174,114
43,940	0,673	337,302	173,678
44,955	0,704	336,892	173,488
45,969	0,653	336,821	173,377
46,984	0,506	336,481	173,017
47,999	0,418	336,047	172,677
49,013	0,210	335,768	172,279
50,028	0,121	335,654	172,103
51,042	0,092	335,309	171,877
52,057	0,166	334,997	171,787
53,071	0,065	334,805	171,557
54,086	0,155	334,449	171,463
55,101	0,197	334,231	171,384
56,115	0,342	334,324	171,582
57,130	0,824	334,040	171,973
58,144	0,970	333,678	171,937
59,159	0,965	333,632	171,893
60,174	1,005	333,325	171,765
61,188	1,117	333,027	171,723
62,203	0,974	332,881	171,470
63,217	1,006	332,660	171,378
64,232	1,017	332,222	171,149
65,247	1,119	331,920	171,094
66,261	1,007	331,691	170,833
67,276	0,780	331,379	170,400
68,290	0,642	330,973	170,020
69,305	0,583	330,801	169,850
70,320	0,524	330,618	169,674
71,334	0,763	330,502	169,869
72,349	1,120	330,156	170,079
73,363	1,052	330,064	169,940
74,378	1,205	329,572	169,845
75,393	1,123	329,444	169,671
76,407	1,148	329,224	169,570
77,422	0,942	329,038	169,228
78,436	1,085	328,736	169,219
79,451	1,143	328,498	169,146
80,466	0,977	328,145	168,763
81,480	0,774	327,641	168,261
82,495	0,721	327,544	168,137
83,509	0,546	327,450	167,879
84,524	0,630	327,060	167,756
85,539	0,479	326,789	167,435
86,553	0,461	326,687	167,347
87,568	0,701	326,270	167,386
88,582	0,544	326,058	167,088
89,597	0,571	326,018	167,082
90,611	0,889	325,712	167,264
91,626	0,836	325,539	167,101
92,641	1,024	325,177	167,109
93,655	0,820	325,105	166,831
94,670	0,781	324,819	166,626
95,684	0,758	324,697	166,524
96,699	0,783	324,404	166,386
97,714	0,801	323,943	166,154
98,728	0,511	323,814	165,753
99,743	0,476	323,540	165,559
100,757	0,461	323,347	165,430
101,772	0,656	323,100	165,504
102,787	0,742	322,960	165,512
103,801	0,774	322,648	165,373
104,816	0,844	322,535	165,377
105,830	0,920	322,405	165,378
106,845	0,997	322,067	165,275
107,860	0,947	321,899	165,119
108,874	0,877	321,554	164,851
109,889	0,723	321,320	164,548
110,903	0,802	321,042	164,477
111,918	0,787	320,798	164,321
112,933	0,810	320,579	164,219
113,947	0,953	320,319	164,227
114,962	0,895	320,258	164,118
115,976	0,919	320,004	163,999
116,991	0,876	319,796	163,831
118,006	0,829	319,530	163,630
119,020	0,818	319,413	163,544
120,035	0,899	319,347	163,582
121,049	1,024	318,987	163,519
122,064	0,961	318,748	163,314
123,079	0,922	318,474	163,117
124,093	0,709	318,228	162,745
125,108	0,557	318,016	162,458
126,122	0,409	317,564	162,052
127,137	0,331	317,306	161,823
128,151	0,381	317,102	161,757
129,166	0,491	317,017	161,818
130,181	0,622	316,745	161,806
131,195	0,560	316,536	161,619
132,210	0,819	316,357	161,791
133,224	0,942	316,297	161,879
134,239	0,953	316,099	161,775
135,254	0,782	315,915	161,482
136,268	0,688	315,472	161,141
137,283	0,644	315,031	160,854
138,297	0,544	314,810	160,620
139,312	0,431	314,639	160,397
140,327	0,827	314,504	160,738
141,341	1,091	314,558	161,033
142,356	1,131	314,380	160,970
143,370	1,096	314,205	160,828
144,385	1,222	313,880	160,783
145,400	1,256	313,635	160,679
146,414	1,123	313,425	160,415
147,429	0,956	313,283	160,150
148,443	1,161	313,001	160,211
149,458	1,222	312,870	160,194
150,473	1,186	312,569	159,987
151,487	1,107	312,372	159,788
152,502	1,300	311,993	159,785
153,516	1,228	311,978	159,686
154,531	1,104	311,784	159,441
155,546	1,202	311,553	159,413
156,560	1,107	311,363	159,201
157,575	0,920	311,181	158,896
158,589	1,154	310,705	158,886
159,604	1,184	310,688	158,895
160,619	1,193	310,551	158,820
161,633	1,121	310,227	158,565
162,648	1,136	310,054	158,478
163,662	1,188	309,876	158,427
164,677	1,139	309,775	158,309
165,692	1,141	309,524	158,169
166,706	1,374	309,114	158,190
167,721	1,164	309,020	157,908
168,735	1,317	308,838	157,961
169,750	1,249	308,789	157,851
170,764	1,366	308,584	157,854
171,779	1,498	308,269	157,816
172,794	1,369	308,163	157,613
173,808	1,399	307,707	157,398
174,823	0,691	307,562	156,571
175,837	0,551	307,213	156,234
176,852	1,091	307,061	156,705
177,867	1,365	307,140	157,016
178,881	1,367	306,857	156,860
179,896	1,324	306,664	156,702
180,910	1,361	306,438	156,611
181,925	1,364	306,205	156,481
182,940	1,491	306,037	156,514
183,954	1,391	305,885	156,318
184,969	1,410	305,568	156,161
185,983	1,201	305,523	155,909
186,998	1,356	305,277	155,929
188,013	1,366	305,033	155,801
189,027	1,355	304,801	155,657
190,042	1,257	304,738	155,510
191,056	1,458	304,506	155,585
192,071	1,441	304,255	155,426
193,086	1,484	304,077	155,365
194,100	1,432	303,957	155,236
195,115	1,473	303,635	155,100
196,129	1,349	303,372	154,825
197,144	1,488	303,036	154,782
198,159	1,422	302,944	154,653
199,173	1,271	302,846	154,435
200,188	1,525	302,479	154,493
201,202	1,256	302,260	154,094
202,217	0,691	301,788	153,262
203,232	0,634	301,711	153,151
204,246	1,010	301,662	153,497
205,261	1,482	301,441	153,851
206,275	1,279	301,261	153,539
207,290	1,497	301,115	153,673
208,304	1,393	300,933	153,461
209,319	1,458	300,700	153,394
210,334	1,352	300,507	153,174
211,348	1,308	300,243	152,980
212,363	1,379	300,069	152,951
213,377	1,367	299,891	152,834
214,392	1,499	299,889	152,953
215,407	1,150	299,437	152,357
216,421	1,076	299,181	152,138
217,436	1,027	298,946	151,955
218,450	1,104	298,841	151,965
219,465	1,236	298,652	151,989
220,480	1,249	298,621	151,973
221,494	1,303	298,433	151,918
222,509	1,389	298,106	151,825
223,523	1,483	297,959	151,831
224,538	1,433	297,758	151,664
225,553	1,531	297,556	151,646
226,567	1,398	297,495	151,469
227,582	1,548	297,226	151,468
228,596	1,563	297,082	151,397
229,611	1,452	297,015	151,237
230,626	1,390	296,751	151,028
231,640	0,976	296,258	150,350
232,655	0,712	295,842	149,863
233,669	0,793	295,682	149,849
234,684	0,624	295,524	149,587
235,699	0,683	295,515	149,627
236,713	0,910	295,270	149,716
237,728	0,973	295,197	149,728
238,742	0,986	295,041	149,649
239,757	1,216	294,916	149,801
240,772	1,192	294,876	149,743
241,786	1,217	294,496	149,561
242,801	1,178	294,137	149,327
243,815	1,000	294,051	149,094
244,830	1,126	293,747	149,051
245,844	1,144	293,603	148,983
246,859	1,052	293,396	148,773
247,874	1,121	293,297	148,777
248,888	0,968	292,983	148,455
249,903	1,398	292,881	148,813
250,917	1,405	292,843	148,787
251,932	1,456	292,980	148,894
252,947	2,254	292,743	149,546
253,961	1,958	292,545	149,141
254,976	1,924	292,219	148,928
255,990	2,938	292,584	150,097
257,005	3,693	292,913	150,996
258,020	4,536	292,924	151,816
259,034	4,464	292,556	151,542
260,049	4,314	292,318	151,257
261,063	4,161	292,037	150,949
262,078	4,298	292,133	151,119
263,093	5,013	292,128	151,804
264,107	4,942	291,997	151,652
265,122	5,026	291,714	151,575
266,136	5,224	291,721	151,758
267,151	5,052	291,352	151,385
268,166	4,854	291,160	151,078
269,180	4,750	290,944	150,851
270,195	4,816	290,740	150,797
271,209	4,831	290,568	150,707
272,224	4,715	290,461	150,526
273,239	4,575	290,012	150,144
274,253	4,732	290,113	150,336
275,268	5,270	290,010	150,791
276,282	5,077	289,537	150,345
277,297	5,339	289,412	150,521
278,312	5,253	289,337	150,385
279,326	4,994	289,219	150,059
280,341	4,991	288,882	149,868
281,355	4,918	288,565	149,620
282,370	4,554	288,546	149,245
283,384	4,729	288,262	149,254
284,399	4,785	288,106	149,213
285,414	4,915	287,905	149,221
286,428	4,642	287,758	148,869
287,443	4,472	287,443	148,530
288,457	4,438	287,271	148,394
289,472	4,468	287,139	148,342
290,487	4,474	286,955	148,239
291,501	4,318	286,501	147,842
292,516	4,307	286,347	147,739
293,530	4,358	286,394	147,799
294,545	4,459	286,311	147,840
295,560	4,584	286,086	147,830
296,574	4,508	285,798	147,595
297,589	4,343	285,589	147,317
298,603	4,843	285,660	147,818
299,618	4,948	285,497	147,820
300,633	4,662	285,305	147,434
301,647	4,674	284,949	147,249
302,662	4,600	284,763	147,070
303,676	4,639	284,632	147,026
304,691	4,296	284,322	146,526
305,706	4,199	284,048	146,281
306,720	4,121	283,855	146,094
307,735	4,298	283,597	146,116
308,749	4,434	283,606	146,237
309,764	4,436	283,562	146,202
310,779	4,421	283,243	146,011
311,793	4,231	282,945	145,665
312,808	4,226	282,912	145,630
313,822	4,301	282,631	145,543
314,837	4,273	282,416	145,393
315,852	4,098	282,297	145,154
316,866	4,100	282,073	145,028
317,881	4,319	281,890	145,126
318,895	4,435	281,681	145,115
319,910	4,293	281,358	144,802
320,925	3,996	281,255	144,457
321,939	4,158	281,164	144,550
322,954	4,292	281,019	144,588
323,968	4,437	281,008	144,706
324,983	4,390	280,730	144,505
325,997	4,574	280,635	144,616
327,012	4,383	280,485	144,347
328,027	4,618	280,120	144,366
329,041	4,385	279,831	143,986
330,056	4,624	279,852	144,207
331,070	4,530	279,623	143,989
332,085	4,360	279,433	143,720
333,100	4,583	279,235	143,813
334,114	4,364	278,951	143,450
335,129	4,012	278,927	143,098
336,143	4,392	278,791	143,369
337,158	4,844	278,629	143,691
338,173	4,698	278,317	143,383
339,187	4,499	278,244	143,148
340,202	4,455	278,086	143,013
341,216	4,690	277,901	143,123
342,231	4,413	277,739	142,770
343,246	4,446	277,485	142,658
344,260	4,409	277,358	142,545
345,275	4,562	277,201	142,593
346,289	4,888	277,151	142,855
347,304	5,117	276,786	142,865
348,319	4,531	276,670	142,253
349,333	4,534	276,397	142,103
350,348	4,588	276,359	142,121
351,362	4,985	276,147	142,364
352,377	4,748	276,127	142,123
353,392	4,744	275,880	141,980
354,406	4,765	275,825	141,957
355,421	190,979	1336,686	1414,143
356,435	154,339	1466,082	1414,324
