DTS Sentinel unit serial number:	SN410029Multiplexer serial number:	ORYXHardware model number:	OX2-SRSoftware version number:	ORYX F/W v4,00 Oryx Data Collector v3.7.2.0data status	okinstallation	B4 Nyhavnadifferential loss correction	single-endedforward channel	channel 2reverse channel	N/Adate	2023/12/15time	14:25:13forward acquisition time	300,00reverse acquisition time	0,00gamma	499,1914k internal	0,3161k external	0,3161temperature offset calibration	1,0000default loss term (dB/km)	0,3820temperature slope calibration	1,0000multiplexer offset coefficient	1,0000multiplexer slope coefficient	1,0000fibre end	0,00T internal ref (°C)	14,92T ext. ref 1 (°C)	1,52T ext. ref 2 (°C)	1,67length (m)	temperature (°C)	Stokes	anti-Stokes-744,400	-118,642	0,119	0,015
-743,385	-166,822	-0,171	-0,005
-742,371	62,046	0,072	0,053
-741,356	-158,306	-0,300	0,013
-740,342	-84,762	0,108	-0,025
-739,327	-120,537	-0,343	0,042
-738,312	235,931	0,071	-0,087
-737,298	-103,954	-0,336	0,057
-736,283	-200,000	-0,020	0,204
-735,269	-145,206	-0,217	0,014
-734,254	-104,591	0,188	0,032
-733,239	-19,407	-0,633	-0,288
-732,225	22,430	0,216	0,130
-731,210	-200,000	0,051	0,249
-730,196	142,354	0,025	-0,024
-729,181	-200,000	-0,021	-0,078
-728,167	173,792	-0,061	-0,064
-727,152	-200,000	-0,003	0,033
-726,137	178,529	-0,092	0,099
-725,123	800,000	0,039	-0,081
-724,108	800,000	-0,081	-0,186
-723,094	46,405	-0,083	-0,056
-722,079	-49,709	0,006	0,002
-721,064	-60,601	0,090	0,028
-720,050	283,978	0,047	0,062
-719,035	404,412	-0,041	0,064
-718,021	42,892	0,072	-0,048
-717,006	-200,000	-0,015	-0,062
-715,991	-134,590	-0,127	-0,011
-714,977	-200,000	0,022	-0,117
-713,962	-44,885	0,195	-0,071
-712,948	62,706	-0,037	0,028
-711,933	529,661	-0,088	-0,154
-710,918	-124,353	0,022	-0,003
-709,904	-44,654	-0,077	-0,028
-708,889	800,000	0,068	-0,206
-707,875	37,209	-0,060	-0,039
-706,860	-200,000	0,023	-0,079
-705,845	800,000	0,043	-0,103
-704,831	-34,827	0,056	-0,023
-703,816	-17,113	-0,136	-0,063
-702,802	-200,000	-0,006	-0,041
-701,787	220,066	0,037	-0,044
-700,772	-94,892	0,073	0,014
-699,758	192,450	-0,080	0,089
-698,743	-138,275	-0,013	0,001
-697,729	19,833	-0,054	-0,032
-696,714	-86,119	-0,167	0,038
-695,699	426,349	-0,073	-0,116
-694,685	-136,394	-0,083	0,007
-693,670	225,432	-0,167	-0,199
-692,656	69,586	0,047	-0,036
-691,641	-92,912	0,058	-0,012
-690,627	-200,000	0,005	0,033
-689,612	165,637	0,092	0,095
-688,597	-15,040	-0,010	-0,005
-687,583	800,000	-0,030	-0,081
-686,568	-83,918	-0,075	-0,018
-685,554	-69,955	-0,110	0,031
-684,539	-24,441	-0,140	0,061
-683,524	800,000	0,042	-0,094
-682,510	-108,894	0,116	0,018
-681,495	-50,539	0,124	-0,043
-680,481	84,543	-0,106	-0,086
-679,466	-40,530	-0,066	-0,025
-678,451	799,494	0,022	0,045
-677,437	-200,000	-0,000	0,008
-676,422	-166,643	-0,133	0,004
-675,408	182,227	-0,106	0,115
-674,393	-200,000	0,020	-0,160
-673,378	-200,000	0,037	-0,147
-672,364	374,114	0,030	-0,046
-671,349	-200,000	-0,020	-0,129
-670,335	56,955	-0,053	0,038
-669,320	-200,000	0,014	-0,069
-668,305	800,000	-0,055	0,134
-667,291	490,286	-0,043	-0,072
-666,276	11,166	0,038	-0,021
-665,262	199,983	-0,071	-0,080
-664,247	411,514	0,026	0,040
-663,232	87,236	0,082	-0,067
-662,218	-200,000	0,024	0,139
-661,203	-70,139	-0,029	0,008
-660,189	-56,759	0,101	-0,033
-659,174	225,443	-0,037	-0,044
-658,159	-4,175	-0,047	0,024
-657,145	-8,494	0,087	0,043
-656,130	613,002	-0,061	0,112
-655,116	221,369	-0,060	-0,070
-654,101	291,756	-0,055	0,074
-653,086	-18,059	-0,051	0,023
-652,072	-136,060	-0,066	-0,006
-651,057	275,208	-0,060	-0,078
-650,043	-51,978	-0,079	0,027
-649,028	-31,626	0,173	-0,071
-648,014	622,066	-0,030	-0,056
-646,999	324,091	-0,022	-0,031
-645,984	-105,071	-0,109	0,018
-644,970	283,182	-0,053	-0,071
-643,955	77,986	-0,074	-0,058
-642,941	49,190	-0,088	-0,061
-641,926	-4,155	0,106	0,054
-640,911	-200,000	-0,009	-0,099
-639,897	108,285	0,039	-0,034
-638,882	71,423	-0,077	0,058
-637,868	-200,000	-0,005	0,022
-636,853	-200,000	-0,044	-0,161
-635,838	540,160	0,014	-0,025
-634,824	-43,430	-0,040	0,015
-633,809	-200,000	0,041	-0,169
-632,795	-48,486	-0,084	0,030
-631,780	800,000	0,037	0,095
-630,765	-73,738	-0,093	0,025
-629,751	155,006	-0,132	0,133
-628,736	441,030	-0,012	0,019
-627,722	-25,898	-0,225	-0,097
-626,707	-90,958	0,099	-0,021
-625,692	53,703	0,092	0,064
-624,678	-17,921	-0,071	-0,032
-623,663	-150,830	-0,065	0,004
-622,649	12,148	-0,101	-0,057
-621,634	73,612	-0,014	0,011
-620,619	-95,866	-0,089	-0,017
-619,605	-200,000	0,014	0,059
-618,590	-200,000	-0,022	0,161
-617,576	800,000	-0,047	-0,100
-616,561	800,000	-0,058	-0,119
-615,546	204,214	-0,100	-0,114
-614,532	-195,192	-0,158	-0,001
-613,517	290,770	-0,063	-0,084
-612,503	26,165	0,113	-0,069
-611,488	614,079	0,004	0,008
-610,474	800,000	-0,079	0,169
-609,459	-200,000	-0,007	0,038
-608,444	-112,808	-0,062	-0,009
-607,430	418,202	-0,066	0,104
-606,415	-114,250	-0,117	-0,016
-605,401	-200,000	0,007	-0,087
-604,386	-22,989	-0,103	-0,045
-603,371	103,888	0,023	0,020
-602,357	29,071	-0,086	-0,053
-601,342	800,000	0,057	0,123
-600,328	-200,000	-0,019	-0,164
-599,313	800,000	0,023	-0,053
-598,298	-32,198	0,106	0,043
-597,284	188,991	-0,087	0,096
-596,269	-200,000	-0,002	-0,088
-595,255	-88,576	0,135	0,029
-594,240	-131,120	-0,130	-0,013
-593,225	-104,647	0,038	0,006
-592,211	-50,761	-0,056	-0,019
-591,196	800,000	-0,057	0,145
-590,182	-28,127	-0,061	-0,026
-589,167	35,708	-0,058	-0,037
-588,152	92,844	0,066	0,055
-587,138	-78,385	-0,068	-0,017
-586,123	271,612	-0,068	-0,088
-585,109	-35,895	-0,013	0,005
-584,094	42,428	-0,043	-0,028
-583,079	-76,780	0,101	0,026
-582,065	-115,823	0,030	0,004
-581,050	119,582	0,149	-0,135
-580,036	-200,000	-0,013	-0,190
-579,021	-200,000	-0,010	-0,063
-578,006	800,000	-0,023	-0,059
-576,992	137,945	0,019	-0,018
-575,977	-200,000	0,026	0,190
-574,963	416,171	-0,030	0,046
-573,948	-200,000	0,027	0,097
-572,934	164,319	0,056	0,058
-571,919	-99,642	0,085	-0,016
-570,904	-10,040	-0,080	0,039
-569,890	-142,382	0,088	0,006
-568,875	-200,000	0,008	-0,046
-567,861	-200,000	0,013	-0,041
-566,846	-81,880	0,068	-0,016
-565,831	-66,712	-0,090	-0,026
-564,817	123,162	0,103	-0,095
-563,802	91,655	-0,007	-0,006
-562,788	-200,000	-0,008	-0,112
-561,773	-200,000	-0,005	-0,035
-560,758	-183,108	-0,087	-0,001
-559,744	800,000	0,026	-0,081
-558,729	393,384	-0,087	0,133
-557,715	-82,904	-0,163	-0,038
-556,700	-200,000	0,024	-0,120
-555,685	-55,956	-0,093	0,030
-554,671	127,099	0,083	-0,077
-553,656	-200,000	-0,011	0,098
-552,642	-200,000	0,026	0,115
-551,627	148,503	0,028	-0,027
-550,612	-49,528	-0,121	-0,042
-549,598	102,946	-0,120	-0,103
-548,583	20,051	-0,129	0,076
-547,569	-200,000	-0,026	0,087
-546,554	-200,000	-0,019	0,065
-545,539	-200,000	0,021	-0,105
-544,525	-166,377	0,107	0,003
-543,510	-186,095	-0,053	0,001
-542,496	21,275	-0,106	-0,063
-541,481	-91,928	0,066	-0,014
-540,466	-15,338	0,072	-0,033
-539,452	472,298	-0,023	-0,039
-538,437	-100,971	-0,064	0,011
-537,423	-200,000	0,054	-0,184
-536,408	77,010	-0,091	0,071
-535,393	-64,382	-0,240	0,071
-534,379	-200,000	0,000	0,016
-533,364	440,155	-0,023	0,037
-532,350	-97,354	0,006	-0,001
-531,335	44,859	0,118	-0,079
-530,321	163,207	0,115	-0,118
-529,306	-200,000	0,021	-0,134
-528,291	800,000	-0,070	-0,179
-527,277	272,638	0,026	0,034
-526,262	800,000	0,020	-0,044
-525,248	348,127	0,062	-0,089
-524,233	800,000	-0,042	0,097
-523,218	76,416	0,105	-0,081
-522,204	-200,000	0,006	0,129
-521,189	800,000	-0,025	-0,074
-520,175	53,277	-0,041	-0,029
-519,160	-96,881	0,071	0,013
-518,145	-74,490	-0,043	-0,011
-517,131	-18,571	0,054	0,025
-516,116	-53,420	0,027	-0,009
-515,102	-200,000	0,013	0,053
-514,087	-200,000	-0,014	-0,086
-513,072	800,000	0,070	-0,150
-512,058	149,336	-0,112	-0,111
-511,043	26,334	0,053	0,032
-510,029	-185,907	0,224	0,002
-509,014	-77,388	-0,022	-0,005
-507,999	9,954	-0,139	0,077
-506,985	191,239	-0,019	-0,021
-505,970	-82,696	-0,046	0,011
-504,956	90,812	-0,132	0,108
-503,941	-118,586	-0,040	-0,005
-502,926	37,181	0,095	0,061
-501,912	-54,988	0,031	0,010
-500,897	44,734	-0,037	-0,025
-499,883	58,345	-0,102	0,073
-498,868	-100,209	0,043	-0,008
-497,853	-200,000	0,022	0,079
-496,839	-200,000	-0,014	-0,121
-495,824	11,446	-0,035	0,019
-494,810	512,402	-0,070	0,119
-493,795	532,472	0,060	0,104
-492,781	-200,000	0,029	-0,099
-491,766	-117,244	-0,185	-0,024
-490,751	-35,879	-0,088	0,035
-489,737	800,000	0,043	0,119
-488,722	-200,000	-0,020	0,076
-487,708	-200,000	-0,009	0,054
-486,693	800,000	0,053	0,112
-485,678	156,784	0,022	0,023
-484,664	-200,000	-0,011	0,083
-483,649	119,541	0,139	-0,126
-482,635	106,374	0,030	-0,026
-481,620	88,703	-0,013	-0,011
-480,605	553,347	-0,134	0,235
-479,591	-130,135	0,038	0,004
-478,576	-166,243	-0,108	0,003
-477,562	800,000	-0,039	-0,092
-476,547	-54,818	0,043	0,014
-475,532	-45,797	-0,114	0,041
-474,518	-73,390	0,046	0,012
-473,503	390,749	0,073	0,111
-472,489	70,278	0,113	0,085
-471,474	6,910	-0,029	-0,016
-470,459	-200,000	-0,013	0,136
-469,445	-200,000	0,002	0,036
-468,430	60,934	0,092	-0,067
-467,416	118,284	0,041	0,037
-466,401	-142,015	-0,012	0,001
-465,386	-200,000	0,006	0,059
-464,372	800,000	-0,035	0,082
-463,357	705,266	-0,026	0,051
-462,343	800,000	-0,017	0,051
-461,328	-79,922	-0,009	-0,002
-460,313	800,000	0,039	-0,091
-459,299	800,000	0,028	0,065
-458,284	598,593	0,069	0,125
-457,270	30,979	0,020	0,012
-456,255	-48,270	-0,059	0,021
-455,241	800,000	-0,038	-0,116
-454,226	800,000	-0,059	-0,119
-453,211	84,770	0,048	0,038
-452,197	-111,756	0,087	-0,013
-451,182	-200,000	-0,002	-0,085
-450,168	-131,892	-0,196	0,018
-449,153	153,149	-0,101	0,101
-448,138	-105,455	0,024	-0,004
-447,124	800,000	0,088	-0,271
-446,109	-200,000	0,012	0,052
-445,095	0,669	0,023	-0,012
-444,080	370,847	-0,068	-0,101
-443,065	-40,111	-0,013	0,005
-442,051	800,000	-0,025	-0,061
-441,036	172,823	-0,053	-0,056
-440,022	800,000	-0,029	-0,090
-439,007	-200,000	-0,011	-0,167
-437,992	-104,145	0,100	0,017
-436,978	-167,145	0,044	0,001
-435,963	-97,319	-0,037	-0,007
-434,949	-200,000	0,034	0,118
-433,934	-65,076	-0,013	0,004
-432,919	424,719	-0,019	-0,029
-431,905	-23,418	-0,115	0,050
-430,890	-200,000	0,018	0,135
-429,876	800,000	0,049	0,137
-428,861	39,850	0,046	0,030
-427,846	-194,057	0,170	0,001
-426,832	800,000	-0,020	-0,054
-425,817	800,000	0,060	-0,162
-424,803	237,011	0,037	0,044
-423,788	46,947	-0,069	-0,047
-422,773	-200,000	-0,006	0,117
-421,759	-200,000	0,008	-0,084
-420,744	169,072	0,038	0,040
-419,730	-144,503	-0,104	-0,007
-418,715	-200,000	0,011	-0,041
-417,701	394,169	-0,051	-0,077
-416,686	-200,000	0,003	-0,032
-415,671	-132,856	-0,080	0,007
-414,657	280,974	0,079	0,103
-413,642	-152,171	0,134	0,007
-412,628	-77,268	-0,121	-0,030
-411,613	175,801	0,011	-0,012
-410,598	-200,000	0,025	0,087
-409,584	106,576	-0,057	-0,049
-408,569	800,000	0,022	-0,059
-407,555	-53,653	-0,076	0,025
-406,540	554,493	0,048	0,083
-405,525	165,681	0,071	-0,073
-404,511	-39,605	-0,096	0,036
-403,496	-23,631	-0,053	-0,023
-402,482	-200,000	0,011	0,096
-401,467	262,416	0,060	-0,076
-400,452	800,000	-0,025	-0,079
-399,438	-200,000	-0,009	-0,127
-398,423	59,408	-0,013	0,009
-397,409	-19,928	0,091	-0,040
-396,394	-200,000	0,003	-0,146
-395,379	17,704	0,162	-0,093
-394,365	-200,000	-0,000	0,045
-393,350	46,117	0,126	0,085
-392,336	387,991	-0,115	0,173
-391,321	-200,000	-0,007	-0,078
-390,306	-104,031	0,034	-0,006
-389,292	-45,458	-0,004	-0,001
-388,277	-200,000	-0,023	0,082
-387,263	-97,701	0,100	-0,019
-386,248	800,000	-0,044	0,095
-385,233	-200,000	-0,001	0,028
-384,219	22,865	-0,094	-0,056
-383,204	181,091	0,055	-0,059
-382,190	23,101	0,053	0,031
-381,175	-200,000	0,024	-0,109
-380,160	152,698	-0,136	0,136
-379,146	34,464	-0,045	0,029
-378,131	28,502	0,047	0,029
-377,117	350,365	0,117	0,169
-376,102	800,000	0,028	-0,079
-375,088	53,724	-0,047	0,033
-374,073	-127,114	-0,141	0,015
-373,058	133,672	0,093	-0,088
-372,044	-21,104	0,068	-0,030
-371,029	-104,674	-0,136	0,022
-370,015	171,818	0,066	0,069
-369,000	10,229	-0,100	0,055
-367,985	-200,000	-0,019	-0,067
-366,971	139,416	0,015	-0,014
-365,956	-41,673	-0,172	-0,064
-364,942	-42,003	0,117	-0,043
-363,927	52,244	-0,072	-0,050
-362,912	488,350	0,034	-0,057
-361,898	53,401	0,048	-0,033
-360,883	478,911	-0,072	-0,118
-359,869	-68,632	0,086	0,024
-358,854	-73,722	0,025	-0,007
-357,839	-92,430	0,123	0,025
-356,825	92,848	0,136	0,111
-355,810	-74,433	0,100	0,026
-354,796	-102,117	0,092	-0,016
-353,781	800,000	-0,065	-0,134
-352,766	421,421	-0,081	-0,126
-351,752	-4,480	0,102	-0,051
-350,737	299,319	-0,046	-0,061
-349,723	-117,034	0,079	-0,010
-348,708	-60,803	0,071	-0,022
-347,693	-108,658	-0,021	0,003
-346,679	191,279	0,059	0,065
-345,664	-200,000	-0,020	0,082
-344,650	72,595	0,099	0,075
-343,635	800,000	0,029	0,070
-342,620	53,373	0,027	0,019
-341,606	-163,578	-0,080	0,003
-340,591	-136,774	-0,038	0,003
-339,577	800,000	0,052	-0,158
-338,562	-67,691	-0,053	0,015
-337,548	-200,000	-0,016	-0,114
-336,533	408,032	-0,057	0,087
-335,518	-41,822	-0,013	0,005
-334,504	378,476	-0,008	0,013
-333,489	33,474	0,091	0,057
-332,475	-200,000	-0,001	-0,006
-331,460	-200,000	0,039	0,126
-330,445	-49,946	-0,048	0,016
-329,431	164,673	0,045	0,046
-328,416	103,794	0,082	0,070
-327,402	800,000	0,042	-0,120
-326,387	500,352	0,069	0,116
-325,372	-200,000	0,010	-0,123
-324,358	732,178	-0,041	-0,081
-323,343	418,059	-0,069	-0,107
-322,329	-122,217	0,063	0,007
-321,314	769,853	0,021	0,041
-320,299	800,000	0,035	0,077
-319,285	800,000	0,007	0,019
-318,270	12,402	0,028	-0,016
-317,256	776,264	-0,074	-0,148
-316,241	-40,932	0,026	0,010
-315,226	-200,000	0,009	0,145
-314,212	-200,000	-0,039	0,132
-313,197	-98,012	-0,081	0,015
-312,183	-200,000	0,020	0,073
-311,168	140,814	-0,051	0,049
-310,153	-109,108	0,121	0,018
-309,139	331,510	-0,078	0,110
-308,124	-200,000	0,028	0,175
-307,110	-200,000	-0,013	0,124
-306,095	112,378	-0,099	0,087
-305,080	52,134	0,066	0,046
-304,066	-200,000	-0,041	-0,186
-303,051	727,091	-0,037	-0,072
-302,037	-200,000	-0,016	-0,053
-301,022	47,225	0,025	0,017
-300,008	19,075	0,077	-0,045
-298,993	800,000	0,097	0,243
-297,978	-200,000	0,018	0,066
-296,964	-119,352	-0,098	0,012
-295,949	-171,032	0,044	-0,001
-294,935	87,390	0,054	0,043
-293,920	-29,236	0,103	0,043
-292,905	-200,000	0,019	0,062
-291,891	725,972	-0,018	-0,035
-290,876	800,000	0,019	0,044
-289,862	-118,268	-0,016	-0,002
-288,847	348,481	-0,057	-0,082
-287,832	-200,000	0,018	-0,095
-286,818	779,639	0,011	-0,021
-285,803	-89,962	0,083	0,017
-284,789	-152,083	0,081	0,004
-283,774	-113,771	0,078	0,011
-282,759	737,603	0,062	-0,121
-281,745	-86,091	0,072	0,016
-280,730	-138,112	0,075	-0,006
-279,716	-200,000	0,030	0,098
-278,701	32,578	-0,019	0,012
-277,686	800,000	0,036	0,095
-276,672	26,909	0,132	-0,080
-275,657	397,350	0,025	0,037
-274,643	620,126	0,085	-0,155
-273,628	58,622	-0,112	-0,080
-272,613	-200,000	-0,001	-0,061
-271,599	-40,147	0,119	0,045
-270,584	10,396	-0,048	0,027
-269,570	-41,699	-0,064	0,024
-268,555	78,664	0,143	-0,111
-267,540	132,787	-0,095	0,089
-266,526	-94,069	-0,072	0,014
-265,511	-200,000	-0,011	0,068
-264,497	403,670	0,065	-0,099
-263,482	-200,000	0,025	0,088
-262,467	-200,000	0,053	-0,182
-261,453	-55,397	-0,044	-0,014
-260,438	-200,000	-0,007	0,051
-259,424	-163,144	-0,091	-0,003
-258,409	792,532	0,006	-0,013
-257,395	-145,180	0,068	-0,004
-256,380	-113,450	0,068	0,009
-255,365	800,000	-0,028	0,057
-254,351	-200,000	0,014	-0,071
-253,336	478,802	-0,103	-0,169
-252,322	800,000	-0,035	-0,102
-251,307	-190,451	0,026	-0,000
-250,292	-200,000	0,013	0,047
-249,278	-14,216	0,080	-0,037
-248,263	21,811	0,012	0,007
-247,249	14,375	-0,093	0,052
-246,234	103,470	0,036	-0,031
-245,219	322,738	-0,080	0,110
-244,205	109,969	-0,060	-0,052
-243,190	-150,890	0,006	-0,000
-242,176	305,717	0,125	0,169
-241,161	-200,000	0,004	0,119
-240,146	-200,000	0,011	0,061
-239,132	-190,796	0,070	-0,001
-238,117	417,943	-0,067	0,104
-237,103	517,196	-0,050	-0,086
-236,088	-200,000	-0,044	-0,170
-235,073	308,653	0,072	0,097
-234,059	-136,231	0,065	0,005
-233,044	-88,799	-0,047	-0,010
-232,030	643,423	0,042	-0,077
-231,015	-121,233	-0,129	-0,015
-230,000	29,377	0,031	-0,019
-228,986	-200,000	0,003	0,069
-227,971	44,941	0,135	-0,090
-226,957	601,202	0,062	-0,112
-225,942	290,905	0,086	-0,113
-224,927	204,569	0,060	-0,067
-223,913	-200,000	0,002	0,042
-222,898	-200,000	-0,013	-0,054
-221,884	-43,133	0,081	0,029
-220,869	-200,000	-0,032	0,145
-219,855	-200,000	0,038	-0,000
-218,840	800,000	0,059	0,171
-217,825	-40,456	-0,055	0,021
-216,811	-96,556	0,029	0,005
-215,796	-200,000	0,012	-0,053
-214,782	800,000	0,042	-0,132
-213,767	-200,000	0,001	-0,038
-212,752	-200,000	0,002	0,201
-211,738	120,532	-0,009	-0,008
-210,723	-96,916	0,088	0,017
-209,709	-142,575	-0,055	-0,004
-208,694	-71,653	-0,103	-0,028
-207,679	435,348	-0,059	-0,094
-206,665	-200,000	-0,026	0,104
-205,650	81,515	0,072	0,056
-204,636	65,717	0,089	0,065
-203,621	316,805	0,035	0,048
-202,606	-128,278	-0,111	0,011
-201,592	116,807	-0,052	-0,046
-200,577	19,625	-0,063	-0,036
-199,563	-123,218	-0,035	-0,004
-198,548	490,200	0,061	0,101
-197,533	-200,000	0,003	0,098
-196,519	800,000	-0,022	0,067
-195,504	-200,000	-0,001	-0,037
-194,490	800,000	-0,065	-0,141
-193,475	-200,000	0,004	-0,148
-192,460	800,000	-0,086	-0,201
-191,446	-200,000	0,001	0,004
-190,431	41,234	0,085	0,055
-189,417	-96,216	0,028	0,005
-188,402	-200,000	0,039	0,130
-187,387	-46,736	-0,090	0,031
-186,373	354,749	0,063	0,090
-185,358	-106,967	-0,026	0,004
-184,344	384,896	0,068	0,101
-183,329	-200,000	-0,018	0,125
-182,315	800,000	0,027	0,079
-181,300	54,902	0,114	0,079
-180,285	-41,381	-0,090	0,033
-179,271	-200,000	-0,016	0,102
-178,256	-55,404	0,061	0,020
-177,242	295,943	0,120	-0,159
-176,227	109,529	0,075	0,065
-175,212	800,000	0,020	-0,045
-174,198	-52,823	0,091	-0,030
-173,183	641,099	-0,062	-0,114
-172,169	320,110	0,088	-0,120
-171,154	-2,289	0,008	0,004
-170,139	27,751	-0,118	0,071
-169,125	800,000	0,049	0,131
-168,110	-57,303	-0,108	-0,034
-167,096	-200,000	-0,003	-0,052
-166,081	66,664	0,095	0,069
-165,066	-119,905	-0,179	0,022
-164,052	-200,000	-0,004	0,016
-163,037	-200,000	0,011	0,188
-162,023	-121,029	0,159	0,019
-161,008	339,923	-0,054	0,076
-159,993	-13,408	0,114	0,053
-158,979	-91,940	0,103	-0,021
-157,964	223,003	-0,121	-0,141
-156,950	-105,803	-0,079	-0,013
-155,935	-163,396	0,055	0,002
-154,920	118,633	0,072	0,064
-153,906	-54,286	-0,015	-0,005
-152,891	-151,520	-0,113	0,006
-151,877	369,449	-0,048	-0,070
-150,862	-200,000	0,009	-0,124
-149,847	-200,000	-0,011	-0,177
-148,833	42,206	0,086	0,056
-147,818	460,377	0,048	0,077
-146,804	-10,353	0,074	-0,035
-145,789	-192,615	0,136	0,001
-144,775	309,003	-0,053	0,072
-143,760	14,463	-0,025	-0,014
-142,745	-88,167	-0,087	0,019
-141,731	-200,000	-0,007	0,063
-140,716	-200,000	0,007	0,138
-139,702	800,000	-0,026	0,067
-138,687	800,000	0,033	0,092
-137,672	-65,446	0,100	0,029
-136,658	-200,000	0,020	-0,110
-135,643	-26,491	0,014	-0,006
-134,629	-200,000	-0,015	-0,079
-133,614	231,896	-0,081	0,096
-132,599	144,339	-0,060	0,058
-131,585	263,374	-0,039	0,049
-130,570	-82,816	-0,017	0,004
-129,556	-163,576	-0,088	0,003
-128,541	-152,441	-0,202	0,010
-127,526	-200,000	-0,004	0,025
-126,512	-5,623	-0,065	-0,032
-125,497	-18,772	0,110	-0,049
-124,483	314,595	-0,059	0,081
-123,468	-135,773	0,073	-0,006
-122,453	-200,000	0,008	-0,027
-121,439	-67,392	-0,107	-0,030
-120,424	-200,000	0,016	0,178
-119,410	-200,000	-0,037	0,144
-118,395	-108,389	0,109	-0,017
-117,380	-200,000	0,009	0,092
-116,366	-125,062	-0,055	-0,006
-115,351	596,210	-0,083	0,148
-114,337	-32,439	-0,122	0,049
-113,322	333,984	0,028	-0,039
-112,307	800,000	0,043	0,088
-111,293	-200,000	-0,017	0,068
-110,278	800,000	-0,014	0,040
-109,264	-200,000	0,040	0,151
-108,249	800,000	0,023	0,050
-107,234	-200,000	0,013	0,103
-106,220	-200,000	0,052	0,200
-105,205	-200,000	-0,003	0,081
-104,191	-87,388	0,104	-0,022
-103,176	-200,000	-0,007	0,094
-102,162	90,342	0,085	0,068
-101,147	800,000	0,025	-0,067
-100,132	305,509	-0,036	-0,048
-99,118	-60,764	-0,081	-0,024
-98,103	-12,230	0,110	-0,051
-97,089	-98,494	0,040	-0,007
-96,074	-125,124	-0,018	-0,002
-95,059	-86,975	-0,032	-0,007
-94,045	800,000	0,036	0,092
-93,030	411,719	0,038	0,057
-92,016	800,000	0,013	0,035
-91,001	167,160	-0,016	0,017
-89,986	800,000	0,028	0,059
-88,972	7,699	0,123	-0,066
-87,957	-38,235	-0,040	-0,015
-86,943	-200,000	0,077	0,000
-85,928	61,166	0,026	-0,018
-84,913	459,359	0,039	-0,062
-83,899	23,065	0,068	0,040
-82,884	251,464	0,089	0,109
-81,870	800,000	-0,025	-0,052
-80,855	93,565	-0,085	0,069
-79,840	-93,026	0,188	0,037
-78,826	800,000	-0,032	-0,065
-77,811	-70,590	-0,045	-0,012
-76,797	18,442	0,105	0,060
-75,782	-80,587	-0,139	0,033
-74,767	45,953	0,163	0,108
-73,753	363,981	0,025	0,037
-72,738	-197,784	0,073	-0,000
-71,724	-15,927	-0,115	0,052
-70,709	-200,000	-0,004	0,101
-69,694	296,131	0,049	0,065
-68,680	-200,000	0,003	0,099
-67,665	-156,394	0,137	0,006
-66,651	182,788	-0,030	-0,032
-65,636	383,997	0,059	-0,088
-64,622	-200,000	-0,022	0,093
-63,607	-19,299	0,047	0,021
-62,592	-75,357	-0,122	-0,031
-61,578	261,610	0,110	0,136
-60,563	-200,000	0,027	0,093
-59,549	800,000	-0,020	0,060
-58,534	-8,646	-1,990	-0,954
-57,519	-200,000	-0,105	-0,975
-56,505	-200,000	-1,322	-4,966
-55,490	91,901	0,839	0,677
-54,476	800,000	5,305	11,885
-53,461	-200,000	17,700	289,488
-52,446	800,000	726,473	2225,926
-51,432	542,079	1639,226	2812,588
-50,417	109,551	1629,441	1399,368
-49,403	74,621	1282,596	966,204
-48,388	31,357	1024,811	629,556
-47,373	20,184	986,997	569,602
-46,359	18,406	974,603	556,620
-45,344	15,294	970,783	544,267
-44,330	15,455	969,340	543,961
-43,315	15,002	967,248	541,293
-42,300	14,945	966,110	540,451
-41,286	14,913	965,523	539,997
-40,271	14,947	964,168	539,326
-39,257	14,966	963,312	538,887
-38,242	14,941	962,749	538,473
-37,227	15,007	961,680	538,064
-36,213	14,921	960,943	537,354
-35,198	14,893	960,025	536,727
-34,184	14,969	959,255	536,523
-33,169	14,912	958,285	535,775
-32,154	14,955	957,189	535,279
-31,140	14,971	956,265	534,793
-30,125	14,983	955,734	534,513
-29,111	14,901	955,092	533,868
-28,096	14,953	954,347	533,600
-27,082	14,969	953,577	533,198
-26,067	14,924	952,935	532,675
-25,052	14,935	952,179	532,266
-24,038	14,979	951,562	532,040
-23,023	14,957	950,762	531,502
-22,009	14,984	950,100	531,195
-20,994	14,896	949,677	530,657
-19,979	14,972	948,990	530,494
-18,965	14,972	948,292	530,084
-17,950	14,957	947,757	529,716
-16,936	14,906	946,950	529,083
-15,921	14,872	946,312	528,597
-14,906	14,829	945,650	528,070
-13,892	14,858	944,939	527,742
-12,877	14,864	944,430	527,457
-11,863	14,859	943,710	527,017
-10,848	14,848	943,244	526,701
-9,833	14,925	942,850	526,704
-8,819	14,872	942,028	526,057
-7,804	14,789	941,586	525,525
-6,790	14,855	940,802	525,278
-5,775	14,890	940,318	525,097
-4,760	14,911	939,670	524,779
-3,746	14,816	939,191	524,193
-2,731	14,723	938,401	523,436
-1,717	14,666	937,873	522,941
-0,702	14,688	937,110	522,565
0,313	14,509	936,433	522,413
1,327	17,184	934,068	529,445
2,342	24,127	807,287	476,290
3,356	17,969	517,915	294,875
4,371	-3,280	394,581	196,264
5,386	-5,668	378,517	185,174
6,400	-7,077	372,241	180,296
7,415	-8,100	369,466	177,645
8,429	-8,370	367,704	176,442
9,444	-8,496	366,675	175,775
10,459	-8,525	365,847	175,327
11,473	-8,605	365,270	174,934
12,488	-8,692	364,528	174,455
13,502	-8,781	363,751	173,958
14,517	-9,016	363,396	173,481
15,531	-9,074	362,673	173,048
16,546	-8,989	362,068	172,849
17,561	-9,122	361,869	172,575
18,575	-9,009	361,296	172,425
19,590	-9,197	360,940	172,008
20,604	-9,085	360,633	171,984
21,619	-9,181	360,086	171,591
22,634	-9,044	359,683	171,551
23,648	-9,185	359,282	171,172
24,663	-9,213	359,109	171,040
25,677	-9,113	358,757	170,979
26,692	-9,072	358,383	170,836
27,707	-9,212	357,986	170,460
28,721	-9,205	357,756	170,344
29,736	-9,185	357,402	170,185
30,750	-9,092	356,880	170,034
31,765	-9,090	356,583	169,879
32,780	-9,374	356,428	169,445
33,794	-9,107	356,028	169,565
34,809	-9,075	355,840	169,499
35,823	-9,300	355,601	169,097
36,838	-9,153	355,239	169,087
37,853	-9,130	354,875	168,928
38,867	-9,255	354,785	168,718
39,882	-9,063	354,142	168,629
40,896	-9,395	354,069	168,179
41,911	-9,102	353,651	168,319
42,926	-9,133	353,488	168,189
43,940	-9,253	352,964	167,780
44,955	-9,328	352,745	167,570
45,969	-9,302	352,546	167,493
46,984	-9,175	352,241	167,485
47,999	-9,315	351,951	167,164
49,013	-9,218	351,800	167,194
50,028	-9,294	351,398	166,897
51,042	-9,449	351,230	166,617
52,057	-9,254	350,879	166,669
53,071	-9,309	350,694	166,500
54,086	-9,283	350,263	166,312
55,101	-9,270	349,960	166,169
56,115	-9,195	349,625	166,084
57,130	-9,116	349,524	166,115
58,144	-9,046	349,180	166,020
59,159	-9,051	348,997	165,912
60,174	-8,957	348,755	165,893
61,188	-8,941	348,133	165,602
62,203	-9,092	348,072	165,379
63,217	-9,127	347,851	165,219
64,232	-8,987	347,638	165,268
65,247	-8,984	347,358	165,124
66,261	-8,981	346,946	164,917
67,276	-9,219	346,770	164,538
68,290	-9,178	346,267	164,332
69,305	-9,234	345,997	164,124
70,320	-9,376	345,795	163,846
71,334	-9,059	345,437	164,034
72,349	-9,044	345,288	163,967
73,363	-8,996	345,018	163,881
74,378	-9,127	344,863	163,639
75,393	-9,094	344,461	163,471
76,407	-9,224	344,367	163,260
77,422	-9,160	344,007	163,150
78,436	-9,011	343,629	163,130
79,451	-9,035	343,363	162,961
80,466	-9,150	342,991	162,636
81,480	-9,224	342,760	162,426
82,495	-9,285	342,414	162,177
83,509	-9,284	342,411	162,161
84,524	-9,241	342,059	162,031
85,539	-9,324	341,681	161,741
86,553	-9,365	341,509	161,598
87,568	-9,472	341,315	161,368
88,582	-9,373	340,920	161,281
89,597	-9,235	340,717	161,330
90,611	-9,206	340,575	161,281
91,626	-9,155	340,293	161,192
92,641	-9,299	340,076	160,909
93,655	-9,209	339,869	160,901
94,670	-9,136	339,427	160,761
95,684	-9,152	339,281	160,659
96,699	-9,201	338,966	160,439
97,714	-9,291	338,862	160,273
98,728	-9,266	338,313	160,028
99,743	-9,276	338,192	159,945
100,757	-9,362	338,051	159,765
101,772	-9,299	337,740	159,676
102,787	-9,262	337,567	159,623
103,801	-9,229	337,183	159,464
104,816	-9,273	337,153	159,386
105,830	-9,205	336,746	159,257
106,845	-9,080	336,614	159,322
107,860	-9,208	336,332	159,028
108,874	-9,187	336,088	158,923
109,889	-9,084	335,511	158,753
110,903	-9,258	335,554	158,562
111,918	-9,218	335,309	158,477
112,933	-9,118	334,912	158,389
113,947	-9,203	334,862	158,255
114,962	-9,100	334,531	158,201
115,976	-9,100	334,332	158,092
116,991	-9,098	334,038	157,942
118,006	-9,122	333,714	157,748
119,020	-9,287	333,730	157,555
120,035	-9,182	333,336	157,472
121,049	-9,169	333,167	157,393
122,064	-9,096	333,042	157,403
123,079	-8,949	332,615	157,353
124,093	-9,263	332,544	156,952
125,108	-9,254	332,113	156,744
126,122	-9,371	331,948	156,521
127,137	-9,273	331,710	156,505
128,151	-9,301	331,528	156,374
129,166	-9,229	331,196	156,284
130,181	-9,226	331,000	156,181
131,195	-9,192	330,599	156,016
132,210	-9,324	330,580	155,845
133,224	-9,141	330,142	155,829
134,239	-9,219	330,072	155,695
135,254	-9,013	329,678	155,725
136,268	-9,221	329,431	155,362
137,283	-9,204	329,230	155,274
138,297	-9,151	328,912	155,168
139,312	-9,276	328,818	154,971
140,327	-9,049	328,472	155,045
141,341	-8,898	328,566	155,245
142,356	-8,805	328,288	155,201
143,370	-8,812	327,904	154,998
144,385	-8,947	327,624	154,704
145,400	-8,886	327,462	154,680
146,414	-8,907	327,310	154,572
147,429	-9,059	326,879	154,186
148,443	-8,957	326,807	154,251
149,458	-8,959	326,480	154,081
150,473	-8,729	326,176	154,177
151,487	-8,943	326,181	153,930
152,502	-8,951	325,855	153,754
153,516	-8,864	325,601	153,715
154,531	-8,969	325,374	153,479
155,546	-9,003	325,203	153,348
156,560	-8,989	324,938	153,225
157,575	-9,038	324,665	153,028
158,589	-8,988	324,479	152,982
159,604	-8,744	324,107	153,060
160,619	-8,804	323,916	152,891
161,633	-8,727	323,690	152,854
162,648	-8,767	323,447	152,682
163,662	-8,871	323,341	152,505
164,677	-8,909	323,109	152,341
165,692	-8,905	322,967	152,265
166,706	-8,843	322,701	152,193
167,721	-8,852	322,544	152,095
168,735	-8,813	322,460	152,085
169,750	-8,775	322,202	151,990
170,764	-8,854	322,031	151,811
171,779	-8,837	321,741	151,679
172,794	-8,883	321,672	151,583
173,808	-8,951	321,251	151,297
174,823	-9,008	320,835	151,027
175,837	-9,030	320,662	150,908
176,852	-8,837	320,531	151,041
177,867	-8,776	320,318	150,993
178,881	-8,776	320,135	150,893
179,896	-8,863	319,943	150,695
180,910	-8,886	319,745	150,564
181,925	-8,723	319,535	150,628
182,940	-8,845	319,363	150,402
183,954	-8,696	319,082	150,415
184,969	-8,852	318,921	150,159
185,983	-8,828	318,645	150,041
186,998	-8,850	318,484	149,928
188,013	-8,754	318,232	149,899
189,027	-8,740	318,059	149,820
190,042	-8,676	317,889	149,794
191,056	-8,678	317,708	149,693
192,071	-8,715	317,452	149,520
193,086	-8,540	317,096	149,525
194,100	-8,662	316,815	149,250
195,115	-8,662	316,769	149,216
196,129	-8,708	316,536	149,043
197,144	-8,664	316,311	148,971
198,159	-8,777	315,992	148,687
199,173	-8,841	315,893	148,559
200,188	-8,590	315,548	148,650
201,202	-8,730	315,249	148,347
202,217	-9,050	315,018	147,887
203,232	-8,952	314,822	147,885
204,246	-8,809	314,613	147,925
205,261	-8,629	314,401	148,002
206,275	-8,784	314,365	147,809
207,290	-8,725	314,047	147,708
208,304	-8,888	313,888	147,448
209,319	-8,657	313,596	147,542
210,334	-8,699	313,322	147,355
211,348	-8,842	313,236	147,151
212,363	-8,619	313,026	147,274
213,377	-8,713	312,865	147,087
214,392	-8,680	312,595	146,981
215,407	-8,931	312,274	146,553
216,421	-8,860	311,986	146,480
217,436	-8,984	311,753	146,227
218,450	-9,025	311,695	146,145
219,465	-8,930	311,354	146,071
220,480	-9,044	311,307	145,916
221,494	-8,956	311,140	145,917
222,509	-8,975	310,992	145,815
223,523	-8,864	310,790	145,823
224,538	-8,607	310,544	145,962
225,553	-8,763	310,415	145,726
226,567	-8,642	310,186	145,731
227,582	-8,641	309,877	145,574
228,596	-8,664	309,760	145,482
229,611	-8,569	309,518	145,455
230,626	-8,868	309,219	144,991
231,640	-8,743	308,915	144,965
232,655	-9,007	308,734	144,595
233,669	-8,954	308,511	144,531
234,684	-9,118	308,331	144,265
235,699	-9,100	308,209	144,214
236,713	-9,001	308,027	144,218
237,728	-8,988	307,843	144,132
238,742	-8,906	307,495	144,040
239,757	-8,795	307,453	144,122
240,772	-8,780	307,255	144,032
241,786	-8,834	307,051	143,868
242,801	-8,830	306,884	143,781
243,815	-8,963	306,709	143,549
244,830	-8,769	306,410	143,595
245,844	-8,860	306,191	143,387
246,859	-8,972	306,153	143,242
247,874	-8,869	305,875	143,205
248,888	-8,962	305,632	142,984
249,903	-8,704	305,430	143,140
250,917	-8,781	305,247	142,962
251,932	-8,692	305,181	143,009
252,947	-8,067	305,227	143,656
253,961	-7,316	305,275	144,432
254,976	-7,027	305,184	144,670
255,990	-7,515	304,862	144,009
257,005	-6,168	305,547	145,694
258,020	-2,211	306,957	150,404
259,034	-0,814	307,153	151,917
260,049	-0,365	307,314	152,441
261,063	0,081	307,326	152,890
262,078	0,437	307,253	153,203
263,093	0,634	307,052	153,291
264,107	0,662	307,025	153,293
265,122	0,934	306,730	153,409
266,136	0,921	306,577	153,305
267,151	1,011	306,448	153,319
268,166	0,896	306,385	153,156
269,180	1,033	306,051	153,116
270,195	1,024	305,886	153,010
271,209	0,984	305,648	152,837
272,224	1,119	305,549	152,910
273,239	1,064	305,358	152,746
274,253	0,905	304,988	152,386
275,268	0,868	304,817	152,249
276,282	0,949	304,580	152,199
277,297	0,863	304,566	152,091
278,312	1,075	304,169	152,094
279,326	0,926	304,121	151,906
280,341	1,025	303,884	151,874
281,355	0,899	303,779	151,681
282,370	1,047	303,457	151,655
283,384	0,963	303,149	151,404
284,399	0,890	303,198	151,341
285,414	0,951	302,852	151,217
286,428	0,962	302,691	151,133
287,443	0,982	302,429	151,009
288,457	0,988	302,392	150,983
289,472	0,714	302,143	150,571
290,487	0,871	301,806	150,546
291,501	0,803	301,659	150,392
292,516	0,939	301,470	150,420
293,530	0,859	301,334	150,259
294,545	0,906	300,996	150,124
295,560	0,880	300,934	150,053
296,574	0,854	300,749	149,923
297,589	0,726	300,541	149,678
298,603	0,840	300,246	149,631
299,618	0,725	300,013	149,387
300,633	0,851	299,779	149,382
301,647	0,871	299,790	149,394
302,662	0,854	299,582	149,261
303,676	0,799	299,421	149,112
304,691	0,727	299,108	148,872
305,706	0,787	298,854	148,792
306,720	0,791	298,704	148,707
307,735	0,681	298,726	148,596
308,749	0,893	298,342	148,602
309,764	0,858	298,126	148,446
310,779	0,796	298,016	148,317
311,793	0,769	297,817	148,178
312,808	0,827	297,490	148,059
313,822	0,652	297,329	147,794
314,837	0,682	297,146	147,719
315,852	0,871	296,933	147,786
316,866	0,879	296,749	147,689
317,881	0,744	296,624	147,481
318,895	0,818	296,369	147,414
319,910	0,782	296,263	147,313
320,925	0,800	296,015	147,193
321,939	0,826	295,821	147,110
322,954	0,881	295,745	147,112
323,968	0,919	295,580	147,055
324,983	0,799	295,323	146,796
325,997	0,928	295,066	146,781
327,012	0,927	294,862	146,666
328,027	0,849	294,751	146,521
329,041	0,823	294,529	146,373
330,056	0,764	294,398	146,237
331,070	0,860	294,210	146,224
332,085	0,943	293,905	146,140
333,100	0,956	293,692	146,033
334,114	0,823	293,609	145,850
335,129	0,964	293,335	145,837
336,143	0,876	293,289	145,717
337,158	0,960	292,900	145,592
338,173	0,923	292,855	145,520
339,187	0,948	292,804	145,506
340,202	0,957	292,377	145,290
341,216	0,970	292,208	145,205
342,231	0,951	292,041	145,091
343,246	0,910	291,914	144,976
344,260	1,086	291,698	145,025
345,275	1,099	291,553	144,952
346,289	0,926	291,411	144,702
347,304	1,033	291,147	144,661
348,319	0,989	291,097	144,581
349,333	1,029	290,669	144,395
350,348	0,930	290,685	144,294
351,362	1,197	290,591	144,490
352,377	1,204	290,337	144,358
353,392	1,146	290,193	144,218
354,406	1,228	290,005	144,190
355,421	193,015	1324,522	1391,954
356,435	156,578	1450,528	1391,937
