DTS Sentinel unit serial number:	SN410029Multiplexer serial number:	ORYXHardware model number:	OX2-SRSoftware version number:	ORYX F/W v4,00 Oryx Data Collector v3.7.2.0data status	okinstallation	B4 Nyhavnadifferential loss correction	single-endedforward channel	channel 2reverse channel	N/Adate	2023/12/19time	11:25:13forward acquisition time	300,00reverse acquisition time	0,00gamma	499,1914k internal	0,3128k external	0,3128temperature offset calibration	1,0000default loss term (dB/km)	0,3820temperature slope calibration	1,0000multiplexer offset coefficient	1,0000multiplexer slope coefficient	1,0000fibre end	0,00T internal ref (°C)	19,81T ext. ref 1 (°C)	4,55T ext. ref 2 (°C)	4,51length (m)	temperature (°C)	Stokes	anti-Stokes-744,400	-177,982	0,145	0,003
-743,385	-74,069	-0,265	0,071
-742,371	357,229	-0,018	-0,026
-741,356	-26,954	-0,158	0,068
-740,342	623,754	0,054	-0,101
-739,327	30,050	-0,175	0,111
-738,312	-70,481	0,066	0,018
-737,298	-112,476	-0,285	-0,042
-736,283	-143,107	0,180	-0,013
-735,269	40,374	-0,155	0,103
-734,254	-66,038	0,140	-0,041
-733,239	-120,074	-0,401	-0,051
-732,225	200,139	0,128	0,146
-731,210	-200,000	0,000	0,024
-730,196	-80,299	-0,050	0,012
-729,181	53,982	-0,081	-0,058
-728,167	-48,254	0,065	-0,023
-727,152	41,173	-0,077	-0,052
-726,137	-70,689	-0,114	0,032
-725,123	800,000	0,033	-0,096
-724,108	-200,000	-0,009	-0,255
-723,094	307,249	-0,044	-0,061
-722,079	-12,934	-0,137	-0,066
-721,064	167,795	-0,057	0,060
-720,050	-50,665	-0,141	0,049
-719,035	798,155	0,025	-0,052
-718,021	729,790	0,073	-0,146
-717,006	87,534	-0,103	-0,085
-715,991	800,000	-0,072	-0,149
-714,977	-48,201	0,032	-0,011
-713,962	-85,398	-0,111	-0,026
-712,948	54,319	0,021	0,015
-711,933	71,829	0,026	-0,020
-710,918	-200,000	-0,012	-0,048
-709,904	-9,783	-0,174	-0,086
-708,889	209,702	-0,093	-0,109
-707,875	699,762	-0,037	-0,072
-706,860	358,316	-0,059	0,088
-705,845	411,508	0,048	-0,077
-704,831	136,873	0,081	0,079
-703,816	-135,641	-0,166	-0,014
-702,802	800,000	0,061	0,127
-701,787	-107,544	-0,052	0,008
-700,772	-121,895	0,018	0,002
-699,758	800,000	-0,054	-0,122
-698,743	309,869	-0,112	0,156
-697,729	20,644	-0,112	-0,067
-696,714	-39,325	0,031	-0,012
-695,699	-200,000	0,013	0,051
-694,685	-191,948	-0,052	-0,000
-693,670	38,560	0,070	-0,046
-692,656	153,436	0,015	0,015
-691,641	-200,000	-0,013	-0,063
-690,627	-200,000	-0,013	-0,140
-689,612	-38,275	-0,091	-0,035
-688,597	-200,000	-0,002	-0,047
-687,583	-200,000	-0,005	-0,099
-686,568	729,851	0,010	0,021
-685,554	154,681	-0,068	-0,070
-684,539	-165,778	0,060	-0,002
-683,524	382,747	0,028	-0,042
-682,510	800,000	-0,009	-0,026
-681,495	-200,000	-0,044	-0,232
-680,481	-200,000	-0,046	-0,169
-679,466	800,000	0,050	-0,127
-678,451	127,223	-0,187	0,177
-677,437	-200,000	0,005	0,066
-676,422	-5,683	-0,060	-0,031
-675,408	-48,482	0,138	0,049
-674,393	145,619	0,033	0,033
-673,378	321,515	0,014	0,019
-672,364	800,000	0,050	-0,145
-671,349	800,000	-0,068	-0,148
-670,335	294,350	0,015	0,021
-669,320	484,667	-0,077	0,130
-668,305	-68,897	0,044	-0,013
-667,291	800,000	-0,023	0,059
-666,276	800,000	-0,037	0,089
-665,262	138,878	-0,056	-0,055
-664,247	426,028	-0,033	-0,053
-663,232	-168,295	0,099	-0,003
-662,218	100,939	-0,077	-0,066
-661,203	800,000	-0,030	0,093
-660,189	800,000	-0,019	0,050
-659,174	-200,000	0,004	0,067
-658,159	106,763	-0,040	-0,035
-657,145	467,059	-0,023	-0,039
-656,130	-200,000	0,002	-0,019
-655,116	-169,963	-0,053	-0,001
-654,101	800,000	-0,032	-0,069
-653,086	10,371	-0,057	0,032
-652,072	162,776	-0,145	-0,151
-651,057	800,000	0,017	-0,052
-650,043	118,886	-0,093	-0,085
-649,028	-161,686	-0,097	0,004
-648,014	-200,000	0,010	-0,071
-646,999	-200,000	-0,005	0,044
-645,984	-146,543	0,093	0,006
-644,970	800,000	0,051	-0,123
-643,955	800,000	-0,004	-0,009
-642,941	369,516	-0,081	-0,122
-641,926	-200,000	0,002	0,018
-640,911	364,375	0,010	-0,015
-639,897	6,655	0,185	0,101
-638,882	-200,000	-0,013	0,204
-637,868	-200,000	0,013	0,123
-636,853	301,150	0,051	-0,070
-635,838	-130,533	0,118	0,012
-634,824	88,874	-0,164	-0,135
-633,809	-200,000	-0,003	0,120
-632,795	-200,000	0,017	-0,058
-631,780	193,743	0,058	0,065
-630,765	4,810	0,068	0,037
-629,751	800,000	-0,089	-0,194
-628,736	390,007	-0,038	-0,059
-627,722	240,150	0,048	-0,060
-626,707	-197,134	0,032	0,000
-625,692	-150,299	0,060	-0,003
-624,678	-29,669	0,087	-0,037
-623,663	-59,089	0,021	-0,007
-622,649	206,949	-0,120	0,139
-621,634	-13,153	0,097	0,047
-620,619	-154,390	0,052	0,003
-619,605	75,466	0,104	0,081
-618,590	800,000	0,051	0,128
-617,576	69,720	0,043	0,033
-616,561	800,000	0,061	0,140
-615,546	101,780	0,056	0,048
-614,532	113,563	-0,129	-0,116
-613,517	800,000	-0,036	-0,074
-612,503	-200,000	-0,017	-0,122
-611,488	-74,694	-0,056	0,015
-610,474	-200,000	-0,003	0,112
-609,459	9,235	0,060	-0,034
-608,444	-200,000	0,018	-0,147
-607,430	257,406	-0,094	0,120
-606,415	174,191	0,059	0,063
-605,401	19,053	0,053	0,032
-604,386	-9,387	0,116	0,057
-603,371	-65,497	-0,180	0,053
-602,357	60,184	-0,068	0,050
-601,342	-200,000	0,001	-0,050
-600,328	30,614	-0,072	-0,046
-599,313	155,971	0,078	-0,080
-598,298	-200,000	-0,009	-0,033
-597,284	-22,852	0,042	0,019
-596,269	-200,000	-0,004	0,043
-595,255	37,994	-0,040	0,026
-594,240	800,000	-0,009	0,023
-593,225	-94,452	0,085	0,017
-592,211	800,000	0,017	-0,037
-591,196	-11,232	-0,126	-0,061
-590,182	800,000	0,030	-0,077
-589,167	737,459	0,047	-0,093
-588,152	30,543	-0,053	-0,033
-587,138	-200,000	-0,009	0,052
-586,123	257,224	0,055	-0,071
-585,109	-200,000	-0,033	-0,162
-584,094	41,747	-0,075	-0,050
-583,079	184,772	0,091	0,100
-582,065	58,437	0,009	-0,007
-581,050	800,000	0,022	-0,049
-580,036	-200,000	0,011	0,066
-579,021	2,217	-0,141	-0,075
-578,006	-200,000	-0,007	0,051
-576,992	39,187	-0,103	0,068
-575,977	-200,000	-0,013	0,093
-574,963	-32,386	-0,147	-0,060
-573,948	393,247	0,122	0,188
-572,934	204,023	0,022	-0,026
-571,919	-34,940	-0,121	-0,048
-570,904	764,747	-0,029	0,058
-569,890	-7,213	-0,124	-0,062
-568,875	-4,569	0,062	0,031
-567,861	71,292	-0,142	0,109
-566,846	76,594	-0,111	0,087
-565,831	151,893	0,216	-0,218
-564,817	70,807	-0,041	-0,031
-563,802	279,047	0,054	-0,072
-562,788	193,199	0,022	-0,025
-561,773	16,874	0,058	-0,034
-560,758	478,604	0,024	-0,040
-559,744	418,251	-0,024	-0,038
-558,729	-200,000	-0,040	-0,147
-557,715	17,606	0,077	0,045
-556,700	-200,000	-0,011	-0,056
-555,685	-200,000	0,014	-0,096
-554,671	-10,169	0,045	-0,022
-553,656	-73,523	0,015	-0,004
-552,642	83,610	0,050	0,040
-551,627	99,943	0,105	0,090
-550,612	333,324	-0,040	0,058
-549,598	800,000	0,037	0,081
-548,583	765,796	-0,035	-0,071
-547,569	274,758	-0,083	-0,108
-546,554	-63,188	0,040	-0,012
-545,539	-47,812	-0,059	0,021
-544,525	393,484	0,087	0,134
-543,510	220,853	-0,030	-0,035
-542,496	-200,000	0,026	0,094
-541,481	100,626	-0,115	-0,099
-540,466	190,567	-0,125	-0,139
-539,452	-200,000	-0,004	-0,102
-538,437	576,325	0,047	0,085
-537,423	12,728	-0,016	0,009
-536,408	-200,000	-0,016	0,055
-535,393	78,881	-0,191	0,151
-534,379	800,000	0,022	-0,058
-533,364	-200,000	-0,003	-0,050
-532,350	87,048	0,009	-0,007
-531,335	647,584	-0,057	-0,107
-530,321	33,466	0,065	0,042
-529,306	275,289	0,021	0,028
-528,291	-125,411	-0,187	0,021
-527,277	311,914	-0,021	0,030
-526,262	113,179	0,049	-0,044
-525,248	-200,000	-0,021	-0,171
-524,233	-169,203	-0,152	0,004
-523,218	245,341	0,059	-0,074
-522,204	-76,813	-0,084	-0,022
-521,189	800,000	-0,038	-0,086
-520,175	-200,000	-0,017	0,060
-519,160	800,000	-0,032	0,090
-518,145	525,948	-0,046	0,080
-517,131	-47,665	0,062	-0,022
-516,116	800,000	0,063	0,164
-515,102	89,410	-0,063	0,052
-514,087	-200,000	-0,019	-0,204
-513,072	800,000	0,026	-0,075
-512,058	-200,000	0,019	0,065
-511,043	-113,218	-0,102	0,015
-510,029	800,000	0,027	-0,077
-509,014	22,901	-0,046	0,028
-507,999	168,478	0,074	0,078
-506,985	-56,338	-0,086	0,028
-505,970	800,000	-0,054	-0,114
-504,956	62,211	-0,076	0,056
-503,941	800,000	0,028	-0,057
-502,926	800,000	0,043	0,103
-501,912	800,000	0,032	-0,080
-500,897	110,444	-0,129	-0,115
-499,883	-43,298	0,038	-0,014
-498,868	114,400	0,068	-0,061
-497,853	-200,000	-0,018	0,067
-496,839	343,864	0,044	0,064
-495,824	-2,383	0,045	-0,023
-494,810	-200,000	0,012	0,066
-493,795	-88,194	0,010	-0,002
-492,781	171,193	-0,063	0,067
-491,766	-70,630	-0,128	-0,035
-490,751	-109,655	0,070	-0,011
-489,737	-200,000	0,001	0,050
-488,722	-200,000	-0,009	0,144
-487,708	-200,000	-0,014	0,198
-486,693	-200,000	0,014	-0,048
-485,678	800,000	0,025	-0,058
-484,664	-200,000	0,002	-0,104
-483,649	-200,000	0,000	-0,019
-482,635	-27,452	0,064	-0,027
-481,620	-200,000	0,017	0,079
-480,605	-200,000	-0,023	0,084
-479,591	-7,881	0,200	0,099
-478,576	538,554	-0,030	-0,052
-477,562	-200,000	-0,006	-0,068
-476,547	11,782	-0,096	-0,054
-475,532	800,000	-0,025	0,074
-474,518	-41,497	0,053	0,020
-473,503	-44,347	0,060	0,022
-472,489	23,003	-0,014	0,009
-471,474	65,206	-0,039	-0,029
-470,459	-49,583	-0,121	-0,042
-469,445	9,501	-0,134	0,075
-468,430	253,359	0,058	-0,073
-467,416	353,403	0,062	0,090
-466,401	581,321	0,071	0,129
-465,386	-200,000	0,049	0,192
-464,372	-51,859	0,144	0,049
-463,357	-28,041	-0,123	0,052
-462,343	800,000	-0,033	0,076
-461,328	-10,446	-0,047	-0,023
-460,313	-200,000	0,004	0,099
-459,299	15,788	0,105	0,061
-458,284	-200,000	0,002	-0,028
-457,270	-14,845	0,134	-0,063
-456,255	-101,556	-0,044	0,008
-455,241	-200,000	0,007	-0,114
-454,226	-39,605	-0,019	0,007
-453,211	-200,000	-0,005	-0,115
-452,197	-55,911	0,203	-0,066
-451,182	-200,000	-0,028	0,118
-450,168	800,000	0,007	0,018
-449,153	152,157	-0,017	0,017
-448,138	271,062	-0,048	-0,062
-447,124	150,655	0,078	-0,078
-446,109	-200,000	-0,007	-0,122
-445,095	-200,000	0,040	-0,131
-444,080	-99,339	0,098	-0,018
-443,065	-200,000	0,021	-0,105
-442,051	-200,000	-0,000	-0,033
-441,036	-106,620	-0,085	-0,014
-440,022	-59,745	0,110	-0,034
-439,007	-20,858	-0,026	0,012
-437,992	192,289	0,011	-0,012
-436,978	-130,865	-0,047	-0,005
-435,963	-200,000	0,000	0,148
-434,949	-200,000	-0,010	-0,034
-433,934	800,000	0,048	-0,127
-432,919	186,098	-0,010	0,011
-431,905	800,000	-0,007	-0,022
-430,890	-3,618	0,115	0,059
-429,876	-135,903	0,118	-0,010
-428,861	33,614	-0,059	0,037
-427,846	-200,000	0,025	-0,084
-426,832	155,022	-0,081	0,082
-425,817	298,654	-0,059	-0,080
-424,803	-200,000	-0,005	0,049
-423,788	-60,664	0,079	-0,024
-422,773	-200,000	0,016	0,112
-421,759	320,305	-0,020	0,028
-420,744	294,903	-0,046	-0,063
-419,730	-15,636	-0,094	0,044
-418,715	-120,732	-0,041	0,005
-417,701	-200,000	0,001	-0,079
-416,686	-96,497	-0,075	-0,015
-415,671	24,092	-0,027	-0,016
-414,657	-126,073	0,108	0,012
-413,642	131,754	0,116	0,110
-412,628	-200,000	0,003	0,101
-411,613	-200,000	-0,009	-0,079
-410,598	157,979	-0,206	-0,210
-409,584	800,000	-0,026	-0,066
-408,569	-20,665	0,125	-0,056
-407,555	687,959	-0,018	-0,035
-406,540	800,000	0,014	0,042
-405,525	800,000	0,012	-0,038
-404,511	-200,000	-0,018	0,058
-403,496	18,786	0,101	-0,059
-402,482	244,264	0,027	-0,033
-401,467	-200,000	0,019	-0,082
-400,452	36,882	0,152	0,099
-399,438	1,225	-0,091	0,048
-398,423	315,369	-0,013	0,018
-397,409	-3,285	-0,141	-0,072
-396,394	-86,649	-0,082	-0,018
-395,379	-200,000	0,043	-0,139
-394,365	-41,487	0,090	0,034
-393,350	-200,000	0,027	0,094
-392,336	396,368	-0,056	0,086
-391,321	-82,748	0,117	0,027
-390,306	-200,000	-0,016	-0,164
-389,292	-200,000	-0,033	-0,114
-388,277	-109,401	-0,125	-0,019
-387,263	-172,765	0,122	0,003
-386,248	464,942	0,051	-0,084
-385,233	574,301	-0,049	0,089
-384,219	-144,417	-0,128	0,009
-383,204	800,000	-0,038	-0,121
-382,190	42,161	-0,044	-0,029
-381,175	562,807	0,047	0,084
-380,160	215,359	0,101	-0,118
-379,146	800,000	0,028	-0,063
-378,131	-42,925	-0,094	0,035
-377,117	-127,025	0,066	-0,007
-376,102	800,000	-0,029	-0,060
-375,088	-131,032	0,067	0,007
-374,073	-7,212	-0,052	-0,026
-373,058	189,256	-0,059	0,065
-372,044	42,424	0,121	0,081
-371,029	-200,000	-0,026	0,289
-370,015	-91,016	0,036	0,008
-369,000	35,677	0,038	-0,024
-367,985	800,000	-0,074	-0,161
-366,971	-24,170	-0,083	-0,036
-365,956	-32,462	0,107	-0,044
-364,942	101,450	0,104	0,089
-363,927	4,494	0,031	-0,016
-362,912	252,535	0,010	0,012
-361,898	72,368	-0,038	0,029
-360,883	39,443	-0,015	0,010
-359,869	300,950	-0,026	0,036
-358,854	-200,000	-0,004	0,110
-357,839	800,000	-0,031	-0,083
-356,825	588,020	0,062	0,112
-355,810	-200,000	-0,046	0,152
-354,796	117,179	-0,061	0,055
-353,781	143,162	0,056	0,054
-352,766	-200,000	-0,007	-0,111
-351,752	-40,630	0,083	-0,032
-350,737	-191,659	-0,036	0,000
-349,723	-132,779	-0,082	-0,008
-348,708	95,407	-0,062	0,051
-347,693	800,000	0,013	0,031
-346,679	68,490	-0,070	-0,052
-345,664	134,183	0,127	-0,121
-344,650	124,811	0,068	0,063
-343,635	-200,000	0,006	0,118
-342,620	-42,072	-0,158	0,059
-341,606	-71,317	-0,022	0,006
-340,591	-76,419	-0,107	0,027
-339,577	75,472	-0,175	-0,135
-338,562	215,273	-0,087	-0,101
-337,548	92,295	-0,111	0,092
-336,533	-35,178	0,153	-0,061
-335,518	89,732	-0,064	-0,052
-334,504	7,135	-0,066	-0,036
-333,489	-200,000	0,015	0,056
-332,475	-63,430	-0,092	-0,028
-331,460	121,349	-0,142	-0,130
-330,445	78,318	0,030	-0,023
-329,431	74,827	-0,030	0,023
-328,416	59,739	0,086	0,062
-327,402	-3,205	-0,008	0,004
-326,387	-130,861	-0,054	0,005
-325,372	270,874	0,028	-0,036
-324,358	-91,620	-0,034	0,007
-323,343	800,000	-0,009	0,026
-322,329	319,847	0,057	0,079
-321,314	-200,000	-0,004	-0,094
-320,299	-114,621	-0,102	-0,014
-319,285	48,644	-0,018	0,012
-318,270	-69,564	-0,091	-0,025
-317,256	-200,000	0,005	0,037
-316,241	71,914	-0,067	0,051
-315,226	5,829	0,040	-0,022
-314,212	156,297	0,020	-0,020
-313,197	-74,595	0,078	0,020
-312,183	-136,660	0,109	0,009
-311,168	529,663	-0,020	0,034
-310,153	-1,342	-0,087	-0,045
-309,139	332,822	-0,063	-0,089
-308,124	-200,000	-0,012	0,110
-307,110	200,128	0,043	0,048
-306,095	3,135	0,154	0,082
-305,080	-170,710	0,063	-0,002
-304,066	165,179	-0,053	0,055
-303,051	197,303	-0,069	-0,077
-302,037	677,739	0,072	-0,138
-301,022	-40,765	-0,070	0,026
-300,008	82,511	0,079	0,062
-298,993	722,810	0,029	0,057
-297,978	227,203	-0,052	-0,062
-296,964	-15,664	0,129	-0,060
-295,949	-145,293	0,041	-0,003
-294,935	-200,000	-0,003	-0,052
-293,920	-200,000	-0,004	-0,073
-292,905	-200,000	-0,024	0,123
-291,891	58,577	0,118	0,085
-290,876	-41,228	-0,093	-0,035
-289,862	505,375	-0,025	-0,042
-288,847	-159,869	-0,133	-0,005
-287,832	448,409	-0,088	-0,142
-286,818	-200,000	-0,005	-0,111
-285,803	-133,915	0,082	-0,007
-284,789	484,183	-0,060	0,101
-283,774	364,580	0,036	0,053
-282,759	-31,780	-0,059	-0,024
-281,745	800,000	-0,044	-0,128
-280,730	-200,000	0,006	-0,093
-279,716	-89,374	0,104	-0,022
-278,701	409,164	0,018	-0,028
-277,686	800,000	-0,033	-0,086
-276,672	339,435	0,074	0,106
-275,657	-90,203	-0,085	0,018
-274,643	72,601	-0,118	-0,090
-273,628	-81,162	0,104	-0,025
-272,613	-61,231	0,051	-0,016
-271,599	85,263	-0,069	0,055
-270,584	-200,000	-0,022	-0,085
-269,570	-76,899	0,045	-0,012
-268,555	74,126	0,091	0,070
-267,540	-30,309	-0,083	0,034
-266,526	-97,241	0,099	0,019
-265,511	800,000	-0,047	-0,101
-264,497	-155,474	0,029	-0,001
-263,482	49,827	0,051	-0,035
-262,467	-153,599	0,097	0,005
-261,453	55,852	-0,139	0,099
-260,438	267,015	-0,041	-0,052
-259,424	-200,000	0,019	0,105
-258,409	96,932	0,138	-0,116
-257,395	21,738	0,088	0,053
-256,380	29,998	0,013	-0,008
-255,365	-106,082	0,119	0,019
-254,351	-56,946	0,083	-0,027
-253,336	-105,118	-0,068	0,011
-252,322	-170,646	-0,045	-0,001
-251,307	-138,032	-0,106	-0,008
-250,292	-38,169	0,109	-0,042
-249,278	-200,000	0,015	0,097
-248,263	-200,000	0,010	0,095
-247,249	631,616	-0,091	0,168
-246,234	-200,000	0,006	0,028
-245,219	275,998	0,035	-0,046
-244,205	-78,387	-0,091	0,023
-243,190	-36,863	0,129	0,050
-242,176	268,682	0,052	-0,067
-241,161	-200,000	0,008	-0,080
-240,146	196,153	0,081	0,090
-239,132	-63,172	-0,038	0,011
-238,117	800,000	-0,010	0,029
-237,103	-102,458	-0,068	0,012
-236,088	35,246	-0,047	-0,030
-235,073	-193,855	0,048	-0,000
-234,059	-200,000	0,025	-0,104
-233,044	800,000	-0,044	-0,108
-232,030	-18,378	-0,024	-0,011
-231,015	-80,900	-0,046	0,011
-230,000	476,981	0,028	-0,046
-228,986	-79,055	0,146	0,036
-227,971	800,000	0,021	-0,049
-226,957	266,597	0,005	0,006
-225,942	800,000	-0,022	0,059
-224,927	800,000	0,024	0,064
-223,913	33,946	-0,071	0,045
-222,898	76,488	-0,040	0,031
-221,884	9,455	0,187	0,103
-220,869	672,675	0,060	-0,114
-219,855	-135,554	0,037	0,003
-218,840	108,987	-0,022	-0,020
-217,825	26,516	-0,036	-0,022
-216,811	24,445	-0,065	0,039
-215,796	63,867	-0,080	-0,058
-214,782	-7,878	0,086	-0,042
-213,767	56,500	0,060	0,043
-212,752	168,545	0,026	0,027
-211,738	196,502	0,114	-0,127
-210,723	161,292	0,100	0,102
-209,709	-162,472	0,142	0,005
-208,694	-15,143	0,050	-0,023
-207,679	800,000	-0,043	0,119
-206,665	679,782	-0,015	0,029
-205,650	210,072	0,105	0,120
-204,636	161,330	0,063	0,064
-203,621	641,753	-0,015	-0,027
-202,606	60,100	-0,071	0,051
-201,592	670,123	-0,038	-0,071
-200,577	485,261	-0,084	-0,140
-199,563	800,000	0,037	0,081
-198,548	194,482	-0,080	0,089
-197,533	-130,760	-0,104	-0,010
-196,519	64,846	0,097	0,072
-195,504	87,621	-0,060	0,048
-194,490	142,416	0,017	-0,016
-193,475	66,642	-0,050	-0,037
-192,460	-200,000	0,021	0,074
-191,446	-200,000	0,006	-0,063
-190,431	-163,060	0,048	0,002
-189,417	-185,701	0,188	0,002
-188,402	267,260	0,048	0,062
-187,387	-34,643	-0,011	0,004
-186,373	-101,631	-0,018	-0,003
-185,358	800,000	0,034	0,087
-184,344	-101,077	0,092	0,016
-183,329	800,000	-0,049	0,152
-182,315	800,000	-0,023	0,064
-181,300	-15,280	-0,074	0,035
-180,285	323,717	-0,063	0,088
-179,271	182,043	-0,024	-0,026
-178,256	-84,869	0,145	-0,033
-177,242	-16,936	0,011	0,005
-176,227	800,000	0,077	0,224
-175,212	64,056	-0,089	0,065
-174,198	226,215	0,031	-0,037
-173,183	-200,000	0,029	-0,095
-172,169	-200,000	0,025	-0,083
-171,154	-48,809	0,132	-0,046
-170,139	40,647	0,104	0,068
-169,125	-91,333	-0,068	-0,014
-168,110	31,234	0,026	-0,016
-167,096	170,563	-0,064	0,067
-166,081	173,912	-0,031	0,033
-165,066	-0,503	-0,166	-0,085
-164,052	22,817	-0,108	-0,064
-163,037	-130,260	-0,109	0,011
-162,023	-143,171	-0,093	-0,006
-161,008	-83,424	0,183	0,042
-159,993	-136,436	-0,089	-0,007
-158,979	-200,000	-0,027	-0,126
-157,964	128,335	-0,068	-0,063
-156,950	-112,991	-0,031	-0,004
-155,935	-200,000	-0,004	-0,012
-154,920	-200,000	0,018	0,106
-153,906	125,816	-0,029	0,027
-152,891	-154,606	-0,112	-0,005
-151,877	-200,000	-0,006	-0,079
-150,862	433,098	0,040	0,063
-149,847	404,598	0,055	-0,085
-148,833	-200,000	0,005	0,057
-147,818	-97,401	0,080	-0,015
-146,804	447,574	-0,069	0,111
-145,789	800,000	0,081	0,171
-144,775	-200,000	0,011	0,082
-143,760	291,961	-0,025	-0,033
-142,745	-200,000	-0,005	-0,143
-141,731	28,673	0,109	-0,067
-140,716	37,944	0,161	0,104
-139,702	651,982	-0,015	0,027
-138,687	649,205	0,061	0,114
-137,672	-90,329	0,107	-0,022
-136,658	-118,166	-0,143	0,018
-135,643	85,979	0,101	0,081
-134,629	249,705	-0,046	0,057
-133,614	290,697	0,103	0,136
-132,599	800,000	-0,032	0,094
-131,585	-200,000	0,020	0,120
-130,570	613,557	-0,024	0,045
-129,556	-141,890	0,192	0,014
-128,541	226,705	-0,097	-0,115
-127,526	-136,676	0,190	0,016
-126,512	800,000	-0,021	0,056
-125,497	497,966	0,036	0,061
-124,483	59,930	0,075	0,053
-123,468	800,000	-0,042	-0,113
-122,453	-173,234	-0,207	0,004
-121,439	515,341	0,035	-0,060
-120,424	-41,020	-0,058	0,022
-119,410	-26,861	-0,029	-0,012
-118,395	162,347	0,119	-0,121
-117,380	159,508	0,071	0,072
-116,366	-200,000	-0,006	-0,070
-115,351	313,548	0,070	0,096
-114,337	-27,420	-0,096	-0,040
-113,322	-155,645	0,095	0,004
-112,307	85,642	-0,094	0,075
-111,293	9,940	0,154	0,085
-110,278	-120,043	0,130	-0,016
-109,264	-48,728	0,031	0,011
-108,249	138,785	-0,119	-0,114
-107,234	-102,800	0,130	-0,022
-106,220	-132,172	-0,095	-0,009
-105,205	122,432	0,029	-0,027
-104,191	233,255	0,043	-0,052
-103,176	-200,000	0,020	0,080
-102,162	-89,095	0,170	-0,036
-101,147	800,000	-0,027	0,077
-100,132	744,439	-0,086	0,169
-99,118	-103,106	0,085	0,014
-98,103	-28,748	-0,036	0,015
-97,089	127,537	0,063	0,058
-96,074	800,000	-0,048	0,126
-95,059	-200,000	-0,048	0,244
-94,045	410,067	-0,085	0,131
-93,030	-200,000	-0,014	-0,137
-92,016	10,101	-0,057	-0,031
-91,001	201,876	0,069	-0,077
-89,986	-62,782	0,157	-0,047
-88,972	77,490	0,013	-0,010
-87,957	-200,000	-0,013	-0,058
-86,943	-36,013	0,050	0,020
-85,928	-57,945	0,066	-0,021
-84,913	56,677	-0,104	-0,073
-83,899	-110,002	0,049	0,007
-82,884	35,882	0,050	0,032
-81,870	-200,000	-0,004	0,047
-80,855	469,738	-0,092	0,150
-79,840	274,009	0,085	-0,110
-78,826	53,959	0,040	-0,028
-77,811	800,000	-0,058	-0,125
-76,797	355,144	-0,044	0,063
-75,782	266,318	-0,038	0,048
-74,767	800,000	-0,063	0,167
-73,753	89,674	0,114	0,092
-72,738	122,606	-0,036	-0,032
-71,724	-150,782	0,069	0,004
-70,709	18,043	-0,098	-0,057
-69,694	494,589	0,058	-0,097
-68,680	197,487	-0,042	0,046
-67,665	145,653	0,075	0,073
-66,651	-200,000	0,035	0,235
-65,636	-100,293	-0,067	-0,012
-64,622	168,058	0,037	-0,038
-63,607	323,371	-0,013	-0,018
-62,592	210,011	-0,047	0,053
-61,578	-52,506	0,157	-0,052
-60,563	182,526	-0,088	-0,095
-59,549	-154,885	0,097	-0,005
-58,534	-55,860	-1,587	-0,511
-57,519	752,307	-0,705	-1,387
-56,505	-200,000	-0,902	-4,453
-55,490	-72,087	0,538	-0,144
-54,476	800,000	5,006	11,789
-53,461	-200,000	14,996	263,629
-52,446	-200,000	696,052	2234,457
-51,432	583,735	1617,853	2890,145
-50,417	120,687	1626,167	1464,405
-49,403	82,536	1281,842	1007,558
-48,388	37,717	1021,697	655,941
-47,373	22,467	982,456	580,580
-46,359	21,466	971,432	570,757
-45,344	20,067	967,267	563,713
-44,330	20,040	966,116	562,931
-43,315	19,879	964,496	561,438
-42,300	19,870	963,296	560,689
-41,286	19,860	962,302	560,056
-40,271	19,841	961,324	559,401
-39,257	19,938	960,412	559,164
-38,242	19,896	959,555	558,507
-37,227	19,842	958,950	557,956
-36,213	19,826	957,943	557,296
-35,198	19,807	956,942	556,631
-34,184	19,819	956,415	556,341
-33,169	19,788	955,273	555,556
-32,154	19,880	954,323	555,276
-31,140	19,869	953,657	554,834
-30,125	19,855	952,892	554,322
-29,111	19,895	951,926	553,864
-28,096	19,872	951,181	553,335
-27,082	19,843	950,635	552,904
-26,067	19,846	949,723	552,361
-25,052	19,810	949,125	551,874
-24,038	19,839	948,375	551,511
-23,023	19,822	947,691	551,035
-22,009	19,858	947,111	550,793
-20,994	19,891	946,270	550,387
-19,979	19,872	945,837	550,052
-18,965	19,810	945,263	549,497
-17,950	19,862	944,602	549,258
-16,936	19,789	943,975	548,640
-15,921	19,824	943,214	548,286
-14,906	19,792	942,450	547,720
-13,892	19,697	942,090	547,185
-12,877	19,705	941,492	546,843
-11,863	19,643	940,809	546,226
-10,848	19,720	940,264	546,133
-9,833	19,826	939,665	546,100
-8,819	19,769	939,199	545,628
-7,804	19,749	938,456	545,111
-6,790	19,711	938,157	544,793
-5,775	19,810	937,251	544,560
-4,760	19,667	936,830	543,842
-3,746	19,712	936,128	543,555
-2,731	19,623	935,332	542,790
-1,717	19,571	934,604	542,183
-0,702	19,583	934,052	541,877
0,313	19,322	933,340	541,458
1,327	21,780	930,884	547,720
2,342	28,960	805,937	493,624
3,356	23,298	505,991	300,257
4,371	-0,651	372,704	190,723
5,386	-3,619	355,988	178,515
6,400	-4,534	350,016	174,401
7,415	-4,990	347,656	172,663
8,429	-4,968	346,242	171,972
9,444	-4,996	345,345	171,478
10,459	-4,991	344,744	171,170
11,473	-4,911	343,958	170,859
12,488	-4,881	343,321	170,563
13,502	-5,050	342,878	170,128
14,517	-4,914	342,360	170,017
15,531	-4,749	341,866	169,949
16,546	-4,729	341,505	169,778
17,561	-4,823	341,288	169,545
18,575	-4,869	340,719	169,193
19,590	-4,906	340,271	168,912
20,604	-4,719	339,864	168,915
21,619	-4,842	339,547	168,598
22,634	-4,685	339,270	168,630
23,648	-4,756	338,809	168,302
24,663	-4,791	338,635	168,160
25,677	-4,665	338,256	168,103
26,692	-4,801	338,119	167,862
27,707	-4,689	337,591	167,715
28,721	-4,815	337,427	167,472
29,736	-4,844	337,007	167,215
30,750	-4,780	336,735	167,139
31,765	-4,809	336,521	166,985
32,780	-4,726	336,225	166,919
33,794	-4,731	335,866	166,720
34,809	-4,890	335,659	166,419
35,823	-4,614	335,334	166,561
36,838	-4,869	335,143	166,158
37,853	-4,778	334,863	166,110
38,867	-4,757	334,578	165,977
39,882	-4,940	334,316	165,622
40,896	-4,612	334,001	165,828
41,911	-4,839	333,744	165,425
42,926	-4,825	333,479	165,295
43,940	-4,809	333,110	165,115
44,955	-4,657	332,832	165,137
45,969	-4,801	332,758	164,921
46,984	-4,803	332,450	164,751
47,999	-4,697	332,147	164,707
49,013	-4,750	331,994	164,556
50,028	-4,723	331,727	164,440
51,042	-4,717	331,466	164,302
52,057	-4,814	331,294	164,093
53,071	-4,776	330,935	163,943
54,086	-4,686	330,799	163,963
55,101	-4,784	330,427	163,653
56,115	-4,781	330,170	163,514
57,130	-4,761	329,992	163,434
58,144	-4,744	329,511	163,201
59,159	-4,924	329,468	162,961
60,174	-4,779	328,942	162,850
61,188	-4,747	328,716	162,760
62,203	-4,931	328,568	162,465
63,217	-4,825	328,234	162,405
64,232	-4,760	328,011	162,353
65,247	-4,783	327,743	162,180
66,261	-4,797	327,593	162,076
67,276	-4,904	327,213	161,753
68,290	-4,721	327,089	161,882
69,305	-4,908	326,901	161,565
70,320	-4,914	326,647	161,419
71,334	-4,816	326,248	161,317
72,349	-4,747	325,960	161,237
73,363	-4,876	325,727	160,963
74,378	-4,826	325,344	160,816
75,393	-4,682	325,194	160,888
76,407	-4,758	324,958	160,672
77,422	-4,865	324,672	160,397
78,436	-4,699	324,363	160,415
79,451	-4,745	324,079	160,209
80,466	-4,823	323,856	159,998
81,480	-4,573	323,537	160,103
82,495	-4,661	323,313	159,880
83,509	-4,536	323,060	159,879
84,524	-4,658	323,049	159,725
85,539	-4,546	322,850	159,736
86,553	-4,666	322,657	159,494
87,568	-4,797	322,160	159,090
88,582	-4,790	322,037	159,022
89,597	-4,743	321,776	158,931
90,611	-4,754	321,535	158,786
91,626	-4,744	321,277	158,655
92,641	-4,686	321,123	158,629
93,655	-4,751	320,875	158,420
94,670	-4,851	320,684	158,202
95,684	-4,829	320,476	158,109
96,699	-4,722	320,236	158,095
97,714	-4,751	319,868	157,866
98,728	-4,693	319,835	157,900
99,743	-4,797	319,518	157,615
100,757	-4,709	319,153	157,518
101,772	-4,648	318,907	157,449
102,787	-4,846	318,823	157,178
103,801	-4,760	318,388	157,043
104,816	-4,695	318,266	157,039
105,830	-4,874	318,123	156,760
106,845	-4,665	317,586	156,708
107,860	-4,734	317,599	156,626
108,874	-4,837	317,412	156,407
109,889	-4,793	316,944	156,211
110,903	-4,767	316,790	156,149
111,918	-4,805	316,684	156,042
112,933	-4,878	316,515	155,866
113,947	-4,703	316,187	155,879
114,962	-4,682	315,980	155,786
115,976	-4,636	315,667	155,667
116,991	-4,768	315,499	155,428
118,006	-4,619	315,241	155,448
119,020	-4,733	315,183	155,282
120,035	-4,760	314,939	155,120
121,049	-4,755	314,634	154,961
122,064	-4,751	314,567	154,918
123,079	-4,747	314,229	154,743
124,093	-4,672	313,894	154,644
125,108	-4,775	313,732	154,440
126,122	-4,664	313,552	154,457
127,137	-4,683	313,341	154,318
128,151	-4,733	313,273	154,218
129,166	-4,734	313,087	154,111
130,181	-4,700	312,730	153,958
131,195	-4,716	312,310	153,721
132,210	-4,825	312,142	153,508
133,224	-4,828	311,851	153,348
134,239	-4,738	311,602	153,308
135,254	-4,696	311,436	153,257
136,268	-4,693	311,314	153,186
137,283	-4,587	310,936	153,099
138,297	-4,595	310,726	152,974
139,312	-4,625	310,505	152,820
140,327	-4,727	310,299	152,596
141,341	-4,676	310,069	152,524
142,356	-4,636	309,886	152,463
143,370	-4,694	309,693	152,293
144,385	-4,665	309,427	152,179
145,400	-4,789	309,447	152,044
146,414	-4,601	308,943	151,981
147,429	-4,665	308,753	151,807
148,443	-4,702	308,526	151,643
149,458	-4,653	308,400	151,618
150,473	-4,725	308,176	151,419
151,487	-4,715	307,933	151,297
152,502	-4,606	307,800	151,333
153,516	-4,709	307,417	151,023
154,531	-4,632	307,147	150,957
155,546	-4,684	307,058	150,845
156,560	-4,698	306,933	150,757
157,575	-4,576	306,582	150,697
158,589	-4,765	306,319	150,358
159,604	-4,677	306,087	150,322
160,619	-4,501	305,923	150,411
161,633	-4,545	305,885	150,334
162,648	-4,688	305,635	150,048
163,662	-4,692	305,373	149,903
164,677	-4,753	305,273	149,777
165,692	-4,618	305,053	149,796
166,706	-4,636	304,748	149,613
167,721	-4,639	304,627	149,538
168,735	-4,687	304,407	149,367
169,750	-4,688	304,071	149,188
170,764	-4,649	303,961	149,160
171,779	-4,720	303,863	149,026
172,794	-4,609	303,693	149,044
173,808	-4,694	303,316	148,758
174,823	-4,650	303,133	148,701
175,837	-4,587	302,885	148,630
176,852	-4,665	302,688	148,440
177,867	-4,571	302,532	148,447
178,881	-4,733	302,515	148,259
179,896	-4,742	302,230	148,096
180,910	-4,546	301,758	148,053
181,925	-4,708	301,849	147,918
182,940	-4,622	301,525	147,835
183,954	-4,662	301,362	147,700
184,969	-4,522	301,100	147,702
185,983	-4,482	301,021	147,691
186,998	-4,638	300,855	147,437
188,013	-4,586	300,643	147,373
189,027	-4,554	300,384	147,266
190,042	-4,631	300,190	147,079
191,056	-4,710	299,981	146,883
192,071	-4,603	299,664	146,824
193,086	-4,787	299,386	146,487
194,100	-4,725	299,276	146,483
195,115	-4,660	298,970	146,386
196,129	-4,714	298,977	146,322
197,144	-4,655	298,610	146,189
198,159	-4,623	298,357	146,084
199,173	-4,575	298,026	145,958
200,188	-4,773	298,008	145,736
201,202	-4,757	297,870	145,672
202,217	-4,656	297,642	145,649
203,232	-4,603	297,368	145,556
204,246	-4,739	297,150	145,299
205,261	-4,687	296,894	145,213
206,275	-4,661	296,797	145,179
207,290	-4,535	296,580	145,186
208,304	-4,498	296,129	144,989
209,319	-4,589	296,137	144,890
210,334	-4,571	295,875	144,767
211,348	-4,468	295,672	144,758
212,363	-4,590	295,526	144,551
213,377	-4,581	295,217	144,396
214,392	-4,687	295,208	144,273
215,407	-4,624	295,072	144,256
216,421	-4,557	294,719	144,138
217,436	-4,685	294,509	143,894
218,450	-4,813	294,362	143,683
219,465	-4,610	294,000	143,695
220,480	-4,546	293,818	143,656
221,494	-4,638	293,744	143,516
222,509	-4,589	293,487	143,427
223,523	-4,639	293,377	143,310
224,538	-4,732	293,255	143,146
225,553	-4,468	292,971	143,256
226,567	-4,544	292,729	143,050
227,582	-4,491	292,608	143,031
228,596	-4,585	292,448	142,847
229,611	-4,632	292,300	142,715
230,626	-4,600	292,111	142,641
231,640	-4,706	291,913	142,427
232,655	-4,627	291,755	142,415
233,669	-4,566	291,442	142,309
234,684	-4,805	291,418	142,050
235,699	-4,735	291,257	142,028
236,713	-4,533	290,819	142,000
237,728	-4,611	290,745	141,874
238,742	-4,663	290,600	141,740
239,757	-4,654	290,295	141,588
240,772	-4,785	290,043	141,324
241,786	-4,611	289,817	141,372
242,801	-4,545	289,827	141,428
243,815	-4,620	289,593	141,228
244,830	-4,719	289,341	140,996
245,844	-4,611	289,143	140,992
246,859	-4,557	288,990	140,958
247,874	-4,647	288,731	140,732
248,888	-4,734	288,508	140,525
249,903	-4,596	288,299	140,545
250,917	-4,531	288,032	140,466
251,932	-4,728	287,873	140,184
252,947	-4,866	287,495	139,853
253,961	-5,309	287,247	139,292
254,976	-5,576	286,991	138,897
255,990	-5,326	286,974	139,118
257,005	-3,640	287,549	141,019
258,020	-1,254	288,201	143,642
259,034	0,164	288,436	145,122
260,049	0,501	288,558	145,497
261,063	0,907	288,613	145,906
262,078	1,264	288,474	146,169
263,093	1,437	288,421	146,296
264,107	1,849	288,388	146,665
265,122	2,073	288,209	146,778
266,136	1,938	288,204	146,632
267,151	2,002	287,850	146,500
268,166	2,029	287,684	146,429
269,180	1,879	287,571	146,214
270,195	2,034	287,310	146,217
271,209	1,963	287,294	146,127
272,224	2,139	286,952	146,109
273,239	2,085	286,797	145,966
274,253	2,014	286,764	145,868
275,268	1,887	286,426	145,560
276,282	1,875	286,262	145,453
277,297	1,759	286,030	145,211
278,312	2,025	285,742	145,306
279,326	1,925	285,684	145,168
280,341	2,040	285,378	145,110
281,355	2,012	285,242	145,002
282,370	1,894	285,022	144,764
283,384	1,819	284,869	144,601
284,399	2,004	284,678	144,667
285,414	1,960	284,416	144,480
286,428	1,905	284,245	144,328
287,443	1,895	284,170	144,267
288,457	1,765	284,048	144,068
289,472	1,854	283,758	143,994
290,487	1,756	283,589	143,802
291,501	1,722	283,426	143,674
292,516	1,652	283,207	143,485
293,530	1,630	283,013	143,352
294,545	1,646	282,875	143,285
295,560	1,804	282,735	143,351
296,574	1,823	282,399	143,185
297,589	1,594	282,372	142,942
298,603	1,526	282,203	142,780
299,618	1,734	281,968	142,844
300,633	1,684	281,693	142,645
301,647	1,696	281,632	142,613
302,662	1,963	281,474	142,772
303,676	1,931	281,190	142,585
304,691	1,980	281,021	142,533
305,706	1,997	280,929	142,489
306,720	1,862	280,672	142,220
307,735	2,077	280,422	142,281
308,749	1,987	280,357	142,152
309,764	2,021	280,114	142,047
310,779	1,761	280,067	141,768
311,793	1,899	279,867	141,783
312,808	1,912	279,563	141,628
313,822	1,851	279,299	141,425
314,837	1,870	279,222	141,391
315,852	1,816	279,119	141,276
316,866	1,966	278,985	141,336
317,881	1,944	278,662	141,139
318,895	1,820	278,582	140,971
319,910	1,759	278,384	140,801
320,925	1,888	278,089	140,759
321,939	1,899	277,901	140,661
322,954	1,945	277,807	140,644
323,968	1,856	277,710	140,500
324,983	2,091	277,439	140,567
325,997	2,023	277,234	140,388
327,012	1,795	277,225	140,160
328,027	1,903	276,956	140,112
329,041	1,938	276,672	139,988
330,056	1,998	276,594	139,991
331,070	2,001	276,494	139,931
332,085	1,988	276,225	139,771
333,100	2,014	276,073	139,704
334,114	2,156	275,772	139,670
335,129	1,892	275,704	139,381
336,143	2,091	275,438	139,417
337,158	2,070	275,291	139,311
338,173	1,862	275,185	139,054
339,187	1,914	274,956	138,974
340,202	2,011	274,825	138,983
341,216	2,025	274,570	138,855
342,231	1,877	274,577	138,711
343,246	2,147	274,285	138,798
344,260	2,020	274,127	138,589
345,275	1,968	273,939	138,434
346,289	2,092	273,775	138,452
347,304	2,088	273,493	138,293
348,319	2,142	273,345	138,256
349,333	2,022	273,236	138,079
350,348	2,102	272,942	137,991
351,362	2,077	272,887	137,928
352,377	2,131	272,819	137,930
353,392	2,281	272,594	137,941
354,406	2,104	272,353	137,646
355,421	191,184	1347,982	1425,611
356,435	154,336	1479,098	1425,709
