DTS Sentinel unit serial number:	SN410029Multiplexer serial number:	ORYXHardware model number:	OX2-SRSoftware version number:	ORYX F/W v4,00 Oryx Data Collector v3.7.2.0data status	okinstallation	B4 Nyhavnadifferential loss correction	single-endedforward channel	channel 2reverse channel	N/Adate	2023/12/18time	23:30:13forward acquisition time	300,00reverse acquisition time	0,00gamma	499,1914k internal	0,3124k external	0,3124temperature offset calibration	1,0000default loss term (dB/km)	0,3820temperature slope calibration	1,0000multiplexer offset coefficient	1,0000multiplexer slope coefficient	1,0000fibre end	0,00T internal ref (°C)	22,23T ext. ref 1 (°C)	7,86T ext. ref 2 (°C)	7,91length (m)	temperature (°C)	Stokes	anti-Stokes-744,400	-200,000	-0,002	-0,119
-743,385	39,750	-0,134	0,090
-742,371	152,038	0,090	-0,091
-741,356	-71,211	-0,129	0,036
-740,342	-200,000	0,008	0,156
-739,327	-90,596	-0,294	0,063
-738,312	128,025	-0,076	-0,072
-737,298	-19,100	-0,301	0,139
-736,283	800,000	0,035	0,088
-735,269	12,785	-0,147	0,085
-734,254	518,529	0,040	-0,070
-733,239	-39,244	-0,346	-0,135
-732,225	228,823	0,094	0,114
-731,210	-173,344	0,030	0,001
-730,196	138,137	-0,063	0,061
-729,181	-166,599	-0,167	-0,005
-728,167	-98,147	-0,119	-0,023
-727,152	128,774	0,060	0,057
-726,137	-17,784	-0,190	-0,088
-725,123	-200,000	0,020	0,115
-724,108	-150,843	-0,066	-0,004
-723,094	-48,080	0,050	-0,018
-722,079	-200,000	0,035	-0,147
-721,064	-35,422	-0,148	-0,059
-720,050	800,000	-0,052	-0,125
-719,035	800,000	-0,036	-0,099
-718,021	-124,168	-0,169	-0,020
-717,006	-200,000	0,025	0,098
-715,991	21,086	-0,155	-0,093
-714,977	-100,639	0,123	-0,022
-713,962	-67,622	-0,041	-0,012
-712,948	95,883	0,073	-0,062
-711,933	16,601	-0,047	0,027
-710,918	-200,000	0,004	0,060
-709,904	800,000	-0,024	-0,055
-708,889	-144,652	-0,137	-0,009
-707,875	-143,402	-0,103	-0,007
-706,860	-200,000	-0,010	0,041
-705,845	-104,484	0,043	0,007
-704,831	-200,000	0,009	0,070
-703,816	-85,275	-0,049	0,011
-702,802	-200,000	-0,007	0,155
-701,787	-104,019	-0,114	0,020
-700,772	0,075	-0,051	0,027
-699,758	-13,603	0,068	0,033
-698,743	-9,824	0,017	-0,008
-697,729	-200,000	-0,001	0,103
-696,714	-200,000	-0,014	-0,056
-695,699	93,687	-0,036	0,030
-694,685	-200,000	0,005	-0,038
-693,670	-102,525	-0,229	-0,040
-692,656	-72,525	0,056	0,015
-691,641	800,000	-0,038	0,104
-690,627	588,017	0,055	-0,101
-689,612	565,207	0,011	0,020
-688,597	-164,304	-0,091	0,003
-687,583	662,681	-0,075	-0,144
-686,568	731,686	-0,069	-0,139
-685,554	800,000	0,063	-0,168
-684,539	51,821	0,138	0,097
-683,524	226,105	0,079	0,096
-682,510	32,638	0,067	-0,043
-681,495	-62,604	-0,098	0,030
-680,481	-150,525	-0,071	-0,004
-679,466	67,577	-0,063	-0,048
-678,451	-110,564	-0,012	0,002
-677,437	-200,000	0,015	-0,066
-676,422	576,457	-0,047	0,086
-675,408	-200,000	0,023	0,087
-674,393	19,603	-0,049	0,029
-673,378	-26,230	-0,128	-0,056
-672,364	-52,497	-0,042	-0,014
-671,349	-200,000	0,030	0,139
-670,335	-200,000	-0,004	-0,020
-669,320	-200,000	0,017	-0,078
-668,305	-119,414	0,034	-0,004
-667,291	224,580	-0,031	-0,038
-666,276	-71,604	0,019	-0,005
-665,262	506,121	0,010	0,017
-664,247	13,986	-0,092	0,053
-663,232	536,498	0,045	-0,079
-662,218	138,555	0,097	0,094
-661,203	-200,000	-0,002	0,023
-660,189	-59,558	-0,131	0,041
-659,174	457,785	-0,024	0,041
-658,159	139,714	-0,119	-0,116
-657,145	800,000	0,021	-0,066
-656,130	-128,510	0,111	0,012
-655,116	442,652	-0,079	-0,128
-654,101	270,394	-0,031	0,041
-653,086	96,784	0,062	0,053
-652,072	-79,247	-0,141	0,035
-651,057	-42,029	-0,071	-0,027
-650,043	-200,000	0,015	-0,052
-649,028	-26,729	0,028	0,012
-648,014	119,913	-0,068	0,063
-646,999	-200,000	0,004	-0,040
-645,984	800,000	-0,040	0,087
-644,970	-103,226	0,003	-0,001
-643,955	153,190	-0,058	-0,059
-642,941	104,433	-0,040	0,035
-641,926	-132,626	0,072	-0,007
-640,911	-200,000	-0,006	-0,046
-639,897	301,396	-0,035	0,049
-638,882	-44,128	-0,187	-0,069
-637,868	-175,366	-0,055	0,001
-636,853	-97,150	0,156	-0,030
-635,838	-200,000	0,007	-0,066
-634,824	800,000	0,042	-0,130
-633,809	-85,038	-0,097	-0,022
-632,795	-200,000	-0,000	0,086
-631,780	-73,430	0,144	-0,039
-630,765	-67,133	-0,087	-0,025
-629,751	-25,720	-0,083	-0,036
-628,736	-9,937	-0,071	-0,035
-627,722	-36,320	-0,073	-0,029
-626,707	-200,000	-0,017	0,064
-625,692	-200,000	0,005	-0,162
-624,678	246,888	-0,073	0,091
-623,663	-62,948	-0,090	0,028
-622,649	-200,000	0,015	0,103
-621,634	170,228	0,031	-0,033
-620,619	2,208	-0,030	0,016
-619,605	-21,775	0,067	0,030
-618,590	86,108	0,064	-0,053
-617,576	16,051	0,033	-0,019
-616,561	-30,968	-0,113	-0,047
-615,546	-102,758	-0,045	0,008
-614,532	-101,258	-0,116	-0,021
-613,517	-200,000	0,006	-0,029
-612,503	800,000	-0,059	-0,176
-611,488	800,000	-0,024	0,050
-610,474	800,000	-0,054	0,153
-609,459	-200,000	0,002	-0,111
-608,444	389,638	-0,094	-0,145
-607,430	10,550	0,054	-0,030
-606,415	-200,000	0,001	0,027
-605,401	-65,614	-0,092	0,027
-604,386	81,905	0,048	0,038
-603,371	-200,000	0,024	0,088
-602,357	111,005	-0,049	-0,044
-601,342	-200,000	-0,049	-0,178
-600,328	-200,000	-0,021	-0,078
-599,313	800,000	0,028	-0,078
-598,298	800,000	0,075	0,161
-597,284	-200,000	0,012	-0,079
-596,269	-42,165	-0,106	-0,040
-595,255	-152,261	-0,080	-0,004
-594,240	-41,420	0,100	0,038
-593,225	296,213	-0,124	-0,168
-592,211	267,982	-0,103	0,134
-591,196	-200,000	0,021	0,150
-590,182	-0,626	0,095	0,050
-589,167	-200,000	-0,012	0,159
-588,152	800,000	0,029	0,073
-587,138	-36,270	-0,070	0,028
-586,123	-200,000	-0,027	-0,143
-585,109	23,298	-0,045	0,028
-584,094	-50,004	-0,063	-0,022
-583,079	800,000	0,044	0,109
-582,065	800,000	0,020	0,051
-581,050	-118,564	0,051	0,007
-580,036	-200,000	-0,000	-0,014
-579,021	-200,000	0,001	-0,082
-578,006	800,000	0,055	-0,118
-576,992	202,654	0,104	-0,119
-575,977	-89,741	-0,051	0,011
-574,963	73,452	0,044	-0,034
-573,948	-46,003	0,110	-0,040
-572,934	800,000	0,024	-0,071
-571,919	386,068	-0,097	-0,149
-570,904	-200,000	-0,019	-0,079
-569,890	800,000	-0,022	0,068
-568,875	-21,387	0,078	0,035
-567,861	66,761	0,145	0,109
-566,846	73,545	0,104	0,080
-565,831	-200,000	0,022	0,082
-564,817	150,643	-0,051	0,051
-563,802	-48,708	0,080	-0,028
-562,788	-200,000	-0,034	-0,179
-561,773	369,323	-0,026	-0,039
-560,758	41,385	0,024	-0,016
-559,744	335,610	0,041	-0,059
-558,729	20,606	-0,101	0,060
-557,715	-123,894	-0,109	0,013
-556,700	-13,328	-0,127	0,061
-555,685	136,375	0,038	0,037
-554,671	96,577	0,076	0,064
-553,656	-62,209	0,064	-0,020
-552,642	-200,000	0,013	0,044
-551,627	-200,000	-0,002	-0,106
-550,612	-167,486	-0,022	-0,001
-549,598	800,000	0,004	-0,009
-548,583	109,078	0,029	0,025
-547,569	42,482	-0,093	0,063
-546,554	800,000	0,031	-0,068
-545,539	-18,302	0,137	-0,063
-544,525	-200,000	0,001	-0,177
-543,510	16,186	-0,065	0,038
-542,496	-200,000	-0,024	0,111
-541,481	339,813	-0,021	0,030
-540,466	47,242	-0,084	-0,058
-539,452	15,312	0,078	-0,045
-538,437	800,000	0,003	0,009
-537,423	123,750	-0,076	-0,071
-536,408	-137,361	-0,080	-0,007
-535,393	-200,000	-0,010	0,121
-534,379	-10,310	-0,091	-0,044
-533,364	-200,000	0,001	-0,040
-532,350	-64,302	-0,081	0,024
-531,335	-3,068	0,069	-0,036
-530,321	281,828	0,069	0,091
-529,306	65,409	-0,101	-0,075
-528,291	26,796	0,110	-0,068
-527,277	-62,146	-0,035	-0,011
-526,262	-200,000	0,038	-0,170
-525,248	110,768	-0,021	0,018
-524,233	44,249	0,056	-0,038
-523,218	-200,000	0,014	-0,134
-522,204	800,000	-0,029	0,077
-521,189	117,419	-0,037	0,034
-520,175	586,135	-0,006	-0,012
-519,160	800,000	-0,037	-0,078
-518,145	800,000	-0,031	0,065
-517,131	-141,041	0,026	-0,002
-516,116	335,013	0,043	-0,062
-515,102	296,783	0,027	0,036
-514,087	41,208	-0,074	-0,049
-513,072	-178,598	0,079	0,001
-512,058	104,706	-0,118	0,103
-511,043	-200,000	-0,021	-0,140
-510,029	285,229	0,032	-0,042
-509,014	153,192	0,032	-0,032
-507,999	-119,695	-0,149	0,019
-506,985	-144,129	-0,081	0,006
-505,970	-200,000	-0,007	-0,038
-504,956	97,069	0,075	-0,064
-503,941	-200,000	0,009	0,062
-502,926	96,436	0,048	-0,041
-501,912	105,387	-0,041	0,035
-500,897	33,354	0,024	0,016
-499,883	376,546	-0,011	-0,017
-498,868	800,000	0,026	-0,079
-497,853	-200,000	0,025	0,127
-496,839	-200,000	-0,035	0,123
-495,824	-118,482	0,069	0,009
-494,810	-106,125	0,120	0,020
-493,795	-55,971	0,047	-0,016
-492,781	398,279	-0,042	-0,065
-491,766	-200,000	0,017	-0,106
-490,751	282,724	-0,022	-0,029
-489,737	450,194	-0,044	-0,072
-488,722	190,148	0,020	-0,022
-487,708	-200,000	-0,005	0,088
-486,693	-98,874	-0,081	0,015
-485,678	-200,000	-0,006	-0,131
-484,664	-118,184	0,059	-0,008
-483,649	-70,645	-0,096	0,026
-482,635	51,556	-0,033	-0,023
-481,620	-148,420	-0,056	0,003
-480,605	115,957	0,079	0,072
-479,591	800,000	-0,016	0,047
-478,576	-115,033	-0,097	-0,013
-477,562	375,172	-0,030	-0,045
-476,547	51,989	0,078	-0,055
-475,532	1,006	-0,033	-0,017
-474,518	-75,796	0,078	-0,020
-473,503	15,799	0,107	0,062
-472,489	486,013	0,044	0,075
-471,474	204,692	-0,087	0,099
-470,459	162,989	-0,041	0,042
-469,445	-21,312	-0,076	-0,034
-468,430	-200,000	0,000	-0,074
-467,416	-101,118	0,097	0,017
-466,401	330,928	-0,044	0,062
-465,386	800,000	0,038	0,112
-464,372	800,000	-0,047	0,120
-463,357	-53,342	-0,057	0,019
-462,343	-115,480	-0,047	0,006
-461,328	64,051	0,067	0,049
-460,313	-147,463	-0,103	0,006
-459,299	-200,000	-0,010	0,054
-458,284	-42,856	0,141	0,053
-457,270	-200,000	-0,000	0,083
-456,255	239,489	-0,043	0,053
-455,241	57,296	0,104	-0,075
-454,226	800,000	0,028	-0,071
-453,211	141,979	0,105	-0,103
-452,197	800,000	-0,022	-0,064
-451,182	-200,000	-0,012	0,110
-450,168	165,447	0,063	0,066
-449,153	77,482	0,044	0,035
-448,138	800,000	0,056	0,152
-447,124	118,493	0,028	-0,026
-446,109	-200,000	0,009	-0,159
-445,095	800,000	-0,052	-0,109
-444,080	-200,000	-0,015	0,122
-443,065	800,000	-0,062	0,143
-442,051	-187,971	0,079	-0,001
-441,036	800,000	-0,050	-0,122
-440,022	-200,000	0,022	-0,183
-439,007	259,261	-0,077	-0,098
-437,992	-178,434	0,044	-0,001
-436,978	30,496	0,182	-0,114
-435,963	36,150	-0,032	0,021
-434,949	-83,268	-0,053	-0,013
-433,934	37,010	0,106	-0,069
-432,919	34,406	-0,075	-0,048
-431,905	781,363	-0,021	-0,042
-430,890	-60,123	0,082	0,026
-429,876	-28,459	0,018	0,008
-428,861	120,701	0,056	0,051
-427,846	-200,000	0,007	0,074
-426,832	-67,793	-0,025	0,007
-425,817	-12,414	-0,199	0,095
-424,803	51,681	0,023	0,016
-423,788	272,175	0,025	0,033
-422,773	86,234	0,051	-0,041
-421,759	264,361	0,143	0,184
-420,744	180,895	0,067	0,073
-419,730	401,628	-0,041	0,063
-418,715	-200,000	0,018	0,143
-417,701	189,468	0,063	0,069
-416,686	-69,836	0,077	-0,022
-415,671	60,128	0,068	-0,050
-414,657	-200,000	0,017	0,095
-413,642	3,592	0,091	0,049
-412,628	-14,051	0,114	0,054
-411,613	-157,927	0,066	0,003
-410,598	120,076	-0,104	-0,095
-409,584	51,361	0,114	0,080
-408,569	-200,000	-0,003	-0,052
-407,555	129,659	-0,014	-0,013
-406,540	-200,000	0,020	0,091
-405,525	-200,000	-0,024	-0,092
-404,511	-200,000	-0,020	0,076
-403,496	53,977	0,085	-0,060
-402,482	-33,858	-0,062	0,025
-401,467	540,504	-0,089	0,157
-400,452	523,069	0,055	0,096
-399,438	103,184	0,123	0,106
-398,423	-33,475	0,043	-0,017
-397,409	-200,000	0,008	-0,059
-396,394	-88,439	-0,046	0,010
-395,379	-53,067	-0,025	-0,009
-394,365	800,000	0,007	-0,018
-393,350	-90,217	0,035	-0,007
-392,336	-200,000	0,002	0,008
-391,321	-67,810	-0,139	-0,040
-390,306	-109,000	-0,032	0,005
-389,292	-9,951	-0,100	-0,049
-388,277	651,005	0,028	-0,054
-387,263	-200,000	-0,001	-0,139
-386,248	46,389	0,051	0,035
-385,233	-200,000	0,011	0,091
-384,219	-200,000	0,027	-0,169
-383,204	-14,568	-0,044	0,021
-382,190	-200,000	0,009	-0,107
-381,175	536,967	-0,052	-0,092
-380,160	-200,000	-0,010	0,172
-379,146	-200,000	0,009	0,059
-378,131	-200,000	0,016	-0,074
-377,117	-119,435	-0,090	0,011
-376,102	800,000	0,028	-0,058
-375,088	224,130	0,073	-0,087
-374,073	-8,318	-0,007	0,003
-373,058	-200,000	-0,046	-0,190
-372,044	52,849	-0,116	0,081
-371,029	800,000	-0,057	0,119
-370,015	-178,573	-0,045	-0,001
-369,000	185,262	0,042	0,046
-367,985	497,265	-0,077	-0,130
-366,971	-122,800	-0,103	0,012
-365,956	-200,000	-0,021	0,091
-364,942	232,673	-0,043	-0,052
-363,927	431,120	0,039	0,063
-362,912	172,943	-0,038	0,040
-361,898	-63,357	0,065	0,019
-360,883	640,074	0,101	-0,189
-359,869	67,593	-0,032	0,024
-358,854	-200,000	0,007	0,072
-357,839	118,347	0,042	0,038
-356,825	-141,699	0,162	-0,012
-355,810	102,338	0,098	0,084
-354,796	-200,000	0,014	0,123
-353,781	-128,753	-0,173	0,018
-352,766	-200,000	-0,001	0,064
-351,752	-200,000	-0,005	-0,104
-350,737	-103,847	0,069	-0,012
-349,723	-200,000	-0,004	0,109
-348,708	242,001	-0,039	0,048
-347,693	35,784	0,062	-0,040
-346,679	7,774	0,047	-0,026
-345,664	230,754	-0,025	0,030
-344,650	-200,000	-0,024	0,127
-343,635	295,582	-0,021	0,028
-342,620	-200,000	-0,004	0,111
-341,606	97,947	-0,034	0,029
-340,591	377,128	-0,033	0,049
-339,577	121,203	0,023	0,021
-338,562	-4,842	0,082	-0,042
-337,548	329,011	0,099	-0,140
-336,533	-97,338	-0,103	-0,019
-335,518	800,000	-0,060	-0,128
-334,504	40,504	0,106	0,070
-333,489	-200,000	0,022	0,074
-332,475	148,945	0,018	0,018
-331,460	800,000	-0,022	-0,067
-330,445	358,361	0,033	0,049
-329,431	-72,729	-0,080	0,021
-328,416	-200,000	0,012	0,123
-327,402	800,000	-0,028	0,078
-326,387	36,614	0,109	0,071
-325,372	-200,000	-0,022	0,091
-324,358	578,048	-0,042	-0,075
-323,343	-30,819	0,034	0,014
-322,329	516,954	-0,030	0,052
-321,314	-186,567	0,052	-0,001
-320,299	800,000	-0,031	0,064
-319,285	-79,176	0,053	-0,013
-318,270	-148,491	0,058	-0,003
-317,256	365,549	-0,047	0,069
-316,241	782,568	0,043	-0,087
-315,226	265,162	0,037	0,047
-314,212	800,000	0,005	0,013
-313,197	-2,876	0,190	0,097
-312,183	-72,338	-0,126	0,034
-311,168	-200,000	-0,019	0,101
-310,153	-95,899	-0,072	-0,014
-309,139	172,817	-0,048	0,051
-308,124	227,896	-0,043	-0,052
-307,110	83,712	0,033	0,026
-306,095	-89,232	-0,106	0,023
-305,080	-200,000	0,018	0,089
-304,066	-64,143	-0,114	0,034
-303,051	-200,000	0,064	-0,214
-302,037	-200,000	-0,022	-0,119
-301,022	247,449	0,059	-0,074
-300,008	-200,000	0,004	-0,073
-298,993	214,240	0,022	0,025
-297,978	628,849	0,061	0,114
-296,964	-78,131	-0,093	0,023
-295,949	-76,635	-0,035	0,009
-294,935	-146,862	0,058	0,004
-293,920	-200,000	0,001	0,100
-292,905	-200,000	-0,006	0,069
-291,891	800,000	0,017	0,044
-290,876	800,000	0,029	-0,072
-289,862	-176,723	-0,153	-0,003
-288,847	790,440	-0,033	-0,067
-287,832	-75,345	0,085	-0,022
-286,818	125,809	0,026	0,024
-285,803	-200,000	0,004	-0,041
-284,789	-48,456	0,063	-0,022
-283,774	-156,311	0,057	-0,003
-282,759	-200,000	0,014	-0,052
-281,745	-158,257	-0,083	0,003
-280,730	800,000	0,042	-0,094
-279,716	252,639	0,085	-0,106
-278,701	12,520	-0,035	-0,020
-277,686	-32,568	0,030	0,012
-276,672	-0,225	0,044	0,023
-275,657	484,206	-0,045	-0,075
-274,643	18,567	-0,030	-0,018
-273,628	196,090	-0,037	0,042
-272,613	429,037	-0,029	-0,046
-271,599	-49,049	0,128	0,045
-270,584	800,000	0,082	-0,217
-269,570	536,177	-0,058	0,101
-268,555	-50,293	-0,046	-0,016
-267,540	16,887	-0,070	0,041
-266,526	800,000	0,011	0,036
-265,511	83,689	-0,023	0,018
-264,497	-5,568	0,034	-0,017
-263,482	-52,917	0,130	0,043
-262,467	-200,000	0,012	0,081
-261,453	-84,826	-0,127	0,029
-260,438	-56,114	-0,185	-0,060
-259,424	484,037	-0,052	-0,086
-258,409	800,000	-0,019	-0,054
-257,395	-76,664	-0,051	0,013
-256,380	26,012	-0,053	0,032
-255,365	-11,231	0,040	-0,019
-254,351	-22,042	-0,028	-0,013
-253,336	-200,000	-0,000	-0,022
-252,322	800,000	-0,072	-0,187
-251,307	800,000	0,044	-0,100
-250,292	-188,346	0,083	-0,001
-249,278	559,113	-0,019	0,034
-248,263	-200,000	0,024	0,100
-247,249	302,374	0,062	0,084
-246,234	195,419	-0,086	0,095
-245,219	-200,000	0,015	-0,078
-244,205	-200,000	-0,004	0,037
-243,190	148,691	0,025	-0,025
-242,176	800,000	0,050	-0,152
-241,161	-97,474	-0,074	-0,014
-240,146	128,748	0,065	-0,060
-239,132	5,754	-0,158	-0,085
-238,117	800,000	-0,029	0,090
-237,103	-200,000	-0,004	-0,068
-236,088	800,000	0,005	0,014
-235,073	25,626	0,106	-0,064
-234,059	800,000	0,053	0,136
-233,044	-200,000	-0,001	0,012
-232,030	-116,766	-0,134	0,018
-231,015	-170,686	0,012	-0,000
-230,000	45,119	-0,064	-0,043
-228,986	159,562	0,045	-0,046
-227,971	119,704	0,176	-0,159
-226,957	121,484	0,038	-0,035
-225,942	381,117	0,069	0,104
-224,927	354,153	0,023	0,033
-223,913	800,000	0,064	-0,131
-222,898	177,984	0,012	-0,013
-221,884	372,821	0,035	0,053
-220,869	-200,000	0,020	-0,071
-219,855	701,163	-0,063	0,122
-218,840	45,543	-0,024	-0,016
-217,825	-101,452	-0,049	0,009
-216,811	-82,219	0,030	-0,007
-215,796	6,375	0,051	-0,027
-214,782	-200,000	-0,003	0,009
-213,767	-131,114	-0,041	0,004
-212,752	32,435	-0,095	-0,060
-211,738	-144,588	0,158	0,010
-210,723	800,000	0,047	0,100
-209,709	-33,385	-0,097	0,039
-208,694	449,676	-0,068	0,110
-207,679	-200,000	0,009	-0,054
-206,665	157,403	0,047	0,048
-205,650	532,207	-0,039	0,068
-204,636	-200,000	0,023	-0,126
-203,621	551,105	-0,043	0,076
-202,606	318,071	-0,053	-0,074
-201,592	-170,799	0,101	-0,002
-200,577	280,686	0,034	-0,044
-199,563	57,228	0,068	0,048
-198,548	-114,555	0,079	0,011
-197,533	-200,000	-0,018	-0,074
-196,519	-81,306	-0,121	0,029
-195,504	-28,758	0,082	0,034
-194,490	-27,883	-0,079	-0,033
-193,475	5,056	0,014	-0,007
-192,460	20,492	0,178	0,105
-191,446	315,664	0,078	-0,108
-190,431	-138,787	0,137	-0,011
-189,417	-200,000	-0,014	-0,112
-188,402	-109,626	-0,089	-0,013
-187,387	115,057	0,054	0,048
-186,373	-129,558	-0,040	-0,004
-185,358	800,000	0,075	-0,172
-184,344	-54,479	0,115	0,038
-183,329	800,000	0,011	-0,023
-182,315	-65,900	-0,123	-0,036
-181,300	452,816	-0,079	0,127
-180,285	-41,546	-0,037	0,014
-179,271	800,000	0,023	0,053
-178,256	-200,000	0,005	-0,058
-177,242	53,641	0,062	-0,043
-176,227	292,794	-0,051	-0,068
-175,212	-105,354	-0,043	0,007
-174,198	510,255	-0,046	0,077
-173,183	294,453	0,080	0,107
-172,169	800,000	0,042	0,129
-171,154	442,832	-0,039	0,062
-170,139	530,829	-0,029	0,051
-169,125	156,690	-0,056	-0,056
-168,110	766,131	-0,019	0,038
-167,096	800,000	-0,032	-0,083
-166,081	208,745	0,023	0,027
-165,066	800,000	-0,051	0,134
-164,052	-43,078	0,077	-0,028
-163,037	279,698	0,091	0,119
-162,023	497,402	-0,107	0,180
-161,008	27,843	-0,047	0,029
-159,993	82,838	0,022	0,018
-158,979	800,000	-0,042	0,107
-157,964	-200,000	0,009	-0,121
-156,950	-57,805	0,042	0,013
-155,935	208,190	0,073	-0,084
-154,920	454,128	0,017	-0,027
-153,906	254,759	0,074	-0,092
-152,891	-66,350	-0,175	0,050
-151,877	42,933	-0,125	-0,083
-150,862	-23,353	0,167	-0,073
-149,847	-110,871	-0,107	0,016
-148,833	-49,312	-0,158	0,055
-147,818	-200,000	-0,001	0,046
-146,804	-200,000	0,002	0,010
-145,789	757,186	0,026	0,052
-144,775	582,066	0,010	-0,018
-143,760	212,811	0,048	0,055
-142,745	25,054	-0,091	-0,055
-141,731	-94,477	0,164	0,032
-140,716	-200,000	0,022	-0,149
-139,702	260,500	0,112	0,141
-138,687	800,000	0,039	-0,084
-137,672	-103,238	0,019	0,003
-136,658	-56,227	-0,121	0,039
-135,643	9,117	-0,119	-0,065
-134,629	-63,327	0,153	-0,046
-133,614	415,957	0,068	0,106
-132,599	-200,000	0,018	-0,086
-131,585	106,044	-0,158	-0,136
-130,570	-112,066	-0,026	0,004
-129,556	-71,289	-0,114	-0,031
-128,541	1,037	-0,154	-0,080
-127,526	-200,000	-0,003	0,024
-126,512	-75,130	0,131	-0,034
-125,497	-101,632	0,151	-0,026
-124,483	-68,930	-0,024	0,007
-123,468	119,084	-0,061	-0,055
-122,453	-200,000	-0,028	-0,098
-121,439	40,136	0,038	-0,025
-120,424	28,744	-0,054	-0,033
-119,410	182,371	-0,050	-0,054
-118,395	123,856	0,027	-0,025
-117,380	113,107	0,058	0,051
-116,366	76,720	-0,044	0,034
-115,351	144,207	0,084	-0,082
-114,337	800,000	0,006	-0,014
-113,322	5,801	-0,100	-0,054
-112,307	163,408	-0,064	-0,066
-111,293	-112,754	0,157	0,022
-110,278	-146,153	-0,060	-0,004
-109,264	-200,000	-0,004	-0,049
-108,249	17,379	-0,102	-0,059
-107,234	-174,624	-0,042	-0,001
-106,220	-200,000	-0,006	0,051
-105,205	-200,000	0,001	0,059
-104,191	-200,000	0,008	-0,139
-103,176	-170,257	-0,055	-0,001
-102,162	-131,369	-0,047	-0,004
-101,147	800,000	0,056	0,136
-100,132	157,065	-0,076	0,076
-99,118	-83,790	0,079	0,018
-98,103	-135,539	0,056	0,005
-97,089	233,170	-0,057	0,069
-96,074	5,411	0,092	-0,049
-95,059	-46,623	-0,048	-0,017
-94,045	-200,000	0,002	0,146
-93,030	-56,106	-0,033	0,011
-92,016	179,975	-0,050	-0,054
-91,001	41,370	0,039	-0,026
-89,986	-200,000	0,016	-0,100
-88,972	-200,000	-0,035	-0,126
-87,957	-200,000	0,013	0,054
-86,943	-140,118	-0,041	-0,003
-85,928	-80,246	-0,146	0,035
-84,913	152,322	-0,037	-0,037
-83,899	191,347	0,030	-0,032
-82,884	800,000	0,031	0,077
-81,870	-200,000	0,016	0,112
-80,855	-39,703	-0,046	-0,017
-79,840	-91,204	-0,105	-0,022
-78,826	-96,040	-0,066	0,013
-77,811	800,000	-0,008	0,022
-76,797	-7,744	0,048	-0,023
-75,782	794,803	-0,071	0,143
-74,767	268,691	0,050	0,064
-73,753	-200,000	-0,000	-0,154
-72,738	341,341	0,059	-0,083
-71,724	9,128	-0,131	-0,072
-70,709	299,031	0,112	-0,150
-69,694	600,017	-0,048	0,087
-68,680	548,242	0,108	0,189
-67,665	-50,813	0,177	-0,060
-66,651	-62,548	-0,047	0,014
-65,636	800,000	-0,019	0,039
-64,622	225,168	-0,056	-0,066
-63,607	58,247	-0,077	0,055
-62,592	-22,104	-0,110	0,048
-61,578	-200,000	-0,006	0,095
-60,563	-50,699	-0,052	0,018
-59,549	800,000	0,014	-0,039
-58,534	-155,252	-1,190	-0,055
-57,519	718,357	-0,753	-1,459
-56,505	-200,000	-0,841	-4,455
-55,490	-12,207	0,608	-0,287
-54,476	800,000	4,959	11,739
-53,461	-200,000	13,701	251,304
-52,446	-200,000	689,656	2264,567
-51,432	608,271	1621,119	2946,969
-50,417	119,435	1633,566	1466,950
-49,403	74,500	1287,819	981,159
-48,388	38,044	1023,502	659,025
-47,373	24,239	981,547	586,632
-46,359	23,427	971,102	577,706
-45,344	22,475	966,862	572,050
-44,330	22,349	965,372	570,737
-43,315	22,243	964,001	569,558
-42,300	22,243	962,946	568,914
-41,286	22,275	961,929	568,394
-40,271	22,191	961,131	567,627
-39,257	22,249	960,085	567,173
-38,242	22,305	959,041	566,717
-37,227	22,224	958,205	565,938
-36,213	22,118	957,501	565,156
-35,198	22,221	956,580	564,923
-34,184	22,197	955,894	564,419
-33,169	22,177	954,891	563,741
-32,154	22,285	953,965	563,518
-31,140	22,254	953,241	562,967
-30,125	22,330	952,371	562,675
-29,111	22,308	951,458	562,044
-28,096	22,307	950,831	561,647
-27,082	22,264	950,324	561,187
-26,067	22,303	949,262	560,665
-25,052	22,205	948,761	560,030
-24,038	22,290	948,005	559,837
-23,023	22,288	947,261	559,367
-22,009	22,318	946,608	559,056
-20,994	22,321	946,028	558,701
-19,979	22,217	945,557	558,067
-18,965	22,333	944,802	557,971
-17,950	22,306	944,229	557,522
-16,936	22,268	943,454	556,924
-15,921	22,245	942,734	556,402
-14,906	22,191	942,080	555,823
-13,892	22,150	941,495	555,325
-12,877	22,081	940,959	554,766
-11,863	22,084	940,261	554,344
-10,848	22,139	939,735	554,185
-9,833	22,233	939,374	554,250
-8,819	22,208	938,754	553,782
-7,804	22,159	937,969	553,144
-6,790	22,134	937,376	552,691
-5,775	22,207	936,851	552,591
-4,760	22,164	936,270	552,090
-3,746	22,172	935,411	551,586
-2,731	21,990	934,934	550,708
-1,717	21,988	934,064	550,170
-0,702	21,942	933,583	549,719
0,313	21,768	932,762	549,518
1,327	24,408	930,414	556,379
2,342	32,350	808,772	505,151
3,356	27,264	508,519	308,922
4,371	2,422	372,720	194,908
5,386	-0,659	355,743	182,243
6,400	-1,993	349,587	177,467
7,415	-2,548	346,826	175,386
8,429	-2,809	345,377	174,326
9,444	-2,830	344,585	173,887
10,459	-2,720	343,780	173,595
11,473	-2,796	342,974	173,083
12,488	-2,710	342,505	172,932
13,502	-2,818	342,106	172,588
14,517	-2,816	341,515	172,276
15,531	-2,878	341,094	171,977
16,546	-2,660	340,484	171,909
17,561	-2,961	340,103	171,349
18,575	-2,813	339,868	171,389
19,590	-2,779	339,319	171,136
20,604	-2,829	339,209	171,007
21,619	-2,827	338,717	170,747
22,634	-2,805	338,354	170,573
23,648	-2,996	338,029	170,172
24,663	-2,825	337,669	170,175
25,677	-2,704	337,284	170,106
26,692	-2,806	337,048	169,853
27,707	-2,863	336,840	169,667
28,721	-2,862	336,503	169,484
29,736	-2,869	336,100	169,257
30,750	-2,795	335,806	169,180
31,765	-2,744	335,664	169,151
32,780	-2,721	335,323	168,992
33,794	-2,891	335,188	168,713
34,809	-2,832	334,820	168,580
35,823	-2,767	334,405	168,431
36,838	-2,767	334,138	168,281
37,853	-2,834	333,952	168,096
38,867	-2,795	333,752	168,025
39,882	-2,810	333,392	167,811
40,896	-2,807	332,934	167,570
41,911	-2,767	332,838	167,552
42,926	-2,772	332,553	167,387
43,940	-2,951	332,306	167,044
44,955	-2,901	332,060	166,962
45,969	-2,675	331,669	167,009
46,984	-2,852	331,446	166,680
47,999	-2,797	331,236	166,622
49,013	-2,962	331,091	166,346
50,028	-2,849	330,664	166,246
51,042	-2,879	330,470	166,099
52,057	-2,839	330,215	166,001
53,071	-2,905	329,832	165,719
54,086	-2,812	329,683	165,735
55,101	-2,742	329,322	165,618
56,115	-2,898	329,252	165,392
57,130	-2,796	328,879	165,305
58,144	-2,906	328,618	165,035
59,159	-2,669	328,416	165,186
60,174	-2,674	328,012	164,962
61,188	-2,845	327,927	164,712
62,203	-2,791	327,586	164,587
63,217	-2,823	327,331	164,408
64,232	-2,905	327,157	164,215
65,247	-2,664	326,811	164,295
66,261	-2,816	326,608	164,009
67,276	-2,911	326,238	163,703
68,290	-2,803	326,014	163,696
69,305	-2,784	325,845	163,618
70,320	-2,770	325,645	163,518
71,334	-2,954	325,323	163,137
72,349	-2,791	325,165	163,225
73,363	-2,803	324,895	163,061
74,378	-2,764	324,541	162,912
75,393	-2,818	324,344	162,739
76,407	-2,719	324,022	162,673
77,422	-2,730	323,724	162,497
78,436	-2,702	323,462	162,382
79,451	-2,727	323,273	162,244
80,466	-2,864	323,078	161,980
81,480	-2,847	322,658	161,774
82,495	-2,817	322,505	161,716
83,509	-2,842	322,271	161,557
84,524	-2,872	322,149	161,449
85,539	-2,807	321,797	161,329
86,553	-2,740	321,537	161,258
87,568	-2,946	321,419	160,958
88,582	-2,793	321,090	160,947
89,597	-2,929	320,910	160,693
90,611	-2,861	320,710	160,653
91,626	-2,795	320,323	160,518
92,641	-2,825	320,199	160,408
93,655	-2,736	320,020	160,402
94,670	-2,766	319,618	160,154
95,684	-2,746	319,475	160,090
96,699	-2,690	319,178	159,987
97,714	-2,815	319,056	159,776
98,728	-2,853	318,788	159,585
99,743	-2,870	318,605	159,461
100,757	-2,693	318,453	159,563
101,772	-2,698	317,954	159,294
102,787	-2,884	317,845	159,022
103,801	-2,714	317,611	159,076
104,816	-2,789	317,392	158,871
105,830	-2,787	317,233	158,779
106,845	-2,802	317,175	158,720
107,860	-2,666	316,729	158,629
108,874	-2,826	316,482	158,318
109,889	-2,920	316,481	158,202
110,903	-2,630	315,974	158,248
111,918	-2,833	315,835	157,945
112,933	-2,727	315,631	157,943
113,947	-2,640	315,358	157,886
114,962	-2,775	315,071	157,583
115,976	-2,671	314,922	157,606
116,991	-2,893	314,836	157,311
118,006	-2,780	314,370	157,185
119,020	-2,687	314,355	157,263
120,035	-2,779	314,212	157,080
121,049	-2,860	314,060	156,902
122,064	-2,714	313,747	156,889
123,079	-2,779	313,506	156,684
124,093	-2,798	313,216	156,505
125,108	-2,691	312,991	156,493
126,122	-2,792	312,733	156,242
127,137	-2,670	312,586	156,286
128,151	-2,724	312,315	156,078
129,166	-2,904	312,159	155,795
130,181	-2,809	311,806	155,705
131,195	-2,944	311,640	155,466
132,210	-2,768	311,413	155,525
133,224	-2,743	311,165	155,415
134,239	-2,688	310,881	155,317
135,254	-2,816	310,705	155,079
136,268	-2,701	310,383	155,026
137,283	-2,766	310,220	154,862
138,297	-2,884	310,084	154,656
139,312	-2,848	309,818	154,548
140,327	-2,928	309,601	154,342
141,341	-2,745	309,463	154,451
142,356	-2,735	309,250	154,342
143,370	-2,624	308,942	154,291
144,385	-2,592	308,610	154,145
145,400	-2,742	308,605	153,971
146,414	-2,783	308,303	153,764
147,429	-2,798	308,148	153,658
148,443	-2,708	307,885	153,606
149,458	-2,647	307,724	153,577
150,473	-2,765	307,501	153,328
151,487	-2,691	307,245	153,264
152,502	-2,588	307,102	153,287
153,516	-2,720	306,761	152,966
154,531	-2,763	306,763	152,908
155,546	-2,567	306,341	152,888
156,560	-2,646	306,149	152,696
157,575	-2,701	305,996	152,549
158,589	-2,605	305,704	152,490
159,604	-2,535	305,524	152,459
160,619	-2,605	305,238	152,230
161,633	-2,697	305,250	152,127
162,648	-2,563	304,860	152,058
163,662	-2,865	304,832	151,717
164,677	-2,531	304,475	151,872
165,692	-2,612	304,292	151,683
166,706	-2,601	304,146	151,608
167,721	-2,526	303,952	151,576
168,735	-2,636	303,756	151,351
169,750	-2,555	303,478	151,282
170,764	-2,642	303,411	151,146
171,779	-2,697	303,354	151,047
172,794	-2,572	302,929	150,951
173,808	-2,519	302,781	150,919
174,823	-2,766	302,527	150,524
175,837	-2,768	302,269	150,380
176,852	-2,601	302,126	150,467
177,867	-2,615	302,028	150,390
178,881	-2,518	301,587	150,257
179,896	-2,708	301,580	150,046
180,910	-2,651	301,327	149,964
181,925	-2,528	301,092	149,960
182,940	-2,456	300,900	149,924
183,954	-2,621	300,601	149,594
184,969	-2,632	300,482	149,510
185,983	-2,610	300,330	149,444
186,998	-2,454	300,075	149,463
188,013	-2,608	299,912	149,211
189,027	-2,538	299,760	149,193
190,042	-2,627	299,519	148,969
191,056	-2,607	299,138	148,787
192,071	-2,536	299,088	148,820
193,086	-2,508	298,912	148,749
194,100	-2,369	298,682	148,761
195,115	-2,547	298,443	148,449
196,129	-2,640	298,250	148,246
197,144	-2,533	298,056	148,244
198,159	-2,727	298,031	148,023
199,173	-2,620	297,639	147,922
200,188	-2,471	297,248	147,865
201,202	-2,667	297,262	147,662
202,217	-2,672	296,935	147,481
203,232	-2,597	296,709	147,430
204,246	-2,496	296,418	147,374
205,261	-2,545	296,323	147,265
206,275	-2,441	296,099	147,245
207,290	-2,577	296,000	147,046
208,304	-2,531	295,805	146,982
209,319	-2,427	295,553	146,948
210,334	-2,528	295,311	146,714
211,348	-2,427	295,221	146,756
212,363	-2,440	295,065	146,653
213,377	-2,523	294,822	146,436
214,392	-2,482	294,586	146,347
215,407	-2,474	294,351	146,225
216,421	-2,498	294,150	146,088
217,436	-2,702	293,987	145,792
218,450	-2,632	293,772	145,742
219,465	-2,554	293,615	145,728
220,480	-2,466	293,474	145,732
221,494	-2,391	293,345	145,730
222,509	-2,616	293,126	145,384
223,523	-2,356	292,776	145,456
224,538	-2,359	292,733	145,419
225,553	-2,498	292,503	145,154
226,567	-2,541	292,286	144,990
227,582	-2,382	292,116	145,050
228,596	-2,544	291,918	144,779
229,611	-2,705	291,817	144,557
230,626	-2,452	291,479	144,626
231,640	-2,656	291,349	144,348
232,655	-2,623	291,081	144,236
233,669	-2,795	291,047	144,036
234,684	-2,678	290,758	143,995
235,699	-2,546	290,557	144,012
236,713	-2,475	290,562	144,072
237,728	-2,704	290,306	143,707
238,742	-2,514	289,890	143,674
239,757	-2,611	289,687	143,466
240,772	-2,602	289,650	143,443
241,786	-2,757	289,381	143,147
242,801	-2,517	289,318	143,337
243,815	-2,506	289,008	143,181
244,830	-2,553	288,933	143,085
245,844	-2,510	288,672	142,985
246,859	-2,507	288,430	142,856
247,874	-2,639	288,383	142,691
248,888	-2,643	288,106	142,538
249,903	-2,437	287,867	142,607
250,917	-2,498	287,810	142,507
251,932	-2,443	287,565	142,426
252,947	-2,589	287,355	142,168
253,961	-2,892	287,098	141,735
254,976	-3,410	286,560	140,955
255,990	-3,783	286,431	140,519
257,005	-2,905	286,611	141,444
258,020	-0,940	287,255	143,651
259,034	0,805	287,635	145,519
260,049	1,324	287,680	146,031
261,063	1,722	287,628	146,376
262,078	1,957	287,566	146,559
263,093	2,215	287,517	146,770
264,107	2,434	287,398	146,907
265,122	2,636	287,230	147,004
266,136	2,678	287,071	146,949
267,151	2,847	286,929	147,027
268,166	2,816	286,619	146,825
269,180	2,724	286,687	146,758
270,195	2,664	286,448	146,565
271,209	2,497	286,308	146,320
272,224	2,666	285,957	146,290
273,239	2,445	285,958	146,065
274,253	2,524	285,654	145,972
275,268	2,485	285,293	145,737
276,282	2,573	285,225	145,774
277,297	2,345	285,126	145,492
278,312	2,556	284,995	145,614
279,326	2,585	284,682	145,469
280,341	2,525	284,531	145,322
281,355	2,544	284,300	145,209
282,370	2,487	284,109	145,044
283,384	2,633	283,860	145,043
284,399	2,566	283,689	144,879
285,414	2,638	283,466	144,821
286,428	2,556	283,170	144,579
287,443	2,514	283,161	144,521
288,457	2,407	282,949	144,299
289,472	2,365	282,779	144,159
290,487	2,339	282,402	143,929
291,501	2,366	282,393	143,938
292,516	2,384	282,077	143,781
293,530	2,280	282,026	143,644
294,545	2,308	281,895	143,590
295,560	2,264	281,780	143,478
296,574	2,388	281,443	143,410
297,589	2,194	281,334	143,160
298,603	2,332	281,139	143,177
299,618	2,320	280,893	143,027
300,633	2,644	280,742	143,242
301,647	2,365	280,610	142,900
302,662	2,504	280,446	142,935
303,676	2,485	280,182	142,769
304,691	2,502	280,219	142,791
305,706	2,524	279,947	142,661
306,720	2,649	279,658	142,617
307,735	2,596	279,619	142,536
308,749	2,597	279,365	142,394
309,764	2,713	279,279	142,446
310,779	2,509	278,893	142,046
311,793	2,471	278,809	141,955
312,808	2,374	278,742	141,818
313,822	2,584	278,408	141,831
314,837	2,619	278,272	141,781
315,852	2,499	278,082	141,561
316,866	2,686	277,934	141,646
317,881	2,502	277,757	141,372
318,895	2,575	277,533	141,314
319,910	2,427	277,361	141,077
320,925	2,433	277,203	140,989
321,939	2,644	277,021	141,080
322,954	2,595	276,795	140,906
323,968	2,503	276,725	140,773
324,983	2,652	276,571	140,820
325,997	2,535	276,438	140,631
327,012	2,635	276,197	140,589
328,027	2,524	275,959	140,353
329,041	2,610	275,926	140,403
330,056	2,687	275,726	140,359
331,070	2,554	275,664	140,193
332,085	2,790	275,321	140,223
333,100	2,563	275,114	139,897
334,114	2,585	274,944	139,818
335,129	2,627	274,735	139,737
336,143	2,675	274,564	139,682
337,158	2,676	274,318	139,545
338,173	2,689	274,154	139,462
339,187	2,542	274,131	139,303
340,202	2,612	273,956	139,265
341,216	2,596	273,623	139,069
342,231	2,630	273,464	139,007
343,246	2,580	273,396	138,914
344,260	2,645	273,225	138,875
345,275	2,690	272,919	138,747
346,289	2,696	272,800	138,679
347,304	2,685	272,679	138,596
348,319	2,736	272,596	138,588
349,333	2,822	272,364	138,536
350,348	2,643	272,243	138,299
351,362	2,584	272,007	138,114
352,377	2,604	271,781	138,005
353,392	2,848	271,676	138,160
354,406	2,688	271,537	137,932
355,421	192,376	1350,785	1434,289
356,435	155,303	1482,396	1434,433
