DTS Sentinel unit serial number:	SN410029Multiplexer serial number:	ORYXHardware model number:	OX2-SRSoftware version number:	ORYX F/W v4,00 Oryx Data Collector v3.7.2.0data status	okinstallation	B4 Nyhavnadifferential loss correction	single-endedforward channel	channel 2reverse channel	N/Adate	2023/12/15time	15:35:13forward acquisition time	300,00reverse acquisition time	0,00gamma	499,1914k internal	0,3153k external	0,3153temperature offset calibration	1,0000default loss term (dB/km)	0,3820temperature slope calibration	1,0000multiplexer offset coefficient	1,0000multiplexer slope coefficient	1,0000fibre end	0,00T internal ref (°C)	16,50T ext. ref 1 (°C)	2,78T ext. ref 2 (°C)	2,91length (m)	temperature (°C)	Stokes	anti-Stokes-744,400	-48,577	0,166	-0,059
-743,385	-148,667	-0,306	0,018
-742,371	0,105	0,070	0,037
-741,356	-52,068	-0,335	0,114
-740,342	-200,000	-0,033	0,122
-739,327	-128,931	-0,243	0,025
-738,312	-200,000	0,009	0,037
-737,298	-139,302	-0,323	0,025
-736,283	-200,000	-0,004	-0,121
-735,269	171,100	-0,134	0,141
-734,254	-102,813	-0,059	0,010
-733,239	-17,528	-0,357	-0,165
-732,225	-84,840	0,127	0,029
-731,210	37,808	-0,054	0,035
-730,196	-164,181	-0,049	0,002
-729,181	-200,000	0,008	0,090
-728,167	800,000	-0,052	-0,115
-727,152	-200,000	0,010	-0,120
-726,137	-34,190	-0,093	-0,037
-725,123	800,000	0,045	-0,128
-724,108	83,810	-0,143	-0,115
-723,094	372,601	-0,085	-0,129
-722,079	800,000	-0,026	-0,062
-721,064	514,736	-0,044	-0,076
-720,050	110,726	-0,066	-0,059
-719,035	-86,507	-0,129	-0,029
-718,021	244,456	-0,074	-0,092
-717,006	-200,000	-0,005	0,018
-715,991	-61,683	-0,168	-0,052
-714,977	-100,660	-0,101	0,018
-713,962	-200,000	0,001	-0,045
-712,948	-200,000	-0,029	0,134
-711,933	748,737	-0,089	0,178
-710,918	685,197	-0,021	0,041
-709,904	-19,361	-0,148	-0,067
-708,889	163,110	-0,093	-0,097
-707,875	-200,000	-0,058	-0,193
-706,860	220,967	0,066	0,078
-705,845	291,319	0,063	0,085
-704,831	-94,771	0,054	0,011
-703,816	79,907	-0,164	-0,130
-702,802	-200,000	-0,009	-0,140
-701,787	140,230	-0,047	0,046
-700,772	-46,896	0,114	-0,041
-699,758	-12,267	-0,061	-0,029
-698,743	-14,914	0,066	0,031
-697,729	-200,000	0,001	-0,055
-696,714	159,879	-0,054	0,055
-695,699	-200,000	-0,007	0,042
-694,685	262,476	-0,011	0,015
-693,670	-90,620	-0,093	-0,020
-692,656	-200,000	-0,004	-0,079
-691,641	212,567	-0,090	-0,105
-690,627	82,405	0,065	-0,052
-689,612	254,952	0,045	-0,057
-688,597	-83,734	0,063	-0,015
-687,583	42,379	-0,085	-0,057
-686,568	-73,281	-0,030	-0,008
-685,554	67,717	-0,074	0,056
-684,539	41,170	0,103	-0,068
-683,524	320,768	-0,081	0,113
-682,510	-27,045	0,075	0,032
-681,495	486,204	-0,029	0,048
-680,481	800,000	-0,025	-0,056
-679,466	632,495	-0,014	-0,027
-678,451	-54,661	-0,071	0,024
-677,437	0,839	0,010	-0,005
-676,422	-200,000	0,006	0,108
-675,408	227,428	0,075	0,090
-674,393	-200,000	-0,037	-0,123
-673,378	115,893	-0,172	-0,155
-672,364	126,575	-0,047	-0,043
-671,349	800,000	-0,023	0,061
-670,335	-200,000	0,013	-0,142
-669,320	10,531	-0,054	0,030
-668,305	2,531	0,046	-0,024
-667,291	540,970	-0,061	0,108
-666,276	127,098	-0,066	0,061
-665,262	254,293	-0,063	-0,080
-664,247	134,407	-0,096	-0,092
-663,232	70,517	0,087	0,067
-662,218	-200,000	0,009	-0,086
-661,203	-93,220	-0,090	-0,018
-660,189	651,903	-0,023	-0,044
-659,174	-95,337	-0,244	0,048
-658,159	-44,596	-0,070	0,026
-657,145	-200,000	-0,009	-0,086
-656,130	800,000	0,040	-0,086
-655,116	273,131	0,016	0,020
-654,101	47,561	0,029	-0,020
-653,086	291,134	0,061	0,082
-652,072	-200,000	0,020	-0,116
-651,057	176,661	-0,023	-0,024
-650,043	3,822	0,096	0,051
-649,028	800,000	-0,051	-0,143
-648,014	418,797	-0,050	0,080
-646,999	-200,000	-0,002	-0,080
-645,984	-83,529	0,052	0,012
-644,970	-94,300	-0,098	0,019
-643,955	-200,000	0,018	-0,066
-642,941	-200,000	-0,005	0,092
-641,926	234,991	0,089	-0,108
-640,911	-74,188	-0,036	-0,009
-639,897	310,461	0,075	-0,104
-638,882	-156,385	-0,059	-0,003
-637,868	800,000	-0,056	0,131
-636,853	279,786	0,045	-0,059
-635,838	-200,000	-0,028	-0,150
-634,824	111,516	-0,100	-0,089
-633,809	-200,000	-0,013	-0,107
-632,795	12,315	0,081	-0,046
-631,780	412,513	-0,029	0,046
-630,765	800,000	0,051	-0,120
-629,751	-167,892	-0,109	-0,003
-628,736	369,806	0,103	-0,154
-627,722	-200,000	-0,016	-0,055
-626,707	-112,917	-0,082	0,012
-625,692	-81,484	0,038	-0,009
-624,678	-200,000	-0,001	0,147
-623,663	-200,000	0,004	0,028
-622,649	713,333	0,023	-0,046
-621,634	79,733	0,065	-0,051
-620,619	-120,027	-0,055	-0,007
-619,605	-123,121	0,126	-0,015
-618,590	512,656	-0,031	0,053
-617,576	421,455	0,064	0,100
-616,561	201,729	0,058	0,066
-615,546	-134,462	-0,121	0,011
-614,532	800,000	-0,024	-0,074
-613,517	800,000	-0,044	-0,119
-612,503	293,353	-0,113	-0,151
-611,488	662,389	-0,059	0,111
-610,474	-84,437	-0,166	-0,038
-609,459	-42,183	0,083	0,031
-608,444	800,000	0,043	-0,095
-607,430	160,296	-0,107	-0,109
-606,415	-52,909	-0,169	0,057
-605,401	101,490	-0,011	0,010
-604,386	6,529	0,120	-0,066
-603,371	610,952	0,034	0,063
-602,357	-200,000	-0,016	0,058
-601,342	442,644	0,015	0,025
-600,328	1,660	-0,111	-0,059
-599,313	160,742	0,146	-0,150
-598,298	560,982	-0,051	-0,091
-597,284	-200,000	0,010	-0,051
-596,269	-200,000	0,019	0,067
-595,255	139,740	-0,041	0,040
-594,240	800,000	0,032	-0,080
-593,225	-71,001	-0,094	0,026
-592,211	69,394	-0,039	-0,030
-591,196	400,589	0,029	0,044
-590,182	356,927	-0,048	-0,070
-589,167	20,542	0,072	-0,043
-588,152	581,038	0,040	-0,072
-587,138	-68,704	-0,068	0,019
-586,123	-200,000	0,003	0,079
-585,109	-200,000	0,008	0,029
-584,094	800,000	0,045	-0,102
-583,079	800,000	0,055	0,142
-582,065	245,234	0,031	-0,039
-581,050	130,273	-0,097	-0,092
-580,036	800,000	0,049	0,107
-579,021	-200,000	-0,006	-0,042
-578,006	454,830	-0,035	0,057
-576,992	-200,000	0,006	0,112
-575,977	-200,000	0,048	0,198
-574,963	-8,813	-0,046	-0,023
-573,948	149,154	-0,044	0,043
-572,934	36,830	-0,037	0,024
-571,919	77,230	0,112	0,087
-570,904	-113,749	0,046	0,007
-569,890	-126,379	0,080	0,009
-568,875	800,000	-0,043	-0,119
-567,861	-200,000	0,015	-0,084
-566,846	81,542	-0,055	-0,043
-565,831	-200,000	0,013	0,123
-564,817	-66,056	0,014	-0,004
-563,802	-200,000	-0,031	-0,116
-562,788	251,388	-0,086	-0,107
-561,773	130,462	-0,038	-0,035
-560,758	-200,000	0,012	0,093
-559,744	-130,027	-0,048	0,005
-558,729	-200,000	0,038	0,140
-557,715	69,071	-0,048	0,036
-556,700	-200,000	-0,005	0,041
-555,685	563,203	0,080	-0,142
-554,671	53,268	-0,100	-0,070
-553,656	-165,653	-0,111	-0,003
-552,642	26,180	0,171	0,104
-551,627	800,000	-0,015	-0,042
-550,612	-82,531	0,084	-0,020
-549,598	800,000	0,022	-0,052
-548,583	-200,000	0,010	-0,112
-547,569	118,879	-0,054	-0,049
-546,554	-102,223	0,133	-0,023
-545,539	356,336	0,026	-0,039
-544,525	97,191	0,035	-0,029
-543,510	634,316	-0,018	-0,034
-542,496	800,000	0,048	-0,117
-541,481	-116,922	-0,038	-0,005
-540,466	-200,000	0,013	-0,079
-539,452	760,550	0,061	-0,121
-538,437	-120,307	0,215	0,026
-537,423	800,000	-0,026	-0,070
-536,408	-200,000	-0,009	0,127
-535,393	185,442	0,046	-0,050
-534,379	-113,561	-0,089	0,013
-533,364	-200,000	-0,001	-0,093
-532,350	-162,715	-0,109	0,004
-531,335	103,959	-0,058	-0,050
-530,321	800,000	0,032	-0,096
-529,306	-115,818	0,057	0,008
-528,291	-122,469	-0,045	0,005
-527,277	800,000	-0,032	0,093
-526,262	-200,000	-0,009	-0,037
-525,248	-170,886	0,111	0,003
-524,233	-83,669	0,138	-0,032
-523,218	-200,000	-0,016	0,085
-522,204	-149,388	0,143	-0,008
-521,189	43,666	-0,124	-0,083
-520,175	118,386	-0,057	-0,051
-519,160	692,619	0,024	0,046
-518,145	91,225	0,036	0,030
-517,131	-48,715	0,154	-0,054
-516,116	-96,578	-0,110	0,021
-515,102	-200,000	-0,006	-0,061
-514,087	-200,000	0,000	-0,083
-513,072	-157,418	-0,122	-0,005
-512,058	-104,299	-0,077	-0,013
-511,043	675,016	-0,093	-0,178
-510,029	800,000	-0,050	0,104
-509,014	-200,000	-0,012	0,093
-507,999	0,095	-0,080	-0,042
-506,985	-200,000	0,003	-0,072
-505,970	-200,000	-0,001	-0,076
-504,956	800,000	-0,033	0,078
-503,941	102,537	-0,051	-0,043
-502,926	-200,000	0,008	-0,144
-501,912	154,537	-0,080	-0,081
-500,897	-200,000	-0,001	0,042
-499,883	130,986	0,115	0,108
-498,868	-200,000	-0,024	-0,152
-497,853	-200,000	0,021	0,073
-496,839	800,000	0,020	-0,054
-495,824	136,707	-0,020	0,019
-494,810	-200,000	0,037	0,121
-493,795	-200,000	0,006	-0,122
-492,781	275,422	0,023	0,029
-491,766	292,735	-0,014	-0,018
-490,751	-200,000	0,021	-0,119
-489,737	-200,000	0,010	0,070
-488,722	800,000	0,013	-0,028
-487,708	-4,356	0,020	0,010
-486,693	800,000	-0,024	-0,061
-485,678	635,852	0,066	-0,123
-484,664	-200,000	0,028	-0,098
-483,649	169,049	0,017	0,018
-482,635	-123,982	-0,030	0,003
-481,620	-18,972	0,177	0,080
-480,605	171,637	-0,043	0,045
-479,591	13,598	0,125	0,071
-478,576	14,851	0,035	0,020
-477,562	-200,000	-0,006	-0,037
-476,547	-65,019	-0,110	0,032
-475,532	-55,290	-0,102	-0,033
-474,518	-200,000	-0,005	-0,050
-473,503	-35,798	-0,029	-0,012
-472,489	163,447	0,103	0,106
-471,474	-200,000	-0,011	0,051
-470,459	-130,146	-0,058	-0,006
-469,445	-200,000	0,002	0,128
-468,430	207,040	-0,076	0,087
-467,416	109,298	-0,135	0,118
-466,401	-52,273	-0,031	-0,010
-465,386	564,876	0,034	-0,061
-464,372	-200,000	-0,006	0,076
-463,357	-200,000	0,005	-0,154
-462,343	340,372	-0,066	-0,095
-461,328	-19,861	-0,056	0,025
-460,313	-53,381	0,151	0,050
-459,299	-200,000	0,005	-0,047
-458,284	185,934	0,115	0,125
-457,270	-63,627	-0,046	0,014
-456,255	-200,000	0,027	0,158
-455,241	627,462	-0,077	0,142
-454,226	177,057	-0,056	0,060
-453,211	-74,707	0,083	0,022
-452,197	800,000	0,054	0,137
-451,182	800,000	-0,019	0,041
-450,168	-200,000	0,001	0,030
-449,153	800,000	0,043	0,102
-448,138	656,109	-0,082	-0,155
-447,124	-200,000	-0,031	-0,109
-446,109	370,623	-0,033	-0,050
-445,095	-200,000	0,011	0,088
-444,080	-200,000	-0,002	-0,140
-443,065	-200,000	0,002	-0,026
-442,051	-94,922	0,039	0,008
-441,036	118,532	0,062	-0,056
-440,022	146,052	-0,084	-0,082
-439,007	-200,000	0,013	0,106
-437,992	-200,000	0,005	-0,043
-436,978	104,130	-0,119	-0,102
-435,963	800,000	0,045	0,109
-434,949	122,875	0,163	-0,149
-433,934	-200,000	-0,019	0,094
-432,919	-26,999	0,034	0,014
-431,905	436,635	0,055	0,087
-430,890	729,591	-0,079	0,155
-429,876	-94,714	-0,113	0,022
-428,861	-142,559	-0,073	-0,005
-427,846	18,863	0,143	0,083
-426,832	800,000	-0,030	0,076
-425,817	800,000	-0,015	0,038
-424,803	-42,888	-0,018	0,007
-423,788	70,882	0,106	0,080
-422,773	800,000	0,026	-0,065
-421,759	152,007	0,113	0,112
-420,744	800,000	0,019	0,044
-419,730	-34,162	-0,089	-0,035
-418,715	-157,752	0,050	-0,002
-417,701	705,465	0,028	0,053
-416,686	156,985	0,053	-0,054
-415,671	-200,000	0,015	0,072
-414,657	-89,209	-0,104	-0,022
-413,642	-200,000	-0,027	0,094
-412,628	8,327	-0,139	-0,076
-411,613	313,133	-0,054	-0,074
-410,598	128,146	0,079	-0,073
-409,584	29,600	0,082	-0,051
-408,569	-200,000	0,005	-0,063
-407,555	-200,000	-0,012	-0,055
-406,540	-59,893	-0,160	-0,050
-405,525	800,000	-0,029	-0,072
-404,511	-198,181	-0,146	-0,001
-403,496	188,724	-0,079	0,086
-402,482	167,342	-0,009	-0,009
-401,467	151,763	0,087	0,086
-400,452	-50,098	0,011	0,004
-399,438	-90,125	-0,037	0,008
-398,423	-200,000	0,006	0,027
-397,409	78,465	-0,035	-0,027
-396,394	-18,746	0,013	0,006
-395,379	-143,474	0,106	0,007
-394,365	-200,000	-0,027	0,143
-393,350	-52,398	0,063	0,021
-392,336	-4,364	0,065	0,033
-391,321	-200,000	-0,017	-0,071
-390,306	721,032	-0,036	-0,069
-389,292	-198,999	0,222	-0,001
-388,277	-200,000	0,001	-0,025
-387,263	-27,852	0,071	0,030
-386,248	-23,469	-0,168	0,073
-385,233	-149,292	0,030	0,002
-384,219	413,051	0,050	-0,077
-383,204	-200,000	-0,010	-0,078
-382,190	723,038	-0,028	-0,055
-381,175	-127,349	-0,039	0,004
-380,160	55,335	-0,014	-0,010
-379,146	-105,392	0,070	0,011
-378,131	-200,000	-0,007	-0,062
-377,117	103,783	-0,153	0,131
-376,102	439,827	0,055	-0,088
-375,088	800,000	-0,012	0,031
-374,073	800,000	-0,026	-0,078
-373,058	-200,000	0,033	0,108
-372,044	-119,806	-0,056	0,007
-371,029	-200,000	-0,011	0,112
-370,015	767,752	0,033	0,065
-369,000	33,151	-0,076	0,048
-367,985	-126,097	-0,103	-0,011
-366,971	-45,139	-0,090	0,033
-365,956	-200,000	-0,004	0,035
-364,942	-200,000	0,036	0,000
-363,927	173,152	0,065	0,068
-362,912	56,783	-0,096	-0,068
-361,898	413,276	0,041	0,064
-360,883	188,449	-0,047	0,052
-359,869	146,886	0,029	-0,028
-358,854	-200,000	0,146	-0,000
-357,839	-200,000	-0,006	-0,053
-356,825	800,000	-0,002	0,004
-355,810	483,373	0,074	0,123
-354,796	-136,653	-0,083	-0,007
-353,781	-148,806	-0,161	0,009
-352,766	298,626	0,087	-0,117
-351,752	-54,453	0,054	-0,018
-350,737	0,743	0,220	0,114
-349,723	-17,842	0,083	-0,038
-348,708	-85,704	0,107	0,024
-347,693	-200,000	0,008	0,038
-346,679	-200,000	0,010	0,035
-345,664	346,684	0,045	-0,064
-344,650	31,163	-0,038	-0,024
-343,635	167,726	0,063	0,065
-342,620	-200,000	-0,009	-0,072
-341,606	-200,000	0,001	0,075
-340,591	-200,000	-0,021	0,101
-339,577	-52,633	0,049	-0,016
-338,562	205,746	-0,023	-0,026
-337,548	78,576	-0,144	0,112
-336,533	-12,870	0,159	0,075
-335,518	-200,000	-0,004	0,018
-334,504	-14,894	0,124	0,058
-333,489	40,296	-0,078	-0,051
-332,475	-5,745	0,088	-0,044
-331,460	185,105	0,010	-0,011
-330,445	-200,000	0,021	0,112
-329,431	-138,926	0,097	-0,008
-328,416	142,824	-0,118	-0,114
-327,402	-200,000	0,004	0,167
-326,387	-85,792	0,088	-0,020
-325,372	613,562	-0,038	-0,069
-324,358	582,545	-0,009	-0,016
-323,343	-7,305	-0,130	0,064
-322,329	14,537	0,089	-0,051
-321,314	-90,139	0,122	0,026
-320,299	-200,000	-0,014	-0,046
-319,285	-42,497	-0,049	-0,018
-318,270	-200,000	-0,009	-0,151
-317,256	322,534	-0,030	-0,041
-316,241	-20,991	-0,019	-0,008
-315,226	-104,575	-0,127	-0,021
-314,212	-200,000	0,015	-0,067
-313,197	800,000	0,041	0,087
-312,183	55,830	0,017	-0,012
-311,168	-150,438	-0,043	-0,002
-310,153	-200,000	0,006	-0,034
-309,139	12,213	-0,026	-0,014
-308,124	609,337	-0,026	-0,047
-307,110	-112,441	-0,075	0,011
-306,095	-200,000	0,026	0,127
-305,080	-135,322	0,118	-0,010
-304,066	-200,000	-0,031	-0,113
-303,051	800,000	0,002	-0,004
-302,037	-87,379	0,028	-0,006
-301,022	-26,075	0,115	0,049
-300,008	-77,789	-0,084	0,021
-298,993	-90,358	-0,102	0,021
-297,978	-110,656	0,058	-0,009
-296,964	626,991	-0,035	-0,064
-295,949	800,000	-0,026	0,079
-294,935	100,479	0,042	-0,036
-293,920	-200,000	0,003	-0,100
-292,905	800,000	-0,052	0,123
-291,891	800,000	-0,056	0,171
-290,876	800,000	0,035	0,095
-289,862	266,908	0,102	0,130
-288,847	-4,211	-0,051	-0,026
-287,832	422,264	-0,033	-0,052
-286,818	714,089	-0,019	-0,036
-285,803	89,725	0,035	-0,028
-284,789	92,240	-0,073	0,060
-283,774	182,211	0,089	0,096
-282,759	7,297	-0,066	0,036
-281,745	314,302	-0,044	-0,060
-280,730	101,749	-0,087	0,073
-279,716	460,598	0,031	-0,051
-278,701	-141,923	0,173	-0,012
-277,686	-200,000	0,003	0,064
-276,672	303,159	-0,021	0,028
-275,657	84,734	0,094	-0,075
-274,643	283,649	0,021	-0,027
-273,628	32,993	0,061	-0,038
-272,613	771,017	0,043	-0,084
-271,599	640,878	0,062	0,115
-270,584	270,615	-0,121	-0,155
-269,570	392,247	0,016	-0,024
-268,555	800,000	-0,031	-0,072
-267,540	800,000	-0,005	-0,017
-266,526	61,356	0,021	0,015
-265,511	74,211	-0,111	0,085
-264,497	17,175	0,103	-0,059
-263,482	11,873	0,078	-0,043
-262,467	800,000	-0,015	-0,038
-261,453	800,000	0,005	-0,014
-260,438	113,746	-0,104	0,092
-259,424	275,832	0,010	-0,012
-258,409	800,000	-0,057	-0,167
-257,395	-56,720	-0,126	0,040
-256,380	-98,608	0,076	0,014
-255,365	211,898	-0,113	0,129
-254,351	-200,000	0,009	0,048
-253,336	-114,091	0,040	-0,006
-252,322	482,566	0,057	-0,094
-251,307	46,513	-0,132	-0,089
-250,292	544,072	-0,067	0,117
-249,278	526,462	0,049	0,083
-248,263	54,564	0,123	0,086
-247,249	-120,713	-0,047	0,006
-246,234	267,411	-0,056	-0,071
-245,219	-168,326	-0,162	-0,004
-244,205	316,945	-0,036	-0,050
-243,190	99,518	0,040	-0,034
-242,176	-106,496	-0,040	-0,006
-241,161	-85,234	-0,110	-0,025
-240,146	-100,674	0,114	-0,020
-239,132	137,804	0,038	0,036
-238,117	58,629	-0,070	0,050
-237,103	-104,255	0,087	0,014
-236,088	-72,045	0,064	0,017
-235,073	0,184	0,067	0,034
-234,059	-115,173	0,165	0,022
-233,044	800,000	0,054	0,146
-232,030	533,888	0,023	-0,039
-231,015	-74,958	-0,071	0,018
-230,000	388,024	-0,022	0,033
-228,986	-115,300	-0,036	-0,005
-227,971	175,504	0,031	-0,032
-226,957	205,648	0,033	0,037
-225,942	800,000	0,040	0,125
-224,927	106,578	0,139	0,119
-223,913	-200,000	0,001	0,096
-222,898	559,024	-0,064	-0,112
-221,884	2,771	-0,026	0,014
-220,869	29,966	0,053	0,033
-219,855	-77,787	0,057	-0,014
-218,840	-8,099	0,070	-0,034
-217,825	535,796	0,087	0,149
-216,811	57,776	-0,117	0,082
-215,796	27,639	-0,123	-0,075
-214,782	-126,697	-0,143	0,015
-213,767	-124,445	0,074	-0,008
-212,752	557,019	0,039	-0,068
-211,738	-200,000	-0,009	0,135
-210,723	296,921	-0,068	-0,091
-209,709	800,000	-0,028	0,085
-208,694	260,222	-0,058	0,073
-207,679	-102,394	-0,047	-0,008
-206,665	82,823	0,045	-0,035
-205,650	-91,204	0,134	-0,028
-204,636	120,605	-0,155	0,139
-203,621	-95,871	-0,050	-0,010
-202,606	-200,000	-0,016	0,081
-201,592	-59,460	-0,062	0,019
-200,577	800,000	-0,054	-0,151
-199,563	-55,802	0,124	0,040
-198,548	73,676	0,076	-0,058
-197,533	-32,731	0,033	-0,013
-196,519	8,906	0,048	0,026
-195,504	-200,000	-0,007	0,136
-194,490	112,279	-0,103	0,090
-193,475	241,634	0,043	-0,052
-192,460	-62,823	-0,013	0,004
-191,446	235,900	-0,040	0,048
-190,431	800,000	0,005	0,012
-189,417	-200,000	0,045	-0,160
-188,402	-200,000	-0,003	-0,009
-187,387	800,000	-0,039	-0,096
-186,373	-36,238	0,110	0,043
-185,358	452,849	0,029	0,046
-184,344	800,000	0,047	-0,138
-183,329	172,011	0,034	-0,035
-182,315	48,252	0,136	0,092
-181,300	111,364	0,015	-0,013
-180,285	800,000	-0,022	0,049
-179,271	-23,054	-0,142	-0,062
-178,256	-200,000	0,027	-0,091
-177,242	11,738	0,056	0,031
-176,227	240,628	-0,100	-0,121
-175,212	-73,914	0,037	-0,010
-174,198	-200,000	-0,019	0,076
-173,183	58,310	-0,059	-0,042
-172,169	169,810	-0,095	0,098
-171,154	800,000	-0,004	0,012
-170,139	365,110	0,105	-0,153
-169,125	290,105	-0,081	0,107
-168,110	767,390	-0,039	0,076
-167,096	-200,000	-0,037	0,135
-166,081	455,124	0,057	0,092
-165,066	17,669	0,077	-0,044
-164,052	388,180	0,056	-0,085
-163,037	-200,000	0,026	-0,218
-162,023	-138,570	-0,055	0,004
-161,008	-177,605	0,040	0,001
-159,993	138,536	-0,075	-0,071
-158,979	45,537	0,042	0,028
-157,964	298,796	0,040	0,054
-156,950	-200,000	-0,022	0,076
-155,935	101,557	-0,049	0,041
-154,920	-200,000	0,012	-0,053
-153,906	800,000	-0,060	0,130
-152,891	427,237	0,038	0,059
-151,877	-134,527	-0,024	0,002
-150,862	-200,000	-0,011	-0,108
-149,847	-122,272	-0,054	-0,006
-148,833	-200,000	0,010	0,039
-147,818	-200,000	0,016	-0,056
-146,804	-103,059	0,050	-0,008
-145,789	52,925	-0,062	-0,043
-144,775	-200,000	-0,085	0,000
-143,760	800,000	-0,027	-0,066
-142,745	-200,000	-0,007	-0,042
-141,731	800,000	-0,059	0,147
-140,716	-121,476	0,124	-0,015
-139,702	-200,000	0,025	0,120
-138,687	89,565	0,077	0,062
-137,672	-105,327	0,029	0,005
-136,658	-67,031	-0,007	0,002
-135,643	41,784	-0,020	-0,013
-134,629	-65,927	0,090	0,026
-133,614	-28,456	0,018	0,007
-132,599	538,592	0,005	-0,008
-131,585	81,928	0,072	-0,056
-130,570	800,000	0,019	0,041
-129,556	31,206	0,060	-0,037
-128,541	-86,709	0,046	0,010
-127,526	-137,615	-0,042	-0,003
-126,512	32,655	-0,040	-0,025
-125,497	800,000	-0,005	0,014
-124,483	100,692	0,104	0,087
-123,468	87,519	-0,114	0,091
-122,453	800,000	-0,068	-0,153
-121,439	-151,608	0,093	-0,005
-120,424	379,307	-0,116	-0,172
-119,410	67,958	0,097	-0,072
-118,395	-38,205	-0,048	0,018
-117,380	166,751	0,028	0,029
-116,366	800,000	0,067	0,182
-115,351	-200,000	0,004	0,081
-114,337	-127,662	-0,120	0,012
-113,322	-40,582	-0,089	0,033
-112,307	-118,977	0,098	0,012
-111,293	-10,067	-0,039	0,019
-110,278	85,325	0,078	0,062
-109,264	84,312	0,049	-0,038
-108,249	575,678	-0,046	-0,081
-107,234	295,133	-0,071	-0,094
-106,220	60,868	-0,071	0,050
-105,205	-200,000	-0,002	0,127
-104,191	-131,538	0,140	0,013
-103,176	-200,000	0,001	0,077
-102,162	72,521	0,059	0,044
-101,147	800,000	-0,020	-0,063
-100,132	800,000	-0,023	-0,046
-99,118	-200,000	-0,018	-0,074
-98,103	345,616	0,108	0,153
-97,089	-40,505	0,141	-0,053
-96,074	41,875	0,053	-0,035
-95,059	194,760	-0,037	0,041
-94,045	36,759	0,013	0,008
-93,030	65,661	-0,013	0,009
-92,016	252,224	0,054	0,067
-91,001	567,146	0,043	0,075
-89,986	-158,769	0,175	0,007
-88,972	-110,465	0,169	0,025
-87,957	-49,817	0,081	0,027
-86,943	158,319	-0,142	-0,142
-85,928	-58,994	0,038	-0,012
-84,913	-82,607	-0,148	-0,034
-83,899	249,118	0,060	-0,073
-82,884	-88,845	0,058	-0,012
-81,870	800,000	0,038	-0,096
-80,855	-109,559	-0,040	0,006
-79,840	-125,191	0,099	0,011
-78,826	-124,758	-0,229	-0,025
-77,811	-2,657	-0,158	0,079
-76,797	-59,010	0,105	-0,032
-75,782	800,000	-0,033	0,075
-74,767	-200,000	-0,007	0,121
-73,753	180,139	0,075	0,080
-72,738	319,028	0,074	0,102
-71,724	-103,167	-0,110	-0,019
-70,709	204,881	-0,046	-0,051
-69,694	34,380	0,047	-0,030
-68,680	-200,000	0,006	0,086
-67,665	301,338	0,050	0,067
-66,651	-200,000	0,021	0,068
-65,636	-52,613	-0,176	0,058
-64,622	800,000	0,010	0,029
-63,607	172,787	-0,106	-0,110
-62,592	800,000	0,020	0,061
-61,578	800,000	0,032	-0,074
-60,563	800,000	0,062	0,160
-59,549	578,651	-0,029	0,051
-58,534	14,575	-1,751	-0,981
-57,519	-200,000	-0,265	-0,971
-56,505	-200,000	-1,093	-4,691
-55,490	-0,967	0,794	0,403
-54,476	800,000	5,118	11,780
-53,461	-200,000	16,988	273,312
-52,446	800,000	717,251	2189,383
-51,432	538,214	1631,142	2797,862
-50,417	113,905	1625,721	1420,514
-49,403	78,617	1286,268	987,471
-48,388	33,806	1031,686	643,801
-47,373	20,544	993,807	576,231
-46,359	19,172	982,330	565,029
-45,344	16,855	978,040	554,915
-44,330	16,965	976,641	554,462
-43,315	16,558	974,959	552,148
-42,300	16,509	973,853	551,341
-41,286	16,537	972,875	550,854
-40,271	16,553	971,877	550,320
-39,257	16,598	970,939	549,915
-38,242	16,502	970,146	549,130
-37,227	16,616	969,364	549,038
-36,213	16,513	968,608	548,254
-35,198	16,590	967,564	547,893
-34,184	16,555	966,951	547,409
-33,169	16,553	965,930	546,803
-32,154	16,567	964,942	546,266
-31,140	16,585	963,997	545,767
-30,125	16,574	963,288	545,309
-29,111	16,586	962,415	544,831
-28,096	16,589	961,881	544,519
-27,082	16,489	961,409	543,907
-26,067	16,572	960,357	543,558
-25,052	16,573	959,730	543,184
-24,038	16,456	959,106	542,432
-23,023	16,563	958,099	542,184
-22,009	16,528	957,699	541,825
-20,994	16,525	957,147	541,482
-19,979	16,538	956,607	541,196
-18,965	16,532	955,928	540,773
-17,950	16,508	955,268	540,299
-16,936	16,474	954,592	539,787
-15,921	16,457	953,951	539,347
-14,906	16,368	953,197	538,616
-13,892	16,448	952,592	538,507
-12,877	16,400	952,028	538,014
-11,863	16,328	951,173	537,279
-10,848	16,422	950,677	537,277
-9,833	16,507	950,202	537,259
-8,819	16,441	949,496	536,628
-7,804	16,467	948,926	536,367
-6,790	16,401	948,326	535,796
-5,775	16,432	947,632	535,484
-4,760	16,467	947,082	535,263
-3,746	16,460	946,297	534,775
-2,731	16,255	945,883	533,869
-1,717	16,241	944,964	533,283
-0,702	16,279	944,291	533,004
0,313	16,033	943,886	532,798
1,327	18,620	941,566	539,638
2,342	25,712	814,294	485,990
3,356	19,881	519,187	299,706
4,371	-1,880	391,741	197,234
5,386	-4,369	375,555	185,873
6,400	-5,673	369,404	181,165
7,415	-6,405	366,414	178,765
8,429	-6,909	364,703	177,286
9,444	-6,846	363,690	176,855
10,459	-6,920	362,898	176,362
11,473	-7,192	362,207	175,674
12,488	-6,965	361,679	175,683
13,502	-7,186	361,011	175,070
14,517	-7,348	360,285	174,503
15,531	-7,877	359,588	173,498
16,546	-7,966	359,358	173,262
17,561	-7,919	358,737	173,005
18,575	-7,677	358,245	173,049
19,590	-7,918	357,873	172,558
20,604	-7,973	357,662	172,375
21,619	-7,958	357,102	172,107
22,634	-7,934	356,658	171,908
23,648	-7,934	356,400	171,768
24,663	-8,016	356,106	171,511
25,677	-7,973	355,775	171,389
26,692	-7,915	355,283	171,207
27,707	-8,072	355,077	170,902
28,721	-7,956	354,726	170,858
29,736	-7,912	354,231	170,657
30,750	-8,012	354,068	170,442
31,765	-8,104	353,713	170,146
32,780	-7,979	353,524	170,191
33,794	-8,145	353,161	169,800
34,809	-7,894	352,785	169,907
35,823	-7,986	352,622	169,702
36,838	-8,083	352,311	169,420
37,853	-8,090	351,914	169,206
38,867	-8,017	351,666	169,159
39,882	-8,105	351,347	168,886
40,896	-8,196	351,151	168,667
41,911	-8,202	350,670	168,414
42,926	-8,014	350,279	168,435
43,940	-8,125	350,034	168,170
44,955	-8,231	349,787	167,911
45,969	-8,157	349,455	167,824
46,984	-8,290	349,138	167,498
47,999	-8,436	348,935	167,213
49,013	-8,346	348,663	167,174
50,028	-8,471	348,313	166,843
51,042	-8,451	348,113	166,756
52,057	-8,310	347,842	166,778
53,071	-8,379	347,498	166,517
54,086	-8,351	347,242	166,413
55,101	-8,355	347,095	166,323
56,115	-8,266	346,834	166,288
57,130	-7,973	346,656	166,534
58,144	-7,741	346,436	166,688
59,159	-7,755	346,130	166,509
60,174	-7,633	345,850	166,504
61,188	-7,749	345,488	166,178
62,203	-7,831	345,300	165,976
63,217	-7,689	344,832	165,902
64,232	-7,933	344,673	165,525
65,247	-7,676	344,621	165,787
66,261	-7,730	344,152	165,484
67,276	-8,124	343,795	164,836
68,290	-8,366	343,400	164,348
69,305	-7,948	343,309	164,779
70,320	-8,156	342,861	164,307
71,334	-8,072	342,593	164,262
72,349	-7,735	342,618	164,651
73,363	-7,685	342,261	164,524
74,378	-7,740	342,115	164,375
75,393	-7,785	341,694	164,106
76,407	-7,786	341,402	163,950
77,422	-7,937	341,202	163,664
78,436	-7,925	340,919	163,527
79,451	-7,703	340,598	163,617
80,466	-7,956	340,172	163,104
81,480	-8,131	339,893	162,753
82,495	-8,026	339,622	162,730
83,509	-8,127	339,509	162,545
84,524	-8,252	339,206	162,241
85,539	-8,201	338,791	162,087
86,553	-8,246	338,509	161,886
87,568	-8,179	338,358	161,876
88,582	-8,360	338,246	161,601
89,597	-8,208	338,037	161,660
90,611	-7,914	337,504	161,729
91,626	-8,046	337,594	161,606
92,641	-8,114	337,272	161,359
93,655	-8,232	336,916	161,039
94,670	-8,138	336,584	160,974
95,684	-8,126	336,379	160,876
96,699	-8,205	336,210	160,690
97,714	-8,167	335,882	160,562
98,728	-8,327	335,676	160,266
99,743	-8,218	335,302	160,198
100,757	-8,383	335,180	159,938
101,772	-8,050	334,757	160,101
102,787	-8,248	334,692	159,830
103,801	-8,140	334,566	159,877
104,816	-8,090	334,210	159,751
105,830	-8,082	334,088	159,686
106,845	-7,964	333,930	159,730
107,860	-8,075	333,630	159,447
108,874	-7,883	333,195	159,442
109,889	-7,943	333,062	159,297
110,903	-8,115	332,778	158,952
111,918	-7,995	332,545	158,962
112,933	-7,979	332,310	158,854
113,947	-7,851	331,999	158,836
114,962	-7,988	331,894	158,616
115,976	-7,853	331,516	158,574
116,991	-7,946	331,304	158,353
118,006	-8,001	331,118	158,189
119,020	-8,005	330,949	158,090
120,035	-7,947	330,857	158,096
121,049	-7,735	330,564	158,180
122,064	-7,701	330,100	157,982
123,079	-8,094	330,018	157,488
124,093	-8,071	329,815	157,404
125,108	-8,076	329,382	157,177
126,122	-8,274	329,072	156,795
127,137	-8,228	328,976	156,787
128,151	-8,266	328,767	156,631
129,166	-8,047	328,354	156,664
130,181	-7,944	328,208	156,694
131,195	-8,314	327,852	156,099
132,210	-8,178	327,885	156,252
133,224	-8,144	327,649	156,164
134,239	-7,981	327,436	156,229
135,254	-7,967	327,161	156,099
136,268	-8,026	326,934	155,912
137,283	-8,222	326,691	155,565
138,297	-8,133	326,194	155,413
139,312	-8,169	326,060	155,296
140,327	-7,957	325,911	155,444
141,341	-7,811	325,877	155,576
142,356	-7,568	325,560	155,678
143,370	-7,416	325,449	155,779
144,385	-7,571	325,286	155,516
145,400	-7,670	324,957	155,236
146,414	-7,613	324,821	155,220
147,429	-7,500	324,344	155,102
148,443	-7,716	324,269	154,815
149,458	-7,566	323,966	154,821
150,473	-7,606	323,790	154,679
151,487	-7,617	323,587	154,557
152,502	-7,663	323,285	154,348
153,516	-7,696	323,172	154,244
154,531	-7,509	322,861	154,286
155,546	-7,610	322,535	154,006
156,560	-7,726	322,381	153,792
157,575	-7,991	322,193	153,401
158,589	-7,606	321,844	153,641
159,604	-7,681	321,636	153,446
160,619	-7,537	321,455	153,502
161,633	-7,566	321,252	153,360
162,648	-7,458	321,022	153,354
163,662	-7,670	320,941	153,071
164,677	-7,711	320,549	152,826
165,692	-7,613	320,322	152,810
166,706	-7,550	320,260	152,836
167,721	-7,374	319,965	152,871
168,735	-7,469	319,803	152,677
169,750	-7,521	319,835	152,623
170,764	-7,334	319,461	152,633
171,779	-7,377	319,229	152,461
172,794	-7,321	319,189	152,490
173,808	-7,597	318,850	152,017
174,823	-7,988	318,338	151,339
175,837	-8,039	318,104	151,160
176,852	-7,637	318,195	151,621
177,867	-7,462	318,040	151,721
178,881	-7,346	317,681	151,661
179,896	-7,461	317,528	151,451
180,910	-7,301	317,354	151,526
181,925	-7,423	317,131	151,276
182,940	-7,200	316,742	151,315
183,954	-7,328	316,780	151,183
184,969	-7,462	316,450	150,869
185,983	-7,509	316,262	150,715
186,998	-7,561	316,131	150,584
188,013	-7,411	315,888	150,615
189,027	-7,364	315,585	150,507
190,042	-7,375	315,545	150,463
191,056	-7,063	315,193	150,613
192,071	-7,139	315,108	150,478
193,086	-7,207	314,934	150,309
194,100	-7,213	314,577	150,119
195,115	-7,254	314,355	149,957
196,129	-7,439	314,193	149,670
197,144	-7,199	313,985	149,812
198,159	-7,315	313,772	149,574
199,173	-7,329	313,495	149,413
200,188	-7,058	313,318	149,601
201,202	-7,344	312,943	149,108
202,217	-7,726	312,440	148,453
203,232	-7,717	312,280	148,373
204,246	-7,523	312,138	148,497
205,261	-7,445	312,172	148,582
206,275	-7,256	311,877	148,626
207,290	-7,505	311,737	148,285
208,304	-7,413	311,485	148,249
209,319	-7,412	311,254	148,127
210,334	-7,394	311,031	148,026
211,348	-7,345	310,842	147,973
212,363	-7,315	310,776	147,961
213,377	-7,339	310,394	147,741
214,392	-7,325	310,214	147,656
215,407	-7,695	309,903	147,110
216,421	-7,768	309,579	146,866
217,436	-7,565	309,323	146,943
218,450	-7,860	309,397	146,658
219,465	-7,696	309,177	146,711
220,480	-7,577	308,921	146,700
221,494	-7,544	308,618	146,578
222,509	-7,655	308,621	146,450
223,523	-7,528	308,450	146,489
224,538	-7,327	308,168	146,549
225,553	-7,208	307,905	146,534
226,567	-7,341	307,861	146,363
227,582	-7,217	307,714	146,408
228,596	-7,272	307,444	146,210
229,611	-7,284	307,445	146,185
230,626	-7,399	307,048	145,864
231,640	-7,671	306,602	145,359
232,655	-8,064	306,500	144,893
233,669	-8,044	306,186	144,753
234,684	-7,957	305,965	144,725
235,699	-7,773	305,855	144,849
236,713	-7,849	305,639	144,656
237,728	-7,690	305,588	144,782
238,742	-7,656	305,239	144,639
239,757	-7,649	305,102	144,568
240,772	-7,560	305,004	144,600
241,786	-7,572	304,930	144,539
242,801	-7,590	304,519	144,313
243,815	-7,693	304,402	144,140
244,830	-7,424	304,216	144,313
245,844	-7,605	303,892	143,962
246,859	-7,467	303,703	144,000
247,874	-7,564	303,591	143,835
248,888	-7,427	303,377	143,860
249,903	-7,396	303,209	143,800
250,917	-7,177	303,142	143,978
251,932	-6,829	303,098	144,297
252,947	-5,754	303,414	145,528
253,961	-5,550	303,322	145,677
254,976	-6,380	302,637	144,495
255,990	-6,718	302,566	144,106
257,005	-4,960	303,128	146,144
258,020	-2,062	304,177	149,584
259,034	-1,083	304,291	150,621
260,049	-0,527	304,516	151,284
261,063	0,333	304,441	152,107
262,078	0,396	304,346	152,110
263,093	0,306	304,166	151,915
264,107	0,441	304,076	151,993
265,122	0,430	303,863	151,862
266,136	0,431	303,758	151,797
267,151	0,351	303,492	151,569
268,166	0,593	303,303	151,706
269,180	0,703	303,010	151,657
270,195	0,523	302,784	151,349
271,209	0,370	302,735	151,156
272,224	0,530	302,494	151,184
273,239	0,679	302,352	151,249
274,253	0,808	302,139	151,259
275,268	0,631	302,064	151,030
276,282	0,601	301,711	150,810
277,297	0,673	301,480	150,753
278,312	0,673	301,385	150,693
279,326	0,494	301,145	150,379
280,341	0,462	300,910	150,217
281,355	0,330	300,810	150,021
282,370	0,631	300,571	150,190
283,384	0,516	300,238	149,895
284,399	0,498	300,011	149,750
285,414	0,548	299,793	149,678
286,428	0,550	299,774	149,657
287,443	0,432	299,516	149,397
288,457	0,584	299,432	149,494
289,472	0,466	299,181	149,238
290,487	0,316	298,843	148,906
291,501	0,318	298,700	148,824
292,516	0,244	298,644	148,709
293,530	0,500	298,337	148,797
294,545	0,516	298,222	148,743
295,560	0,494	298,078	148,636
296,574	0,483	297,810	148,478
297,589	0,477	297,618	148,364
298,603	0,579	297,333	148,309
299,618	0,442	297,236	148,111
300,633	0,449	297,085	148,030
301,647	0,460	296,766	147,869
302,662	0,448	296,678	147,800
303,676	0,386	296,402	147,588
304,691	0,434	296,228	147,535
305,706	0,427	296,058	147,431
306,720	0,478	295,875	147,376
307,735	0,671	295,680	147,456
308,749	0,525	295,412	147,166
309,764	0,591	295,227	147,125
310,779	0,429	295,036	146,858
311,793	0,568	294,754	146,841
312,808	0,431	294,637	146,635
313,822	0,319	294,367	146,378
314,837	0,572	294,325	146,592
315,852	0,503	294,202	146,450
316,866	0,489	293,783	146,214
317,881	0,531	293,767	146,234
318,895	0,510	293,474	146,055
319,910	0,464	293,504	146,013
320,925	0,539	293,239	145,941
321,939	0,510	292,871	145,716
322,954	0,588	292,770	145,729
323,968	0,366	292,776	145,503
324,983	0,587	292,481	145,558
325,997	0,539	292,275	145,396
327,012	0,508	292,147	145,290
328,027	0,476	291,853	145,099
329,041	0,573	291,815	145,161
330,056	0,658	291,629	145,138
331,070	0,485	291,282	144,786
332,085	0,466	290,997	144,612
333,100	0,545	290,810	144,583
334,114	0,464	290,769	144,472
335,129	0,544	290,429	144,367
336,143	0,718	290,289	144,451
337,158	0,709	290,148	144,360
338,173	0,772	289,940	144,304
339,187	0,554	289,936	144,079
340,202	0,698	289,604	144,040
341,216	0,641	289,394	143,868
342,231	0,666	289,390	143,878
343,246	0,640	289,171	143,730
344,260	0,776	288,817	143,672
345,275	0,664	288,696	143,491
346,289	0,762	288,584	143,517
347,304	0,701	288,454	143,381
348,319	0,699	288,202	143,241
349,333	0,615	288,032	143,064
350,348	0,557	287,790	142,876
351,362	0,689	287,533	142,861
352,377	0,579	287,490	142,722
353,392	0,775	287,313	142,808
354,406	0,620	287,112	142,548
355,421	193,799	1325,481	1399,117
356,435	157,146	1451,983	1399,119
