DTS Sentinel unit serial number:	SN410029Multiplexer serial number:	ORYXHardware model number:	OX2-SRSoftware version number:	ORYX F/W v4,00 Oryx Data Collector v3.7.2.0data status	okinstallation	B4 Nyhavnadifferential loss correction	single-endedforward channel	channel 2reverse channel	N/Adate	2023/12/16time	00:20:13forward acquisition time	300,00reverse acquisition time	0,00gamma	499,1914k internal	0,3128k external	0,3128temperature offset calibration	1,0000default loss term (dB/km)	0,3820temperature slope calibration	1,0000multiplexer offset coefficient	1,0000multiplexer slope coefficient	1,0000fibre end	0,00T internal ref (°C)	21,99T ext. ref 1 (°C)	6,73T ext. ref 2 (°C)	6,94length (m)	temperature (°C)	Stokes	anti-Stokes-744,400	-5,482	0,019	-0,010
-743,385	-75,684	-0,137	0,036
-742,371	82,765	0,019	-0,015
-741,356	-9,714	-0,242	0,120
-740,342	-60,557	0,026	0,008
-739,327	8,034	-0,243	0,135
-738,312	-111,285	-0,083	-0,012
-737,298	-143,130	-0,250	0,018
-736,283	261,451	0,097	-0,125
-735,269	8,960	-0,103	0,058
-734,254	-200,000	0,037	-0,156
-733,239	-85,200	-0,398	-0,092
-732,225	800,000	0,050	-0,115
-731,210	800,000	0,051	0,136
-730,196	800,000	0,032	0,084
-729,181	621,266	-0,058	-0,109
-728,167	-200,000	0,014	-0,060
-727,152	800,000	-0,041	-0,096
-726,137	69,388	0,026	-0,020
-725,123	-69,608	-0,081	-0,023
-724,108	144,783	-0,162	-0,161
-723,094	134,528	-0,149	-0,144
-722,079	-200,000	-0,010	-0,049
-721,064	677,205	-0,030	-0,059
-720,050	35,711	0,021	0,013
-719,035	-104,999	-0,048	0,008
-718,021	-200,000	-0,030	0,102
-717,006	462,502	0,037	-0,062
-715,991	-45,717	-0,079	0,029
-714,977	-136,761	-0,055	0,005
-713,962	490,668	-0,075	-0,127
-712,948	-200,000	-0,018	-0,113
-711,933	-200,000	0,004	-0,084
-710,918	-150,857	-0,039	-0,002
-709,904	-34,593	-0,106	-0,043
-708,889	-200,000	-0,023	-0,193
-707,875	-200,000	0,044	-0,186
-706,860	-129,603	0,071	0,007
-705,845	27,580	-0,108	0,068
-704,831	-200,000	0,028	0,094
-703,816	-200,000	-0,034	-0,200
-702,802	-200,000	0,004	-0,106
-701,787	135,373	-0,052	-0,050
-700,772	800,000	-0,072	-0,151
-699,758	119,325	-0,054	0,050
-698,743	327,783	0,086	0,124
-697,729	-200,000	-0,005	-0,018
-696,714	-200,000	-0,013	0,077
-695,699	-200,000	0,006	0,155
-694,685	-38,804	-0,067	0,026
-693,670	-7,976	0,064	-0,032
-692,656	117,704	0,068	0,062
-691,641	-10,430	0,068	-0,033
-690,627	-200,000	0,021	-0,140
-689,612	140,922	0,042	-0,042
-688,597	-59,817	-0,194	-0,061
-687,583	754,113	-0,018	0,037
-686,568	96,563	0,011	0,009
-685,554	71,651	-0,048	-0,037
-684,539	6,989	0,072	0,039
-683,524	208,289	0,082	-0,095
-682,510	-34,250	-0,223	0,091
-681,495	-153,899	0,169	0,008
-680,481	125,277	-0,043	0,041
-679,466	-200,000	0,022	-0,085
-678,451	-109,890	0,020	-0,003
-677,437	-113,709	-0,070	-0,010
-676,422	363,811	-0,025	-0,038
-675,408	425,919	0,046	0,074
-674,393	-200,000	-0,006	0,077
-673,378	-91,899	-0,063	-0,013
-672,364	-200,000	-0,013	-0,087
-671,349	-159,965	-0,165	0,007
-670,335	5,090	0,110	-0,060
-669,320	-125,577	-0,046	-0,005
-668,305	-194,054	-0,059	-0,000
-667,291	200,093	-0,015	-0,017
-666,276	-130,198	-0,124	-0,012
-665,262	388,439	-0,039	-0,059
-664,247	-86,061	-0,093	-0,021
-663,232	150,312	0,042	-0,042
-662,218	-200,000	-0,002	-0,068
-661,203	800,000	-0,042	-0,130
-660,189	76,758	0,071	-0,056
-659,174	-93,959	-0,035	-0,007
-658,159	800,000	0,029	0,083
-657,145	-200,000	0,007	-0,065
-656,130	-78,862	-0,120	0,030
-655,116	14,473	0,122	-0,071
-654,101	683,025	0,016	-0,030
-653,086	-24,265	-0,147	0,065
-652,072	-200,000	0,002	-0,008
-651,057	-65,797	-0,068	-0,020
-650,043	-166,312	-0,084	0,003
-649,028	800,000	0,050	0,128
-648,014	283,785	-0,041	0,054
-646,999	83,237	-0,121	0,098
-645,984	-135,672	-0,079	0,007
-644,970	800,000	0,034	-0,076
-643,955	310,061	-0,091	-0,126
-642,941	-125,876	0,023	-0,002
-641,926	110,877	-0,081	0,072
-640,911	680,751	-0,036	-0,069
-639,897	430,329	0,016	-0,026
-638,882	516,557	-0,041	-0,071
-637,868	800,000	0,035	0,100
-636,853	86,491	0,066	-0,054
-635,838	162,639	-0,095	-0,099
-634,824	460,818	-0,101	-0,167
-633,809	800,000	-0,060	0,137
-632,795	800,000	0,021	0,051
-631,780	-88,035	-0,065	-0,014
-630,765	218,608	-0,034	-0,041
-629,751	-58,975	0,091	0,029
-628,736	-10,153	-0,111	-0,054
-627,722	-62,888	0,101	-0,031
-626,707	800,000	-0,017	-0,044
-625,692	-200,000	-0,005	0,042
-624,678	-17,339	0,133	-0,062
-623,663	296,933	0,053	0,072
-622,649	-200,000	0,000	-0,051
-621,634	-200,000	0,008	0,095
-620,619	-157,103	0,083	-0,004
-619,605	200,685	0,035	-0,040
-618,590	72,246	0,083	-0,064
-617,576	800,000	-0,020	0,052
-616,561	156,461	-0,041	0,042
-615,546	-78,124	0,105	0,027
-614,532	-13,955	0,072	0,034
-613,517	486,065	0,070	0,118
-612,503	745,751	0,035	-0,071
-611,488	-30,139	-0,081	-0,034
-610,474	-136,900	-0,128	-0,011
-609,459	16,433	-0,007	-0,004
-608,444	800,000	-0,056	-0,134
-607,430	-114,423	0,093	0,013
-606,415	33,726	0,136	-0,087
-605,401	-15,643	-0,053	-0,025
-604,386	455,761	0,091	0,150
-603,371	150,317	0,048	-0,049
-602,357	263,943	-0,021	0,027
-601,342	-84,633	0,024	0,006
-600,328	175,376	-0,086	0,092
-599,313	800,000	0,049	-0,159
-598,298	76,302	-0,047	-0,037
-597,284	-163,696	0,105	-0,004
-596,269	539,152	-0,040	-0,071
-595,255	6,583	0,066	0,036
-594,240	-186,124	-0,122	0,001
-593,225	-200,000	-0,011	-0,079
-592,211	-65,834	-0,125	-0,037
-591,196	425,136	-0,028	-0,044
-590,182	-78,609	0,070	0,018
-589,167	364,412	-0,065	0,097
-588,152	800,000	0,050	-0,150
-587,138	800,000	0,038	0,115
-586,123	416,464	0,038	-0,060
-585,109	44,378	-0,098	-0,066
-584,094	-18,606	-0,059	0,027
-583,079	128,925	0,116	-0,110
-582,065	-200,000	-0,013	-0,045
-581,050	-103,252	0,031	0,005
-580,036	-200,000	0,006	0,036
-579,021	-76,979	-0,067	-0,017
-578,006	-46,763	0,162	0,058
-576,992	55,055	0,019	-0,014
-575,977	-168,245	0,031	0,001
-574,963	-160,851	-0,034	-0,001
-573,948	800,000	0,050	0,112
-572,934	-200,000	-0,009	0,102
-571,919	302,617	-0,037	-0,050
-570,904	206,829	-0,073	0,085
-569,890	136,909	0,102	-0,099
-568,875	800,000	0,048	-0,121
-567,861	-41,733	0,157	0,059
-566,846	276,106	0,129	0,170
-565,831	79,239	0,058	0,046
-564,817	800,000	-0,068	-0,177
-563,802	-200,000	-0,003	-0,054
-562,788	98,962	-0,135	-0,115
-561,773	-122,923	0,129	0,015
-560,758	-143,365	0,080	0,006
-559,744	-92,841	-0,088	-0,018
-558,729	37,789	0,150	-0,098
-557,715	49,363	0,086	0,060
-556,700	10,218	-0,056	0,031
-555,685	-200,000	0,004	0,129
-554,671	-144,663	-0,145	0,010
-553,656	-200,000	-0,001	-0,160
-552,642	800,000	0,015	-0,037
-551,627	78,599	0,095	-0,075
-550,612	-200,000	-0,033	-0,132
-549,598	800,000	-0,021	-0,059
-548,583	800,000	-0,023	0,048
-547,569	-176,085	-0,102	0,002
-546,554	-200,000	0,011	0,063
-545,539	92,514	0,133	0,111
-544,525	693,327	-0,027	0,053
-543,510	-200,000	-0,030	0,158
-542,496	-200,000	0,002	0,063
-541,481	-41,166	-0,021	-0,008
-540,466	-68,920	-0,029	0,008
-539,452	-200,000	0,006	-0,047
-538,437	-50,659	0,125	0,043
-537,423	800,000	0,060	0,162
-536,408	-200,000	-0,018	-0,129
-535,393	76,647	-0,193	-0,151
-534,379	-200,000	0,008	-0,061
-533,364	-78,943	-0,075	-0,019
-532,350	-200,000	0,022	0,127
-531,335	-200,000	0,022	0,084
-530,321	35,559	-0,052	0,033
-529,306	556,577	-0,074	-0,132
-528,291	579,758	-0,071	-0,129
-527,277	-200,000	0,008	0,158
-526,262	539,227	-0,060	0,105
-525,248	-200,000	-0,010	0,047
-524,233	137,245	0,058	-0,056
-523,218	36,353	-0,105	0,068
-522,204	800,000	0,047	0,098
-521,189	134,632	-0,072	-0,069
-520,175	303,655	-0,068	-0,093
-519,160	96,753	0,070	0,059
-518,145	22,515	0,017	0,010
-517,131	137,131	0,031	0,030
-516,116	218,211	-0,029	0,034
-515,102	17,926	-0,121	0,071
-514,087	-31,801	0,008	0,003
-513,072	13,674	-0,189	0,108
-512,058	521,578	-0,013	-0,023
-511,043	-200,000	-0,020	0,116
-510,029	47,939	0,108	0,074
-509,014	102,929	0,040	0,034
-507,999	-182,601	-0,109	-0,001
-506,985	-200,000	0,022	-0,113
-505,970	437,790	0,037	-0,060
-504,956	-200,000	0,015	-0,088
-503,941	800,000	-0,025	0,061
-502,926	-1,548	0,096	-0,050
-501,912	-200,000	0,029	0,114
-500,897	800,000	0,024	-0,050
-499,883	120,359	0,047	0,043
-498,868	-59,084	0,082	0,026
-497,853	800,000	0,016	-0,042
-496,839	-55,368	0,112	-0,037
-495,824	-45,380	-0,074	0,027
-494,810	-4,844	-0,035	-0,018
-493,795	-27,669	0,040	0,017
-492,781	2,812	-0,112	-0,060
-491,766	327,900	-0,014	0,020
-490,751	385,852	0,063	-0,097
-489,737	633,674	0,041	-0,078
-488,722	-14,673	0,044	0,021
-487,708	-70,550	0,040	0,011
-486,693	-200,000	-0,002	-0,035
-485,678	195,689	0,015	0,017
-484,664	-76,468	-0,105	0,027
-483,649	17,241	-0,032	0,019
-482,635	-200,000	0,028	0,103
-481,620	-82,534	-0,160	-0,038
-480,605	166,229	0,063	0,066
-479,591	17,077	-0,102	0,060
-478,576	76,691	0,019	-0,015
-477,562	85,317	0,061	0,050
-476,547	190,590	0,042	-0,046
-475,532	66,489	-0,065	-0,049
-474,518	800,000	-0,012	0,032
-473,503	-123,128	0,205	-0,024
-472,489	800,000	-0,034	-0,084
-471,474	-200,000	-0,014	-0,143
-470,459	-200,000	0,006	-0,086
-469,445	97,968	-0,196	-0,166
-468,430	-200,000	0,054	-0,208
-467,416	-200,000	0,038	-0,134
-466,401	800,000	0,015	-0,039
-465,386	-200,000	-0,027	-0,113
-464,372	366,598	0,022	0,032
-463,357	-167,397	-0,066	0,002
-462,343	-200,000	-0,003	-0,070
-461,328	184,784	-0,084	0,092
-460,313	73,701	0,067	-0,052
-459,299	-200,000	0,015	-0,055
-458,284	-107,483	-0,097	0,015
-457,270	800,000	0,058	0,122
-456,255	243,236	-0,045	0,056
-455,241	387,208	-0,041	0,062
-454,226	-141,295	-0,023	0,002
-453,211	18,741	0,188	-0,111
-452,197	104,728	-0,015	-0,013
-451,182	800,000	0,020	-0,045
-450,168	106,105	0,027	0,023
-449,153	31,868	-0,093	0,059
-448,138	-8,276	-0,142	0,070
-447,124	-200,000	0,004	-0,109
-446,109	210,693	0,074	-0,086
-445,095	800,000	0,024	0,076
-444,080	-10,135	-0,020	-0,010
-443,065	162,463	0,076	0,079
-442,051	800,000	0,044	-0,134
-441,036	565,002	-0,062	0,111
-440,022	269,180	0,051	0,066
-439,007	-200,000	0,010	0,055
-437,992	-67,219	-0,085	0,025
-436,978	-200,000	0,011	-0,059
-435,963	-200,000	0,003	0,032
-434,949	116,407	-0,034	-0,031
-433,934	145,397	0,050	-0,050
-432,919	-135,797	-0,022	0,002
-431,905	800,000	0,042	-0,105
-430,890	262,025	0,019	0,024
-429,876	170,281	-0,032	0,034
-428,861	36,544	0,009	-0,006
-427,846	-28,080	-0,034	-0,015
-426,832	29,794	-0,102	-0,064
-425,817	-100,051	-0,105	-0,019
-424,803	-58,124	-0,078	0,025
-423,788	-200,000	0,038	-0,226
-422,773	800,000	0,036	0,077
-421,759	125,401	0,073	0,068
-420,744	-200,000	0,001	0,004
-419,730	-200,000	0,002	-0,039
-418,715	800,000	-0,076	0,181
-417,701	-200,000	0,000	0,014
-416,686	800,000	0,043	-0,105
-415,671	458,639	0,075	0,124
-414,657	-200,000	-0,022	0,087
-413,642	-200,000	-0,135	0,000
-412,628	20,317	-0,056	-0,033
-411,613	800,000	0,056	-0,156
-410,598	800,000	-0,024	0,060
-409,584	136,161	-0,085	0,082
-408,569	-200,000	-0,035	0,139
-407,555	-77,318	0,136	0,035
-406,540	-108,588	0,055	-0,009
-405,525	800,000	-0,024	0,068
-404,511	-200,000	0,004	-0,030
-403,496	294,693	-0,064	-0,086
-402,482	195,190	0,058	0,065
-401,467	-6,634	0,059	-0,029
-400,452	-87,645	0,152	-0,033
-399,438	83,765	0,078	0,063
-398,423	81,208	0,043	-0,034
-397,409	99,619	-0,124	-0,106
-396,394	161,339	-0,074	-0,076
-395,379	-34,385	0,041	-0,017
-394,365	-122,440	-0,034	0,004
-393,350	-114,172	0,106	-0,015
-392,336	673,468	0,090	0,173
-391,321	51,517	0,044	0,031
-390,306	203,306	-0,098	-0,111
-389,292	800,000	-0,015	-0,034
-388,277	-200,000	-0,020	0,141
-387,263	-200,000	-0,034	-0,128
-386,248	-84,449	0,184	-0,042
-385,233	337,788	-0,038	0,054
-384,219	-96,203	0,144	0,028
-383,204	16,443	-0,080	-0,046
-382,190	9,429	0,168	-0,093
-381,175	99,986	-0,022	0,018
-380,160	-159,630	-0,055	-0,002
-379,146	-141,259	0,082	0,006
-378,131	176,077	0,116	-0,124
-377,117	44,359	0,118	-0,079
-376,102	800,000	-0,014	0,041
-375,088	127,614	-0,062	0,058
-374,073	42,731	-0,073	0,049
-373,058	-200,000	0,006	0,046
-372,044	-12,182	0,065	0,031
-371,029	-125,044	0,072	0,008
-370,015	374,533	0,063	0,095
-369,000	800,000	0,014	0,029
-367,985	354,564	0,054	-0,079
-366,971	-200,000	0,023	-0,082
-365,956	800,000	0,055	0,137
-364,942	-33,725	-0,112	-0,045
-363,927	-86,954	0,124	-0,028
-362,912	-133,095	0,040	0,004
-361,898	-46,640	-0,057	-0,021
-360,883	-200,000	0,011	-0,216
-359,869	-200,000	0,018	-0,060
-358,854	-28,336	0,027	-0,011
-357,839	-200,000	0,013	-0,071
-356,825	98,619	-0,136	0,115
-355,810	33,291	0,058	0,037
-354,796	-200,000	0,001	-0,097
-353,781	44,739	-0,095	-0,064
-352,766	-1,131	-0,068	0,035
-351,752	113,510	-0,093	-0,083
-350,737	354,778	0,048	0,070
-349,723	558,881	0,115	0,205
-348,708	557,078	0,047	0,084
-347,693	301,545	-0,054	0,073
-346,679	800,000	-0,062	0,153
-345,664	648,592	-0,054	-0,101
-344,650	-200,000	-0,031	-0,133
-343,635	-200,000	0,026	0,089
-342,620	800,000	0,023	-0,051
-341,606	-200,000	0,008	0,054
-340,591	49,762	-0,210	-0,145
-339,577	-150,203	0,037	-0,002
-338,562	68,479	0,053	0,040
-337,548	562,073	0,051	0,091
-336,533	13,011	-0,086	-0,049
-335,518	800,000	-0,017	0,040
-334,504	-106,545	0,138	0,022
-333,489	800,000	-0,007	0,022
-332,475	-200,000	-0,043	-0,177
-331,460	305,467	0,029	0,040
-330,445	-40,392	0,042	-0,016
-329,431	-200,000	-0,021	0,077
-328,416	-128,923	-0,069	-0,007
-327,402	-4,853	0,241	-0,121
-326,387	136,758	0,015	0,014
-325,372	103,349	-0,038	0,032
-324,358	-32,965	-0,196	0,079
-323,343	-200,000	0,004	-0,158
-322,329	-38,825	-0,062	-0,024
-321,314	-53,370	0,097	0,032
-320,299	548,880	0,026	0,045
-319,285	-200,000	0,017	0,085
-318,270	-200,000	0,001	-0,012
-317,256	-200,000	-0,001	-0,096
-316,241	215,558	0,097	0,113
-315,226	-33,991	0,043	-0,017
-314,212	-176,725	0,094	0,002
-313,197	302,857	0,083	0,113
-312,183	-11,125	0,039	-0,019
-311,168	6,430	-0,121	-0,066
-310,153	322,697	-0,077	-0,108
-309,139	-107,581	0,013	0,002
-308,124	-200,000	-0,018	0,073
-307,110	171,715	0,150	0,157
-306,095	240,533	-0,106	0,129
-305,080	358,233	0,079	0,116
-304,066	193,624	-0,050	0,055
-303,051	800,000	0,015	0,039
-302,037	-20,094	-0,028	0,013
-301,022	108,730	-0,024	0,021
-300,008	800,000	0,021	0,065
-298,993	-149,717	-0,078	0,004
-297,978	333,521	0,085	0,120
-296,964	-78,815	-0,069	-0,017
-295,949	-200,000	0,010	0,061
-294,935	800,000	-0,049	-0,129
-293,920	-200,000	-0,037	0,167
-292,905	64,839	-0,155	-0,115
-291,891	238,090	0,029	-0,035
-290,876	730,503	0,061	0,121
-289,862	84,918	-0,079	-0,063
-288,847	717,593	0,029	-0,057
-287,832	-70,773	-0,017	0,005
-286,818	295,913	0,077	0,104
-285,803	65,895	-0,024	0,018
-284,789	494,923	0,069	0,116
-283,774	65,785	0,102	0,075
-282,759	-68,860	0,057	-0,016
-281,745	800,000	0,022	0,047
-280,730	196,831	-0,011	-0,012
-279,716	-200,000	-0,004	0,084
-278,701	-200,000	-0,036	0,133
-277,686	-53,350	0,026	0,009
-276,672	168,586	-0,101	0,105
-275,657	-167,251	-0,044	0,001
-274,643	196,810	0,084	-0,093
-273,628	-200,000	-0,002	0,050
-272,613	65,120	0,064	-0,047
-271,599	162,476	-0,104	0,107
-270,584	189,828	0,024	0,027
-269,570	-81,772	0,059	0,014
-268,555	-52,716	0,052	0,017
-267,540	-127,449	-0,055	-0,006
-266,526	-86,896	-0,029	0,006
-265,511	71,555	-0,022	0,017
-264,497	-200,000	0,022	-0,095
-263,482	-200,000	-0,020	0,092
-262,467	-200,000	0,042	0,181
-261,453	124,880	-0,111	-0,102
-260,438	-116,199	0,051	-0,007
-259,424	-64,731	-0,066	0,019
-258,409	800,000	-0,045	-0,119
-257,395	-136,266	0,131	-0,011
-256,380	93,429	0,093	0,077
-255,365	104,215	0,065	0,056
-254,351	-200,000	-0,013	0,097
-253,336	190,454	-0,099	0,108
-252,322	800,000	-0,103	-0,209
-251,307	57,399	-0,046	0,033
-250,292	-200,000	0,011	-0,055
-249,278	534,897	0,047	-0,081
-248,263	385,856	0,049	0,074
-247,249	-200,000	0,019	-0,121
-246,234	-200,000	-0,010	-0,133
-245,219	-14,002	0,109	0,051
-244,205	-22,610	-0,104	-0,046
-243,190	800,000	0,044	-0,111
-242,176	-66,668	0,049	0,014
-241,161	-15,662	0,081	0,037
-240,146	375,116	-0,029	-0,044
-239,132	11,162	-0,084	0,047
-238,117	-200,000	0,004	-0,029
-237,103	74,891	-0,013	-0,010
-236,088	45,191	-0,023	-0,015
-235,073	-47,137	0,143	0,051
-234,059	-70,269	-0,089	0,024
-233,044	207,131	0,051	-0,058
-232,030	-70,643	0,064	0,017
-231,015	569,282	0,032	-0,056
-230,000	-200,000	0,013	-0,054
-228,986	-200,000	-0,011	-0,100
-227,971	574,388	-0,075	-0,135
-226,957	-113,000	0,186	0,027
-225,942	800,000	-0,049	0,149
-224,927	129,634	-0,082	0,076
-223,913	109,627	-0,113	0,099
-222,898	-138,456	0,034	0,003
-221,884	234,727	0,040	0,048
-220,869	-20,267	0,078	0,035
-219,855	426,812	0,029	0,045
-218,840	298,879	0,077	0,104
-217,825	800,000	-0,054	-0,117
-216,811	-200,000	0,030	-0,112
-215,796	800,000	-0,064	-0,132
-214,782	54,679	-0,096	-0,068
-213,767	-200,000	-0,002	-0,118
-212,752	-200,000	0,016	0,121
-211,738	-200,000	0,014	0,071
-210,723	112,775	0,072	0,064
-209,709	-200,000	0,023	-0,103
-208,694	800,000	-0,022	-0,069
-207,679	88,693	-0,086	0,069
-206,665	531,122	-0,041	0,071
-205,650	-67,963	0,126	0,036
-204,636	464,127	-0,055	0,090
-203,621	-166,302	-0,064	0,002
-202,606	-115,724	-0,135	0,018
-201,592	264,048	-0,036	-0,046
-200,577	800,000	-0,020	0,059
-199,563	163,202	-0,039	-0,040
-198,548	-200,000	-0,013	0,054
-197,533	-87,999	0,110	0,024
-196,519	34,111	-0,143	0,091
-195,504	-59,669	-0,172	-0,053
-194,490	800,000	0,059	0,142
-193,475	701,415	-0,055	-0,107
-192,460	-200,000	-0,013	-0,178
-191,446	-70,358	-0,083	-0,023
-190,431	-169,356	0,095	-0,002
-189,417	89,491	-0,096	0,078
-188,402	143,138	0,075	0,072
-187,387	192,511	-0,083	0,091
-186,373	-200,000	0,006	-0,163
-185,358	613,697	-0,016	-0,029
-184,344	161,278	-0,067	0,069
-183,329	-94,857	-0,122	-0,024
-182,315	-200,000	-0,006	0,036
-181,300	185,446	0,028	0,030
-180,285	163,258	-0,049	-0,050
-179,271	-200,000	-0,036	-0,180
-178,256	-2,415	-0,074	0,038
-177,242	122,698	-0,065	-0,060
-176,227	-200,000	0,025	0,100
-175,212	-23,953	-0,079	-0,034
-174,198	0,495	-0,046	0,024
-173,183	-200,000	0,014	0,061
-172,169	800,000	-0,023	0,051
-171,154	113,700	0,084	-0,074
-170,139	800,000	0,012	-0,027
-169,125	-200,000	-0,003	-0,164
-168,110	-36,756	-0,073	0,028
-167,096	-79,742	0,110	0,027
-166,081	82,786	0,059	0,047
-165,066	-200,000	-0,053	-0,225
-164,052	-42,989	0,036	0,013
-163,037	200,219	0,087	0,097
-162,023	-70,211	0,092	-0,025
-161,008	169,648	-0,040	-0,041
-159,993	87,880	0,084	-0,068
-158,979	-103,982	-0,059	0,010
-157,964	14,156	-0,113	0,064
-156,950	-183,031	-0,070	-0,001
-155,935	-200,000	0,003	-0,041
-154,920	89,229	0,101	0,082
-153,906	292,268	0,066	0,088
-152,891	-21,240	-0,165	-0,073
-151,877	-200,000	0,010	-0,037
-150,862	-200,000	0,040	0,209
-149,847	0,171	-0,029	-0,015
-148,833	-200,000	-0,016	0,130
-147,818	60,480	0,173	-0,124
-146,804	-200,000	0,015	0,079
-145,789	800,000	0,056	0,178
-144,775	15,209	0,007	-0,004
-143,760	-200,000	-0,014	-0,096
-142,745	-29,774	-0,164	0,068
-141,731	-42,677	0,018	0,007
-140,716	-34,347	0,088	0,035
-139,702	-50,869	-0,040	-0,014
-138,687	120,329	0,081	-0,074
-137,672	319,193	-0,007	-0,009
-136,658	-200,000	-0,002	0,135
-135,643	-142,579	0,066	-0,005
-134,629	182,565	-0,060	0,064
-133,614	-200,000	-0,002	0,006
-132,599	-200,000	-0,002	-0,060
-131,585	-156,857	-0,044	-0,002
-130,570	-159,681	-0,003	-0,000
-129,556	85,802	-0,058	-0,047
-128,541	-200,000	-0,019	-0,294
-127,526	800,000	-0,042	-0,122
-126,512	-200,000	-0,006	0,060
-125,497	472,386	0,025	0,042
-124,483	7,708	-0,078	0,042
-123,468	-200,000	0,015	0,093
-122,453	800,000	-0,027	0,056
-121,439	-73,340	0,093	-0,025
-120,424	800,000	0,036	-0,083
-119,410	322,621	-0,027	-0,038
-118,395	-62,883	0,076	-0,023
-117,380	-36,744	-0,162	0,063
-116,366	-52,522	-0,083	0,028
-115,351	-94,764	-0,077	-0,015
-114,337	-106,140	-0,091	0,015
-113,322	4,176	0,054	-0,029
-112,307	-48,474	0,049	0,017
-111,293	800,000	0,040	0,118
-110,278	800,000	0,019	0,053
-109,264	-200,000	0,027	0,097
-108,249	5,631	0,057	-0,030
-107,234	65,160	0,112	-0,082
-106,220	-200,000	-0,007	-0,027
-105,205	-112,554	0,155	0,022
-104,191	-23,822	0,083	0,036
-103,176	-200,000	0,011	-0,056
-102,162	179,025	0,011	-0,012
-101,147	-86,301	-0,045	-0,010
-100,132	-58,122	-0,018	-0,006
-99,118	766,714	-0,020	0,039
-98,103	-200,000	0,004	-0,124
-97,089	-75,552	0,142	0,036
-96,074	111,709	0,078	0,069
-95,059	26,230	-0,034	0,021
-94,045	285,495	0,132	0,173
-93,030	-81,489	-0,092	-0,022
-92,016	800,000	-0,050	0,108
-91,001	-9,133	-0,037	0,018
-89,986	-147,755	0,073	-0,004
-88,972	-135,281	-0,090	-0,008
-87,957	333,428	-0,017	-0,024
-86,943	350,176	0,050	-0,071
-85,928	-17,999	-0,128	-0,058
-84,913	-200,000	-0,010	-0,036
-83,899	800,000	-0,045	0,101
-82,884	36,697	0,034	-0,022
-81,870	-200,000	0,022	-0,070
-80,855	-177,127	-0,036	0,001
-79,840	13,858	-0,063	0,036
-78,826	-200,000	-0,022	-0,074
-77,811	258,973	-0,114	-0,143
-76,797	-149,977	-0,103	-0,006
-75,782	158,778	0,094	0,095
-74,767	-44,408	0,065	0,023
-73,753	622,396	-0,057	0,104
-72,738	547,533	0,060	-0,105
-71,724	-181,304	-0,083	0,001
-70,709	-200,000	0,014	-0,171
-69,694	-200,000	-0,021	-0,070
-68,680	-77,074	0,037	-0,009
-67,665	-200,000	-0,004	-0,088
-66,651	332,043	-0,019	0,027
-65,636	-20,022	0,086	0,038
-64,622	-97,560	-0,165	-0,031
-63,607	-113,997	0,053	0,007
-62,592	-200,000	-0,017	0,086
-61,578	-200,000	0,009	0,089
-60,563	-200,000	-0,005	0,060
-59,549	-200,000	0,018	0,113
-58,534	-146,180	-1,323	-0,083
-57,519	800,000	-0,736	-1,520
-56,505	-200,000	-0,939	-4,436
-55,490	-6,976	0,526	-0,258
-54,476	800,000	4,813	11,455
-53,461	-200,000	13,867	250,482
-52,446	-200,000	691,830	2235,909
-51,432	581,729	1620,547	2891,050
-50,417	117,952	1629,627	1454,598
-49,403	73,633	1284,524	973,952
-48,388	37,741	1021,176	655,699
-47,373	24,025	979,373	583,914
-46,359	23,228	968,919	575,053
-45,344	22,199	964,493	569,056
-44,330	22,158	963,194	568,132
-43,315	22,045	961,739	566,887
-42,300	22,063	960,558	566,225
-41,286	22,021	959,806	565,624
-40,271	22,074	958,533	565,024
-39,257	22,001	957,724	564,288
-38,242	22,022	956,762	563,765
-37,227	22,061	955,877	563,349
-36,213	21,999	955,195	562,724
-35,198	22,030	954,252	562,244
-34,184	22,045	953,615	561,897
-33,169	21,963	952,865	561,167
-32,154	22,085	951,775	560,897
-31,140	22,051	950,901	560,249
-30,125	22,053	950,180	559,808
-29,111	22,076	949,235	559,304
-28,096	22,018	948,690	558,775
-27,082	22,095	947,940	558,558
-26,067	22,102	947,098	558,061
-25,052	21,997	946,513	557,360
-24,038	22,016	945,783	556,967
-23,023	22,004	945,247	556,592
-22,009	22,034	944,472	556,208
-20,994	22,022	943,838	555,776
-19,979	22,015	943,363	555,451
-18,965	22,045	942,678	555,121
-17,950	22,096	942,023	554,874
-16,936	21,946	941,386	554,001
-15,921	21,962	940,554	553,542
-14,906	21,853	940,071	552,889
-13,892	21,932	939,191	552,600
-12,877	21,922	938,622	552,210
-11,863	21,828	938,164	551,621
-10,848	21,852	937,684	551,395
-9,833	21,957	937,183	551,409
-8,819	21,921	936,543	550,897
-7,804	21,915	935,797	550,420
-6,790	21,937	935,177	550,100
-5,775	21,989	934,627	549,919
-4,760	21,888	934,106	549,274
-3,746	21,880	933,482	548,858
-2,731	21,834	932,664	548,211
-1,717	21,724	932,131	547,531
-0,702	21,772	931,216	547,123
0,313	21,518	930,793	546,903
1,327	24,112	928,314	553,519
2,342	31,814	806,617	501,747
3,356	26,842	507,193	307,023
4,371	2,545	372,162	194,536
5,386	-0,475	354,937	181,833
6,400	-1,970	348,709	176,833
7,415	-3,029	345,904	174,134
8,429	-3,082	344,330	173,262
9,444	-3,170	343,402	172,676
10,459	-3,092	342,682	172,392
11,473	-2,964	341,931	172,149
12,488	-2,879	341,735	172,135
13,502	-2,812	341,120	171,888
14,517	-2,867	340,453	171,472
15,531	-3,123	340,024	170,940
16,546	-3,029	339,494	170,770
17,561	-2,997	339,073	170,579
18,575	-3,058	338,596	170,253
19,590	-3,128	338,289	170,002
20,604	-3,014	337,947	169,948
21,619	-3,001	337,556	169,751
22,634	-3,182	337,143	169,318
23,648	-3,147	336,815	169,179
24,663	-3,208	336,532	168,951
25,677	-3,244	336,322	168,789
26,692	-3,288	336,020	168,572
27,707	-3,088	335,630	168,592
28,721	-3,208	335,353	168,299
29,736	-3,087	334,891	168,192
30,750	-3,130	334,718	168,040
31,765	-3,173	334,343	167,788
32,780	-3,257	334,157	167,583
33,794	-3,154	333,872	167,543
34,809	-3,131	333,623	167,430
35,823	-3,188	333,207	167,141
36,838	-3,207	332,958	166,979
37,853	-3,151	332,491	166,794
38,867	-3,210	332,498	166,715
39,882	-3,233	332,218	166,534
40,896	-3,075	331,882	166,531
41,911	-3,283	331,620	166,148
42,926	-3,270	331,326	166,001
43,940	-3,232	330,966	165,848
44,955	-3,241	330,744	165,712
45,969	-3,247	330,432	165,534
46,984	-3,551	330,199	165,059
47,999	-3,532	329,930	164,931
49,013	-3,604	329,735	164,737
50,028	-3,753	329,455	164,413
51,042	-3,636	329,140	164,374
52,057	-3,749	328,911	164,117
53,071	-3,585	328,573	164,118
54,086	-3,629	328,438	163,987
55,101	-3,606	328,062	163,811
56,115	-3,465	327,911	163,880
57,130	-3,314	327,714	163,936
58,144	-3,183	327,549	163,985
59,159	-3,007	327,144	163,966
60,174	-2,996	326,938	163,860
61,188	-3,066	326,682	163,639
62,203	-3,099	326,475	163,484
63,217	-3,123	326,221	163,315
64,232	-3,108	325,914	163,164
65,247	-2,962	325,641	163,175
66,261	-3,042	325,482	162,991
67,276	-3,109	324,990	162,656
68,290	-3,239	324,853	162,429
69,305	-3,360	324,632	162,169
70,320	-3,239	324,260	162,104
71,334	-3,201	324,021	162,012
72,349	-3,053	323,979	162,140
73,363	-3,114	323,830	161,983
74,378	-3,208	323,349	161,624
75,393	-3,116	323,098	161,586
76,407	-3,043	322,839	161,523
77,422	-3,179	322,759	161,318
78,436	-3,019	322,282	161,242
79,451	-3,087	322,106	161,065
80,466	-3,205	321,870	160,802
81,480	-3,168	321,504	160,646
82,495	-3,263	321,158	160,355
83,509	-3,209	320,993	160,317
84,524	-3,235	320,934	160,245
85,539	-3,450	320,631	159,844
86,553	-3,463	320,356	159,678
87,568	-3,442	320,073	159,545
88,582	-3,395	319,924	159,508
89,597	-3,263	319,577	159,466
90,611	-3,225	319,499	159,454
91,626	-3,228	319,300	159,337
92,641	-3,216	319,007	159,190
93,655	-3,153	318,778	159,130
94,670	-3,198	318,529	158,943
95,684	-3,201	318,212	158,767
96,699	-3,154	318,063	158,729
97,714	-3,330	317,840	158,413
98,728	-3,286	317,481	158,268
99,743	-3,283	317,287	158,160
100,757	-3,405	316,971	157,856
101,772	-3,385	316,777	157,767
102,787	-3,375	316,600	157,676
103,801	-3,417	316,502	157,567
104,816	-3,257	316,083	157,518
105,830	-3,259	315,952	157,436
106,845	-3,118	315,791	157,494
107,860	-3,092	315,510	157,368
108,874	-3,244	315,289	157,080
109,889	-3,147	314,886	156,970
110,903	-3,348	314,751	156,672
111,918	-3,311	314,551	156,599
112,933	-3,371	314,464	156,476
113,947	-3,214	314,223	156,511
114,962	-3,160	313,964	156,425
115,976	-3,168	313,734	156,288
116,991	-3,176	313,394	156,097
118,006	-3,262	313,225	155,907
119,020	-3,208	313,057	155,867
120,035	-3,136	312,941	155,872
121,049	-3,096	312,693	155,777
122,064	-3,224	312,482	155,522
123,079	-3,216	312,187	155,370
124,093	-3,150	311,948	155,307
125,108	-3,334	311,873	155,061
126,122	-3,197	311,317	154,916
127,137	-3,456	311,227	154,582
128,151	-3,464	311,033	154,463
129,166	-3,303	310,912	154,560
130,181	-3,359	310,593	154,329
131,195	-3,436	310,358	154,116
132,210	-3,252	310,252	154,244
133,224	-3,162	309,927	154,165
134,239	-3,236	309,758	153,989
135,254	-3,252	309,615	153,887
136,268	-3,314	309,271	153,637
137,283	-3,485	309,090	153,353
138,297	-3,459	308,747	153,197
139,312	-3,195	308,472	153,324
140,327	-3,051	308,407	153,429
141,341	-3,005	308,224	153,373
142,356	-2,869	308,092	153,435
143,370	-2,870	307,913	153,332
144,385	-2,800	307,723	153,297
145,400	-3,015	307,525	152,960
146,414	-2,932	307,208	152,875
147,429	-2,950	306,990	152,734
148,443	-2,921	306,777	152,645
149,458	-2,892	306,623	152,585
150,473	-2,867	306,389	152,481
151,487	-3,034	306,241	152,220
152,502	-2,988	305,927	152,097
153,516	-2,964	305,765	152,029
154,531	-2,923	305,544	151,948
155,546	-2,940	305,486	151,888
156,560	-3,054	305,295	151,661
157,575	-3,099	304,812	151,361
158,589	-2,988	304,410	151,263
159,604	-2,839	304,386	151,392
160,619	-3,081	304,471	151,169
161,633	-3,147	304,150	150,929
162,648	-2,925	304,007	151,074
163,662	-3,111	303,627	150,679
164,677	-3,170	303,469	150,527
165,692	-3,127	303,410	150,528
166,706	-2,854	303,070	150,627
167,721	-2,958	302,934	150,440
168,735	-2,925	302,805	150,396
169,750	-2,726	302,556	150,463
170,764	-2,783	302,364	150,296
171,779	-2,728	302,300	150,307
172,794	-2,753	301,995	150,116
173,808	-3,020	301,723	149,694
174,823	-3,275	301,396	149,258
175,837	-3,277	301,102	149,097
176,852	-3,008	300,975	149,296
177,867	-3,019	300,958	149,263
178,881	-2,800	300,828	149,408
179,896	-2,762	300,652	149,346
180,910	-2,937	300,468	149,063
181,925	-2,850	300,235	149,023
182,940	-2,814	299,995	148,927
183,954	-2,851	299,678	148,718
184,969	-2,917	299,523	148,561
185,983	-2,861	299,397	148,542
186,998	-2,921	299,135	148,339
188,013	-2,722	298,837	148,379
189,027	-2,961	298,785	148,098
190,042	-2,695	298,480	148,203
191,056	-2,616	298,370	148,215
192,071	-2,810	298,277	147,959
193,086	-2,749	298,037	147,889
194,100	-2,860	297,830	147,661
195,115	-2,872	297,498	147,471
196,129	-2,872	297,344	147,381
197,144	-2,802	297,175	147,355
198,159	-2,857	296,835	147,118
199,173	-2,922	296,880	147,062
200,188	-2,677	296,597	147,155
201,202	-2,970	296,338	146,718
202,217	-3,084	295,874	146,362
203,232	-3,150	295,737	146,215
204,246	-3,014	295,594	146,267
205,261	-2,781	295,443	146,413
206,275	-2,809	295,252	146,277
207,290	-2,705	295,095	146,290
208,304	-2,711	294,893	146,170
209,319	-2,813	294,636	145,928
210,334	-2,894	294,384	145,711
211,348	-2,843	294,301	145,707
212,363	-2,791	294,026	145,609
213,377	-2,698	293,906	145,630
214,392	-2,844	293,751	145,394
215,407	-2,993	293,551	145,135
216,421	-3,086	293,259	144,885
217,436	-2,981	293,031	144,864
218,450	-3,053	292,844	144,687
219,465	-2,927	292,684	144,720
220,480	-3,105	292,580	144,479
221,494	-2,973	292,311	144,464
222,509	-3,097	292,195	144,271
223,523	-2,958	292,002	144,301
224,538	-2,981	291,899	144,214
225,553	-2,894	291,632	144,155
226,567	-2,885	291,488	144,080
227,582	-2,838	291,270	144,005
228,596	-2,756	291,171	144,024
229,611	-2,782	290,895	143,849
230,626	-2,790	290,683	143,724
231,640	-3,038	290,414	143,335
232,655	-3,138	290,062	143,051
233,669	-3,095	289,900	143,000
234,684	-3,334	289,848	142,728
235,699	-3,221	289,595	142,700
236,713	-3,350	289,515	142,523
237,728	-3,011	289,239	142,705
238,742	-3,061	289,289	142,668
239,757	-3,123	289,020	142,462
240,772	-2,942	288,745	142,490
241,786	-3,088	288,649	142,287
242,801	-3,072	288,400	142,168
243,815	-2,975	288,145	142,124
244,830	-2,951	288,013	142,069
245,844	-3,047	287,797	141,857
246,859	-3,052	287,625	141,755
247,874	-3,013	287,459	141,698
248,888	-2,915	287,327	141,715
249,903	-2,873	287,159	141,660
250,917	-2,727	286,935	141,678
251,932	-2,723	286,945	141,675
252,947	-2,118	286,986	142,267
253,961	-2,380	286,408	141,716
254,976	-1,772	286,930	142,549
255,990	1,244	287,655	145,815
257,005	2,195	288,136	146,966
258,020	3,399	288,557	148,334
259,034	3,430	288,191	148,162
260,049	3,487	288,001	148,106
261,063	3,324	287,607	147,734
262,078	3,679	287,469	147,991
263,093	4,146	287,681	148,538
264,107	4,294	287,488	148,567
265,122	4,344	287,259	148,484
266,136	4,294	287,271	148,429
267,151	4,294	286,968	148,259
268,166	4,160	286,631	147,943
269,180	4,200	286,522	147,913
270,195	4,148	286,420	147,797
271,209	4,054	286,222	147,591
272,224	3,809	286,014	147,236
273,239	3,810	285,839	147,134
274,253	3,815	285,555	146,979
275,268	4,168	285,562	147,308
276,282	4,403	285,220	147,341
277,297	4,120	285,183	147,040
278,312	4,496	285,030	147,307
279,326	4,247	284,739	146,906
280,341	4,086	284,529	146,631
281,355	3,995	284,370	146,449
282,370	3,742	284,175	146,095
283,384	3,913	283,916	146,112
284,399	3,968	283,750	146,065
285,414	3,822	283,524	145,797
286,428	3,827	283,566	145,811
287,443	3,576	283,123	145,331
288,457	3,640	282,872	145,251
289,472	3,629	282,831	145,206
290,487	3,684	282,499	145,075
291,501	3,501	282,113	144,691
292,516	3,349	282,039	144,497
293,530	3,333	281,966	144,431
294,545	3,815	281,888	144,832
295,560	3,807	281,736	144,735
296,574	3,698	281,355	144,423
297,589	3,756	281,227	144,400
298,603	4,071	281,254	144,696
299,618	4,075	281,047	144,580
300,633	3,833	280,985	144,308
301,647	3,819	280,688	144,130
302,662	3,996	280,408	144,139
303,676	3,617	280,262	143,697
304,691	3,289	279,963	143,223
305,706	3,320	279,636	143,072
306,720	3,377	279,517	143,052
307,735	3,169	279,392	142,781
308,749	3,526	279,217	143,011
309,764	3,466	279,173	142,921
310,779	3,265	278,858	142,559
311,793	3,203	278,668	142,391
312,808	3,397	278,409	142,427
313,822	3,264	278,280	142,225
314,837	3,235	278,077	142,082
315,852	3,235	277,754	141,904
316,866	3,251	277,727	141,892
317,881	3,376	277,649	141,956
318,895	3,282	277,319	141,687
319,910	3,165	276,962	141,384
320,925	3,127	276,853	141,281
321,939	3,272	276,912	141,432
322,954	3,483	276,755	141,534
323,968	3,603	276,539	141,522
324,983	3,744	276,483	141,611
325,997	3,833	276,146	141,507
327,012	3,653	276,171	141,341
328,027	3,658	275,943	141,216
329,041	3,618	275,661	141,024
330,056	3,552	275,628	140,933
331,070	3,341	275,384	140,602
332,085	3,242	275,249	140,430
333,100	3,399	275,065	140,468
334,114	3,515	274,785	140,418
335,129	3,272	274,434	140,004
336,143	3,506	274,529	140,254
337,158	3,860	274,346	140,472
338,173	3,801	274,200	140,330
339,187	3,572	273,875	139,942
340,202	3,585	273,780	139,894
341,216	3,694	273,664	139,921
342,231	3,546	273,607	139,745
343,246	3,562	273,242	139,560
344,260	3,396	273,200	139,375
345,275	3,657	273,050	139,524
346,289	3,976	272,952	139,751
347,304	3,864	272,763	139,540
348,319	3,603	272,448	139,130
349,333	3,809	272,259	139,208
350,348	4,025	272,142	139,331
351,362	3,858	272,062	139,127
352,377	3,813	271,906	138,993
353,392	3,886	271,775	138,980
354,406	3,916	271,676	138,944
355,421	191,160	1330,358	1406,918
356,435	154,405	1459,426	1407,032
