DTS Sentinel unit serial number:	SN410029Multiplexer serial number:	ORYXHardware model number:	OX2-SRSoftware version number:	ORYX F/W v4,00 Oryx Data Collector v3.7.2.0data status	okinstallation	B4 Nyhavnadifferential loss correction	single-endedforward channel	channel 2reverse channel	N/Adate	2023/12/19time	10:20:13forward acquisition time	300,00reverse acquisition time	0,00gamma	499,1914k internal	0,3128k external	0,3128temperature offset calibration	1,0000default loss term (dB/km)	0,3820temperature slope calibration	1,0000multiplexer offset coefficient	1,0000multiplexer slope coefficient	1,0000fibre end	0,00T internal ref (°C)	20,13T ext. ref 1 (°C)	4,88T ext. ref 2 (°C)	4,81length (m)	temperature (°C)	Stokes	anti-Stokes-744,400	53,353	0,067	-0,047
-743,385	-57,218	-0,246	0,080
-742,371	120,613	0,049	-0,046
-741,356	-93,344	-0,242	0,050
-740,342	-200,000	-0,024	-0,116
-739,327	137,177	-0,224	0,218
-738,312	800,000	-0,022	-0,054
-737,298	-194,368	-0,153	-0,001
-736,283	343,087	0,097	-0,142
-735,269	683,042	-0,104	0,203
-734,254	43,646	0,136	-0,092
-733,239	-119,494	-0,376	-0,048
-732,225	75,827	0,105	0,082
-731,210	-200,000	-0,006	0,065
-730,196	-70,502	-0,172	-0,048
-729,181	331,136	-0,038	-0,055
-728,167	-27,743	0,105	0,045
-727,152	178,235	-0,033	-0,036
-726,137	169,436	-0,060	0,064
-725,123	62,845	-0,015	-0,011
-724,108	-200,000	-0,051	-0,179
-723,094	8,975	-0,155	-0,087
-722,079	-200,000	0,008	-0,098
-721,064	-120,761	-0,193	-0,024
-720,050	-72,644	0,070	-0,019
-719,035	2,961	-0,078	-0,042
-718,021	32,214	0,104	-0,067
-717,006	184,645	-0,116	0,128
-715,991	-62,171	-0,230	-0,071
-714,977	18,695	-0,078	-0,046
-713,962	-47,472	-0,165	-0,059
-712,948	-73,970	-0,047	0,013
-711,933	-126,330	-0,098	-0,011
-710,918	-200,000	-0,021	-0,117
-709,904	482,067	-0,061	-0,103
-708,889	-200,000	-0,046	-0,166
-707,875	344,876	-0,108	-0,158
-706,860	377,575	0,085	-0,130
-705,845	164,992	-0,028	-0,030
-704,831	-200,000	-0,002	0,066
-703,816	800,000	0,030	0,076
-702,802	-55,345	0,054	-0,018
-701,787	149,785	0,026	0,026
-700,772	800,000	-0,028	0,084
-699,758	1,145	-0,162	0,086
-698,743	-190,578	-0,073	-0,001
-697,729	-7,828	-0,049	0,024
-696,714	-200,000	-0,003	0,062
-695,699	-200,000	-0,011	-0,093
-694,685	-200,000	-0,034	-0,168
-693,670	52,927	-0,093	-0,066
-692,656	-200,000	-0,001	-0,026
-691,641	-28,831	0,044	0,019
-690,627	99,997	-0,059	-0,050
-689,612	-74,338	0,058	-0,015
-688,597	-200,000	-0,024	-0,124
-687,583	800,000	0,045	-0,141
-686,568	800,000	0,047	0,127
-685,554	-25,514	0,103	0,045
-684,539	-124,322	-0,011	0,001
-683,524	800,000	-0,083	0,176
-682,510	-8,044	-0,063	-0,032
-681,495	-200,000	-0,030	-0,185
-680,481	-200,000	0,004	-0,053
-679,466	211,138	-0,102	-0,119
-678,451	800,000	0,036	-0,076
-677,437	120,383	0,104	-0,096
-676,422	-200,000	-0,026	0,100
-675,408	-200,000	0,008	0,137
-674,393	-118,200	-0,125	0,016
-673,378	652,413	-0,009	-0,017
-672,364	6,238	-0,074	0,040
-671,349	-95,632	-0,079	-0,016
-670,335	-200,000	-0,015	-0,163
-669,320	757,535	0,028	-0,057
-668,305	5,237	-0,079	0,043
-667,291	-45,850	-0,118	-0,043
-666,276	105,555	0,072	-0,063
-665,262	108,481	-0,212	-0,188
-664,247	304,958	0,015	0,020
-663,232	464,915	-0,066	-0,111
-662,218	-86,356	0,110	0,025
-661,203	139,718	0,064	0,062
-660,189	800,000	-0,011	-0,028
-659,174	-49,879	-0,098	-0,034
-658,159	301,779	0,101	0,139
-657,145	-200,000	-0,007	-0,061
-656,130	-39,020	-0,048	0,019
-655,116	103,804	0,085	-0,074
-654,101	21,645	-0,099	-0,060
-653,086	-13,271	0,071	0,034
-652,072	92,957	-0,070	0,058
-651,057	800,000	-0,020	-0,042
-650,043	-125,216	-0,204	-0,023
-649,028	533,620	0,001	-0,002
-648,014	800,000	0,032	0,102
-646,999	5,344	0,126	0,069
-645,984	586,012	-0,015	-0,027
-644,970	662,890	0,030	-0,058
-643,955	159,633	-0,138	-0,143
-642,941	-200,000	-0,002	-0,059
-641,926	-25,340	-0,061	-0,027
-640,911	-42,031	0,100	-0,038
-639,897	1,856	0,074	-0,040
-638,882	800,000	-0,024	-0,053
-637,868	-153,102	0,025	0,001
-636,853	-131,338	-0,139	0,013
-635,838	404,891	-0,029	-0,045
-634,824	-200,000	0,031	-0,144
-633,809	-200,000	0,000	0,040
-632,795	-200,000	0,023	0,152
-631,780	272,433	-0,073	0,096
-630,765	-51,168	0,074	-0,025
-629,751	40,269	-0,127	0,084
-628,736	-164,801	-0,128	0,004
-627,722	-91,179	-0,099	-0,021
-626,707	-61,056	0,104	0,032
-625,692	-93,636	0,113	0,023
-624,678	-35,042	-0,111	-0,045
-623,663	116,988	0,052	0,047
-622,649	-32,271	0,151	-0,062
-621,634	-29,984	-0,101	0,043
-620,619	-200,000	-0,017	-0,077
-619,605	-29,800	-0,122	0,051
-618,590	1,302	0,073	0,039
-617,576	-200,000	0,000	0,070
-616,561	-127,053	-0,129	0,014
-615,546	54,654	-0,022	-0,016
-614,532	-82,092	-0,108	-0,026
-613,517	92,871	-0,100	-0,083
-612,503	175,237	-0,088	-0,094
-611,488	800,000	0,084	0,189
-610,474	-200,000	0,004	-0,117
-609,459	-37,989	-0,047	0,018
-608,444	-182,406	-0,110	0,001
-607,430	-111,366	-0,131	-0,020
-606,415	2,928	-0,091	-0,049
-605,401	661,295	0,057	0,110
-604,386	173,159	0,119	0,127
-603,371	800,000	-0,036	-0,103
-602,357	-131,163	-0,039	-0,004
-601,342	-29,328	0,088	-0,037
-600,328	753,158	-0,009	-0,018
-599,313	-200,000	0,007	-0,116
-598,298	-200,000	0,005	-0,075
-597,284	97,946	-0,061	-0,052
-596,269	800,000	-0,012	0,034
-595,255	-20,395	0,064	0,029
-594,240	-200,000	-0,033	-0,120
-593,225	800,000	-0,013	-0,033
-592,211	21,312	-0,067	0,040
-591,196	-39,064	-0,074	-0,029
-590,182	148,832	-0,011	-0,011
-589,167	5,471	0,038	0,021
-588,152	-200,000	0,008	-0,041
-587,138	800,000	0,023	0,048
-586,123	-5,230	-0,035	-0,018
-585,109	94,517	-0,120	-0,101
-584,094	36,201	0,077	0,050
-583,079	-200,000	-0,020	-0,076
-582,065	-9,417	-0,062	0,030
-581,050	-200,000	0,001	-0,016
-580,036	67,016	0,052	0,039
-579,021	-84,557	-0,093	-0,022
-578,006	-72,161	-0,057	-0,015
-576,992	76,195	0,112	-0,087
-575,977	800,000	-0,100	-0,249
-574,963	-138,040	0,105	-0,009
-573,948	29,891	0,066	0,042
-572,934	539,602	0,059	0,103
-571,919	660,286	0,052	-0,099
-570,904	800,000	0,014	-0,030
-569,890	-9,716	0,081	-0,040
-568,875	-200,000	-0,006	0,035
-567,861	112,805	0,140	-0,125
-566,846	-6,519	-0,017	-0,009
-565,831	194,224	-0,123	0,138
-564,817	82,486	0,038	-0,031
-563,802	-88,376	-0,096	-0,021
-562,788	296,960	-0,026	0,036
-561,773	29,402	-0,040	0,025
-560,758	196,497	-0,087	0,098
-559,744	-200,000	0,015	0,149
-558,729	-200,000	-0,009	-0,050
-557,715	81,518	0,075	-0,060
-556,700	636,163	0,040	-0,076
-555,685	-200,000	-0,000	0,042
-554,671	691,384	-0,071	-0,137
-553,656	233,395	0,038	-0,046
-552,642	319,538	-0,034	0,048
-551,627	-188,343	0,005	0,000
-550,612	-200,000	-0,019	0,084
-549,598	-152,215	-0,186	-0,010
-548,583	800,000	0,013	0,038
-547,569	-96,597	0,039	0,008
-546,554	215,856	0,044	0,051
-545,539	-29,321	0,091	0,038
-544,525	-18,953	0,034	0,016
-543,510	306,076	0,045	0,062
-542,496	-57,662	-0,077	-0,025
-541,481	174,160	-0,024	0,026
-540,466	-42,864	-0,107	-0,040
-539,452	9,177	0,029	-0,016
-538,437	-200,000	0,014	-0,098
-537,423	-123,172	-0,102	0,012
-536,408	450,718	-0,044	-0,072
-535,393	82,151	-0,053	0,043
-534,379	-200,000	0,011	0,040
-533,364	800,000	0,079	-0,161
-532,350	221,432	-0,075	-0,090
-531,335	-200,000	-0,029	0,131
-530,321	-200,000	0,003	-0,027
-529,306	-97,822	0,005	-0,001
-528,291	170,743	-0,065	-0,069
-527,277	-4,905	0,067	0,034
-526,262	-99,002	-0,114	-0,021
-525,248	-8,718	-0,025	0,012
-524,233	-200,000	0,017	0,060
-523,218	349,016	-0,036	-0,052
-522,204	800,000	-0,033	-0,095
-521,189	43,365	0,048	0,032
-520,175	-10,238	-0,051	-0,025
-519,160	-113,606	-0,122	0,017
-518,145	436,553	-0,031	-0,050
-517,131	-200,000	0,019	-0,125
-516,116	290,058	0,123	-0,165
-515,102	-170,158	0,057	-0,001
-514,087	-200,000	-0,007	0,093
-513,072	69,888	-0,138	0,105
-512,058	22,567	0,054	0,032
-511,043	669,823	0,070	0,134
-510,029	-12,766	0,088	0,042
-509,014	244,438	0,037	-0,046
-507,999	55,698	0,160	-0,114
-506,985	-200,000	0,004	0,062
-505,970	800,000	-0,013	0,040
-504,956	800,000	-0,037	-0,101
-503,941	-165,216	-0,041	-0,001
-502,926	-200,000	-0,031	-0,100
-501,912	-191,122	0,084	0,001
-500,897	109,409	0,146	0,129
-499,883	169,179	-0,094	-0,099
-498,868	528,796	-0,065	-0,114
-497,853	-68,607	-0,138	-0,039
-496,839	485,715	0,039	0,067
-495,824	533,583	0,039	-0,069
-494,810	-0,072	0,087	0,046
-493,795	46,483	-0,134	0,091
-492,781	8,388	0,029	0,016
-491,766	31,182	0,088	-0,055
-490,751	-34,367	-0,051	-0,020
-489,737	515,746	-0,081	0,139
-488,722	-200,000	-0,012	0,121
-487,708	375,892	0,061	0,092
-486,693	-53,733	-0,016	0,005
-485,678	257,504	-0,115	-0,146
-484,664	50,191	-0,136	0,094
-483,649	215,121	-0,017	-0,020
-482,635	201,753	0,104	0,118
-481,620	-200,000	0,042	0,175
-480,605	44,266	0,080	0,054
-479,591	-95,102	-0,057	-0,011
-478,576	299,934	-0,077	-0,105
-477,562	-200,000	-0,008	-0,040
-476,547	96,532	-0,075	-0,063
-475,532	-77,831	-0,101	0,025
-474,518	102,413	0,052	-0,045
-473,503	555,712	0,048	0,086
-472,489	-134,430	0,108	0,010
-471,474	-200,000	-0,016	0,111
-470,459	72,021	-0,111	-0,085
-469,445	-200,000	-0,040	-0,157
-468,430	800,000	-0,011	-0,037
-467,416	800,000	0,044	-0,107
-466,401	36,086	0,069	0,045
-465,386	-200,000	-0,009	0,069
-464,372	-200,000	-0,005	-0,085
-463,357	-136,782	-0,085	0,007
-462,343	-88,630	-0,191	0,041
-461,328	-200,000	-0,053	-0,201
-460,313	-200,000	-0,016	-0,105
-459,299	800,000	0,060	0,155
-458,284	36,238	-0,069	0,045
-457,270	190,096	-0,031	-0,034
-456,255	-102,544	-0,127	0,022
-455,241	800,000	0,013	-0,031
-454,226	-200,000	-0,039	0,168
-453,211	-107,025	-0,062	-0,010
-452,197	251,193	0,078	0,097
-451,182	-84,533	0,113	-0,026
-450,168	317,679	0,025	0,035
-449,153	800,000	0,028	-0,060
-448,138	233,522	0,026	0,032
-447,124	252,219	0,052	-0,065
-446,109	-200,000	0,023	-0,110
-445,095	-3,381	0,058	0,030
-444,080	-200,000	-0,008	0,110
-443,065	-174,351	0,053	-0,001
-442,051	139,517	-0,027	-0,027
-441,036	-40,966	-0,142	-0,054
-440,022	-68,803	-0,098	-0,028
-439,007	158,649	-0,075	-0,077
-437,992	421,379	-0,064	-0,102
-436,978	317,880	0,074	0,104
-435,963	-67,810	-0,168	0,048
-434,949	70,808	0,122	-0,093
-433,934	-43,417	0,066	0,025
-432,919	317,486	-0,062	0,087
-431,905	-53,094	-0,076	0,025
-430,890	20,442	-0,066	0,039
-429,876	-200,000	-0,018	-0,060
-428,861	800,000	0,067	0,173
-427,846	-74,710	0,085	-0,022
-426,832	648,651	0,019	0,036
-425,817	-200,000	0,010	-0,070
-424,803	-55,396	0,043	-0,014
-423,788	-66,744	0,080	-0,023
-422,773	-75,784	0,126	-0,033
-421,759	-200,000	0,015	0,049
-420,744	-118,313	0,116	-0,015
-419,730	-200,000	-0,012	0,067
-418,715	520,897	0,063	-0,110
-417,701	173,430	-0,066	0,070
-416,686	446,209	-0,045	-0,074
-415,671	40,097	0,109	-0,072
-414,657	39,114	0,078	0,051
-413,642	-97,591	0,070	0,013
-412,628	-70,619	-0,038	0,010
-411,613	800,000	-0,059	0,130
-410,598	86,423	-0,064	-0,052
-409,584	-200,000	0,010	-0,112
-408,569	-61,738	0,149	-0,046
-407,555	-125,351	-0,057	0,006
-406,540	-64,708	0,140	0,041
-405,525	86,045	-0,031	-0,025
-404,511	-200,000	-0,007	0,070
-403,496	-200,000	-0,012	-0,128
-402,482	480,352	0,025	-0,042
-401,467	762,725	0,037	-0,075
-400,452	-200,000	-0,037	0,186
-399,438	182,899	0,057	0,062
-398,423	800,000	0,006	-0,016
-397,409	217,783	-0,029	-0,034
-396,394	378,159	0,098	0,148
-395,379	-200,000	0,033	0,133
-394,365	-97,020	0,192	0,037
-393,350	226,159	-0,039	-0,047
-392,336	144,420	-0,090	0,089
-391,321	451,725	0,043	-0,070
-390,306	-119,631	0,072	-0,009
-389,292	-69,884	-0,065	0,018
-388,277	800,000	-0,037	-0,089
-387,263	-121,148	-0,077	-0,009
-386,248	461,304	-0,038	-0,062
-385,233	244,179	-0,041	0,051
-384,219	366,915	0,016	-0,023
-383,204	-81,617	-0,100	0,024
-382,190	272,137	-0,022	-0,028
-381,175	800,000	0,014	0,035
-380,160	139,672	0,096	0,093
-379,146	-60,956	0,155	0,048
-378,131	256,759	0,091	-0,115
-377,117	800,000	0,027	-0,063
-376,102	-180,279	0,106	0,002
-375,088	-98,099	-0,057	-0,011
-374,073	-116,308	0,052	0,007
-373,058	216,475	-0,075	-0,088
-372,044	79,903	0,197	0,155
-371,029	-47,061	0,143	-0,051
-370,015	800,000	0,006	0,013
-369,000	-200,000	0,009	-0,084
-367,985	132,663	0,036	-0,034
-366,971	-200,000	0,014	-0,090
-365,956	-70,092	0,083	0,023
-364,942	-138,480	0,059	-0,005
-363,927	26,747	-0,106	0,065
-362,912	287,005	-0,045	0,060
-361,898	-200,000	0,023	-0,105
-360,883	330,132	-0,092	-0,130
-359,869	-151,261	0,081	-0,004
-358,854	99,236	0,016	0,013
-357,839	-200,000	-0,000	0,005
-356,825	504,706	-0,053	0,091
-355,810	-31,346	-0,111	0,046
-354,796	441,375	-0,117	0,189
-353,781	-200,000	0,007	0,032
-352,766	-135,103	0,173	-0,015
-351,752	-92,715	0,073	-0,015
-350,737	-200,000	-0,002	-0,006
-349,723	29,794	0,105	-0,065
-348,708	320,696	-0,018	0,025
-347,693	800,000	0,046	0,130
-346,679	63,321	-0,039	-0,029
-345,664	81,209	-0,035	0,027
-344,650	177,282	-0,041	-0,044
-343,635	177,516	-0,051	-0,054
-342,620	455,768	0,058	0,094
-341,606	-116,988	-0,021	0,003
-340,591	800,000	0,053	-0,125
-339,577	175,597	-0,138	-0,147
-338,562	66,087	-0,094	-0,069
-337,548	-200,000	0,006	-0,116
-336,533	-200,000	-0,013	0,108
-335,518	800,000	0,016	-0,034
-334,504	250,935	0,123	0,154
-333,489	-200,000	0,001	-0,032
-332,475	-123,908	0,117	0,013
-331,460	33,993	-0,121	-0,077
-330,445	800,000	-0,028	0,059
-329,431	26,822	0,067	-0,041
-328,416	608,120	0,016	-0,029
-327,402	203,349	0,072	-0,081
-326,387	33,190	0,091	-0,058
-325,372	800,000	-0,074	-0,170
-324,358	-200,000	0,049	-0,202
-323,343	380,397	-0,044	0,066
-322,329	60,164	0,063	0,045
-321,314	-0,816	0,074	0,038
-320,299	-200,000	-0,000	-0,057
-319,285	245,208	-0,100	-0,123
-318,270	661,799	-0,033	-0,063
-317,256	307,738	0,023	0,032
-316,241	252,014	-0,045	0,056
-315,226	675,845	0,103	-0,197
-314,212	-103,489	-0,029	-0,005
-313,197	74,251	0,083	0,064
-312,183	131,772	0,136	-0,128
-311,168	180,370	0,045	-0,048
-310,153	-200,000	0,010	0,038
-309,139	10,178	-0,090	0,050
-308,124	-89,699	0,040	0,008
-307,110	-63,054	0,153	0,046
-306,095	-43,256	0,057	-0,021
-305,080	771,620	-0,065	0,130
-304,066	-200,000	0,001	-0,012
-303,051	43,285	0,124	-0,083
-302,037	139,034	0,087	-0,083
-301,022	24,327	0,085	-0,051
-300,008	653,605	0,035	0,065
-298,993	7,669	0,117	0,064
-297,978	-200,000	0,000	0,096
-296,964	159,470	-0,066	-0,067
-295,949	53,150	-0,098	-0,069
-294,935	-40,692	-0,065	-0,024
-293,920	238,058	0,057	-0,069
-292,905	-60,592	0,102	-0,031
-291,891	800,000	-0,076	0,221
-290,876	194,408	-0,078	0,087
-289,862	332,220	0,095	0,134
-288,847	-40,456	-0,097	0,037
-287,832	270,232	0,026	-0,034
-286,818	800,000	-0,036	0,087
-285,803	-126,137	0,075	-0,008
-284,789	172,427	0,020	0,021
-283,774	484,428	0,074	0,123
-282,759	800,000	0,050	0,158
-281,745	502,196	-0,022	-0,037
-280,730	95,378	-0,082	-0,069
-279,716	683,688	0,019	-0,037
-278,701	379,022	0,045	0,068
-277,686	478,512	0,061	-0,102
-276,672	308,267	0,087	0,119
-275,657	165,010	0,135	0,139
-274,643	-200,000	-0,031	-0,121
-273,628	-200,000	-0,008	-0,063
-272,613	800,000	-0,028	-0,067
-271,599	59,043	0,126	-0,091
-270,584	447,064	0,038	0,062
-269,570	2,125	0,021	-0,011
-268,555	-145,503	0,107	0,007
-267,540	-48,346	-0,089	0,031
-266,526	-172,396	-0,110	-0,003
-265,511	199,301	0,054	0,061
-264,497	-69,629	-0,154	0,043
-263,482	257,966	-0,093	0,117
-262,467	-179,698	-0,110	0,002
-261,453	538,326	0,018	-0,031
-260,438	220,496	0,019	-0,023
-259,424	271,700	0,065	-0,083
-258,409	299,416	-0,085	0,115
-257,395	214,573	-0,065	-0,076
-256,380	800,000	0,026	0,080
-255,365	-200,000	0,033	0,111
-254,351	-116,622	-0,045	0,006
-253,336	-60,213	-0,096	-0,030
-252,322	132,974	-0,123	-0,116
-251,307	-140,914	0,067	0,005
-250,292	36,391	-0,057	-0,037
-249,278	-60,759	0,116	0,036
-248,263	-63,635	0,030	0,009
-247,249	-36,233	0,082	0,032
-246,234	59,499	-0,136	-0,098
-245,219	800,000	-0,043	-0,122
-244,205	-200,000	0,013	-0,053
-243,190	476,635	-0,044	0,072
-242,176	-7,705	0,157	-0,077
-241,161	-40,583	0,091	0,034
-240,146	-74,243	-0,165	0,043
-239,132	800,000	0,033	-0,099
-238,117	800,000	0,037	0,096
-237,103	559,491	-0,068	0,120
-236,088	-200,000	0,044	-0,175
-235,073	76,151	-0,070	-0,054
-234,059	-200,000	0,009	-0,029
-233,044	382,243	0,027	0,041
-232,030	57,620	0,140	0,100
-231,015	9,305	-0,136	-0,075
-230,000	-200,000	0,040	-0,156
-228,986	117,789	0,076	-0,068
-227,971	800,000	0,022	0,069
-226,957	-35,101	0,100	0,040
-225,942	-29,475	-0,110	0,046
-224,927	-200,000	-0,001	0,049
-223,913	-11,291	-0,110	-0,053
-222,898	800,000	0,052	0,139
-221,884	371,139	0,077	0,114
-220,869	27,997	0,042	-0,026
-219,855	800,000	-0,045	-0,135
-218,840	279,121	0,045	0,059
-217,825	-200,000	0,016	0,056
-216,811	199,118	-0,038	-0,043
-215,796	137,930	-0,148	-0,142
-214,782	-135,288	0,100	-0,009
-213,767	-200,000	0,019	0,104
-212,752	-200,000	-0,013	-0,132
-211,738	-63,754	0,237	-0,070
-210,723	-113,225	0,133	-0,019
-209,709	-200,000	0,002	0,050
-208,694	422,999	-0,051	-0,080
-207,679	70,584	-0,088	0,067
-206,665	6,057	-0,020	-0,011
-205,650	131,738	-0,097	0,091
-204,636	-200,000	-0,008	0,043
-203,621	-85,766	0,126	0,028
-202,606	-75,731	-0,093	0,024
-201,592	-116,763	-0,173	0,023
-200,577	228,085	0,053	-0,063
-199,563	800,000	-0,006	0,015
-198,548	491,414	0,048	-0,080
-197,533	-27,221	0,078	0,033
-196,519	0,611	-0,188	0,098
-195,504	-180,136	-0,042	0,001
-194,490	167,183	-0,058	-0,060
-193,475	380,501	-0,040	0,060
-192,460	-115,702	-0,086	-0,012
-191,446	800,000	-0,038	-0,079
-190,431	-200,000	-0,007	-0,096
-189,417	-71,637	0,104	-0,028
-188,402	-116,893	-0,166	0,022
-187,387	70,739	-0,108	0,082
-186,373	-120,420	0,093	0,011
-185,358	-200,000	-0,009	0,074
-184,344	800,000	-0,103	0,213
-183,329	-200,000	0,040	0,186
-182,315	19,029	-0,091	-0,053
-181,300	-200,000	0,011	-0,124
-180,285	-200,000	0,002	-0,081
-179,271	-73,667	-0,041	0,011
-178,256	14,247	0,043	-0,024
-177,242	-8,190	-0,073	-0,035
-176,227	-200,000	0,031	0,109
-175,212	-48,052	0,148	-0,052
-174,198	248,781	-0,040	0,050
-173,183	748,479	0,048	0,095
-172,169	10,501	-0,099	-0,055
-171,154	286,817	-0,056	0,073
-170,139	-49,346	-0,100	0,035
-169,125	445,400	0,057	0,092
-168,110	0,535	0,109	0,056
-167,096	800,000	-0,032	-0,071
-166,081	37,865	-0,137	0,089
-165,066	322,082	-0,076	0,106
-164,052	759,769	0,047	-0,093
-163,037	-57,287	0,137	0,043
-162,023	-47,305	0,005	-0,002
-161,008	7,766	0,074	0,040
-159,993	169,826	0,108	0,112
-158,979	-57,895	-0,067	-0,021
-157,964	800,000	-0,052	0,123
-156,950	-91,325	-0,086	0,018
-155,935	-108,465	0,125	0,019
-154,920	263,720	0,135	0,171
-153,906	800,000	-0,045	0,145
-152,891	-200,000	0,005	0,071
-151,877	-152,698	0,060	-0,003
-150,862	296,459	-0,055	-0,074
-149,847	632,443	-0,097	-0,179
-148,833	-200,000	0,010	-0,218
-147,818	-200,000	-0,044	0,160
-146,804	515,841	0,099	-0,169
-145,789	-200,000	-0,021	-0,101
-144,775	-78,961	-0,114	0,028
-143,760	133,986	-0,108	-0,102
-142,745	98,971	0,023	0,019
-141,731	-98,086	0,134	0,025
-140,716	26,462	-0,106	0,064
-139,702	800,000	-0,013	-0,035
-138,687	200,671	-0,131	-0,146
-137,672	-200,000	-0,026	0,120
-136,658	138,904	0,122	-0,116
-135,643	-115,004	-0,114	0,016
-134,629	-200,000	-0,013	0,044
-133,614	541,492	0,071	-0,124
-132,599	655,695	0,057	0,106
-131,585	-50,255	-0,115	-0,039
-130,570	-21,704	-0,059	-0,026
-129,556	404,556	0,056	-0,087
-128,541	-200,000	0,002	-0,176
-127,526	728,190	0,059	-0,115
-126,512	-200,000	0,007	-0,040
-125,497	18,790	0,159	0,092
-124,483	-19,132	0,168	-0,075
-123,468	-153,340	0,034	0,002
-122,453	800,000	-0,092	-0,203
-121,439	11,517	-0,006	0,003
-120,424	98,029	-0,134	-0,112
-119,410	376,039	0,046	-0,068
-118,395	294,203	-0,050	0,066
-117,380	-149,213	0,069	0,004
-116,366	-158,279	0,070	0,003
-115,351	-161,544	-0,090	-0,003
-114,337	161,514	0,068	0,069
-113,322	-200,000	0,014	0,059
-112,307	-200,000	0,026	0,165
-111,293	-11,478	0,029	-0,014
-110,278	-110,709	0,073	0,011
-109,264	735,764	0,055	-0,107
-108,249	-149,193	-0,042	-0,002
-107,234	-122,215	-0,045	-0,005
-106,220	-181,667	-0,077	0,001
-105,205	-26,749	0,023	0,010
-104,191	135,684	0,119	-0,112
-103,176	-118,210	-0,076	-0,010
-102,162	-200,000	-0,004	0,174
-101,147	800,000	-0,054	-0,111
-100,132	-158,007	-0,028	0,001
-99,118	567,248	-0,071	0,126
-98,103	238,357	0,090	-0,109
-97,089	-57,255	0,128	0,041
-96,074	800,000	-0,020	-0,043
-95,059	-38,655	-0,039	0,015
-94,045	65,327	-0,065	0,047
-93,030	-200,000	-0,052	-0,195
-92,016	800,000	0,029	-0,093
-91,001	-200,000	0,001	0,071
-89,986	-141,100	0,156	0,011
-88,972	62,154	0,116	0,084
-87,957	-155,325	-0,075	-0,003
-86,943	-200,000	-0,012	-0,154
-85,928	216,305	-0,023	-0,026
-84,913	226,616	0,085	0,101
-83,899	-200,000	0,000	-0,044
-82,884	3,595	-0,157	0,083
-81,870	-66,721	0,104	-0,030
-80,855	-118,698	-0,137	0,017
-79,840	161,179	-0,077	-0,078
-78,826	-115,046	-0,041	-0,006
-77,811	800,000	0,012	-0,034
-76,797	-200,000	0,036	0,127
-75,782	694,881	-0,015	-0,029
-74,767	592,955	0,089	0,160
-73,753	372,168	-0,054	0,080
-72,738	768,239	0,042	0,082
-71,724	-45,031	-0,149	-0,053
-70,709	548,707	-0,029	-0,051
-69,694	800,000	0,045	-0,104
-68,680	-200,000	-0,022	-0,083
-67,665	-12,760	0,091	0,043
-66,651	63,149	0,114	-0,083
-65,636	800,000	0,078	0,179
-64,622	-90,961	0,238	0,049
-63,607	-151,799	-0,037	0,002
-62,592	800,000	-0,039	-0,105
-61,578	-178,102	0,079	-0,001
-60,563	72,601	0,159	0,120
-59,549	20,803	0,048	0,028
-58,534	-77,081	-1,573	-0,395
-57,519	800,000	-0,640	-1,322
-56,505	-200,000	-0,940	-4,446
-55,490	-124,918	0,583	0,064
-54,476	800,000	5,043	11,652
-53,461	-200,000	15,148	263,622
-52,446	-200,000	698,754	2243,724
-51,432	586,190	1621,226	2901,070
-50,417	119,964	1627,895	1462,586
-49,403	80,571	1282,264	1000,087
-48,388	37,478	1021,458	654,993
-47,373	22,593	982,196	580,857
-46,359	21,691	971,192	571,371
-45,344	20,428	966,796	564,632
-44,330	20,432	965,600	563,925
-43,315	20,255	964,153	562,480
-42,300	20,193	963,003	561,587
-41,286	20,194	962,117	561,051
-40,271	20,179	961,034	560,346
-39,257	20,171	960,131	559,771
-38,242	20,235	959,191	559,411
-37,227	20,180	958,454	558,781
-36,213	20,177	957,484	558,182
-35,198	20,133	956,527	557,458
-34,184	20,178	955,848	557,187
-33,169	20,099	954,946	556,384
-32,154	20,213	953,843	556,087
-31,140	20,173	953,200	555,562
-30,125	20,262	952,371	555,344
-29,111	20,138	951,563	554,451
-28,096	20,159	950,917	554,120
-27,082	20,129	950,271	553,624
-26,067	20,191	949,250	553,207
-25,052	20,218	948,544	552,861
-24,038	20,225	947,953	552,516
-23,023	20,186	947,256	551,963
-22,009	20,233	946,575	551,694
-20,994	20,154	946,224	551,217
-19,979	20,202	945,533	550,945
-18,965	20,180	944,833	550,446
-17,950	20,158	944,291	550,038
-16,936	20,087	943,668	549,425
-15,921	20,144	942,895	549,135
-14,906	20,072	942,378	548,585
-13,892	20,020	941,584	547,935
-12,877	20,009	940,926	547,495
-11,863	20,020	940,331	547,163
-10,848	20,037	939,953	546,975
-9,833	20,144	939,306	546,915
-8,819	20,107	938,781	546,470
-7,804	20,007	938,165	545,774
-6,790	20,018	937,610	545,464
-5,775	20,069	937,034	545,270
-4,760	20,083	936,415	544,930
-3,746	20,005	935,797	544,303
-2,731	19,916	935,055	543,569
-1,717	19,927	934,244	543,109
-0,702	19,849	933,603	542,469
0,313	19,655	933,272	542,485
1,327	22,200	930,622	548,902
2,342	29,625	805,767	495,326
3,356	23,956	506,504	301,693
4,371	-0,378	373,511	191,492
5,386	-3,186	356,671	179,395
6,400	-4,347	351,032	175,138
7,415	-4,771	348,500	173,350
8,429	-4,612	346,986	172,772
9,444	-4,604	346,045	172,298
10,459	-4,445	345,414	172,157
11,473	-4,615	344,828	171,647
12,488	-4,666	344,164	171,241
13,502	-4,884	343,723	170,749
14,517	-4,579	343,254	170,861
15,531	-4,446	342,734	170,744
16,546	-4,504	342,290	170,439
17,561	-4,601	341,888	170,109
18,575	-4,372	341,549	170,194
19,590	-4,543	341,193	169,801
20,604	-4,525	340,845	169,634
21,619	-4,482	340,523	169,509
22,634	-4,452	340,070	169,304
23,648	-4,358	339,714	169,222
24,663	-4,584	339,487	168,829
25,677	-4,494	339,155	168,755
26,692	-4,495	338,876	168,599
27,707	-4,469	338,454	168,404
28,721	-4,585	338,129	168,093
29,736	-4,451	337,786	168,063
30,750	-4,596	337,446	167,711
31,765	-4,631	337,252	167,558
32,780	-4,449	336,972	167,615
33,794	-4,475	336,730	167,450
34,809	-4,481	336,429	167,278
35,823	-4,505	336,228	167,136
36,838	-4,466	335,724	166,915
37,853	-4,410	335,582	166,894
38,867	-4,547	335,273	166,568
39,882	-4,588	334,979	166,359
40,896	-4,377	334,660	166,430
41,911	-4,487	334,371	166,144
42,926	-4,404	334,150	166,115
43,940	-4,482	333,831	165,852
44,955	-4,434	333,556	165,755
45,969	-4,608	333,485	165,506
46,984	-4,525	333,316	165,503
47,999	-4,457	332,958	165,388
49,013	-4,507	332,785	165,230
50,028	-4,426	332,527	165,179
51,042	-4,420	332,162	164,991
52,057	-4,516	332,012	164,792
53,071	-4,481	331,787	164,705
54,086	-4,587	331,407	164,381
55,101	-4,460	331,093	164,355
56,115	-4,482	330,830	164,185
57,130	-4,522	330,588	164,005
58,144	-4,483	330,360	163,922
59,159	-4,499	330,046	163,733
60,174	-4,633	329,762	163,426
61,188	-4,456	329,492	163,477
62,203	-4,447	329,176	163,316
63,217	-4,407	329,010	163,265
64,232	-4,509	328,751	163,006
65,247	-4,483	328,455	162,875
66,261	-4,536	328,281	162,714
67,276	-4,530	328,020	162,577
68,290	-4,365	327,660	162,569
69,305	-4,531	327,473	162,276
70,320	-4,590	327,280	162,099
71,334	-4,589	326,950	161,922
72,349	-4,328	326,742	162,098
73,363	-4,459	326,398	161,766
74,378	-4,522	326,114	161,541
75,393	-4,707	325,992	161,258
76,407	-4,447	325,600	161,340
77,422	-4,458	325,525	161,277
78,436	-4,476	325,162	161,063
79,451	-4,559	324,889	160,821
80,466	-4,604	324,619	160,622
81,480	-4,359	324,443	160,793
82,495	-4,512	324,199	160,489
83,509	-4,449	324,039	160,465
84,524	-4,337	323,645	160,379
85,539	-4,435	323,478	160,174
86,553	-4,476	323,295	160,023
87,568	-4,364	322,931	159,952
88,582	-4,472	322,605	159,658
89,597	-4,520	322,473	159,525
90,611	-4,441	322,261	159,494
91,626	-4,468	321,998	159,319
92,641	-4,414	321,749	159,241
93,655	-4,504	321,596	159,052
94,670	-4,608	321,412	158,833
95,684	-4,382	321,039	158,882
96,699	-4,533	320,888	158,628
97,714	-4,597	320,762	158,481
98,728	-4,208	320,490	158,759
99,743	-4,384	320,191	158,404
100,757	-4,518	319,949	158,124
101,772	-4,492	319,612	157,971
102,787	-4,352	319,340	157,976
103,801	-4,236	319,123	157,981
104,816	-4,563	319,062	157,580
105,830	-4,466	318,881	157,582
106,845	-4,564	318,687	157,366
107,860	-4,602	318,341	157,139
108,874	-4,540	318,237	157,142
109,889	-4,514	317,983	157,030
110,903	-4,486	317,693	156,903
111,918	-4,359	317,351	156,858
112,933	-4,554	317,203	156,560
113,947	-4,466	316,977	156,529
114,962	-4,396	316,631	156,420
115,976	-4,460	316,506	156,275
116,991	-4,386	316,286	156,233
118,006	-4,402	316,078	156,099
119,020	-4,383	315,897	156,016
120,035	-4,490	315,664	155,772
121,049	-4,481	315,499	155,687
122,064	-4,610	315,425	155,496
123,079	-4,407	315,062	155,522
124,093	-4,475	314,757	155,285
125,108	-4,389	314,544	155,258
126,122	-4,517	314,486	155,078
127,137	-4,432	314,221	155,025
128,151	-4,424	313,912	154,867
129,166	-4,288	313,626	154,858
130,181	-4,491	313,400	154,516
131,195	-4,404	313,135	154,464
132,210	-4,385	312,887	154,348
133,224	-4,469	312,633	154,119
134,239	-4,501	312,371	153,943
135,254	-4,510	312,312	153,890
136,268	-4,497	312,099	153,785
137,283	-4,627	311,888	153,530
138,297	-4,437	311,562	153,557
139,312	-4,393	311,289	153,456
140,327	-4,429	311,034	153,278
141,341	-4,436	310,982	153,231
142,356	-4,585	310,709	152,925
143,370	-4,560	310,577	152,873
144,385	-4,368	310,336	152,943
145,400	-4,462	310,061	152,696
146,414	-4,457	309,823	152,570
147,429	-4,410	309,574	152,483
148,443	-4,484	309,449	152,330
149,458	-4,338	309,075	152,286
150,473	-4,446	308,934	152,089
151,487	-4,531	308,780	151,911
152,502	-4,530	308,527	151,774
153,516	-4,519	308,313	151,666
154,531	-4,560	308,152	151,531
155,546	-4,679	307,893	151,265
156,560	-4,442	307,532	151,323
157,575	-4,396	307,369	151,277
158,589	-4,460	307,254	151,139
159,604	-4,346	306,917	151,079
160,619	-4,425	306,823	150,938
161,633	-4,410	306,565	150,812
162,648	-4,357	306,357	150,752
163,662	-4,271	306,014	150,659
164,677	-4,333	306,020	150,585
165,692	-4,420	305,789	150,367
166,706	-4,402	305,541	150,250
167,721	-4,387	305,460	150,213
168,735	-4,406	305,286	150,094
169,750	-4,365	305,030	149,997
170,764	-4,396	304,746	149,812
171,779	-4,498	304,700	149,671
172,794	-4,247	304,365	149,752
173,808	-4,525	304,346	149,441
174,823	-4,449	303,969	149,322
175,837	-4,391	303,820	149,295
176,852	-4,339	303,484	149,171
177,867	-4,449	303,400	149,002
178,881	-4,365	303,049	148,903
179,896	-4,242	302,891	148,939
180,910	-4,504	302,630	148,528
181,925	-4,272	302,347	148,614
182,940	-4,278	302,143	148,494
183,954	-4,239	302,050	148,475
184,969	-4,412	301,972	148,246
185,983	-4,293	301,741	148,241
186,998	-4,354	301,481	148,039
188,013	-4,287	301,320	148,015
189,027	-4,315	301,093	147,861
190,042	-4,331	300,789	147,683
191,056	-4,313	300,655	147,622
192,071	-4,438	300,575	147,442
193,086	-4,440	300,245	147,265
194,100	-4,385	299,985	147,180
195,115	-4,263	299,658	147,130
196,129	-4,348	299,610	147,007
197,144	-4,345	299,359	146,874
198,159	-4,534	299,160	146,572
199,173	-4,449	298,898	146,516
200,188	-4,445	298,665	146,393
201,202	-4,425	298,440	146,290
202,217	-4,331	298,329	146,318
203,232	-4,388	298,151	146,160
204,246	-4,356	297,817	146,015
205,261	-4,350	297,701	145,952
206,275	-4,474	297,569	145,748
207,290	-4,386	297,318	145,702
208,304	-4,349	297,183	145,660
209,319	-4,348	296,976	145,546
210,334	-4,445	296,683	145,293
211,348	-4,320	296,618	145,373
212,363	-4,190	296,276	145,323
213,377	-4,125	295,999	145,238
214,392	-4,165	295,879	145,127
215,407	-4,328	295,679	144,853
216,421	-4,238	295,421	144,804
217,436	-4,258	295,271	144,698
218,450	-4,344	295,011	144,471
219,465	-4,361	294,931	144,402
220,480	-4,360	294,725	144,289
221,494	-4,462	294,628	144,127
222,509	-4,333	294,280	144,073
223,523	-4,392	294,087	143,907
224,538	-4,441	293,921	143,764
225,553	-4,561	293,807	143,576
226,567	-4,333	293,513	143,646
227,582	-4,217	293,358	143,672
228,596	-4,275	293,220	143,534
229,611	-4,306	293,029	143,397
230,626	-4,367	292,853	143,237
231,640	-4,220	292,625	143,260
232,655	-4,227	292,416	143,137
233,669	-4,426	292,382	142,911
234,684	-4,342	292,156	142,871
235,699	-4,327	291,896	142,745
236,713	-4,283	291,682	142,672
237,728	-4,219	291,439	142,603
238,742	-4,325	291,190	142,364
239,757	-4,474	291,094	142,158
240,772	-4,483	290,824	142,005
241,786	-4,551	290,765	141,896
242,801	-4,332	290,483	141,961
243,815	-4,449	290,268	141,728
244,830	-4,346	290,189	141,778
245,844	-4,338	289,945	141,654
246,859	-4,354	289,680	141,496
247,874	-4,404	289,508	141,351
248,888	-4,250	289,282	141,379
249,903	-4,365	289,089	141,159
250,917	-4,459	288,865	140,946
251,932	-4,612	288,689	140,698
252,947	-4,612	288,528	140,607
253,961	-5,181	287,887	139,730
254,976	-5,484	287,687	139,326
255,990	-5,465	287,679	139,328
257,005	-3,592	288,180	141,379
258,020	-1,387	288,875	143,852
259,034	-0,073	289,297	145,328
260,049	0,504	289,278	145,867
261,063	0,937	289,289	146,280
262,078	1,268	289,249	146,569
263,093	1,547	289,127	146,765
264,107	1,751	289,167	146,971
265,122	2,021	288,960	147,113
266,136	1,922	288,877	146,962
267,151	1,973	288,705	146,911
268,166	2,070	288,493	146,884
269,180	1,974	288,380	146,720
270,195	2,222	288,162	146,836
271,209	2,180	287,778	146,587
272,224	2,047	287,608	146,359
273,239	2,015	287,449	146,235
274,253	1,883	287,270	146,003
275,268	2,045	287,054	146,036
276,282	2,120	286,777	145,955
277,297	1,879	286,728	145,684
278,312	1,933	286,549	145,632
279,326	1,971	286,178	145,467
280,341	2,060	285,976	145,438
281,355	1,859	285,946	145,216
282,370	2,005	285,685	145,210
283,384	1,900	285,535	145,021
284,399	1,846	285,389	144,882
285,414	2,071	285,037	144,905
286,428	1,917	285,047	144,750
287,443	1,858	284,856	144,584
288,457	1,715	284,771	144,392
289,472	1,933	284,565	144,482
290,487	1,848	284,196	144,201
291,501	1,762	284,019	144,016
292,516	1,674	283,935	143,878
293,530	1,623	283,814	143,755
294,545	1,691	283,532	143,664
295,560	1,782	283,292	143,615
296,574	1,731	283,056	143,435
297,589	1,813	282,846	143,394
298,603	1,659	282,748	143,186
299,618	1,694	282,568	143,114
300,633	1,853	282,366	143,150
301,647	1,921	282,178	143,106
302,662	1,990	282,102	143,119
303,676	1,981	281,908	143,000
304,691	2,104	281,690	142,992
305,706	1,856	281,756	142,779
306,720	1,888	281,545	142,690
307,735	1,998	281,221	142,616
308,749	1,887	281,117	142,446
309,764	1,975	280,863	142,388
310,779	1,795	280,708	142,128
311,793	2,017	280,496	142,216
312,808	1,853	280,330	141,966
313,822	1,853	280,101	141,837
314,837	1,982	280,008	141,898
315,852	1,729	279,775	141,530
316,866	1,815	279,664	141,542
317,881	1,987	279,339	141,526
318,895	1,924	279,148	141,357
319,910	1,905	279,046	141,275
320,925	1,969	278,770	141,182
321,939	1,880	278,565	140,983
322,954	2,036	278,388	141,026
323,968	2,112	278,333	141,056
324,983	1,944	278,179	140,809
325,997	1,899	278,019	140,675
327,012	1,916	277,868	140,601
328,027	2,101	277,599	140,624
329,041	1,916	277,515	140,397
330,056	2,176	277,227	140,480
331,070	2,203	277,011	140,383
332,085	2,159	276,887	140,266
333,100	2,123	276,795	140,174
334,114	2,011	276,536	139,927
335,129	2,111	276,235	139,855
336,143	1,977	276,190	139,696
337,158	2,205	275,944	139,769
338,173	1,963	275,683	139,401
339,187	1,831	275,691	139,272
340,202	2,135	275,506	139,445
341,216	2,006	275,407	139,265
342,231	1,930	275,126	139,041
343,246	2,067	274,981	139,080
344,260	2,090	274,938	139,067
345,275	1,920	274,735	138,796
346,289	2,167	274,554	138,919
347,304	2,180	274,386	138,833
348,319	2,226	274,068	138,702
349,333	2,091	273,900	138,482
350,348	2,066	273,770	138,381
351,362	2,049	273,538	138,235
352,377	2,158	273,432	138,268
353,392	2,135	273,179	138,107
354,406	1,993	273,224	137,988
355,421	191,515	1347,605	1426,342
356,435	154,648	1478,573	1426,454
