DTS Sentinel unit serial number:	SN410029Multiplexer serial number:	ORYXHardware model number:	OX2-SRSoftware version number:	ORYX F/W v4,00 Oryx Data Collector v3.7.2.0data status	okinstallation	B4 Nyhavnadifferential loss correction	single-endedforward channel	channel 2reverse channel	N/Adate	2023/12/18time	17:35:13forward acquisition time	300,00reverse acquisition time	0,00gamma	499,1914k internal	0,3125k external	0,3125temperature offset calibration	1,0000default loss term (dB/km)	0,3820temperature slope calibration	1,0000multiplexer offset coefficient	1,0000multiplexer slope coefficient	1,0000fibre end	0,00T internal ref (°C)	21,74T ext. ref 1 (°C)	7,21T ext. ref 2 (°C)	7,24length (m)	temperature (°C)	Stokes	anti-Stokes-744,400	-200,000	-0,029	0,170
-743,385	-53,865	-0,215	0,073
-742,371	-200,000	-0,005	-0,036
-741,356	-23,697	-0,194	0,086
-740,342	-200,000	-0,034	-0,144
-739,327	0,994	-0,284	0,151
-738,312	-200,000	-0,015	0,060
-737,298	-69,957	-0,328	0,092
-736,283	800,000	-0,032	-0,094
-735,269	143,969	-0,194	0,193
-734,254	-200,000	0,002	0,105
-733,239	-124,346	-0,428	0,049
-732,225	119,478	0,068	-0,063
-731,210	-200,000	0,026	0,101
-730,196	-4,594	-0,111	0,057
-729,181	68,679	-0,125	-0,095
-728,167	800,000	-0,021	-0,047
-727,152	-200,000	-0,030	-0,157
-726,137	690,932	-0,085	-0,167
-725,123	223,791	-0,062	-0,074
-724,108	84,259	-0,055	-0,045
-723,094	-72,889	-0,130	-0,035
-722,079	37,176	-0,083	-0,054
-721,064	800,000	-0,036	0,081
-720,050	85,573	0,078	-0,064
-719,035	757,315	0,048	0,097
-718,021	22,362	0,056	-0,034
-717,006	192,754	-0,058	-0,065
-715,991	-200,000	0,040	-0,225
-714,977	-200,000	-0,034	0,000
-713,962	-200,000	0,020	-0,092
-712,948	158,456	0,072	-0,074
-711,933	190,272	-0,105	0,118
-710,918	-92,529	-0,097	0,020
-709,904	800,000	-0,018	-0,050
-708,889	27,063	-0,116	0,072
-707,875	-61,745	-0,131	0,040
-706,860	-200,000	-0,034	0,179
-705,845	-115,947	0,048	-0,007
-704,831	-200,000	-0,003	0,033
-703,816	227,271	-0,078	-0,095
-702,802	-200,000	-0,034	-0,169
-701,787	-200,000	0,002	0,028
-700,772	46,323	-0,084	-0,058
-699,758	-200,000	-0,007	0,141
-698,743	-45,453	0,052	0,019
-697,729	-144,377	0,076	0,005
-696,714	236,829	0,027	-0,034
-695,699	531,701	-0,078	-0,137
-694,685	798,918	0,012	-0,024
-693,670	-200,000	-0,016	-0,127
-692,656	327,654	0,046	-0,065
-691,641	155,259	0,075	0,077
-690,627	800,000	-0,027	0,057
-689,612	45,631	-0,011	-0,008
-688,597	88,829	-0,117	-0,097
-687,583	-98,016	-0,152	-0,029
-686,568	-116,457	-0,103	0,014
-685,554	44,052	-0,042	-0,029
-684,539	64,576	0,134	-0,100
-683,524	800,000	0,036	0,097
-682,510	17,342	0,057	-0,034
-681,495	800,000	-0,040	0,105
-680,481	-200,000	-0,015	-0,109
-679,466	156,452	-0,070	-0,072
-678,451	185,387	0,017	-0,019
-677,437	800,000	-0,035	-0,105
-676,422	25,748	-0,100	-0,062
-675,408	408,923	-0,035	0,055
-674,393	-77,893	0,144	-0,037
-673,378	800,000	-0,018	0,043
-672,364	398,730	0,048	0,074
-671,349	301,782	-0,014	0,019
-670,335	800,000	-0,092	-0,207
-669,320	-200,000	0,004	-0,051
-668,305	-200,000	-0,015	-0,094
-667,291	81,337	-0,074	0,059
-666,276	-200,000	0,017	-0,072
-665,262	-105,981	-0,138	-0,023
-664,247	-14,636	-0,050	-0,024
-663,232	-160,972	0,098	0,004
-662,218	800,000	-0,028	0,074
-661,203	800,000	0,035	0,077
-660,189	235,205	0,029	0,036
-659,174	800,000	0,018	-0,059
-658,159	204,695	-0,139	0,160
-657,145	-45,999	-0,081	0,030
-656,130	148,544	-0,082	0,082
-655,116	800,000	-0,042	-0,128
-654,101	-10,667	-0,090	-0,044
-653,086	179,858	-0,067	0,073
-652,072	-200,000	-0,031	-0,137
-651,057	208,925	-0,064	0,074
-650,043	-200,000	0,006	-0,030
-649,028	71,770	-0,082	0,063
-648,014	-52,831	-0,114	-0,039
-646,999	800,000	-0,050	0,146
-645,984	800,000	-0,007	-0,016
-644,970	-162,565	-0,157	-0,006
-643,955	800,000	-0,017	-0,050
-642,941	800,000	-0,006	0,017
-641,926	109,330	0,019	-0,017
-640,911	142,174	0,132	0,130
-639,897	800,000	0,015	-0,041
-638,882	-200,000	-0,037	-0,122
-637,868	800,000	-0,102	-0,227
-636,853	267,298	-0,038	0,049
-635,838	136,422	0,172	0,166
-634,824	100,810	-0,134	-0,116
-633,809	80,123	-0,064	0,051
-632,795	-200,000	0,009	-0,111
-631,780	502,550	0,016	-0,028
-630,765	48,416	0,083	0,058
-629,751	-18,501	-0,202	0,093
-628,736	800,000	-0,040	-0,122
-627,722	-94,902	-0,200	-0,040
-626,707	-5,511	0,010	-0,005
-625,692	130,289	-0,128	0,122
-624,678	-200,000	-0,017	0,197
-623,663	203,740	0,026	0,029
-622,649	800,000	-0,024	-0,077
-621,634	260,094	-0,070	-0,090
-620,619	505,781	-0,015	0,026
-619,605	-49,985	0,026	0,009
-618,590	-66,695	-0,038	-0,011
-617,576	-200,000	0,025	0,095
-616,561	292,672	-0,051	-0,069
-615,546	382,321	0,033	0,051
-614,532	-103,520	0,163	-0,028
-613,517	-75,419	0,049	0,013
-612,503	800,000	0,012	-0,025
-611,488	-200,000	-0,021	0,073
-610,474	43,230	-0,109	-0,074
-609,459	-200,000	-0,012	0,041
-608,444	800,000	-0,062	0,151
-607,430	375,176	0,032	-0,049
-606,415	62,627	-0,141	-0,104
-605,401	-121,570	-0,094	0,011
-604,386	120,761	0,173	0,160
-603,371	-9,474	0,080	-0,039
-602,357	-97,478	-0,061	-0,012
-601,342	35,821	-0,136	-0,088
-600,328	71,720	-0,048	-0,037
-599,313	-148,726	0,093	-0,005
-598,298	18,253	-0,139	-0,082
-597,284	106,376	0,102	0,090
-596,269	-61,356	0,087	0,027
-595,255	308,541	0,025	-0,035
-594,240	-118,275	0,039	0,005
-593,225	800,000	-0,036	-0,109
-592,211	570,453	-0,050	-0,091
-591,196	127,367	-0,098	0,092
-590,182	-5,742	-0,026	0,013
-589,167	800,000	0,043	-0,101
-588,152	344,183	0,056	0,081
-587,138	800,000	0,017	-0,034
-586,123	800,000	-0,017	-0,042
-585,109	-61,513	-0,053	-0,016
-584,094	-200,000	-0,007	-0,042
-583,079	64,172	0,142	0,106
-582,065	194,710	-0,061	0,069
-581,050	95,029	-0,106	0,089
-580,036	34,159	-0,029	-0,018
-579,021	800,000	-0,054	-0,156
-578,006	212,323	-0,125	-0,146
-576,992	-138,716	0,050	-0,004
-575,977	23,601	0,040	0,024
-574,963	-200,000	0,012	0,080
-573,948	800,000	-0,040	0,123
-572,934	-200,000	0,018	-0,143
-571,919	-61,811	-0,177	-0,055
-570,904	129,360	-0,040	0,038
-569,890	356,930	-0,047	0,070
-568,875	-103,493	-0,051	-0,009
-567,861	-124,570	-0,071	-0,008
-566,846	800,000	0,048	0,102
-565,831	-47,551	-0,111	0,040
-564,817	-94,401	-0,240	0,048
-563,802	-59,196	0,079	-0,025
-562,788	467,712	-0,079	-0,131
-561,773	-128,576	-0,087	-0,009
-560,758	589,532	-0,040	0,073
-559,744	146,988	0,079	0,079
-558,729	-78,987	0,099	-0,025
-557,715	7,645	-0,108	0,059
-556,700	53,294	0,014	-0,010
-555,685	191,104	0,102	-0,114
-554,671	79,855	-0,015	-0,012
-553,656	-3,383	-0,122	0,062
-552,642	800,000	0,021	0,045
-551,627	-200,000	-0,014	0,077
-550,612	-74,355	-0,099	-0,026
-549,598	492,859	0,086	-0,146
-548,583	281,382	-0,042	0,055
-547,569	800,000	-0,005	-0,012
-546,554	-82,851	-0,088	0,021
-545,539	-89,144	-0,076	0,016
-544,525	-124,533	0,037	-0,004
-543,510	467,495	-0,088	-0,147
-542,496	-200,000	0,027	-0,122
-541,481	144,475	-0,044	0,044
-540,466	800,000	0,045	-0,119
-539,452	-200,000	-0,015	-0,061
-538,437	-78,858	0,060	0,015
-537,423	27,127	-0,098	0,061
-536,408	800,000	-0,059	-0,163
-535,393	284,538	0,036	0,048
-534,379	144,149	-0,028	-0,028
-533,364	290,012	0,023	-0,030
-532,350	800,000	-0,059	0,125
-531,335	800,000	0,023	0,055
-530,321	-81,446	0,144	-0,035
-529,306	-67,360	-0,067	0,019
-528,291	299,656	0,049	-0,066
-527,277	15,704	0,140	-0,081
-526,262	55,700	0,052	0,037
-525,248	466,084	0,045	-0,074
-524,233	-200,000	0,001	0,023
-523,218	800,000	0,057	0,120
-522,204	-200,000	0,022	0,132
-521,189	118,711	-0,037	0,034
-520,175	20,587	0,073	-0,044
-519,160	80,899	-0,042	0,034
-518,145	448,682	0,035	-0,056
-517,131	51,695	0,040	0,028
-516,116	-200,000	-0,023	-0,089
-515,102	-200,000	-0,001	0,070
-514,087	-15,093	0,049	0,023
-513,072	-75,026	-0,054	-0,014
-512,058	-200,000	-0,023	-0,147
-511,043	800,000	-0,042	-0,117
-510,029	-200,000	-0,035	0,146
-509,014	-46,686	0,078	0,028
-507,999	24,644	-0,041	0,025
-506,985	800,000	-0,010	0,031
-505,970	90,401	-0,071	0,058
-504,956	98,384	-0,049	-0,041
-503,941	-200,000	-0,007	-0,117
-502,926	-129,820	0,062	0,006
-501,912	800,000	0,025	-0,070
-500,897	73,684	0,093	-0,072
-499,883	-24,106	-0,046	-0,020
-498,868	-2,121	0,044	0,023
-497,853	-1,443	0,030	0,016
-496,839	-200,000	0,002	-0,062
-495,824	44,162	-0,054	0,037
-494,810	-37,662	0,054	0,021
-493,795	347,307	0,089	-0,130
-492,781	-42,261	0,094	-0,035
-491,766	302,295	-0,012	-0,017
-490,751	-101,196	-0,104	-0,019
-489,737	-114,532	-0,049	-0,007
-488,722	145,891	-0,032	0,032
-487,708	617,536	0,020	0,037
-486,693	-44,233	-0,009	-0,003
-485,678	-200,000	-0,006	0,130
-484,664	-171,807	0,049	0,001
-483,649	800,000	0,023	-0,049
-482,635	-200,000	-0,024	0,143
-481,620	-24,048	0,086	-0,038
-480,605	-104,298	0,186	0,032
-479,591	325,065	-0,072	0,102
-478,576	328,783	0,046	-0,066
-477,562	-200,000	0,005	-0,089
-476,547	259,664	-0,052	-0,067
-475,532	18,965	-0,085	-0,050
-474,518	-200,000	0,032	0,121
-473,503	800,000	0,054	0,158
-472,489	406,212	-0,052	0,081
-471,474	26,333	0,036	-0,022
-470,459	800,000	-0,021	0,045
-469,445	7,810	-0,139	-0,077
-468,430	-119,732	0,126	-0,016
-467,416	-147,973	-0,036	0,002
-466,401	-36,437	0,074	-0,029
-465,386	738,020	0,024	0,048
-464,372	26,327	0,053	0,033
-463,357	-200,000	0,015	-0,142
-462,343	800,000	-0,048	-0,122
-461,328	800,000	0,036	0,079
-460,313	-62,612	0,106	0,032
-459,299	166,614	0,134	0,140
-458,284	115,916	0,075	-0,067
-457,270	-200,000	0,007	0,100
-456,255	184,306	-0,071	-0,077
-455,241	219,712	0,051	0,060
-454,226	479,582	0,016	-0,026
-453,211	-200,000	0,023	0,097
-452,197	-112,342	0,098	0,014
-451,182	-35,018	0,063	-0,025
-450,168	800,000	-0,047	-0,115
-449,153	-93,764	0,018	0,004
-448,138	-31,607	-0,123	-0,050
-447,124	182,546	0,094	-0,103
-446,109	-200,000	-0,014	0,105
-445,095	-155,026	-0,137	0,006
-444,080	253,942	-0,080	0,101
-443,065	-139,931	0,106	0,008
-442,051	43,150	0,021	-0,014
-441,036	257,249	-0,048	-0,060
-440,022	-200,000	0,009	-0,114
-439,007	-8,895	-0,084	0,041
-437,992	-66,263	-0,011	0,003
-436,978	-109,691	-0,054	0,008
-435,963	800,000	-0,056	0,118
-434,949	-112,490	-0,125	0,018
-433,934	800,000	0,080	0,210
-432,919	81,434	0,067	-0,053
-431,905	-61,917	0,084	-0,026
-430,890	48,281	0,110	0,076
-429,876	-200,000	0,021	-0,075
-428,861	441,829	0,044	0,071
-427,846	-200,000	0,007	0,088
-426,832	33,756	-0,082	0,052
-425,817	-93,039	-0,020	0,004
-424,803	-190,951	0,160	0,001
-423,788	-200,000	-0,010	0,063
-422,773	-200,000	0,047	0,164
-421,759	-98,295	0,078	0,015
-420,744	76,593	-0,102	0,079
-419,730	99,086	-0,075	-0,064
-418,715	-200,000	-0,037	0,182
-417,701	681,375	0,036	-0,070
-416,686	287,376	0,071	-0,094
-415,671	-200,000	-0,003	0,090
-414,657	273,689	-0,084	0,109
-413,642	800,000	-0,051	0,114
-412,628	-142,421	-0,053	0,004
-411,613	-71,816	-0,033	-0,009
-410,598	800,000	-0,047	-0,108
-409,584	175,478	0,036	0,039
-408,569	-102,132	0,059	0,010
-407,555	-200,000	0,005	0,107
-406,540	116,142	-0,047	0,042
-405,525	-200,000	0,002	0,105
-404,511	-200,000	0,000	0,038
-403,496	22,271	-0,041	0,025
-402,482	-34,765	0,099	0,040
-401,467	30,738	-0,140	-0,088
-400,452	-200,000	-0,036	0,131
-399,438	-135,496	0,058	-0,005
-398,423	-94,836	-0,092	0,018
-397,409	124,947	-0,096	-0,089
-396,394	449,577	-0,050	-0,081
-395,379	700,887	0,046	-0,090
-394,365	-200,000	0,018	-0,076
-393,350	-80,908	0,073	-0,018
-392,336	-200,000	-0,026	-0,090
-391,321	98,271	0,091	-0,077
-390,306	271,417	-0,125	-0,162
-389,292	84,324	-0,192	-0,154
-388,277	16,967	0,041	0,024
-387,263	200,558	0,071	0,080
-386,248	-200,000	0,004	-0,036
-385,233	-131,208	-0,079	0,008
-384,219	-200,000	-0,045	-0,177
-383,204	417,253	-0,072	-0,114
-382,190	-200,000	-0,039	-0,183
-381,175	-98,323	0,083	0,015
-380,160	-200,000	0,010	-0,058
-379,146	-102,428	-0,102	0,018
-378,131	-200,000	0,035	0,174
-377,117	-196,572	-0,130	0,001
-376,102	-200,000	0,014	-0,199
-375,088	-200,000	0,026	-0,125
-374,073	71,099	0,187	-0,142
-373,058	-200,000	0,013	0,144
-372,044	-200,000	0,004	-0,022
-371,029	36,179	0,025	-0,016
-370,015	800,000	-0,033	0,081
-369,000	-126,857	0,060	-0,006
-367,985	379,250	-0,089	-0,135
-366,971	343,302	0,021	0,031
-365,956	161,664	0,071	0,073
-364,942	-79,107	0,139	-0,034
-363,927	-12,167	0,026	0,013
-362,912	115,996	0,034	0,031
-361,898	800,000	0,036	0,085
-360,883	800,000	-0,040	-0,096
-359,869	32,479	0,041	0,026
-358,854	-200,000	-0,003	0,054
-357,839	123,317	0,098	0,090
-356,825	-134,518	0,171	-0,015
-355,810	800,000	0,042	-0,112
-354,796	181,188	0,039	-0,042
-353,781	-200,000	-0,026	0,106
-352,766	531,009	0,048	-0,083
-351,752	-133,917	-0,083	0,007
-350,737	320,179	-0,051	-0,071
-349,723	155,846	0,115	0,116
-348,708	12,035	-0,032	0,018
-347,693	800,000	0,039	-0,101
-346,679	-117,825	0,073	0,009
-345,664	-200,000	0,005	0,023
-344,650	800,000	-0,017	-0,035
-343,635	240,406	0,034	0,042
-342,620	112,777	0,111	0,098
-341,606	-44,181	0,043	-0,016
-340,591	-200,000	-0,015	0,058
-339,577	800,000	0,026	-0,055
-338,562	172,069	-0,067	-0,071
-337,548	-200,000	0,004	0,016
-336,533	800,000	-0,039	-0,081
-335,518	87,735	0,089	-0,073
-334,504	160,657	0,036	-0,037
-333,489	349,733	-0,028	-0,040
-332,475	-66,931	-0,173	0,050
-331,460	138,718	-0,072	-0,070
-330,445	554,875	0,030	-0,054
-329,431	66,628	0,090	-0,067
-328,416	50,525	0,153	0,106
-327,402	680,503	-0,032	0,062
-326,387	-69,801	-0,149	-0,041
-325,372	-200,000	0,011	-0,063
-324,358	-124,004	-0,122	0,014
-323,343	142,983	-0,037	-0,036
-322,329	-75,570	0,127	-0,033
-321,314	82,052	0,108	0,086
-320,299	48,630	-0,116	-0,080
-319,285	129,249	-0,090	-0,084
-318,270	-200,000	0,040	-0,000
-317,256	-7,726	0,019	0,009
-316,241	800,000	-0,013	0,029
-315,226	514,568	0,070	-0,120
-314,212	-200,000	0,007	0,046
-313,197	-6,132	0,170	-0,085
-312,183	7,818	0,030	-0,016
-311,168	198,965	-0,146	-0,163
-310,153	-69,010	0,113	0,032
-309,139	277,433	0,009	-0,012
-308,124	-99,315	0,065	0,012
-307,110	-46,810	-0,103	0,037
-306,095	-200,000	-0,008	-0,057
-305,080	-200,000	-0,009	0,058
-304,066	-14,881	0,082	-0,038
-303,051	800,000	0,022	-0,069
-302,037	-200,000	0,004	-0,023
-301,022	-200,000	0,004	0,019
-300,008	-26,621	0,095	0,040
-298,993	16,409	-0,093	0,054
-297,978	800,000	-0,007	-0,016
-296,964	110,454	0,025	-0,022
-295,949	800,000	0,013	0,040
-294,935	332,487	0,021	0,030
-293,920	800,000	0,042	0,086
-292,905	-97,861	-0,053	-0,010
-291,891	14,618	0,056	0,032
-290,876	147,909	0,039	0,038
-289,862	511,121	0,073	-0,125
-288,847	717,601	-0,070	-0,137
-287,832	0,945	-0,058	-0,030
-286,818	48,052	-0,072	0,049
-285,803	-200,000	0,007	0,117
-284,789	695,549	0,014	0,027
-283,774	800,000	-0,004	-0,011
-282,759	193,173	0,094	0,104
-281,745	800,000	0,036	0,084
-280,730	52,269	0,094	-0,065
-279,716	-107,578	0,131	-0,021
-278,701	-111,778	0,094	0,014
-277,686	-200,000	0,016	0,058
-276,672	-200,000	0,001	0,083
-275,657	-112,878	-0,075	0,011
-274,643	-14,160	-0,077	-0,036
-273,628	800,000	0,073	-0,214
-272,613	313,679	-0,086	0,119
-271,599	64,442	0,102	0,075
-270,584	-64,531	0,054	-0,016
-269,570	-200,000	0,023	0,084
-268,555	-200,000	0,019	0,097
-267,540	-128,207	-0,100	0,010
-266,526	-33,468	0,040	-0,016
-265,511	393,005	-0,052	0,079
-264,497	-42,800	0,112	0,041
-263,482	800,000	0,018	-0,048
-262,467	800,000	0,032	0,090
-261,453	793,231	-0,036	0,072
-260,438	230,065	-0,072	0,086
-259,424	-34,680	-0,069	-0,027
-258,409	49,934	-0,054	-0,037
-257,395	-42,770	0,086	-0,032
-256,380	326,367	-0,076	0,107
-255,365	800,000	0,027	-0,085
-254,351	124,751	-0,048	0,044
-253,336	148,513	0,074	0,073
-252,322	1,962	-0,048	0,025
-251,307	-200,000	0,010	-0,060
-250,292	800,000	0,045	-0,104
-249,278	144,543	0,071	0,069
-248,263	158,897	0,117	0,119
-247,249	-58,559	-0,089	-0,028
-246,234	-45,592	-0,123	-0,044
-245,219	-41,466	-0,055	-0,020
-244,205	-200,000	-0,023	-0,144
-243,190	21,616	0,087	0,051
-242,176	800,000	-0,026	0,076
-241,161	-79,252	0,008	-0,002
-240,146	-93,101	0,054	0,011
-239,132	-200,000	0,011	0,082
-238,117	800,000	0,026	-0,064
-237,103	-200,000	0,011	-0,119
-236,088	-93,389	0,059	-0,012
-235,073	-117,920	-0,092	-0,012
-234,059	299,600	0,049	-0,067
-233,044	-200,000	-0,005	0,096
-232,030	-200,000	-0,017	-0,098
-231,015	29,159	0,046	0,029
-230,000	-22,751	0,073	-0,032
-228,986	-200,000	0,006	0,057
-227,971	-200,000	-0,046	0,186
-226,957	190,244	-0,047	0,052
-225,942	-200,000	0,017	0,059
-224,927	-2,141	-0,068	0,035
-223,913	800,000	-0,022	-0,048
-222,898	-99,803	0,091	0,016
-221,884	800,000	-0,015	0,036
-220,869	-200,000	0,005	0,137
-219,855	800,000	0,045	0,112
-218,840	-60,093	0,111	-0,034
-217,825	159,944	-0,070	-0,071
-216,811	800,000	-0,062	-0,158
-215,796	431,355	-0,048	-0,076
-214,782	-65,995	0,050	0,014
-213,767	143,148	-0,058	0,056
-212,752	-71,753	0,158	0,043
-211,738	-200,000	-0,016	-0,106
-210,723	339,776	0,026	0,038
-209,709	9,752	0,113	0,063
-208,694	-76,631	0,112	-0,029
-207,679	310,458	0,046	0,063
-206,665	252,625	-0,049	-0,061
-205,650	786,407	-0,021	-0,041
-204,636	507,139	0,138	-0,234
-203,621	-172,720	0,154	-0,003
-202,606	75,759	-0,123	-0,095
-201,592	63,574	-0,042	0,030
-200,577	24,771	0,035	-0,021
-199,563	105,416	0,080	0,069
-198,548	-40,561	0,092	-0,035
-197,533	591,237	0,030	0,054
-196,519	233,409	-0,031	0,037
-195,504	-200,000	-0,023	-0,213
-194,490	747,561	-0,044	-0,087
-193,475	-200,000	-0,009	0,102
-192,460	121,007	-0,022	0,020
-191,446	-200,000	-0,006	0,122
-190,431	800,000	0,092	-0,225
-189,417	-200,000	-0,023	0,098
-188,402	86,011	-0,040	0,032
-187,387	772,919	0,052	-0,105
-186,373	-145,171	-0,084	0,005
-185,358	800,000	-0,028	-0,065
-184,344	120,026	0,060	-0,054
-183,329	800,000	0,042	0,097
-182,315	512,959	-0,060	0,103
-181,300	800,000	0,029	0,061
-180,285	-200,000	-0,027	0,088
-179,271	-28,975	-0,057	0,024
-178,256	205,608	0,066	0,074
-177,242	-200,000	0,006	-0,078
-176,227	133,038	-0,074	0,070
-175,212	109,343	-0,050	-0,043
-174,198	-41,143	-0,146	0,055
-173,183	79,049	0,031	-0,024
-172,169	800,000	-0,057	-0,122
-171,154	517,348	-0,071	-0,121
-170,139	-200,000	0,008	0,046
-169,125	800,000	0,038	0,119
-168,110	101,123	0,080	0,068
-167,096	800,000	0,047	0,107
-166,081	412,895	0,041	-0,064
-165,066	-200,000	-0,048	-0,164
-164,052	794,740	-0,029	0,059
-163,037	-200,000	0,020	0,072
-162,023	362,293	-0,108	0,158
-161,008	104,562	0,044	0,037
-159,993	404,493	-0,084	-0,129
-158,979	-84,649	0,008	-0,002
-157,964	48,555	0,120	-0,081
-156,950	-1,471	-0,047	-0,024
-155,935	394,499	-0,037	0,056
-154,920	-200,000	-0,005	0,063
-153,906	800,000	-0,020	0,051
-152,891	-23,869	0,040	0,018
-151,877	632,914	0,054	-0,099
-150,862	347,058	0,043	0,061
-149,847	-36,773	-0,095	-0,037
-148,833	800,000	0,019	0,044
-147,818	-200,000	-0,008	0,068
-146,804	-200,000	0,005	-0,022
-145,789	800,000	-0,053	0,157
-144,775	-55,516	0,083	-0,027
-143,760	295,003	-0,033	-0,044
-142,745	-200,000	-0,031	-0,176
-141,731	-114,118	-0,171	-0,024
-140,716	-121,098	-0,040	-0,005
-139,702	-200,000	0,018	0,066
-138,687	800,000	-0,028	0,084
-137,672	800,000	0,036	-0,089
-136,658	-58,124	-0,035	-0,011
-135,643	361,739	-0,022	0,032
-134,629	-135,894	-0,151	0,013
-133,614	291,216	0,016	0,022
-132,599	83,128	-0,095	0,075
-131,585	-28,247	0,027	-0,011
-130,570	18,437	0,004	0,003
-129,556	44,565	-0,050	-0,033
-128,541	-200,000	-0,040	-0,161
-127,526	-200,000	0,001	-0,020
-126,512	-47,807	0,105	0,037
-125,497	-172,959	-0,092	0,002
-124,483	52,902	0,185	0,128
-123,468	-134,601	-0,112	0,010
-122,453	-35,242	-0,053	0,021
-121,439	800,000	0,019	-0,051
-120,424	527,658	-0,057	-0,097
-119,410	-200,000	-0,027	0,148
-118,395	-200,000	0,005	0,104
-117,380	800,000	0,071	-0,149
-116,366	107,551	0,076	-0,066
-115,351	-81,752	-0,056	-0,013
-114,337	422,062	-0,031	-0,049
-113,322	-85,030	0,047	-0,011
-112,307	800,000	0,072	-0,147
-111,293	34,683	-0,079	0,050
-110,278	149,395	0,076	-0,074
-109,264	-119,859	-0,060	-0,007
-108,249	-200,000	0,007	0,025
-107,234	800,000	-0,017	0,039
-106,220	800,000	-0,024	-0,074
-105,205	-200,000	0,007	-0,080
-104,191	-23,181	-0,114	-0,049
-103,176	-127,415	0,068	0,007
-102,162	800,000	0,024	0,077
-101,147	20,867	-0,051	0,030
-100,132	55,878	0,044	-0,031
-99,118	800,000	0,015	-0,036
-98,103	17,105	-0,113	0,065
-97,089	713,549	0,020	0,039
-96,074	-29,574	-0,029	-0,012
-95,059	135,406	-0,165	0,156
-94,045	-200,000	-0,009	0,142
-93,030	357,268	0,032	-0,046
-92,016	-200,000	0,011	-0,058
-91,001	-200,000	-0,020	-0,109
-89,986	81,640	-0,031	-0,024
-88,972	800,000	0,008	0,024
-87,957	-200,000	0,013	-0,131
-86,943	800,000	-0,030	-0,085
-85,928	141,832	-0,100	-0,097
-84,913	800,000	-0,022	0,053
-83,899	-200,000	0,007	0,125
-82,884	800,000	0,049	0,136
-81,870	-200,000	0,000	0,003
-80,855	-200,000	-0,003	0,102
-79,840	-45,320	0,017	0,006
-78,826	2,795	0,074	0,039
-77,811	-200,000	-0,009	-0,159
-76,797	-94,551	-0,047	0,009
-75,782	9,606	-0,072	-0,039
-74,767	113,351	0,059	0,052
-73,753	342,425	-0,029	0,042
-72,738	214,250	-0,057	0,065
-71,724	-94,347	0,109	0,022
-70,709	-200,000	-0,031	-0,170
-69,694	-121,523	-0,097	0,012
-68,680	-0,507	0,102	0,052
-67,665	-4,037	0,008	-0,004
-66,651	-200,000	-0,001	-0,024
-65,636	-59,548	0,133	0,041
-64,622	181,584	0,023	0,025
-63,607	113,041	0,024	-0,021
-62,592	-200,000	-0,022	0,105
-61,578	-25,084	0,075	0,032
-60,563	-200,000	0,017	0,131
-59,549	-200,000	-0,004	0,025
-58,534	-115,624	-1,249	-0,168
-57,519	402,247	-0,920	-1,408
-56,505	-200,000	-0,785	-4,367
-55,490	-55,384	0,554	-0,179
-54,476	800,000	5,053	11,612
-53,461	-200,000	13,947	254,045
-52,446	-200,000	694,077	2260,936
-51,432	599,202	1624,088	2934,081
-50,417	117,436	1632,824	1456,296
-49,403	73,150	1286,783	974,578
-48,388	37,211	1023,002	655,658
-47,373	23,801	981,243	584,809
-46,359	23,088	970,714	576,177
-45,344	21,993	966,513	570,085
-44,330	21,910	965,089	568,952
-43,315	21,821	963,528	567,719
-42,300	21,804	962,568	567,076
-41,286	21,807	961,483	566,424
-40,271	21,798	960,523	565,807
-39,257	21,759	959,721	565,184
-38,242	21,780	958,747	564,658
-37,227	21,809	957,846	564,197
-36,213	21,663	957,106	563,268
-35,198	21,700	956,161	562,807
-34,184	21,747	955,512	562,557
-33,169	21,696	954,673	561,874
-32,154	21,842	953,579	561,679
-31,140	21,780	952,910	561,062
-30,125	21,801	952,071	560,613
-29,111	21,773	951,179	559,977
-28,096	21,762	950,471	559,504
-27,082	21,746	949,923	559,106
-26,067	21,832	948,943	558,782
-25,052	21,788	948,449	558,328
-24,038	21,795	947,669	557,871
-23,023	21,754	947,025	557,338
-22,009	21,833	946,341	557,165
-20,994	21,807	945,796	556,741
-19,979	21,797	944,960	556,194
-18,965	21,774	944,599	555,887
-17,950	21,815	943,897	555,581
-16,936	21,708	943,301	554,867
-15,921	21,728	942,458	554,412
-14,906	21,635	941,763	553,687
-13,892	21,697	941,120	553,485
-12,877	21,700	940,399	553,048
-11,863	21,643	939,822	552,506
-10,848	21,669	939,355	552,292
-9,833	21,741	938,917	552,241
-8,819	21,722	938,436	551,875
-7,804	21,701	937,506	551,239
-6,790	21,625	937,169	550,779
-5,775	21,727	936,343	550,593
-4,760	21,626	935,829	549,953
-3,746	21,659	935,219	549,674
-2,731	21,478	934,669	548,757
-1,717	21,438	933,860	548,136
-0,702	21,504	933,106	547,880
0,313	21,304	932,426	547,678
1,327	23,768	930,140	554,025
2,342	31,354	809,030	502,455
3,356	26,197	510,804	308,377
4,371	1,969	376,032	195,991
5,386	-0,848	359,117	183,677
6,400	-1,673	353,104	179,583
7,415	-1,781	350,888	178,310
8,429	-1,619	349,601	177,834
9,444	-1,505	348,563	177,428
10,459	-1,371	347,912	177,241
11,473	-1,555	347,427	176,758
12,488	-1,428	346,577	176,461
13,502	-1,604	346,098	175,992
14,517	-1,484	345,594	175,863
15,531	-1,397	345,157	175,729
16,546	-1,288	344,895	175,709
17,561	-1,231	344,415	175,517
18,575	-1,176	343,912	175,309
19,590	-1,197	343,610	175,115
20,604	-1,076	343,343	175,105
21,619	-1,123	343,029	174,875
22,634	-1,250	342,624	174,502
23,648	-1,193	342,095	174,285
24,663	-1,254	341,863	174,079
25,677	-1,211	341,583	173,971
26,692	-1,155	341,261	173,858
27,707	-1,241	341,142	173,681
28,721	-1,172	340,649	173,495
29,736	-1,311	340,424	173,203
30,750	-1,230	340,012	173,072
31,765	-1,346	339,799	172,812
32,780	-1,227	339,502	172,785
33,794	-1,189	339,153	172,636
34,809	-1,411	339,082	172,327
35,823	-1,180	338,621	172,345
36,838	-1,334	338,583	172,132
37,853	-1,217	338,067	171,990
38,867	-1,252	337,819	171,808
39,882	-1,342	337,464	171,508
40,896	-1,220	337,389	171,596
41,911	-1,254	337,074	171,381
42,926	-1,058	336,780	171,443
43,940	-1,243	336,442	171,041
44,955	-1,159	336,197	170,999
45,969	-1,270	336,008	170,759
46,984	-1,260	335,676	170,586
47,999	-1,075	335,348	170,617
49,013	-1,229	335,267	170,384
50,028	-1,269	334,891	170,132
51,042	-1,378	334,582	169,835
52,057	-1,400	334,391	169,697
53,071	-1,346	334,046	169,570
54,086	-1,319	333,886	169,504
55,101	-1,288	333,717	169,438
56,115	-1,252	333,433	169,321
57,130	-1,150	332,926	169,164
58,144	-1,230	332,756	168,971
59,159	-1,331	332,626	168,775
60,174	-1,291	332,471	168,727
61,188	-1,331	332,031	168,444
62,203	-1,174	331,681	168,429
63,217	-1,266	331,460	168,198
64,232	-1,464	331,356	167,904
65,247	-1,293	330,880	167,842
66,261	-1,379	330,795	167,687
67,276	-1,273	330,526	167,655
68,290	-1,386	330,270	167,383
69,305	-1,259	329,938	167,343
70,320	-1,270	329,673	167,181
71,334	-1,151	329,530	167,228
72,349	-1,267	329,282	166,957
73,363	-1,236	328,790	166,727
74,378	-1,309	328,709	166,588
75,393	-1,344	328,445	166,401
76,407	-1,211	328,181	166,402
77,422	-1,245	328,065	166,290
78,436	-1,307	327,739	166,040
79,451	-1,284	327,511	165,936
80,466	-1,190	327,077	165,807
81,480	-1,233	327,008	165,708
82,495	-1,195	326,750	165,606
83,509	-1,257	326,550	165,421
84,524	-1,318	326,343	165,232
85,539	-1,325	326,035	165,054
86,553	-1,131	325,661	165,066
87,568	-1,245	325,495	164,840
88,582	-1,185	325,245	164,766
89,597	-1,274	325,028	164,542
90,611	-1,372	324,878	164,343
91,626	-1,098	324,489	164,435
92,641	-1,205	324,416	164,265
93,655	-1,303	324,220	164,042
94,670	-1,173	323,880	164,000
95,684	-1,249	323,536	163,726
96,699	-1,299	323,449	163,613
97,714	-1,265	323,184	163,502
98,728	-1,271	323,044	163,410
99,743	-1,198	322,699	163,302
100,757	-1,230	322,443	163,122
101,772	-1,229	322,265	163,018
102,787	-1,323	322,034	162,783
103,801	-1,347	321,786	162,618
104,816	-1,155	321,479	162,658
105,830	-1,308	321,454	162,463
106,845	-1,230	321,125	162,368
107,860	-1,205	320,842	162,238
108,874	-1,273	320,462	161,957
109,889	-1,386	320,470	161,823
110,903	-1,209	320,050	161,790
111,918	-1,370	319,885	161,516
112,933	-1,309	319,749	161,499
113,947	-1,330	319,364	161,268
114,962	-1,340	319,318	161,220
115,976	-1,386	319,029	161,010
116,991	-1,347	318,831	160,937
118,006	-1,282	318,632	160,893
119,020	-1,240	318,430	160,823
120,035	-1,442	318,318	160,532
121,049	-1,247	318,016	160,576
122,064	-1,320	317,739	160,344
123,079	-1,222	317,410	160,270
124,093	-1,221	317,238	160,170
125,108	-1,162	316,955	160,076
126,122	-1,202	316,852	159,966
127,137	-1,255	316,658	159,797
128,151	-1,282	316,473	159,661
129,166	-1,140	316,186	159,654
130,181	-1,257	315,909	159,374
131,195	-1,262	315,735	159,267
132,210	-1,207	315,384	159,135
133,224	-1,321	315,374	158,993
134,239	-1,322	315,082	158,830
135,254	-1,361	314,665	158,564
136,268	-1,195	314,384	158,586
137,283	-1,188	314,182	158,478
138,297	-1,189	313,937	158,339
139,312	-1,372	313,777	158,049
140,327	-1,222	313,564	158,087
141,341	-1,110	313,450	158,136
142,356	-1,262	313,109	157,787
143,370	-1,327	312,939	157,618
144,385	-1,201	312,840	157,689
145,400	-1,055	312,530	157,674
146,414	-1,102	312,355	157,521
147,429	-1,208	312,211	157,321
148,443	-1,176	311,926	157,198
149,458	-1,233	311,483	156,900
150,473	-1,282	311,407	156,796
151,487	-1,191	311,262	156,806
152,502	-1,391	311,188	156,543
153,516	-1,332	310,947	156,470
154,531	-1,314	310,531	156,266
155,546	-1,200	310,359	156,286
156,560	-1,162	310,222	156,242
157,575	-0,979	309,868	156,242
158,589	-1,290	309,753	155,843
159,604	-1,377	309,562	155,642
160,619	-1,116	309,284	155,763
161,633	-1,214	309,139	155,573
162,648	-1,151	308,976	155,543
163,662	-1,166	308,744	155,397
164,677	-1,263	308,586	155,202
165,692	-1,073	308,247	155,216
166,706	-1,221	308,159	155,003
167,721	-1,030	307,931	155,074
168,735	-1,133	307,863	154,919
169,750	-1,198	307,601	154,705
170,764	-1,149	307,260	154,571
171,779	-1,335	307,206	154,337
172,794	-1,262	306,939	154,264
173,808	-1,216	306,707	154,182
174,823	-1,219	306,388	154,005
175,837	-1,431	306,299	153,726
176,852	-1,254	306,007	153,750
177,867	-1,279	305,876	153,644
178,881	-1,240	305,635	153,549
179,896	-1,264	305,571	153,479
180,910	-1,249	305,311	153,350
181,925	-1,345	304,969	153,065
182,940	-1,264	304,927	153,115
183,954	-1,199	304,605	153,006
184,969	-0,940	304,392	153,153
185,983	-1,057	304,358	153,001
186,998	-1,179	304,117	152,741
188,013	-1,034	303,880	152,758
189,027	-1,102	303,645	152,556
190,042	-1,110	303,388	152,405
191,056	-1,310	303,270	152,127
192,071	-1,231	302,978	152,047
193,086	-1,477	302,764	151,675
194,100	-1,331	302,486	151,671
195,115	-1,183	302,328	151,730
196,129	-1,107	302,149	151,704
197,144	-1,199	301,812	151,427
198,159	-1,337	301,660	151,197
199,173	-1,328	301,432	151,078
200,188	-1,339	301,172	150,923
201,202	-1,360	300,986	150,796
202,217	-1,233	300,843	150,840
203,232	-1,286	300,605	150,652
204,246	-1,151	300,314	150,631
205,261	-1,145	300,110	150,520
206,275	-1,189	300,214	150,514
207,290	-1,075	299,893	150,456
208,304	-0,988	299,660	150,414
209,319	-1,302	299,623	150,064
210,334	-1,368	299,426	149,885
211,348	-1,186	299,025	149,855
212,363	-1,108	298,812	149,813
213,377	-1,022	298,681	149,822
214,392	-1,083	298,492	149,652
215,407	-1,232	298,426	149,455
216,421	-1,222	298,168	149,322
217,436	-1,226	297,840	149,141
218,450	-1,256	297,715	149,035
219,465	-1,326	297,342	148,765
220,480	-1,101	297,296	148,954
221,494	-1,246	297,118	148,706
222,509	-1,391	297,143	148,560
223,523	-1,224	296,828	148,557
224,538	-1,288	296,659	148,395
225,553	-1,160	296,297	148,328
226,567	-1,142	296,179	148,275
227,582	-1,052	296,004	148,263
228,596	-1,173	295,890	148,072
229,611	-1,318	295,754	147,846
230,626	-1,293	295,437	147,699
231,640	-1,177	295,157	147,662
232,655	-1,104	294,926	147,605
233,669	-1,211	294,760	147,403
234,684	-1,136	294,585	147,377
235,699	-1,393	294,462	147,046
236,713	-1,162	294,260	147,162
237,728	-1,037	293,918	147,102
238,742	-1,194	293,598	146,773
239,757	-1,315	293,570	146,626
240,772	-1,356	293,342	146,459
241,786	-1,264	293,090	146,411
242,801	-1,209	293,107	146,461
243,815	-1,269	292,875	146,272
244,830	-1,412	292,742	146,052
245,844	-1,154	292,471	146,158
246,859	-1,207	292,205	145,960
247,874	-1,293	292,040	145,780
248,888	-1,373	292,016	145,676
249,903	-1,334	291,710	145,548
250,917	-1,375	291,500	145,391
251,932	-1,440	291,313	145,220
252,947	-1,785	291,011	144,719
253,961	-2,434	290,416	143,775
254,976	-3,122	289,914	142,841
255,990	-2,980	289,791	142,905
257,005	-1,774	290,379	144,363
258,020	0,889	291,181	147,360
259,034	1,832	291,478	148,421
260,049	2,349	291,407	148,878
261,063	2,852	291,411	149,359
262,078	3,002	291,264	149,418
263,093	3,216	291,206	149,584
264,107	3,291	291,268	149,676
265,122	3,551	291,066	149,813
266,136	3,655	290,804	149,765
267,151	3,584	290,611	149,583
268,166	3,655	290,398	149,530
269,180	3,688	290,151	149,421
270,195	3,639	290,053	149,310
271,209	3,418	289,904	149,005
272,224	3,423	289,571	148,826
273,239	3,442	289,563	148,827
274,253	3,410	289,125	148,557
275,268	3,277	289,044	148,373
276,282	3,230	288,742	148,160
277,297	3,335	288,567	148,158
278,312	3,455	288,502	148,227
279,326	3,454	288,277	148,098
280,341	3,365	288,078	147,897
281,355	3,422	287,907	147,851
282,370	3,227	287,523	147,452
283,384	3,251	287,466	147,433
284,399	3,332	287,217	147,370
285,414	3,223	287,185	147,235
286,428	3,233	286,943	147,108
287,443	3,260	286,651	146,971
288,457	3,197	286,433	146,786
289,472	3,217	286,299	146,723
290,487	3,291	286,083	146,671
291,501	2,963	285,908	146,254
292,516	3,252	285,822	146,473
293,530	3,116	285,473	146,151
294,545	2,966	285,345	145,929
295,560	2,906	285,148	145,758
296,574	3,016	284,966	145,757
297,589	3,077	284,736	145,685
298,603	2,971	284,562	145,481
299,618	3,176	284,341	145,551
300,633	3,107	284,192	145,396
301,647	3,058	284,106	145,293
302,662	3,220	283,837	145,296
303,676	3,541	283,758	145,547
304,691	3,367	283,496	145,235
305,706	3,440	283,471	145,278
306,720	3,388	283,326	145,141
307,735	3,339	283,188	145,011
308,749	3,395	283,028	144,970
309,764	3,326	282,696	144,722
310,779	3,336	282,607	144,673
311,793	3,139	282,420	144,378
312,808	3,338	282,269	144,475
313,822	3,296	281,912	144,241
314,837	3,260	281,812	144,142
315,852	3,459	281,592	144,205
316,866	3,489	281,345	144,094
317,881	3,215	281,402	143,852
318,895	3,227	281,114	143,703
319,910	3,138	280,857	143,475
320,925	3,257	280,688	143,487
321,939	3,267	280,615	143,447
322,954	3,368	280,453	143,446
323,968	3,497	280,265	143,458
324,983	3,479	280,057	143,322
325,997	3,529	279,960	143,306
327,012	3,607	279,745	143,256
328,027	3,661	279,391	143,112
329,041	3,492	279,335	142,914
330,056	3,714	279,148	143,012
331,070	3,464	278,945	142,662
332,085	3,505	278,827	142,627
333,100	3,614	278,533	142,566
334,114	3,615	278,296	142,433
335,129	3,530	278,230	142,307
336,143	3,485	278,005	142,137
337,158	3,472	277,931	142,075
338,173	3,600	277,736	142,081
339,187	3,499	277,646	141,929
340,202	3,626	277,318	141,866
341,216	3,456	277,191	141,632
342,231	3,318	276,905	141,345
343,246	3,338	276,773	141,284
344,260	3,394	276,747	141,309
345,275	3,541	276,579	141,347
346,289	3,706	276,308	141,347
347,304	3,579	276,282	141,205
348,319	3,564	275,906	140,986
349,333	3,585	275,799	140,938
350,348	3,617	275,476	140,790
351,362	3,661	275,380	140,769
352,377	3,563	275,187	140,567
353,392	3,598	275,126	140,555
354,406	3,548	274,951	140,408
355,421	192,461	1350,146	1433,422
356,435	155,484	1481,243	1433,555
