DTS Sentinel unit serial number:	SN410029Multiplexer serial number:	ORYXHardware model number:	OX2-SRSoftware version number:	ORYX F/W v4,00 Oryx Data Collector v3.7.2.0data status	okinstallation	B4 Nyhavnadifferential loss correction	single-endedforward channel	channel 2reverse channel	N/Adate	2023/12/16time	01:05:13forward acquisition time	300,00reverse acquisition time	0,00gamma	499,1914k internal	0,3128k external	0,3128temperature offset calibration	1,0000default loss term (dB/km)	0,3820temperature slope calibration	1,0000multiplexer offset coefficient	1,0000multiplexer slope coefficient	1,0000fibre end	0,00T internal ref (°C)	21,92T ext. ref 1 (°C)	6,97T ext. ref 2 (°C)	7,15length (m)	temperature (°C)	Stokes	anti-Stokes-744,400	-200,000	-0,025	-0,138
-743,385	65,015	-0,170	0,128
-742,371	-130,360	0,086	-0,009
-741,356	151,618	-0,098	0,099
-740,342	800,000	0,035	-0,078
-739,327	-109,076	-0,214	0,033
-738,312	368,209	0,051	-0,077
-737,298	-174,617	-0,224	-0,005
-736,283	627,450	-0,013	0,024
-735,269	-93,618	-0,174	-0,035
-734,254	-200,000	0,013	0,069
-733,239	-148,352	-0,440	0,026
-732,225	67,703	0,088	0,067
-731,210	-200,000	0,020	0,135
-730,196	643,968	0,057	-0,109
-729,181	152,058	0,021	-0,022
-728,167	69,131	-0,033	-0,025
-727,152	-200,000	0,154	0,000
-726,137	362,854	-0,052	-0,078
-725,123	-200,000	0,003	-0,019
-724,108	800,000	-0,060	-0,136
-723,094	47,010	-0,114	-0,079
-722,079	140,999	-0,065	-0,064
-721,064	800,000	0,020	-0,052
-720,050	-200,000	-0,001	0,182
-719,035	-200,000	-0,001	-0,142
-718,021	134,251	0,022	-0,021
-717,006	13,973	-0,071	-0,041
-715,991	-2,965	0,113	-0,058
-714,977	334,817	-0,087	-0,126
-713,962	217,564	-0,066	-0,078
-712,948	23,134	-0,080	0,049
-711,933	117,426	0,049	0,045
-710,918	-105,476	-0,054	-0,009
-709,904	-33,253	-0,185	0,076
-708,889	-13,081	-0,145	-0,070
-707,875	-116,283	-0,065	-0,009
-706,860	26,182	-0,114	-0,070
-705,845	-200,000	-0,009	0,122
-704,831	43,824	-0,052	0,035
-703,816	-200,000	0,019	0,084
-702,802	-34,955	-0,053	-0,021
-701,787	462,715	-0,040	-0,067
-700,772	-200,000	-0,057	-0,189
-699,758	-73,765	-0,125	0,034
-698,743	77,198	0,129	-0,102
-697,729	-28,798	0,133	-0,056
-696,714	159,191	0,042	-0,043
-695,699	265,690	-0,062	0,080
-694,685	-200,000	0,024	-0,149
-693,670	31,584	-0,121	-0,077
-692,656	54,913	0,087	-0,063
-691,641	55,397	-0,053	-0,038
-690,627	67,150	0,189	0,143
-689,612	227,386	-0,029	0,035
-688,597	-72,169	0,050	0,014
-687,583	80,988	-0,055	-0,044
-686,568	-84,730	-0,089	-0,021
-685,554	800,000	-0,022	-0,046
-684,539	-89,444	-0,089	0,019
-683,524	-200,000	0,001	-0,027
-682,510	193,769	0,054	0,060
-681,495	800,000	0,004	-0,009
-680,481	-100,912	-0,051	-0,009
-679,466	240,989	-0,040	-0,050
-678,451	-55,512	-0,119	0,039
-677,437	349,510	0,025	0,037
-676,422	-53,460	-0,082	0,028
-675,408	-106,923	-0,126	0,020
-674,393	-104,650	-0,076	0,013
-673,378	266,839	-0,050	-0,065
-672,364	-200,000	-0,026	-0,182
-671,349	-200,000	-0,004	-0,044
-670,335	219,056	0,103	-0,123
-669,320	118,578	0,102	0,093
-668,305	-46,190	-0,178	-0,065
-667,291	227,968	0,087	-0,105
-666,276	800,000	0,059	-0,150
-665,262	102,828	-0,133	-0,115
-664,247	385,256	-0,012	-0,018
-663,232	-200,000	-0,001	-0,047
-662,218	797,551	-0,025	0,052
-661,203	800,000	-0,012	-0,030
-660,189	676,829	-0,016	-0,030
-659,174	800,000	0,036	-0,084
-658,159	-123,765	-0,183	-0,021
-657,145	156,808	-0,072	-0,074
-656,130	-54,339	0,090	-0,030
-655,116	-200,000	0,004	0,129
-654,101	101,602	-0,103	0,089
-653,086	-93,604	-0,056	-0,011
-652,072	-33,516	-0,063	-0,026
-651,057	-62,623	-0,085	-0,026
-650,043	-200,000	-0,044	0,217
-649,028	-28,633	0,159	-0,068
-648,014	-200,000	0,020	0,107
-646,999	800,000	0,055	-0,168
-645,984	-122,760	-0,170	-0,020
-644,970	156,680	-0,075	-0,077
-643,955	-55,613	0,085	-0,028
-642,941	202,272	-0,016	-0,018
-641,926	293,280	0,056	-0,077
-640,911	-69,881	-0,086	-0,024
-639,897	705,164	0,027	-0,053
-638,882	-200,000	0,004	-0,086
-637,868	-106,429	-0,036	-0,006
-636,853	89,963	-0,060	0,050
-635,838	215,826	-0,067	-0,079
-634,824	-122,168	-0,074	0,009
-633,809	108,364	-0,031	-0,027
-632,795	-200,000	0,003	0,056
-631,780	-29,092	-0,089	0,038
-630,765	-8,737	0,008	-0,004
-629,751	-15,630	-0,053	0,025
-628,736	-200,000	0,033	-0,151
-627,722	372,551	0,089	-0,134
-626,707	578,428	0,083	-0,150
-625,692	678,939	-0,061	0,118
-624,678	-132,068	0,046	-0,004
-623,663	42,563	0,111	-0,074
-622,649	83,148	-0,100	-0,081
-621,634	127,341	-0,076	-0,072
-620,619	568,369	-0,048	-0,087
-619,605	800,000	-0,052	0,134
-618,590	-68,469	0,042	-0,012
-617,576	501,875	-0,039	0,066
-616,561	-131,071	-0,045	-0,004
-615,546	800,000	-0,046	-0,146
-614,532	-81,900	-0,163	0,039
-613,517	-200,000	0,001	0,084
-612,503	77,472	0,044	0,034
-611,488	101,217	0,133	-0,114
-610,474	-200,000	-0,003	-0,042
-609,459	124,420	-0,094	0,088
-608,444	-147,479	-0,050	-0,003
-607,430	-162,133	-0,060	0,002
-606,415	60,214	-0,057	-0,042
-605,401	174,637	0,060	0,065
-604,386	-200,000	-0,011	0,070
-603,371	-200,000	-0,003	0,136
-602,357	5,959	-0,021	0,011
-601,342	-130,035	-0,064	-0,006
-600,328	-141,412	0,075	0,006
-599,313	-200,000	-0,003	-0,068
-598,298	-75,490	-0,131	-0,034
-597,284	-144,870	0,207	-0,014
-596,269	25,381	0,101	0,062
-595,255	-200,000	-0,004	-0,037
-594,240	252,016	-0,063	0,080
-593,225	-36,685	-0,076	-0,030
-592,211	-200,000	0,001	0,027
-591,196	412,252	-0,058	0,092
-590,182	-79,155	-0,070	0,017
-589,167	-106,170	0,118	-0,019
-588,152	-100,204	0,050	-0,009
-587,138	800,000	0,006	-0,018
-586,123	-200,000	0,003	-0,114
-585,109	349,587	-0,071	-0,104
-584,094	-200,000	0,016	-0,059
-583,079	-200,000	-0,006	0,073
-582,065	-23,565	0,067	-0,029
-581,050	250,696	0,060	-0,076
-580,036	15,548	-0,073	0,042
-579,021	-190,101	-0,039	-0,000
-578,006	544,814	-0,015	0,026
-576,992	800,000	-0,037	-0,109
-575,977	-93,671	0,165	0,033
-574,963	800,000	0,028	0,083
-573,948	93,787	0,058	0,048
-572,934	44,058	-0,073	0,050
-571,919	-200,000	-0,028	-0,130
-570,904	-37,180	-0,086	0,034
-569,890	-34,133	-0,212	-0,086
-568,875	160,704	0,067	0,069
-567,861	-86,376	-0,074	-0,017
-566,846	62,780	0,036	0,026
-565,831	-80,247	-0,059	0,014
-564,817	286,543	0,028	-0,037
-563,802	-200,000	-0,012	0,093
-562,788	398,098	-0,135	-0,210
-561,773	-200,000	0,008	-0,071
-560,758	-2,003	-0,059	0,030
-559,744	-200,000	0,008	0,089
-558,729	20,565	0,047	0,028
-557,715	-92,698	0,139	0,028
-556,700	-128,100	-0,120	-0,013
-555,685	740,871	-0,054	-0,108
-554,671	-200,000	-0,027	-0,095
-553,656	-121,776	0,103	-0,012
-552,642	247,058	0,011	0,014
-551,627	234,052	-0,084	0,102
-550,612	800,000	0,010	-0,028
-549,598	188,826	-0,073	0,081
-548,583	11,137	-0,132	-0,074
-547,569	252,763	0,042	0,054
-546,554	-200,000	-0,006	0,120
-545,539	-200,000	-0,005	-0,030
-544,525	-98,207	-0,071	-0,013
-543,510	349,057	-0,077	0,113
-542,496	-60,364	-0,165	-0,052
-541,481	800,000	0,032	0,075
-540,466	-90,165	-0,037	0,008
-539,452	377,848	0,084	-0,128
-538,437	-140,181	0,112	-0,009
-537,423	-200,000	0,022	0,138
-536,408	344,937	0,060	-0,087
-535,393	635,962	-0,074	-0,140
-534,379	800,000	-0,045	-0,093
-533,364	-44,401	0,054	0,020
-532,350	-40,914	0,147	0,056
-531,335	-200,000	0,013	-0,102
-530,321	603,695	0,012	-0,023
-529,306	-175,763	-0,031	0,001
-528,291	-200,000	-0,013	-0,044
-527,277	562,765	0,057	0,102
-526,262	-78,186	0,192	0,048
-525,248	-118,263	-0,097	-0,013
-524,233	20,804	0,019	0,011
-523,218	200,608	0,057	0,065
-522,204	-39,192	-0,130	-0,050
-521,189	-200,000	-0,010	-0,144
-520,175	-159,459	0,048	0,002
-519,160	800,000	-0,039	-0,089
-518,145	35,396	0,063	-0,040
-517,131	-200,000	-0,019	0,154
-516,116	-17,318	0,092	0,043
-515,102	-60,353	-0,025	-0,008
-514,087	-200,000	-0,014	-0,069
-513,072	168,049	-0,095	-0,099
-512,058	430,628	-0,034	-0,054
-511,043	800,000	-0,021	0,065
-510,029	-200,000	0,017	0,090
-509,014	-200,000	-0,014	-0,055
-507,999	800,000	-0,045	-0,122
-506,985	177,722	-0,071	-0,077
-505,970	110,348	0,038	-0,033
-504,956	69,393	0,067	-0,051
-503,941	336,135	0,075	0,107
-502,926	202,769	0,036	-0,041
-501,912	-22,936	0,138	-0,061
-500,897	201,152	-0,068	0,078
-499,883	54,236	0,068	0,048
-498,868	63,171	0,066	-0,049
-497,853	48,330	-0,084	-0,058
-496,839	-200,000	0,025	-0,164
-495,824	-8,820	-0,126	0,062
-494,810	146,196	0,053	0,052
-493,795	310,039	0,040	-0,056
-492,781	236,396	-0,044	-0,054
-491,766	-18,622	-0,079	0,036
-490,751	-200,000	0,009	-0,032
-489,737	-200,000	0,039	-0,163
-488,722	-46,409	0,012	0,004
-487,708	514,133	0,042	0,072
-486,693	-147,117	-0,071	0,004
-485,678	265,551	0,049	0,063
-484,664	-200,000	0,014	0,077
-483,649	-200,000	-0,019	-0,103
-482,635	800,000	-0,023	0,058
-481,620	87,313	0,048	0,039
-480,605	-31,450	0,069	0,029
-479,591	74,989	0,129	0,100
-478,576	40,106	-0,025	0,016
-477,562	-57,472	0,048	-0,016
-476,547	-200,000	0,001	-0,155
-475,532	-135,725	-0,080	0,007
-474,518	-86,762	0,097	-0,022
-473,503	39,102	0,077	-0,051
-472,489	800,000	-0,046	-0,098
-471,474	-200,000	-0,014	-0,089
-470,459	-51,649	-0,073	0,025
-469,445	-200,000	0,002	-0,076
-468,430	-200,000	-0,033	0,263
-467,416	-120,852	0,092	-0,011
-466,401	186,234	0,048	0,053
-465,386	400,007	-0,076	0,118
-464,372	-200,000	0,014	-0,056
-463,357	800,000	-0,039	-0,116
-462,343	-74,709	-0,065	-0,017
-461,328	597,140	0,030	-0,055
-460,313	-200,000	0,012	0,053
-459,299	548,065	0,088	0,155
-458,284	-153,194	0,061	0,003
-457,270	-200,000	0,013	0,107
-456,255	-14,392	-0,108	0,051
-455,241	-101,864	-0,193	0,034
-454,226	800,000	-0,010	0,025
-453,211	-200,000	-0,032	-0,115
-452,197	512,081	0,067	0,116
-451,182	-75,192	-0,086	-0,022
-450,168	-60,304	-0,076	-0,024
-449,153	-39,151	-0,053	0,021
-448,138	-98,537	-0,097	0,018
-447,124	-85,018	-0,060	0,014
-446,109	-200,000	0,036	-0,129
-445,095	-200,000	-0,002	-0,120
-444,080	-162,150	0,088	0,003
-443,065	283,626	0,036	0,047
-442,051	412,885	0,043	-0,067
-441,036	92,680	-0,053	0,044
-440,022	-200,000	0,005	0,033
-439,007	576,867	0,019	0,034
-437,992	-103,187	0,096	-0,016
-436,978	-28,199	0,081	-0,034
-435,963	-23,925	-0,036	-0,016
-434,949	800,000	0,042	0,092
-433,934	130,715	-0,058	0,055
-432,919	-84,336	-0,110	-0,025
-431,905	393,122	-0,053	-0,082
-430,890	32,648	-0,088	0,056
-429,876	12,547	-0,059	0,033
-428,861	364,787	0,019	0,028
-427,846	450,591	0,038	-0,062
-426,832	103,852	-0,089	-0,077
-425,817	-37,205	-0,062	-0,024
-424,803	-200,000	-0,005	-0,034
-423,788	-200,000	-0,009	0,230
-422,773	-103,659	-0,047	-0,008
-421,759	-200,000	0,038	0,137
-420,744	211,381	0,066	0,077
-419,730	-46,740	-0,059	-0,021
-418,715	232,847	0,081	-0,098
-417,701	-1,936	-0,078	-0,040
-416,686	800,000	0,019	0,045
-415,671	27,372	0,102	0,063
-414,657	-33,360	0,071	-0,029
-413,642	-200,000	-0,007	0,048
-412,628	-104,673	0,131	-0,022
-411,613	-20,478	0,060	-0,027
-410,598	-3,840	-0,034	0,017
-409,584	138,450	-0,033	-0,032
-408,569	-200,000	0,038	0,186
-407,555	-200,000	0,021	0,209
-406,540	213,106	0,096	0,111
-405,525	27,858	0,030	-0,019
-404,511	800,000	0,087	-0,253
-403,496	142,428	-0,114	-0,111
-402,482	161,282	-0,024	0,024
-401,467	-153,001	-0,099	-0,005
-400,452	-200,000	0,021	0,075
-399,438	-74,300	-0,090	-0,024
-398,423	299,905	-0,047	-0,064
-397,409	-54,325	0,054	-0,018
-396,394	-66,898	-0,085	-0,024
-395,379	-66,515	0,049	-0,014
-394,365	-144,234	0,075	0,005
-393,350	726,880	0,039	0,077
-392,336	59,208	0,052	-0,037
-391,321	761,588	0,037	-0,073
-390,306	-116,040	-0,105	0,014
-389,292	139,376	-0,041	-0,040
-388,277	-35,013	-0,111	0,044
-387,263	-89,681	0,124	0,026
-386,248	15,968	0,059	0,034
-385,233	24,097	0,145	-0,088
-384,219	-200,000	-0,005	-0,090
-383,204	510,354	-0,082	-0,140
-382,190	661,991	0,082	-0,155
-381,175	-130,819	0,094	-0,009
-380,160	48,049	0,162	-0,111
-379,146	591,711	-0,116	0,211
-378,131	800,000	0,052	0,113
-377,117	800,000	-0,037	-0,111
-376,102	800,000	-0,027	0,077
-375,088	-31,494	0,059	0,024
-374,073	480,957	-0,027	0,044
-373,058	-200,000	0,011	0,157
-372,044	-143,404	-0,066	0,005
-371,029	232,115	-0,048	0,058
-370,015	115,338	0,082	0,073
-369,000	242,291	-0,116	-0,142
-367,985	800,000	-0,037	0,098
-366,971	553,447	0,097	-0,171
-365,956	-200,000	-0,021	-0,119
-364,942	665,176	0,064	-0,121
-363,927	160,616	0,013	-0,014
-362,912	-193,022	-0,094	0,001
-361,898	-200,000	-0,017	-0,071
-360,883	-200,000	0,028	-0,133
-359,869	-200,000	0,019	-0,148
-358,854	488,582	-0,053	-0,089
-357,839	148,565	-0,023	0,023
-356,825	-16,943	-0,095	0,044
-355,810	800,000	0,063	0,191
-354,796	-200,000	-0,002	0,036
-353,781	45,046	-0,047	-0,032
-352,766	-15,506	-0,092	-0,043
-351,752	415,093	-0,014	0,021
-350,737	202,481	0,077	0,087
-349,723	800,000	0,024	-0,073
-348,708	21,102	0,134	-0,080
-347,693	-194,199	-0,036	-0,000
-346,679	374,494	0,034	-0,050
-345,664	-200,000	-0,032	-0,130
-344,650	-200,000	0,028	-0,103
-343,635	151,518	-0,069	0,069
-342,620	73,200	-0,022	-0,017
-341,606	-1,269	0,117	-0,060
-340,591	-200,000	-0,018	0,092
-339,577	29,216	-0,081	-0,051
-338,562	369,794	0,035	0,052
-337,548	-37,208	-0,116	-0,045
-336,533	77,715	0,072	0,056
-335,518	-200,000	0,021	0,195
-334,504	-53,558	-0,096	-0,032
-333,489	800,000	0,009	-0,026
-332,475	-200,000	-0,013	-0,126
-331,460	-200,000	0,005	0,080
-330,445	712,306	0,047	0,092
-329,431	-157,409	0,212	0,009
-328,416	21,049	0,061	0,036
-327,402	43,063	-0,048	0,032
-326,387	-200,000	-0,022	-0,071
-325,372	-26,971	0,046	-0,020
-324,358	241,817	0,003	-0,003
-323,343	213,401	-0,053	-0,061
-322,329	-117,297	0,049	-0,006
-321,314	-200,000	-0,013	-0,104
-320,299	-128,465	-0,152	-0,016
-319,285	-200,000	-0,011	-0,044
-318,270	-115,118	-0,109	0,015
-317,256	-95,544	-0,029	-0,006
-316,241	-200,000	-0,033	0,115
-315,226	247,719	0,071	0,087
-314,212	-106,471	0,131	0,021
-313,197	-200,000	-0,026	0,115
-312,183	-20,215	0,151	0,068
-311,168	-23,083	0,198	0,087
-310,153	-200,000	0,014	-0,060
-309,139	335,436	0,019	-0,028
-308,124	90,378	0,070	-0,057
-307,110	-71,556	-0,090	-0,024
-306,095	540,585	0,061	0,106
-305,080	-200,000	-0,019	0,100
-304,066	117,177	-0,057	-0,051
-303,051	465,823	0,032	-0,053
-302,037	-77,626	-0,075	0,019
-301,022	-1,343	0,045	0,023
-300,008	-45,326	0,147	-0,053
-298,993	47,463	-0,073	0,049
-297,978	61,990	0,096	-0,070
-296,964	463,780	-0,018	-0,030
-295,949	390,041	0,033	-0,051
-294,935	800,000	0,032	-0,091
-293,920	800,000	0,053	0,130
-292,905	-132,482	0,121	0,011
-291,891	-200,000	-0,008	0,170
-290,876	-200,000	0,030	0,167
-289,862	71,074	0,153	-0,116
-288,847	148,397	-0,098	-0,096
-287,832	-85,860	0,035	-0,008
-286,818	-200,000	-0,035	0,114
-285,803	-27,485	-0,061	-0,026
-284,789	579,615	0,037	-0,066
-283,774	-88,511	0,177	0,038
-282,759	-200,000	-0,048	0,000
-281,745	399,326	-0,060	0,092
-280,730	76,802	0,087	0,068
-279,716	109,395	0,029	-0,025
-278,701	14,564	0,055	0,031
-277,686	171,619	-0,018	0,019
-276,672	-200,000	0,013	-0,051
-275,657	111,112	0,099	0,087
-274,643	69,462	-0,085	-0,064
-273,628	-66,723	-0,048	0,014
-272,613	594,828	0,028	-0,051
-271,599	51,545	0,044	0,030
-270,584	-57,078	0,044	-0,014
-269,570	270,267	-0,107	0,137
-268,555	135,606	0,132	0,125
-267,540	-99,002	-0,124	-0,023
-266,526	105,419	0,078	-0,067
-265,511	-200,000	-0,006	0,079
-264,497	79,944	-0,038	-0,030
-263,482	71,228	0,040	-0,030
-262,467	248,614	-0,083	0,103
-261,453	800,000	0,043	0,094
-260,438	-6,129	-0,043	-0,021
-259,424	-143,599	-0,083	0,006
-258,409	286,665	0,051	0,067
-257,395	-200,000	0,019	0,113
-256,380	163,857	0,027	0,028
-255,365	-31,945	-0,128	0,052
-254,351	-75,255	0,153	0,040
-253,336	422,099	0,063	0,099
-252,322	-200,000	0,002	0,050
-251,307	800,000	-0,023	0,049
-250,292	178,709	-0,005	-0,005
-249,278	800,000	-0,020	-0,056
-248,263	-157,983	0,204	-0,009
-247,249	84,166	0,038	-0,031
-246,234	800,000	0,052	-0,123
-245,219	24,931	-0,105	-0,064
-244,205	-200,000	-0,001	-0,155
-243,190	-5,871	0,042	-0,021
-242,176	-121,938	0,101	0,012
-241,161	-99,661	-0,034	0,006
-240,146	108,942	-0,045	0,039
-239,132	-19,366	0,150	0,068
-238,117	-77,492	-0,051	0,013
-237,103	399,935	-0,014	-0,021
-236,088	-42,742	0,055	-0,020
-235,073	-101,419	-0,054	0,009
-234,059	-158,429	0,031	0,001
-233,044	191,172	-0,053	0,058
-232,030	102,815	-0,111	0,094
-231,015	667,012	-0,038	-0,072
-230,000	-9,767	-0,034	-0,017
-228,986	-200,000	-0,004	0,090
-227,971	268,165	0,070	0,089
-226,957	490,725	-0,084	-0,141
-225,942	-152,525	0,086	0,004
-224,927	369,745	-0,072	-0,106
-223,913	-50,548	-0,100	-0,034
-222,898	74,834	0,057	-0,044
-221,884	40,325	-0,114	-0,075
-220,869	-192,442	0,121	-0,001
-219,855	27,915	0,094	-0,058
-218,840	-136,079	0,052	0,004
-217,825	800,000	0,025	-0,058
-216,811	-46,557	-0,133	-0,047
-215,796	531,465	-0,014	-0,024
-214,782	11,315	0,010	-0,005
-213,767	-200,000	-0,030	0,105
-212,752	-41,281	0,073	0,027
-211,738	800,000	0,038	-0,090
-210,723	54,182	-0,086	0,060
-209,709	48,928	-0,103	-0,070
-208,694	-200,000	0,011	0,127
-207,679	395,592	-0,091	-0,139
-206,665	-200,000	0,011	-0,052
-205,650	-187,840	-0,057	-0,001
-204,636	-200,000	0,007	0,070
-203,621	-2,062	-0,057	-0,029
-202,606	358,204	-0,028	-0,041
-201,592	-183,914	-0,136	0,002
-200,577	54,417	-0,088	0,061
-199,563	-29,600	0,076	-0,031
-198,548	-29,136	0,019	-0,008
-197,533	-200,000	0,035	0,213
-196,519	85,390	0,053	0,042
-195,504	378,617	-0,067	0,101
-194,490	800,000	0,045	0,118
-193,475	-200,000	0,000	0,045
-192,460	-200,000	-0,019	0,078
-191,446	419,596	-0,016	-0,025
-190,431	218,150	0,171	0,199
-189,417	-200,000	0,031	0,156
-188,402	379,923	0,143	0,214
-187,387	350,725	-0,086	-0,124
-186,373	263,467	0,058	-0,073
-185,358	188,589	0,029	0,031
-184,344	-64,990	-0,050	0,015
-183,329	-200,000	-0,005	0,044
-182,315	3,857	0,090	0,048
-181,300	18,026	0,025	0,014
-180,285	-200,000	-0,005	-0,037
-179,271	-173,813	0,122	-0,003
-178,256	80,928	-0,051	-0,040
-177,242	-200,000	-0,047	0,000
-176,227	-200,000	0,007	0,077
-175,212	800,000	-0,009	-0,019
-174,198	-9,200	0,144	0,070
-173,183	160,218	0,050	0,051
-172,169	48,828	-0,081	-0,055
-171,154	-200,000	0,002	-0,013
-170,139	250,943	-0,075	0,093
-169,125	50,236	-0,072	0,049
-168,110	800,000	0,051	-0,136
-167,096	-91,114	-0,144	-0,030
-166,081	143,044	-0,016	0,016
-165,066	33,659	-0,052	-0,033
-164,052	-28,614	-0,083	-0,035
-163,037	800,000	-0,044	0,095
-162,023	508,040	0,105	-0,178
-161,008	95,015	-0,089	0,074
-159,993	-200,000	-0,006	-0,036
-158,979	800,000	0,042	0,118
-157,964	-200,000	-0,014	-0,140
-156,950	-200,000	0,016	0,084
-155,935	412,563	0,036	0,057
-154,920	61,565	-0,109	0,079
-153,906	54,169	-0,047	-0,033
-152,891	144,532	-0,034	0,033
-151,877	-152,706	0,143	-0,007
-150,862	97,363	0,060	-0,050
-149,847	-103,639	-0,101	-0,017
-148,833	-200,000	-0,015	0,090
-147,818	793,498	0,107	-0,215
-146,804	277,006	0,064	-0,082
-145,789	800,000	-0,020	0,047
-144,775	-200,000	0,005	0,140
-143,760	624,726	-0,017	-0,031
-142,745	-112,071	-0,178	-0,026
-141,731	800,000	0,056	-0,167
-140,716	-200,000	-0,026	0,099
-139,702	-134,823	0,093	0,008
-138,687	118,204	-0,029	-0,026
-137,672	-34,348	-0,052	0,021
-136,658	-127,286	-0,132	0,014
-135,643	406,650	-0,072	-0,111
-134,629	113,067	0,077	-0,068
-133,614	-200,000	-0,019	-0,115
-132,599	-200,000	-0,014	-0,047
-131,585	16,767	0,089	0,051
-130,570	-200,000	0,001	0,020
-129,556	-200,000	-0,020	0,120
-128,541	800,000	0,025	-0,068
-127,526	253,416	0,027	0,034
-126,512	800,000	0,015	0,036
-125,497	87,933	0,040	0,033
-124,483	-110,902	0,202	0,030
-123,468	-26,006	0,074	-0,031
-122,453	-58,506	-0,093	0,029
-121,439	800,000	0,025	-0,080
-120,424	-39,720	-0,063	-0,024
-119,410	800,000	0,042	0,085
-118,395	49,667	0,111	0,076
-117,380	578,442	-0,051	0,090
-116,366	800,000	0,025	0,053
-115,351	-57,262	-0,104	0,033
-114,337	270,882	-0,071	-0,091
-113,322	-46,501	-0,142	-0,050
-112,307	-200,000	-0,018	-0,076
-111,293	-200,000	-0,009	-0,059
-110,278	488,800	0,044	0,073
-109,264	67,206	-0,119	0,088
-108,249	-75,097	-0,054	-0,014
-107,234	-200,000	-0,003	0,108
-106,220	39,909	0,073	0,047
-105,205	-36,380	0,069	0,027
-104,191	115,009	-0,091	0,080
-103,176	583,130	0,066	0,118
-102,162	-200,000	-0,001	-0,021
-101,147	59,586	-0,050	-0,036
-100,132	25,732	-0,131	-0,079
-99,118	-200,000	0,008	0,083
-98,103	496,499	-0,030	0,051
-97,089	-10,870	0,047	0,023
-96,074	485,719	0,036	0,060
-95,059	800,000	0,007	-0,020
-94,045	133,512	-0,060	-0,056
-93,030	-172,942	0,061	-0,001
-92,016	-103,522	-0,136	0,023
-91,001	-182,464	-0,029	-0,000
-89,986	-10,786	-0,005	-0,003
-88,972	-200,000	0,011	-0,056
-87,957	-104,397	-0,156	-0,026
-86,943	800,000	0,076	-0,183
-85,928	-142,654	0,029	-0,002
-84,913	-109,843	-0,102	0,015
-83,899	800,000	0,046	-0,117
-82,884	226,178	-0,047	-0,056
-81,870	-200,000	-0,013	-0,112
-80,855	68,619	0,073	0,054
-79,840	12,292	-0,113	0,063
-78,826	157,618	-0,117	-0,117
-77,811	800,000	0,021	-0,056
-76,797	715,518	-0,061	-0,117
-75,782	460,824	-0,009	0,014
-74,767	-200,000	0,026	0,150
-73,753	-52,844	-0,051	0,017
-72,738	19,433	-0,036	0,021
-71,724	44,015	-0,098	-0,065
-70,709	800,000	-0,066	-0,139
-69,694	-74,936	0,054	-0,014
-68,680	-200,000	-0,012	0,171
-67,665	4,649	-0,028	-0,015
-66,651	48,926	-0,072	0,049
-65,636	800,000	0,036	-0,105
-64,622	-200,000	0,003	0,142
-63,607	-132,394	-0,185	0,017
-62,592	225,205	-0,077	-0,090
-61,578	800,000	-0,038	-0,086
-60,563	65,391	0,141	0,103
-59,549	800,000	-0,053	0,128
-58,534	-100,567	-1,222	-0,217
-57,519	668,555	-0,760	-1,430
-56,505	-200,000	-0,947	-4,236
-55,490	-144,345	0,560	-0,037
-54,476	800,000	5,014	11,469
-53,461	-200,000	14,047	251,989
-52,446	-200,000	693,231	2237,953
-51,432	580,263	1621,885	2889,662
-50,417	117,627	1630,283	1453,199
-49,403	73,905	1284,884	975,026
-48,388	37,701	1021,745	655,729
-47,373	23,993	980,066	584,043
-46,359	23,219	969,538	575,217
-45,344	22,193	965,202	569,280
-44,330	22,073	964,105	568,221
-43,315	22,047	962,424	567,123
-42,300	22,017	961,211	566,291
-41,286	22,040	960,192	565,742
-40,271	21,933	959,420	564,919
-39,257	21,919	958,642	564,392
-38,242	21,954	957,460	563,788
-37,227	21,899	956,871	563,240
-36,213	21,968	955,610	562,698
-35,198	21,874	954,878	561,941
-34,184	21,966	954,260	561,851
-33,169	21,893	953,399	561,087
-32,154	22,000	952,547	560,907
-31,140	21,970	951,477	560,160
-30,125	21,980	951,027	559,905
-29,111	21,950	949,988	559,174
-28,096	21,981	949,434	558,923
-27,082	21,989	948,697	558,495
-26,067	21,964	947,859	557,898
-25,052	21,972	947,144	557,482
-24,038	21,966	946,571	557,102
-23,023	21,938	945,928	556,613
-22,009	21,968	945,165	556,238
-20,994	21,999	944,585	555,974
-19,979	22,006	943,925	555,583
-18,965	21,967	943,368	555,112
-17,950	21,925	942,856	554,654
-16,936	21,967	942,039	554,285
-15,921	21,951	941,002	553,600
-14,906	21,882	940,506	553,069
-13,892	21,918	939,852	552,777
-12,877	21,849	939,375	552,254
-11,863	21,800	938,828	551,759
-10,848	21,831	938,274	551,509
-9,833	21,962	937,763	551,599
-8,819	21,921	937,119	551,070
-7,804	21,798	936,472	550,279
-6,790	21,838	935,921	550,060
-5,775	21,839	935,303	549,677
-4,760	21,869	934,658	549,372
-3,746	21,818	934,116	548,872
-2,731	21,696	933,424	548,058
-1,717	21,704	932,471	547,500
-0,702	21,701	932,094	547,250
0,313	21,555	931,122	547,046
1,327	23,904	929,152	553,199
2,342	31,716	806,976	501,555
3,356	26,704	507,735	307,023
4,371	2,785	372,775	195,105
5,386	-0,091	355,684	182,630
6,400	-1,766	349,325	177,336
7,415	-2,719	346,320	174,660
8,429	-2,868	344,859	173,731
9,444	-2,885	343,965	173,245
10,459	-3,023	343,295	172,728
11,473	-2,911	342,634	172,513
12,488	-2,639	342,346	172,672
13,502	-2,508	341,649	172,460
14,517	-2,773	341,121	171,867
15,531	-2,868	340,449	171,401
16,546	-3,058	340,126	171,001
17,561	-2,987	339,506	170,758
18,575	-2,830	339,234	170,788
19,590	-3,010	338,823	170,356
20,604	-2,973	338,505	170,224
21,619	-3,067	338,144	169,918
22,634	-2,968	337,797	169,844
23,648	-3,301	337,528	169,307
24,663	-3,078	337,123	169,347
25,677	-2,971	336,872	169,330
26,692	-2,897	336,562	169,245
27,707	-2,900	336,183	169,035
28,721	-2,982	335,939	168,803
29,736	-3,078	335,718	168,566
30,750	-3,023	335,293	168,401
31,765	-3,100	335,024	168,163
32,780	-3,121	334,708	167,965
33,794	-2,942	334,406	168,004
34,809	-3,018	334,237	167,817
35,823	-3,005	333,759	167,577
36,838	-2,882	333,461	167,553
37,853	-3,157	333,262	167,123
38,867	-3,097	332,968	167,029
39,882	-2,997	332,649	166,969
40,896	-2,967	332,402	166,864
41,911	-3,124	332,234	166,586
42,926	-3,202	331,989	166,359
43,940	-3,145	331,543	166,186
44,955	-3,161	331,402	166,082
45,969	-3,140	331,033	165,906
46,984	-3,282	330,798	165,613
47,999	-3,530	330,678	165,257
49,013	-3,546	330,301	165,035
50,028	-3,446	329,831	164,899
51,042	-3,668	329,773	164,603
52,057	-3,542	329,448	164,569
53,071	-3,627	329,262	164,366
54,086	-3,461	329,033	164,424
55,101	-3,472	328,866	164,314
56,115	-3,298	328,521	164,322
57,130	-3,238	328,464	164,347
58,144	-3,015	328,240	164,471
59,159	-2,936	327,924	164,387
60,174	-2,847	327,628	164,324
61,188	-2,936	327,307	164,049
62,203	-2,892	327,045	163,952
63,217	-2,958	326,900	163,790
64,232	-2,847	326,672	163,786
65,247	-2,835	326,349	163,623
66,261	-2,778	326,099	163,547
67,276	-3,103	325,742	162,991
68,290	-3,096	325,313	162,769
69,305	-3,293	325,255	162,505
70,320	-3,143	324,886	162,475
71,334	-3,067	324,825	162,513
72,349	-2,937	324,667	162,564
73,363	-2,962	324,226	162,301
74,378	-2,863	324,066	162,317
75,393	-2,841	323,786	162,186
76,407	-3,055	323,686	161,885
77,422	-2,961	323,266	161,765
78,436	-2,869	323,016	161,727
79,451	-2,903	322,914	161,623
80,466	-2,899	322,463	161,387
81,480	-3,071	322,166	161,035
82,495	-3,103	321,892	160,848
83,509	-3,038	321,686	160,803
84,524	-3,107	321,523	160,631
85,539	-3,125	321,208	160,439
86,553	-3,275	321,032	160,173
87,568	-3,301	320,884	160,056
88,582	-3,339	320,523	159,821
89,597	-3,257	320,303	159,785
90,611	-3,199	320,127	159,747
91,626	-2,993	319,915	159,852
92,641	-2,912	319,722	159,830
93,655	-2,943	319,531	159,687
94,670	-2,973	319,092	159,421
95,684	-3,077	319,071	159,282
96,699	-3,007	318,664	159,141
97,714	-3,112	318,402	158,882
98,728	-3,282	318,336	158,650
99,743	-3,163	317,991	158,593
100,757	-3,227	317,656	158,342
101,772	-3,239	317,488	158,231
102,787	-3,086	317,284	158,282
103,801	-3,064	317,000	158,150
104,816	-3,122	316,862	158,004
105,830	-2,908	316,563	158,072
106,845	-3,086	316,570	157,869
107,860	-2,988	316,157	157,755
108,874	-3,030	316,152	157,692
109,889	-2,972	315,708	157,520
110,903	-3,177	315,536	157,199
111,918	-3,121	315,161	157,059
112,933	-3,109	315,085	157,020
113,947	-3,080	314,994	156,991
114,962	-2,949	314,565	156,904
115,976	-2,945	314,277	156,751
116,991	-3,139	314,212	156,496
118,006	-3,216	314,100	156,345
119,020	-3,085	313,820	156,331
120,035	-2,947	313,810	156,460
121,049	-2,892	313,558	156,380
122,064	-2,945	313,118	156,090
123,079	-3,010	312,979	155,936
124,093	-2,996	312,651	155,774
125,108	-3,165	312,391	155,450
126,122	-3,317	312,242	155,201
127,137	-3,341	311,830	154,956
128,151	-3,283	311,820	155,000
129,166	-3,288	311,647	154,894
130,181	-3,415	311,397	154,622
131,195	-3,263	311,028	154,586
132,210	-3,120	310,924	154,672
133,224	-3,012	310,693	154,658
134,239	-3,114	310,560	154,470
135,254	-3,216	310,241	154,190
136,268	-3,053	309,918	154,188
137,283	-3,212	309,735	153,915
138,297	-3,259	309,521	153,745
139,312	-3,400	309,293	153,469
140,327	-3,283	309,252	153,559
141,341	-2,913	308,999	153,809
142,356	-2,842	308,939	153,840
143,370	-2,759	308,702	153,795
144,385	-2,701	308,411	153,697
145,400	-2,772	308,093	153,450
146,414	-2,850	308,044	153,330
147,429	-2,736	307,781	153,305
148,443	-2,671	307,499	153,220
149,458	-2,652	307,418	153,186
150,473	-2,678	307,124	152,997
151,487	-2,820	306,796	152,672
152,502	-2,806	306,714	152,633
153,516	-2,842	306,478	152,465
154,531	-2,905	306,251	152,273
155,546	-2,757	306,023	152,299
156,560	-2,960	305,753	151,941
157,575	-2,998	305,590	151,807
158,589	-2,848	305,282	151,796
159,604	-2,850	305,050	151,665
160,619	-2,834	305,076	151,681
161,633	-2,652	304,660	151,648
162,648	-2,913	304,621	151,346
163,662	-2,799	304,375	151,328
164,677	-2,976	304,296	151,091
165,692	-2,959	304,011	150,954
166,706	-2,817	303,767	150,966
167,721	-2,897	303,612	150,793
168,735	-2,969	303,513	150,656
169,750	-2,736	303,439	150,846
170,764	-2,686	303,214	150,772
171,779	-2,534	302,932	150,775
172,794	-2,471	302,738	150,730
173,808	-2,735	302,306	150,230
174,823	-3,091	301,942	149,671
175,837	-3,373	301,857	149,328
176,852	-2,815	301,744	149,829
177,867	-2,812	301,763	149,829
178,881	-2,741	301,419	149,717
179,896	-2,695	301,283	149,683
180,910	-2,738	301,037	149,503
181,925	-2,574	300,748	149,513
182,940	-2,754	300,606	149,246
183,954	-2,767	300,506	149,170
184,969	-2,809	300,411	149,067
185,983	-2,731	300,055	148,957
186,998	-2,621	299,719	148,888
188,013	-2,772	299,687	148,705
189,027	-2,811	299,400	148,510
190,042	-2,753	299,294	148,503
191,056	-2,409	299,086	148,735
192,071	-2,622	298,826	148,377
193,086	-2,560	298,632	148,330
194,100	-2,493	298,360	148,249
195,115	-2,641	298,165	147,990
196,129	-2,647	298,077	147,928
197,144	-2,690	297,815	147,741
198,159	-2,582	297,453	147,656
199,173	-2,654	297,373	147,532
200,188	-2,601	297,367	147,568
201,202	-2,566	296,841	147,329
202,217	-2,957	296,581	146,795
203,232	-3,293	296,370	146,340
204,246	-2,781	296,246	146,779
205,261	-2,815	296,142	146,681
206,275	-2,782	296,082	146,671
207,290	-2,703	295,825	146,609
208,304	-2,565	295,542	146,594
209,319	-2,674	295,347	146,375
210,334	-2,636	295,035	146,246
211,348	-2,786	294,988	146,060
212,363	-2,706	294,816	146,041
213,377	-2,604	294,462	145,954
214,392	-2,644	294,433	145,887
215,407	-2,673	293,981	145,622
216,421	-2,924	293,872	145,305
217,436	-3,012	293,811	145,175
218,450	-2,782	293,400	145,187
219,465	-2,891	293,361	145,046
220,480	-2,817	293,202	145,028
221,494	-2,848	293,087	144,928
222,509	-2,886	292,927	144,798
223,523	-2,726	292,698	144,830
224,538	-2,650	292,589	144,839
225,553	-2,722	292,430	144,675
226,567	-2,690	292,129	144,545
227,582	-2,642	292,055	144,543
228,596	-2,669	291,829	144,392
229,611	-2,588	291,622	144,356
230,626	-2,622	291,392	144,196
231,640	-2,961	291,179	143,745
232,655	-3,075	290,834	143,449
233,669	-3,068	290,633	143,345
234,684	-3,102	290,489	143,227
235,699	-3,030	290,363	143,223
236,713	-2,907	290,143	143,222
237,728	-2,933	289,883	143,056
238,742	-2,775	289,827	143,170
239,757	-2,814	289,735	143,073
240,772	-2,657	289,409	143,053
241,786	-2,730	289,246	142,889
242,801	-2,860	289,037	142,646
243,815	-2,939	288,906	142,491
244,830	-2,864	288,906	142,552
245,844	-2,984	288,447	142,196
246,859	-2,826	288,364	142,295
247,874	-3,000	288,179	142,023
248,888	-2,936	287,900	141,935
249,903	-2,722	287,823	142,091
250,917	-2,659	287,596	142,028
251,932	-2,449	287,517	142,179
252,947	-1,912	287,531	142,694
253,961	-2,373	287,261	142,101
254,976	-1,443	287,801	143,257
255,990	1,318	288,455	146,247
257,005	2,302	288,797	147,363
258,020	3,633	289,017	148,752
259,034	3,584	288,992	148,678
260,049	3,508	288,587	148,384
261,063	3,316	288,390	148,083
262,078	3,716	288,281	148,401
263,093	4,449	288,284	149,097
264,107	4,233	288,177	148,819
265,122	4,418	287,955	148,870
266,136	4,602	287,869	148,989
267,151	4,315	287,605	148,563
268,166	4,092	287,490	148,276
269,180	4,112	287,255	148,160
270,195	4,228	287,028	148,143
271,209	4,192	286,880	148,018
272,224	4,122	286,651	147,819
273,239	3,851	286,433	147,434
274,253	3,909	286,348	147,432
275,268	4,472	286,210	147,888
276,282	4,365	286,027	147,678
277,297	4,466	285,842	147,665
278,312	4,846	285,817	148,003
279,326	4,453	285,540	147,471
280,341	4,186	285,152	147,003
281,355	4,088	284,967	146,801
282,370	3,995	284,826	146,627
283,384	3,962	284,619	146,475
284,399	4,219	284,450	146,620
285,414	4,042	284,321	146,372
286,428	3,921	284,071	146,115
287,443	3,764	283,881	145,856
288,457	3,582	283,656	145,554
289,472	3,670	283,409	145,498
290,487	3,925	283,208	145,623
291,501	3,573	282,961	145,150
292,516	3,505	282,758	144,969
293,530	3,508	282,630	144,893
294,545	3,595	282,625	144,959
295,560	3,868	282,527	145,154
296,574	3,622	282,187	144,734
297,589	3,944	282,023	144,941
298,603	4,017	282,070	145,021
299,618	4,294	281,746	145,103
300,633	4,105	281,534	144,802
301,647	4,019	281,397	144,638
302,662	4,047	281,155	144,528
303,676	3,891	280,792	144,181
304,691	3,477	280,605	143,685
305,706	3,501	280,315	143,546
306,720	3,436	280,197	143,412
307,735	3,569	279,849	143,345
308,749	3,597	279,958	143,414
309,764	3,722	279,757	143,416
310,779	3,382	279,742	143,077
311,793	3,421	279,275	142,862
312,808	3,638	279,055	142,939
313,822	3,611	278,988	142,867
314,837	3,502	278,717	142,613
315,852	3,334	278,591	142,381
316,866	3,538	278,450	142,485
317,881	3,491	278,264	142,334
318,895	3,485	278,037	142,199
319,910	3,192	277,801	141,794
320,925	3,272	277,611	141,759
321,939	3,563	277,414	141,915
322,954	3,658	277,413	141,989
323,968	3,585	277,347	141,876
324,983	3,730	277,177	141,910
325,997	3,688	277,090	141,814
327,012	3,714	276,866	141,711
328,027	3,964	276,573	141,778
329,041	3,819	276,374	141,531
330,056	3,764	276,346	141,452
331,070	3,493	276,066	141,047
332,085	3,694	275,781	141,074
333,100	3,787	275,735	141,123
334,114	3,559	275,385	140,722
335,129	3,258	275,325	140,404
336,143	3,714	275,135	140,712
337,158	3,900	275,007	140,804
338,173	3,835	275,000	140,729
339,187	3,572	274,713	140,329
340,202	3,734	274,452	140,330
341,216	3,825	274,414	140,381
342,231	3,842	274,129	140,239
343,246	3,653	274,060	140,019
344,260	3,685	273,926	139,967
345,275	3,995	273,672	140,107
346,289	4,233	273,676	140,313
347,304	4,034	273,391	139,974
348,319	3,759	273,270	139,649
349,333	3,690	272,942	139,406
350,348	3,964	272,931	139,637
351,362	3,994	272,671	139,519
352,377	3,902	272,582	139,377
353,392	4,037	272,371	139,379
354,406	4,054	272,202	139,296
355,421	191,375	1331,445	1408,342
356,435	154,597	1460,581	1408,459
