DTS Sentinel unit serial number:	SN410029Multiplexer serial number:	ORYXHardware model number:	OX2-SRSoftware version number:	ORYX F/W v4,00 Oryx Data Collector v3.7.2.0data status	okinstallation	B4 Nyhavnadifferential loss correction	single-endedforward channel	channel 2reverse channel	N/Adate	2023/12/15time	16:05:13forward acquisition time	300,00reverse acquisition time	0,00gamma	499,1914k internal	0,3147k external	0,3147temperature offset calibration	1,0000default loss term (dB/km)	0,3820temperature slope calibration	1,0000multiplexer offset coefficient	1,0000multiplexer slope coefficient	1,0000fibre end	0,00T internal ref (°C)	17,04T ext. ref 1 (°C)	2,98T ext. ref 2 (°C)	3,09length (m)	temperature (°C)	Stokes	anti-Stokes-744,400	25,719	0,064	-0,039
-743,385	-124,107	-0,209	-0,024
-742,371	-114,469	0,143	0,020
-741,356	-143,451	-0,232	0,016
-740,342	399,074	0,060	0,094
-739,327	0,148	-0,316	0,166
-738,312	-142,748	0,058	-0,004
-737,298	-109,171	-0,405	-0,063
-736,283	-112,299	0,126	0,018
-735,269	-16,158	-0,189	0,088
-734,254	-195,450	0,125	-0,001
-733,239	-29,461	-0,431	-0,181
-732,225	-86,088	0,226	0,051
-731,210	-200,000	-0,007	-0,101
-730,196	54,373	0,041	0,029
-729,181	-53,375	0,025	0,008
-728,167	800,000	0,033	-0,099
-727,152	193,221	-0,104	-0,116
-726,137	-104,262	-0,040	0,007
-725,123	800,000	0,021	-0,058
-724,108	114,733	-0,023	-0,021
-723,094	185,550	0,032	-0,035
-722,079	-48,041	-0,198	0,070
-721,064	-75,210	0,204	0,053
-720,050	-15,783	0,077	0,036
-719,035	-200,000	0,002	0,088
-718,021	117,147	0,029	0,027
-717,006	747,762	0,025	-0,050
-715,991	800,000	0,052	-0,107
-714,977	-45,261	-0,093	0,034
-713,962	62,462	-0,101	0,074
-712,948	138,153	0,069	0,067
-711,933	33,363	-0,114	0,073
-710,918	220,556	-0,040	0,047
-709,904	75,034	-0,040	-0,031
-708,889	-200,000	-0,026	-0,143
-707,875	-73,525	-0,060	0,016
-706,860	-125,980	-0,149	-0,016
-705,845	683,134	0,080	-0,155
-704,831	-200,000	-0,017	0,167
-703,816	800,000	-0,051	-0,112
-702,802	-200,000	0,022	-0,166
-701,787	67,163	-0,090	-0,068
-700,772	222,841	0,043	-0,051
-699,758	800,000	-0,019	-0,047
-698,743	227,430	0,044	0,053
-697,729	393,436	-0,078	0,120
-696,714	12,022	0,068	-0,039
-695,699	153,591	-0,078	0,079
-694,685	-200,000	0,009	-0,166
-693,670	800,000	-0,088	-0,183
-692,656	-55,895	-0,058	-0,019
-691,641	-200,000	0,013	-0,061
-690,627	589,132	-0,044	0,081
-689,612	228,631	-0,055	0,066
-688,597	800,000	-0,018	0,039
-687,583	-200,000	0,004	-0,079
-686,568	759,908	-0,064	-0,128
-685,554	-200,000	0,010	-0,049
-684,539	-132,052	0,060	0,006
-683,524	465,455	0,057	-0,095
-682,510	134,579	-0,055	-0,052
-681,495	79,544	-0,142	-0,113
-680,481	125,465	-0,096	-0,090
-679,466	376,995	-0,160	-0,242
-678,451	-200,000	0,004	-0,120
-677,437	-200,000	-0,030	-0,175
-676,422	-200,000	0,008	-0,050
-675,408	-200,000	0,039	0,147
-674,393	-42,353	-0,101	-0,038
-673,378	-200,000	-0,057	-0,285
-672,364	-200,000	-0,026	-0,130
-671,349	144,867	-0,098	-0,096
-670,335	-200,000	-0,028	-0,230
-669,320	-200,000	0,009	-0,094
-668,305	23,987	-0,107	-0,065
-667,291	-200,000	-0,006	-0,130
-666,276	308,595	-0,029	0,040
-665,262	38,473	-0,106	-0,069
-664,247	68,974	-0,165	0,125
-663,232	84,318	-0,128	-0,103
-662,218	-5,916	0,134	-0,067
-661,203	12,380	-0,068	-0,039
-660,189	800,000	0,020	0,063
-659,174	0,332	0,101	0,053
-658,159	800,000	-0,030	-0,064
-657,145	800,000	0,058	-0,173
-656,130	800,000	-0,013	0,041
-655,116	-50,935	-0,031	0,011
-654,101	198,897	0,044	0,050
-653,086	500,750	0,018	0,031
-652,072	-72,255	0,077	0,021
-651,057	-18,505	-0,054	-0,025
-650,043	800,000	0,006	0,016
-649,028	146,304	-0,043	-0,043
-648,014	469,322	0,060	0,099
-646,999	68,336	-0,063	0,048
-645,984	-192,694	0,172	0,001
-644,970	-8,035	-0,064	-0,032
-643,955	120,822	-0,074	0,068
-642,941	-200,000	-0,018	-0,092
-641,926	-200,000	-0,007	-0,059
-640,911	-200,000	0,003	-0,080
-639,897	32,190	0,062	0,039
-638,882	-54,794	0,073	-0,024
-637,868	48,837	-0,015	0,010
-636,853	-200,000	-0,003	0,011
-635,838	-116,493	0,043	0,006
-634,824	3,742	-0,099	-0,053
-633,809	-200,000	-0,022	0,079
-632,795	410,440	-0,020	0,032
-631,780	31,255	-0,034	0,022
-630,765	135,062	-0,099	-0,094
-629,751	-162,108	-0,103	0,004
-628,736	-31,326	-0,070	0,029
-627,722	-200,000	-0,001	-0,123
-626,707	478,014	0,053	0,088
-625,692	-200,000	0,001	0,033
-624,678	249,585	0,016	-0,021
-623,663	57,573	-0,107	-0,077
-622,649	-16,996	-0,080	-0,037
-621,634	173,145	-0,036	-0,038
-620,619	-77,281	0,063	-0,016
-619,605	-200,000	-0,004	0,050
-618,590	800,000	-0,018	0,043
-617,576	221,243	0,083	-0,098
-616,561	-59,263	-0,088	-0,028
-615,546	-200,000	-0,003	-0,050
-614,532	-181,499	0,068	0,001
-613,517	800,000	0,068	0,144
-612,503	-200,000	0,003	0,013
-611,488	-200,000	-0,026	0,086
-610,474	423,662	-0,034	-0,054
-609,459	-35,102	0,063	0,025
-608,444	-110,442	-0,097	0,015
-607,430	76,463	0,022	-0,017
-606,415	-65,659	-0,095	0,028
-605,401	-26,687	-0,047	-0,020
-604,386	265,984	0,030	0,038
-603,371	800,000	0,070	-0,166
-602,357	112,593	-0,091	-0,081
-601,342	28,208	0,089	-0,055
-600,328	-79,074	0,017	0,004
-599,313	133,516	0,024	-0,023
-598,298	800,000	0,028	-0,066
-597,284	800,000	0,063	-0,132
-596,269	-200,000	-0,018	-0,075
-595,255	-200,000	-0,001	-0,081
-594,240	-200,000	0,008	0,047
-593,225	239,707	-0,060	-0,074
-592,211	-200,000	0,011	-0,116
-591,196	140,319	-0,149	0,144
-590,182	37,586	0,079	0,051
-589,167	-200,000	0,007	-0,038
-588,152	15,456	0,033	0,019
-587,138	-132,809	-0,138	0,013
-586,123	479,104	-0,046	-0,077
-585,109	2,577	-0,033	-0,018
-584,094	93,002	-0,092	0,076
-583,079	-96,395	0,154	-0,030
-582,065	-130,660	-0,074	-0,007
-581,050	-200,000	-0,024	-0,084
-580,036	800,000	0,028	0,064
-579,021	405,859	-0,072	0,112
-578,006	-200,000	-0,007	-0,127
-576,992	800,000	-0,024	-0,059
-575,977	-8,154	-0,064	-0,031
-574,963	-200,000	-0,025	-0,110
-573,948	800,000	0,067	-0,151
-572,934	30,698	-0,048	0,030
-571,919	62,056	-0,099	-0,072
-570,904	800,000	0,024	0,077
-569,890	247,449	0,047	0,058
-568,875	-200,000	0,014	0,065
-567,861	675,702	0,057	0,108
-566,846	800,000	-0,087	0,221
-565,831	159,141	0,020	0,021
-564,817	-200,000	0,002	-0,063
-563,802	-68,290	-0,033	-0,009
-562,788	-200,000	0,014	0,049
-561,773	-76,633	0,089	-0,023
-560,758	-48,509	-0,027	0,010
-559,744	-200,000	0,011	0,096
-558,729	21,766	-0,078	-0,047
-557,715	-200,000	-0,003	-0,112
-556,700	-200,000	0,077	0,000
-555,685	47,430	-0,057	0,039
-554,671	-73,082	0,037	0,010
-553,656	484,872	0,054	0,090
-552,642	319,865	-0,052	-0,072
-551,627	134,816	0,094	-0,090
-550,612	-127,702	-0,080	-0,008
-549,598	-139,634	-0,123	-0,010
-548,583	228,519	-0,018	-0,022
-547,569	-140,105	0,060	-0,005
-546,554	108,111	-0,069	-0,060
-545,539	72,209	0,085	0,065
-544,525	800,000	0,032	0,103
-543,510	195,539	-0,086	-0,096
-542,496	-72,533	0,079	0,021
-541,481	150,941	-0,025	0,025
-540,466	-200,000	0,000	-0,041
-539,452	32,048	0,130	-0,082
-538,437	800,000	0,025	0,061
-537,423	800,000	0,051	0,139
-536,408	10,150	-0,118	0,066
-535,393	800,000	0,022	0,062
-534,379	-97,752	-0,039	-0,007
-533,364	71,046	-0,101	-0,077
-532,350	-112,882	0,139	-0,020
-531,335	50,498	0,051	0,036
-530,321	-26,638	0,014	0,006
-529,306	292,796	0,017	0,023
-528,291	-155,130	-0,143	-0,007
-527,277	254,011	0,072	-0,090
-526,262	-92,564	0,012	-0,003
-525,248	-148,122	-0,047	-0,003
-524,233	-101,702	0,070	0,012
-523,218	184,045	0,056	0,061
-522,204	-80,366	0,117	0,028
-521,189	-44,289	-0,172	-0,063
-520,175	-200,000	-0,005	-0,025
-519,160	44,479	-0,070	0,047
-518,145	800,000	-0,050	0,110
-517,131	-200,000	-0,008	0,027
-516,116	19,866	0,052	0,031
-515,102	55,711	-0,044	0,031
-514,087	72,258	-0,012	-0,009
-513,072	188,906	-0,014	0,015
-512,058	-200,000	-0,094	0,000
-511,043	-70,514	-0,060	0,016
-510,029	70,572	0,141	-0,107
-509,014	-200,000	-0,009	-0,036
-507,999	146,258	0,032	-0,031
-506,985	136,493	0,027	-0,025
-505,970	-200,000	-0,013	-0,206
-504,956	-200,000	-0,009	0,104
-503,941	128,030	0,065	-0,060
-502,926	-23,416	0,061	-0,027
-501,912	800,000	-0,064	0,172
-500,897	800,000	-0,017	-0,040
-499,883	-105,246	-0,131	0,022
-498,868	800,000	0,028	-0,071
-497,853	11,839	-0,065	0,036
-496,839	220,416	0,067	-0,079
-495,824	-124,510	-0,031	-0,004
-494,810	-200,000	0,036	0,118
-493,795	-126,551	0,124	-0,013
-492,781	168,676	-0,088	0,092
-491,766	800,000	-0,083	0,201
-490,751	29,449	-0,072	-0,045
-489,737	163,984	0,048	-0,050
-488,722	-159,824	0,189	-0,007
-487,708	-200,000	-0,009	-0,090
-486,693	-88,698	-0,109	-0,024
-485,678	-200,000	-0,012	-0,079
-484,664	-82,769	-0,105	-0,025
-483,649	92,144	-0,046	-0,038
-482,635	-200,000	0,009	-0,078
-481,620	10,334	0,101	-0,056
-480,605	-200,000	0,014	0,060
-479,591	61,855	0,114	0,083
-478,576	-200,000	0,011	0,056
-477,562	-200,000	-0,011	-0,062
-476,547	67,262	0,044	-0,033
-475,532	-200,000	0,015	-0,286
-474,518	12,336	0,123	-0,069
-473,503	-47,271	0,108	0,038
-472,489	-10,890	0,025	-0,012
-471,474	660,239	-0,037	0,071
-470,459	-111,992	-0,015	0,002
-469,445	223,255	0,025	-0,029
-468,430	-67,808	-0,094	-0,027
-467,416	159,091	0,026	-0,027
-466,401	-3,349	0,041	0,021
-465,386	276,706	0,092	0,120
-464,372	-118,109	-0,141	-0,018
-463,357	-118,800	-0,121	-0,015
-462,343	-87,252	0,017	0,004
-461,328	-200,000	-0,003	0,060
-460,313	800,000	-0,022	-0,050
-459,299	-200,000	-0,019	0,145
-458,284	-17,621	0,025	-0,011
-457,270	37,351	0,064	0,041
-456,255	134,512	-0,022	0,021
-455,241	249,355	-0,025	0,031
-454,226	64,490	-0,077	-0,056
-453,211	54,206	0,070	0,049
-452,197	-200,000	0,001	-0,131
-451,182	-91,991	-0,077	0,016
-450,168	-5,618	-0,070	0,035
-449,153	1,506	0,033	-0,017
-448,138	800,000	0,036	0,079
-447,124	-97,639	0,054	-0,010
-446,109	59,139	-0,092	0,066
-445,095	95,959	0,076	0,064
-444,080	118,743	0,031	0,028
-443,065	182,686	0,013	0,014
-442,051	-200,000	-0,012	0,097
-441,036	-127,872	0,161	-0,017
-440,022	405,994	-0,037	-0,057
-439,007	282,784	0,060	0,080
-437,992	324,602	0,067	0,093
-436,978	17,939	-0,035	0,020
-435,963	54,504	0,134	0,094
-434,949	-17,936	-0,034	0,016
-433,934	800,000	0,059	-0,131
-432,919	-200,000	-0,014	-0,099
-431,905	800,000	-0,028	-0,087
-430,890	171,939	0,090	0,094
-429,876	-200,000	0,044	0,209
-428,861	59,039	0,051	0,036
-427,846	435,446	-0,013	-0,021
-426,832	19,524	-0,042	-0,024
-425,817	121,297	-0,065	-0,059
-424,803	355,694	-0,016	0,024
-423,788	47,851	-0,050	-0,034
-422,773	-200,000	0,016	-0,080
-421,759	-200,000	0,006	-0,021
-420,744	800,000	-0,042	-0,099
-419,730	85,997	0,136	-0,109
-418,715	-200,000	-0,009	-0,122
-417,701	44,269	-0,104	-0,070
-416,686	-6,848	0,083	0,041
-415,671	800,000	-0,019	0,056
-414,657	-200,000	0,000	-0,064
-413,642	-22,881	-0,037	-0,016
-412,628	-200,000	-0,010	-0,081
-411,613	-123,234	-0,092	-0,011
-410,598	494,198	-0,074	-0,124
-409,584	114,788	-0,095	-0,085
-408,569	28,791	0,164	-0,101
-407,555	-102,168	0,068	0,012
-406,540	157,826	0,056	0,057
-405,525	800,000	-0,027	0,055
-404,511	654,297	-0,028	-0,053
-403,496	-73,991	-0,013	-0,003
-402,482	493,611	0,056	0,094
-401,467	445,641	-0,021	-0,034
-400,452	-11,940	0,121	0,058
-399,438	-33,945	-0,086	-0,034
-398,423	122,222	0,039	0,035
-397,409	800,000	-0,016	-0,049
-396,394	-64,339	-0,142	0,042
-395,379	800,000	0,047	-0,130
-394,365	-200,000	-0,018	0,080
-393,350	-102,042	0,068	0,012
-392,336	94,491	-0,046	0,038
-391,321	-200,000	0,015	0,078
-390,306	253,284	-0,053	-0,067
-389,292	-148,192	0,069	0,004
-388,277	290,645	-0,108	0,143
-387,263	-99,445	0,209	0,038
-386,248	800,000	0,019	0,045
-385,233	48,666	0,063	0,043
-384,219	-72,468	-0,066	-0,018
-383,204	-67,453	-0,042	-0,012
-382,190	-41,296	-0,109	0,041
-381,175	310,344	-0,039	-0,054
-380,160	75,187	0,039	-0,030
-379,146	-200,000	-0,005	0,019
-378,131	391,341	0,113	-0,171
-377,117	423,623	-0,073	0,115
-376,102	-94,184	0,007	0,001
-375,088	221,435	-0,096	-0,113
-374,073	29,960	-0,117	0,073
-373,058	-153,933	0,084	0,004
-372,044	800,000	0,012	-0,027
-371,029	76,726	0,032	0,025
-370,015	800,000	0,039	0,093
-369,000	142,691	0,072	-0,070
-367,985	221,306	-0,034	0,039
-366,971	-200,000	0,008	-0,045
-365,956	483,685	0,043	-0,072
-364,942	90,549	-0,048	-0,039
-363,927	323,284	-0,073	0,101
-362,912	-200,000	-0,005	-0,049
-361,898	-200,000	0,009	-0,137
-360,883	-109,018	0,059	0,009
-359,869	25,670	0,012	0,007
-358,854	-129,388	0,084	0,008
-357,839	72,408	0,045	0,034
-356,825	-200,000	-0,009	0,094
-355,810	322,484	0,027	0,037
-354,796	761,111	0,034	0,067
-353,781	-128,516	-0,023	0,002
-352,766	-21,815	-0,085	0,038
-351,752	212,730	-0,094	-0,108
-350,737	160,989	-0,039	0,040
-349,723	-200,000	-0,040	0,142
-348,708	178,591	0,028	0,030
-347,693	-137,763	-0,218	0,018
-346,679	564,863	0,036	-0,064
-345,664	-200,000	-0,016	-0,082
-344,650	-118,398	0,036	-0,005
-343,635	39,230	-0,040	0,026
-342,620	800,000	0,038	0,087
-341,606	800,000	0,036	0,076
-340,591	-52,919	0,052	0,017
-339,577	226,006	0,048	-0,056
-338,562	-200,000	0,003	0,027
-337,548	-32,150	-0,106	0,043
-336,533	116,333	-0,080	0,072
-335,518	17,565	0,125	0,072
-334,504	86,494	-0,066	0,053
-333,489	-58,952	-0,141	0,044
-332,475	120,786	-0,055	0,050
-331,460	-200,000	0,008	-0,051
-330,445	-157,408	-0,058	-0,002
-329,431	189,489	-0,017	-0,019
-328,416	-200,000	0,011	0,084
-327,402	785,510	0,025	0,049
-326,387	-200,000	-0,021	-0,116
-325,372	218,826	0,020	-0,023
-324,358	0,431	-0,089	-0,046
-323,343	-200,000	0,018	-0,104
-322,329	-100,213	0,110	0,020
-321,314	-122,218	-0,034	0,004
-320,299	-38,992	-0,057	-0,022
-319,285	800,000	0,063	-0,148
-318,270	419,352	0,026	-0,041
-317,256	38,960	-0,097	-0,063
-316,241	-45,517	0,080	-0,029
-315,226	-81,725	-0,046	-0,011
-314,212	-107,382	0,092	-0,015
-313,197	91,015	0,049	-0,040
-312,183	-112,497	0,048	0,007
-311,168	171,401	0,030	0,031
-310,153	1,891	0,088	-0,046
-309,139	355,980	0,100	-0,145
-308,124	-200,000	0,001	0,003
-307,110	48,279	0,091	0,062
-306,095	800,000	0,031	0,088
-305,080	513,997	-0,084	0,144
-304,066	300,559	-0,058	-0,078
-303,051	-200,000	0,028	-0,102
-302,037	114,391	0,070	-0,062
-301,022	329,528	-0,017	0,024
-300,008	-177,890	-0,114	0,002
-298,993	143,958	0,042	-0,040
-297,978	-200,000	0,013	-0,069
-296,964	42,316	-0,146	0,096
-295,949	129,230	-0,072	-0,067
-294,935	-200,000	0,000	0,027
-293,920	-7,699	0,036	0,017
-292,905	-31,754	0,061	0,025
-291,891	-121,876	-0,015	-0,002
-290,876	188,878	-0,124	0,135
-289,862	28,518	-0,083	0,051
-288,847	126,492	-0,080	-0,074
-287,832	-83,450	0,070	0,016
-286,818	-50,028	-0,086	-0,029
-285,803	-38,948	0,083	-0,031
-284,789	25,576	0,061	0,037
-283,774	-200,000	0,037	0,141
-282,759	-42,830	-0,020	-0,007
-281,745	417,519	-0,052	0,081
-280,730	-54,094	-0,047	-0,015
-279,716	-169,449	0,092	-0,002
-278,701	627,658	-0,060	0,110
-277,686	-25,387	0,123	-0,052
-276,672	2,913	0,096	0,051
-275,657	-200,000	-0,031	0,186
-274,643	-77,668	0,057	-0,014
-273,628	4,462	0,129	0,068
-272,613	178,886	-0,074	-0,078
-271,599	-200,000	-0,000	-0,009
-270,584	-93,748	-0,045	0,009
-269,570	-200,000	0,011	-0,073
-268,555	-24,101	0,114	-0,049
-267,540	-17,732	-0,098	-0,044
-266,526	625,910	0,017	0,032
-265,511	657,445	0,023	0,043
-264,497	49,709	0,042	0,029
-263,482	-45,619	0,096	-0,034
-262,467	-80,874	0,059	-0,014
-261,453	-200,000	0,011	0,075
-260,438	48,443	0,033	0,023
-259,424	161,893	0,058	-0,059
-258,409	-115,945	-0,105	-0,014
-257,395	94,443	0,037	-0,031
-256,380	800,000	-0,021	0,051
-255,365	704,782	-0,009	-0,017
-254,351	593,619	-0,035	0,063
-253,336	191,679	0,037	-0,040
-252,322	-105,970	-0,018	-0,003
-251,307	800,000	-0,016	-0,041
-250,292	83,258	-0,092	0,073
-249,278	-157,338	0,098	0,004
-248,263	-200,000	0,002	-0,084
-247,249	690,819	0,042	-0,080
-246,234	-57,873	0,021	-0,007
-245,219	61,856	-0,047	-0,034
-244,205	-28,027	-0,145	-0,060
-243,190	-200,000	0,000	0,059
-242,176	642,174	0,043	0,081
-241,161	199,323	-0,064	0,072
-240,146	14,256	0,101	0,057
-239,132	-127,330	-0,047	-0,005
-238,117	-182,755	-0,097	-0,001
-237,103	152,557	-0,038	-0,037
-236,088	-200,000	0,008	0,065
-235,073	-200,000	0,009	0,084
-234,059	589,321	0,032	-0,057
-233,044	-62,490	-0,041	-0,012
-232,030	61,891	-0,106	-0,076
-231,015	113,296	-0,031	-0,027
-230,000	53,303	0,101	-0,070
-228,986	-128,232	0,060	0,006
-227,971	-92,678	0,069	0,014
-226,957	800,000	-0,029	0,074
-225,942	-117,201	0,131	0,017
-224,927	323,143	0,040	0,056
-223,913	-200,000	-0,028	0,129
-222,898	107,159	-0,030	0,026
-221,884	-35,986	-0,035	-0,014
-220,869	-20,959	-0,090	0,040
-219,855	-200,000	0,012	0,109
-218,840	-200,000	-0,029	-0,099
-217,825	550,320	-0,021	0,036
-216,811	800,000	-0,012	0,027
-215,796	-200,000	0,021	-0,100
-214,782	-200,000	0,011	-0,055
-213,767	800,000	0,018	0,047
-212,752	235,951	0,051	0,062
-211,738	800,000	-0,014	0,029
-210,723	47,145	-0,085	0,057
-209,709	-200,000	0,004	-0,015
-208,694	800,000	-0,045	-0,099
-207,679	-200,000	0,007	-0,080
-206,665	44,705	0,127	0,085
-205,650	417,423	0,051	-0,080
-204,636	188,592	-0,043	0,047
-203,621	-200,000	0,001	-0,012
-202,606	-149,472	-0,069	0,004
-201,592	800,000	0,077	-0,161
-200,577	-200,000	0,021	-0,136
-199,563	50,466	-0,065	0,045
-198,548	800,000	0,030	0,075
-197,533	450,555	0,024	0,038
-196,519	-200,000	-0,001	0,003
-195,504	-154,044	0,023	-0,001
-194,490	800,000	0,054	-0,113
-193,475	132,528	0,084	-0,079
-192,460	-76,504	-0,058	-0,015
-191,446	-200,000	0,015	0,106
-190,431	-69,343	-0,026	-0,007
-189,417	160,728	-0,054	0,054
-188,402	-0,880	-0,075	-0,038
-187,387	572,213	0,005	-0,009
-186,373	-111,005	0,060	0,009
-185,358	-200,000	-0,027	-0,104
-184,344	800,000	-0,004	-0,012
-183,329	45,421	0,101	-0,068
-182,315	230,251	-0,033	-0,039
-181,300	800,000	-0,030	0,077
-180,285	314,493	0,089	0,122
-179,271	191,815	-0,027	0,029
-178,256	186,079	0,070	0,075
-177,242	-200,000	0,005	0,023
-176,227	594,803	-0,080	0,143
-175,212	412,676	0,048	-0,073
-174,198	86,117	0,148	0,117
-173,183	-190,009	0,007	0,000
-172,169	67,858	0,031	0,023
-171,154	107,665	-0,055	0,047
-170,139	-200,000	0,045	-0,190
-169,125	-200,000	-0,002	-0,013
-168,110	-200,000	0,015	0,077
-167,096	254,773	-0,031	0,039
-166,081	800,000	-0,012	0,034
-165,066	-132,510	-0,042	0,004
-164,052	279,269	-0,061	-0,079
-163,037	248,920	-0,087	-0,107
-162,023	101,010	0,051	0,043
-161,008	-200,000	0,033	0,142
-159,993	-200,000	-0,008	0,034
-158,979	-200,000	-0,024	-0,097
-157,964	42,256	0,079	-0,052
-156,950	-200,000	0,015	-0,072
-155,935	800,000	0,063	0,174
-154,920	800,000	0,039	0,113
-153,906	522,559	-0,085	0,145
-152,891	258,515	0,076	-0,095
-151,877	-153,421	0,035	0,002
-150,862	548,894	-0,078	-0,135
-149,847	800,000	0,036	-0,087
-148,833	-111,544	-0,035	-0,005
-147,818	-52,012	0,064	0,021
-146,804	-200,000	0,003	0,042
-145,789	198,945	-0,014	0,015
-144,775	193,015	-0,062	0,068
-143,760	423,939	-0,073	-0,114
-142,745	-140,096	0,084	0,006
-141,731	507,427	0,037	0,063
-140,716	-11,950	0,069	0,033
-139,702	19,320	0,129	0,075
-138,687	405,098	0,048	0,073
-137,672	-200,000	0,027	0,096
-136,658	-128,900	-0,132	0,013
-135,643	-200,000	0,010	-0,067
-134,629	-200,000	-0,043	0,142
-133,614	25,739	0,005	0,003
-132,599	800,000	0,023	0,070
-131,585	-200,000	0,008	-0,030
-130,570	-56,015	-0,125	-0,040
-129,556	800,000	0,067	-0,147
-128,541	-2,578	0,082	0,041
-127,526	296,266	0,059	-0,078
-126,512	412,062	0,019	-0,029
-125,497	44,547	-0,074	0,049
-124,483	789,890	-0,050	0,100
-123,468	800,000	0,025	0,067
-122,453	-145,788	0,103	-0,007
-121,439	29,389	-0,046	-0,028
-120,424	-75,894	-0,096	0,024
-119,410	800,000	0,027	0,083
-118,395	302,221	-0,030	0,040
-117,380	243,919	-0,062	0,075
-116,366	458,696	0,063	-0,101
-115,351	253,874	0,018	0,022
-114,337	800,000	0,018	0,043
-113,322	-12,671	-0,049	0,023
-112,307	-115,541	-0,124	0,017
-111,293	800,000	0,032	-0,090
-110,278	482,050	-0,089	0,147
-109,264	-200,000	0,005	0,062
-108,249	33,440	-0,131	0,082
-107,234	-200,000	0,007	-0,083
-106,220	-13,063	-0,063	-0,029
-105,205	-101,827	0,167	0,029
-104,191	800,000	0,004	0,010
-103,176	-200,000	0,093	-0,000
-102,162	234,327	-0,061	-0,073
-101,147	143,817	-0,060	-0,058
-100,132	-38,147	0,137	-0,052
-99,118	73,675	-0,166	-0,125
-98,103	-91,990	-0,085	0,017
-97,089	-200,000	0,003	0,102
-96,074	481,014	-0,065	0,107
-95,059	235,088	0,100	0,119
-94,045	122,812	0,020	0,018
-93,030	800,000	-0,066	-0,148
-92,016	93,056	-0,076	0,062
-91,001	265,980	-0,095	0,120
-89,986	81,361	0,152	0,118
-88,972	-122,550	-0,060	-0,007
-87,957	-16,479	0,099	-0,045
-86,943	95,537	0,047	0,038
-85,928	-200,000	-0,047	-0,179
-84,913	-2,124	-0,137	0,069
-83,899	758,227	-0,057	-0,111
-82,884	31,097	0,056	0,035
-81,870	-93,037	0,161	-0,032
-80,855	-96,552	0,079	0,015
-79,840	66,832	0,006	0,004
-78,826	-44,571	-0,051	-0,018
-77,811	357,028	-0,032	-0,047
-76,797	-200,000	0,009	0,052
-75,782	-200,000	0,006	-0,060
-74,767	3,540	-0,056	0,029
-73,753	800,000	0,075	0,203
-72,738	137,440	-0,004	0,004
-71,724	800,000	-0,051	0,163
-70,709	87,281	0,057	0,045
-69,694	-14,374	0,063	-0,029
-68,680	-200,000	-0,004	-0,073
-67,665	-105,091	0,102	-0,017
-66,651	-200,000	-0,008	-0,035
-65,636	79,605	0,058	-0,045
-64,622	768,467	-0,022	-0,044
-63,607	-11,845	0,054	-0,025
-62,592	-176,500	0,077	0,001
-61,578	-11,504	0,016	0,007
-60,563	-200,000	0,010	0,036
-59,549	800,000	-0,050	0,135
-58,534	-23,384	-1,583	-0,682
-57,519	-200,000	-0,293	-1,013
-56,505	-200,000	-1,140	-4,779
-55,490	5,215	0,712	0,377
-54,476	800,000	5,132	11,782
-53,461	-200,000	16,779	271,586
-52,446	800,000	714,401	2198,513
-51,432	546,144	1627,322	2812,520
-50,417	116,107	1622,689	1430,558
-49,403	80,125	1283,532	992,960
-48,388	34,887	1030,516	647,797
-47,373	20,805	993,183	577,673
-46,359	19,512	981,450	566,556
-45,344	17,326	977,343	556,970
-44,330	17,565	975,813	556,861
-43,315	17,112	974,162	554,411
-42,300	17,103	973,220	553,821
-41,286	17,115	972,023	553,157
-40,271	17,080	971,239	552,575
-39,257	17,131	970,376	552,230
-38,242	17,040	969,784	551,575
-37,227	17,059	968,964	551,147
-36,213	17,084	967,949	550,630
-35,198	17,100	966,983	550,108
-34,184	17,175	966,206	549,890
-33,169	17,030	965,400	548,937
-32,154	17,113	964,542	548,698
-31,140	17,097	963,602	548,089
-30,125	17,117	962,839	547,698
-29,111	17,061	962,021	547,030
-28,096	17,122	961,335	546,816
-27,082	17,100	960,627	546,321
-26,067	17,111	959,685	545,798
-25,052	17,091	958,991	545,316
-24,038	17,068	958,498	544,941
-23,023	17,042	957,792	544,435
-22,009	17,171	957,160	544,470
-20,994	17,100	956,419	543,798
-19,979	17,065	955,872	543,354
-18,965	17,036	955,288	542,906
-17,950	17,089	954,628	542,681
-16,936	16,988	953,847	541,889
-15,921	17,018	953,148	541,567
-14,906	16,979	952,355	540,970
-13,892	16,905	952,084	540,558
-12,877	16,929	951,287	540,159
-11,863	16,903	950,497	539,607
-10,848	16,956	950,091	539,524
-9,833	17,063	949,471	539,493
-8,819	16,973	949,032	538,934
-7,804	16,958	948,172	538,378
-6,790	16,942	947,648	538,006
-5,775	17,019	946,915	537,815
-4,760	16,959	946,637	537,446
-3,746	17,039	945,835	537,222
-2,731	16,793	945,191	536,052
-1,717	16,791	944,406	535,580
-0,702	16,817	943,779	535,284
0,313	16,568	943,280	535,020
1,327	19,119	940,806	541,653
2,342	26,133	813,716	487,574
3,356	20,174	518,066	300,052
4,371	-1,803	390,121	196,839
5,386	-4,306	373,864	185,417
6,400	-5,451	367,703	180,902
7,415	-6,334	364,742	178,325
8,429	-6,564	363,111	177,226
9,444	-6,534	362,089	176,749
10,459	-6,697	361,401	176,195
11,473	-6,693	360,697	175,840
12,488	-6,688	360,165	175,572
13,502	-6,798	359,554	175,123
14,517	-7,052	359,021	174,536
15,531	-7,275	358,237	173,865
16,546	-7,335	357,703	173,517
17,561	-7,465	357,352	173,172
18,575	-7,432	357,048	173,050
19,590	-7,624	356,611	172,588
20,604	-7,370	356,184	172,676
21,619	-7,491	355,767	172,311
22,634	-7,450	355,312	172,124
23,648	-7,569	354,974	171,800
24,663	-7,556	354,567	171,604
25,677	-7,588	354,426	171,482
26,692	-7,511	354,111	171,407
27,707	-7,445	353,635	171,242
28,721	-7,622	353,309	170,854
29,736	-7,531	353,068	170,833
30,750	-7,545	352,670	170,608
31,765	-7,657	352,465	170,359
32,780	-7,647	352,034	170,147
33,794	-7,497	351,874	170,235
34,809	-7,699	351,615	169,851
35,823	-7,482	351,133	169,865
36,838	-7,690	351,012	169,541
37,853	-7,613	350,483	169,363
38,867	-7,699	350,352	169,182
39,882	-7,692	350,052	169,030
40,896	-7,559	349,650	168,980
41,911	-7,644	349,445	168,763
42,926	-7,725	349,053	168,463
43,940	-7,713	348,744	168,313
44,955	-7,768	348,511	168,120
45,969	-7,838	348,194	167,869
46,984	-8,018	347,977	167,534
47,999	-8,053	347,611	167,302
49,013	-8,032	347,288	167,156
50,028	-8,141	347,106	166,924
51,042	-8,098	346,762	166,795
52,057	-8,012	346,462	166,738
53,071	-8,068	346,305	166,582
54,086	-8,142	346,112	166,386
55,101	-8,068	345,693	166,257
56,115	-7,879	345,491	166,368
57,130	-7,580	345,353	166,640
58,144	-7,327	345,120	166,811
59,159	-7,250	344,951	166,805
60,174	-7,337	344,638	166,536
61,188	-7,378	344,327	166,323
62,203	-7,532	344,134	166,034
63,217	-7,569	343,829	165,829
64,232	-7,406	343,506	165,850
65,247	-7,265	343,304	165,902
66,261	-7,335	342,942	165,630
67,276	-7,826	342,628	164,890
68,290	-7,835	342,245	164,680
69,305	-7,664	341,997	164,746
70,320	-7,723	341,649	164,495
71,334	-7,771	341,550	164,377
72,349	-7,440	341,379	164,665
73,363	-7,158	341,149	164,868
74,378	-7,366	340,827	164,456
75,393	-7,445	340,528	164,205
76,407	-7,504	340,182	163,955
77,422	-7,514	339,951	163,817
78,436	-7,533	339,746	163,682
79,451	-7,433	339,393	163,613
80,466	-7,567	338,994	163,252
81,480	-7,764	338,762	162,898
82,495	-7,918	338,523	162,590
83,509	-7,746	338,241	162,639
84,524	-7,723	337,765	162,422
85,539	-7,907	337,625	162,129
86,553	-7,927	337,494	162,029
87,568	-7,899	337,271	161,938
88,582	-7,877	336,951	161,796
89,597	-7,790	336,654	161,738
90,611	-7,731	336,425	161,682
91,626	-7,711	336,268	161,615
92,641	-7,723	336,081	161,497
93,655	-7,796	335,583	161,159
94,670	-7,698	335,455	161,195
95,684	-7,810	335,247	160,953
96,699	-7,746	335,073	160,929
97,714	-7,886	334,740	160,594
98,728	-7,923	334,453	160,401
99,743	-8,026	334,279	160,186
100,757	-7,904	333,815	160,088
101,772	-7,825	333,632	160,075
102,787	-7,914	333,479	159,887
103,801	-7,797	333,398	159,966
104,816	-7,824	333,096	159,777
105,830	-7,647	332,939	159,887
106,845	-7,631	332,663	159,758
107,860	-7,598	332,392	159,652
108,874	-7,724	332,110	159,359
109,889	-7,594	331,813	159,350
110,903	-7,597	331,471	159,168
111,918	-7,809	331,298	158,832
112,933	-7,719	331,200	158,873
113,947	-7,692	330,968	158,777
114,962	-7,594	330,694	158,742
115,976	-7,669	330,537	158,567
116,991	-7,717	330,159	158,318
118,006	-7,633	329,860	158,255
119,020	-7,665	329,902	158,225
120,035	-7,526	329,731	158,285
121,049	-7,415	329,511	158,289
122,064	-7,569	329,142	157,926
123,079	-7,630	328,905	157,730
124,093	-7,756	328,563	157,411
125,108	-7,912	328,405	157,148
126,122	-8,024	328,085	156,855
127,137	-8,048	327,855	156,705
128,151	-7,933	327,637	156,715
129,166	-7,796	327,242	156,665
130,181	-7,817	326,962	156,492
131,195	-8,011	326,798	156,185
132,210	-7,762	326,658	156,380
133,224	-7,789	326,501	156,261
134,239	-7,564	326,234	156,368
135,254	-7,528	326,033	156,299
136,268	-7,756	325,616	155,832
137,283	-7,869	325,358	155,571
138,297	-7,996	325,177	155,330
139,312	-7,909	324,940	155,298
140,327	-7,578	324,752	155,559
141,341	-7,267	324,761	155,892
142,356	-7,007	324,531	156,054
143,370	-7,224	324,389	155,733
144,385	-7,193	324,182	155,654
145,400	-7,264	323,915	155,434
146,414	-7,197	323,766	155,422
147,429	-7,381	323,482	155,070
148,443	-7,146	323,144	155,152
149,458	-7,161	322,953	155,030
150,473	-7,069	322,726	155,008
151,487	-7,207	322,508	154,739
152,502	-7,367	322,235	154,419
153,516	-7,250	322,114	154,474
154,531	-7,270	321,875	154,325
155,546	-7,160	321,658	154,326
156,560	-7,403	321,298	153,876
157,575	-7,374	320,860	153,684
158,589	-7,310	320,824	153,722
159,604	-7,165	320,715	153,814
160,619	-7,238	320,486	153,611
161,633	-7,005	320,311	153,765
162,648	-7,036	320,195	153,662
163,662	-7,272	319,894	153,249
164,677	-7,339	319,495	152,972
165,692	-7,455	319,554	152,861
166,706	-7,226	319,253	152,951
167,721	-7,098	318,996	152,952
168,735	-6,929	318,937	153,093
169,750	-7,087	318,726	152,807
170,764	-7,095	318,491	152,673
171,779	-7,067	318,338	152,616
172,794	-7,074	318,153	152,506
173,808	-7,215	317,666	152,108
174,823	-7,664	317,264	151,419
175,837	-7,859	317,233	151,182
176,852	-7,356	317,035	151,613
177,867	-7,096	316,821	151,775
178,881	-7,131	316,717	151,675
179,896	-6,973	316,530	151,741
180,910	-7,063	316,366	151,552
181,925	-7,011	316,069	151,452
182,940	-6,957	315,828	151,381
183,954	-6,869	315,615	151,359
184,969	-7,063	315,524	151,095
185,983	-7,117	315,387	150,959
186,998	-7,049	315,127	150,893
188,013	-6,991	314,830	150,799
189,027	-6,798	314,403	150,786
190,042	-6,871	314,391	150,690
191,056	-6,933	314,289	150,561
192,071	-6,602	314,118	150,816
193,086	-6,906	313,871	150,362
194,100	-6,748	313,610	150,391
195,115	-6,883	313,332	150,102
196,129	-6,916	313,220	150,000
197,144	-6,827	312,805	149,882
198,159	-6,752	312,567	149,834
199,173	-6,940	312,566	149,622
200,188	-6,676	312,246	149,733
201,202	-7,126	311,953	149,106
202,217	-7,445	311,351	148,470
203,232	-7,593	311,231	148,245
204,246	-7,221	311,070	148,544
205,261	-6,887	310,973	148,835
206,275	-6,849	310,942	148,846
207,290	-6,933	310,646	148,604
208,304	-6,864	310,384	148,537
209,319	-6,721	310,168	148,569
210,334	-6,892	310,030	148,312
211,348	-6,958	309,850	148,144
212,363	-6,854	309,685	148,161
213,377	-6,903	309,520	148,017
214,392	-6,975	309,236	147,794
215,407	-7,293	308,845	147,263
216,421	-7,338	308,542	147,058
217,436	-7,457	308,460	146,882
218,450	-7,398	308,182	146,798
219,465	-7,082	308,108	147,078
220,480	-7,071	307,845	146,950
221,494	-7,288	307,749	146,667
222,509	-7,387	307,507	146,435
223,523	-7,241	307,439	146,541
224,538	-6,897	307,211	146,775
225,553	-6,961	307,192	146,686
226,567	-6,923	306,895	146,571
227,582	-6,749	306,590	146,592
228,596	-6,730	306,496	146,554
229,611	-6,707	306,402	146,519
230,626	-6,915	305,991	146,095
231,640	-7,358	305,547	145,415
232,655	-7,780	305,497	144,945
233,669	-7,653	304,991	144,823
234,684	-7,658	304,932	144,776
235,699	-7,704	304,800	144,653
236,713	-7,574	304,611	144,684
237,728	-7,426	304,184	144,620
238,742	-7,354	304,403	144,785
239,757	-7,136	304,166	144,881
240,772	-7,268	303,932	144,623
241,786	-7,278	303,754	144,515
242,801	-7,454	303,335	144,123
243,815	-7,412	303,418	144,193
244,830	-7,169	303,151	144,300
245,844	-7,272	302,900	144,063
246,859	-7,158	302,600	144,024
247,874	-7,069	302,519	144,062
248,888	-7,133	302,285	143,873
249,903	-7,076	302,229	143,891
250,917	-6,928	302,116	143,975
251,932	-6,656	302,114	144,237
252,947	-5,574	302,355	145,437
253,961	-5,273	302,046	145,580
254,976	-4,564	302,567	146,537
255,990	-3,637	302,430	147,397
257,005	-3,981	302,344	146,993
258,020	-1,713	303,116	149,656
259,034	-0,738	303,463	150,803
260,049	-0,348	303,336	151,123
261,063	0,054	303,295	151,497
262,078	0,269	303,225	151,665
263,093	0,320	302,852	151,517
264,107	0,366	302,685	151,467
265,122	0,303	302,680	151,386
266,136	0,459	302,408	151,395
267,151	0,456	302,267	151,307
268,166	0,347	302,218	151,160
269,180	0,482	301,937	151,142
270,195	0,490	301,537	150,936
271,209	0,561	301,442	150,946
272,224	0,631	301,125	150,844
273,239	0,552	301,065	150,722
274,253	0,523	300,979	150,636
275,268	0,518	300,742	150,499
276,282	0,719	300,510	150,571
277,297	0,513	300,335	150,264
278,312	0,736	300,031	150,321
279,326	0,510	299,855	149,994
280,341	0,390	299,662	149,763
281,355	0,513	299,513	149,799
282,370	0,507	299,305	149,675
283,384	0,467	299,184	149,562
284,399	0,328	298,876	149,256
285,414	0,484	298,766	149,343
286,428	0,340	298,478	149,042
287,443	0,433	298,340	149,053
288,457	0,366	298,292	148,948
289,472	0,314	297,874	148,675
290,487	0,473	297,690	148,728
291,501	0,418	297,541	148,585
292,516	0,545	297,362	148,608
293,530	0,434	297,262	148,435
294,545	0,548	297,023	148,415
295,560	0,406	296,849	148,175
296,574	0,295	296,661	147,958
297,589	0,474	296,376	147,980
298,603	0,530	296,122	147,895
299,618	0,440	296,193	147,828
300,633	0,615	295,672	147,728
301,647	0,588	295,601	147,653
302,662	0,464	295,464	147,448
303,676	0,426	295,354	147,344
304,691	0,445	295,028	147,186
305,706	0,429	294,843	147,065
306,720	0,422	294,609	146,928
307,735	0,452	294,491	146,886
308,749	0,423	294,265	146,732
309,764	0,385	294,097	146,598
310,779	0,464	293,999	146,613
311,793	0,297	293,760	146,317
312,808	0,459	293,508	146,337
313,822	0,341	293,296	146,104
314,837	0,467	292,992	146,062
315,852	0,425	292,991	146,007
316,866	0,575	292,804	146,047
317,881	0,440	292,586	145,794
318,895	0,429	292,385	145,670
319,910	0,405	292,241	145,562
320,925	0,374	292,086	145,442
321,939	0,275	291,875	145,227
322,954	0,423	291,689	145,265
323,968	0,363	291,543	145,122
324,983	0,577	291,291	145,191
325,997	0,448	291,133	144,974
327,012	0,344	290,882	144,736
328,027	0,464	290,728	144,762
329,041	0,407	290,589	144,625
330,056	0,544	290,258	144,580
331,070	0,694	290,237	144,700
332,085	0,651	289,903	144,479
333,100	0,457	289,825	144,241
334,114	0,477	289,614	144,142
335,129	0,583	289,400	144,125
336,143	0,407	289,365	143,926
337,158	0,581	289,114	143,955
338,173	0,435	288,843	143,667
339,187	0,578	288,828	143,784
340,202	0,443	288,449	143,453
341,216	0,679	288,290	143,587
342,231	0,372	288,206	143,239
343,246	0,319	288,144	143,145
344,260	0,585	287,793	143,211
345,275	0,616	287,663	143,164
346,289	0,772	287,356	143,147
347,304	0,558	287,230	142,868
348,319	0,581	287,029	142,776
349,333	0,633	286,901	142,750
350,348	0,576	286,623	142,545
351,362	0,605	286,433	142,464
352,377	0,584	286,280	142,356
353,392	0,649	286,205	142,368
354,406	0,709	286,034	142,327
355,421	193,053	1326,119	1399,657
356,435	156,477	1452,836	1399,674
