DTS Sentinel unit serial number:	SN410029Multiplexer serial number:	ORYXHardware model number:	OX2-SRSoftware version number:	ORYX F/W v4,00 Oryx Data Collector v3.7.2.0data status	okinstallation	B4 Nyhavnadifferential loss correction	single-endedforward channel	channel 2reverse channel	N/Adate	2023/12/15time	14:10:13forward acquisition time	300,00reverse acquisition time	0,00gamma	499,1914k internal	0,3162k external	0,3162temperature offset calibration	1,0000default loss term (dB/km)	0,3820temperature slope calibration	1,0000multiplexer offset coefficient	1,0000multiplexer slope coefficient	1,0000fibre end	0,00T internal ref (°C)	14,50T ext. ref 1 (°C)	1,24T ext. ref 2 (°C)	1,37length (m)	temperature (°C)	Stokes	anti-Stokes-744,400	114,568	0,038	-0,034
-743,385	-136,431	-0,316	0,027
-742,371	582,199	0,027	-0,049
-741,356	-153,590	-0,310	-0,015
-740,342	-132,903	0,104	-0,010
-739,327	-109,224	-0,385	0,059
-738,312	30,374	0,107	0,067
-737,298	-106,288	-0,210	-0,034
-736,283	59,988	0,075	0,055
-735,269	-158,818	-0,266	0,011
-734,254	-200,000	-0,002	0,014
-733,239	18,195	-0,511	-0,300
-732,225	10,741	0,132	-0,074
-731,210	-200,000	-0,028	0,119
-730,196	-166,663	0,035	0,001
-729,181	97,843	-0,092	0,078
-728,167	19,860	-0,204	-0,121
-727,152	-23,645	-0,036	0,016
-726,137	-144,380	-0,059	0,004
-725,123	108,877	-0,043	0,038
-724,108	-14,539	0,070	-0,033
-723,094	135,342	-0,141	-0,135
-722,079	800,000	-0,041	-0,111
-721,064	-110,715	-0,096	-0,015
-720,050	-200,000	0,003	0,056
-719,035	419,392	-0,021	0,032
-718,021	-200,000	0,005	0,027
-717,006	-72,048	-0,180	0,049
-715,991	175,044	0,073	-0,078
-714,977	-200,000	-0,019	-0,083
-713,962	-21,938	-0,068	-0,030
-712,948	-200,000	-0,036	-0,212
-711,933	134,682	0,010	0,010
-710,918	-83,730	-0,163	-0,038
-709,904	415,373	0,017	-0,026
-708,889	201,536	-0,090	-0,102
-707,875	118,257	-0,117	0,106
-706,860	546,453	-0,027	-0,048
-705,845	147,809	0,018	-0,018
-704,831	-11,053	-0,068	0,033
-703,816	110,801	-0,139	-0,123
-702,802	-200,000	0,003	-0,069
-701,787	-145,669	0,044	0,003
-700,772	-200,000	0,004	0,015
-699,758	267,486	0,044	0,057
-698,743	800,000	0,065	0,133
-697,729	-200,000	0,036	0,150
-696,714	48,469	-0,056	-0,038
-695,699	40,074	-0,096	0,063
-694,685	-151,245	-0,097	0,005
-693,670	-200,000	-0,052	-0,194
-692,656	-200,000	0,011	0,036
-691,641	-200,000	-0,024	0,164
-690,627	103,554	-0,088	0,075
-689,612	-90,104	-0,157	0,033
-688,597	354,892	-0,046	0,067
-687,583	-200,000	-0,040	-0,221
-686,568	-200,000	-0,010	-0,074
-685,554	-58,994	-0,205	-0,065
-684,539	-26,565	-0,006	0,003
-683,524	-115,940	0,046	-0,006
-682,510	154,907	-0,086	0,087
-681,495	215,292	-0,087	-0,101
-680,481	-6,854	-0,128	-0,064
-679,466	779,756	0,034	-0,068
-678,451	-65,698	-0,022	-0,006
-677,437	-49,278	0,131	0,046
-676,422	-26,591	0,069	0,030
-675,408	-26,525	-0,042	-0,018
-674,393	800,000	-0,057	-0,133
-673,378	-200,000	0,054	-0,177
-672,364	-14,744	-0,075	-0,035
-671,349	67,296	-0,072	-0,054
-670,335	415,106	-0,026	-0,041
-669,320	377,655	0,024	-0,037
-668,305	-41,176	0,137	0,052
-667,291	800,000	-0,051	-0,135
-666,276	184,327	-0,078	-0,085
-665,262	111,681	-0,096	-0,085
-664,247	-48,360	0,046	0,016
-663,232	6,269	0,175	-0,095
-662,218	-133,749	-0,037	0,003
-661,203	-72,183	0,068	-0,018
-660,189	326,499	-0,088	-0,124
-659,174	91,627	-0,100	-0,083
-658,159	-7,891	0,134	0,066
-657,145	-200,000	-0,029	-0,116
-656,130	-127,288	-0,011	0,001
-655,116	-140,879	0,128	-0,010
-654,101	52,103	0,096	0,067
-653,086	-60,241	-0,065	-0,020
-652,072	-150,853	0,148	0,008
-651,057	-52,288	-0,110	-0,037
-650,043	103,574	-0,019	-0,017
-649,028	117,736	0,028	0,025
-648,014	-200,000	0,001	-0,025
-646,999	800,000	-0,002	-0,005
-645,984	-31,362	-0,130	-0,053
-644,970	-200,000	0,015	-0,119
-643,955	24,979	-0,026	-0,016
-642,941	17,799	0,096	-0,056
-641,926	96,352	0,109	0,091
-640,911	-200,000	0,014	0,056
-639,897	-51,493	-0,148	0,051
-638,882	248,584	0,068	0,084
-637,868	-6,178	-0,166	-0,083
-636,853	800,000	-0,049	-0,122
-635,838	-74,363	-0,084	-0,022
-634,824	-200,000	-0,014	0,184
-633,809	-8,242	-0,124	-0,061
-632,795	126,205	-0,031	0,028
-631,780	-117,202	0,019	-0,003
-630,765	800,000	-0,048	-0,101
-629,751	19,143	0,119	-0,070
-628,736	-200,000	-0,007	-0,152
-627,722	131,062	-0,086	0,081
-626,707	-98,249	-0,072	0,013
-625,692	-72,776	0,091	0,024
-624,678	-200,000	0,028	-0,160
-623,663	179,640	0,055	-0,059
-622,649	-200,000	-0,006	-0,184
-621,634	675,798	-0,078	-0,149
-620,619	119,999	-0,143	-0,130
-619,605	800,000	0,046	0,104
-618,590	-52,210	0,044	-0,015
-617,576	107,156	0,044	-0,038
-616,561	296,898	-0,059	-0,080
-615,546	800,000	-0,030	-0,097
-614,532	800,000	-0,018	-0,054
-613,517	-47,786	0,025	0,009
-612,503	187,032	0,026	-0,029
-611,488	239,866	-0,050	-0,062
-610,474	-115,616	0,013	0,002
-609,459	18,663	-0,082	0,048
-608,444	-200,000	-0,015	0,060
-607,430	112,997	-0,015	-0,013
-606,415	217,737	-0,050	-0,058
-605,401	305,986	-0,062	-0,084
-604,386	-113,337	-0,084	0,012
-603,371	-65,937	0,086	0,025
-602,357	-92,826	-0,117	-0,024
-601,342	-41,969	-0,085	-0,032
-600,328	16,819	-0,115	-0,067
-599,313	-200,000	-0,019	0,073
-598,298	800,000	0,023	0,071
-597,284	-40,706	0,120	0,045
-596,269	-72,355	0,079	-0,021
-595,255	800,000	0,048	0,135
-594,240	222,390	-0,037	-0,044
-593,225	148,465	-0,120	-0,119
-592,211	-166,090	0,055	-0,002
-591,196	781,788	0,048	-0,098
-590,182	800,000	-0,043	0,091
-589,167	187,577	0,064	0,070
-588,152	-150,908	-0,043	0,002
-587,138	164,439	-0,059	-0,061
-586,123	-155,385	0,161	-0,007
-585,109	-78,772	-0,123	-0,030
-584,094	-100,224	-0,024	0,004
-583,079	-200,000	0,002	0,024
-582,065	-131,168	0,055	0,005
-581,050	-200,000	-0,026	0,092
-580,036	-52,754	-0,088	-0,030
-579,021	657,519	-0,010	-0,019
-578,006	-200,000	-0,002	-0,151
-576,992	478,846	-0,079	-0,132
-575,977	800,000	-0,025	0,074
-574,963	-129,607	0,262	0,026
-573,948	113,003	-0,039	0,034
-572,934	800,000	-0,036	0,112
-571,919	-98,004	0,031	0,006
-570,904	12,770	0,063	-0,035
-569,890	800,000	-0,028	-0,080
-568,875	-200,000	-0,003	-0,082
-567,861	800,000	-0,033	0,099
-566,846	671,289	0,052	0,099
-565,831	-200,000	0,012	0,068
-564,817	800,000	-0,055	-0,115
-563,802	-95,251	-0,062	-0,012
-562,788	223,778	-0,036	-0,043
-561,773	800,000	-0,019	-0,052
-560,758	-200,000	-0,020	0,099
-559,744	617,185	0,029	-0,053
-558,729	-200,000	0,000	0,158
-557,715	-68,743	-0,106	-0,030
-556,700	-96,167	-0,050	-0,010
-555,685	800,000	-0,044	-0,129
-554,671	800,000	-0,035	-0,100
-553,656	-156,055	0,058	-0,003
-552,642	800,000	0,020	0,048
-551,627	39,799	0,072	0,047
-550,612	41,979	-0,044	-0,029
-549,598	23,883	-0,123	-0,074
-548,583	-26,528	0,078	0,033
-547,569	-108,941	0,069	-0,011
-546,554	378,010	-0,030	0,045
-545,539	800,000	0,022	0,053
-544,525	-200,000	0,026	-0,121
-543,510	-182,603	0,028	-0,000
-542,496	698,135	0,010	0,019
-541,481	128,969	-0,117	0,109
-540,466	56,254	0,093	0,066
-539,452	-200,000	-0,016	0,080
-538,437	800,000	-0,022	0,065
-537,423	-29,159	0,085	0,035
-536,408	800,000	-0,060	0,153
-535,393	-200,000	-0,010	-0,228
-534,379	-126,665	-0,066	-0,007
-533,364	351,319	0,055	-0,080
-532,350	-48,962	0,295	-0,103
-531,335	-83,387	-0,128	0,030
-530,321	800,000	-0,035	0,105
-529,306	-90,620	0,086	0,018
-528,291	41,227	0,071	-0,047
-527,277	88,319	-0,182	0,148
-526,262	107,088	-0,050	-0,043
-525,248	173,020	-0,007	-0,007
-524,233	208,526	0,026	0,029
-523,218	-200,000	0,002	0,051
-522,204	508,103	-0,040	-0,067
-521,189	-88,161	-0,109	0,024
-520,175	-200,000	0,011	-0,047
-519,160	156,186	-0,077	0,078
-518,145	623,948	0,004	-0,007
-517,131	77,814	0,146	0,114
-516,116	-8,755	0,088	-0,043
-515,102	12,151	-0,053	-0,030
-514,087	-13,586	-0,089	-0,042
-513,072	-200,000	0,011	-0,182
-512,058	-75,542	-0,105	-0,027
-511,043	-51,863	0,106	-0,036
-510,029	-13,955	-0,065	-0,031
-509,014	51,159	0,075	-0,052
-507,999	51,547	-0,051	-0,035
-506,985	141,133	-0,024	-0,023
-505,970	136,651	0,035	-0,033
-504,956	430,573	-0,034	-0,054
-503,941	-103,946	0,087	-0,015
-502,926	-101,028	0,102	0,018
-501,912	-197,554	0,092	0,000
-500,897	-200,000	-0,044	0,175
-499,883	-180,834	-0,050	0,001
-498,868	-200,000	0,019	0,079
-497,853	-200,000	-0,001	0,124
-496,839	477,398	0,060	0,100
-495,824	-114,272	-0,124	0,017
-494,810	-46,561	0,145	0,052
-493,795	-149,959	0,006	-0,000
-492,781	47,522	-0,059	-0,040
-491,766	124,553	-0,034	-0,031
-490,751	346,916	-0,040	-0,057
-489,737	-200,000	-0,016	-0,099
-488,722	284,840	0,090	-0,118
-487,708	-147,867	0,034	0,002
-486,693	747,899	0,009	-0,018
-485,678	-200,000	0,011	0,036
-484,664	-200,000	-0,002	0,014
-483,649	81,700	-0,107	-0,084
-482,635	15,028	-0,005	-0,003
-481,620	-162,153	0,105	0,004
-480,605	-68,363	-0,055	-0,015
-479,591	155,164	-0,012	0,012
-478,576	8,666	-0,114	-0,062
-477,562	800,000	0,032	-0,071
-476,547	-14,026	0,069	-0,032
-475,532	800,000	-0,054	-0,129
-474,518	-6,791	0,112	-0,055
-473,503	153,414	-0,097	0,097
-472,489	-143,594	0,067	-0,005
-471,474	-200,000	-0,021	-0,088
-470,459	-200,000	0,004	-0,156
-469,445	-200,000	0,007	-0,030
-468,430	800,000	-0,031	-0,094
-467,416	-200,000	0,043	0,170
-466,401	-30,694	0,161	0,066
-465,386	3,080	0,031	-0,016
-464,372	78,670	0,039	-0,030
-463,357	-200,000	0,003	-0,053
-462,343	-146,400	0,113	0,007
-461,328	304,831	-0,046	-0,062
-460,313	-200,000	-0,004	0,045
-459,299	-141,827	-0,127	0,009
-458,284	-200,000	0,042	0,141
-457,270	-64,358	-0,029	-0,009
-456,255	32,810	-0,019	-0,012
-455,241	138,529	-0,042	-0,040
-454,226	-200,000	0,001	-0,086
-453,211	-134,836	0,080	0,007
-452,197	50,132	0,057	0,039
-451,182	63,522	-0,104	-0,076
-450,168	260,171	0,043	-0,054
-449,153	526,567	0,045	0,078
-448,138	121,142	-0,071	0,064
-447,124	151,397	-0,078	-0,078
-446,109	-200,000	0,025	0,091
-445,095	-106,382	-0,105	-0,017
-444,080	271,812	0,062	0,079
-443,065	300,432	-0,033	-0,045
-442,051	-0,212	-0,027	0,014
-441,036	-200,000	0,007	-0,097
-440,022	-200,000	-0,007	-0,065
-439,007	-107,291	0,141	-0,022
-437,992	249,034	-0,035	-0,043
-436,978	134,063	-0,075	0,071
-435,963	-200,000	-0,011	0,183
-434,949	24,452	0,070	0,042
-433,934	283,341	-0,098	-0,129
-432,919	17,817	0,085	-0,049
-431,905	800,000	-0,041	0,111
-430,890	15,254	0,009	-0,005
-429,876	800,000	0,040	0,092
-428,861	-87,796	0,077	0,017
-427,846	472,090	-0,073	0,120
-426,832	-92,777	0,088	0,018
-425,817	-200,000	-0,014	0,105
-424,803	800,000	-0,030	-0,065
-423,788	800,000	-0,003	0,007
-422,773	571,547	-0,041	0,073
-421,759	10,326	-0,121	0,067
-420,744	115,952	-0,051	0,045
-419,730	-200,000	0,002	0,035
-418,715	50,918	-0,161	-0,111
-417,701	800,000	-0,016	-0,045
-416,686	800,000	0,028	0,082
-415,671	-159,133	-0,041	-0,002
-414,657	-200,000	0,029	0,127
-413,642	800,000	0,021	0,061
-412,628	643,165	-0,031	-0,057
-411,613	-200,000	-0,020	-0,120
-410,598	-200,000	0,020	-0,071
-409,584	11,268	0,059	0,033
-408,569	20,072	0,102	0,060
-407,555	-200,000	-0,007	0,096
-406,540	66,121	0,134	0,099
-405,525	-52,442	-0,046	-0,015
-404,511	800,000	-0,019	0,041
-403,496	-138,722	-0,107	0,008
-402,482	-82,448	-0,070	0,016
-401,467	-25,083	0,097	0,042
-400,452	97,786	0,046	-0,038
-399,438	-175,699	0,138	-0,003
-398,423	105,809	0,047	0,041
-397,409	-200,000	-0,033	-0,187
-396,394	-200,000	-0,027	0,145
-395,379	496,859	-0,039	-0,066
-394,365	-109,490	0,083	0,013
-393,350	-200,000	0,003	0,058
-392,336	-200,000	-0,019	0,175
-391,321	-60,631	-0,312	0,095
-390,306	623,578	-0,064	0,117
-389,292	3,062	0,138	-0,073
-388,277	-46,289	0,084	0,030
-387,263	-92,260	0,060	-0,012
-386,248	447,260	0,093	-0,150
-385,233	-125,202	0,107	0,012
-384,219	-136,258	0,100	0,008
-383,204	-45,991	-0,093	0,033
-382,190	-200,000	0,004	0,045
-381,175	-200,000	0,009	-0,147
-380,160	170,822	-0,129	0,135
-379,146	-200,000	0,020	-0,113
-378,131	521,310	0,090	0,154
-377,117	-50,260	0,074	-0,025
-376,102	-46,041	-0,039	-0,014
-375,088	-200,000	0,002	-0,284
-374,073	-91,730	-0,092	0,019
-373,058	167,360	0,094	0,097
-372,044	436,676	0,073	-0,116
-371,029	-200,000	0,044	0,186
-370,015	-21,449	0,085	0,038
-369,000	430,245	0,037	-0,059
-367,985	-200,000	-0,022	0,122
-366,971	800,000	0,006	0,014
-365,956	-200,000	-0,016	0,095
-364,942	-200,000	-0,001	0,101
-363,927	589,752	0,024	-0,043
-362,912	296,739	0,027	0,037
-361,898	151,983	-0,146	0,144
-360,883	-200,000	0,007	-0,041
-359,869	-200,000	0,006	-0,040
-358,854	-200,000	-0,001	-0,061
-357,839	90,063	-0,068	0,055
-356,825	23,443	0,101	0,060
-355,810	2,240	0,140	0,073
-354,796	-200,000	-0,014	0,080
-353,781	800,000	0,019	-0,041
-352,766	-169,021	-0,153	0,004
-351,752	126,546	-0,075	-0,069
-350,737	800,000	0,045	-0,113
-349,723	-78,702	-0,041	0,010
-348,708	-200,000	0,010	-0,051
-347,693	84,418	-0,032	-0,025
-346,679	-71,833	-0,047	-0,013
-345,664	-200,000	0,022	0,129
-344,650	800,000	0,056	0,123
-343,635	-65,369	0,105	-0,030
-342,620	-164,572	0,162	-0,005
-341,606	95,694	-0,065	0,054
-340,591	21,296	-0,066	0,039
-339,577	-200,000	-0,008	0,072
-338,562	-139,700	0,036	-0,003
-337,548	-200,000	0,006	0,044
-336,533	254,372	0,025	-0,031
-335,518	-28,944	0,018	-0,008
-334,504	-101,367	0,090	0,016
-333,489	-200,000	-0,006	-0,169
-332,475	-200,000	-0,012	-0,070
-331,460	32,741	-0,067	0,042
-330,445	800,000	0,027	-0,083
-329,431	-200,000	-0,002	-0,055
-328,416	800,000	0,042	0,094
-327,402	-200,000	0,016	0,136
-326,387	-200,000	-0,003	-0,126
-325,372	-200,000	0,021	0,162
-324,358	800,000	-0,020	0,041
-323,343	138,535	0,052	-0,049
-322,329	-118,958	-0,153	0,019
-321,314	578,655	0,028	0,049
-320,299	195,031	-0,047	-0,052
-319,285	-200,000	-0,039	-0,165
-318,270	-200,000	-0,002	0,032
-317,256	-20,107	-0,004	-0,002
-316,241	800,000	0,008	-0,023
-315,226	800,000	0,041	-0,088
-314,212	95,614	0,042	0,034
-313,197	143,361	0,054	0,052
-312,183	534,073	-0,036	-0,062
-311,168	-69,833	0,066	-0,018
-310,153	-170,188	0,062	-0,002
-309,139	88,033	0,070	-0,056
-308,124	800,000	-0,029	-0,082
-307,110	194,792	-0,012	-0,013
-306,095	233,008	0,077	-0,092
-305,080	-200,000	-0,012	0,093
-304,066	-95,732	-0,153	-0,029
-303,051	-200,000	-0,025	0,083
-302,037	-18,774	0,031	-0,014
-301,022	33,075	0,058	-0,036
-300,008	-200,000	-0,025	0,083
-298,993	20,902	0,178	0,104
-297,978	-76,367	0,086	-0,022
-296,964	-85,532	0,036	-0,008
-295,949	269,419	-0,047	0,060
-294,935	-200,000	0,001	-0,033
-293,920	59,302	-0,076	-0,054
-292,905	-66,812	0,086	0,024
-291,891	800,000	0,055	0,119
-290,876	40,581	-0,133	0,087
-289,862	71,309	-0,038	0,028
-288,847	32,440	-0,052	-0,032
-287,832	800,000	0,063	-0,151
-286,818	800,000	-0,077	-0,155
-285,803	-200,000	-0,024	0,100
-284,789	-176,549	0,117	0,002
-283,774	800,000	0,075	0,224
-282,759	489,840	-0,089	-0,148
-281,745	-104,878	-0,145	-0,024
-280,730	38,508	-0,180	-0,116
-279,716	96,832	-0,058	-0,048
-278,701	252,160	0,026	0,032
-277,686	371,718	0,059	0,086
-276,672	800,000	-0,040	0,108
-275,657	115,842	-0,044	-0,039
-274,643	800,000	0,035	0,105
-273,628	577,845	-0,075	-0,133
-272,613	-67,201	-0,091	0,026
-271,599	-27,837	0,036	0,015
-270,584	158,617	-0,023	-0,023
-269,570	-64,223	0,173	-0,051
-268,555	800,000	0,010	-0,023
-267,540	70,485	0,029	-0,021
-266,526	32,728	-0,092	0,057
-265,511	90,500	-0,101	-0,082
-264,497	-132,455	0,016	-0,001
-263,482	-132,379	0,179	-0,016
-262,467	-128,620	0,128	0,013
-261,453	-200,000	0,010	0,109
-260,438	-94,163	-0,022	-0,004
-259,424	274,186	-0,064	-0,082
-258,409	800,000	-0,022	0,049
-257,395	3,347	-0,125	-0,066
-256,380	-200,000	0,004	-0,063
-255,365	800,000	-0,051	0,158
-254,351	800,000	0,046	-0,139
-253,336	189,544	0,041	0,044
-252,322	268,863	-0,039	-0,049
-251,307	-200,000	0,018	0,067
-250,292	-116,768	0,070	0,009
-249,278	259,164	0,056	-0,070
-248,263	-200,000	0,014	-0,057
-247,249	800,000	0,025	0,051
-246,234	-29,283	-0,131	0,054
-245,219	-200,000	0,007	-0,032
-244,205	601,086	-0,002	-0,003
-243,190	108,124	-0,108	0,093
-242,176	-135,596	0,076	-0,006
-241,161	-200,000	-0,042	0,140
-240,146	800,000	0,080	0,186
-239,132	232,831	-0,115	0,136
-238,117	-111,199	-0,195	-0,029
-237,103	800,000	-0,024	0,060
-236,088	-79,443	0,117	0,028
-235,073	1,752	0,187	-0,097
-234,059	-42,689	-0,102	0,037
-233,044	-11,723	-0,098	-0,046
-232,030	800,000	-0,026	0,069
-231,015	-200,000	-0,010	-0,084
-230,000	-102,239	0,242	-0,042
-228,986	20,416	-0,098	0,057
-227,971	10,134	0,065	0,036
-226,957	199,955	-0,111	0,123
-225,942	-200,000	0,001	0,043
-224,927	276,289	-0,068	-0,088
-223,913	800,000	0,054	-0,141
-222,898	800,000	-0,035	-0,106
-221,884	-40,079	-0,103	-0,038
-220,869	-200,000	-0,022	-0,094
-219,855	131,689	0,148	-0,137
-218,840	800,000	-0,003	-0,010
-217,825	-7,171	0,078	-0,038
-216,811	55,802	-0,117	0,081
-215,796	90,352	-0,030	0,024
-214,782	205,870	-0,039	0,044
-213,767	46,774	0,089	-0,060
-212,752	27,712	0,162	0,098
-211,738	-134,436	0,098	0,009
-210,723	134,114	0,028	0,027
-209,709	-200,000	-0,005	0,094
-208,694	800,000	0,055	0,116
-207,679	800,000	0,013	0,037
-206,665	211,059	0,074	0,084
-205,650	-200,000	0,003	0,025
-204,636	90,775	0,122	0,099
-203,621	-58,182	0,086	-0,027
-202,606	13,464	-0,148	-0,083
-201,592	65,994	-0,113	-0,083
-200,577	-174,447	0,104	-0,002
-199,563	800,000	-0,006	-0,020
-198,548	372,084	0,038	0,055
-197,533	516,194	-0,048	0,082
-196,519	-56,359	-0,032	0,010
-195,504	-144,266	0,077	-0,005
-194,490	70,976	-0,042	0,031
-193,475	214,380	-0,085	-0,097
-192,460	84,265	0,026	0,020
-191,446	-200,000	-0,016	-0,159
-190,431	147,032	0,040	0,039
-189,417	-16,641	0,080	0,036
-188,402	-5,540	-0,117	0,058
-187,387	800,000	-0,050	-0,149
-186,373	800,000	0,031	-0,076
-185,358	-5,744	-0,025	-0,012
-184,344	-200,000	0,028	0,096
-183,329	177,599	-0,075	0,079
-182,315	-81,692	0,087	-0,020
-181,300	-131,207	-0,113	0,011
-180,285	519,957	-0,038	0,065
-179,271	-200,000	0,002	-0,114
-178,256	-107,779	-0,060	-0,009
-177,242	800,000	-0,046	0,096
-176,227	800,000	0,060	0,185
-175,212	-200,000	0,013	-0,046
-174,198	19,636	-0,091	-0,052
-173,183	316,100	0,059	-0,081
-172,169	672,041	-0,024	-0,045
-171,154	-23,267	0,053	-0,023
-170,139	-200,000	-0,005	-0,091
-169,125	-54,257	0,045	0,015
-168,110	-89,652	0,077	0,016
-167,096	-200,000	-0,005	-0,055
-166,081	-98,879	0,087	0,016
-165,066	-59,109	-0,057	0,018
-164,052	-200,000	-0,001	-0,024
-163,037	-30,997	0,132	0,054
-162,023	-200,000	-0,014	0,103
-161,008	325,241	-0,136	0,188
-159,993	123,332	0,124	0,112
-158,979	-200,000	-0,003	-0,039
-157,964	-200,000	0,028	-0,125
-156,950	174,529	0,013	0,014
-155,935	800,000	0,047	-0,124
-154,920	54,320	0,073	0,050
-153,906	398,451	0,039	0,058
-152,891	-200,000	-0,008	-0,116
-151,877	-50,681	-0,097	0,033
-150,862	-108,818	0,107	0,016
-149,847	-200,000	-0,008	0,097
-148,833	-200,000	0,015	0,060
-147,818	20,278	0,080	0,046
-146,804	777,850	0,011	0,022
-145,789	800,000	0,036	-0,081
-144,775	-107,161	-0,107	-0,017
-143,760	-70,049	-0,086	0,023
-142,745	-200,000	-0,008	-0,054
-141,731	-200,000	-0,014	-0,119
-140,716	383,038	0,122	-0,180
-139,702	61,185	0,034	-0,025
-138,687	-200,000	0,008	0,148
-137,672	-92,870	-0,128	-0,025
-136,658	-11,924	-0,116	0,054
-135,643	169,176	0,055	-0,056
-134,629	-200,000	-0,009	-0,094
-133,614	-90,991	0,027	0,005
-132,599	7,505	0,021	0,011
-131,585	284,818	0,104	0,135
-130,570	-25,652	0,166	-0,070
-129,556	4,768	0,132	0,070
-128,541	701,319	-0,071	-0,134
-127,526	-57,794	0,019	0,006
-126,512	-143,412	0,117	-0,008
-125,497	800,000	0,045	-0,091
-124,483	16,092	-0,034	-0,019
-123,468	-42,430	-0,025	0,009
-122,453	190,276	-0,030	0,032
-121,439	310,556	-0,086	-0,116
-120,424	150,462	-0,067	0,066
-119,410	-200,000	0,006	-0,146
-118,395	151,140	0,153	0,150
-117,380	557,276	-0,050	0,086
-116,366	-200,000	-0,022	0,191
-115,351	-52,249	-0,088	0,029
-114,337	-200,000	0,013	0,048
-113,322	-200,000	0,011	0,052
-112,307	580,093	-0,046	-0,081
-111,293	185,192	0,030	-0,032
-110,278	-200,000	-0,006	-0,091
-109,264	-200,000	-0,014	-0,073
-108,249	-200,000	-0,014	-0,088
-107,234	-24,130	0,127	-0,054
-106,220	-200,000	0,019	-0,102
-105,205	800,000	0,042	0,093
-104,191	-78,864	0,184	0,045
-103,176	-100,776	-0,084	-0,015
-102,162	101,793	-0,109	0,092
-101,147	-200,000	0,002	0,097
-100,132	32,648	-0,097	-0,060
-99,118	155,629	0,106	0,105
-98,103	-200,000	0,004	0,064
-97,089	-200,000	0,015	0,128
-96,074	49,227	0,033	-0,022
-95,059	800,000	0,042	0,097
-94,045	800,000	0,059	0,176
-93,030	361,726	-0,079	-0,115
-92,016	-200,000	0,021	-0,096
-91,001	33,682	0,035	-0,022
-89,986	-200,000	0,001	0,002
-88,972	158,911	0,067	0,067
-87,957	701,401	-0,031	-0,060
-86,943	-200,000	0,003	0,093
-85,928	129,161	0,082	-0,075
-84,913	800,000	-0,034	-0,098
-83,899	-200,000	0,002	-0,076
-82,884	-200,000	0,016	0,106
-81,870	-200,000	0,023	-0,165
-80,855	169,035	0,065	-0,066
-79,840	-200,000	0,008	0,033
-78,826	800,000	-0,052	0,158
-77,811	-65,754	-0,076	-0,022
-76,797	-200,000	-0,006	0,037
-75,782	528,991	0,098	0,166
-74,767	262,128	-0,054	-0,067
-73,753	-87,576	0,023	-0,005
-72,738	209,250	0,109	0,122
-71,724	71,417	-0,096	0,071
-70,709	-156,217	-0,055	-0,002
-69,694	101,592	0,031	0,026
-68,680	78,793	-0,058	0,045
-67,665	-154,496	0,038	0,002
-66,651	123,879	-0,058	-0,053
-65,636	-200,000	0,003	-0,048
-64,622	151,931	-0,023	0,023
-63,607	-137,724	-0,141	-0,011
-62,592	800,000	0,029	-0,063
-61,578	-100,552	0,072	0,013
-60,563	84,995	0,119	0,093
-59,549	3,354	-0,024	-0,013
-58,534	13,215	-2,019	-1,118
-57,519	800,000	-0,218	-0,628
-56,505	-200,000	-1,254	-5,045
-55,490	172,161	0,771	0,795
-54,476	800,000	5,204	12,025
-53,461	-200,000	18,127	294,212
-52,446	800,000	730,017	2236,504
-51,432	540,783	1643,056	2815,518
-50,417	108,830	1631,820	1397,523
-49,403	74,754	1283,677	967,241
-48,388	31,074	1024,657	628,304
-47,373	20,249	986,617	569,415
-46,359	18,205	974,169	555,539
-45,344	14,851	970,110	542,274
-44,330	15,102	968,785	542,328
-43,315	14,558	966,784	539,417
-42,300	14,521	965,784	538,717
-41,286	14,467	964,723	537,931
-40,271	14,556	963,705	537,628
-39,257	14,547	962,904	537,132
-38,242	14,502	962,021	536,473
-37,227	14,513	961,318	536,096
-36,213	14,544	960,370	535,647
-35,198	14,529	959,385	535,026
-34,184	14,504	958,869	534,636
-33,169	14,466	957,896	533,950
-32,154	14,574	956,801	533,667
-31,140	14,557	955,901	533,090
-30,125	14,562	955,186	532,684
-29,111	14,448	954,420	531,871
-28,096	14,534	953,838	531,802
-27,082	14,522	953,319	531,451
-26,067	14,609	952,246	531,112
-25,052	14,572	951,447	530,525
-24,038	14,475	951,018	529,957
-23,023	14,534	950,368	529,760
-22,009	14,562	949,609	529,406
-20,994	14,621	948,762	529,101
-19,979	14,566	948,481	528,748
-18,965	14,513	947,764	528,158
-17,950	14,557	947,139	527,931
-16,936	14,491	946,495	527,339
-15,921	14,503	945,973	527,065
-14,906	14,415	945,122	526,291
-13,892	14,440	944,546	526,028
-12,877	14,415	943,821	525,524
-11,863	14,362	943,158	524,968
-10,848	14,422	942,856	524,969
-9,833	14,509	942,189	524,852
-8,819	14,469	941,651	524,406
-7,804	14,428	940,986	523,885
-6,790	14,459	940,278	523,567
-5,775	14,427	939,967	523,272
-4,760	14,531	939,007	523,043
-3,746	14,436	938,624	522,510
-2,731	14,271	937,892	521,562
-1,717	14,267	937,085	521,081
-0,702	14,213	936,712	520,682
0,313	14,088	935,995	520,675
1,327	16,658	933,353	527,223
2,342	23,474	806,459	473,896
3,356	17,233	518,210	293,670
4,371	-3,467	395,836	196,574
5,386	-5,749	379,899	185,686
6,400	-7,190	373,452	180,681
7,415	-8,260	370,776	178,016
8,429	-8,595	368,754	176,606
9,444	-8,582	367,839	176,169
10,459	-8,642	367,024	175,689
11,473	-8,932	366,454	175,036
12,488	-8,762	365,596	174,824
13,502	-9,021	365,117	174,256
14,517	-9,108	364,445	173,812
15,531	-9,291	363,854	173,287
16,546	-9,148	363,258	173,165
17,561	-9,133	362,772	172,937
18,575	-9,244	362,579	172,692
19,590	-9,446	362,029	172,164
20,604	-9,347	361,542	172,040
21,619	-9,424	361,266	171,798
22,634	-9,136	360,679	171,858
23,648	-9,255	360,543	171,631
24,663	-9,254	360,200	171,454
25,677	-9,084	359,783	171,449
26,692	-9,275	359,491	171,061
27,707	-9,245	359,134	170,912
28,721	-9,305	358,912	170,719
29,736	-9,258	358,428	170,530
30,750	-9,374	358,123	170,227
31,765	-9,392	357,716	169,997
32,780	-9,286	357,539	170,027
33,794	-9,272	357,353	169,940
34,809	-9,324	357,085	169,734
35,823	-9,388	356,620	169,421
36,838	-9,328	356,275	169,315
37,853	-9,367	355,852	169,051
38,867	-9,328	355,550	168,940
39,882	-9,276	355,420	168,927
40,896	-9,307	355,028	168,687
41,911	-9,335	354,835	168,546
42,926	-9,364	354,493	168,334
43,940	-9,308	354,079	168,191
44,955	-9,266	353,864	168,123
45,969	-9,477	353,651	167,754
46,984	-9,356	353,283	167,709
47,999	-9,539	353,083	167,379
49,013	-9,430	352,787	167,356
50,028	-9,420	352,419	167,178
51,042	-9,379	352,310	167,160
52,057	-9,337	351,973	167,036
53,071	-9,313	351,695	166,918
54,086	-9,373	351,388	166,685
55,101	-9,504	351,170	166,410
56,115	-9,511	350,829	166,225
57,130	-9,196	350,605	166,480
58,144	-9,241	350,372	166,302
59,159	-9,282	350,091	166,104
60,174	-9,333	349,866	165,922
61,188	-9,253	349,613	165,882
62,203	-9,139	349,101	165,759
63,217	-9,267	349,040	165,564
64,232	-9,300	348,660	165,330
65,247	-9,092	348,318	165,400
66,261	-9,219	347,960	165,064
67,276	-9,227	347,790	164,960
68,290	-9,318	347,401	164,653
69,305	-9,285	347,221	164,593
70,320	-9,324	346,958	164,407
71,334	-9,264	346,732	164,356
72,349	-9,089	346,316	164,350
73,363	-9,231	346,203	164,115
74,378	-9,196	345,718	163,912
75,393	-9,223	345,611	163,814
76,407	-9,353	345,386	163,540
77,422	-9,376	345,305	163,460
78,436	-9,306	344,779	163,279
79,451	-9,200	344,445	163,230
80,466	-9,507	344,334	162,804
81,480	-9,274	343,913	162,862
82,495	-9,456	343,648	162,511
83,509	-9,366	343,285	162,429
84,524	-9,394	343,144	162,315
85,539	-9,448	342,796	162,072
86,553	-9,419	342,576	161,989
87,568	-9,546	342,427	161,756
88,582	-9,615	342,157	161,533
89,597	-9,360	341,807	161,650
90,611	-9,323	341,601	161,581
91,626	-9,309	341,450	161,512
92,641	-9,333	341,195	161,349
93,655	-9,251	340,753	161,220
94,670	-9,413	340,724	161,005
95,684	-9,415	340,215	160,748
96,699	-9,264	339,951	160,783
97,714	-9,301	339,804	160,656
98,728	-9,516	339,517	160,259
99,743	-9,284	339,171	160,348
100,757	-9,473	339,110	160,087
101,772	-9,317	338,829	160,119
102,787	-9,436	338,501	159,813
103,801	-9,575	338,447	159,615
104,816	-9,419	338,015	159,575
105,830	-9,323	337,874	159,604
106,845	-9,295	337,708	159,543
107,860	-9,387	337,342	159,251
108,874	-9,426	337,085	159,071
109,889	-9,442	336,814	158,910
110,903	-9,395	336,571	158,835
111,918	-9,256	336,271	158,839
112,933	-9,291	335,960	158,638
113,947	-9,241	335,807	158,608
114,962	-9,282	335,524	158,413
115,976	-9,146	335,198	158,399
116,991	-9,198	335,231	158,342
118,006	-9,354	334,848	157,970
119,020	-9,251	334,677	157,992
120,035	-9,359	334,621	157,829
121,049	-9,327	334,391	157,743
122,064	-9,263	333,993	157,614
123,079	-9,335	333,816	157,435
124,093	-9,207	333,477	157,405
125,108	-9,461	333,157	156,954
126,122	-9,469	332,995	156,855
127,137	-9,479	332,736	156,708
128,151	-9,278	332,524	156,820
129,166	-9,238	332,308	156,748
130,181	-9,351	331,953	156,441
131,195	-9,350	331,838	156,373
132,210	-9,320	331,496	156,232
133,224	-9,389	331,249	156,024
134,239	-9,270	330,973	156,014
135,254	-9,245	330,854	155,971
136,268	-9,336	330,683	155,775
137,283	-9,545	330,416	155,403
138,297	-9,273	330,051	155,519
139,312	-9,332	329,752	155,299
140,327	-9,177	329,569	155,371
141,341	-9,160	329,374	155,285
142,356	-9,086	329,202	155,273
143,370	-9,165	328,997	155,074
144,385	-9,089	328,733	155,021
145,400	-9,198	328,560	154,804
146,414	-9,112	328,316	154,770
147,429	-8,982	327,851	154,681
148,443	-9,075	327,782	154,532
149,458	-9,093	327,626	154,425
150,473	-9,033	327,276	154,312
151,487	-9,270	327,096	153,952
152,502	-9,076	326,834	154,029
153,516	-9,153	326,682	153,859
154,531	-9,045	326,364	153,814
155,546	-9,077	326,164	153,671
156,560	-9,200	325,992	153,440
157,575	-9,159	325,613	153,295
158,589	-9,196	325,391	153,135
159,604	-9,034	325,218	153,217
160,619	-8,878	324,952	153,250
161,633	-9,065	324,794	152,957
162,648	-9,059	324,525	152,822
163,662	-9,117	324,337	152,657
164,677	-9,102	324,196	152,594
165,692	-9,034	323,923	152,525
166,706	-9,043	323,748	152,421
167,721	-8,913	323,537	152,449
168,735	-8,987	323,493	152,334
169,750	-8,985	323,164	152,168
170,764	-8,975	323,080	152,126
171,779	-8,953	322,656	151,936
172,794	-9,068	322,527	151,737
173,808	-9,139	322,310	151,544
174,823	-9,260	322,110	151,305
175,837	-9,248	321,750	151,136
176,852	-9,020	321,448	151,228
177,867	-9,057	321,434	151,168
178,881	-8,817	321,201	151,304
179,896	-9,042	320,875	150,894
180,910	-8,947	320,696	150,899
181,925	-9,005	320,413	150,689
182,940	-9,183	320,399	150,477
183,954	-8,965	320,022	150,522
184,969	-9,005	319,995	150,453
185,983	-8,884	319,730	150,444
186,998	-8,975	319,472	150,211
188,013	-9,091	319,334	150,009
189,027	-8,968	318,998	149,969
190,042	-9,091	318,900	149,779
191,056	-8,781	318,700	150,003
192,071	-8,862	318,373	149,749
193,086	-8,992	318,326	149,575
194,100	-8,845	317,843	149,491
195,115	-8,931	317,576	149,261
196,129	-8,838	317,566	149,342
197,144	-8,943	317,372	149,125
198,159	-8,848	316,859	148,973
199,173	-8,962	316,922	148,867
200,188	-8,978	316,551	148,663
201,202	-9,108	316,370	148,427
202,217	-9,259	316,054	148,105
203,232	-9,164	315,756	148,052
204,246	-9,093	315,639	148,059
205,261	-9,038	315,461	148,022
206,275	-8,956	315,219	147,981
207,290	-9,089	315,112	147,777
208,304	-9,036	314,825	147,685
209,319	-8,929	314,534	147,649
210,334	-8,876	314,229	147,548
211,348	-8,866	314,130	147,499
212,363	-8,917	313,886	147,318
213,377	-9,003	313,786	147,167
214,392	-8,836	313,383	147,140
215,407	-9,119	313,295	146,788
216,421	-9,167	313,067	146,618
217,436	-9,188	312,857	146,485
218,450	-9,196	312,589	146,338
219,465	-9,065	312,491	146,416
220,480	-8,865	312,199	146,476
221,494	-9,015	311,947	146,188
222,509	-8,899	311,818	146,235
223,523	-8,961	311,716	146,109
224,538	-8,960	311,544	146,018
225,553	-8,829	311,346	146,048
226,567	-9,015	311,142	145,745
227,582	-8,961	311,101	145,769
228,596	-8,927	310,749	145,626
229,611	-8,855	310,604	145,620
230,626	-8,896	310,313	145,429
231,640	-9,074	309,990	145,079
232,655	-9,258	309,740	144,758
233,669	-9,269	309,591	144,665
234,684	-9,045	309,312	144,754
235,699	-9,117	309,175	144,602
236,713	-9,209	309,005	144,414
237,728	-9,148	308,658	144,302
238,742	-9,157	308,541	144,226
239,757	-8,948	308,316	144,323
240,772	-8,999	308,118	144,165
241,786	-9,014	307,976	144,070
242,801	-9,168	307,865	143,846
243,815	-8,943	307,565	143,926
244,830	-8,997	307,308	143,737
245,844	-9,068	307,336	143,664
246,859	-9,058	306,949	143,481
247,874	-9,007	306,738	143,422
248,888	-8,988	306,529	143,331
249,903	-8,925	306,366	143,306
250,917	-8,848	306,235	143,311
251,932	-8,721	306,222	143,422
252,947	-8,197	306,097	143,887
253,961	-7,467	306,266	144,700
254,976	-7,146	306,226	144,997
255,990	-7,601	305,697	144,270
257,005	-6,688	306,153	145,405
258,020	-2,518	307,746	150,429
259,034	-0,624	308,229	152,595
260,049	-0,215	308,217	152,994
261,063	0,014	308,240	153,227
262,078	0,481	308,215	153,680
263,093	0,521	308,089	153,644
264,107	0,683	307,885	153,695
265,122	0,785	307,800	153,742
266,136	0,690	307,717	153,591
267,151	0,899	307,277	153,571
268,166	0,906	307,300	153,576
269,180	0,914	306,952	153,395
270,195	0,937	306,957	153,408
271,209	0,869	306,751	153,223
272,224	0,880	306,742	153,215
273,239	0,955	306,332	153,074
274,253	0,915	306,177	152,941
275,268	1,069	305,816	152,904
276,282	0,924	305,730	152,700
277,297	1,061	305,360	152,640
278,312	0,992	305,305	152,529
279,326	0,929	305,128	152,364
280,341	0,936	305,049	152,318
281,355	0,979	304,677	152,162
282,370	0,912	304,460	151,972
283,384	0,830	304,233	151,762
284,399	0,939	303,999	151,742
285,414	0,845	303,896	151,583
286,428	0,955	303,691	151,578
287,443	0,921	303,501	151,435
288,457	0,844	303,330	151,259
289,472	0,862	303,053	151,125
290,487	0,903	302,901	151,077
291,501	0,929	302,625	150,952
292,516	0,890	302,578	150,876
293,530	0,952	302,184	150,728
294,545	0,849	302,292	150,666
295,560	0,788	302,044	150,467
296,574	0,900	301,752	150,420
297,589	0,881	301,497	150,261
298,603	0,877	301,322	150,156
299,618	0,906	301,143	150,083
300,633	0,964	300,831	149,972
301,647	0,837	300,728	149,781
302,662	0,844	300,556	149,688
303,676	0,882	300,171	149,521
304,691	0,931	300,096	149,519
305,706	0,889	299,873	149,353
306,720	0,824	299,620	149,150
307,735	0,858	299,540	149,129
308,749	0,919	299,385	149,100
309,764	0,815	299,230	148,906
310,779	0,894	299,008	148,861
311,793	0,842	298,708	148,647
312,808	1,018	298,467	148,687
313,822	0,830	298,280	148,395
314,837	0,797	298,212	148,315
315,852	0,788	297,977	148,177
316,866	0,852	297,685	148,081
317,881	0,755	297,599	147,929
318,895	0,713	297,595	147,874
319,910	0,977	297,166	147,906
320,925	0,686	297,106	147,577
321,939	0,940	296,857	147,690
322,954	0,821	296,755	147,509
323,968	0,996	296,564	147,573
324,983	0,819	296,394	147,301
325,997	0,854	296,332	147,292
327,012	0,882	295,981	147,132
328,027	0,907	295,801	147,053
329,041	0,865	295,634	146,916
330,056	0,947	295,363	146,849
331,070	1,003	295,293	146,855
332,085	1,047	294,864	146,672
333,100	1,035	294,764	146,597
334,114	0,925	294,427	146,310
335,129	0,895	294,386	146,247
336,143	0,944	294,161	146,169
337,158	0,933	294,013	146,072
338,173	1,007	293,771	146,011
339,187	0,927	293,650	145,860
340,202	0,845	293,453	145,670
341,216	0,903	293,320	145,647
342,231	0,870	293,048	145,467
343,246	0,971	292,889	145,473
344,260	0,962	292,652	145,334
345,275	1,021	292,606	145,354
346,289	1,011	292,497	145,278
347,304	1,312	292,224	145,419
348,319	0,914	291,957	144,890
349,333	1,037	291,767	144,901
350,348	1,110	291,572	144,862
351,362	1,077	291,470	144,766
352,377	0,958	291,405	144,607
353,392	1,204	291,142	144,699
354,406	1,144	290,971	144,544
355,421	192,718	1326,149	1392,271
356,435	156,344	1452,224	1392,242
