DTS Sentinel unit serial number:	SN410029Multiplexer serial number:	ORYXHardware model number:	OX2-SRSoftware version number:	ORYX F/W v4,00 Oryx Data Collector v3.7.2.0data status	okinstallation	B4 Nyhavnadifferential loss correction	single-endedforward channel	channel 2reverse channel	N/Adate	2023/12/19time	09:55:13forward acquisition time	300,00reverse acquisition time	0,00gamma	499,1914k internal	0,3128k external	0,3128temperature offset calibration	1,0000default loss term (dB/km)	0,3820temperature slope calibration	1,0000multiplexer offset coefficient	1,0000multiplexer slope coefficient	1,0000fibre end	0,00T internal ref (°C)	20,30T ext. ref 1 (°C)	4,81T ext. ref 2 (°C)	4,78length (m)	temperature (°C)	Stokes	anti-Stokes-744,400	-200,000	0,022	-0,170
-743,385	25,670	-0,214	0,132
-742,371	234,564	0,118	0,145
-741,356	-17,977	-0,249	0,116
-740,342	505,867	0,025	0,043
-739,327	-39,657	-0,277	0,107
-738,312	341,278	-0,068	-0,098
-737,298	-142,413	-0,247	0,018
-736,283	-200,000	-0,007	0,106
-735,269	287,086	-0,208	0,280
-734,254	117,291	-0,060	-0,055
-733,239	16,713	-0,441	-0,259
-732,225	537,954	0,052	-0,092
-731,210	-200,000	0,023	0,149
-730,196	-200,000	-0,023	0,142
-729,181	800,000	0,011	0,024
-728,167	-200,000	-0,005	0,023
-727,152	-147,644	-0,091	0,006
-726,137	-139,658	-0,028	0,002
-725,123	800,000	-0,040	-0,115
-724,108	188,543	-0,066	-0,073
-723,094	486,174	-0,059	-0,101
-722,079	158,409	-0,084	-0,087
-721,064	-200,000	-0,043	-0,164
-720,050	11,912	0,113	-0,065
-719,035	677,610	-0,036	-0,069
-718,021	302,825	-0,047	0,065
-717,006	-200,000	-0,014	-0,137
-715,991	133,529	0,064	0,062
-714,977	-134,252	-0,224	0,020
-713,962	239,684	-0,109	-0,135
-712,948	-63,285	-0,053	0,016
-711,933	5,196	-0,085	-0,046
-710,918	704,621	-0,069	0,135
-709,904	93,100	-0,097	0,081
-708,889	79,812	-0,073	-0,058
-707,875	-60,741	-0,074	0,023
-706,860	27,417	0,080	-0,050
-705,845	465,293	0,028	0,046
-704,831	-161,943	-0,091	-0,003
-703,816	782,937	0,025	-0,051
-702,802	-200,000	-0,005	-0,088
-701,787	-200,000	0,013	-0,058
-700,772	800,000	0,011	0,030
-699,758	-107,202	-0,063	0,010
-698,743	-131,873	0,072	-0,007
-697,729	800,000	0,046	-0,134
-696,714	-95,731	-0,142	-0,028
-695,699	152,840	0,036	0,037
-694,685	8,774	-0,076	-0,042
-693,670	-200,000	-0,025	-0,089
-692,656	52,058	0,108	-0,076
-691,641	35,831	0,105	0,068
-690,627	83,288	0,026	0,021
-689,612	251,162	0,029	-0,037
-688,597	-124,331	-0,202	-0,023
-687,583	27,384	0,085	0,053
-686,568	-115,100	-0,057	0,008
-685,554	-32,440	0,013	0,005
-684,539	-200,000	0,008	-0,034
-683,524	-200,000	0,009	0,043
-682,510	326,459	0,112	0,159
-681,495	-36,837	-0,103	-0,041
-680,481	322,716	0,021	-0,030
-679,466	-200,000	0,005	-0,121
-678,451	-10,701	-0,051	0,025
-677,437	237,839	-0,133	-0,164
-676,422	800,000	-0,022	0,049
-675,408	-200,000	-0,014	0,093
-674,393	70,829	-0,033	-0,025
-673,378	800,000	-0,051	-0,161
-672,364	-165,403	0,135	-0,004
-671,349	-46,041	0,019	-0,007
-670,335	-35,373	-0,041	-0,017
-669,320	63,357	0,093	-0,069
-668,305	308,748	-0,057	0,079
-667,291	-188,156	-0,127	-0,001
-666,276	-103,097	-0,049	-0,009
-665,262	-200,000	-0,011	0,102
-664,247	-200,000	0,020	-0,137
-663,232	800,000	-0,015	-0,035
-662,218	-89,408	-0,006	0,001
-661,203	372,076	0,049	0,074
-660,189	25,340	0,143	0,088
-659,174	-200,000	-0,014	-0,050
-658,159	210,341	-0,025	-0,029
-657,145	-20,401	-0,068	-0,031
-656,130	482,287	-0,074	0,124
-655,116	800,000	-0,078	0,189
-654,101	-32,777	0,095	-0,039
-653,086	-200,000	-0,011	0,055
-652,072	800,000	-0,024	0,052
-651,057	-8,037	0,062	-0,031
-650,043	22,316	0,048	-0,029
-649,028	800,000	-0,044	0,132
-648,014	-115,373	-0,048	0,007
-646,999	-0,860	0,070	0,037
-645,984	-52,632	-0,076	-0,026
-644,970	-3,093	-0,109	-0,056
-643,955	62,819	-0,078	-0,057
-642,941	43,225	-0,047	0,032
-641,926	800,000	-0,036	0,113
-640,911	-200,000	-0,009	0,083
-639,897	-183,405	0,112	0,001
-638,882	-73,728	0,166	-0,044
-637,868	278,249	0,067	-0,088
-636,853	145,905	-0,042	0,042
-635,838	-71,720	-0,144	0,040
-634,824	-200,000	0,011	0,040
-633,809	-200,000	0,012	-0,076
-632,795	122,483	-0,074	0,068
-631,780	-143,816	0,072	0,005
-630,765	-175,741	0,079	0,002
-629,751	-72,339	-0,065	0,018
-628,736	-80,428	-0,110	0,027
-627,722	-40,875	0,128	0,049
-626,707	-200,000	0,050	0,167
-625,692	-200,000	0,022	0,125
-624,678	391,646	-0,041	0,063
-623,663	392,774	-0,069	-0,107
-622,649	-200,000	0,028	-0,164
-621,634	35,366	0,096	0,062
-620,619	731,381	0,017	-0,033
-619,605	-10,536	0,106	0,052
-618,590	-200,000	0,016	0,069
-617,576	-200,000	0,000	-0,101
-616,561	-53,543	0,081	-0,027
-615,546	800,000	-0,072	-0,161
-614,532	715,088	0,063	-0,124
-613,517	284,346	0,034	-0,045
-612,503	-200,000	-0,010	-0,112
-611,488	-67,110	0,070	-0,020
-610,474	-93,781	0,098	0,020
-609,459	-78,091	-0,046	-0,012
-608,444	-85,605	-0,134	-0,031
-607,430	-151,654	-0,058	-0,003
-606,415	244,820	-0,047	-0,059
-605,401	800,000	-0,019	-0,060
-604,386	631,797	0,024	-0,046
-603,371	-74,680	0,047	-0,013
-602,357	212,592	-0,097	0,114
-601,342	281,262	-0,065	-0,086
-600,328	-36,687	-0,074	-0,029
-599,313	460,208	0,065	-0,108
-598,298	800,000	-0,046	-0,102
-597,284	67,458	0,075	-0,057
-596,269	122,407	-0,048	0,044
-595,255	218,670	-0,032	-0,037
-594,240	212,355	-0,045	-0,052
-593,225	800,000	0,013	-0,035
-592,211	-200,000	0,016	-0,143
-591,196	-200,000	-0,056	-0,236
-590,182	800,000	0,050	-0,147
-589,167	199,590	0,052	0,059
-588,152	-200,000	0,016	0,125
-587,138	-200,000	-0,001	-0,016
-586,123	800,000	0,027	0,057
-585,109	316,701	-0,032	-0,044
-584,094	72,414	0,083	-0,064
-583,079	9,582	0,045	0,025
-582,065	68,056	0,115	-0,087
-581,050	649,072	0,054	-0,103
-580,036	-7,335	-0,212	-0,106
-579,021	-200,000	-0,023	-0,141
-578,006	-200,000	-0,006	-0,147
-576,992	-145,365	-0,087	0,006
-575,977	-200,000	-0,008	-0,042
-574,963	-189,800	-0,092	-0,001
-573,948	190,623	0,068	0,076
-572,934	-119,269	0,201	0,026
-571,919	-8,448	-0,068	0,034
-570,904	264,857	-0,036	0,046
-569,890	-200,000	-0,043	-0,188
-568,875	-50,142	0,132	-0,046
-567,861	209,284	0,094	0,109
-566,846	-94,600	-0,095	-0,019
-565,831	-47,833	0,107	-0,038
-564,817	148,889	0,044	-0,044
-563,802	-69,351	-0,125	-0,035
-562,788	-200,000	-0,021	-0,130
-561,773	-161,879	-0,052	-0,002
-560,758	800,000	0,023	0,051
-559,744	-200,000	0,010	0,037
-558,729	-200,000	-0,020	0,120
-557,715	1,247	-0,074	0,039
-556,700	56,251	-0,047	0,034
-555,685	800,000	-0,067	-0,149
-554,671	-38,426	-0,051	0,020
-553,656	-200,000	-0,012	0,070
-552,642	417,493	0,031	0,049
-551,627	-51,840	-0,056	-0,019
-550,612	800,000	-0,041	-0,092
-549,598	119,631	0,028	-0,025
-548,583	-200,000	-0,030	0,162
-547,569	192,719	-0,021	0,024
-546,554	-48,190	0,020	-0,007
-545,539	227,013	-0,041	0,049
-544,525	-162,632	0,130	0,005
-543,510	258,975	-0,032	0,041
-542,496	523,103	-0,045	-0,078
-541,481	-200,000	0,024	-0,106
-540,466	156,773	0,087	-0,089
-539,452	41,984	0,084	0,056
-538,437	-82,108	0,121	0,029
-537,423	-200,000	-0,004	-0,014
-536,408	-94,870	0,025	0,005
-535,393	476,179	-0,059	-0,099
-534,379	-36,903	-0,123	0,049
-533,364	120,877	0,058	0,053
-532,350	132,806	-0,025	0,024
-531,335	800,000	-0,032	0,080
-530,321	251,213	-0,054	-0,067
-529,306	-112,994	-0,049	0,007
-528,291	-86,749	0,145	-0,032
-527,277	-160,916	-0,040	0,002
-526,262	800,000	-0,032	0,102
-525,248	-119,924	-0,037	0,005
-524,233	91,115	0,089	0,074
-523,218	17,766	0,032	0,019
-522,204	-127,050	0,037	0,004
-521,189	26,239	0,013	-0,008
-520,175	-53,838	-0,029	0,010
-519,160	159,374	-0,132	-0,136
-518,145	-200,000	0,004	0,075
-517,131	-200,000	-0,007	0,045
-516,116	-200,000	-0,000	-0,098
-515,102	-145,038	-0,041	0,003
-514,087	-200,000	-0,015	-0,073
-513,072	11,171	-0,214	-0,121
-512,058	-200,000	0,003	0,091
-511,043	-200,000	0,004	-0,067
-510,029	-200,000	0,006	-0,040
-509,014	-200,000	0,021	0,097
-507,999	-54,662	-0,138	-0,046
-506,985	60,106	-0,103	-0,075
-505,970	17,018	-0,140	-0,082
-504,956	800,000	-0,052	-0,112
-503,941	800,000	0,012	-0,036
-502,926	-40,723	0,049	-0,019
-501,912	489,046	-0,124	0,210
-500,897	184,903	-0,099	0,108
-499,883	800,000	0,035	0,097
-498,868	-200,000	0,013	-0,085
-497,853	-67,161	-0,050	0,014
-496,839	-200,000	0,008	-0,067
-495,824	-142,529	0,045	0,003
-494,810	800,000	0,059	0,140
-493,795	329,054	0,056	0,080
-492,781	-200,000	-0,012	-0,059
-491,766	-99,507	0,152	-0,028
-490,751	439,775	0,008	-0,013
-489,737	-42,403	-0,070	-0,026
-488,722	-200,000	-0,009	0,053
-487,708	-23,988	0,096	0,042
-486,693	-21,079	-0,047	-0,021
-485,678	800,000	-0,065	-0,181
-484,664	-2,966	-0,127	0,065
-483,649	800,000	-0,027	-0,059
-482,635	-67,299	0,083	-0,024
-481,620	377,056	0,045	0,068
-480,605	800,000	0,058	0,119
-479,591	-200,000	0,009	-0,065
-478,576	800,000	-0,013	-0,035
-477,562	205,639	-0,056	0,064
-476,547	-200,000	-0,011	-0,152
-475,532	-200,000	-0,002	0,040
-474,518	95,753	0,163	0,137
-473,503	411,043	0,025	0,039
-472,489	30,304	0,057	-0,036
-471,474	-107,329	0,098	0,016
-470,459	58,197	0,056	0,040
-469,445	753,656	-0,015	-0,030
-468,430	-46,148	0,126	0,046
-467,416	-200,000	0,000	-0,013
-466,401	586,528	-0,038	0,070
-465,386	-200,000	-0,001	0,089
-464,372	-5,212	-0,048	0,024
-463,357	-181,289	-0,068	0,001
-462,343	-166,437	-0,168	0,005
-461,328	56,636	-0,078	0,056
-460,313	142,252	-0,059	-0,058
-459,299	-200,000	0,005	-0,040
-458,284	-200,000	-0,014	0,047
-457,270	7,584	-0,048	-0,027
-456,255	-148,501	-0,190	0,011
-455,241	800,000	0,037	-0,077
-454,226	669,842	-0,070	-0,134
-453,211	-200,000	0,009	0,119
-452,197	-200,000	0,008	0,056
-451,182	-200,000	0,040	0,138
-450,168	800,000	-0,043	-0,094
-449,153	800,000	-0,054	-0,117
-448,138	800,000	-0,059	-0,140
-447,124	30,010	-0,038	-0,024
-446,109	-200,000	0,007	-0,035
-445,095	800,000	-0,014	0,032
-444,080	89,342	0,074	0,061
-443,065	-3,209	0,083	0,042
-442,051	-116,496	0,094	-0,013
-441,036	-200,000	0,003	0,042
-440,022	800,000	0,005	-0,015
-439,007	197,270	-0,064	0,071
-437,992	158,889	-0,118	0,121
-436,978	-188,852	0,050	-0,000
-435,963	-32,013	-0,023	0,009
-434,949	623,830	-0,088	0,164
-433,934	4,129	0,073	0,039
-432,919	593,445	-0,032	0,058
-431,905	0,163	-0,077	-0,040
-430,890	-200,000	0,008	-0,027
-429,876	-200,000	-0,015	0,149
-428,861	-4,814	0,011	-0,005
-427,846	85,507	0,037	0,030
-426,832	-200,000	0,007	-0,034
-425,817	-129,603	0,084	0,008
-424,803	72,508	0,085	0,065
-423,788	-112,246	0,064	0,009
-422,773	309,925	0,101	0,140
-421,759	44,337	-0,036	-0,024
-420,744	800,000	-0,048	-0,113
-419,730	-200,000	0,032	0,113
-418,715	125,115	-0,071	-0,065
-417,701	-200,000	0,016	-0,090
-416,686	-200,000	0,021	-0,134
-415,671	-172,642	0,176	-0,004
-414,657	800,000	-0,026	0,061
-413,642	117,276	0,088	0,079
-412,628	138,424	0,055	0,053
-411,613	800,000	-0,039	0,126
-410,598	-155,047	-0,059	-0,003
-409,584	800,000	-0,032	-0,092
-408,569	102,454	0,097	0,083
-407,555	-45,868	0,017	0,006
-406,540	-53,033	-0,101	0,034
-405,525	703,891	0,053	-0,103
-404,511	-24,401	0,025	-0,011
-403,496	-74,574	0,081	-0,021
-402,482	800,000	0,062	-0,126
-401,467	113,983	-0,034	-0,030
-400,452	-200,000	0,002	-0,131
-399,438	-200,000	0,013	-0,045
-398,423	494,681	-0,050	0,084
-397,409	-19,962	-0,049	-0,022
-396,394	-50,594	0,053	0,018
-395,379	-54,816	-0,111	0,037
-394,365	303,118	0,097	0,132
-393,350	621,251	0,049	0,090
-392,336	-102,467	0,042	0,007
-391,321	187,903	0,030	0,033
-390,306	-200,000	-0,034	-0,154
-389,292	-11,760	0,072	0,034
-388,277	-200,000	0,010	0,042
-387,263	-26,898	-0,080	0,034
-386,248	11,668	0,057	-0,032
-385,233	800,000	0,027	-0,070
-384,219	800,000	-0,051	0,111
-383,204	60,215	0,075	0,054
-382,190	-200,000	-0,009	0,074
-381,175	-200,000	-0,005	-0,180
-380,160	663,323	-0,020	-0,038
-379,146	306,351	-0,079	0,108
-378,131	800,000	-0,020	-0,051
-377,117	800,000	-0,015	0,041
-376,102	422,393	0,034	-0,054
-375,088	-39,736	-0,136	0,052
-374,073	-104,912	0,034	0,006
-373,058	308,905	0,086	0,119
-372,044	800,000	0,025	0,070
-371,029	-105,310	-0,050	0,008
-370,015	310,828	0,016	-0,022
-369,000	-7,759	0,043	-0,021
-367,985	800,000	-0,023	0,073
-366,971	7,272	0,010	0,006
-365,956	771,164	0,042	0,084
-364,942	-200,000	0,007	0,028
-363,927	-120,810	-0,102	-0,013
-362,912	470,440	0,057	0,095
-361,898	135,423	-0,158	-0,151
-360,883	-200,000	-0,011	-0,092
-359,869	-42,144	-0,117	-0,044
-358,854	293,946	-0,048	-0,065
-357,839	352,574	0,033	0,048
-356,825	-116,406	0,100	0,013
-355,810	288,059	-0,110	0,147
-354,796	-200,000	-0,007	0,211
-353,781	800,000	-0,040	-0,121
-352,766	800,000	0,009	-0,023
-351,752	-200,000	0,034	0,171
-350,737	800,000	0,051	0,130
-349,723	285,816	-0,052	0,069
-348,708	-10,281	0,057	0,028
-347,693	-200,000	0,049	0,000
-346,679	-62,227	-0,038	-0,012
-345,664	614,938	0,012	-0,022
-344,650	14,657	-0,049	0,028
-343,635	-200,000	0,002	-0,036
-342,620	-64,735	0,127	0,037
-341,606	-131,236	0,108	0,010
-340,591	163,019	-0,023	-0,024
-339,577	120,794	0,040	0,036
-338,562	290,192	-0,036	-0,048
-337,548	145,701	-0,061	-0,060
-336,533	-83,315	0,081	0,019
-335,518	525,611	-0,018	0,031
-334,504	-200,000	-0,006	-0,036
-333,489	92,054	0,030	0,025
-332,475	80,900	-0,042	-0,033
-331,460	-200,000	-0,008	-0,159
-330,445	-89,639	0,056	-0,012
-329,431	800,000	0,023	0,067
-328,416	272,731	-0,011	0,015
-327,402	-200,000	0,012	-0,064
-326,387	303,980	-0,022	0,030
-325,372	-18,803	-0,066	-0,030
-324,358	-200,000	-0,003	-0,046
-323,343	0,871	0,040	0,021
-322,329	213,058	-0,023	0,027
-321,314	-200,000	0,020	0,176
-320,299	219,629	0,078	0,091
-319,285	-200,000	0,014	0,073
-318,270	800,000	-0,059	-0,143
-317,256	-200,000	0,014	-0,086
-316,241	17,123	-0,108	-0,063
-315,226	-200,000	-0,022	0,105
-314,212	-200,000	-0,008	-0,025
-313,197	-200,000	0,087	-0,000
-312,183	15,307	0,044	0,025
-311,168	198,362	-0,031	-0,035
-310,153	21,445	-0,039	-0,023
-309,139	-24,640	-0,034	0,015
-308,124	-137,360	0,140	0,011
-307,110	-51,620	-0,041	0,014
-306,095	-79,786	-0,072	-0,018
-305,080	-74,451	0,079	-0,021
-304,066	800,000	0,011	-0,030
-303,051	800,000	-0,035	-0,104
-302,037	800,000	-0,051	-0,133
-301,022	800,000	0,016	-0,051
-300,008	800,000	0,027	0,085
-298,993	286,302	0,021	0,028
-297,978	48,342	0,032	-0,022
-296,964	125,471	-0,049	-0,045
-295,949	-78,883	0,080	0,020
-294,935	203,053	-0,082	0,093
-293,920	800,000	0,050	-0,116
-292,905	489,086	0,040	-0,067
-291,891	-98,879	0,184	-0,034
-290,876	-106,644	-0,080	-0,013
-289,862	800,000	0,020	0,065
-288,847	137,597	-0,059	0,056
-287,832	-37,387	-0,020	-0,008
-286,818	8,521	-0,094	-0,052
-285,803	-200,000	-0,034	0,142
-284,789	-76,104	-0,142	0,036
-283,774	112,248	0,058	0,051
-282,759	-200,000	0,017	-0,054
-281,745	260,879	0,074	-0,094
-280,730	800,000	0,016	-0,045
-279,716	-32,735	-0,042	0,017
-278,701	-200,000	-0,001	0,055
-277,686	800,000	-0,020	0,055
-276,672	70,097	0,015	0,011
-275,657	-34,308	-0,035	-0,014
-274,643	368,798	0,031	0,046
-273,628	318,993	-0,050	-0,070
-272,613	-120,344	0,047	-0,006
-271,599	-142,459	0,099	0,007
-270,584	-187,802	0,105	-0,001
-269,570	-144,187	0,074	-0,005
-268,555	-80,524	-0,023	0,006
-267,540	699,607	0,062	-0,120
-266,526	-7,146	-0,027	-0,013
-265,511	306,972	-0,121	-0,165
-264,497	79,597	0,167	0,131
-263,482	96,256	0,110	0,092
-262,467	252,729	-0,066	0,082
-261,453	-200,000	0,000	0,083
-260,438	-132,882	-0,075	-0,007
-259,424	367,822	-0,098	-0,146
-258,409	92,505	-0,118	0,097
-257,395	-50,301	0,173	-0,059
-256,380	170,333	-0,142	0,149
-255,365	-200,000	-0,008	0,078
-254,351	-160,804	0,046	0,002
-253,336	-76,665	0,017	-0,004
-252,322	324,507	-0,017	-0,023
-251,307	-200,000	-0,013	-0,066
-250,292	-22,467	-0,083	-0,036
-249,278	498,621	-0,012	0,020
-248,263	-200,000	0,039	0,130
-247,249	-200,000	-0,016	0,203
-246,234	121,583	0,161	0,146
-245,219	-51,249	0,082	0,028
-244,205	800,000	0,016	-0,047
-243,190	-200,000	0,004	0,030
-242,176	-200,000	0,021	-0,093
-241,161	53,349	0,146	0,102
-240,146	1,460	-0,241	-0,126
-239,132	-200,000	-0,011	0,067
-238,117	49,189	0,111	-0,076
-237,103	144,738	0,087	0,085
-236,088	-114,521	0,092	0,013
-235,073	-200,000	-0,004	-0,205
-234,059	116,213	0,101	-0,090
-233,044	-145,013	-0,109	0,007
-232,030	265,690	0,015	-0,019
-231,015	-117,176	-0,166	0,022
-230,000	800,000	0,044	0,110
-228,986	658,647	0,046	-0,086
-227,971	800,000	-0,039	-0,108
-226,957	-17,891	0,072	0,033
-225,942	245,102	0,041	0,051
-224,927	-66,165	0,070	0,020
-223,913	-200,000	-0,010	-0,085
-222,898	84,626	-0,103	-0,082
-221,884	-200,000	0,020	-0,083
-220,869	72,864	0,044	0,033
-219,855	-36,557	-0,149	-0,058
-218,840	339,980	-0,023	-0,033
-217,825	-200,000	-0,024	-0,129
-216,811	800,000	-0,015	0,038
-215,796	162,076	-0,024	0,024
-214,782	800,000	-0,045	0,130
-213,767	70,464	-0,035	-0,026
-212,752	23,656	0,109	-0,065
-211,738	-103,568	0,031	0,005
-210,723	800,000	0,030	-0,071
-209,709	431,476	-0,072	-0,114
-208,694	-4,508	-0,112	0,056
-207,679	190,500	-0,065	-0,071
-206,665	47,427	-0,034	0,023
-205,650	-85,614	0,146	-0,033
-204,636	-200,000	-0,007	0,212
-203,621	-114,192	-0,051	0,007
-202,606	-200,000	0,010	0,097
-201,592	-121,765	-0,034	-0,004
-200,577	-200,000	-0,003	0,015
-199,563	401,247	-0,057	0,088
-198,548	-78,595	0,109	0,027
-197,533	254,783	0,096	0,119
-196,519	-20,799	-0,093	0,041
-195,504	191,485	0,045	0,049
-194,490	800,000	-0,018	0,045
-193,475	476,103	-0,023	0,037
-192,460	47,471	-0,047	-0,032
-191,446	293,659	-0,018	-0,025
-190,431	272,425	0,054	-0,069
-189,417	122,591	0,042	0,039
-188,402	-90,241	-0,115	-0,024
-187,387	800,000	0,054	-0,111
-186,373	25,639	0,110	-0,067
-185,358	-150,224	0,039	-0,002
-184,344	36,489	0,173	0,111
-183,329	800,000	-0,009	0,027
-182,315	-200,000	0,005	0,056
-181,300	-200,000	-0,003	0,014
-180,285	-108,041	-0,081	0,013
-179,271	132,025	-0,094	-0,088
-178,256	7,694	-0,091	0,049
-177,242	-93,005	0,106	0,021
-176,227	-82,131	0,148	0,035
-175,212	312,434	-0,045	-0,062
-174,198	-78,263	0,058	0,014
-173,183	-51,745	0,047	0,016
-172,169	-200,000	0,024	-0,099
-171,154	253,090	-0,117	-0,146
-170,139	-26,505	0,070	0,030
-169,125	-72,774	-0,065	0,017
-168,110	-143,066	-0,062	-0,004
-167,096	134,761	-0,069	0,065
-166,081	245,618	-0,025	0,031
-165,066	800,000	-0,010	0,020
-164,052	254,751	-0,085	-0,106
-163,037	-74,770	0,106	0,027
-162,023	374,434	0,027	0,039
-161,008	618,876	0,054	0,099
-159,993	-200,000	0,007	-0,080
-158,979	173,863	0,082	0,086
-157,964	-90,514	-0,071	-0,015
-156,950	149,141	0,028	0,028
-155,935	78,415	-0,041	-0,032
-154,920	-50,345	0,103	-0,035
-153,906	416,208	0,055	-0,085
-152,891	602,836	0,049	0,089
-151,877	18,843	0,095	-0,055
-150,862	800,000	0,042	0,133
-149,847	-135,357	0,072	-0,006
-148,833	126,912	0,044	-0,041
-147,818	179,550	-0,044	0,047
-146,804	-200,000	0,007	0,035
-145,789	274,936	-0,064	0,083
-144,775	255,419	0,036	-0,044
-143,760	-69,914	-0,128	0,035
-142,745	-200,000	-0,008	0,115
-141,731	58,350	-0,012	-0,008
-140,716	-22,425	0,025	-0,011
-139,702	800,000	-0,041	0,106
-138,687	126,723	-0,103	0,095
-137,672	4,641	-0,138	-0,074
-136,658	-34,912	0,012	-0,005
-135,643	58,619	-0,121	-0,086
-134,629	315,925	0,072	0,099
-133,614	139,534	0,027	0,025
-132,599	-21,626	-0,063	0,028
-131,585	137,969	-0,037	0,035
-130,570	-81,790	0,053	-0,013
-129,556	122,607	-0,044	-0,040
-128,541	-200,000	-0,022	-0,073
-127,526	62,224	0,082	0,059
-126,512	800,000	-0,025	0,067
-125,497	-200,000	-0,007	-0,027
-124,483	-163,198	-0,120	-0,004
-123,468	-200,000	-0,035	0,150
-122,453	38,519	0,084	0,054
-121,439	-200,000	-0,011	-0,085
-120,424	18,626	0,188	0,109
-119,410	159,538	0,087	0,088
-118,395	291,472	-0,055	0,074
-117,380	379,537	0,064	0,096
-116,366	-200,000	-0,027	0,135
-115,351	43,655	0,010	-0,006
-114,337	-136,426	-0,112	-0,009
-113,322	125,283	-0,034	-0,031
-112,307	168,449	0,037	0,038
-111,293	-200,000	-0,013	0,113
-110,278	-60,686	0,051	0,016
-109,264	4,241	-0,100	0,053
-108,249	186,887	-0,077	0,083
-107,234	-26,086	0,035	0,015
-106,220	-200,000	-0,010	-0,117
-105,205	73,591	0,051	0,039
-104,191	97,627	0,029	0,024
-103,176	-200,000	0,043	0,249
-102,162	219,807	0,128	0,149
-101,147	29,988	-0,056	-0,034
-100,132	-200,000	0,007	0,075
-99,118	-84,071	0,067	0,015
-98,103	604,552	-0,023	0,042
-97,089	124,611	-0,041	0,038
-96,074	-34,831	0,035	0,014
-95,059	315,690	0,097	-0,133
-94,045	-192,428	0,016	-0,000
-93,030	48,419	-0,042	-0,029
-92,016	396,533	0,059	-0,089
-91,001	-9,929	-0,036	-0,017
-89,986	534,013	0,020	-0,035
-88,972	-49,575	0,035	0,012
-87,957	232,140	0,086	0,103
-86,943	800,000	0,015	0,031
-85,928	800,000	0,040	-0,122
-84,913	-200,000	-0,020	0,087
-83,899	-41,700	0,045	0,017
-82,884	5,091	-0,037	0,019
-81,870	171,433	0,129	0,134
-80,855	-200,000	0,020	0,160
-79,840	800,000	-0,036	0,092
-78,826	-31,955	0,107	-0,043
-77,811	800,000	0,038	-0,085
-76,797	-60,576	0,059	-0,018
-75,782	-62,638	-0,111	0,033
-74,767	-115,975	0,129	-0,017
-73,753	184,062	0,067	-0,072
-72,738	18,630	-0,021	-0,012
-71,724	-200,000	-0,020	-0,126
-70,709	-66,159	0,110	-0,032
-69,694	-200,000	-0,001	0,085
-68,680	-122,938	0,039	-0,005
-67,665	800,000	0,014	0,038
-66,651	-1,927	0,154	-0,078
-65,636	800,000	0,022	0,063
-64,622	-156,672	-0,024	-0,001
-63,607	124,260	-0,135	-0,123
-62,592	540,544	-0,018	-0,032
-61,578	244,501	-0,039	-0,047
-60,563	-142,229	0,212	-0,015
-59,549	562,114	-0,050	0,087
-58,534	-87,681	-1,377	-0,299
-57,519	600,261	-0,785	-1,417
-56,505	-200,000	-0,907	-4,387
-55,490	-166,746	0,688	-0,020
-54,476	800,000	5,032	11,830
-53,461	-200,000	15,008	263,356
-52,446	-200,000	699,619	2255,728
-51,432	591,124	1622,962	2913,773
-50,417	120,194	1628,713	1464,383
-49,403	80,036	1282,812	998,362
-48,388	37,531	1021,294	655,056
-47,373	22,797	981,509	581,119
-46,359	21,817	970,669	571,467
-45,344	20,560	966,429	564,841
-44,330	20,584	965,084	564,109
-43,315	20,421	963,513	562,638
-42,300	20,385	962,454	561,880
-41,286	20,409	961,618	561,449
-40,271	20,295	960,617	560,471
-39,257	20,358	959,747	560,146
-38,242	20,332	958,858	559,519
-37,227	20,335	958,305	559,185
-36,213	20,374	957,014	558,537
-35,198	20,283	956,097	557,684
-34,184	20,375	955,451	557,585
-33,169	20,313	954,536	556,826
-32,154	20,344	953,492	556,295
-31,140	20,310	952,828	555,776
-30,125	20,369	951,929	555,422
-29,111	20,338	951,131	554,833
-28,096	20,397	950,578	554,677
-27,082	20,300	949,964	553,987
-26,067	20,353	949,017	553,582
-25,052	20,359	948,203	553,104
-24,038	20,323	947,719	552,684
-23,023	20,315	947,018	552,229
-22,009	20,334	946,284	551,839
-20,994	20,329	945,801	551,518
-19,979	20,359	945,231	551,262
-18,965	20,381	944,402	550,825
-17,950	20,305	943,752	550,182
-16,936	20,258	943,190	549,685
-15,921	20,279	942,721	549,455
-14,906	20,225	941,963	548,820
-13,892	20,237	941,135	548,353
-12,877	20,244	940,521	547,995
-11,863	20,093	940,110	547,255
-10,848	20,206	939,415	547,188
-9,833	20,270	939,084	547,178
-8,819	20,284	938,403	546,803
-7,804	20,192	937,796	546,134
-6,790	20,216	937,015	545,736
-5,775	20,258	936,474	545,530
-4,760	20,290	935,766	545,199
-3,746	20,223	935,200	544,635
-2,731	20,055	934,655	543,764
-1,717	20,023	933,918	543,216
-0,702	20,049	933,232	542,877
0,313	19,914	932,506	542,847
1,327	22,390	930,238	549,263
2,342	29,885	805,527	495,873
3,356	24,028	505,938	301,474
4,371	-0,457	372,511	190,874
5,386	-3,295	355,543	178,691
6,400	-4,332	349,675	174,476
7,415	-4,781	347,246	172,712
8,429	-4,564	345,970	172,321
9,444	-4,764	345,023	171,595
10,459	-4,607	344,312	171,412
11,473	-4,540	343,695	171,169
12,488	-4,649	343,089	170,724
13,502	-4,604	342,483	170,459
14,517	-4,506	342,013	170,327
15,531	-4,570	341,701	170,081
16,546	-4,396	341,364	170,102
17,561	-4,429	340,905	169,820
18,575	-4,233	340,365	169,765
19,590	-4,308	340,008	169,484
20,604	-4,281	339,668	169,332
21,619	-4,441	339,272	168,931
22,634	-4,289	338,953	168,935
23,648	-4,361	338,605	168,663
24,663	-4,518	338,354	168,340
25,677	-4,527	337,994	168,135
26,692	-4,347	337,814	168,240
27,707	-4,279	337,370	168,083
28,721	-4,374	337,132	167,839
29,736	-4,429	336,858	167,623
30,750	-4,378	336,434	167,456
31,765	-4,373	336,327	167,395
32,780	-4,422	335,886	167,104
33,794	-4,424	335,749	167,018
34,809	-4,407	335,480	166,889
35,823	-4,390	335,047	166,678
36,838	-4,290	334,647	166,579
37,853	-4,379	334,467	166,373
38,867	-4,443	334,195	166,150
39,882	-4,382	333,947	166,081
40,896	-4,343	333,673	165,975
41,911	-4,133	333,320	166,025
42,926	-4,408	333,195	165,633
43,940	-4,316	332,806	165,530
44,955	-4,386	332,578	165,321
45,969	-4,404	332,432	165,214
46,984	-4,265	332,140	165,213
47,999	-4,272	331,972	165,106
49,013	-4,255	331,579	164,916
50,028	-4,343	331,455	164,739
51,042	-4,361	331,110	164,532
52,057	-4,282	330,741	164,424
53,071	-4,181	330,586	164,448
54,086	-4,373	330,529	164,186
55,101	-4,156	330,001	164,155
56,115	-4,432	329,971	163,813
57,130	-4,408	329,575	163,629
58,144	-4,463	329,296	163,414
59,159	-4,319	328,835	163,332
60,174	-4,552	328,791	163,034
61,188	-4,401	328,333	162,962
62,203	-4,572	328,251	162,714
63,217	-4,329	327,980	162,838
64,232	-4,358	327,692	162,649
65,247	-4,451	327,233	162,301
66,261	-4,477	327,161	162,223
67,276	-4,389	326,920	162,187
68,290	-4,423	326,743	162,047
69,305	-4,426	326,469	161,893
70,320	-4,347	326,211	161,839
71,334	-4,413	325,866	161,580
72,349	-4,479	325,687	161,403
73,363	-4,408	325,242	161,247
74,378	-4,539	325,178	161,056
75,393	-4,372	324,734	161,006
76,407	-4,314	324,434	160,908
77,422	-4,410	324,270	160,706
78,436	-4,431	324,210	160,638
79,451	-4,468	323,765	160,363
80,466	-4,205	323,391	160,454
81,480	-4,328	323,274	160,246
82,495	-4,352	323,122	160,130
83,509	-4,309	322,786	159,996
84,524	-4,169	322,520	160,004
85,539	-4,205	322,408	159,894
86,553	-4,317	322,209	159,658
87,568	-4,289	321,958	159,551
88,582	-4,416	321,686	159,262
89,597	-4,308	321,497	159,274
90,611	-4,480	321,238	158,941
91,626	-4,380	321,078	158,958
92,641	-4,316	320,687	158,821
93,655	-4,273	320,402	158,712
94,670	-4,202	320,325	158,738
95,684	-4,226	319,916	158,495
96,699	-4,428	319,832	158,218
97,714	-4,304	319,476	158,163
98,728	-4,426	319,452	158,004
99,743	-4,276	319,119	157,989
100,757	-4,262	318,913	157,888
101,772	-4,375	318,534	157,563
102,787	-4,491	318,456	157,384
103,801	-4,207	317,959	157,433
104,816	-4,271	317,858	157,300
105,830	-4,404	317,835	157,130
106,845	-4,404	317,536	156,968
107,860	-4,333	317,090	156,810
108,874	-4,399	317,093	156,727
109,889	-4,401	316,760	156,547
110,903	-4,261	316,371	156,490
111,918	-4,509	316,359	156,204
112,933	-4,599	316,191	156,009
113,947	-4,352	315,784	156,060
114,962	-4,191	315,513	156,086
115,976	-4,398	315,383	155,785
116,991	-4,376	315,157	155,683
118,006	-4,459	314,994	155,499
119,020	-4,429	314,892	155,468
120,035	-4,355	314,556	155,368
121,049	-4,430	314,511	155,250
122,064	-4,218	314,132	155,277
123,079	-4,258	313,747	155,030
124,093	-4,392	313,559	154,780
125,108	-4,347	313,417	154,745
126,122	-4,164	313,232	154,835
127,137	-4,191	313,009	154,682
128,151	-4,177	312,708	154,534
129,166	-4,381	312,631	154,265
130,181	-4,385	312,476	154,171
131,195	-4,245	312,001	154,071
132,210	-4,334	311,894	153,910
133,224	-4,460	311,666	153,650
134,239	-4,208	311,211	153,680
135,254	-4,287	311,095	153,525
136,268	-4,232	310,737	153,393
137,283	-4,289	310,715	153,307
138,297	-4,310	310,442	153,137
139,312	-4,307	310,258	153,035
140,327	-4,295	309,939	152,877
141,341	-4,335	309,836	152,771
142,356	-4,377	309,538	152,566
143,370	-4,376	309,259	152,415
144,385	-4,430	309,249	152,341
145,400	-4,352	309,011	152,291
146,414	-4,328	308,750	152,175
147,429	-4,291	308,530	152,091
148,443	-4,413	308,206	151,790
149,458	-4,338	308,096	151,801
150,473	-4,424	307,817	151,561
151,487	-4,324	307,715	151,602
152,502	-4,258	307,418	151,510
153,516	-4,195	307,149	151,430
154,531	-4,384	307,002	151,147
155,546	-4,363	306,658	150,985
156,560	-4,182	306,388	151,028
157,575	-4,324	306,244	150,795
158,589	-4,341	306,005	150,647
159,604	-4,385	305,784	150,479
160,619	-4,243	305,671	150,557
161,633	-4,183	305,452	150,498
162,648	-4,199	305,132	150,311
163,662	-4,218	305,089	150,256
164,677	-4,425	304,913	149,942
165,692	-4,342	304,667	149,893
166,706	-4,130	304,411	149,974
167,721	-4,235	304,233	149,764
168,735	-4,414	304,082	149,491
169,750	-4,279	303,809	149,483
170,764	-4,429	303,675	149,249
171,779	-4,332	303,390	149,196
172,794	-4,111	303,186	149,309
173,808	-4,192	302,968	149,105
174,823	-4,355	302,871	148,877
175,837	-4,309	302,701	148,827
176,852	-4,339	302,426	148,648
177,867	-4,344	302,123	148,480
178,881	-4,465	302,068	148,316
179,896	-4,377	301,835	148,278
180,910	-4,424	301,493	148,049
181,925	-4,282	301,315	148,093
182,940	-4,337	301,188	147,962
183,954	-4,293	300,964	147,884
184,969	-4,303	300,879	147,818
185,983	-4,235	300,649	147,762
186,998	-4,235	300,430	147,641
188,013	-4,197	300,105	147,507
189,027	-4,144	299,905	147,449
190,042	-4,342	299,802	147,184
191,056	-4,392	299,637	147,039
192,071	-4,274	299,296	146,978
193,086	-4,436	299,038	146,674
194,100	-4,310	298,857	146,700
195,115	-4,316	298,642	146,576
196,129	-4,102	298,342	146,632
197,144	-4,214	298,240	146,455
198,159	-4,279	297,889	146,204
199,173	-4,285	297,779	146,131
200,188	-4,367	297,612	145,953
201,202	-4,494	297,455	145,735
202,217	-4,281	297,216	145,819
203,232	-4,314	296,899	145,618
204,246	-4,281	296,771	145,576
205,261	-4,299	296,649	145,485
206,275	-4,342	296,408	145,311
207,290	-4,315	296,120	145,183
208,304	-4,153	296,008	145,278
209,319	-4,319	295,809	145,001
210,334	-4,163	295,566	145,025
211,348	-4,276	295,399	144,817
212,363	-4,233	295,166	144,733
213,377	-4,196	294,997	144,674
214,392	-4,090	294,741	144,641
215,407	-4,264	294,578	144,375
216,421	-4,255	294,458	144,313
217,436	-4,367	294,247	144,085
218,450	-4,262	293,932	144,022
219,465	-4,385	293,830	143,837
220,480	-4,397	293,493	143,647
221,494	-4,332	293,485	143,695
222,509	-4,446	293,344	143,500
223,523	-4,325	292,957	143,418
224,538	-4,307	292,787	143,340
225,553	-4,409	292,763	143,213
226,567	-4,211	292,458	143,248
227,582	-4,221	292,335	143,165
228,596	-4,198	292,027	143,024
229,611	-4,224	291,907	142,927
230,626	-4,194	291,760	142,872
231,640	-4,072	291,425	142,815
232,655	-4,091	291,207	142,677
233,669	-4,238	291,203	142,517
234,684	-4,277	291,016	142,375
235,699	-4,158	290,752	142,350
236,713	-4,145	290,478	142,215
237,728	-4,307	290,426	142,018
238,742	-4,124	290,166	142,058
239,757	-4,192	289,888	141,843
240,772	-4,328	289,682	141,596
241,786	-4,353	289,462	141,451
242,801	-4,259	289,264	141,435
243,815	-4,257	289,133	141,359
244,830	-4,411	289,091	141,177
245,844	-4,239	288,915	141,245
246,859	-4,300	288,636	141,037
247,874	-4,105	288,382	141,090
248,888	-4,240	288,209	140,861
249,903	-4,235	288,105	140,803
250,917	-4,338	287,803	140,543
251,932	-4,451	287,554	140,299
252,947	-4,631	287,167	139,924
253,961	-5,324	287,031	139,174
254,976	-5,400	286,701	138,928
255,990	-5,068	286,707	139,239
257,005	-3,597	287,167	140,875
258,020	-1,458	288,026	143,358
259,034	0,076	288,120	144,878
260,049	0,426	288,176	145,233
261,063	0,929	288,114	145,676
262,078	1,293	288,182	146,050
263,093	1,618	287,982	146,250
264,107	1,688	288,102	146,365
265,122	2,022	287,840	146,542
266,136	2,081	287,676	146,502
267,151	2,110	287,654	146,506
268,166	2,087	287,573	146,429
269,180	2,074	287,132	146,179
270,195	2,099	286,921	146,083
271,209	2,144	286,772	146,037
272,224	2,136	286,585	145,921
273,239	1,996	286,423	145,692
274,253	2,078	286,103	145,595
275,268	2,042	286,027	145,509
276,282	1,872	285,915	145,275
277,297	1,839	285,558	145,050
278,312	1,988	285,434	145,116
279,326	2,061	285,229	145,069
280,341	2,125	284,967	144,984
281,355	1,937	285,021	144,819
282,370	1,889	284,689	144,592
283,384	1,866	284,510	144,466
284,399	1,880	284,330	144,374
285,414	1,752	284,119	144,133
286,428	2,004	283,909	144,253
287,443	1,742	283,886	143,979
288,457	1,756	283,493	143,780
289,472	1,676	283,334	143,610
290,487	1,888	283,057	143,659
291,501	1,716	282,960	143,434
292,516	1,688	282,746	143,285
293,530	1,885	282,560	143,365
294,545	1,844	282,456	143,261
295,560	1,595	282,358	142,963
296,574	1,890	281,907	143,000
297,589	1,836	281,738	142,851
298,603	1,761	281,715	142,756
299,618	1,760	281,416	142,591
300,633	1,792	281,343	142,571
301,647	1,922	281,114	142,564
302,662	1,916	281,027	142,502
303,676	1,977	280,806	142,434
304,691	1,952	280,664	142,327
305,706	2,012	280,284	142,177
306,720	2,048	280,219	142,165
307,735	1,824	280,163	141,914
308,749	1,885	279,942	141,847
309,764	2,037	279,730	141,869
310,779	1,943	279,592	141,699
311,793	1,900	279,409	141,553
312,808	1,849	279,121	141,347
313,822	2,043	278,988	141,448
314,837	2,017	278,824	141,328
315,852	1,963	278,571	141,137
316,866	1,847	278,449	140,954
317,881	1,950	278,253	140,939
318,895	1,976	278,000	140,822
319,910	2,082	277,772	140,792
320,925	2,132	277,642	140,760
321,939	2,030	277,595	140,629
322,954	2,000	277,445	140,512
323,968	2,103	277,320	140,532
324,983	2,015	277,097	140,325
325,997	2,005	276,970	140,239
327,012	1,989	276,836	140,144
328,027	1,976	276,471	139,935
329,041	2,000	276,392	139,905
330,056	1,927	276,150	139,703
331,070	1,987	276,006	139,672
332,085	2,143	275,704	139,650
333,100	2,079	275,693	139,574
334,114	2,017	275,466	139,389
335,129	2,060	275,193	139,279
336,143	2,061	275,080	139,209
337,158	2,232	274,913	139,269
338,173	2,074	274,768	139,038
339,187	2,231	274,615	139,093
340,202	2,007	274,467	138,800
341,216	2,174	274,153	138,782
342,231	2,045	274,021	138,584
343,246	2,152	273,826	138,571
344,260	2,052	273,703	138,406
345,275	2,077	273,584	138,356
346,289	2,076	273,527	138,314
347,304	2,093	273,135	138,118
348,319	1,963	273,015	137,927
349,333	2,131	272,930	138,025
350,348	2,212	272,694	137,967
351,362	2,247	272,531	137,903
352,377	2,164	272,301	137,699
353,392	2,200	272,134	137,636
354,406	2,252	271,836	137,519
355,421	191,059	1347,253	1424,441
356,435	154,217	1478,355	1424,541
