DTS Sentinel unit serial number:	SN410029Multiplexer serial number:	ORYXHardware model number:	OX2-SRSoftware version number:	ORYX F/W v4,00 Oryx Data Collector v3.7.2.0data status	okinstallation	B4 Nyhavnadifferential loss correction	single-endedforward channel	channel 2reverse channel	N/Adate	2023/12/18time	21:15:13forward acquisition time	300,00reverse acquisition time	0,00gamma	499,1914k internal	0,3124k external	0,3124temperature offset calibration	1,0000default loss term (dB/km)	0,3820temperature slope calibration	1,0000multiplexer offset coefficient	1,0000multiplexer slope coefficient	1,0000fibre end	0,00T internal ref (°C)	21,85T ext. ref 1 (°C)	7,13T ext. ref 2 (°C)	7,07length (m)	temperature (°C)	Stokes	anti-Stokes-744,400	-104,030	0,071	-0,012
-743,385	84,100	-0,176	0,144
-742,371	-200,000	-0,012	-0,139
-741,356	108,740	-0,205	0,183
-740,342	-96,901	0,121	0,023
-739,327	-5,041	-0,341	0,174
-738,312	-148,210	-0,027	-0,002
-737,298	-41,738	-0,223	0,085
-736,283	2,334	-0,087	0,047
-735,269	-13,604	-0,294	0,141
-734,254	-200,000	0,008	-0,114
-733,239	-123,325	-0,444	-0,052
-732,225	666,495	0,095	0,184
-731,210	111,899	-0,029	-0,026
-730,196	179,617	-0,102	-0,112
-729,181	53,324	-0,034	-0,024
-728,167	62,105	-0,061	-0,046
-727,152	-25,544	-0,122	0,053
-726,137	800,000	0,007	0,021
-725,123	54,386	-0,069	-0,050
-724,108	322,097	-0,091	-0,129
-723,094	-50,871	-0,010	-0,003
-722,079	-200,000	0,051	-0,196
-721,064	-84,726	0,064	0,015
-720,050	314,829	-0,021	-0,030
-719,035	-30,484	-0,154	0,065
-718,021	11,957	-0,027	0,015
-717,006	612,705	-0,033	-0,062
-715,991	178,029	0,067	0,072
-714,977	357,592	-0,037	-0,056
-713,962	-91,641	-0,065	-0,014
-712,948	-135,730	-0,081	0,007
-711,933	-200,000	-0,016	0,103
-710,918	71,148	-0,051	-0,039
-709,904	-48,404	0,025	-0,009
-708,889	74,329	-0,049	0,038
-707,875	77,679	-0,141	-0,111
-706,860	-125,924	-0,063	0,007
-705,845	-180,840	0,066	0,001
-704,831	1,313	-0,178	-0,095
-703,816	-34,000	0,083	0,034
-702,802	534,027	-0,046	0,082
-701,787	370,682	0,035	-0,053
-700,772	325,684	-0,089	-0,127
-699,758	691,271	-0,037	-0,073
-698,743	-200,000	0,032	0,178
-697,729	-200,000	-0,001	0,059
-696,714	106,816	-0,081	-0,071
-695,699	-82,470	-0,031	-0,007
-694,685	800,000	0,042	0,094
-693,670	-200,000	-0,018	-0,069
-692,656	-101,914	-0,074	-0,013
-691,641	-200,000	0,028	0,114
-690,627	-125,545	-0,046	0,005
-689,612	280,634	-0,038	-0,051
-688,597	128,140	-0,038	-0,036
-687,583	520,377	-0,034	-0,059
-686,568	211,937	0,048	-0,056
-685,554	-200,000	-0,034	-0,146
-684,539	800,000	0,050	-0,113
-683,524	263,607	0,054	-0,070
-682,510	-200,000	0,015	0,106
-681,495	-126,827	0,035	-0,004
-680,481	800,000	0,065	-0,165
-679,466	202,985	-0,083	-0,095
-678,451	515,140	-0,057	-0,099
-677,437	-99,271	0,033	0,006
-676,422	-73,623	-0,068	-0,018
-675,408	-200,000	-0,000	0,033
-674,393	-0,476	-0,109	0,057
-673,378	38,060	-0,141	-0,093
-672,364	-134,121	-0,108	-0,010
-671,349	-200,000	-0,020	0,088
-670,335	10,072	0,047	-0,027
-669,320	-200,000	0,038	-0,164
-668,305	-200,000	-0,009	-0,099
-667,291	-131,074	-0,042	-0,004
-666,276	167,942	-0,071	-0,075
-665,262	-53,454	-0,039	-0,013
-664,247	371,835	-0,035	0,054
-663,232	-200,000	0,009	-0,051
-662,218	419,197	-0,031	0,049
-661,203	567,260	-0,045	-0,081
-660,189	-200,000	0,002	-0,014
-659,174	-200,000	-0,005	-0,096
-658,159	-200,000	0,016	0,102
-657,145	223,740	-0,128	-0,153
-656,130	-55,192	0,051	0,017
-655,116	610,754	-0,043	0,079
-654,101	-200,000	0,015	0,082
-653,086	-200,000	-0,034	-0,117
-652,072	266,161	-0,046	-0,059
-651,057	29,843	-0,026	-0,016
-650,043	25,066	0,082	-0,050
-649,028	302,380	0,100	0,137
-648,014	800,000	0,039	-0,120
-646,999	800,000	0,049	-0,144
-645,984	-131,758	0,110	0,011
-644,970	82,481	-0,064	-0,051
-643,955	-200,000	-0,023	-0,109
-642,941	-36,367	-0,176	0,070
-641,926	-148,596	0,060	-0,004
-640,911	-200,000	0,030	-0,133
-639,897	434,853	0,044	0,071
-638,882	-62,331	-0,075	-0,023
-637,868	-103,569	-0,165	0,028
-636,853	315,651	-0,038	0,053
-635,838	-40,073	-0,098	-0,038
-634,824	288,104	-0,066	-0,089
-633,809	-23,256	-0,024	-0,011
-632,795	-200,000	-0,003	0,020
-631,780	383,906	0,042	0,064
-630,765	-185,472	-0,059	-0,001
-629,751	-200,000	-0,000	0,050
-628,736	-25,084	0,060	-0,026
-627,722	253,855	0,063	-0,080
-626,707	6,686	-0,068	-0,037
-625,692	-200,000	0,005	-0,208
-624,678	800,000	-0,031	-0,088
-623,663	-13,893	0,071	-0,034
-622,649	269,076	-0,049	-0,063
-621,634	22,749	-0,044	-0,027
-620,619	-200,000	-0,016	-0,063
-619,605	800,000	-0,027	-0,062
-618,590	-200,000	-0,045	0,151
-617,576	78,917	-0,010	-0,008
-616,561	12,528	-0,051	0,029
-615,546	-200,000	0,024	-0,082
-614,532	454,690	-0,077	-0,128
-613,517	-200,000	-0,006	-0,029
-612,503	238,640	-0,033	0,040
-611,488	279,710	0,029	0,038
-610,474	-113,266	-0,025	-0,004
-609,459	-200,000	0,016	0,184
-608,444	-7,698	-0,121	-0,061
-607,430	-200,000	-0,021	-0,205
-606,415	-200,000	0,003	0,090
-605,401	800,000	0,021	0,051
-604,386	214,105	0,039	-0,046
-603,371	80,692	-0,043	-0,035
-602,357	147,428	-0,063	-0,063
-601,342	800,000	-0,043	-0,124
-600,328	113,079	-0,118	-0,106
-599,313	-97,491	-0,135	-0,026
-598,298	-177,770	0,210	-0,004
-597,284	-47,530	0,012	0,004
-596,269	-55,572	-0,061	0,020
-595,255	-4,469	0,083	0,042
-594,240	800,000	-0,019	-0,046
-593,225	-200,000	-0,023	-0,144
-592,211	-200,000	-0,024	-0,093
-591,196	578,658	-0,039	-0,071
-590,182	-84,117	0,052	-0,012
-589,167	40,347	0,007	-0,005
-588,152	56,607	0,048	0,034
-587,138	-127,614	0,106	0,011
-586,123	-81,797	0,059	0,014
-585,109	-200,000	-0,001	-0,155
-584,094	-200,000	0,010	-0,156
-583,079	-186,804	-0,066	0,001
-582,065	82,086	0,043	0,034
-581,050	670,357	0,052	0,101
-580,036	429,464	-0,018	-0,029
-579,021	209,184	-0,015	-0,017
-578,006	117,486	-0,097	-0,088
-576,992	434,795	-0,037	-0,060
-575,977	268,499	0,022	0,028
-574,963	410,680	-0,056	0,089
-573,948	800,000	0,028	0,082
-572,934	-34,006	-0,105	-0,043
-571,919	-200,000	-0,004	-0,135
-570,904	800,000	-0,034	0,077
-569,890	-183,651	-0,218	-0,003
-568,875	800,000	0,071	0,175
-567,861	39,753	0,108	-0,072
-566,846	28,153	-0,119	-0,074
-565,831	-110,899	-0,091	0,014
-564,817	20,271	-0,106	-0,063
-563,802	61,914	-0,113	-0,083
-562,788	-200,000	-0,023	-0,180
-561,773	63,163	0,130	-0,097
-560,758	800,000	0,042	0,105
-559,744	800,000	0,017	0,055
-558,729	208,966	0,059	0,068
-557,715	233,708	-0,106	0,129
-556,700	-200,000	0,045	-0,173
-555,685	-165,341	-0,102	-0,003
-554,671	800,000	-0,038	-0,092
-553,656	800,000	0,032	-0,070
-552,642	-200,000	-0,015	0,208
-551,627	800,000	-0,030	-0,068
-550,612	79,501	0,050	-0,040
-549,598	273,587	-0,106	-0,139
-548,583	515,029	0,049	0,085
-547,569	114,311	-0,055	0,050
-546,554	-111,322	0,148	-0,022
-545,539	-200,000	0,018	-0,087
-544,525	693,053	-0,040	-0,078
-543,510	-200,000	0,012	0,066
-542,496	281,669	-0,006	0,009
-541,481	-27,119	0,107	-0,046
-540,466	752,791	-0,025	-0,051
-539,452	127,166	0,023	-0,022
-538,437	-200,000	0,007	0,111
-537,423	78,788	-0,029	0,023
-536,408	-127,258	-0,122	-0,013
-535,393	-200,000	0,005	0,076
-534,379	191,093	-0,103	-0,115
-533,364	-15,032	-0,074	-0,035
-532,350	-73,225	0,175	0,047
-531,335	-200,000	-0,021	0,112
-530,321	302,335	-0,078	-0,107
-529,306	-200,000	0,002	0,117
-528,291	-28,823	-0,024	0,010
-527,277	-118,646	0,119	-0,015
-526,262	-109,629	-0,091	-0,014
-525,248	773,042	0,042	-0,085
-524,233	-81,098	0,010	0,002
-523,218	800,000	-0,035	0,072
-522,204	191,128	-0,054	0,060
-521,189	704,774	0,029	-0,057
-520,175	426,560	0,059	-0,094
-519,160	3,813	-0,053	0,029
-518,145	-200,000	-0,006	0,103
-517,131	-200,000	0,008	0,057
-516,116	136,433	0,046	0,044
-515,102	-98,458	-0,110	0,021
-514,087	424,026	-0,075	-0,119
-513,072	-200,000	0,008	-0,060
-512,058	377,170	-0,035	-0,054
-511,043	-200,000	-0,004	-0,074
-510,029	-200,000	0,033	-0,163
-509,014	800,000	-0,038	0,116
-507,999	11,278	0,057	0,032
-506,985	22,918	-0,085	0,052
-505,970	-200,000	0,004	-0,072
-504,956	-30,575	-0,126	-0,052
-503,941	800,000	-0,045	-0,113
-502,926	-74,108	0,082	-0,022
-501,912	-113,366	0,080	-0,012
-500,897	800,000	-0,021	0,047
-499,883	373,299	-0,063	-0,096
-498,868	-115,981	-0,104	-0,014
-497,853	-199,032	-0,088	0,000
-496,839	51,813	0,053	0,037
-495,824	-70,507	0,119	0,033
-494,810	21,009	0,101	-0,060
-493,795	337,979	-0,104	0,149
-492,781	800,000	-0,016	0,044
-491,766	-200,000	-0,033	-0,139
-490,751	-200,000	0,011	-0,110
-489,737	-139,782	-0,154	0,012
-488,722	-87,171	0,083	-0,018
-487,708	152,569	0,099	0,100
-486,693	-106,082	0,087	-0,014
-485,678	800,000	0,025	-0,074
-484,664	68,944	0,040	-0,030
-483,649	-200,000	-0,003	-0,072
-482,635	-200,000	0,011	-0,047
-481,620	-63,219	-0,134	0,040
-480,605	689,915	0,083	0,161
-479,591	-125,070	0,128	-0,014
-478,576	325,115	0,093	0,132
-477,562	-200,000	-0,033	-0,121
-476,547	443,366	-0,076	-0,123
-475,532	73,470	0,087	0,067
-474,518	-30,353	0,079	-0,033
-473,503	326,224	-0,006	0,009
-472,489	40,794	0,084	-0,056
-471,474	9,429	-0,083	0,046
-470,459	-200,000	0,008	-0,083
-469,445	-200,000	0,000	-0,119
-468,430	-200,000	-0,010	-0,036
-467,416	800,000	-0,034	-0,091
-466,401	-200,000	-0,008	0,155
-465,386	244,100	-0,052	0,065
-464,372	-200,000	0,023	0,115
-463,357	-7,892	-0,087	-0,043
-462,343	66,377	-0,049	-0,037
-461,328	-200,000	-0,005	-0,053
-460,313	41,840	0,049	0,033
-459,299	-200,000	0,002	0,072
-458,284	-42,179	0,107	0,040
-457,270	-200,000	0,007	-0,069
-456,255	-200,000	-0,003	0,015
-455,241	161,046	-0,075	-0,077
-454,226	800,000	-0,035	-0,100
-453,211	800,000	-0,108	-0,232
-452,197	349,601	0,047	-0,069
-451,182	284,622	-0,062	0,083
-450,168	800,000	0,030	-0,081
-449,153	-164,119	-0,122	-0,004
-448,138	55,573	-0,150	-0,107
-447,124	59,829	0,084	-0,061
-446,109	42,964	-0,069	0,047
-445,095	800,000	-0,050	0,147
-444,080	800,000	0,079	0,215
-443,065	-200,000	0,007	0,102
-442,051	-200,000	0,010	-0,081
-441,036	-17,562	-0,095	0,044
-440,022	-200,000	0,045	-0,149
-439,007	13,578	0,126	0,072
-437,992	-146,423	-0,164	-0,010
-436,978	121,249	-0,054	0,049
-435,963	800,000	0,015	0,042
-434,949	482,826	-0,020	-0,034
-433,934	-15,693	-0,031	0,015
-432,919	188,469	-0,123	-0,135
-431,905	485,948	0,126	-0,212
-430,890	-200,000	-0,016	0,100
-429,876	-84,183	0,129	-0,030
-428,861	-200,000	0,027	0,156
-427,846	-158,623	-0,153	-0,006
-426,832	-113,928	-0,067	0,009
-425,817	44,349	0,112	0,075
-424,803	800,000	0,032	0,075
-423,788	94,327	-0,035	-0,029
-422,773	38,275	0,050	0,033
-421,759	-200,000	0,008	0,051
-420,744	-107,328	0,020	0,003
-419,730	-200,000	-0,032	-0,138
-418,715	-200,000	-0,008	-0,046
-417,701	202,604	-0,028	0,032
-416,686	501,879	-0,027	0,046
-415,671	263,972	-0,094	0,120
-414,657	800,000	0,048	0,143
-413,642	-30,484	0,112	0,046
-412,628	647,731	0,015	-0,029
-411,613	83,748	0,045	0,036
-410,598	398,352	0,082	0,126
-409,584	-200,000	-0,000	0,078
-408,569	85,743	0,127	0,103
-407,555	800,000	-0,001	-0,003
-406,540	633,052	0,063	-0,118
-405,525	357,002	0,008	0,012
-404,511	-200,000	-0,009	0,082
-403,496	-157,305	-0,136	0,006
-402,482	-27,498	-0,014	0,006
-401,467	615,089	0,051	0,094
-400,452	-160,508	0,073	0,003
-399,438	174,409	0,030	-0,032
-398,423	1,573	-0,073	-0,038
-397,409	-67,429	0,124	-0,036
-396,394	300,314	-0,007	-0,009
-395,379	265,751	-0,077	0,099
-394,365	-200,000	0,005	0,057
-393,350	-200,000	-0,007	0,115
-392,336	-74,125	0,230	0,061
-391,321	-95,137	0,076	-0,015
-390,306	-200,000	-0,009	0,080
-389,292	157,016	-0,027	-0,027
-388,277	-200,000	0,010	-0,129
-387,263	800,000	-0,024	-0,068
-386,248	136,350	0,077	0,074
-385,233	399,774	0,090	0,139
-384,219	55,530	0,049	-0,035
-383,204	-105,736	0,043	-0,007
-382,190	800,000	-0,126	-0,265
-381,175	47,195	0,055	0,037
-380,160	800,000	-0,087	0,216
-379,146	274,437	0,083	0,109
-378,131	168,004	-0,064	-0,067
-377,117	73,041	0,083	-0,064
-376,102	542,550	0,108	-0,190
-375,088	800,000	-0,099	-0,228
-374,073	800,000	0,034	0,079
-373,058	104,774	0,080	0,069
-372,044	-120,235	0,103	0,013
-371,029	-32,997	0,040	0,016
-370,015	-200,000	0,025	0,091
-369,000	-120,016	-0,022	-0,003
-367,985	284,410	0,065	-0,087
-366,971	-63,489	-0,078	0,023
-365,956	265,866	0,087	0,112
-364,942	187,607	-0,075	0,082
-363,927	-134,699	0,061	0,005
-362,912	-134,794	-0,012	0,001
-361,898	23,574	-0,140	0,084
-360,883	99,927	-0,071	0,061
-359,869	-200,000	0,004	-0,095
-358,854	-30,043	0,080	-0,033
-357,839	-54,902	0,196	-0,064
-356,825	-132,163	0,128	-0,012
-355,810	98,904	-0,017	-0,014
-354,796	-200,000	-0,018	-0,085
-353,781	-200,000	-0,042	-0,148
-352,766	800,000	-0,022	-0,071
-351,752	800,000	0,036	0,110
-350,737	32,781	0,002	0,001
-349,723	-200,000	0,019	0,096
-348,708	-17,509	-0,045	-0,021
-347,693	48,864	0,053	-0,036
-346,679	176,288	-0,050	0,054
-345,664	-200,000	-0,011	0,074
-344,650	539,269	0,084	0,148
-343,635	-56,065	-0,082	0,027
-342,620	800,000	0,009	0,020
-341,606	-64,872	0,053	0,016
-340,591	-188,442	0,121	0,001
-339,577	-165,429	-0,007	0,000
-338,562	324,851	0,060	-0,085
-337,548	-200,000	-0,007	0,073
-336,533	-64,530	0,142	0,042
-335,518	-28,853	0,111	-0,047
-334,504	8,369	0,069	0,038
-333,489	47,582	0,170	-0,116
-332,475	-200,000	-0,054	-0,181
-331,460	-114,136	-0,128	-0,018
-330,445	-136,187	-0,165	-0,014
-329,431	412,634	0,026	-0,041
-328,416	205,119	-0,057	0,065
-327,402	43,943	-0,075	-0,050
-326,387	-28,870	-0,019	-0,008
-325,372	94,082	-0,085	0,071
-324,358	-200,000	0,010	-0,095
-323,343	612,474	0,044	0,081
-322,329	-200,000	-0,013	-0,091
-321,314	-67,887	0,068	-0,019
-320,299	800,000	0,035	0,101
-319,285	-200,000	0,028	0,108
-318,270	800,000	-0,014	0,038
-317,256	-200,000	-0,011	0,059
-316,241	-55,461	-0,096	0,031
-315,226	-25,030	0,044	0,019
-314,212	216,380	0,107	0,124
-313,197	-200,000	0,039	0,207
-312,183	50,609	0,051	-0,036
-311,168	800,000	-0,036	-0,083
-310,153	403,032	-0,052	-0,080
-309,139	221,576	-0,102	-0,121
-308,124	-49,791	-0,088	0,030
-307,110	-200,000	0,016	0,070
-306,095	336,833	-0,079	-0,112
-305,080	-99,120	-0,034	0,006
-304,066	800,000	-0,029	-0,066
-303,051	800,000	0,012	-0,036
-302,037	51,208	-0,052	-0,036
-301,022	-200,000	0,031	0,172
-300,008	453,438	0,067	0,109
-298,993	-200,000	0,031	-0,122
-297,978	473,365	-0,074	-0,122
-296,964	374,328	0,031	-0,046
-295,949	-80,494	-0,066	0,016
-294,935	-200,000	0,016	0,055
-293,920	-200,000	-0,005	0,116
-292,905	-200,000	0,005	-0,021
-291,891	462,307	0,057	0,093
-290,876	788,537	-0,021	0,042
-289,862	800,000	0,018	0,042
-288,847	-200,000	-0,020	-0,133
-287,832	-42,075	-0,159	0,059
-286,818	-23,355	0,093	0,041
-285,803	455,306	-0,048	0,078
-284,789	800,000	-0,016	0,046
-283,774	-200,000	0,009	-0,059
-282,759	-200,000	-0,010	-0,038
-281,745	-200,000	0,002	0,068
-280,730	75,743	-0,050	0,038
-279,716	-200,000	0,019	-0,089
-278,701	23,168	-0,063	-0,038
-277,686	-147,677	0,080	-0,005
-276,672	800,000	0,048	0,137
-275,657	183,505	-0,084	0,091
-274,643	-200,000	0,001	-0,046
-273,628	527,498	-0,077	-0,133
-272,613	-25,593	-0,096	0,041
-271,599	253,029	0,087	-0,109
-270,584	-200,000	0,023	0,114
-269,570	-158,003	-0,043	-0,002
-268,555	-104,921	0,120	0,020
-267,540	-130,464	-0,041	0,004
-266,526	-200,000	-0,003	-0,088
-265,511	-9,037	0,041	0,020
-264,497	-200,000	0,007	0,050
-263,482	232,380	0,085	0,102
-262,467	260,294	-0,057	0,073
-261,453	-200,000	0,014	-0,117
-260,438	-200,000	0,026	-0,107
-259,424	-11,846	-0,026	-0,013
-258,409	547,030	0,035	-0,062
-257,395	158,165	0,050	0,050
-256,380	445,192	-0,052	-0,083
-255,365	-200,000	0,014	0,148
-254,351	800,000	-0,036	0,073
-253,336	287,031	-0,063	0,084
-252,322	319,729	-0,040	-0,056
-251,307	-200,000	0,000	-0,064
-250,292	-200,000	0,007	0,033
-249,278	-95,532	0,046	0,009
-248,263	-37,214	0,021	-0,008
-247,249	307,887	0,098	0,134
-246,234	149,027	-0,045	0,044
-245,219	-200,000	-0,006	-0,082
-244,205	33,725	-0,047	0,029
-243,190	-200,000	-0,021	0,132
-242,176	-149,600	0,059	-0,003
-241,161	32,359	0,061	0,038
-240,146	-34,541	0,043	-0,017
-239,132	223,903	0,161	0,191
-238,117	-30,058	-0,171	0,071
-237,103	-200,000	0,007	-0,041
-236,088	468,709	-0,095	0,156
-235,073	7,324	0,073	-0,040
-234,059	-50,687	0,190	0,065
-233,044	800,000	0,034	0,070
-232,030	-33,577	0,095	-0,038
-231,015	800,000	-0,014	0,040
-230,000	800,000	-0,049	-0,151
-228,986	233,880	-0,019	0,022
-227,971	-200,000	-0,034	0,143
-226,957	522,012	-0,043	0,074
-225,942	127,778	-0,088	0,082
-224,927	800,000	-0,051	-0,126
-223,913	-200,000	-0,039	-0,140
-222,898	-200,000	0,001	0,018
-221,884	-200,000	0,028	-0,108
-220,869	-68,439	0,084	-0,024
-219,855	73,963	0,056	0,043
-218,840	-200,000	-0,009	0,116
-217,825	-200,000	-0,018	0,096
-216,811	-200,000	0,008	-0,072
-215,796	-200,000	-0,009	0,074
-214,782	-15,025	-0,062	-0,029
-213,767	121,663	0,046	-0,042
-212,752	-200,000	0,019	-0,105
-211,738	95,221	-0,060	0,050
-210,723	800,000	-0,017	0,045
-209,709	-192,915	0,036	0,000
-208,694	99,788	0,052	-0,044
-207,679	676,405	0,017	0,032
-206,665	-200,000	0,013	0,066
-205,650	265,494	0,068	0,086
-204,636	-200,000	-0,010	0,157
-203,621	591,833	0,013	0,023
-202,606	55,113	0,070	-0,049
-201,592	800,000	-0,030	0,068
-200,577	-200,000	-0,004	0,057
-199,563	127,118	-0,066	0,061
-198,548	87,711	0,046	0,037
-197,533	-13,357	0,114	0,054
-196,519	800,000	-0,072	-0,153
-195,504	226,840	0,042	-0,050
-194,490	191,221	-0,038	-0,042
-193,475	-0,533	0,115	-0,060
-192,460	537,967	-0,024	-0,042
-191,446	-111,745	-0,073	0,011
-190,431	-133,918	0,177	0,016
-189,417	30,889	-0,068	0,042
-188,402	105,912	0,128	-0,110
-187,387	-26,720	0,069	-0,029
-186,373	-200,000	-0,033	0,179
-185,358	800,000	0,071	-0,164
-184,344	75,961	0,118	0,091
-183,329	-61,518	0,108	-0,033
-182,315	117,845	0,052	0,047
-181,300	329,064	-0,067	-0,094
-180,285	-200,000	0,002	0,089
-179,271	-108,597	-0,133	-0,021
-178,256	-200,000	-0,013	0,053
-177,242	83,003	0,067	0,053
-176,227	223,577	0,070	0,083
-175,212	-82,701	-0,056	-0,013
-174,198	601,173	0,031	0,057
-173,183	50,508	-0,050	-0,035
-172,169	800,000	0,043	0,089
-171,154	-6,442	0,078	0,038
-170,139	-174,868	0,059	0,001
-169,125	800,000	-0,047	0,097
-168,110	800,000	-0,059	-0,144
-167,096	-135,865	-0,064	0,005
-166,081	93,166	0,055	-0,045
-165,066	459,782	0,058	-0,094
-164,052	800,000	0,043	-0,113
-163,037	80,931	0,106	-0,083
-162,023	44,135	-0,168	0,112
-161,008	800,000	0,083	0,176
-159,993	-32,369	-0,102	-0,041
-158,979	60,198	-0,126	0,091
-157,964	53,005	-0,094	-0,065
-156,950	-200,000	-0,008	0,091
-155,935	-86,120	0,150	0,033
-154,920	-200,000	-0,027	0,111
-153,906	-119,611	-0,165	0,021
-152,891	800,000	0,051	0,127
-151,877	288,334	-0,071	0,094
-150,862	-200,000	-0,020	0,074
-149,847	-200,000	-0,026	-0,095
-148,833	453,975	0,031	0,050
-147,818	-62,345	0,140	-0,042
-146,804	236,282	0,047	0,057
-145,789	235,904	-0,092	0,111
-144,775	576,343	-0,114	0,204
-143,760	-18,350	0,028	0,013
-142,745	81,768	-0,057	-0,045
-141,731	-200,000	0,001	0,117
-140,716	154,593	0,114	-0,114
-139,702	-200,000	-0,032	0,158
-138,687	34,623	-0,124	0,079
-137,672	-112,159	0,093	0,013
-136,658	397,080	-0,085	-0,130
-135,643	141,521	-0,057	-0,055
-134,629	173,497	0,065	0,069
-133,614	242,645	-0,090	0,110
-132,599	481,684	0,019	0,032
-131,585	318,283	-0,034	0,047
-130,570	61,830	0,061	0,045
-129,556	-200,000	-0,041	0,153
-128,541	92,555	-0,118	0,097
-127,526	267,397	-0,029	0,038
-126,512	179,515	0,074	-0,079
-125,497	123,683	0,068	0,063
-124,483	-60,125	-0,043	-0,013
-123,468	-132,013	0,091	0,009
-122,453	238,671	-0,022	0,026
-121,439	643,838	-0,052	0,097
-120,424	-86,715	0,090	0,020
-119,410	51,476	-0,047	0,032
-118,395	-165,585	0,220	0,007
-117,380	181,626	0,074	0,079
-116,366	-49,425	0,047	0,016
-115,351	-73,530	-0,196	0,052
-114,337	95,247	-0,024	-0,020
-113,322	194,014	-0,094	0,103
-112,307	800,000	0,021	-0,045
-111,293	177,452	0,105	-0,112
-110,278	288,030	0,065	0,085
-109,264	800,000	-0,013	0,039
-108,249	-34,588	-0,179	-0,071
-107,234	-200,000	-0,024	0,077
-106,220	-200,000	-0,022	-0,098
-105,205	31,358	0,113	0,071
-104,191	32,543	0,087	0,055
-103,176	-200,000	0,009	0,056
-102,162	-200,000	-0,001	0,047
-101,147	294,636	-0,034	-0,046
-100,132	35,556	0,049	-0,031
-99,118	-134,453	-0,068	-0,006
-98,103	-200,000	-0,004	0,081
-97,089	-200,000	0,023	0,087
-96,074	-200,000	-0,004	-0,050
-95,059	-153,585	0,018	0,001
-94,045	202,887	-0,067	0,075
-93,030	-87,498	-0,115	-0,025
-92,016	13,949	-0,011	0,006
-91,001	308,312	0,053	-0,072
-89,986	60,616	0,018	0,013
-88,972	36,693	0,084	0,054
-87,957	515,821	0,025	0,043
-86,943	196,406	-0,097	0,108
-85,928	202,503	-0,070	0,079
-84,913	800,000	0,030	0,062
-83,899	424,772	-0,044	-0,069
-82,884	-114,616	0,123	0,017
-81,870	1,155	0,022	0,011
-80,855	-150,691	0,121	-0,007
-79,840	-128,063	0,067	-0,007
-78,826	800,000	0,036	-0,114
-77,811	-74,013	0,141	0,037
-76,797	-200,000	0,011	0,249
-75,782	800,000	0,071	0,169
-74,767	-40,772	-0,137	0,051
-73,753	-156,412	0,026	-0,001
-72,738	-200,000	-0,011	-0,079
-71,724	-51,960	-0,146	0,049
-70,709	-152,303	-0,166	0,009
-69,694	-17,649	-0,064	-0,029
-68,680	-46,219	0,028	0,010
-67,665	196,717	0,097	0,108
-66,651	-58,717	0,181	-0,057
-65,636	29,139	0,042	-0,026
-64,622	-124,162	-0,002	-0,000
-63,607	-200,000	0,016	-0,071
-62,592	-200,000	-0,016	-0,139
-61,578	-61,962	0,002	-0,001
-60,563	-200,000	-0,010	-0,075
-59,549	30,214	-0,205	0,127
-58,534	-155,788	-1,349	-0,061
-57,519	800,000	-0,777	-1,571
-56,505	-200,000	-0,864	-4,381
-55,490	-5,936	0,507	-0,251
-54,476	800,000	4,957	11,545
-53,461	-200,000	14,046	254,756
-52,446	-200,000	694,570	2263,168
-51,432	598,492	1624,763	2934,795
-50,417	117,676	1633,026	1458,047
-49,403	73,555	1287,363	976,948
-48,388	37,347	1023,622	656,711
-47,373	23,913	981,853	585,716
-46,359	23,167	971,390	577,007
-45,344	22,088	966,992	570,844
-44,330	22,037	965,644	569,861
-43,315	21,935	964,208	568,658
-42,300	21,855	963,179	567,767
-41,286	21,897	962,224	567,320
-40,271	21,867	961,118	566,546
-39,257	21,869	960,271	566,032
-38,242	21,800	959,511	565,338
-37,227	21,802	958,603	564,787
-36,213	21,808	957,842	564,336
-35,198	21,809	956,752	563,676
-34,184	21,893	956,171	563,582
-33,169	21,835	955,329	562,876
-32,154	21,887	954,219	562,366
-31,140	21,971	953,177	561,999
-30,125	21,910	952,587	561,435
-29,111	21,879	951,845	560,876
-28,096	21,891	951,181	560,500
-27,082	21,921	950,533	560,193
-26,067	21,946	949,620	559,711
-25,052	21,886	949,146	559,218
-24,038	21,934	948,258	558,827
-23,023	21,899	947,647	558,331
-22,009	21,883	947,085	557,929
-20,994	21,954	946,244	557,635
-19,979	21,865	945,705	557,012
-18,965	21,846	945,232	556,652
-17,950	21,866	944,506	556,266
-16,936	21,855	943,927	555,868
-15,921	21,808	943,160	555,243
-14,906	21,780	942,361	554,663
-13,892	21,782	941,642	554,224
-12,877	21,729	941,316	553,843
-11,863	21,769	940,441	553,433
-10,848	21,825	939,901	553,269
-9,833	21,895	939,333	553,135
-8,819	21,818	938,868	552,595
-7,804	21,753	938,219	551,985
-6,790	21,747	937,717	551,649
-5,775	21,840	936,914	551,450
-4,760	21,777	936,384	550,916
-3,746	21,722	935,822	550,392
-2,731	21,620	935,287	549,733
-1,717	21,563	934,494	549,063
-0,702	21,581	933,603	548,574
0,313	21,413	933,102	548,579
1,327	23,919	930,635	554,957
2,342	31,460	809,017	502,882
3,356	26,242	509,487	307,750
4,371	1,528	374,620	194,744
5,386	-1,458	357,664	182,237
6,400	-2,325	351,610	178,085
7,415	-2,776	348,939	176,174
8,429	-2,780	347,523	175,439
9,444	-2,912	346,771	174,886
10,459	-2,779	345,939	174,609
11,473	-2,721	345,424	174,403
12,488	-2,773	344,746	173,984
13,502	-3,006	344,296	173,464
14,517	-2,839	343,863	173,429
15,531	-2,709	343,178	173,222
16,546	-2,684	342,718	173,003
17,561	-2,678	342,364	172,816
18,575	-2,686	342,063	172,639
19,590	-2,734	341,556	172,312
20,604	-2,659	341,325	172,268
21,619	-2,674	340,891	172,016
22,634	-2,734	340,523	171,745
23,648	-2,704	340,168	171,586
24,663	-2,740	339,931	171,409
25,677	-2,746	339,703	171,272
26,692	-2,664	339,210	171,104
27,707	-2,645	339,067	171,038
28,721	-2,716	338,553	170,681
29,736	-2,754	338,418	170,553
30,750	-2,693	338,093	170,444
31,765	-2,618	337,797	170,368
32,780	-2,731	337,448	170,046
33,794	-2,643	337,246	170,030
34,809	-2,776	336,842	169,658
35,823	-2,724	336,597	169,579
36,838	-2,796	336,401	169,382
37,853	-2,742	336,246	169,352
38,867	-2,739	335,861	169,146
39,882	-2,785	335,551	168,921
40,896	-2,740	335,264	168,814
41,911	-2,567	335,171	168,952
42,926	-2,511	334,670	168,748
43,940	-2,595	334,381	168,491
44,955	-2,611	334,120	168,326
45,969	-2,778	334,019	168,069
46,984	-2,673	333,665	167,995
47,999	-2,729	333,530	167,848
49,013	-2,715	333,230	167,698
50,028	-2,707	332,888	167,521
51,042	-2,745	332,562	167,298
52,057	-2,811	332,445	167,149
53,071	-2,816	332,114	166,962
54,086	-2,788	331,896	166,869
55,101	-2,597	331,572	166,909
56,115	-2,652	331,326	166,708
57,130	-2,783	331,151	166,457
58,144	-2,654	330,812	166,417
59,159	-2,805	330,658	166,154
60,174	-2,602	330,253	166,166
61,188	-2,555	329,895	166,024
62,203	-2,673	329,857	165,856
63,217	-2,569	329,399	165,728
64,232	-2,773	329,345	165,456
65,247	-2,777	329,000	165,263
66,261	-2,644	328,839	165,318
67,276	-2,613	328,479	165,157
68,290	-2,646	328,278	165,004
69,305	-2,839	328,113	164,689
70,320	-2,609	327,682	164,717
71,334	-2,717	327,625	164,552
72,349	-2,647	327,168	164,387
73,363	-2,703	326,850	164,149
74,378	-2,819	326,686	163,923
75,393	-2,619	326,408	163,992
76,407	-2,646	326,249	163,867
77,422	-2,749	325,983	163,605
78,436	-2,710	325,600	163,441
79,451	-2,669	325,455	163,399
80,466	-2,679	325,194	163,243
81,480	-2,743	324,994	163,057
82,495	-2,508	324,570	163,090
83,509	-2,643	324,430	162,855
84,524	-2,761	324,286	162,637
85,539	-2,661	323,968	162,574
86,553	-2,718	323,783	162,404
87,568	-2,590	323,509	162,393
88,582	-2,624	323,185	162,179
89,597	-2,725	323,032	161,976
90,611	-2,575	322,842	162,032
91,626	-2,736	322,723	161,781
92,641	-2,597	322,417	161,765
93,655	-2,561	322,109	161,636
94,670	-2,633	321,874	161,425
95,684	-2,692	321,621	161,219
96,699	-2,731	321,521	161,111
97,714	-2,763	321,345	160,973
98,728	-2,495	320,918	161,039
99,743	-2,672	320,791	160,767
100,757	-2,800	320,552	160,492
101,772	-2,775	320,148	160,303
102,787	-2,773	320,042	160,238
103,801	-2,741	319,747	160,111
104,816	-2,626	319,522	160,110
105,830	-2,577	319,267	160,021
106,845	-2,563	318,947	159,862
107,860	-2,723	318,840	159,620
108,874	-2,642	318,600	159,573
109,889	-2,642	318,251	159,385
110,903	-2,743	318,046	159,158
111,918	-2,758	317,923	159,066
112,933	-2,565	317,633	159,116
113,947	-2,638	317,423	158,918
114,962	-2,498	317,278	158,983
115,976	-2,679	317,047	158,657
116,991	-2,636	316,866	158,599
118,006	-2,541	316,458	158,483
119,020	-2,776	316,465	158,218
120,035	-2,724	316,277	158,167
121,049	-2,634	315,975	158,098
122,064	-2,660	315,765	157,951
123,079	-2,615	315,571	157,888
124,093	-2,640	315,271	157,697
125,108	-2,740	315,139	157,509
126,122	-2,756	314,864	157,340
127,137	-2,682	314,605	157,277
128,151	-2,720	314,359	157,098
129,166	-2,601	314,291	157,178
130,181	-2,627	313,917	156,949
131,195	-2,768	313,685	156,668
132,210	-2,715	313,557	156,647
133,224	-2,636	313,216	156,548
134,239	-2,483	312,818	156,498
135,254	-2,641	312,850	156,331
136,268	-2,684	312,545	156,119
137,283	-2,644	312,322	156,036
138,297	-2,652	312,002	155,854
139,312	-2,785	311,859	155,627
140,327	-2,757	311,576	155,503
141,341	-2,629	311,508	155,590
142,356	-2,610	311,146	155,416
143,370	-2,480	310,931	155,432
144,385	-2,628	310,803	155,197
145,400	-2,666	310,678	155,081
146,414	-2,544	310,273	154,994
147,429	-2,625	310,070	154,793
148,443	-2,840	310,068	154,552
149,458	-2,599	309,746	154,631
150,473	-2,509	309,369	154,524
151,487	-2,631	309,333	154,364
152,502	-2,578	309,189	154,334
153,516	-2,634	308,887	154,111
154,531	-2,571	308,498	153,969
155,546	-2,710	308,472	153,797
156,560	-2,669	308,133	153,657
157,575	-2,697	307,854	153,474
158,589	-2,603	307,790	153,527
159,604	-2,478	307,423	153,462
160,619	-2,486	307,286	153,372
161,633	-2,440	307,110	153,317
162,648	-2,463	306,917	153,184
163,662	-2,577	306,761	152,973
164,677	-2,669	306,628	152,797
165,692	-2,618	306,374	152,710
166,706	-2,456	306,110	152,733
167,721	-2,416	305,890	152,652
168,735	-2,525	305,685	152,422
169,750	-2,657	305,559	152,208
170,764	-2,304	305,319	152,442
171,779	-2,541	305,064	152,056
172,794	-2,478	304,802	151,976
173,808	-2,545	304,806	151,896
174,823	-2,639	304,521	151,642
175,837	-2,534	304,341	151,648
176,852	-2,562	304,050	151,461
177,867	-2,562	303,968	151,406
178,881	-2,769	303,838	151,114
179,896	-2,404	303,411	151,265
180,910	-2,754	303,350	150,860
181,925	-2,485	303,116	151,008
182,940	-2,458	302,826	150,877
183,954	-2,585	302,707	150,674
184,969	-2,517	302,629	150,692
185,983	-2,527	302,423	150,565
186,998	-2,528	302,127	150,403
188,013	-2,528	301,792	150,223
189,027	-2,397	301,502	150,200
190,042	-2,314	301,348	150,194
191,056	-2,443	301,299	150,025
192,071	-2,604	301,035	149,716
193,086	-2,570	300,806	149,623
194,100	-2,551	300,681	149,566
195,115	-2,562	300,380	149,393
196,129	-2,583	300,247	149,292
197,144	-2,379	299,854	149,290
198,159	-2,426	299,587	149,096
199,173	-2,515	299,490	148,945
200,188	-2,541	299,231	148,776
201,202	-2,607	299,111	148,636
202,217	-2,659	298,978	148,504
203,232	-2,680	298,682	148,323
204,246	-2,576	298,313	148,231
205,261	-2,578	298,182	148,151
206,275	-2,431	298,131	148,261
207,290	-2,524	297,929	148,054
208,304	-2,398	297,513	147,960
209,319	-2,540	297,454	147,775
210,334	-2,600	297,261	147,605
211,348	-2,527	297,125	147,598
212,363	-2,464	296,884	147,529
213,377	-2,493	296,785	147,437
214,392	-2,452	296,640	147,393
215,407	-2,517	296,309	147,150
216,421	-2,597	296,155	146,980
217,436	-2,530	295,788	146,852
218,450	-2,653	295,666	146,656
219,465	-2,554	295,520	146,669
220,480	-2,598	295,531	146,617
221,494	-2,577	295,230	146,476
222,509	-2,569	295,013	146,363
223,523	-2,539	294,725	146,237
224,538	-2,463	294,648	146,262
225,553	-2,541	294,520	146,107
226,567	-2,463	294,151	145,989
227,582	-2,388	293,948	145,950
228,596	-2,299	293,896	145,999
229,611	-2,522	293,701	145,668
230,626	-2,491	293,394	145,534
231,640	-2,398	293,244	145,538
232,655	-2,756	293,032	145,065
233,669	-2,605	292,849	145,112
234,684	-2,508	292,645	145,093
235,699	-2,555	292,516	144,970
236,713	-2,432	292,271	144,957
237,728	-2,475	292,091	144,813
238,742	-2,652	291,977	144,568
239,757	-2,412	291,660	144,635
240,772	-2,565	291,490	144,387
241,786	-2,622	291,312	144,230
242,801	-2,526	291,011	144,162
243,815	-2,576	290,953	144,072
244,830	-2,654	290,722	143,868
245,844	-2,693	290,537	143,725
246,859	-2,395	290,329	143,901
247,874	-2,659	290,154	143,543
248,888	-2,651	290,024	143,474
249,903	-2,631	289,802	143,371
250,917	-2,420	289,650	143,489
251,932	-2,500	289,381	143,266
252,947	-2,637	289,131	142,995
253,961	-2,821	288,813	142,646
254,976	-2,808	288,531	142,507
255,990	-3,139	288,498	142,155
257,005	-2,668	288,631	142,667
258,020	-0,705	289,183	144,840
259,034	0,954	289,588	146,647
260,049	1,492	289,542	147,135
261,063	1,902	289,552	147,526
262,078	2,071	289,704	147,755
263,093	2,444	289,464	147,982
264,107	2,753	289,286	148,178
265,122	2,886	289,201	148,251
266,136	2,778	289,042	148,051
267,151	2,839	288,914	148,031
268,166	2,881	288,789	147,995
269,180	3,020	288,578	148,009
270,195	2,967	288,202	147,751
271,209	2,945	288,120	147,674
272,224	2,967	287,890	147,564
273,239	2,940	287,715	147,435
274,253	2,840	287,447	147,188
275,268	2,732	287,414	147,055
276,282	2,815	286,892	146,854
277,297	2,695	286,884	146,721
278,312	2,836	286,856	146,830
279,326	2,837	286,513	146,642
280,341	2,807	286,344	146,514
281,355	2,861	286,143	146,450
282,370	2,683	286,144	146,266
283,384	2,696	285,755	146,067
284,399	2,746	285,611	146,029
285,414	2,662	285,361	145,806
286,428	2,626	285,240	145,698
287,443	2,604	285,078	145,581
288,457	2,586	284,866	145,443
289,472	2,639	284,632	145,361
290,487	2,586	284,556	145,258
291,501	2,725	284,193	145,192
292,516	2,542	283,898	144,854
293,530	2,557	283,867	144,840
294,545	2,516	283,752	144,730
295,560	2,476	283,542	144,572
296,574	2,350	283,342	144,336
297,589	2,379	283,219	144,289
298,603	2,417	282,897	144,149
299,618	2,523	282,763	144,168
300,633	2,457	282,704	144,062
301,647	2,551	282,529	144,048
302,662	2,544	282,274	143,900
303,676	2,719	282,233	144,031
304,691	2,934	281,764	143,981
305,706	2,896	281,730	143,916
306,720	2,877	281,616	143,827
307,735	2,903	281,515	143,786
308,749	2,755	281,285	143,517
309,764	2,743	281,166	143,432
310,779	2,614	280,880	143,153
311,793	2,712	280,620	143,099
312,808	2,695	280,440	142,979
313,822	2,778	280,344	142,995
314,837	2,791	280,226	142,934
315,852	2,658	280,010	142,686
316,866	2,767	279,763	142,650
317,881	2,844	279,533	142,592
318,895	2,743	279,482	142,459
319,910	2,629	279,366	142,281
320,925	2,675	279,077	142,163
321,939	2,798	278,845	142,148
322,954	2,758	278,733	142,040
323,968	2,834	278,544	142,001
324,983	2,844	278,404	141,928
325,997	2,892	278,244	141,878
327,012	2,846	278,047	141,722
328,027	2,760	277,999	141,605
329,041	2,791	277,749	141,494
330,056	2,825	277,528	141,400
331,070	2,740	277,432	141,260
332,085	2,836	277,174	141,205
333,100	2,872	276,922	141,097
334,114	2,852	276,813	141,010
335,129	2,797	276,509	140,792
336,143	3,025	276,404	140,937
337,158	2,951	276,290	140,797
338,173	2,830	276,091	140,572
339,187	2,777	275,920	140,423
340,202	2,760	275,820	140,344
341,216	2,736	275,586	140,191
342,231	2,717	275,421	140,077
343,246	2,844	275,097	140,017
344,260	2,999	275,041	140,117
345,275	2,885	274,881	139,919
346,289	2,857	274,796	139,838
347,304	2,929	274,563	139,772
348,319	2,884	274,325	139,598
349,333	2,941	274,146	139,546
350,348	2,769	274,106	139,356
351,362	3,050	273,778	139,433
352,377	2,869	273,720	139,226
353,392	2,997	273,435	139,186
354,406	2,911	273,285	139,018
355,421	191,621	1349,697	1430,591
356,435	154,726	1480,951	1430,736
