DTS Sentinel unit serial number:	SN410029Multiplexer serial number:	ORYXHardware model number:	OX2-SRSoftware version number:	ORYX F/W v4,00 Oryx Data Collector v3.7.2.0data status	okinstallation	B4 Nyhavnadifferential loss correction	single-endedforward channel	channel 2reverse channel	N/Adate	2023/12/19time	02:20:13forward acquisition time	300,00reverse acquisition time	0,00gamma	499,1914k internal	0,3125k external	0,3125temperature offset calibration	1,0000default loss term (dB/km)	0,3820temperature slope calibration	1,0000multiplexer offset coefficient	1,0000multiplexer slope coefficient	1,0000fibre end	0,00T internal ref (°C)	21,31T ext. ref 1 (°C)	6,25T ext. ref 2 (°C)	6,39length (m)	temperature (°C)	Stokes	anti-Stokes-744,400	37,925	0,100	0,066
-743,385	-112,247	-0,209	0,031
-742,371	-103,160	0,084	0,015
-741,356	-39,189	-0,290	0,113
-740,342	553,711	-0,054	0,097
-739,327	-53,582	-0,284	0,096
-738,312	721,853	-0,050	-0,100
-737,298	88,654	-0,325	0,269
-736,283	800,000	0,016	0,040
-735,269	-84,897	-0,222	0,052
-734,254	502,691	0,053	-0,092
-733,239	-79,883	-0,437	-0,109
-732,225	-200,000	0,006	-0,058
-731,210	-27,296	0,096	0,042
-730,196	800,000	0,045	0,131
-729,181	365,368	0,056	0,085
-728,167	-41,282	-0,121	-0,046
-727,152	-24,126	-0,068	-0,030
-726,137	557,185	-0,064	-0,116
-725,123	-12,329	-0,050	-0,024
-724,108	-10,356	-0,062	0,031
-723,094	44,987	-0,080	-0,055
-722,079	-184,384	-0,149	-0,002
-721,064	-58,114	0,084	-0,027
-720,050	800,000	0,031	0,094
-719,035	-200,000	-0,003	-0,045
-718,021	-200,000	0,018	-0,102
-717,006	-200,000	0,016	-0,103
-715,991	175,372	-0,109	-0,118
-714,977	73,686	-0,113	-0,088
-713,962	215,568	-0,029	0,035
-712,948	169,476	0,075	-0,079
-711,933	89,507	-0,063	0,053
-710,918	-200,000	-0,016	-0,109
-709,904	-81,320	-0,038	-0,009
-708,889	530,774	0,123	-0,216
-707,875	-135,869	-0,175	0,015
-706,860	-200,000	0,013	0,172
-705,845	168,123	0,082	-0,086
-704,831	226,869	-0,039	0,047
-703,816	-143,712	-0,044	-0,003
-702,802	99,989	-0,062	0,053
-701,787	-135,175	-0,088	0,008
-700,772	-105,791	-0,083	0,014
-699,758	-200,000	0,004	0,049
-698,743	800,000	0,009	0,025
-697,729	-92,805	0,030	-0,006
-696,714	800,000	0,028	0,060
-695,699	-133,153	0,140	0,013
-694,685	639,025	-0,057	-0,108
-693,670	800,000	0,060	-0,166
-692,656	403,837	0,018	-0,029
-691,641	557,129	0,053	0,095
-690,627	-31,007	0,058	0,024
-689,612	-200,000	-0,006	0,099
-688,597	158,978	0,041	-0,043
-687,583	800,000	-0,065	-0,166
-686,568	-163,666	-0,114	-0,004
-685,554	-52,087	-0,141	0,048
-684,539	-20,808	0,169	0,077
-683,524	83,297	-0,030	0,024
-682,510	183,788	-0,044	-0,048
-681,495	311,719	-0,081	-0,114
-680,481	-200,000	-0,028	0,103
-679,466	163,638	0,089	-0,093
-678,451	-28,382	-0,074	0,032
-677,437	-79,690	0,033	0,008
-676,422	-143,741	0,132	0,009
-675,408	180,941	-0,098	0,107
-674,393	-200,000	0,005	-0,018
-673,378	-200,000	0,005	0,087
-672,364	232,147	-0,072	-0,088
-671,349	-200,000	0,011	0,130
-670,335	-200,000	0,013	0,131
-669,320	-26,480	0,049	0,021
-668,305	244,404	0,069	0,087
-667,291	16,107	0,106	0,062
-666,276	19,645	0,126	-0,075
-665,262	-200,000	-0,038	-0,126
-664,247	281,885	-0,109	-0,145
-663,232	115,754	0,058	-0,052
-662,218	-200,000	0,020	0,131
-661,203	-138,370	0,080	0,006
-660,189	-32,835	0,080	-0,033
-659,174	-200,000	-0,060	-0,200
-658,159	49,958	-0,146	0,102
-657,145	241,998	0,071	-0,089
-656,130	-156,941	-0,052	0,002
-655,116	31,341	0,070	-0,045
-654,101	-121,741	-0,015	0,002
-653,086	19,267	0,091	-0,054
-652,072	800,000	-0,056	-0,115
-651,057	-51,590	-0,092	0,032
-650,043	-52,357	-0,031	-0,011
-649,028	-46,042	-0,098	0,036
-648,014	235,670	0,050	-0,061
-646,999	-200,000	-0,017	0,124
-645,984	800,000	-0,063	0,154
-644,970	800,000	0,042	-0,107
-643,955	800,000	0,021	-0,047
-642,941	-31,221	-0,075	-0,031
-641,926	45,572	0,081	-0,055
-640,911	-200,000	-0,018	0,069
-639,897	-91,552	-0,109	0,023
-638,882	800,000	-0,025	0,079
-637,868	800,000	-0,012	0,029
-636,853	66,054	-0,161	-0,121
-635,838	-24,184	-0,129	0,057
-634,824	-200,000	-0,010	-0,035
-633,809	-200,000	-0,012	-0,086
-632,795	347,628	0,078	0,114
-631,780	800,000	-0,020	0,058
-630,765	-173,443	0,121	0,003
-629,751	-46,170	-0,122	-0,044
-628,736	-74,225	-0,136	0,036
-627,722	59,696	0,116	-0,085
-626,707	800,000	0,042	-0,099
-625,692	88,888	-0,061	0,050
-624,678	-106,146	-0,163	0,027
-623,663	-200,000	-0,006	-0,062
-622,649	-106,805	0,052	-0,008
-621,634	800,000	0,005	0,012
-620,619	-148,641	-0,087	0,005
-619,605	-96,974	-0,035	0,007
-618,590	-200,000	-0,005	-0,101
-617,576	349,613	0,016	-0,023
-616,561	-25,573	-0,063	-0,027
-615,546	149,513	0,140	-0,140
-614,532	290,533	-0,124	-0,168
-613,517	197,529	0,079	0,089
-612,503	341,542	-0,030	0,043
-611,488	274,489	0,096	-0,126
-610,474	169,896	-0,037	0,040
-609,459	21,313	0,092	-0,056
-608,444	800,000	0,032	0,075
-607,430	51,820	-0,234	-0,165
-606,415	-159,201	-0,054	0,002
-605,401	-34,262	0,098	-0,040
-604,386	-200,000	0,004	-0,042
-603,371	64,810	-0,037	0,028
-602,357	-200,000	0,005	0,039
-601,342	-200,000	0,000	0,007
-600,328	45,449	-0,134	0,091
-599,313	44,681	-0,176	-0,120
-598,298	-200,000	0,010	0,078
-597,284	637,999	0,046	0,088
-596,269	-200,000	-0,020	-0,108
-595,255	158,813	-0,084	0,086
-594,240	253,639	0,038	0,048
-593,225	-36,475	-0,207	-0,082
-592,211	-29,649	0,150	-0,063
-591,196	-200,000	-0,014	0,078
-590,182	-151,907	0,098	-0,005
-589,167	22,113	-0,137	0,083
-588,152	-200,000	-0,045	0,148
-587,138	449,686	0,069	0,113
-586,123	-200,000	-0,009	-0,061
-585,109	-65,193	-0,070	0,021
-584,094	-120,729	-0,075	0,009
-583,079	-61,447	0,051	-0,016
-582,065	800,000	-0,043	-0,122
-581,050	644,354	0,067	0,127
-580,036	82,458	0,066	0,053
-579,021	800,000	-0,030	0,083
-578,006	-83,332	-0,079	0,019
-576,992	-135,132	0,053	0,005
-575,977	-123,408	-0,090	0,011
-574,963	800,000	-0,057	0,164
-573,948	44,710	0,096	0,065
-572,934	32,386	-0,024	-0,015
-571,919	198,074	-0,019	0,021
-570,904	-200,000	0,043	-0,174
-569,890	120,841	0,114	-0,105
-568,875	62,146	0,143	0,106
-567,861	-200,000	0,005	0,114
-566,846	-200,000	-0,026	0,114
-565,831	410,038	0,094	-0,148
-564,817	-58,997	0,103	-0,033
-563,802	172,732	-0,071	-0,076
-562,788	800,000	0,070	-0,146
-561,773	-200,000	-0,027	0,178
-560,758	503,356	0,028	0,048
-559,744	718,631	0,026	-0,051
-558,729	-200,000	-0,014	-0,177
-557,715	-67,497	-0,020	-0,006
-556,700	-200,000	0,000	-0,098
-555,685	-200,000	0,034	-0,141
-554,671	-61,769	0,060	0,018
-553,656	800,000	0,086	0,199
-552,642	800,000	0,026	-0,084
-551,627	-160,134	-0,141	-0,006
-550,612	-200,000	0,013	-0,055
-549,598	-200,000	-0,019	-0,190
-548,583	-135,346	0,156	0,014
-547,569	73,364	-0,072	0,056
-546,554	239,373	0,065	-0,080
-545,539	104,257	-0,082	0,071
-544,525	-115,335	0,107	0,015
-543,510	-200,000	0,018	-0,213
-542,496	-200,000	-0,030	-0,151
-541,481	94,782	0,146	-0,123
-540,466	428,055	-0,063	-0,101
-539,452	328,489	0,030	-0,043
-538,437	-99,989	0,125	-0,023
-537,423	800,000	0,002	-0,008
-536,408	295,289	-0,079	0,107
-535,393	-200,000	0,030	-0,187
-534,379	800,000	-0,047	-0,135
-533,364	218,546	0,061	-0,072
-532,350	376,205	-0,046	-0,069
-531,335	-200,000	0,020	0,096
-530,321	-200,000	0,000	-0,051
-529,306	106,503	0,077	-0,068
-528,291	200,333	0,064	-0,073
-527,277	347,285	-0,091	-0,133
-526,262	-200,000	0,015	-0,125
-525,248	-117,151	-0,107	-0,014
-524,233	-116,899	0,096	-0,013
-523,218	199,047	0,091	0,103
-522,204	336,739	-0,050	-0,072
-521,189	800,000	0,044	0,102
-520,175	-200,000	-0,027	-0,103
-519,160	800,000	0,024	0,064
-518,145	635,923	0,047	0,088
-517,131	13,574	0,090	-0,051
-516,116	-198,537	0,152	0,001
-515,102	-200,000	-0,005	-0,122
-514,087	-100,381	0,092	0,017
-513,072	111,467	0,103	-0,092
-512,058	-200,000	-0,013	-0,128
-511,043	61,582	-0,037	0,027
-510,029	83,787	0,058	-0,047
-509,014	-31,318	-0,039	0,016
-507,999	-52,687	0,053	0,018
-506,985	54,202	-0,104	-0,074
-505,970	-200,000	0,025	-0,145
-504,956	800,000	-0,027	-0,084
-503,941	-117,731	-0,080	0,010
-502,926	2,684	-0,077	0,041
-501,912	-78,946	0,167	0,042
-500,897	267,036	-0,019	0,024
-499,883	238,739	-0,057	-0,071
-498,868	51,666	0,027	-0,019
-497,853	19,693	-0,050	0,030
-496,839	-74,991	-0,032	0,008
-495,824	-56,727	-0,088	0,028
-494,810	137,676	0,087	-0,084
-493,795	-200,000	0,008	0,057
-492,781	109,558	-0,026	0,023
-491,766	-95,047	-0,036	0,007
-490,751	19,930	-0,085	-0,050
-489,737	431,370	-0,036	0,058
-488,722	800,000	-0,055	0,153
-487,708	800,000	0,040	0,096
-486,693	-200,000	-0,051	0,182
-485,678	-52,211	-0,115	0,039
-484,664	22,927	-0,119	-0,072
-483,649	344,891	0,033	0,048
-482,635	-81,831	-0,063	0,015
-481,620	-52,786	0,153	-0,052
-480,605	-200,000	-0,013	0,048
-479,591	-74,353	-0,061	-0,016
-478,576	-62,752	-0,042	-0,013
-477,562	-200,000	0,000	-0,188
-476,547	135,927	-0,015	-0,014
-475,532	-200,000	-0,012	0,085
-474,518	215,288	0,049	0,057
-473,503	87,321	0,066	0,054
-472,489	-12,839	0,065	0,031
-471,474	32,774	0,085	0,054
-470,459	-200,000	0,014	0,054
-469,445	-200,000	0,000	-0,099
-468,430	800,000	0,052	-0,109
-467,416	34,473	-0,060	-0,038
-466,401	800,000	0,045	0,098
-465,386	176,230	-0,060	-0,064
-464,372	-200,000	-0,024	0,086
-463,357	589,818	0,025	0,045
-462,343	368,565	0,075	0,112
-461,328	-119,265	-0,084	0,011
-460,313	-200,000	-0,041	0,171
-459,299	421,824	0,099	0,158
-458,284	-200,000	-0,005	0,018
-457,270	-200,000	-0,004	-0,050
-456,255	-34,332	-0,115	0,046
-455,241	-31,003	-0,078	-0,032
-454,226	-200,000	-0,003	-0,102
-453,211	-35,077	-0,180	0,072
-452,197	-128,180	0,087	-0,009
-451,182	800,000	0,040	0,086
-450,168	800,000	-0,003	0,010
-449,153	157,984	-0,023	-0,024
-448,138	-200,000	0,008	-0,090
-447,124	-200,000	-0,016	-0,184
-446,109	28,834	-0,149	-0,093
-445,095	-51,081	0,121	0,042
-444,080	-200,000	0,026	-0,099
-443,065	800,000	0,056	-0,124
-442,051	-30,620	-0,138	-0,057
-441,036	-200,000	0,023	-0,090
-440,022	-200,000	-0,019	0,063
-439,007	321,841	0,048	-0,068
-437,992	-70,041	0,104	-0,029
-436,978	-64,049	0,077	0,023
-435,963	143,709	-0,006	0,006
-434,949	-82,760	-0,173	0,041
-433,934	156,317	-0,136	-0,139
-432,919	322,131	-0,051	-0,072
-431,905	-200,000	0,008	0,121
-430,890	-200,000	-0,025	-0,140
-429,876	-200,000	0,032	-0,141
-428,861	45,832	-0,149	0,101
-427,846	-21,523	0,141	0,063
-426,832	800,000	0,036	-0,081
-425,817	243,130	-0,088	0,109
-424,803	-200,000	-0,047	-0,211
-423,788	124,290	-0,140	-0,130
-422,773	187,445	0,075	0,082
-421,759	71,885	-0,074	-0,057
-420,744	241,551	0,027	0,034
-419,730	220,951	-0,062	-0,074
-418,715	-100,939	0,042	-0,007
-417,701	328,321	0,072	0,102
-416,686	595,529	0,063	-0,115
-415,671	-200,000	-0,001	0,174
-414,657	127,882	-0,116	-0,108
-413,642	-66,295	0,080	0,023
-412,628	-200,000	0,034	0,157
-411,613	20,146	-0,116	-0,069
-410,598	-200,000	0,021	0,073
-409,584	-38,928	-0,053	0,021
-408,569	-200,000	0,017	0,000
-407,555	800,000	0,016	0,048
-406,540	157,803	-0,048	-0,049
-405,525	-145,623	-0,072	-0,005
-404,511	41,986	-0,116	-0,077
-403,496	-6,056	0,100	-0,050
-402,482	712,284	0,046	0,090
-401,467	269,452	0,075	0,097
-400,452	-139,600	-0,083	0,006
-399,438	63,604	-0,032	0,024
-398,423	47,987	0,027	0,019
-397,409	-157,962	0,093	0,004
-396,394	-24,604	-0,152	0,066
-395,379	80,163	0,071	-0,056
-394,365	-27,089	0,107	0,046
-393,350	-200,000	0,012	0,087
-392,336	-200,000	0,009	0,074
-391,321	-200,000	-0,007	-0,068
-390,306	326,474	-0,046	0,065
-389,292	800,000	-0,022	-0,068
-388,277	-56,500	-0,159	0,051
-387,263	292,779	0,114	0,153
-386,248	351,501	-0,039	0,057
-385,233	-168,648	-0,034	0,001
-384,219	41,443	0,054	-0,036
-383,204	-97,587	-0,024	0,005
-382,190	-200,000	0,013	-0,064
-381,175	-200,000	-0,025	-0,100
-380,160	298,331	-0,014	-0,019
-379,146	0,126	0,103	0,054
-378,131	800,000	-0,052	-0,118
-377,117	-167,603	-0,059	0,002
-376,102	20,818	0,061	0,036
-375,088	800,000	0,055	-0,133
-374,073	465,888	0,014	0,023
-373,058	68,577	-0,051	-0,038
-372,044	-200,000	0,024	-0,080
-371,029	-17,232	0,177	0,082
-370,015	-160,211	0,095	-0,004
-369,000	-200,000	-0,013	-0,044
-367,985	113,401	-0,044	0,039
-366,971	269,295	-0,069	-0,089
-365,956	25,641	-0,099	-0,060
-364,942	800,000	0,038	0,103
-363,927	-71,649	0,138	-0,037
-362,912	-105,468	-0,114	0,019
-361,898	38,004	-0,093	-0,061
-360,883	352,237	-0,050	-0,073
-359,869	800,000	0,029	-0,066
-358,854	800,000	0,037	-0,096
-357,839	707,756	0,070	0,137
-356,825	92,094	-0,046	0,038
-355,810	800,000	0,036	0,073
-354,796	-166,815	-0,089	-0,003
-353,781	800,000	0,032	0,072
-352,766	800,000	0,008	-0,022
-351,752	-43,088	0,155	0,057
-350,737	64,308	0,117	0,086
-349,723	-164,558	0,125	0,004
-348,708	-129,523	-0,100	-0,010
-347,693	-200,000	0,008	-0,082
-346,679	-136,903	0,023	-0,002
-345,664	-85,263	0,023	0,005
-344,650	-66,426	-0,102	0,030
-343,635	265,477	-0,075	-0,097
-342,620	726,471	0,044	-0,087
-341,606	11,751	0,089	0,050
-340,591	-200,000	0,000	-0,113
-339,577	-103,066	-0,119	0,020
-338,562	183,679	0,079	0,085
-337,548	800,000	-0,020	0,042
-336,533	327,012	0,090	0,126
-335,518	800,000	-0,047	0,105
-334,504	663,076	0,085	0,161
-333,489	24,987	0,041	-0,025
-332,475	-75,535	-0,018	-0,005
-331,460	-30,164	-0,103	-0,043
-330,445	-62,762	-0,128	-0,039
-329,431	-200,000	0,004	-0,053
-328,416	241,885	0,074	0,091
-327,402	-200,000	-0,006	0,036
-326,387	-60,679	0,037	0,012
-325,372	-104,886	-0,151	-0,025
-324,358	-177,529	-0,140	0,002
-323,343	-200,000	-0,017	0,132
-322,329	-200,000	-0,023	0,132
-321,314	-174,302	-0,028	-0,001
-320,299	800,000	0,021	0,052
-319,285	-200,000	-0,010	-0,036
-318,270	-162,893	-0,058	0,002
-317,256	-200,000	-0,012	0,097
-316,241	-200,000	-0,031	0,149
-315,226	151,182	0,087	-0,087
-314,212	-200,000	0,016	0,107
-313,197	493,841	0,066	0,112
-312,183	-200,000	0,007	0,054
-311,168	800,000	-0,037	0,098
-310,153	161,936	-0,039	-0,040
-309,139	100,855	-0,077	0,065
-308,124	81,558	0,059	0,047
-307,110	29,422	-0,090	0,056
-306,095	-149,583	0,139	-0,008
-305,080	-200,000	-0,004	-0,111
-304,066	489,293	0,090	0,152
-303,051	785,268	-0,064	0,129
-302,037	108,312	0,037	-0,033
-301,022	202,856	0,085	-0,096
-300,008	-98,103	-0,009	0,002
-298,993	451,734	-0,072	0,117
-297,978	-119,777	-0,090	0,011
-296,964	-102,331	-0,100	0,017
-295,949	-200,000	-0,001	0,093
-294,935	-200,000	0,034	-0,152
-293,920	-38,832	-0,068	-0,026
-292,905	-101,057	0,160	0,028
-291,891	-60,335	0,152	0,047
-290,876	-200,000	0,026	0,086
-289,862	-47,685	-0,114	-0,040
-288,847	-131,089	-0,105	0,010
-287,832	-200,000	-0,030	-0,128
-286,818	800,000	0,032	0,072
-285,803	193,784	0,017	-0,019
-284,789	108,587	0,060	0,053
-283,774	-200,000	-0,001	0,125
-282,759	-200,000	-0,014	-0,064
-281,745	-85,983	-0,130	0,029
-280,730	42,645	0,094	-0,063
-279,716	-17,428	-0,068	0,031
-278,701	26,613	0,187	-0,114
-277,686	-200,000	-0,019	0,081
-276,672	800,000	0,054	0,145
-275,657	178,874	-0,081	0,087
-274,643	30,333	-0,068	0,042
-273,628	-200,000	-0,003	-0,085
-272,613	800,000	0,033	-0,070
-271,599	569,408	0,078	-0,139
-270,584	32,399	-0,056	-0,035
-269,570	-12,156	0,090	-0,043
-268,555	719,778	-0,077	0,151
-267,540	730,442	-0,059	-0,116
-266,526	127,496	-0,035	0,032
-265,511	-26,824	0,086	-0,037
-264,497	800,000	-0,015	0,033
-263,482	32,662	-0,033	-0,021
-262,467	-72,957	0,093	0,025
-261,453	-130,613	-0,083	-0,008
-260,438	-200,000	-0,007	-0,133
-259,424	-63,470	0,034	0,010
-258,409	714,582	-0,028	0,054
-257,395	-13,725	0,058	0,027
-256,380	-84,721	0,038	-0,009
-255,365	479,751	0,042	-0,069
-254,351	66,850	-0,122	0,091
-253,336	800,000	0,022	0,052
-252,322	-106,131	-0,140	-0,023
-251,307	-200,000	-0,002	0,075
-250,292	227,500	-0,067	0,080
-249,278	-35,530	0,188	0,074
-248,263	-200,000	0,008	-0,081
-247,249	206,307	0,059	0,068
-246,234	133,046	0,042	-0,040
-245,219	147,200	0,046	-0,045
-244,205	-200,000	0,002	-0,106
-243,190	-200,000	0,003	-0,054
-242,176	800,000	0,043	0,121
-241,161	800,000	0,032	0,091
-240,146	168,859	0,087	0,091
-239,132	-200,000	0,022	-0,075
-238,117	-100,699	-0,086	-0,015
-237,103	29,679	0,090	-0,056
-236,088	800,000	0,021	-0,047
-235,073	-200,000	0,015	0,209
-234,059	-36,342	0,073	-0,029
-233,044	246,489	0,032	0,039
-232,030	-102,276	-0,084	0,015
-231,015	165,743	-0,072	-0,075
-230,000	77,408	-0,175	0,136
-228,986	-200,000	-0,034	-0,127
-227,971	96,131	0,097	0,081
-226,957	55,256	0,150	0,105
-225,942	640,278	0,069	0,129
-224,927	257,839	-0,118	0,148
-223,913	-200,000	-0,028	-0,093
-222,898	36,491	-0,055	-0,035
-221,884	2,070	0,083	0,044
-220,869	267,582	0,031	-0,040
-219,855	15,518	-0,109	0,062
-218,840	-107,932	0,053	0,008
-217,825	800,000	-0,057	-0,136
-216,811	-95,522	0,068	0,013
-215,796	67,460	-0,057	0,042
-214,782	-117,744	-0,100	0,013
-213,767	297,476	-0,058	-0,078
-212,752	141,362	0,051	-0,049
-211,738	-37,137	-0,129	0,050
-210,723	-200,000	-0,003	-0,064
-209,709	800,000	0,017	0,036
-208,694	800,000	-0,039	-0,095
-207,679	-38,250	0,083	-0,032
-206,665	800,000	-0,022	-0,068
-205,650	12,941	0,128	0,072
-204,636	-108,740	0,089	0,014
-203,621	-200,000	-0,001	0,053
-202,606	-134,348	0,100	0,009
-201,592	-97,455	0,096	-0,018
-200,577	800,000	0,050	-0,119
-199,563	-200,000	0,015	0,144
-198,548	-8,808	0,165	0,080
-197,533	-200,000	0,033	-0,134
-196,519	407,776	0,028	0,043
-195,504	463,112	-0,064	-0,105
-194,490	800,000	-0,046	-0,141
-193,475	31,175	0,036	0,023
-192,460	-200,000	0,030	0,159
-191,446	-200,000	-0,002	0,067
-190,431	34,412	0,093	0,059
-189,417	-19,339	0,037	0,017
-188,402	537,058	0,061	-0,106
-187,387	624,114	0,080	-0,147
-186,373	182,513	-0,041	-0,044
-185,358	-200,000	0,015	0,064
-184,344	96,026	0,056	0,047
-183,329	392,579	-0,078	0,118
-182,315	333,603	0,051	-0,072
-181,300	-85,924	0,014	0,003
-180,285	-23,962	-0,080	0,035
-179,271	800,000	-0,003	0,007
-178,256	523,069	0,062	-0,106
-177,242	-96,749	0,179	0,034
-176,227	51,947	0,042	0,029
-175,212	488,604	-0,118	0,197
-174,198	800,000	0,041	-0,098
-173,183	246,682	0,032	-0,040
-172,169	-157,083	-0,061	0,003
-171,154	-200,000	0,016	-0,079
-170,139	-62,781	-0,068	-0,020
-169,125	629,691	-0,031	-0,057
-168,110	28,985	-0,069	0,042
-167,096	-128,918	-0,092	-0,009
-166,081	27,899	0,149	-0,091
-165,066	385,689	-0,031	0,047
-164,052	-22,694	-0,050	0,022
-163,037	125,778	0,097	0,089
-162,023	800,000	0,027	0,071
-161,008	287,095	-0,037	0,049
-159,993	-200,000	0,019	-0,081
-158,979	285,813	-0,109	0,143
-157,964	115,685	-0,093	0,083
-156,950	-18,076	-0,030	-0,013
-155,935	-4,168	0,161	-0,081
-154,920	-15,393	0,190	0,088
-153,906	202,076	-0,047	-0,052
-152,891	-51,941	-0,095	0,032
-151,877	-200,000	0,001	-0,058
-150,862	19,807	0,069	0,040
-149,847	156,175	0,030	0,030
-148,833	417,744	0,052	-0,081
-147,818	-63,773	0,084	0,025
-146,804	-27,419	0,082	-0,034
-145,789	-51,311	-0,124	0,042
-144,775	132,063	-0,017	0,016
-143,760	149,817	0,064	0,063
-142,745	-88,985	-0,090	0,019
-141,731	-172,894	-0,032	0,001
-140,716	6,396	0,140	-0,075
-139,702	214,265	-0,122	0,140
-138,687	504,274	0,048	0,081
-137,672	-200,000	0,022	0,093
-136,658	69,062	0,019	0,014
-135,643	8,667	0,056	-0,031
-134,629	634,764	-0,063	0,117
-133,614	-142,353	0,097	0,007
-132,599	-117,598	0,072	-0,009
-131,585	133,352	0,014	-0,014
-130,570	-200,000	-0,026	0,162
-129,556	-93,783	-0,090	-0,018
-128,541	800,000	0,049	-0,104
-127,526	291,179	0,059	0,078
-126,512	25,995	-0,076	0,046
-125,497	136,197	0,021	-0,020
-124,483	-200,000	-0,021	0,108
-123,468	-144,193	0,064	0,004
-122,453	-132,006	0,029	0,003
-121,439	-21,938	-0,084	-0,037
-120,424	755,779	0,045	0,089
-119,410	-28,963	-0,127	-0,053
-118,395	780,463	0,069	0,138
-117,380	-17,417	0,093	0,042
-116,366	-149,491	0,077	-0,004
-115,351	141,773	0,068	-0,066
-114,337	83,756	0,125	-0,099
-113,322	-57,297	-0,043	0,014
-112,307	-61,521	0,068	-0,021
-111,293	-48,960	0,075	-0,026
-110,278	-45,920	-0,093	0,033
-109,264	314,202	-0,062	0,085
-108,249	-55,168	-0,088	0,029
-107,234	725,120	-0,043	0,085
-106,220	800,000	0,015	-0,041
-105,205	-200,000	0,012	0,198
-104,191	-86,474	0,148	-0,033
-103,176	-200,000	-0,006	0,113
-102,162	-200,000	0,019	0,091
-101,147	-99,141	-0,096	-0,018
-100,132	381,071	0,100	-0,150
-99,118	-60,429	-0,102	0,031
-98,103	800,000	0,058	0,146
-97,089	274,049	0,137	0,176
-96,074	800,000	-0,015	0,041
-95,059	800,000	-0,037	-0,098
-94,045	-200,000	-0,014	0,204
-93,030	354,740	-0,054	-0,079
-92,016	800,000	-0,038	-0,099
-91,001	-29,551	0,093	0,039
-89,986	308,059	-0,024	0,032
-88,972	-200,000	0,003	-0,041
-87,957	-135,611	0,049	-0,004
-86,943	49,370	0,045	0,031
-85,928	197,617	0,010	0,011
-84,913	101,139	-0,101	-0,085
-83,899	-18,369	-0,028	0,013
-82,884	800,000	-0,028	0,061
-81,870	120,321	0,067	0,061
-80,855	-200,000	0,014	0,087
-79,840	800,000	-0,051	-0,112
-78,826	-141,747	0,010	0,001
-77,811	-200,000	0,032	-0,131
-76,797	-34,081	0,124	0,049
-75,782	220,290	0,036	0,042
-74,767	-200,000	0,059	0,199
-73,753	-65,106	-0,143	0,042
-72,738	230,306	0,029	-0,034
-71,724	126,426	-0,069	-0,064
-70,709	-200,000	-0,006	-0,060
-69,694	-34,458	-0,075	0,030
-68,680	214,917	0,113	0,130
-67,665	-200,000	-0,005	0,095
-66,651	76,730	-0,067	-0,052
-65,636	-128,874	0,043	-0,004
-64,622	-200,000	-0,007	-0,087
-63,607	800,000	-0,024	-0,070
-62,592	-200,000	-0,001	-0,049
-61,578	88,693	-0,130	-0,105
-60,563	782,532	-0,021	0,041
-59,549	-20,302	-0,070	0,031
-58,534	-137,577	-1,339	-0,108
-57,519	507,336	-0,903	-1,526
-56,505	-200,000	-0,979	-4,414
-55,490	-57,048	0,588	-0,187
-54,476	800,000	5,161	11,743
-53,461	-200,000	14,463	260,008
-52,446	-200,000	695,742	2274,771
-51,432	602,664	1622,667	2937,919
-50,417	117,273	1631,558	1454,279
-49,403	74,523	1285,481	979,074
-48,388	37,070	1022,889	655,054
-47,373	23,480	981,741	583,997
-46,359	22,686	971,136	575,065
-45,344	21,585	966,596	568,755
-44,330	21,524	965,092	567,649
-43,315	21,422	963,783	566,525
-42,300	21,342	962,596	565,545
-41,286	21,340	961,654	564,961
-40,271	21,350	960,606	564,356
-39,257	21,324	959,717	563,728
-38,242	21,286	958,813	563,051
-37,227	21,369	957,829	562,717
-36,213	21,283	957,041	561,955
-35,198	21,340	955,918	561,459
-34,184	21,386	955,479	561,326
-33,169	21,337	954,518	560,582
-32,154	21,367	953,790	560,229
-31,140	21,334	952,869	559,560
-30,125	21,354	952,273	559,252
-29,111	21,400	951,078	558,674
-28,096	21,330	950,447	558,058
-27,082	21,358	949,767	557,726
-26,067	21,362	949,051	557,295
-25,052	21,344	948,237	556,739
-24,038	21,347	947,668	556,390
-23,023	21,341	947,192	556,070
-22,009	21,344	946,553	555,684
-20,994	21,374	945,767	555,297
-19,979	21,294	945,238	554,706
-18,965	21,334	944,589	554,432
-17,950	21,410	943,866	554,227
-16,936	21,347	943,091	553,549
-15,921	21,326	942,447	553,084
-14,906	21,225	941,923	552,433
-13,892	21,214	941,173	551,937
-12,877	21,159	940,596	551,402
-11,863	21,205	940,048	551,205
-10,848	21,201	939,417	550,798
-9,833	21,322	939,011	550,922
-8,819	21,301	938,318	550,430
-7,804	21,231	937,857	549,913
-6,790	21,213	937,162	549,427
-5,775	21,308	936,559	549,352
-4,760	21,266	935,974	548,855
-3,746	21,146	935,429	548,136
-2,731	21,044	934,512	547,253
-1,717	21,042	933,882	546,856
-0,702	21,040	933,205	546,432
0,313	20,858	932,545	546,297
1,327	23,374	930,132	552,740
2,342	30,916	807,737	500,429
3,356	25,724	508,304	306,036
4,371	1,366	373,878	194,078
5,386	-1,538	356,792	181,627
6,400	-2,816	350,703	176,967
7,415	-3,603	348,223	174,755
8,429	-3,492	346,765	174,140
9,444	-3,542	345,710	173,535
10,459	-3,465	345,120	173,315
11,473	-3,530	344,407	172,865
12,488	-3,507	343,882	172,613
13,502	-3,507	343,459	172,385
14,517	-3,588	342,903	171,995
15,531	-3,604	342,488	171,753
16,546	-3,422	342,118	171,767
17,561	-3,430	341,656	171,510
18,575	-3,454	341,220	171,248
19,590	-3,405	340,931	171,144
20,604	-3,221	340,531	171,144
21,619	-3,375	340,011	170,688
22,634	-3,391	339,728	170,511
23,648	-3,395	339,430	170,342
24,663	-3,434	339,156	170,144
25,677	-3,488	338,816	169,895
26,692	-3,366	338,492	169,860
27,707	-3,351	338,246	169,738
28,721	-3,325	337,857	169,558
29,736	-3,379	337,458	169,281
30,750	-3,384	337,265	169,162
31,765	-3,339	336,966	169,050
32,780	-3,335	336,700	168,906
33,794	-3,332	336,397	168,742
34,809	-3,488	336,290	168,493
35,823	-3,455	335,860	168,301
36,838	-3,390	335,441	168,151
37,853	-3,349	335,285	168,105
38,867	-3,425	334,951	167,835
39,882	-3,425	334,772	167,730
40,896	-3,397	334,466	167,594
41,911	-3,258	334,278	167,644
42,926	-3,367	333,812	167,271
43,940	-3,394	333,620	167,129
44,955	-3,293	333,334	167,087
45,969	-3,318	333,178	166,964
46,984	-3,392	332,975	166,764
47,999	-3,393	332,776	166,648
49,013	-3,531	332,505	166,339
50,028	-3,459	332,300	166,304
51,042	-3,369	331,922	166,203
52,057	-3,526	331,759	165,928
53,071	-3,307	331,442	166,004
54,086	-3,447	331,140	165,679
55,101	-3,384	330,902	165,616
56,115	-3,383	330,785	165,544
57,130	-3,385	330,437	165,353
58,144	-3,287	329,864	165,162
59,159	-3,420	329,722	164,927
60,174	-3,493	329,570	164,752
61,188	-3,308	329,225	164,774
62,203	-3,435	328,906	164,456
63,217	-3,410	328,674	164,354
64,232	-3,452	328,508	164,210
65,247	-3,443	328,131	164,016
66,261	-3,375	328,024	164,025
67,276	-3,417	327,705	163,803
68,290	-3,489	327,466	163,588
69,305	-3,437	327,253	163,526
70,320	-3,390	326,977	163,426
71,334	-3,161	326,626	163,493
72,349	-3,486	326,464	163,032
73,363	-3,350	326,031	162,955
74,378	-3,408	325,837	162,778
75,393	-3,471	325,757	162,653
76,407	-3,290	325,577	162,751
77,422	-3,282	325,210	162,562
78,436	-3,349	324,941	162,338
79,451	-3,231	324,624	162,297
80,466	-3,497	324,592	161,970
81,480	-3,530	324,320	161,783
82,495	-3,373	323,903	161,735
83,509	-3,334	323,805	161,715
84,524	-3,188	323,483	161,702
85,539	-3,166	323,211	161,575
86,553	-3,344	323,207	161,362
87,568	-3,466	322,961	161,090
88,582	-3,360	322,523	160,974
89,597	-3,498	322,551	160,822
90,611	-3,428	322,078	160,649
91,626	-3,323	321,860	160,641
92,641	-3,258	321,562	160,549
93,655	-3,463	321,355	160,206
94,670	-3,434	321,030	160,061
95,684	-3,418	320,948	160,024
96,699	-3,309	320,698	160,005
97,714	-3,409	320,381	159,724
98,728	-3,414	320,246	159,636
99,743	-3,287	319,961	159,619
100,757	-3,334	319,803	159,474
101,772	-3,369	319,531	159,286
102,787	-3,187	319,117	159,264
103,801	-3,345	318,988	159,013
104,816	-3,441	318,752	158,777
105,830	-3,443	318,596	158,683
106,845	-3,291	318,264	158,669
107,860	-3,411	318,077	158,430
108,874	-3,404	317,905	158,339
109,889	-3,503	317,643	158,087
110,903	-3,413	317,404	158,052
111,918	-3,306	317,058	157,981
112,933	-3,365	316,892	157,820
113,947	-3,292	316,738	157,808
114,962	-3,385	316,604	157,627
115,976	-3,353	316,287	157,490
116,991	-3,386	315,958	157,276
118,006	-3,453	315,823	157,123
119,020	-3,286	315,648	157,201
120,035	-3,306	315,489	157,086
121,049	-3,348	315,183	156,874
122,064	-3,360	315,031	156,772
123,079	-3,239	314,680	156,714
124,093	-3,394	314,464	156,426
125,108	-3,320	314,328	156,424
126,122	-3,303	314,151	156,340
127,137	-3,298	314,003	156,258
128,151	-3,328	313,576	155,999
129,166	-3,230	313,305	155,955
130,181	-3,489	313,267	155,646
131,195	-3,224	312,833	155,699
132,210	-3,249	312,740	155,612
133,224	-3,454	312,420	155,221
134,239	-3,329	312,171	155,216
135,254	-3,259	311,977	155,180
136,268	-3,311	311,858	155,052
137,283	-3,247	311,578	154,967
138,297	-3,263	311,306	154,801
139,312	-3,297	311,070	154,634
140,327	-3,337	310,889	154,487
141,341	-3,238	310,660	154,465
142,356	-3,418	310,513	154,187
143,370	-3,390	310,203	154,049
144,385	-3,296	309,907	153,988
145,400	-3,214	309,689	153,952
146,414	-3,351	309,576	153,738
147,429	-3,126	309,235	153,791
148,443	-3,164	308,990	153,617
149,458	-3,178	308,907	153,546
150,473	-3,322	308,721	153,288
151,487	-3,333	308,523	153,165
152,502	-3,274	308,278	153,092
153,516	-3,099	307,942	153,094
154,531	-3,372	307,819	152,735
155,546	-3,285	307,605	152,705
156,560	-3,382	307,336	152,457
157,575	-3,194	307,161	152,553
158,589	-3,263	306,793	152,284
159,604	-3,236	306,595	152,200
160,619	-3,382	306,442	151,959
161,633	-3,280	306,522	152,092
162,648	-3,239	306,249	151,985
163,662	-3,162	305,943	151,900
164,677	-3,201	305,755	151,752
165,692	-3,390	305,524	151,428
166,706	-3,237	305,179	151,402
167,721	-3,258	305,114	151,335
168,735	-3,362	304,943	151,128
169,750	-3,475	305,069	151,060
170,764	-3,412	304,701	150,929
171,779	-3,244	304,387	150,935
172,794	-3,192	304,205	150,884
173,808	-3,317	304,045	150,663
174,823	-3,277	303,623	150,481
175,837	-3,312	303,442	150,343
176,852	-3,230	303,303	150,345
177,867	-3,348	303,180	150,149
178,881	-3,424	303,028	149,982
179,896	-3,175	302,778	150,100
180,910	-3,259	302,504	149,865
181,925	-3,245	302,365	149,798
182,940	-3,315	302,130	149,596
183,954	-3,298	301,863	149,468
184,969	-3,395	301,792	149,320
185,983	-3,330	301,592	149,274
186,998	-3,201	301,290	149,243
188,013	-3,332	301,164	149,034
189,027	-3,238	300,885	148,978
190,042	-3,013	300,550	149,028
191,056	-3,254	300,324	148,657
192,071	-3,322	300,213	148,520
193,086	-3,298	300,097	148,474
194,100	-3,254	299,640	148,279
195,115	-3,245	299,679	148,295
196,129	-3,233	299,273	148,092
197,144	-3,323	299,102	147,903
198,159	-3,146	298,875	147,957
199,173	-3,307	298,700	147,695
200,188	-3,186	298,489	147,700
201,202	-3,294	298,391	147,529
202,217	-3,107	298,090	147,556
203,232	-3,171	297,762	147,316
204,246	-3,236	297,634	147,174
205,261	-3,272	297,464	147,040
206,275	-3,201	297,301	147,018
207,290	-3,270	297,173	146,872
208,304	-3,179	296,938	146,834
209,319	-3,349	296,782	146,573
210,334	-3,234	296,491	146,532
211,348	-3,303	296,422	146,415
212,363	-3,249	296,143	146,319
213,377	-3,108	295,830	146,292
214,392	-3,311	295,881	146,101
215,407	-3,208	295,569	146,037
216,421	-2,998	295,242	146,072
217,436	-3,112	295,156	145,903
218,450	-3,349	294,943	145,548
219,465	-3,102	294,698	145,660
220,480	-3,234	294,493	145,415
221,494	-3,405	294,474	145,221
222,509	-3,274	294,142	145,175
223,523	-3,302	294,059	145,093
224,538	-3,244	293,774	144,998
225,553	-3,139	293,517	144,962
226,567	-3,103	293,441	144,947
227,582	-3,122	293,325	144,858
228,596	-3,239	293,065	144,601
229,611	-3,297	292,957	144,477
230,626	-3,278	292,643	144,329
231,640	-3,117	292,411	144,361
232,655	-3,151	292,236	144,227
233,669	-3,281	292,050	143,994
234,684	-3,130	291,831	144,023
235,699	-2,958	291,658	144,094
236,713	-3,136	291,533	143,844
237,728	-3,155	291,262	143,678
238,742	-3,261	290,982	143,424
239,757	-3,311	290,775	143,259
240,772	-3,123	290,562	143,326
241,786	-3,119	290,426	143,250
242,801	-3,251	290,409	143,099
243,815	-3,246	290,150	142,964
244,830	-3,164	289,873	142,895
245,844	-3,147	289,740	142,834
246,859	-3,129	289,603	142,771
247,874	-3,153	289,312	142,592
248,888	-3,241	289,098	142,387
249,903	-3,126	288,891	142,384
250,917	-3,175	288,765	142,262
251,932	-3,305	288,542	142,013
252,947	-3,389	288,297	141,798
253,961	-3,660	288,143	141,446
254,976	-3,902	287,854	141,056
255,990	-3,921	287,716	140,958
257,005	-3,033	287,908	141,901
258,020	-0,892	288,672	144,349
259,034	0,441	289,112	145,852
260,049	1,077	288,941	146,371
261,063	1,471	288,984	146,763
262,078	1,834	288,781	146,999
263,093	2,083	288,837	147,257
264,107	2,383	288,648	147,437
265,122	2,433	288,571	147,434
266,136	2,365	288,414	147,274
267,151	2,456	288,255	147,268
268,166	2,523	288,164	147,273
269,180	2,554	287,812	147,110
270,195	2,628	287,733	147,128
271,209	2,616	287,432	146,950
272,224	2,564	287,230	146,783
273,239	2,481	286,970	146,557
274,253	2,450	286,725	146,388
275,268	2,378	286,467	146,176
276,282	2,403	286,231	146,066
277,297	2,399	286,242	146,054
278,312	2,503	285,969	146,002
279,326	2,469	285,913	145,927
280,341	2,541	285,680	145,865
281,355	2,412	285,452	145,612
282,370	2,335	285,341	145,468
283,384	2,388	285,092	145,379
284,399	2,313	284,917	145,206
285,414	2,333	284,784	145,144
286,428	2,352	284,526	145,018
287,443	2,332	284,482	144,963
288,457	2,269	284,260	144,777
289,472	2,288	283,956	144,627
290,487	2,040	283,913	144,356
291,501	2,151	283,727	144,355
292,516	2,247	283,514	144,325
293,530	2,309	283,207	144,214
294,545	2,324	283,093	144,157
295,560	2,156	282,900	143,887
296,574	1,974	282,724	143,613
297,589	2,214	282,500	143,713
298,603	2,215	282,371	143,636
299,618	2,204	282,210	143,531
300,633	2,185	281,963	143,374
301,647	2,227	281,783	143,309
302,662	2,511	281,629	143,486
303,676	2,347	281,585	143,296
304,691	2,348	281,391	143,186
305,706	2,386	281,109	143,065
306,720	2,491	280,921	143,056
307,735	2,517	280,765	142,988
308,749	2,560	280,589	142,926
309,764	2,460	280,344	142,695
310,779	2,439	280,165	142,570
311,793	2,238	280,001	142,286
312,808	2,426	279,904	142,400
313,822	2,446	279,582	142,243
314,837	2,355	279,440	142,073
315,852	2,435	279,279	142,053
316,866	2,279	279,242	141,876
317,881	2,523	278,938	141,936
318,895	2,220	278,760	141,550
319,910	2,281	278,607	141,517
320,925	2,366	278,265	141,410
321,939	2,424	278,106	141,370
322,954	2,492	278,065	141,400
323,968	2,547	277,855	141,332
324,983	2,298	277,696	141,007
325,997	2,361	277,656	141,033
327,012	2,587	277,388	141,093
328,027	2,397	277,242	140,831
329,041	2,353	277,100	140,705
330,056	2,667	276,733	140,796
331,070	2,451	276,654	140,544
332,085	2,538	276,613	140,591
333,100	2,471	276,381	140,399
334,114	2,538	276,190	140,351
335,129	2,502	275,897	140,157
336,143	2,643	275,729	140,188
337,158	2,489	275,715	140,027
338,173	2,480	275,499	139,897
339,187	2,535	275,340	139,854
340,202	2,536	275,000	139,669
341,216	2,464	274,779	139,479
342,231	2,438	274,685	139,395
343,246	2,563	274,427	139,366
344,260	2,421	274,402	139,210
345,275	2,523	274,257	139,218
346,289	2,572	273,973	139,106
347,304	2,479	273,787	138,915
348,319	2,471	273,671	138,836
349,333	2,371	273,539	138,666
350,348	2,609	273,388	138,794
351,362	2,568	273,093	138,594
352,377	2,579	272,986	138,538
353,392	2,571	272,779	138,412
354,406	2,506	272,603	138,252
355,421	191,810	1347,427	1428,277
356,435	154,879	1478,469	1428,402
