DTS Sentinel unit serial number:	SN410029Multiplexer serial number:	ORYXHardware model number:	OX2-SRSoftware version number:	ORYX F/W v4,00 Oryx Data Collector v3.7.2.0data status	okinstallation	B4 Nyhavnadifferential loss correction	single-endedforward channel	channel 2reverse channel	N/Adate	2023/12/19time	05:35:14forward acquisition time	300,00reverse acquisition time	0,00gamma	499,1914k internal	0,3127k external	0,3127temperature offset calibration	1,0000default loss term (dB/km)	0,3820temperature slope calibration	1,0000multiplexer offset coefficient	1,0000multiplexer slope coefficient	1,0000fibre end	0,00T internal ref (°C)	21,01T ext. ref 1 (°C)	6,35T ext. ref 2 (°C)	6,42length (m)	temperature (°C)	Stokes	anti-Stokes-744,400	80,927	-0,048	-0,038
-743,385	130,017	-0,198	0,189
-742,371	800,000	0,067	0,172
-741,356	242,167	-0,124	0,154
-740,342	63,017	0,068	-0,051
-739,327	27,236	-0,120	0,075
-738,312	83,435	-0,041	-0,033
-737,298	-123,320	-0,278	0,033
-736,283	800,000	0,055	-0,131
-735,269	-200,000	-0,274	0,000
-734,254	-84,103	0,130	-0,031
-733,239	-169,986	-0,392	-0,010
-732,225	-200,000	0,006	0,142
-731,210	238,453	-0,033	0,041
-730,196	152,434	0,106	-0,108
-729,181	-200,000	-0,033	0,154
-728,167	800,000	0,044	-0,118
-727,152	-151,821	-0,011	-0,001
-726,137	-200,000	0,037	-0,138
-725,123	103,190	-0,077	-0,067
-724,108	45,102	-0,104	-0,071
-723,094	-81,359	-0,120	0,029
-722,079	26,866	-0,112	-0,070
-721,064	32,263	-0,026	-0,017
-720,050	-200,000	0,027	-0,121
-719,035	-200,000	-0,003	0,107
-718,021	583,913	-0,050	-0,091
-717,006	-200,000	0,049	-0,195
-715,991	237,407	-0,050	-0,062
-714,977	-140,794	0,099	0,008
-713,962	-200,000	-0,036	-0,134
-712,948	-200,000	-0,017	0,124
-711,933	139,688	0,043	0,042
-710,918	77,644	0,035	0,028
-709,904	800,000	-0,026	-0,060
-708,889	631,427	-0,029	-0,055
-707,875	-200,000	-0,048	-0,161
-706,860	-200,000	0,013	-0,141
-705,845	-70,520	0,025	-0,007
-704,831	-8,382	-0,169	-0,084
-703,816	354,971	-0,081	0,121
-702,802	-140,960	0,149	0,011
-701,787	679,863	-0,033	-0,064
-700,772	-200,000	0,017	0,186
-699,758	-58,259	-0,069	-0,022
-698,743	3,006	-0,064	0,034
-697,729	82,604	0,073	0,059
-696,714	800,000	0,033	0,085
-695,699	583,409	-0,064	-0,117
-694,685	-59,519	-0,085	-0,027
-693,670	-3,350	0,049	-0,025
-692,656	-97,684	-0,096	-0,018
-691,641	-200,000	-0,010	-0,054
-690,627	-145,684	0,135	-0,009
-689,612	165,327	0,037	-0,039
-688,597	-200,000	-0,004	-0,076
-687,583	105,518	0,126	-0,111
-686,568	-26,934	-0,035	0,015
-685,554	-116,367	0,106	-0,014
-684,539	-96,352	-0,117	-0,023
-683,524	537,591	-0,012	-0,022
-682,510	73,459	0,021	0,016
-681,495	-53,464	-0,056	-0,019
-680,481	-200,000	0,018	-0,062
-679,466	486,428	-0,096	-0,163
-678,451	-200,000	-0,000	0,043
-677,437	-66,875	-0,011	0,003
-676,422	-143,081	-0,112	0,008
-675,408	-12,677	0,134	-0,065
-674,393	211,412	-0,181	-0,211
-673,378	800,000	-0,042	-0,130
-672,364	156,151	-0,056	-0,057
-671,349	-200,000	-0,009	-0,059
-670,335	-127,635	-0,036	-0,004
-669,320	-43,945	0,123	0,046
-668,305	786,628	-0,042	0,087
-667,291	-32,830	0,008	0,003
-666,276	-98,861	-0,154	0,029
-665,262	-39,543	-0,117	-0,045
-664,247	174,941	0,054	0,058
-663,232	302,489	-0,081	-0,111
-662,218	-17,382	0,134	-0,062
-661,203	406,949	0,031	0,049
-660,189	578,764	-0,058	0,106
-659,174	-84,356	-0,106	-0,025
-658,159	-200,000	0,009	-0,045
-657,145	-43,235	-0,119	-0,044
-656,130	-200,000	0,012	0,109
-655,116	-9,016	-0,047	-0,024
-654,101	610,046	0,048	-0,089
-653,086	-200,000	0,042	-0,144
-652,072	-124,448	-0,063	0,007
-651,057	-8,004	-0,087	-0,043
-650,043	-88,750	-0,171	0,037
-649,028	0,487	-0,075	-0,040
-648,014	-200,000	-0,033	-0,114
-646,999	-200,000	0,009	-0,047
-645,984	467,677	-0,057	0,095
-644,970	-200,000	-0,004	0,042
-643,955	800,000	-0,009	0,020
-642,941	800,000	-0,010	-0,032
-641,926	-200,000	-0,007	-0,045
-640,911	-146,928	-0,158	-0,010
-639,897	-128,062	-0,132	0,014
-638,882	223,835	0,092	-0,110
-637,868	2,289	-0,046	-0,025
-636,853	614,153	-0,104	-0,194
-635,838	163,293	0,085	0,089
-634,824	38,921	0,063	0,041
-633,809	369,672	0,007	0,010
-632,795	92,067	-0,082	-0,069
-631,780	9,974	-0,130	0,073
-630,765	20,145	0,079	-0,047
-629,751	-141,468	0,033	0,002
-628,736	-48,926	-0,133	-0,047
-627,722	174,768	0,104	-0,112
-626,707	-166,882	-0,050	-0,001
-625,692	800,000	0,008	0,023
-624,678	-8,076	0,041	-0,020
-623,663	97,360	0,045	-0,038
-622,649	199,981	0,066	-0,075
-621,634	-9,847	-0,054	-0,027
-620,619	197,011	-0,043	-0,049
-619,605	-200,000	0,011	-0,074
-618,590	-112,431	0,105	-0,015
-617,576	50,944	0,028	0,019
-616,561	388,178	0,037	0,057
-615,546	-200,000	-0,002	-0,066
-614,532	135,395	-0,093	-0,090
-613,517	-138,377	0,066	0,005
-612,503	-200,000	-0,001	0,042
-611,488	511,869	0,043	0,074
-610,474	77,773	-0,072	0,057
-609,459	-200,000	-0,007	-0,050
-608,444	-28,601	0,006	0,003
-607,430	-1,205	-0,173	-0,090
-606,415	-92,620	-0,080	-0,016
-605,401	-134,122	0,122	-0,011
-604,386	744,289	-0,058	-0,117
-603,371	800,000	-0,011	0,037
-602,357	179,167	0,021	-0,023
-601,342	-200,000	-0,004	-0,163
-600,328	78,524	0,039	-0,031
-599,313	106,885	-0,121	0,107
-598,298	-200,000	-0,002	-0,157
-597,284	-97,906	0,006	0,001
-596,269	78,853	0,026	0,021
-595,255	800,000	0,064	0,133
-594,240	-109,454	-0,096	0,015
-593,225	-200,000	-0,037	-0,183
-592,211	143,159	-0,052	-0,051
-591,196	88,784	-0,108	0,089
-590,182	-200,000	-0,002	0,034
-589,167	800,000	0,065	-0,150
-588,152	-200,000	0,006	0,118
-587,138	800,000	-0,006	-0,015
-586,123	67,579	-0,126	-0,095
-585,109	-200,000	-0,018	-0,082
-584,094	-7,304	-0,047	0,024
-583,079	-7,837	-0,087	0,043
-582,065	-45,062	0,064	-0,023
-581,050	-200,000	-0,010	0,145
-580,036	-200,000	-0,001	-0,117
-579,021	-150,953	-0,103	-0,006
-578,006	-200,000	0,012	-0,073
-576,992	-42,254	0,123	0,046
-575,977	-91,784	-0,132	-0,028
-574,963	21,238	0,079	0,047
-573,948	349,191	-0,017	0,024
-572,934	-107,407	0,025	-0,004
-571,919	-29,031	-0,133	0,056
-570,904	388,478	-0,016	0,024
-569,890	530,925	-0,043	0,075
-568,875	-200,000	0,033	-0,109
-567,861	-200,000	0,014	-0,065
-566,846	-56,300	-0,093	0,030
-565,831	-200,000	-0,007	0,058
-564,817	-50,776	-0,023	0,008
-563,802	1,768	0,106	-0,056
-562,788	-5,515	0,093	-0,047
-561,773	60,834	0,138	-0,101
-560,758	800,000	0,059	-0,141
-559,744	144,967	-0,095	0,094
-558,729	-200,000	-0,037	0,229
-557,715	774,043	-0,015	0,030
-556,700	485,934	-0,032	0,054
-555,685	748,308	-0,033	0,066
-554,671	238,963	0,064	0,078
-553,656	38,104	0,134	0,088
-552,642	800,000	-0,085	0,185
-551,627	-5,130	-0,038	0,019
-550,612	800,000	0,032	-0,067
-549,598	-103,234	-0,165	0,029
-548,583	407,659	-0,040	-0,063
-547,569	-200,000	-0,013	-0,088
-546,554	-42,317	0,034	0,013
-545,539	241,409	0,076	-0,094
-544,525	674,551	-0,042	-0,081
-543,510	-101,717	-0,037	0,007
-542,496	71,035	0,112	-0,086
-541,481	107,342	-0,044	-0,038
-540,466	94,054	-0,059	-0,050
-539,452	-62,138	0,056	0,017
-538,437	31,533	-0,119	-0,075
-537,423	-13,911	0,046	-0,022
-536,408	644,254	-0,105	-0,199
-535,393	-69,248	0,074	-0,021
-534,379	-200,000	-0,003	0,059
-533,364	52,631	0,086	0,061
-532,350	96,105	0,146	-0,123
-531,335	-136,171	0,135	-0,012
-530,321	-107,855	0,103	0,016
-529,306	-99,444	-0,123	0,023
-528,291	-200,000	0,007	-0,033
-527,277	-147,610	0,028	-0,002
-526,262	355,440	0,094	0,138
-525,248	-163,272	0,016	0,001
-524,233	120,054	-0,078	-0,072
-523,218	199,965	0,075	0,086
-522,204	-200,000	0,006	-0,023
-521,189	-158,832	-0,063	0,003
-520,175	-147,854	-0,159	0,010
-519,160	-29,994	0,058	0,024
-518,145	142,047	0,031	-0,030
-517,131	150,829	-0,052	-0,052
-516,116	247,685	-0,070	0,088
-515,102	244,361	-0,061	-0,076
-514,087	14,720	0,051	-0,030
-513,072	-52,478	0,067	-0,023
-512,058	121,993	-0,070	0,064
-511,043	-200,000	0,008	-0,047
-510,029	-200,000	-0,031	0,110
-509,014	364,645	-0,066	0,098
-507,999	85,220	-0,063	0,051
-506,985	-200,000	0,013	0,091
-505,970	-144,725	-0,103	0,007
-504,956	40,602	-0,006	-0,004
-503,941	-106,240	-0,045	-0,007
-502,926	-200,000	0,024	0,099
-501,912	212,361	0,125	-0,146
-500,897	471,254	0,020	-0,033
-499,883	-200,000	-0,021	0,103
-498,868	800,000	0,036	0,114
-497,853	381,883	-0,077	0,118
-496,839	-132,174	-0,057	-0,005
-495,824	319,628	-0,036	-0,050
-494,810	484,780	-0,068	-0,115
-493,795	-32,599	0,061	0,025
-492,781	-200,000	0,006	0,085
-491,766	-200,000	-0,007	0,047
-490,751	-84,085	0,051	-0,012
-489,737	800,000	-0,014	0,036
-488,722	-77,394	0,037	-0,009
-487,708	-65,442	0,080	0,024
-486,693	657,129	0,006	0,011
-485,678	200,513	0,105	0,119
-484,664	-6,689	-0,153	0,076
-483,649	156,054	-0,113	-0,115
-482,635	-200,000	0,001	-0,039
-481,620	214,132	0,035	0,041
-480,605	101,044	-0,045	-0,039
-479,591	41,628	0,033	-0,022
-478,576	-122,839	-0,065	-0,008
-477,562	112,177	0,079	0,070
-476,547	306,689	0,037	0,051
-475,532	61,448	0,058	0,043
-474,518	-38,127	-0,020	-0,008
-473,503	25,489	0,131	0,080
-472,489	67,792	0,028	-0,021
-471,474	782,330	0,027	-0,054
-470,459	455,960	0,040	-0,066
-469,445	-200,000	-0,011	-0,056
-468,430	149,118	0,153	0,153
-467,416	-200,000	0,018	-0,149
-466,401	-200,000	0,007	0,043
-465,386	-90,383	0,073	0,015
-464,372	-126,374	0,119	0,013
-463,357	676,486	0,034	-0,065
-462,343	-200,000	-0,012	-0,075
-461,328	35,198	-0,155	0,100
-460,313	-200,000	0,006	-0,021
-459,299	528,153	-0,027	0,047
-458,284	427,893	0,062	0,099
-457,270	386,534	0,055	-0,083
-456,255	47,199	-0,068	0,046
-455,241	131,470	-0,103	-0,098
-454,226	-174,753	-0,147	-0,003
-453,211	-200,000	-0,005	-0,172
-452,197	-200,000	-0,009	0,088
-451,182	244,570	0,071	0,088
-450,168	20,274	-0,040	-0,024
-449,153	495,034	0,018	0,031
-448,138	-200,000	-0,024	-0,150
-447,124	-200,000	-0,024	-0,140
-446,109	70,174	0,075	0,057
-445,095	-200,000	0,002	0,019
-444,080	800,000	0,031	0,087
-443,065	-135,480	-0,140	-0,012
-442,051	170,112	-0,111	-0,116
-441,036	164,215	0,092	-0,095
-440,022	186,809	0,034	0,038
-439,007	7,667	-0,066	-0,036
-437,992	-186,952	-0,112	0,001
-436,978	-134,256	0,072	-0,006
-435,963	74,782	0,067	-0,051
-434,949	-33,519	-0,207	0,084
-433,934	279,664	0,031	-0,041
-432,919	800,000	0,031	-0,088
-431,905	203,686	-0,009	-0,010
-430,890	-152,700	0,188	-0,010
-429,876	800,000	-0,025	0,075
-428,861	124,800	0,122	-0,113
-427,846	-200,000	0,001	0,132
-426,832	-200,000	0,018	-0,084
-425,817	75,600	-0,130	-0,101
-424,803	161,402	-0,047	-0,049
-423,788	-130,262	0,146	-0,014
-422,773	212,240	0,034	0,040
-421,759	9,982	-0,060	0,033
-420,744	-90,649	0,045	0,009
-419,730	118,262	-0,092	-0,083
-418,715	-69,616	-0,060	-0,017
-417,701	464,323	0,101	-0,166
-416,686	800,000	-0,033	0,068
-415,671	-24,066	-0,067	-0,029
-414,657	800,000	0,040	0,094
-413,642	-38,343	-0,146	0,057
-412,628	-112,699	0,027	0,004
-411,613	-200,000	0,002	-0,019
-410,598	14,315	0,095	-0,054
-409,584	47,587	0,042	0,029
-408,569	-138,616	0,065	-0,005
-407,555	345,271	0,072	0,104
-406,540	-200,000	0,003	0,024
-405,525	-200,000	-0,019	0,074
-404,511	82,661	-0,027	0,021
-403,496	-109,683	-0,056	-0,009
-402,482	-200,000	0,029	0,127
-401,467	126,944	0,046	0,042
-400,452	52,248	0,071	0,050
-399,438	346,888	-0,124	0,180
-398,423	-44,642	-0,066	0,024
-397,409	800,000	-0,075	-0,170
-396,394	79,739	0,085	-0,067
-395,379	39,675	-0,105	-0,069
-394,365	31,635	0,084	0,053
-393,350	-200,000	-0,005	-0,101
-392,336	-102,640	-0,150	0,026
-391,321	-200,000	-0,002	0,075
-390,306	517,752	-0,037	0,063
-389,292	-200,000	-0,027	0,097
-388,277	800,000	0,035	-0,103
-387,263	-68,841	0,070	0,020
-386,248	46,462	0,166	0,113
-385,233	421,997	0,053	0,084
-384,219	-200,000	0,008	0,129
-383,204	-118,065	0,172	-0,022
-382,190	216,502	0,052	-0,060
-381,175	800,000	-0,050	0,123
-380,160	-120,877	0,054	-0,007
-379,146	-43,252	0,070	0,026
-378,131	670,133	-0,026	-0,049
-377,117	800,000	0,031	0,077
-376,102	49,551	0,086	-0,059
-375,088	-40,702	-0,080	-0,030
-374,073	800,000	-0,047	0,099
-373,058	158,032	0,072	0,073
-372,044	84,959	0,094	0,075
-371,029	351,012	-0,010	0,014
-370,015	800,000	0,013	0,033
-369,000	-176,806	-0,064	-0,001
-367,985	-17,145	-0,129	-0,060
-366,971	79,496	-0,027	-0,021
-365,956	585,726	0,029	-0,053
-364,942	-139,507	0,137	0,011
-363,927	16,345	0,139	-0,080
-362,912	-200,000	0,012	-0,093
-361,898	800,000	-0,027	-0,057
-360,883	-94,053	-0,092	-0,018
-359,869	-79,508	-0,103	0,025
-358,854	65,737	0,052	-0,038
-357,839	-200,000	-0,020	0,241
-356,825	488,169	0,041	-0,069
-355,810	-200,000	0,024	0,141
-354,796	800,000	-0,080	-0,197
-353,781	165,988	-0,030	-0,031
-352,766	104,595	0,017	0,014
-351,752	-194,685	0,068	-0,000
-350,737	-7,273	0,054	-0,027
-349,723	635,531	-0,022	-0,041
-348,708	-200,000	0,023	0,091
-347,693	191,309	-0,020	-0,023
-346,679	176,240	-0,074	-0,078
-345,664	343,359	-0,018	-0,026
-344,650	-117,361	0,059	0,008
-343,635	-200,000	0,019	0,066
-342,620	-200,000	-0,000	0,138
-341,606	-113,802	-0,018	-0,003
-340,591	96,329	-0,100	0,084
-339,577	203,472	-0,053	0,060
-338,562	151,254	-0,064	-0,064
-337,548	-200,000	0,004	-0,132
-336,533	-104,465	-0,152	-0,026
-335,518	800,000	0,025	0,061
-334,504	57,794	0,096	0,069
-333,489	-159,598	0,072	0,003
-332,475	-160,387	0,062	0,002
-331,460	-17,999	0,065	0,030
-330,445	800,000	-0,018	-0,051
-329,431	242,214	-0,098	0,120
-328,416	-200,000	-0,012	-0,071
-327,402	-159,882	0,119	-0,005
-326,387	140,464	0,111	-0,108
-325,372	-200,000	-0,008	-0,028
-324,358	-57,293	0,167	-0,054
-323,343	484,386	-0,030	0,051
-322,329	335,552	-0,019	0,027
-321,314	800,000	-0,033	0,094
-320,299	-113,398	0,046	0,007
-319,285	-200,000	-0,020	-0,117
-318,270	-0,986	-0,120	-0,062
-317,256	181,089	-0,077	-0,083
-316,241	800,000	0,030	0,077
-315,226	-200,000	0,009	0,090
-314,212	-79,946	0,119	-0,029
-313,197	-134,992	-0,069	0,006
-312,183	181,089	-0,092	0,099
-311,168	582,472	-0,036	0,065
-310,153	185,899	-0,096	-0,105
-309,139	-67,453	-0,100	-0,029
-308,124	-30,456	0,020	0,008
-307,110	173,212	-0,025	-0,026
-306,095	-200,000	0,020	0,127
-305,080	-200,000	-0,012	0,046
-304,066	800,000	0,032	0,096
-303,051	31,528	0,118	0,074
-302,037	69,862	-0,132	-0,099
-301,022	-200,000	-0,018	-0,084
-300,008	45,064	-0,119	0,080
-298,993	-89,957	0,115	0,024
-297,978	-172,602	0,075	-0,002
-296,964	75,628	-0,070	-0,054
-295,949	800,000	-0,049	-0,117
-294,935	-200,000	-0,009	-0,106
-293,920	-138,101	0,214	-0,017
-292,905	565,417	-0,043	-0,077
-291,891	800,000	0,021	0,068
-290,876	800,000	-0,038	0,109
-289,862	-69,302	0,167	0,047
-288,847	800,000	-0,053	-0,115
-287,832	-86,270	0,033	0,007
-286,818	395,011	0,048	-0,074
-285,803	-200,000	-0,001	0,126
-284,789	-200,000	-0,005	-0,038
-283,774	800,000	0,041	0,129
-282,759	75,840	0,111	-0,085
-281,745	39,173	-0,104	-0,068
-280,730	-144,618	-0,118	-0,008
-279,716	-200,000	0,001	0,020
-278,701	-35,182	-0,061	-0,024
-277,686	767,572	-0,061	-0,122
-276,672	800,000	0,059	0,142
-275,657	-129,489	0,129	0,013
-274,643	-150,377	0,182	-0,010
-273,628	393,049	-0,056	-0,086
-272,613	-200,000	0,132	-0,000
-271,599	28,203	0,079	0,049
-270,584	106,486	0,062	0,054
-269,570	-26,517	-0,054	0,023
-268,555	59,550	0,116	0,084
-267,540	121,593	0,035	0,032
-266,526	647,460	-0,087	0,163
-265,511	-35,204	0,079	-0,031
-264,497	-165,233	0,101	-0,003
-263,482	-200,000	-0,007	0,025
-262,467	-141,115	0,109	0,008
-261,453	800,000	-0,035	0,088
-260,438	423,744	-0,020	-0,032
-259,424	355,424	-0,039	0,056
-258,409	-142,168	0,040	-0,003
-257,395	37,023	0,061	0,039
-256,380	-82,330	0,063	0,015
-255,365	210,906	0,055	-0,063
-254,351	-200,000	0,009	0,070
-253,336	-200,000	-0,003	-0,049
-252,322	-49,506	-0,070	0,024
-251,307	126,593	0,022	-0,021
-250,292	333,835	-0,073	0,104
-249,278	800,000	0,014	-0,032
-248,263	-200,000	0,006	-0,059
-247,249	301,906	-0,062	0,083
-246,234	96,986	-0,050	-0,042
-245,219	-200,000	-0,040	0,145
-244,205	667,694	-0,064	0,122
-243,190	-200,000	0,001	-0,077
-242,176	103,501	0,089	0,076
-241,161	167,013	0,060	-0,062
-240,146	-48,554	-0,115	0,040
-239,132	169,277	-0,082	-0,086
-238,117	-22,597	0,023	0,010
-237,103	198,994	0,026	0,029
-236,088	-200,000	-0,015	-0,083
-235,073	800,000	0,034	0,084
-234,059	-200,000	-0,015	-0,104
-233,044	-200,000	-0,008	0,083
-232,030	-200,000	0,009	0,138
-231,015	-82,485	-0,064	0,015
-230,000	137,315	-0,123	-0,117
-228,986	371,497	-0,074	-0,110
-227,971	-200,000	-0,008	0,026
-226,957	-200,000	-0,011	-0,049
-225,942	-200,000	0,035	0,127
-224,927	-56,828	0,101	-0,032
-223,913	-166,551	0,027	0,001
-222,898	564,272	0,009	0,015
-221,884	540,246	0,065	0,113
-220,869	149,453	0,033	-0,032
-219,855	215,444	-0,051	0,059
-218,840	20,543	0,076	0,045
-217,825	-56,353	-0,122	0,039
-216,811	241,484	-0,079	0,096
-215,796	205,250	0,114	-0,130
-214,782	-200,000	-0,009	0,150
-213,767	-112,285	0,124	0,018
-212,752	66,735	0,054	0,040
-211,738	-200,000	0,034	0,148
-210,723	-44,971	-0,181	0,065
-209,709	6,558	-0,133	-0,072
-208,694	16,581	0,093	-0,053
-207,679	130,979	-0,096	-0,090
-206,665	-200,000	-0,020	0,123
-205,650	578,450	0,028	0,050
-204,636	-200,000	0,011	0,174
-203,621	201,885	0,034	0,038
-202,606	101,689	0,071	-0,061
-201,592	-200,000	-0,013	-0,093
-200,577	-91,798	-0,045	-0,009
-199,563	42,245	-0,127	-0,084
-198,548	-67,287	-0,096	0,027
-197,533	-200,000	0,052	0,182
-196,519	405,189	-0,102	0,158
-195,504	-124,909	0,072	0,008
-194,490	220,688	0,015	0,017
-193,475	800,000	0,030	-0,082
-192,460	-77,886	0,072	0,018
-191,446	-87,470	-0,127	0,028
-190,431	310,077	0,118	0,161
-189,417	62,185	-0,049	-0,036
-188,402	-56,676	-0,109	-0,035
-187,387	55,126	-0,079	-0,056
-186,373	800,000	0,053	-0,166
-185,358	-200,000	-0,008	-0,057
-184,344	-121,283	0,104	0,012
-183,329	219,629	0,071	-0,083
-182,315	-200,000	-0,005	0,068
-181,300	-88,072	0,062	-0,013
-180,285	754,285	0,023	-0,046
-179,271	393,707	-0,057	-0,086
-178,256	150,731	-0,114	-0,113
-177,242	-45,523	-0,046	0,017
-176,227	-177,829	0,118	-0,002
-175,212	19,558	0,071	0,041
-174,198	-119,938	0,094	-0,012
-173,183	334,651	-0,080	-0,113
-172,169	800,000	0,029	-0,072
-171,154	421,584	0,079	-0,124
-170,139	-18,401	0,064	-0,029
-169,125	-129,617	0,105	-0,010
-168,110	-29,131	-0,089	-0,037
-167,096	-83,598	-0,054	0,013
-166,081	800,000	0,033	-0,076
-165,066	-48,109	-0,072	-0,025
-164,052	-200,000	-0,028	-0,106
-163,037	800,000	-0,030	-0,064
-162,023	800,000	0,018	0,039
-161,008	-92,865	0,123	-0,025
-159,993	-171,742	0,179	-0,004
-158,979	800,000	-0,030	-0,074
-157,964	-112,418	0,083	0,012
-156,950	-79,919	-0,171	0,042
-155,935	-38,836	0,062	0,024
-154,920	-22,909	-0,061	-0,027
-153,906	-200,000	0,028	-0,093
-152,891	116,601	-0,142	0,126
-151,877	-200,000	-0,006	-0,025
-150,862	-200,000	-0,002	-0,060
-149,847	-200,000	0,012	-0,081
-148,833	800,000	0,038	-0,095
-147,818	-200,000	-0,017	0,078
-146,804	-200,000	-0,017	-0,101
-145,789	28,353	0,028	-0,017
-144,775	-51,853	0,045	0,015
-143,760	0,225	-0,056	0,029
-142,745	-200,000	0,004	0,015
-141,731	-200,000	-0,003	0,041
-140,716	69,250	0,072	0,054
-139,702	-48,729	0,162	0,056
-138,687	800,000	-0,035	0,071
-137,672	800,000	0,009	-0,019
-136,658	66,152	-0,110	-0,081
-135,643	101,632	0,095	-0,081
-134,629	-200,000	0,009	-0,067
-133,614	-117,578	0,020	0,003
-132,599	800,000	-0,033	0,081
-131,585	-128,693	0,106	-0,011
-130,570	89,678	0,031	0,025
-129,556	-81,272	-0,141	0,034
-128,541	-155,662	-0,081	0,004
-127,526	800,000	0,039	0,085
-126,512	-200,000	0,004	-0,106
-125,497	-14,050	0,031	0,014
-124,483	184,724	0,065	0,070
-123,468	-1,922	0,117	-0,059
-122,453	-200,000	-0,039	-0,146
-121,439	79,529	0,048	-0,037
-120,424	800,000	0,030	0,068
-119,410	-28,001	-0,035	0,015
-118,395	-200,000	-0,011	0,057
-117,380	537,527	0,013	-0,023
-116,366	-200,000	0,001	-0,129
-115,351	-13,310	-0,102	-0,048
-114,337	205,895	0,118	-0,133
-113,322	662,382	0,063	-0,119
-112,307	361,410	0,063	0,092
-111,293	-11,572	0,041	0,020
-110,278	31,216	-0,059	-0,037
-109,264	179,848	-0,062	-0,067
-108,249	-200,000	-0,022	-0,150
-107,234	236,777	-0,087	-0,105
-106,220	-120,267	-0,040	-0,005
-105,205	800,000	-0,038	0,100
-104,191	213,843	0,082	0,094
-103,176	27,243	-0,080	0,049
-102,162	186,368	0,023	0,024
-101,147	49,908	-0,077	-0,053
-100,132	68,511	-0,059	0,044
-99,118	62,329	0,051	-0,037
-98,103	-200,000	0,006	-0,036
-97,089	-68,055	-0,103	0,029
-96,074	225,956	0,038	-0,045
-95,059	92,212	-0,053	-0,044
-94,045	392,609	-0,069	-0,104
-93,030	-200,000	-0,012	-0,077
-92,016	-113,986	-0,052	0,007
-91,001	-52,805	0,113	0,038
-89,986	6,478	-0,065	-0,035
-88,972	103,265	0,012	0,010
-87,957	-170,874	-0,073	-0,002
-86,943	-181,371	0,145	-0,002
-85,928	82,736	-0,095	-0,075
-84,913	461,500	-0,044	-0,071
-83,899	-16,399	0,046	0,021
-82,884	-77,152	-0,118	-0,030
-81,870	21,407	0,126	-0,074
-80,855	-140,382	0,131	0,010
-79,840	-200,000	0,034	0,285
-78,826	62,831	-0,076	0,055
-77,811	138,818	0,072	0,069
-76,797	800,000	-0,021	0,050
-75,782	-6,694	-0,091	-0,045
-74,767	-92,620	0,171	0,034
-73,753	-75,937	-0,053	0,013
-72,738	-200,000	0,023	-0,100
-71,724	-200,000	0,075	0,000
-70,709	84,045	0,045	0,035
-69,694	800,000	-0,045	-0,096
-68,680	713,332	0,064	0,123
-67,665	234,859	0,059	0,071
-66,651	-200,000	-0,015	-0,063
-65,636	-155,113	-0,064	0,003
-64,622	335,214	0,054	0,076
-63,607	381,173	-0,103	-0,154
-62,592	-200,000	-0,033	-0,153
-61,578	-157,558	-0,029	0,001
-60,563	800,000	0,052	0,128
-59,549	-200,000	0,009	0,217
-58,534	-125,958	-1,400	-0,151
-57,519	572,281	-0,777	-1,378
-56,505	-200,000	-0,896	-4,405
-55,490	-114,857	0,564	-0,077
-54,476	800,000	4,972	11,793
-53,461	-200,000	14,551	262,968
-52,446	-200,000	696,139	2280,982
-51,432	603,249	1622,442	2937,169
-50,417	118,752	1630,957	1460,048
-49,403	76,590	1284,212	985,951
-48,388	37,422	1021,978	655,340
-47,373	23,318	981,395	582,966
-46,359	22,462	970,561	573,703
-45,344	21,233	966,290	567,144
-44,330	21,214	964,890	566,237
-43,315	21,060	963,443	564,862
-42,300	21,116	962,274	564,337
-41,286	21,098	961,227	563,642
-40,271	21,064	960,309	562,971
-39,257	21,037	959,354	562,302
-38,242	21,104	958,334	561,899
-37,227	21,009	957,822	561,270
-36,213	21,043	956,542	560,607
-35,198	20,980	955,811	559,954
-34,184	21,015	955,129	559,643
-33,169	21,015	954,202	559,078
-32,154	21,100	953,236	558,763
-31,140	21,048	952,588	558,194
-30,125	21,040	951,864	557,723
-29,111	21,043	950,914	557,152
-28,096	21,029	950,201	556,668
-27,082	21,046	949,478	556,278
-26,067	21,091	948,664	555,923
-25,052	21,055	947,915	555,347
-24,038	21,014	947,469	554,931
-23,023	21,089	946,707	554,702
-22,009	21,135	945,967	554,396
-20,994	21,045	945,481	553,802
-19,979	21,063	944,875	553,480
-18,965	21,085	944,202	553,134
-17,950	21,106	943,546	552,797
-16,936	20,992	943,014	552,099
-15,921	20,971	942,165	551,513
-14,906	20,920	941,536	550,960
-13,892	20,987	940,912	550,786
-12,877	20,939	940,378	550,300
-11,863	20,910	939,705	549,792
-10,848	20,943	939,072	549,504
-9,833	21,053	938,672	549,599
-8,819	20,994	938,086	549,044
-7,804	20,863	937,510	548,271
-6,790	20,887	936,827	547,926
-5,775	20,940	936,216	547,716
-4,760	20,967	935,574	547,404
-3,746	20,910	935,009	546,871
-2,731	20,816	934,321	546,151
-1,717	20,699	933,721	545,408
-0,702	20,788	932,856	545,163
0,313	20,610	932,387	545,151
1,327	22,986	929,990	551,165
2,342	30,618	807,036	498,943
3,356	25,271	507,821	304,819
4,371	1,073	373,898	193,615
5,386	-1,912	357,108	181,237
6,400	-3,152	351,173	176,709
7,415	-3,728	348,596	174,705
8,429	-3,952	347,051	173,647
9,444	-3,769	346,167	173,407
10,459	-3,777	345,460	173,028
11,473	-3,865	344,804	172,580
12,488	-3,879	344,260	172,276
13,502	-3,894	343,511	171,868
14,517	-3,827	343,098	171,724
15,531	-3,841	342,742	171,515
16,546	-3,626	342,124	171,444
17,561	-3,825	341,861	171,063
18,575	-3,749	341,364	170,887
19,590	-4,004	341,025	170,404
20,604	-3,767	340,761	170,534
21,619	-3,717	340,062	170,228
22,634	-3,914	339,904	169,903
23,648	-3,722	339,582	169,951
24,663	-3,853	339,212	169,598
25,677	-3,886	338,958	169,417
26,692	-3,861	338,692	169,299
27,707	-3,743	338,288	169,219
28,721	-3,840	338,085	168,990
29,736	-3,707	337,619	168,896
30,750	-3,825	337,381	168,624
31,765	-3,691	337,108	168,629
32,780	-3,869	336,854	168,280
33,794	-3,753	336,642	168,294
34,809	-3,876	336,318	167,974
35,823	-3,810	336,099	167,927
36,838	-4,044	335,724	167,454
37,853	-3,779	335,238	167,502
38,867	-3,757	335,048	167,417
39,882	-3,855	334,809	167,171
40,896	-3,795	334,596	167,118
41,911	-3,690	334,188	167,020
42,926	-3,754	333,817	166,747
43,940	-3,798	333,666	166,605
44,955	-3,700	333,396	166,569
45,969	-3,767	333,122	166,340
46,984	-3,586	332,815	166,379
47,999	-3,739	332,681	166,122
49,013	-3,829	332,670	165,999
50,028	-3,899	332,163	165,651
51,042	-3,682	331,906	165,755
52,057	-3,872	331,726	165,434
53,071	-3,701	331,457	165,480
54,086	-3,863	331,145	165,125
55,101	-3,681	330,888	165,190
56,115	-3,800	330,690	164,940
57,130	-3,782	330,416	164,809
58,144	-3,723	330,156	164,732
59,159	-3,765	329,692	164,438
60,174	-3,870	329,558	164,239
61,188	-3,872	329,304	164,095
62,203	-3,896	329,181	163,992
63,217	-3,781	328,847	163,941
64,232	-3,791	328,534	163,759
65,247	-3,799	328,279	163,608
66,261	-3,710	327,948	163,528
67,276	-3,891	327,794	163,234
68,290	-3,797	327,436	163,147
69,305	-3,848	327,355	163,035
70,320	-3,676	327,027	163,049
71,334	-3,773	326,830	162,828
72,349	-3,773	326,604	162,700
73,363	-3,879	326,324	162,427
74,378	-3,669	325,912	162,443
75,393	-3,679	325,621	162,272
76,407	-3,819	325,564	162,073
77,422	-3,809	325,196	161,887
78,436	-3,737	324,946	161,828
79,451	-3,795	324,573	161,564
80,466	-3,787	324,447	161,495
81,480	-3,699	324,149	161,430
82,495	-3,731	323,973	161,293
83,509	-3,806	323,684	161,052
84,524	-3,675	323,427	161,053
85,539	-3,802	323,250	160,811
86,553	-3,750	323,012	160,736
87,568	-3,782	322,737	160,549
88,582	-3,755	322,466	160,430
89,597	-3,704	322,068	160,273
90,611	-3,625	321,981	160,303
91,626	-3,679	321,811	160,145
92,641	-3,658	321,604	160,051
93,655	-3,832	321,324	159,706
94,670	-3,833	321,231	159,644
95,684	-3,821	320,713	159,385
96,699	-3,774	320,554	159,344
97,714	-3,613	320,377	159,418
98,728	-3,730	320,156	159,166
99,743	-3,872	319,875	158,857
100,757	-3,826	319,723	158,817
101,772	-3,845	319,480	158,661
102,787	-3,701	319,201	158,666
103,801	-3,757	318,822	158,402
104,816	-3,618	318,652	158,455
105,830	-3,677	318,440	158,271
106,845	-3,780	318,361	158,106
107,860	-3,760	318,026	157,948
108,874	-3,647	317,783	157,936
109,889	-3,842	317,368	157,503
110,903	-3,845	317,252	157,429
111,918	-3,831	317,132	157,370
112,933	-3,722	316,969	157,393
113,947	-3,704	316,641	157,236
114,962	-3,724	316,311	157,037
115,976	-3,796	316,066	156,823
116,991	-3,642	315,918	156,902
118,006	-3,770	315,742	156,662
119,020	-3,961	315,766	156,455
120,035	-3,759	315,394	156,473
121,049	-3,794	315,300	156,375
122,064	-3,621	314,880	156,339
123,079	-3,673	314,581	156,120
124,093	-3,788	314,483	155,935
125,108	-3,699	314,173	155,863
126,122	-3,594	313,907	155,829
127,137	-3,701	313,765	155,631
128,151	-3,648	313,447	155,516
129,166	-3,694	313,285	155,372
130,181	-3,752	313,101	155,205
131,195	-3,823	312,799	154,965
132,210	-3,919	312,607	154,754
133,224	-3,621	312,334	154,923
134,239	-3,659	312,105	154,754
135,254	-3,650	311,925	154,661
136,268	-3,685	311,720	154,509
137,283	-3,574	311,422	154,465
138,297	-3,758	311,246	154,169
139,312	-3,648	310,993	154,147
140,327	-3,692	310,847	154,014
141,341	-3,556	310,498	153,971
142,356	-3,755	310,370	153,684
143,370	-3,716	310,233	153,643
144,385	-3,883	310,058	153,366
145,400	-3,590	309,706	153,488
146,414	-3,647	309,416	153,270
147,429	-3,737	309,325	153,116
148,443	-3,674	309,035	153,026
149,458	-3,687	308,890	152,926
150,473	-3,641	308,639	152,836
151,487	-3,602	308,444	152,767
152,502	-3,565	308,226	152,685
153,516	-3,721	307,970	152,381
154,531	-3,565	307,615	152,356
155,546	-3,727	307,362	152,047
156,560	-3,634	307,237	152,069
157,575	-3,602	307,142	152,041
158,589	-3,618	306,772	151,827
159,604	-3,569	306,521	151,742
160,619	-3,770	306,513	151,514
161,633	-3,663	306,072	151,394
162,648	-3,471	305,912	151,501
163,662	-3,609	305,858	151,318
164,677	-3,629	305,576	151,144
165,692	-3,576	305,438	151,117
166,706	-3,483	305,160	151,063
167,721	-3,626	305,028	150,835
168,735	-3,654	304,850	150,705
169,750	-3,707	304,716	150,570
170,764	-3,685	304,422	150,434
171,779	-3,655	304,312	150,397
172,794	-3,537	304,042	150,373
173,808	-3,732	304,017	150,145
174,823	-3,601	303,636	150,079
175,837	-3,581	303,426	149,982
176,852	-3,610	303,137	149,796
177,867	-3,632	303,013	149,699
178,881	-3,600	302,819	149,623
179,896	-3,561	302,616	149,549
180,910	-3,683	302,415	149,311
181,925	-3,468	302,174	149,399
182,940	-3,476	302,075	149,328
183,954	-3,564	301,929	149,153
184,969	-3,539	301,575	148,991
185,983	-3,569	301,414	148,867
186,998	-3,538	301,149	148,754
188,013	-3,619	301,024	148,597
189,027	-3,691	300,777	148,388
190,042	-3,456	300,484	148,469
191,056	-3,648	300,363	148,201
192,071	-3,582	300,099	148,125
193,086	-3,570	299,953	148,053
194,100	-3,511	299,739	147,993
195,115	-3,474	299,486	147,893
196,129	-3,637	299,316	147,630
197,144	-3,677	299,068	147,454
198,159	-3,596	298,829	147,406
199,173	-3,656	298,727	147,281
200,188	-3,687	298,594	147,170
201,202	-3,436	298,272	147,253
202,217	-3,435	298,116	147,164
203,232	-3,581	297,828	146,861
204,246	-3,710	297,509	146,561
205,261	-3,601	297,330	146,569
206,275	-3,753	297,323	146,400
207,290	-3,604	296,984	146,369
208,304	-3,417	296,744	146,427
209,319	-3,574	296,569	146,169
210,334	-3,465	296,340	146,153
211,348	-3,351	296,089	146,130
212,363	-3,523	295,924	145,864
213,377	-3,528	295,660	145,715
214,392	-3,602	295,651	145,624
215,407	-3,570	295,236	145,439
216,421	-3,417	295,093	145,507
217,436	-3,470	294,911	145,351
218,450	-3,625	294,835	145,147
219,465	-3,609	294,581	145,024
220,480	-3,603	294,352	144,905
221,494	-3,367	294,136	145,020
222,509	-3,583	294,091	144,770
223,523	-3,424	293,756	144,751
224,538	-3,471	293,699	144,663
225,553	-3,509	293,365	144,448
226,567	-3,572	293,250	144,316
227,582	-3,673	293,188	144,173
228,596	-3,509	292,914	144,187
229,611	-3,558	292,671	144,006
230,626	-3,490	292,549	144,001
231,640	-3,653	292,408	143,757
232,655	-3,718	292,041	143,500
233,669	-3,695	291,925	143,452
234,684	-3,647	291,717	143,385
235,699	-3,461	291,508	143,452
236,713	-3,538	291,410	143,317
237,728	-3,475	291,013	143,170
238,742	-3,594	291,016	143,041
239,757	-3,561	290,776	142,944
240,772	-3,613	290,582	142,784
241,786	-3,391	290,344	142,872
242,801	-3,505	290,144	142,649
243,815	-3,577	290,004	142,498
244,830	-3,602	289,732	142,326
245,844	-3,413	289,484	142,376
246,859	-3,551	289,313	142,145
247,874	-3,458	289,277	142,205
248,888	-3,583	289,142	142,005
249,903	-3,644	288,898	141,813
250,917	-3,440	288,723	141,913
251,932	-3,693	288,612	141,599
252,947	-3,560	288,371	141,598
253,961	-3,575	288,065	141,420
254,976	-3,241	287,917	141,660
255,990	-3,222	287,830	141,622
257,005	-2,470	287,961	142,404
258,020	-0,836	288,625	144,308
259,034	0,304	288,854	145,517
260,049	0,610	288,762	145,755
261,063	1,226	288,760	146,339
262,078	1,552	288,709	146,616
263,093	1,860	288,758	146,926
264,107	2,112	288,438	146,994
265,122	2,181	288,470	147,064
266,136	2,429	288,301	147,205
267,151	2,433	288,126	147,106
268,166	2,305	287,953	146,881
269,180	2,322	287,737	146,775
270,195	2,451	287,564	146,798
271,209	2,325	287,314	146,536
272,224	2,299	287,141	146,409
273,239	2,185	287,007	146,218
274,253	2,178	286,940	146,164
275,268	2,350	286,457	146,071
276,282	2,199	286,443	145,906
277,297	2,125	286,186	145,691
278,312	2,222	285,958	145,654
279,326	2,381	285,740	145,683
280,341	2,291	285,675	145,550
281,355	2,148	285,563	145,343
282,370	2,116	285,220	145,126
283,384	2,163	285,254	145,175
284,399	2,156	284,859	144,953
285,414	2,051	284,592	144,705
286,428	2,235	284,557	144,850
287,443	2,230	284,199	144,649
288,457	2,146	284,088	144,500
289,472	2,080	283,884	144,321
290,487	1,947	283,747	144,112
291,501	1,915	283,568	143,978
292,516	2,056	283,312	143,969
293,530	2,012	283,268	143,892
294,545	2,008	283,083	143,781
295,560	2,180	282,757	143,766
296,574	1,940	282,723	143,509
297,589	1,854	282,447	143,274
298,603	2,008	282,223	143,293
299,618	2,118	282,117	143,330
300,633	2,069	281,863	143,142
301,647	1,873	281,848	142,937
302,662	2,201	281,540	143,077
303,676	2,229	281,376	143,008
304,691	2,112	281,253	142,822
305,706	2,355	281,006	142,912
306,720	2,371	280,848	142,835
307,735	2,286	280,677	142,655
308,749	2,286	280,648	142,628
309,764	2,203	280,382	142,401
310,779	2,173	280,188	142,263
311,793	2,224	279,847	142,124
312,808	2,311	279,639	142,088
313,822	2,151	279,529	141,870
314,837	2,158	279,335	141,765
315,852	2,350	279,185	141,855
316,866	2,272	279,143	141,748
317,881	2,293	278,875	141,619
318,895	2,210	278,678	141,429
319,910	2,231	278,433	141,311
320,925	2,159	278,109	141,068
321,939	2,085	278,252	141,059
322,954	2,092	277,945	140,898
323,968	2,325	277,821	141,038
324,983	2,242	277,687	140,880
325,997	2,125	277,488	140,658
327,012	2,276	277,250	140,665
328,027	2,332	277,137	140,647
329,041	2,486	277,012	140,714
330,056	2,379	276,794	140,492
331,070	2,379	276,520	140,340
332,085	2,439	276,400	140,322
333,100	2,299	276,219	140,088
334,114	2,545	275,934	140,157
335,129	2,297	275,846	139,872
336,143	2,420	275,690	139,894
337,158	2,235	275,481	139,605
338,173	2,322	275,302	139,582
339,187	2,220	275,134	139,391
340,202	2,484	274,906	139,504
341,216	2,397	274,598	139,256
342,231	2,313	274,503	139,119
343,246	2,469	274,416	139,205
344,260	2,433	274,297	139,099
345,275	2,415	274,194	139,018
346,289	2,499	273,920	138,944
347,304	2,511	273,640	138,800
348,319	2,383	273,554	138,628
349,333	2,290	273,392	138,448
350,348	2,226	273,217	138,289
351,362	2,621	272,969	138,510
352,377	2,357	272,836	138,191
353,392	2,503	272,715	138,250
354,406	2,592	272,396	138,156
355,421	189,356	1348,573	1420,666
356,435	152,785	1479,784	1420,793
