DTS Sentinel unit serial number:	SN410029Multiplexer serial number:	ORYXHardware model number:	OX2-SRSoftware version number:	ORYX F/W v4,00 Oryx Data Collector v3.7.2.0data status	okinstallation	B4 Nyhavnadifferential loss correction	single-endedforward channel	channel 2reverse channel	N/Adate	2023/12/18time	15:05:14forward acquisition time	300,00reverse acquisition time	0,00gamma	499,1914k internal	0,3190k external	0,3190temperature offset calibration	1,0000default loss term (dB/km)	0,3820temperature slope calibration	1,0000multiplexer offset coefficient	1,0000multiplexer slope coefficient	1,0000fibre end	0,00T internal ref (°C)	11,26T ext. ref 1 (°C)	7,07T ext. ref 2 (°C)	7,17length (m)	temperature (°C)	Stokes	anti-Stokes-744,400	24,980	0,101	0,061
-743,385	-106,794	-0,326	0,052
-742,371	800,000	0,079	0,216
-741,356	-13,773	-0,163	-0,077
-740,342	-33,023	0,096	-0,039
-739,327	-108,090	-0,336	-0,053
-738,312	204,837	-0,039	-0,045
-737,298	-43,550	-0,378	-0,139
-736,283	-109,043	0,153	0,023
-735,269	12,705	-0,165	0,093
-734,254	800,000	0,051	0,116
-733,239	-84,685	-0,410	-0,093
-732,225	-200,000	0,009	-0,102
-731,210	-29,483	0,140	-0,058
-730,196	53,996	-0,074	-0,052
-729,181	-200,000	-0,026	-0,093
-728,167	-84,175	0,061	-0,014
-727,152	-200,000	-0,011	0,050
-726,137	25,567	0,031	-0,019
-725,123	79,022	0,036	-0,028
-724,108	50,016	-0,140	-0,096
-723,094	207,195	-0,136	-0,155
-722,079	800,000	-0,039	-0,116
-721,064	-106,609	-0,112	-0,018
-720,050	800,000	-0,021	-0,056
-719,035	-92,532	-0,053	-0,011
-718,021	36,349	-0,087	-0,056
-717,006	512,623	0,066	0,112
-715,991	-20,052	-0,211	0,095
-714,977	-200,000	0,031	-0,182
-713,962	-200,000	0,015	-0,080
-712,948	112,832	-0,042	0,037
-711,933	-200,000	-0,000	-0,038
-710,918	128,267	-0,045	0,041
-709,904	-32,015	0,134	-0,054
-708,889	-138,519	0,075	-0,006
-707,875	316,263	0,081	-0,111
-706,860	800,000	0,041	-0,103
-705,845	-199,793	-0,050	-0,000
-704,831	-106,811	-0,006	-0,001
-703,816	88,924	0,039	-0,032
-702,802	-82,881	-0,059	0,014
-701,787	800,000	-0,056	0,118
-700,772	800,000	0,021	0,057
-699,758	-119,701	-0,093	-0,012
-698,743	-200,000	-0,000	0,127
-697,729	800,000	0,023	-0,048
-696,714	287,815	-0,016	-0,021
-695,699	-35,773	-0,046	-0,018
-694,685	-82,156	0,099	0,023
-693,670	800,000	-0,026	0,060
-692,656	-44,270	-0,096	0,035
-691,641	-150,431	0,093	0,005
-690,627	800,000	0,038	0,092
-689,612	800,000	-0,015	-0,036
-688,597	505,798	0,013	-0,022
-687,583	-33,589	-0,079	-0,032
-686,568	-8,827	-0,072	-0,035
-685,554	-149,926	0,088	-0,005
-684,539	769,861	-0,055	0,109
-683,524	447,754	-0,021	-0,034
-682,510	41,308	-0,026	-0,017
-681,495	-200,000	-0,019	0,075
-680,481	444,386	-0,025	-0,041
-679,466	-200,000	0,020	-0,092
-678,451	-94,248	-0,070	-0,014
-677,437	160,702	0,022	-0,023
-676,422	800,000	-0,028	0,085
-675,408	540,809	0,060	0,105
-674,393	152,531	-0,056	0,056
-673,378	-35,453	-0,143	-0,056
-672,364	-82,360	-0,098	-0,023
-671,349	800,000	0,042	-0,113
-670,335	98,543	0,074	-0,062
-669,320	149,347	0,044	0,043
-668,305	63,057	0,066	-0,048
-667,291	290,679	-0,034	-0,045
-666,276	-134,195	-0,062	-0,005
-665,262	-9,485	0,088	0,042
-664,247	-117,528	0,113	-0,015
-663,232	684,446	0,062	-0,119
-662,218	800,000	0,002	-0,007
-661,203	-50,229	-0,098	-0,034
-660,189	159,223	-0,125	0,126
-659,174	731,619	-0,057	-0,111
-658,159	121,762	0,072	-0,066
-657,145	240,307	-0,039	0,047
-656,130	-155,451	-0,008	0,000
-655,116	239,786	0,114	-0,139
-654,101	-200,000	-0,001	0,085
-653,086	-151,810	0,020	-0,001
-652,072	3,876	-0,067	0,035
-651,057	258,615	-0,082	-0,103
-650,043	800,000	0,026	-0,073
-649,028	128,477	-0,055	-0,050
-648,014	152,638	-0,014	0,014
-646,999	198,884	0,079	0,088
-645,984	312,296	-0,032	0,044
-644,970	800,000	0,049	-0,135
-643,955	441,896	-0,018	0,030
-642,941	489,735	0,031	-0,052
-641,926	295,348	0,054	-0,072
-640,911	-11,990	-0,030	0,014
-639,897	87,389	-0,074	-0,060
-638,882	-108,092	-0,130	0,020
-637,868	-200,000	-0,003	-0,105
-636,853	-11,552	0,009	-0,004
-635,838	-86,836	-0,059	0,013
-634,824	800,000	-0,057	0,125
-633,809	-49,749	0,063	0,022
-632,795	800,000	0,045	-0,133
-631,780	-200,000	-0,006	-0,055
-630,765	266,699	-0,020	0,026
-629,751	27,054	0,051	-0,031
-628,736	430,006	0,055	-0,086
-627,722	70,489	0,058	-0,044
-626,707	-41,081	-0,083	0,031
-625,692	-200,000	-0,001	0,022
-624,678	-108,107	-0,076	-0,012
-623,663	217,674	0,017	0,019
-622,649	163,517	-0,081	-0,083
-621,634	154,759	-0,061	-0,061
-620,619	412,028	0,036	0,055
-619,605	-157,870	-0,068	0,003
-618,590	-200,000	-0,044	0,144
-617,576	-200,000	-0,017	0,110
-616,561	-148,613	-0,130	0,008
-615,546	-64,597	0,044	-0,013
-614,532	800,000	-0,019	-0,047
-613,517	190,201	-0,017	0,018
-612,503	282,846	-0,154	0,202
-611,488	637,303	0,032	0,058
-610,474	43,252	-0,057	-0,038
-609,459	800,000	0,045	0,111
-608,444	265,507	0,033	-0,042
-607,430	192,087	0,037	0,040
-606,415	368,689	-0,093	-0,137
-605,401	364,365	-0,081	0,118
-604,386	81,896	0,070	0,055
-603,371	-182,338	0,029	0,000
-602,357	-200,000	-0,013	-0,091
-601,342	-155,268	-0,129	-0,006
-600,328	-68,651	-0,028	0,008
-599,313	-200,000	0,005	-0,093
-598,298	96,797	-0,076	-0,063
-597,284	-127,424	0,096	-0,010
-596,269	-88,064	-0,057	0,012
-595,255	-200,000	0,001	-0,052
-594,240	-200,000	0,004	0,108
-593,225	-57,519	0,123	-0,039
-592,211	607,436	-0,066	-0,120
-591,196	-200,000	-0,000	0,091
-590,182	124,343	0,083	-0,076
-589,167	170,354	0,055	-0,057
-588,152	226,030	0,069	0,082
-587,138	-2,817	-0,079	0,040
-586,123	-15,432	-0,207	-0,096
-585,109	205,916	-0,026	-0,029
-584,094	-61,330	-0,103	-0,031
-583,079	-200,000	0,047	0,194
-582,065	62,037	0,100	-0,073
-581,050	-95,954	-0,039	-0,008
-580,036	19,186	-0,097	0,056
-579,021	-200,000	-0,032	0,112
-578,006	-200,000	0,005	-0,102
-576,992	-110,680	0,045	0,007
-575,977	83,144	0,063	-0,049
-574,963	163,885	0,089	0,091
-573,948	-200,000	0,005	0,053
-572,934	35,806	-0,085	-0,054
-571,919	494,060	0,028	-0,046
-570,904	238,494	0,072	-0,086
-569,890	-44,128	-0,063	-0,023
-568,875	800,000	-0,007	0,020
-567,861	-200,000	0,005	-0,057
-566,846	-57,531	0,096	-0,030
-565,831	800,000	-0,017	-0,041
-564,817	800,000	0,026	-0,067
-563,802	125,448	-0,049	0,045
-562,788	-158,833	-0,033	0,001
-561,773	33,263	0,046	0,029
-560,758	-200,000	0,004	-0,026
-559,744	24,694	-0,113	-0,068
-558,729	-200,000	-0,002	0,021
-557,715	54,309	-0,058	0,041
-556,700	8,312	0,047	0,025
-555,685	204,731	0,118	-0,133
-554,671	-12,439	-0,048	0,023
-553,656	36,873	0,024	0,015
-552,642	773,578	0,036	0,072
-551,627	-200,000	-0,007	0,030
-550,612	800,000	-0,023	-0,047
-549,598	800,000	0,060	-0,133
-548,583	115,416	-0,052	-0,046
-547,569	344,271	0,034	0,049
-546,554	-200,000	0,003	-0,121
-545,539	-7,554	0,040	-0,020
-544,525	110,038	-0,078	0,068
-543,510	-23,567	-0,052	0,023
-542,496	-200,000	-0,002	-0,208
-541,481	-200,000	-0,013	-0,152
-540,466	48,674	0,020	-0,013
-539,452	58,131	0,006	0,004
-538,437	121,766	0,079	0,072
-537,423	-200,000	-0,030	0,142
-536,408	-200,000	-0,013	0,133
-535,393	-42,060	-0,131	0,048
-534,379	-64,143	-0,090	-0,026
-533,364	-42,796	-0,069	0,025
-532,350	-109,979	0,154	-0,023
-531,335	85,975	0,031	0,024
-530,321	-98,506	-0,118	0,022
-529,306	-200,000	-0,013	-0,113
-528,291	800,000	-0,082	-0,242
-527,277	55,269	-0,085	-0,060
-526,262	232,140	-0,044	0,052
-525,248	-200,000	0,012	0,054
-524,233	-200,000	0,014	0,102
-523,218	-135,371	0,106	0,009
-522,204	-200,000	0,017	-0,075
-521,189	-119,004	-0,038	0,005
-520,175	-34,849	-0,164	-0,065
-519,160	-180,840	0,086	0,001
-518,145	608,381	0,060	-0,109
-517,131	-200,000	0,039	-0,138
-516,116	-200,000	-0,001	-0,012
-515,102	-200,000	0,003	-0,081
-514,087	800,000	0,028	0,070
-513,072	36,552	-0,120	-0,077
-512,058	172,954	0,037	-0,039
-511,043	-42,317	-0,088	-0,032
-510,029	800,000	-0,056	-0,127
-509,014	353,367	-0,056	0,080
-507,999	-34,454	0,107	-0,042
-506,985	-200,000	-0,073	0,000
-505,970	-109,796	0,095	-0,014
-504,956	42,479	-0,084	-0,055
-503,941	-94,732	0,076	0,015
-502,926	-114,414	0,083	0,011
-501,912	-164,389	-0,112	-0,004
-500,897	192,091	0,115	0,125
-499,883	-90,563	0,067	-0,014
-498,868	-200,000	0,013	0,059
-497,853	140,408	-0,092	0,088
-496,839	57,169	-0,067	0,047
-495,824	800,000	0,058	0,141
-494,810	-200,000	0,016	-0,083
-493,795	-200,000	-0,002	0,021
-492,781	-200,000	0,013	-0,096
-491,766	567,052	-0,015	-0,026
-490,751	494,286	-0,046	-0,076
-489,737	-200,000	0,004	-0,012
-488,722	228,454	-0,014	0,017
-487,708	-2,643	-0,107	-0,054
-486,693	-41,571	-0,055	-0,020
-485,678	800,000	0,035	0,095
-484,664	268,152	0,076	0,097
-483,649	311,405	0,057	-0,077
-482,635	59,259	-0,015	-0,011
-481,620	252,933	0,071	0,087
-480,605	800,000	0,049	0,104
-479,591	-169,167	-0,076	-0,002
-478,576	128,846	0,013	0,012
-477,562	347,920	-0,027	-0,038
-476,547	-38,182	-0,143	-0,054
-475,532	112,730	0,084	-0,073
-474,518	-89,588	0,179	-0,038
-473,503	-200,000	0,013	0,066
-472,489	800,000	-0,045	0,109
-471,474	800,000	0,049	0,111
-470,459	-83,579	-0,039	0,009
-469,445	-75,689	0,045	-0,011
-468,430	43,994	0,130	0,086
-467,416	291,264	0,041	-0,054
-466,401	-200,000	-0,016	0,075
-465,386	-111,051	-0,076	0,011
-464,372	-43,265	0,115	-0,042
-463,357	422,845	-0,020	-0,031
-462,343	-200,000	0,012	0,042
-461,328	-24,137	-0,152	-0,065
-460,313	364,849	0,061	0,090
-459,299	-160,389	0,143	-0,005
-458,284	394,431	0,053	0,080
-457,270	143,219	-0,041	-0,039
-456,255	73,083	-0,082	0,062
-455,241	171,037	-0,101	0,104
-454,226	-76,128	0,062	-0,016
-453,211	691,638	0,028	-0,053
-452,197	-75,629	-0,041	-0,010
-451,182	188,949	0,070	-0,076
-450,168	400,131	0,035	0,053
-449,153	-200,000	-0,001	-0,090
-448,138	64,921	0,142	0,103
-447,124	-175,301	-0,159	-0,003
-446,109	-63,397	-0,098	0,029
-445,095	-200,000	0,007	0,056
-444,080	600,473	-0,045	0,080
-443,065	169,708	-0,049	0,050
-442,051	-200,000	0,011	-0,113
-441,036	-25,282	-0,052	-0,022
-440,022	800,000	0,018	-0,041
-439,007	-0,796	0,031	-0,016
-437,992	-61,568	0,197	0,059
-436,978	800,000	-0,077	0,171
-435,963	-200,000	0,008	0,106
-434,949	-86,447	-0,024	0,005
-433,934	-129,093	-0,195	0,019
-432,919	-200,000	-0,002	-0,146
-431,905	87,419	0,033	-0,026
-430,890	67,496	0,008	0,006
-429,876	-114,215	0,200	-0,027
-428,861	-14,805	-0,024	-0,011
-427,846	42,596	0,111	0,072
-426,832	214,818	-0,067	-0,077
-425,817	-200,000	-0,013	-0,168
-424,803	-83,689	-0,070	-0,016
-423,788	519,931	0,080	0,135
-422,773	-200,000	-0,015	-0,084
-421,759	58,043	-0,083	0,059
-420,744	232,953	-0,034	-0,040
-419,730	-200,000	0,006	0,023
-418,715	-65,781	0,022	-0,006
-417,701	101,348	-0,177	0,148
-416,686	-142,439	0,106	0,007
-415,671	-200,000	-0,016	-0,111
-414,657	-2,085	-0,170	-0,086
-413,642	39,632	0,074	0,048
-412,628	121,756	-0,038	-0,034
-411,613	292,807	-0,121	-0,160
-410,598	17,740	-0,030	-0,017
-409,584	-65,064	0,041	0,012
-408,569	149,701	-0,059	-0,058
-407,555	-200,000	-0,006	-0,112
-406,540	433,776	-0,027	0,043
-405,525	71,215	-0,101	0,075
-404,511	-125,374	-0,130	-0,014
-403,496	193,097	0,138	-0,150
-402,482	755,826	-0,025	0,050
-401,467	463,251	-0,051	-0,082
-400,452	-200,000	-0,004	0,081
-399,438	-200,000	0,025	0,126
-398,423	-13,265	0,094	0,044
-397,409	124,145	-0,113	-0,102
-396,394	-104,352	-0,076	0,013
-395,379	-54,096	-0,160	-0,052
-394,365	800,000	0,042	0,103
-393,350	543,080	-0,057	0,099
-392,336	86,874	0,105	0,084
-391,321	-118,124	-0,095	0,012
-390,306	800,000	-0,028	-0,058
-389,292	187,700	-0,067	-0,072
-388,277	-129,090	0,160	-0,016
-387,263	800,000	0,023	-0,053
-386,248	-157,441	0,143	0,006
-385,233	-116,888	0,068	-0,009
-384,219	289,018	0,034	0,044
-383,204	146,932	-0,019	0,018
-382,190	-173,288	-0,093	-0,002
-381,175	-90,425	0,135	0,028
-380,160	-200,000	0,010	0,074
-379,146	-143,816	0,177	-0,012
-378,131	530,815	0,038	0,065
-377,117	800,000	-0,022	-0,046
-376,102	40,097	0,034	0,022
-375,088	657,606	-0,071	-0,131
-374,073	-200,000	-0,026	0,096
-373,058	-128,508	0,082	0,008
-372,044	-35,905	0,025	-0,010
-371,029	86,029	-0,075	0,059
-370,015	-200,000	-0,002	-0,024
-369,000	63,662	-0,093	-0,067
-367,985	-28,912	0,029	-0,012
-366,971	800,000	0,014	-0,045
-365,956	68,752	0,058	-0,042
-364,942	-200,000	-0,002	0,064
-363,927	-200,000	-0,006	0,030
-362,912	-85,600	-0,130	-0,029
-361,898	-200,000	-0,012	-0,154
-360,883	88,419	-0,070	-0,056
-359,869	-184,275	0,098	0,001
-358,854	800,000	-0,054	-0,114
-357,839	266,136	0,047	-0,059
-356,825	-22,925	-0,033	0,014
-355,810	-200,000	-0,010	-0,065
-354,796	24,010	-0,166	0,098
-353,781	-82,089	-0,158	-0,037
-352,766	-96,611	-0,093	0,018
-351,752	-200,000	0,005	0,040
-350,737	54,070	0,155	-0,107
-349,723	800,000	-0,023	-0,064
-348,708	800,000	-0,046	-0,113
-347,693	-200,000	-0,006	0,056
-346,679	540,775	0,044	0,076
-345,664	-200,000	-0,007	-0,063
-344,650	-200,000	0,012	0,080
-343,635	-200,000	0,021	0,123
-342,620	-17,248	0,190	-0,086
-341,606	23,386	0,181	0,106
-340,591	161,416	0,062	0,063
-339,577	800,000	-0,003	-0,007
-338,562	-62,373	-0,132	0,039
-337,548	-200,000	-0,005	-0,072
-336,533	800,000	0,041	0,105
-335,518	-58,839	-0,072	0,022
-334,504	11,824	0,083	0,045
-333,489	178,749	-0,028	0,030
-332,475	800,000	0,013	0,039
-331,460	800,000	-0,063	-0,153
-330,445	-148,691	-0,076	-0,004
-329,431	211,341	0,124	0,140
-328,416	800,000	-0,010	0,019
-327,402	800,000	-0,080	0,206
-326,387	-200,000	0,005	0,025
-325,372	800,000	0,092	-0,233
-324,358	-200,000	-0,026	0,102
-323,343	-93,589	0,090	-0,018
-322,329	46,260	0,074	-0,049
-321,314	-74,254	-0,087	0,023
-320,299	211,903	0,169	0,191
-319,285	-81,552	0,049	-0,011
-318,270	38,332	-0,031	0,020
-317,256	122,105	-0,122	-0,110
-316,241	-200,000	-0,010	-0,036
-315,226	92,136	0,108	0,087
-314,212	800,000	0,076	0,153
-313,197	323,346	0,029	0,040
-312,183	22,099	-0,140	0,082
-311,168	-200,000	-0,039	0,198
-310,153	29,313	-0,090	0,055
-309,139	56,004	0,072	-0,050
-308,124	107,987	0,086	0,074
-307,110	19,937	-0,117	-0,067
-306,095	36,278	0,034	0,021
-305,080	392,852	-0,048	0,072
-304,066	-200,000	0,005	-0,091
-303,051	800,000	-0,017	-0,054
-302,037	800,000	0,054	0,117
-301,022	201,881	-0,062	-0,068
-300,008	161,184	0,081	-0,082
-298,993	194,368	-0,140	0,153
-297,978	-59,504	-0,036	-0,011
-296,964	-200,000	-0,002	0,026
-295,949	800,000	0,056	-0,116
-294,935	800,000	-0,034	-0,075
-293,920	585,082	-0,008	-0,013
-292,905	123,485	-0,108	-0,097
-291,891	148,717	0,017	0,016
-290,876	638,134	0,032	0,059
-289,862	800,000	-0,030	0,070
-288,847	-200,000	-0,003	0,026
-287,832	-17,343	-0,045	-0,020
-286,818	-87,149	0,108	0,023
-285,803	-134,644	0,110	0,009
-284,789	314,102	0,018	0,024
-283,774	800,000	0,040	-0,124
-282,759	-1,672	-0,131	-0,066
-281,745	-200,000	-0,168	0,000
-280,730	-200,000	-0,010	-0,075
-279,716	-200,000	-0,027	-0,167
-278,701	644,712	0,032	-0,058
-277,686	-200,000	-0,001	-0,168
-276,672	-96,481	0,030	-0,006
-275,657	-13,891	0,045	0,021
-274,643	-2,316	0,014	0,007
-273,628	-130,274	0,105	0,010
-272,613	-200,000	-0,018	0,080
-271,599	125,766	0,054	0,049
-270,584	800,000	0,046	0,130
-269,570	-200,000	0,016	0,078
-268,555	800,000	-0,037	0,097
-267,540	9,421	-0,073	0,039
-266,526	149,631	0,068	-0,066
-265,511	137,474	-0,054	-0,051
-264,497	41,049	0,051	-0,033
-263,482	467,299	0,081	0,131
-262,467	-0,303	0,031	0,015
-261,453	65,861	0,107	-0,078
-260,438	-199,643	0,106	0,000
-259,424	-96,087	-0,130	-0,024
-258,409	7,481	0,067	0,036
-257,395	-102,757	-0,099	0,017
-256,380	208,830	0,017	-0,019
-255,365	8,448	0,132	-0,071
-254,351	501,078	-0,083	0,137
-253,336	19,240	-0,119	-0,068
-252,322	533,438	-0,043	-0,073
-251,307	-200,000	-0,041	-0,142
-250,292	-200,000	0,007	0,096
-249,278	580,717	0,106	0,186
-248,263	-200,000	0,009	-0,107
-247,249	-85,509	0,088	0,019
-246,234	-73,347	-0,090	-0,023
-245,219	35,294	0,108	-0,068
-244,205	-200,000	-0,022	0,119
-243,190	322,065	-0,112	0,153
-242,176	138,868	0,112	0,105
-241,161	800,000	0,016	0,039
-240,146	-200,000	-0,009	-0,040
-239,132	-200,000	-0,039	-0,129
-238,117	-72,648	-0,060	-0,016
-237,103	169,617	-0,065	-0,066
-236,088	-200,000	-0,012	-0,088
-235,073	-88,621	0,158	0,033
-234,059	178,188	-0,070	0,073
-233,044	29,584	-0,086	-0,052
-232,030	36,075	0,051	-0,032
-231,015	-125,843	-0,154	-0,016
-230,000	362,182	0,033	-0,048
-228,986	153,697	0,120	-0,117
-227,971	-40,096	0,090	-0,033
-226,957	46,270	-0,063	0,042
-225,942	-95,167	-0,065	-0,012
-224,927	457,187	0,008	0,013
-223,913	-96,911	-0,157	0,029
-222,898	800,000	0,026	0,061
-221,884	-111,254	-0,012	-0,002
-220,869	800,000	-0,031	0,078
-219,855	93,918	0,058	-0,047
-218,840	17,026	0,161	0,091
-217,825	-200,000	-0,002	-0,045
-216,811	-200,000	0,003	-0,106
-215,796	191,372	0,053	-0,057
-214,782	189,650	0,064	-0,069
-213,767	-107,711	0,120	-0,019
-212,752	800,000	0,018	0,044
-211,738	-44,603	0,101	0,036
-210,723	352,573	0,037	0,052
-209,709	307,306	0,011	-0,015
-208,694	339,537	0,070	-0,097
-207,679	-150,284	-0,124	0,007
-206,665	-104,162	-0,164	-0,027
-205,650	-28,554	0,105	0,043
-204,636	800,000	0,047	0,131
-203,621	-200,000	0,016	0,086
-202,606	-74,564	-0,032	0,008
-201,592	-32,556	-0,051	0,020
-200,577	-200,000	0,005	-0,027
-199,563	77,071	-0,150	-0,113
-198,548	-80,769	0,153	-0,036
-197,533	232,452	0,055	-0,065
-196,519	-85,285	0,064	-0,014
-195,504	-200,000	0,037	-0,136
-194,490	-49,080	-0,095	0,032
-193,475	-83,307	0,097	0,022
-192,460	128,003	-0,063	-0,057
-191,446	63,966	0,107	0,077
-190,431	-54,645	0,056	-0,018
-189,417	53,025	0,066	-0,045
-188,402	800,000	-0,016	-0,037
-187,387	800,000	-0,023	0,060
-186,373	-96,500	0,087	-0,016
-185,358	113,409	0,093	-0,081
-184,344	193,059	0,037	0,039
-183,329	-200,000	0,001	-0,013
-182,315	800,000	-0,033	0,075
-181,300	-200,000	-0,004	0,062
-180,285	588,080	0,046	0,082
-179,271	764,037	-0,050	-0,097
-178,256	800,000	0,076	0,162
-177,242	343,642	-0,034	0,047
-176,227	-96,080	0,191	0,036
-175,212	-200,000	0,045	0,181
-174,198	250,863	0,063	0,076
-173,183	800,000	-0,037	0,101
-172,169	-77,334	0,069	0,017
-171,154	-53,598	-0,155	0,050
-170,139	-9,344	0,124	0,059
-169,125	-21,743	0,056	-0,024
-168,110	411,034	-0,017	0,026
-167,096	-200,000	0,021	-0,117
-166,081	-7,276	-0,100	-0,048
-165,066	260,868	0,115	-0,142
-164,052	51,910	0,121	-0,082
-163,037	-77,679	0,014	-0,004
-162,023	-12,969	0,057	-0,026
-161,008	-200,000	-0,002	0,036
-159,993	289,943	-0,085	0,110
-158,979	88,388	-0,069	0,055
-157,964	-96,945	0,064	0,012
-156,950	800,000	-0,023	0,049
-155,935	279,260	0,030	-0,038
-154,920	-200,000	-0,027	0,088
-153,906	-28,018	-0,032	0,013
-152,891	-200,000	-0,004	-0,030
-151,877	-31,338	-0,139	0,055
-150,862	800,000	-0,054	-0,160
-149,847	147,879	0,042	0,040
-148,833	-67,569	0,057	-0,016
-147,818	-54,929	0,024	-0,008
-146,804	-200,000	0,029	0,091
-145,789	99,981	0,065	0,054
-144,775	-113,131	-0,164	-0,023
-143,760	467,194	0,057	0,091
-142,745	-44,315	-0,069	-0,025
-141,731	-173,180	0,165	-0,004
-140,716	-200,000	0,001	0,010
-139,702	-200,000	-0,041	0,227
-138,687	-56,591	-0,055	0,017
-137,672	-90,629	-0,143	0,029
-136,658	-200,000	0,036	0,177
-135,643	-131,604	-0,097	0,009
-134,629	800,000	-0,028	0,085
-133,614	281,102	0,074	0,095
-132,599	138,818	0,053	-0,050
-131,585	-70,846	0,049	0,013
-130,570	101,323	0,050	0,042
-129,556	800,000	0,017	0,037
-128,541	-110,440	-0,113	-0,017
-127,526	107,963	-0,052	0,044
-126,512	-105,493	0,105	0,017
-125,497	-10,036	0,123	0,058
-124,483	169,229	-0,038	0,039
-123,468	-5,651	-0,089	0,043
-122,453	130,910	-0,103	0,094
-121,439	29,708	-0,091	0,055
-120,424	240,928	-0,040	-0,047
-119,410	-200,000	0,066	0,225
-118,395	321,734	0,034	-0,046
-117,380	102,648	-0,063	-0,052
-116,366	178,217	0,047	0,049
-115,351	-104,037	-0,081	-0,013
-114,337	-200,000	-0,030	-0,183
-113,322	-200,000	-0,019	-0,165
-112,307	233,356	0,035	-0,042
-111,293	-200,000	0,008	0,044
-110,278	37,494	-0,242	0,153
-109,264	639,383	0,075	-0,136
-108,249	-35,569	-0,121	-0,046
-107,234	800,000	-0,047	-0,110
-106,220	94,379	0,082	-0,066
-105,205	-62,984	0,142	0,042
-104,191	3,439	0,039	-0,020
-103,176	-200,000	-0,023	0,090
-102,162	75,247	0,023	-0,018
-101,147	-124,900	-0,082	0,009
-100,132	228,316	-0,051	-0,059
-99,118	-170,145	-0,073	-0,002
-98,103	-200,000	0,002	0,107
-97,089	800,000	0,025	0,058
-96,074	293,124	0,043	0,056
-95,059	325,562	0,048	0,065
-94,045	-95,765	0,034	-0,006
-93,030	726,017	-0,038	-0,072
-92,016	-200,000	-0,006	-0,073
-91,001	-69,680	-0,065	-0,018
-89,986	369,422	-0,076	0,110
-88,972	13,062	0,151	0,083
-87,957	-200,000	-0,030	0,104
-86,943	692,868	0,004	-0,007
-85,928	800,000	-0,033	0,066
-84,913	-97,521	0,068	0,012
-83,899	-13,997	0,130	-0,060
-82,884	-20,153	0,072	0,031
-81,870	-133,141	0,192	-0,017
-80,855	-200,000	0,000	-0,017
-79,840	-200,000	0,003	0,065
-78,826	-116,281	-0,079	0,010
-77,811	-200,000	-0,022	-0,084
-76,797	29,026	-0,065	0,039
-75,782	-30,193	0,057	0,023
-74,767	12,630	-0,166	-0,091
-73,753	800,000	-0,017	0,043
-72,738	29,387	-0,036	-0,022
-71,724	-71,352	-0,161	0,043
-70,709	-200,000	-0,015	-0,107
-69,694	-200,000	-0,014	-0,106
-68,680	341,212	-0,040	-0,055
-67,665	-200,000	-0,005	0,027
-66,651	134,567	0,010	-0,010
-65,636	-73,772	-0,101	0,026
-64,622	-200,000	0,162	0,000
-63,607	36,264	-0,113	0,071
-62,592	-73,466	0,038	-0,010
-61,578	62,391	-0,147	-0,104
-60,563	-36,907	0,125	-0,048
-59,549	-200,000	0,004	0,133
-58,534	46,152	-2,148	-1,411
-57,519	-200,000	0,040	-0,540
-56,505	-200,000	-1,315	-5,014
-55,490	161,468	0,938	0,933
-54,476	800,000	5,332	12,064
-53,461	-200,000	19,432	319,721
-52,446	800,000	746,102	2300,069
-51,432	551,051	1653,528	2829,795
-50,417	107,208	1629,539	1375,465
-49,403	71,979	1279,765	944,752
-48,388	27,456	1022,958	609,522
-47,373	17,668	986,336	555,735
-46,359	14,929	973,910	539,830
-45,344	11,676	970,389	527,315
-44,330	11,941	968,805	527,293
-43,315	11,380	966,750	524,339
-42,300	11,277	965,832	523,488
-41,286	11,264	964,724	522,824
-40,271	11,280	963,695	522,297
-39,257	11,335	962,688	521,909
-38,242	11,322	961,897	521,418
-37,227	11,276	961,144	520,842
-36,213	11,220	960,298	520,183
-35,198	11,224	959,270	519,616
-34,184	11,318	958,572	519,521
-33,169	11,228	957,538	518,650
-32,154	11,303	956,907	518,529
-31,140	11,342	955,806	518,034
-30,125	11,349	955,038	517,621
-29,111	11,282	954,293	516,983
-28,096	11,262	953,606	516,525
-27,082	11,321	952,855	516,289
-26,067	11,280	952,167	515,764
-25,052	11,236	951,296	515,131
-24,038	11,238	950,640	514,762
-23,023	11,259	949,911	514,415
-22,009	11,354	949,497	514,471
-20,994	11,361	948,821	514,107
-19,979	11,329	948,390	513,751
-18,965	11,263	947,702	513,148
-17,950	11,292	947,054	512,870
-16,936	11,290	946,304	512,437
-15,921	11,221	945,689	511,865
-14,906	11,216	944,849	511,375
-13,892	11,189	944,260	510,950
-12,877	11,128	943,667	510,418
-11,863	11,087	943,186	510,008
-10,848	11,188	942,532	509,950
-9,833	11,284	942,189	510,047
-8,819	11,235	941,385	509,438
-7,804	11,215	940,992	509,143
-6,790	11,225	940,158	508,703
-5,775	11,292	939,640	508,610
-4,760	11,269	938,912	508,126
-3,746	11,199	938,465	507,643
-2,731	10,999	937,739	506,604
-1,717	11,045	936,998	506,329
-0,702	11,013	936,511	505,946
0,313	10,833	935,851	505,789
1,327	14,422	934,242	516,072
2,342	23,604	804,597	468,940
3,356	20,768	510,023	292,443
4,371	1,434	386,095	196,413
5,386	-0,316	370,270	186,163
6,400	-0,571	364,585	182,974
7,415	-0,050	362,306	182,451
8,429	-0,070	360,759	181,631
9,444	-0,267	359,977	180,982
10,459	-0,019	359,271	180,912
11,473	-0,047	358,717	180,583
12,488	0,011	358,079	180,315
13,502	-0,105	357,493	179,865
14,517	0,122	357,076	179,912
15,531	0,487	356,665	180,127
16,546	0,427	356,336	179,873
17,561	0,683	355,630	179,807
18,575	0,494	355,462	179,479
19,590	0,552	355,089	179,344
20,604	0,467	354,688	179,024
21,619	0,577	354,225	178,907
22,634	0,444	353,948	178,592
23,648	0,517	353,566	178,470
24,663	0,499	353,165	178,230
25,677	0,537	352,811	178,080
26,692	0,546	352,583	177,961
27,707	0,609	352,178	177,815
28,721	0,646	351,925	177,715
29,736	0,479	351,559	177,316
30,750	0,429	351,281	177,102
31,765	0,616	350,942	177,136
32,780	0,526	350,775	176,929
33,794	0,612	350,294	176,772
34,809	0,454	350,251	176,549
35,823	0,628	349,785	176,503
36,838	0,500	349,538	176,212
37,853	0,526	349,155	176,034
38,867	0,446	348,939	175,815
39,882	0,404	348,758	175,660
40,896	0,547	348,335	175,598
41,911	0,603	348,106	175,532
42,926	0,643	347,836	175,427
43,940	0,509	347,484	175,077
44,955	0,511	347,198	174,920
45,969	0,553	347,044	174,876
46,984	0,617	346,708	174,765
47,999	0,358	346,421	174,304
49,013	0,270	346,108	174,029
50,028	0,325	345,695	173,869
51,042	0,092	345,577	173,524
52,057	0,148	345,252	173,410
53,071	0,190	345,033	173,333
54,086	0,172	344,796	173,179
55,101	0,527	344,466	173,408
56,115	0,419	344,237	173,153
57,130	0,549	344,020	173,178
58,144	0,462	343,780	172,941
59,159	0,518	343,344	172,770
60,174	0,524	343,148	172,664
61,188	0,498	343,003	172,545
62,203	0,522	342,779	172,445
63,217	0,683	342,174	172,310
64,232	0,416	342,251	172,027
65,247	0,287	341,846	171,660
66,261	0,324	341,448	171,487
67,276	0,549	341,273	171,642
68,290	0,389	341,149	171,381
69,305	0,339	340,701	171,083
70,320	0,549	340,431	171,171
71,334	0,452	340,330	170,996
72,349	0,516	339,830	170,802
73,363	0,387	339,678	170,564
74,378	0,412	339,431	170,453
75,393	0,325	339,251	170,248
76,407	0,586	339,057	170,432
77,422	0,582	338,790	170,279
78,436	0,455	338,493	169,969
79,451	0,475	338,085	169,773
80,466	0,443	337,722	169,539
81,480	0,482	337,490	169,451
82,495	0,528	337,525	169,506
83,509	0,374	337,351	169,229
84,524	0,674	336,743	169,247
85,539	0,449	336,665	168,940
86,553	0,551	336,381	168,897
87,568	0,440	336,242	168,688
88,582	0,468	335,921	168,542
89,597	0,545	335,648	168,476
90,611	0,480	335,415	168,272
91,626	0,539	335,286	168,259
92,641	0,499	335,065	168,087
93,655	0,553	334,752	167,976
94,670	0,590	334,514	167,883
95,684	0,509	334,299	167,670
96,699	0,535	333,970	167,519
97,714	0,463	333,813	167,345
98,728	0,412	333,487	167,110
99,743	0,517	333,210	167,073
100,757	0,429	333,085	166,898
101,772	0,464	332,770	166,763
102,787	0,511	332,390	166,610
103,801	0,512	332,217	166,510
104,816	0,434	332,165	166,383
105,830	0,634	331,756	166,384
106,845	0,570	331,571	166,205
107,860	0,566	331,327	166,065
108,874	0,456	330,985	165,756
109,889	0,530	330,748	165,705
110,903	0,417	330,450	165,416
111,918	0,591	330,136	165,436
112,933	0,583	330,053	165,371
113,947	0,476	329,954	165,188
114,962	0,378	329,642	164,909
115,976	0,581	329,547	165,071
116,991	0,445	329,295	164,780
118,006	0,547	328,929	164,694
119,020	0,513	328,789	164,572
120,035	0,541	328,718	164,553
121,049	0,563	328,372	164,389
122,064	0,467	328,272	164,219
123,079	0,558	327,905	164,121
124,093	0,529	327,654	163,949
125,108	0,487	327,464	163,793
126,122	0,355	327,261	163,533
127,137	0,238	327,055	163,287
128,151	0,444	326,642	163,291
129,166	0,460	326,504	163,225
130,181	0,328	326,388	163,009
131,195	0,380	326,126	162,920
132,210	0,489	325,710	162,816
133,224	0,592	325,636	162,877
134,239	0,456	325,384	162,588
135,254	0,353	325,088	162,314
136,268	0,463	324,821	162,286
137,283	0,419	324,541	162,083
138,297	0,194	324,315	161,713
139,312	0,384	324,005	161,749
140,327	0,391	323,826	161,654
141,341	0,534	323,709	161,735
142,356	0,450	323,487	161,518
143,370	0,516	323,287	161,475
144,385	0,517	323,076	161,357
145,400	0,621	322,837	161,335
146,414	0,595	322,582	161,165
147,429	0,565	322,390	161,022
148,443	0,496	322,241	160,860
149,458	0,492	321,929	160,686
150,473	0,367	321,642	160,394
151,487	0,483	321,356	160,361
152,502	0,605	321,365	160,481
153,516	0,503	321,150	160,251
154,531	0,527	320,744	160,060
155,546	0,590	320,601	160,042
156,560	0,532	320,344	159,837
157,575	0,614	320,072	159,774
158,589	0,416	319,786	159,407
159,604	0,428	319,808	159,416
160,619	0,772	319,363	159,546
161,633	0,709	319,223	159,394
162,648	0,620	319,190	159,269
163,662	0,558	318,785	158,987
164,677	0,670	318,494	158,947
165,692	0,503	318,478	158,748
166,706	0,642	318,186	158,734
167,721	0,689	318,038	158,696
168,735	0,622	317,953	158,569
169,750	0,547	317,670	158,334
170,764	0,459	317,325	158,056
171,779	0,503	317,136	157,994
172,794	0,568	317,003	157,981
173,808	0,612	316,737	157,882
174,823	0,432	316,427	157,524
175,837	0,344	316,225	157,317
176,852	0,522	316,051	157,404
177,867	0,393	315,820	157,138
178,881	0,571	315,659	157,231
179,896	0,534	315,625	157,161
180,910	0,336	315,383	156,820
181,925	0,302	315,215	156,687
182,940	0,545	314,864	156,753
183,954	0,497	314,668	156,590
184,969	0,615	314,564	156,648
185,983	0,688	314,302	156,580
186,998	0,638	314,090	156,407
188,013	0,708	313,734	156,289
189,027	0,556	313,701	156,100
190,042	0,503	313,325	155,845
191,056	0,429	313,237	155,710
192,071	0,296	312,903	155,393
193,086	0,505	312,633	155,461
194,100	0,465	312,428	155,304
195,115	0,365	312,376	155,161
196,129	0,667	311,944	155,245
197,144	0,498	311,893	155,030
198,159	0,513	311,513	154,844
199,173	0,455	311,387	154,707
200,188	0,201	311,232	154,355
201,202	0,228	311,049	154,278
202,217	0,410	310,754	154,305
203,232	0,406	310,345	154,084
204,246	0,404	310,383	154,087
205,261	0,470	310,223	154,061
206,275	0,536	310,006	154,008
207,290	0,684	309,744	154,015
208,304	0,683	309,521	153,890
209,319	0,612	309,281	153,684
210,334	0,543	308,982	153,451
211,348	0,542	308,924	153,408
212,363	0,393	308,867	153,213
213,377	0,525	308,375	153,091
214,392	0,408	308,339	152,939
215,407	0,499	308,023	152,863
216,421	0,494	307,844	152,755
217,436	0,543	307,709	152,723
218,450	0,428	307,398	152,439
219,465	0,265	307,428	152,274
220,480	0,570	307,002	152,360
221,494	0,495	306,941	152,240
222,509	0,450	306,756	152,089
223,523	0,529	306,495	152,025
224,538	0,533	306,351	151,945
225,553	0,370	306,323	151,753
226,567	0,700	305,925	151,875
227,582	0,488	305,809	151,590
228,596	0,361	305,712	151,400
229,611	0,400	305,504	151,323
230,626	0,528	305,155	151,265
231,640	0,436	304,953	151,059
232,655	0,292	304,691	150,771
233,669	0,307	304,410	150,634
234,684	0,413	304,307	150,676
235,699	0,476	304,147	150,646
236,713	0,601	303,865	150,619
237,728	0,620	303,722	150,553
238,742	0,498	303,503	150,310
239,757	0,407	303,291	150,100
240,772	0,350	303,002	149,886
241,786	0,372	302,976	149,882
242,801	0,566	302,796	149,973
243,815	0,508	302,481	149,747
244,830	0,327	302,293	149,459
245,844	0,336	302,063	149,342
246,859	0,310	301,831	149,187
247,874	0,270	301,740	149,089
248,888	0,221	301,366	148,842
249,903	0,157	301,407	148,785
250,917	0,271	301,137	148,752
251,932	0,187	300,993	148,585
252,947	0,009	300,416	148,110
253,961	-0,924	300,010	146,973
254,976	-0,035	300,244	147,956
255,990	1,310	300,556	149,429
257,005	1,932	300,799	150,152
258,020	3,276	301,197	151,670
259,034	4,114	301,122	152,448
260,049	3,964	301,069	152,259
261,063	4,101	300,897	152,294
262,078	4,346	300,714	152,430
263,093	4,552	300,708	152,617
264,107	4,480	300,500	152,427
265,122	4,833	300,395	152,708
266,136	5,000	300,167	152,743
267,151	4,981	300,060	152,656
268,166	4,943	299,758	152,451
269,180	4,788	299,703	152,257
270,195	4,789	299,328	152,055
271,209	4,814	299,127	151,963
272,224	4,512	299,078	151,629
273,239	4,543	298,761	151,484
274,253	4,729	298,241	151,389
275,268	4,551	298,343	151,254
276,282	4,610	298,141	151,196
277,297	4,697	297,814	151,101
278,312	4,797	297,935	151,247
279,326	4,637	297,685	150,950
280,341	4,590	297,609	150,852
281,355	4,495	297,182	150,530
282,370	4,592	296,955	150,496
283,384	4,561	296,755	150,351
284,399	4,695	296,438	150,308
285,414	4,693	296,307	150,225
286,428	4,430	296,210	149,908
287,443	4,482	295,868	149,772
288,457	4,294	295,633	149,457
289,472	4,310	295,457	149,370
290,487	4,321	295,357	149,317
291,501	4,310	295,072	149,149
292,516	4,255	294,944	149,018
293,530	4,202	294,874	148,918
294,545	4,300	294,577	148,849
295,560	4,349	294,354	148,770
296,574	3,946	294,197	148,289
297,589	3,874	293,935	148,074
298,603	4,004	293,732	148,084
299,618	4,073	293,582	148,062
300,633	4,161	293,495	148,089
301,647	4,045	293,311	147,872
302,662	4,304	293,057	147,979
303,676	4,412	292,842	147,961
304,691	4,521	292,651	147,955
305,706	4,377	292,649	147,804
306,720	4,490	292,560	147,853
307,735	4,789	292,272	147,981
308,749	4,544	292,205	147,700
309,764	4,581	291,842	147,539
310,779	4,698	291,592	147,510
311,793	4,314	291,550	147,110
312,808	4,468	291,253	147,094
313,822	4,521	290,998	147,002
314,837	4,470	290,877	146,879
315,852	4,390	290,730	146,716
316,866	4,466	290,579	146,699
317,881	4,538	290,358	146,642
318,895	4,441	290,131	146,423
319,910	4,258	289,949	146,144
320,925	4,455	289,762	146,223
321,939	4,476	289,690	146,195
322,954	4,503	289,406	146,064
323,968	4,498	289,392	146,038
324,983	4,607	289,145	146,004
325,997	4,667	288,865	145,906
327,012	4,610	288,698	145,755
328,027	4,679	288,557	145,736
329,041	4,489	288,502	145,516
330,056	4,445	288,187	145,302
331,070	4,587	287,949	145,304
332,085	4,572	287,845	145,223
333,100	4,566	287,619	145,090
334,114	4,663	287,370	145,043
335,129	4,574	287,147	144,835
336,143	4,631	286,987	144,794
337,158	4,839	286,848	144,906
338,173	4,590	286,778	144,625
339,187	4,620	286,542	144,521
340,202	4,533	286,302	144,306
341,216	4,430	286,183	144,136
342,231	4,517	285,908	144,066
343,246	4,659	285,780	144,122
344,260	4,426	285,683	143,843
345,275	4,654	285,475	143,938
346,289	4,846	285,281	144,005
347,304	4,816	284,985	143,816
348,319	4,704	284,900	143,655
349,333	4,678	284,734	143,534
350,348	4,577	284,504	143,312
351,362	4,642	284,353	143,283
352,377	4,786	284,200	143,327
353,392	4,583	283,935	142,993
354,406	4,677	283,825	143,011
355,421	195,804	1345,267	1409,684
356,435	158,621	1474,501	1409,636
