DTS Sentinel unit serial number:	SN410029Multiplexer serial number:	ORYXHardware model number:	OX2-SRSoftware version number:	ORYX F/W v4,00 Oryx Data Collector v3.7.2.0data status	okinstallation	B4 Nyhavnadifferential loss correction	single-endedforward channel	channel 2reverse channel	N/Adate	2023/12/15time	14:35:13forward acquisition time	300,00reverse acquisition time	0,00gamma	499,1914k internal	0,3160k external	0,3160temperature offset calibration	1,0000default loss term (dB/km)	0,3820temperature slope calibration	1,0000multiplexer offset coefficient	1,0000multiplexer slope coefficient	1,0000fibre end	0,00T internal ref (°C)	15,17T ext. ref 1 (°C)	1,73T ext. ref 2 (°C)	1,88length (m)	temperature (°C)	Stokes	anti-Stokes-744,400	-47,268	0,090	-0,032
-743,385	98,400	-0,127	-0,107
-742,371	-200,000	0,036	0,131
-741,356	-76,221	-0,365	-0,094
-740,342	-10,629	0,075	0,036
-739,327	-134,174	-0,340	0,030
-738,312	270,385	0,037	-0,048
-737,298	-113,686	-0,234	-0,033
-736,283	-128,247	0,157	-0,016
-735,269	-76,211	-0,168	0,043
-734,254	-200,000	-0,033	0,126
-733,239	29,878	-0,397	-0,248
-732,225	70,737	0,195	0,148
-731,210	348,396	-0,054	0,079
-730,196	442,132	0,087	-0,141
-729,181	-200,000	-0,013	0,046
-728,167	139,478	-0,088	-0,086
-727,152	681,829	-0,048	0,092
-726,137	-137,817	-0,148	0,012
-725,123	22,772	-0,058	-0,035
-724,108	763,146	-0,092	-0,185
-723,094	51,991	-0,139	-0,098
-722,079	-22,383	-0,161	-0,072
-721,064	-39,313	-0,111	0,043
-720,050	102,523	0,061	-0,053
-719,035	800,000	-0,031	-0,070
-718,021	-21,695	-0,189	-0,084
-717,006	415,183	-0,073	-0,114
-715,991	6,074	-0,170	-0,092
-714,977	-200,000	-0,007	-0,144
-713,962	129,625	-0,042	-0,039
-712,948	-66,993	-0,024	-0,007
-711,933	-110,988	0,032	-0,005
-710,918	-149,899	-0,070	0,004
-709,904	800,000	0,021	0,057
-708,889	175,273	-0,049	0,052
-707,875	-33,305	-0,109	0,044
-706,860	162,487	-0,042	-0,043
-705,845	620,591	-0,015	-0,027
-704,831	800,000	-0,030	-0,062
-703,816	-49,184	-0,060	0,021
-702,802	-44,859	0,126	0,046
-701,787	53,876	-0,123	-0,087
-700,772	16,133	-0,110	0,063
-699,758	54,157	0,035	-0,025
-698,743	-200,000	0,024	0,105
-697,729	-104,309	0,076	0,013
-696,714	-132,640	0,104	0,010
-695,699	-200,000	0,012	-0,083
-694,685	-200,000	-0,026	-0,104
-693,670	-200,000	-0,003	-0,038
-692,656	-4,866	-0,063	-0,032
-691,641	-103,882	0,140	-0,024
-690,627	-22,914	0,094	-0,042
-689,612	83,259	0,037	-0,029
-688,597	476,168	0,048	-0,079
-687,583	800,000	0,050	-0,153
-686,568	-79,574	-0,063	-0,015
-685,554	-200,000	-0,039	-0,140
-684,539	-144,640	0,081	0,005
-683,524	800,000	-0,023	-0,052
-682,510	-132,555	-0,107	-0,010
-681,495	-200,000	-0,000	-0,034
-680,481	800,000	0,029	0,082
-679,466	-200,000	-0,013	-0,105
-678,451	-200,000	-0,032	-0,140
-677,437	-117,543	0,079	-0,010
-676,422	-200,000	0,019	-0,114
-675,408	326,998	-0,060	-0,085
-674,393	-27,431	-0,053	0,022
-673,378	681,860	-0,093	-0,180
-672,364	33,736	-0,076	-0,049
-671,349	-115,542	-0,161	0,022
-670,335	-142,338	-0,036	0,003
-669,320	3,441	0,110	0,059
-668,305	-104,848	-0,075	-0,013
-667,291	-200,000	-0,019	-0,080
-666,276	800,000	-0,056	-0,133
-665,262	800,000	-0,050	-0,108
-664,247	570,640	0,082	-0,147
-663,232	-200,000	0,023	0,080
-662,218	-140,779	0,081	-0,006
-661,203	800,000	0,014	0,042
-660,189	-165,079	0,165	0,005
-659,174	-14,929	-0,147	-0,069
-658,159	-200,000	0,013	-0,066
-657,145	134,064	-0,071	-0,068
-656,130	-84,587	0,143	-0,033
-655,116	190,772	-0,095	0,106
-654,101	800,000	-0,032	-0,083
-653,086	29,120	0,033	0,021
-652,072	-123,915	-0,176	0,020
-651,057	-200,000	-0,013	-0,074
-650,043	800,000	-0,041	-0,108
-649,028	166,127	0,034	0,036
-648,014	-200,000	-0,004	0,092
-646,999	351,677	-0,008	0,011
-645,984	218,184	-0,040	-0,047
-644,970	800,000	-0,018	-0,053
-643,955	-154,358	0,104	0,005
-642,941	36,629	0,039	0,026
-641,926	800,000	-0,028	0,078
-640,911	-2,313	0,127	-0,065
-639,897	-200,000	-0,019	0,079
-638,882	48,578	-0,072	0,049
-637,868	-200,000	0,011	-0,210
-636,853	-22,441	0,102	-0,045
-635,838	-105,111	-0,102	-0,017
-634,824	-200,000	0,009	-0,049
-633,809	-97,049	0,050	-0,010
-632,795	-200,000	0,016	0,060
-631,780	-22,916	-0,045	0,020
-630,765	-200,000	-0,024	0,134
-629,751	71,143	-0,042	-0,032
-628,736	365,124	-0,032	-0,048
-627,722	127,086	-0,147	0,137
-626,707	-119,149	0,126	0,016
-625,692	53,841	-0,124	0,088
-624,678	-118,842	-0,069	0,009
-623,663	-78,762	-0,099	0,025
-622,649	-35,471	-0,084	-0,033
-621,634	800,000	0,030	0,068
-620,619	-85,576	-0,102	0,023
-619,605	400,577	0,071	0,110
-618,590	800,000	-0,054	-0,150
-617,576	-200,000	0,001	-0,030
-616,561	10,619	0,122	-0,068
-615,546	-63,855	0,020	-0,006
-614,532	82,371	0,093	-0,074
-613,517	-200,000	-0,002	0,025
-612,503	800,000	0,014	-0,033
-611,488	344,634	-0,047	-0,068
-610,474	577,707	0,024	-0,043
-609,459	-200,000	0,004	-0,024
-608,444	-85,810	-0,058	-0,013
-607,430	-166,282	-0,100	-0,003
-606,415	40,533	-0,052	-0,034
-605,401	55,759	-0,132	-0,094
-604,386	-200,000	0,003	0,141
-603,371	255,195	0,160	0,201
-602,357	-160,042	-0,098	0,004
-601,342	158,793	-0,074	-0,076
-600,328	-19,963	0,026	0,012
-599,313	-74,765	-0,074	0,019
-598,298	-200,000	-0,020	0,105
-597,284	800,000	-0,022	0,054
-596,269	-96,208	0,056	0,011
-595,255	14,706	-0,057	-0,033
-594,240	192,911	-0,072	-0,080
-593,225	15,525	-0,078	0,045
-592,211	-71,697	-0,107	0,029
-591,196	687,154	-0,014	0,027
-590,182	-200,000	-0,010	-0,054
-589,167	-7,413	-0,102	-0,050
-588,152	211,042	0,030	0,035
-587,138	589,241	0,007	-0,013
-586,123	-200,000	0,012	-0,146
-585,109	-64,787	0,070	-0,021
-584,094	-163,329	-0,052	-0,002
-583,079	-134,888	0,069	0,006
-582,065	-200,000	-0,005	-0,036
-581,050	397,854	0,061	0,094
-580,036	5,621	-0,146	0,079
-579,021	-200,000	-0,002	-0,090
-578,006	34,415	-0,031	-0,020
-576,992	-200,000	0,008	-0,089
-575,977	-200,000	0,013	0,138
-574,963	-69,300	0,051	0,014
-573,948	-200,000	0,001	-0,165
-572,934	-200,000	-0,020	-0,086
-571,919	245,673	-0,076	-0,094
-570,904	51,846	-0,121	-0,084
-569,890	-200,000	-0,001	0,050
-568,875	88,638	-0,065	-0,053
-567,861	800,000	0,016	-0,036
-566,846	429,818	0,020	0,032
-565,831	20,253	-0,190	-0,112
-564,817	-200,000	-0,007	-0,120
-563,802	237,844	0,077	-0,094
-562,788	50,256	0,041	0,028
-561,773	-100,302	0,075	0,014
-560,758	-148,125	0,221	-0,013
-559,744	-35,834	-0,148	-0,058
-558,729	-200,000	0,027	0,092
-557,715	-42,387	0,154	-0,057
-556,700	-101,225	-0,115	-0,020
-555,685	3,791	-0,111	0,059
-554,671	-200,000	-0,012	0,112
-553,656	204,515	0,109	0,124
-552,642	170,310	-0,042	-0,045
-551,627	114,656	0,018	-0,016
-550,612	-34,106	-0,100	0,040
-549,598	-200,000	-0,025	-0,092
-548,583	-200,000	0,013	-0,093
-547,569	800,000	0,022	0,056
-546,554	340,295	0,092	0,131
-545,539	-78,386	-0,094	-0,023
-544,525	800,000	-0,023	0,075
-543,510	403,888	-0,028	0,043
-542,496	800,000	-0,013	-0,034
-541,481	-200,000	-0,003	-0,016
-540,466	-114,145	0,109	0,015
-539,452	800,000	0,046	0,113
-538,437	-112,184	0,126	0,018
-537,423	-96,466	-0,161	-0,031
-536,408	7,391	-0,059	-0,032
-535,393	-200,000	0,001	-0,055
-534,379	800,000	0,044	-0,094
-533,364	67,558	0,082	-0,061
-532,350	724,511	0,051	-0,100
-531,335	87,500	-0,049	0,040
-530,321	138,570	0,098	0,094
-529,306	-61,742	-0,079	0,024
-528,291	209,236	-0,055	-0,063
-527,277	-200,000	0,008	0,053
-526,262	-200,000	0,021	-0,150
-525,248	375,256	0,075	0,113
-524,233	-1,554	0,113	-0,058
-523,218	-200,000	-0,009	0,107
-522,204	-78,699	0,085	-0,021
-521,189	-200,000	-0,009	-0,040
-520,175	800,000	0,031	-0,089
-519,160	377,859	0,047	-0,070
-518,145	-200,000	-0,011	0,071
-517,131	64,406	0,053	0,039
-516,116	32,784	-0,062	-0,039
-515,102	672,653	0,085	-0,161
-514,087	-167,017	-0,166	0,005
-513,072	-117,823	0,148	-0,019
-512,058	-66,865	0,058	0,017
-511,043	-42,731	0,058	0,021
-510,029	-133,079	0,058	0,005
-509,014	175,735	0,122	-0,129
-507,999	-200,000	0,005	0,046
-506,985	67,008	-0,053	-0,040
-505,970	292,756	0,025	-0,033
-504,956	-176,308	0,032	-0,001
-503,941	209,523	-0,063	-0,072
-502,926	48,272	-0,084	0,058
-501,912	425,859	-0,033	0,052
-500,897	-21,149	0,023	-0,010
-499,883	-200,000	0,026	0,103
-498,868	343,476	0,086	-0,123
-497,853	-200,000	-0,019	0,069
-496,839	-8,339	0,023	-0,011
-495,824	24,389	0,112	-0,068
-494,810	-200,000	-0,015	0,075
-493,795	-200,000	0,015	0,072
-492,781	223,307	-0,042	-0,049
-491,766	-200,000	-0,002	-0,023
-490,751	-81,428	0,115	-0,027
-489,737	54,956	0,013	-0,009
-488,722	-155,728	0,022	0,001
-487,708	74,215	-0,114	0,088
-486,693	-121,385	0,134	0,016
-485,678	450,187	-0,098	-0,158
-484,664	-157,043	-0,147	-0,006
-483,649	-102,763	-0,113	0,019
-482,635	303,333	0,080	-0,108
-481,620	17,502	-0,176	-0,102
-480,605	-58,839	0,089	-0,028
-479,591	184,910	-0,021	0,023
-478,576	-200,000	0,026	0,102
-477,562	674,243	0,043	0,081
-476,547	-200,000	-0,008	-0,110
-475,532	800,000	0,037	-0,089
-474,518	-48,436	-0,121	-0,042
-473,503	-200,000	0,016	0,089
-472,489	46,746	0,108	0,073
-471,474	-200,000	0,010	-0,117
-470,459	-92,303	-0,031	-0,006
-469,445	-127,309	-0,071	0,007
-468,430	-26,095	0,076	-0,032
-467,416	-200,000	0,006	0,098
-466,401	-26,674	0,139	0,059
-465,386	-200,000	0,007	0,120
-464,372	-122,966	-0,028	-0,003
-463,357	204,100	-0,067	-0,076
-462,343	12,594	0,141	-0,079
-461,328	-200,000	0,035	0,123
-460,313	90,424	0,115	0,093
-459,299	110,693	-0,063	0,056
-458,284	722,471	-0,040	0,079
-457,270	800,000	-0,008	0,021
-456,255	-159,585	-0,069	-0,003
-455,241	730,784	0,050	0,098
-454,226	-136,220	0,079	-0,007
-453,211	800,000	0,008	-0,021
-452,197	-107,030	0,080	0,013
-451,182	-7,847	0,049	-0,024
-450,168	-200,000	0,009	-0,145
-449,153	357,690	0,057	0,083
-448,138	-187,962	0,029	0,000
-447,124	188,467	-0,102	-0,112
-446,109	-196,236	-0,055	0,000
-445,095	-200,000	-0,016	0,127
-444,080	780,848	0,010	0,019
-443,065	279,717	0,029	-0,038
-442,051	800,000	0,009	-0,021
-441,036	800,000	-0,029	-0,081
-440,022	-77,054	-0,112	-0,028
-439,007	91,976	-0,108	0,089
-437,992	-200,000	0,002	0,134
-436,978	-52,882	0,119	0,040
-435,963	-200,000	-0,007	-0,051
-434,949	-20,596	-0,054	-0,024
-433,934	-200,000	0,005	-0,025
-432,919	10,294	0,014	-0,008
-431,905	800,000	0,041	0,088
-430,890	-82,112	-0,050	-0,012
-429,876	64,195	0,025	0,018
-428,861	76,108	-0,081	-0,062
-427,846	200,882	0,055	-0,062
-426,832	-101,420	-0,033	0,006
-425,817	-200,000	-0,002	-0,012
-424,803	132,361	-0,076	0,071
-423,788	-98,634	0,075	0,014
-422,773	800,000	0,020	0,047
-421,759	4,865	-0,079	0,042
-420,744	162,590	-0,084	-0,085
-419,730	726,276	0,034	-0,065
-418,715	-200,000	-0,021	-0,072
-417,701	159,844	-0,070	-0,071
-416,686	-90,985	0,102	0,021
-415,671	383,749	-0,025	-0,038
-414,657	-50,311	0,084	0,029
-413,642	800,000	0,038	0,117
-412,628	800,000	0,084	-0,214
-411,613	-200,000	-0,009	-0,178
-410,598	800,000	-0,077	-0,172
-409,584	575,263	-0,052	0,093
-408,569	206,004	-0,077	0,087
-407,555	800,000	0,030	0,064
-406,540	-119,071	-0,036	-0,005
-405,525	72,750	0,037	-0,028
-404,511	800,000	-0,025	-0,076
-403,496	-170,900	-0,175	0,004
-402,482	204,190	0,084	0,094
-401,467	106,440	0,097	0,084
-400,452	800,000	0,020	0,041
-399,438	-200,000	-0,004	-0,020
-398,423	-94,758	-0,045	0,009
-397,409	19,655	0,024	0,014
-396,394	-127,210	-0,076	0,008
-395,379	81,872	0,053	0,042
-394,365	-117,687	0,154	0,020
-393,350	19,968	-0,094	0,055
-392,336	100,790	0,054	-0,046
-391,321	69,992	-0,061	0,046
-390,306	-101,761	-0,043	0,008
-389,292	-200,000	-0,001	0,062
-388,277	-200,000	-0,007	0,041
-387,263	800,000	0,063	-0,136
-386,248	278,783	-0,091	0,119
-385,233	294,496	-0,036	0,047
-384,219	127,072	-0,033	0,030
-383,204	-200,000	-0,012	0,067
-382,190	800,000	0,030	-0,071
-381,175	290,550	0,045	0,060
-380,160	443,079	-0,058	-0,093
-379,146	380,000	0,008	0,012
-378,131	-164,577	0,046	0,001
-377,117	-36,621	-0,137	0,053
-376,102	800,000	0,018	-0,052
-375,088	-47,219	-0,170	0,060
-374,073	-15,426	-0,020	-0,009
-373,058	800,000	0,030	0,076
-372,044	-200,000	-0,010	0,093
-371,029	-200,000	0,019	0,165
-370,015	-200,000	0,008	0,039
-369,000	276,929	-0,100	0,129
-367,985	-92,566	-0,155	-0,031
-366,971	-200,000	0,035	-0,135
-365,956	-40,467	0,121	0,046
-364,942	-200,000	0,007	0,064
-363,927	-35,494	0,137	0,054
-362,912	392,208	0,068	-0,103
-361,898	-200,000	0,005	-0,037
-360,883	-47,141	-0,193	-0,068
-359,869	-200,000	0,001	-0,083
-358,854	66,446	-0,041	-0,030
-357,839	-200,000	0,036	0,175
-356,825	-200,000	0,002	0,089
-355,810	-70,373	0,065	-0,018
-354,796	615,130	-0,031	-0,057
-353,781	-30,168	0,030	-0,012
-352,766	800,000	0,034	-0,076
-351,752	-135,763	0,111	0,009
-350,737	800,000	0,032	0,090
-349,723	-200,000	0,017	0,100
-348,708	311,410	0,169	0,231
-347,693	219,543	-0,120	-0,140
-346,679	-200,000	-0,035	-0,175
-345,664	-200,000	0,006	-0,082
-344,650	256,692	-0,064	0,080
-343,635	-126,758	-0,088	-0,009
-342,620	437,746	0,062	0,098
-341,606	25,827	0,046	-0,027
-340,591	-200,000	-0,021	0,156
-339,577	800,000	-0,025	-0,067
-338,562	-200,000	0,026	0,096
-337,548	-10,812	0,161	-0,077
-336,533	-200,000	-0,002	-0,030
-335,518	-200,000	0,028	-0,090
-334,504	23,785	-0,116	0,069
-333,489	-118,609	0,125	0,016
-332,475	-83,717	-0,073	0,017
-331,460	-61,390	-0,097	-0,029
-330,445	301,244	-0,073	0,097
-329,431	-158,402	0,122	0,005
-328,416	-32,703	0,005	-0,002
-327,402	227,225	-0,050	0,059
-326,387	-97,595	-0,172	-0,032
-325,372	-140,364	0,173	-0,013
-324,358	-12,230	-0,026	0,012
-323,343	-83,712	0,097	-0,022
-322,329	-18,668	-0,072	-0,032
-321,314	-141,675	-0,044	-0,003
-320,299	211,506	-0,069	0,079
-319,285	629,937	-0,047	0,086
-318,270	37,277	-0,100	0,064
-317,256	1,544	-0,030	-0,015
-316,241	800,000	0,041	0,104
-315,226	22,478	0,079	-0,047
-314,212	800,000	0,032	0,067
-313,197	130,541	0,016	0,015
-312,183	293,286	0,087	-0,115
-311,168	448,535	0,012	0,020
-310,153	-10,848	-0,061	-0,029
-309,139	-200,000	-0,034	-0,124
-308,124	292,244	0,027	0,036
-307,110	381,421	-0,025	0,037
-306,095	-136,736	0,040	-0,003
-305,080	-200,000	-0,001	0,043
-304,066	107,030	0,105	0,090
-303,051	101,072	0,107	-0,090
-302,037	800,000	-0,025	-0,054
-301,022	800,000	0,032	0,090
-300,008	270,950	-0,062	0,080
-298,993	800,000	0,046	0,120
-297,978	704,291	0,035	-0,068
-296,964	-200,000	0,017	-0,141
-295,949	-91,969	-0,139	-0,028
-294,935	52,231	0,085	-0,059
-293,920	-200,000	-0,018	-0,168
-292,905	104,711	0,081	0,069
-291,891	-200,000	-0,012	0,098
-290,876	95,428	0,049	0,040
-289,862	-109,158	0,118	-0,018
-288,847	-31,049	0,039	-0,016
-287,832	-200,000	0,008	0,029
-286,818	-200,000	-0,013	-0,132
-285,803	-200,000	-0,012	-0,130
-284,789	-0,775	0,091	-0,047
-283,774	594,858	0,048	-0,087
-282,759	-200,000	0,015	-0,197
-281,745	-200,000	-0,040	-0,231
-280,730	-200,000	0,004	-0,050
-279,716	-101,852	0,112	-0,019
-278,701	-30,879	0,068	0,028
-277,686	-22,714	0,073	0,032
-276,672	-200,000	-0,007	0,113
-275,657	86,607	0,061	0,049
-274,643	-158,820	-0,110	-0,004
-273,628	-66,309	-0,062	0,018
-272,613	-109,375	0,161	-0,024
-271,599	-114,792	-0,095	-0,013
-270,584	800,000	0,037	-0,088
-269,570	215,301	0,069	-0,080
-268,555	113,998	-0,024	-0,022
-267,540	-200,000	-0,034	-0,112
-266,526	315,033	-0,017	-0,023
-265,511	-7,429	0,052	0,025
-264,497	-178,847	-0,075	-0,001
-263,482	-64,031	0,063	-0,019
-262,467	114,516	0,058	0,051
-261,453	-200,000	0,020	0,069
-260,438	800,000	0,030	-0,086
-259,424	603,316	-0,095	-0,172
-258,409	35,777	-0,109	-0,069
-257,395	233,801	0,102	-0,121
-256,380	800,000	-0,026	0,063
-255,365	-77,711	-0,136	-0,034
-254,351	-125,430	0,107	0,012
-253,336	-200,000	-0,056	0,180
-252,322	-200,000	0,011	0,099
-251,307	115,036	-0,071	-0,063
-250,292	-60,319	0,115	-0,035
-249,278	-200,000	0,021	0,107
-248,263	-118,020	0,127	0,016
-247,249	94,823	-0,086	-0,071
-246,234	-200,000	0,029	-0,107
-245,219	-200,000	0,008	0,048
-244,205	441,409	0,011	0,018
-243,190	-63,055	-0,076	0,023
-242,176	-85,544	0,139	0,031
-241,161	-3,848	-0,061	-0,031
-240,146	478,636	0,020	-0,034
-239,132	-108,982	-0,119	-0,018
-238,117	32,379	-0,149	-0,093
-237,103	-0,039	0,086	0,044
-236,088	800,000	-0,039	0,101
-235,073	140,396	-0,042	-0,040
-234,059	67,707	-0,085	0,063
-233,044	-144,606	0,203	0,013
-232,030	-139,622	0,094	-0,007
-231,015	69,362	-0,093	0,069
-230,000	96,895	0,122	-0,101
-228,986	-200,000	-0,001	0,014
-227,971	277,941	-0,102	0,131
-226,957	-163,036	0,074	-0,003
-225,942	191,010	0,041	0,045
-224,927	-169,835	-0,130	0,003
-223,913	112,567	0,046	0,040
-222,898	-43,443	-0,066	-0,024
-221,884	800,000	-0,015	-0,037
-220,869	-122,050	0,157	0,018
-219,855	664,917	0,015	0,027
-218,840	-54,441	0,045	0,015
-217,825	800,000	-0,035	0,107
-216,811	-200,000	-0,021	0,080
-215,796	20,866	-0,063	0,037
-214,782	-124,691	0,085	-0,009
-213,767	312,685	0,129	0,176
-212,752	213,071	-0,090	-0,103
-211,738	330,620	0,054	0,075
-210,723	-200,000	0,034	-0,115
-209,709	-200,000	0,034	-0,134
-208,694	169,523	-0,086	-0,089
-207,679	203,128	-0,026	0,029
-206,665	149,276	0,090	0,088
-205,650	-45,019	-0,027	0,010
-204,636	-21,931	0,083	-0,036
-203,621	-5,802	-0,153	0,075
-202,606	470,999	-0,026	-0,042
-201,592	337,579	-0,066	-0,093
-200,577	3,070	0,065	0,034
-199,563	599,331	0,034	0,061
-198,548	800,000	0,031	0,071
-197,533	-103,280	0,070	0,012
-196,519	-132,716	-0,069	0,006
-195,504	27,415	-0,117	0,071
-194,490	-158,185	-0,087	0,004
-193,475	-115,373	0,013	0,002
-192,460	170,014	0,036	0,038
-191,446	-121,428	-0,122	0,014
-190,431	-200,000	0,010	0,206
-189,417	23,968	0,062	-0,037
-188,402	91,668	0,017	0,013
-187,387	277,169	-0,041	-0,053
-186,373	9,064	-0,040	0,022
-185,358	318,673	0,041	-0,056
-184,344	-58,401	0,053	-0,016
-183,329	-200,000	-0,011	0,048
-182,315	129,076	0,139	0,128
-181,300	-146,388	-0,117	-0,007
-180,285	726,759	0,023	-0,045
-179,271	138,610	-0,096	-0,091
-178,256	259,704	-0,102	-0,127
-177,242	-12,494	-0,083	0,039
-176,227	289,259	0,037	-0,048
-175,212	-200,000	-0,005	0,148
-174,198	649,345	0,023	0,043
-173,183	-67,708	-0,075	0,021
-172,169	-200,000	-0,044	-0,169
-171,154	29,872	0,034	0,021
-170,139	242,470	-0,049	-0,060
-169,125	150,007	0,040	-0,039
-168,110	55,163	0,098	0,068
-167,096	187,960	0,051	0,055
-166,081	314,480	0,066	0,090
-165,066	-200,000	-0,001	-0,103
-164,052	73,413	0,018	-0,014
-163,037	-27,417	0,146	0,061
-162,023	-91,658	0,073	0,015
-161,008	74,767	0,073	0,055
-159,993	177,222	-0,131	0,138
-158,979	35,983	-0,061	-0,039
-157,964	800,000	-0,046	-0,096
-156,950	-196,680	-0,135	0,001
-155,935	-7,570	0,050	0,024
-154,920	-16,353	-0,148	0,067
-153,906	-6,734	0,098	-0,048
-152,891	-80,333	-0,078	-0,019
-151,877	21,053	0,032	0,018
-150,862	415,116	-0,064	-0,098
-149,847	-26,037	0,082	-0,035
-148,833	16,929	-0,179	-0,102
-147,818	-75,714	0,116	-0,030
-146,804	-200,000	-0,033	0,172
-145,789	-4,498	-0,042	0,021
-144,775	800,000	-0,017	-0,044
-143,760	786,051	0,031	-0,062
-142,745	-200,000	0,024	-0,168
-141,731	-200,000	0,006	-0,105
-140,716	-200,000	-0,005	0,040
-139,702	-78,278	0,121	-0,030
-138,687	437,504	0,039	0,061
-137,672	-48,459	-0,026	0,009
-136,658	-27,854	-0,067	0,028
-135,643	114,559	-0,072	0,063
-134,629	76,404	0,007	-0,006
-133,614	-123,012	0,166	0,019
-132,599	-130,197	-0,086	0,008
-131,585	80,494	-0,091	0,071
-130,570	12,683	0,042	-0,023
-129,556	-169,463	-0,111	-0,003
-128,541	-200,000	0,003	-0,072
-127,526	300,782	-0,053	-0,071
-126,512	284,983	0,023	0,030
-125,497	740,543	-0,049	-0,096
-124,483	-200,000	0,047	-0,160
-123,468	-200,000	0,015	-0,072
-122,453	-200,000	0,006	0,047
-121,439	800,000	0,013	0,027
-120,424	-25,183	-0,094	0,040
-119,410	-200,000	0,011	-0,053
-118,395	-10,813	0,143	-0,068
-117,380	69,647	0,129	0,096
-116,366	800,000	0,043	-0,096
-115,351	800,000	-0,031	0,063
-114,337	-76,231	-0,073	-0,018
-113,322	217,018	0,060	0,068
-112,307	-85,148	-0,083	-0,018
-111,293	800,000	0,029	-0,059
-110,278	-200,000	0,003	0,016
-109,264	-58,236	-0,153	0,048
-108,249	-119,441	-0,145	0,018
-107,234	159,984	-0,107	-0,107
-106,220	-200,000	-0,008	0,086
-105,205	-88,040	0,057	-0,012
-104,191	3,868	0,046	-0,024
-103,176	-200,000	-0,008	0,036
-102,162	-104,375	0,016	0,003
-101,147	-109,061	-0,055	-0,008
-100,132	-89,723	-0,126	-0,026
-99,118	255,226	-0,022	0,027
-98,103	-95,596	0,147	-0,028
-97,089	-137,940	0,133	-0,011
-96,074	-49,922	-0,206	0,070
-95,059	433,558	-0,053	-0,083
-94,045	-135,270	-0,030	0,003
-93,030	-120,279	0,036	-0,004
-92,016	-95,617	-0,008	0,001
-91,001	182,635	-0,084	-0,089
-89,986	800,000	0,045	0,092
-88,972	-200,000	0,009	0,071
-87,957	7,599	-0,172	0,092
-86,943	577,239	0,026	0,046
-85,928	-200,000	-0,010	-0,051
-84,913	-200,000	0,022	-0,144
-83,899	-10,206	0,033	-0,015
-82,884	387,136	-0,084	0,126
-81,870	195,083	0,060	-0,065
-80,855	-146,456	-0,071	-0,004
-79,840	-200,000	0,014	0,059
-78,826	-14,955	-0,097	-0,044
-77,811	-175,464	-0,074	-0,001
-76,797	-62,905	-0,076	0,022
-75,782	155,820	0,088	-0,087
-74,767	-200,000	-0,004	0,135
-73,753	-118,223	0,110	0,014
-72,738	257,987	-0,022	-0,027
-71,724	47,150	-0,127	-0,085
-70,709	282,629	-0,109	0,140
-69,694	281,482	-0,041	0,053
-68,680	459,340	-0,006	-0,009
-67,665	800,000	-0,024	-0,048
-66,651	144,256	0,106	0,102
-65,636	331,225	0,082	-0,114
-64,622	122,812	0,039	-0,035
-63,607	-166,801	-0,089	0,003
-62,592	-200,000	-0,003	0,010
-61,578	-200,000	-0,025	0,096
-60,563	-200,000	-0,011	0,040
-59,549	-143,889	-0,138	0,009
-58,534	9,248	-1,943	-1,051
-57,519	-200,000	-0,208	-0,947
-56,505	-200,000	-1,425	-5,064
-55,490	75,731	0,872	0,661
-54,476	800,000	5,328	11,966
-53,461	-200,000	17,776	290,794
-52,446	800,000	725,360	2235,386
-51,432	546,451	1638,255	2820,953
-50,417	110,657	1628,781	1404,486
-49,403	75,226	1282,802	969,054
-48,388	31,802	1025,323	631,565
-47,373	20,218	987,216	570,009
-46,359	18,459	975,390	557,408
-45,344	15,489	971,391	545,408
-44,330	15,781	969,798	545,443
-43,315	15,260	967,960	542,693
-42,300	15,156	967,050	541,822
-41,286	15,159	965,897	541,163
-40,271	15,219	964,983	540,825
-39,257	15,238	963,993	540,311
-38,242	15,173	963,216	539,644
-37,227	15,229	962,451	539,376
-36,213	15,240	961,598	538,912
-35,198	15,203	960,762	538,301
-34,184	15,216	959,953	537,868
-33,169	15,147	959,040	537,113
-32,154	15,262	957,900	536,824
-31,140	15,183	957,093	536,098
-30,125	15,221	956,337	535,774
-29,111	15,174	955,732	535,262
-28,096	15,186	955,101	534,926
-27,082	15,228	954,401	534,649
-26,067	15,216	953,516	534,091
-25,052	15,202	952,993	533,734
-24,038	15,177	952,210	533,194
-23,023	15,185	951,358	532,722
-22,009	15,181	950,763	532,354
-20,994	15,200	950,335	532,154
-19,979	15,173	949,677	531,678
-18,965	15,169	949,092	531,317
-17,950	15,250	948,381	531,156
-16,936	15,145	947,848	530,501
-15,921	15,102	947,052	529,899
-14,906	15,071	946,429	529,430
-13,892	15,114	945,619	529,093
-12,877	15,089	945,033	528,664
-11,863	15,048	944,326	528,117
-10,848	15,101	944,003	528,083
-9,833	15,197	943,492	528,083
-8,819	15,136	942,775	527,467
-7,804	15,119	942,303	527,126
-6,790	15,078	941,608	526,587
-5,775	15,235	940,988	526,718
-4,760	15,188	940,354	526,194
-3,746	15,087	939,922	525,612
-2,731	14,984	939,219	524,871
-1,717	14,958	938,567	524,404
-0,702	14,987	937,792	524,043
0,313	14,757	937,333	523,853
1,327	17,396	934,571	530,551
2,342	24,365	807,983	477,481
3,356	18,239	518,723	295,892
4,371	-3,050	395,100	196,889
5,386	-5,420	379,139	185,854
6,400	-6,974	372,968	180,832
7,415	-7,888	369,816	178,134
8,429	-8,283	368,173	176,830
9,444	-8,498	367,274	176,112
10,459	-8,297	366,218	175,842
11,473	-8,441	365,743	175,418
12,488	-8,654	365,232	174,892
13,502	-8,713	364,448	174,427
14,517	-8,818	363,829	173,985
15,531	-8,861	363,177	173,604
16,546	-8,951	362,893	173,341
17,561	-9,047	362,380	172,961
18,575	-8,868	361,801	172,891
19,590	-9,056	361,396	172,450
20,604	-9,033	361,178	172,360
21,619	-9,102	360,660	172,011
22,634	-9,048	360,316	171,899
23,648	-9,118	359,867	171,584
24,663	-9,143	359,563	171,392
25,677	-8,976	359,208	171,412
26,692	-9,031	358,952	171,208
27,707	-9,064	358,593	170,981
28,721	-9,016	358,205	170,839
29,736	-9,017	357,819	170,639
30,750	-9,142	357,596	170,366
31,765	-9,112	357,387	170,286
32,780	-9,044	357,004	170,171
33,794	-9,197	356,581	169,769
34,809	-9,011	356,350	169,870
35,823	-9,087	356,086	169,637
36,838	-9,231	355,787	169,304
37,853	-9,121	355,421	169,248
38,867	-9,038	355,267	169,260
39,882	-9,101	354,929	169,008
40,896	-9,169	354,655	168,780
41,911	-9,165	354,209	168,557
42,926	-9,107	353,742	168,391
43,940	-9,100	353,686	168,356
44,955	-9,131	353,328	168,134
45,969	-9,195	353,001	167,887
46,984	-9,237	352,903	167,775
47,999	-9,298	352,562	167,524
49,013	-9,103	352,195	167,569
50,028	-9,101	352,030	167,479
51,042	-9,165	351,785	167,270
52,057	-9,345	351,444	166,878
53,071	-9,212	351,172	166,892
54,086	-9,279	350,918	166,676
55,101	-9,249	350,565	166,530
56,115	-9,230	350,414	166,466
57,130	-8,978	350,111	166,608
58,144	-9,029	349,928	166,445
59,159	-8,942	349,475	166,319
60,174	-8,940	349,446	166,292
61,188	-8,966	349,113	166,087
62,203	-9,070	348,856	165,827
63,217	-9,047	348,273	165,562
64,232	-9,120	348,217	165,435
65,247	-9,061	347,938	165,357
66,261	-9,001	347,602	165,254
67,276	-8,913	347,068	165,089
68,290	-9,067	346,885	164,805
69,305	-9,103	346,648	164,636
70,320	-9,202	346,482	164,426
71,334	-8,918	346,058	164,544
72,349	-8,897	345,877	164,468
73,363	-8,955	345,635	164,269
74,378	-8,929	345,362	164,156
75,393	-8,988	345,136	163,965
76,407	-8,960	344,753	163,801
77,422	-8,990	344,479	163,621
78,436	-8,900	344,221	163,589
79,451	-9,094	344,181	163,329
80,466	-9,104	343,656	163,054
81,480	-9,076	343,379	162,940
82,495	-9,290	343,224	162,603
83,509	-9,223	342,944	162,534
84,524	-9,188	342,726	162,456
85,539	-9,309	342,402	162,148
86,553	-9,257	342,012	162,009
87,568	-9,312	342,021	161,935
88,582	-9,224	341,492	161,773
89,597	-9,281	341,266	161,584
90,611	-9,048	341,100	161,762
91,626	-9,014	340,858	161,671
92,641	-9,117	340,640	161,434
93,655	-9,088	340,364	161,323
94,670	-9,321	340,160	160,943
95,684	-9,224	339,844	160,890
96,699	-9,203	339,600	160,785
97,714	-9,216	339,269	160,599
98,728	-9,077	339,022	160,627
99,743	-9,118	338,705	160,416
100,757	-9,171	338,501	160,244
101,772	-9,208	338,300	160,092
102,787	-9,225	338,087	159,958
103,801	-9,119	337,861	159,958
104,816	-9,141	337,636	159,812
105,830	-9,002	337,312	159,803
106,845	-8,969	337,054	159,704
107,860	-9,018	336,832	159,529
108,874	-9,033	336,515	159,348
109,889	-9,012	336,384	159,296
110,903	-9,101	336,237	159,110
111,918	-9,167	335,819	158,823
112,933	-9,177	335,635	158,711
113,947	-8,926	335,425	158,883
114,962	-9,075	335,093	158,542
115,976	-8,942	334,885	158,580
116,991	-9,180	334,742	158,228
118,006	-9,157	334,389	158,073
119,020	-8,956	334,107	158,154
120,035	-8,872	334,135	158,248
121,049	-9,018	333,827	157,923
122,064	-9,078	333,712	157,786
123,079	-9,079	333,471	157,657
124,093	-9,063	332,873	157,378
125,108	-9,179	332,686	157,145
126,122	-9,161	332,328	156,982
127,137	-9,345	332,153	156,679
128,151	-9,154	331,961	156,789
129,166	-9,154	331,746	156,674
130,181	-9,061	331,445	156,622
131,195	-9,234	331,274	156,333
132,210	-9,218	330,988	156,202
133,224	-8,967	330,667	156,317
134,239	-9,098	330,613	156,131
135,254	-8,897	330,366	156,225
136,268	-9,100	330,075	155,848
137,283	-9,214	329,852	155,601
138,297	-9,014	329,423	155,608
139,312	-9,192	329,238	155,309
140,327	-8,867	329,078	155,580
141,341	-8,922	328,859	155,402
142,356	-8,889	328,810	155,401
143,370	-8,691	328,482	155,452
144,385	-8,734	328,361	155,333
145,400	-8,763	328,087	155,158
146,414	-8,877	327,778	154,871
147,429	-8,822	327,464	154,771
148,443	-8,902	327,440	154,657
149,458	-8,774	327,120	154,633
150,473	-8,791	326,840	154,469
151,487	-8,786	326,661	154,376
152,502	-8,785	326,534	154,302
153,516	-8,794	326,324	154,179
154,531	-8,748	325,989	154,058
155,546	-8,883	325,777	153,796
156,560	-8,871	325,460	153,646
157,575	-9,008	325,196	153,357
158,589	-8,857	324,925	153,381
159,604	-8,809	324,911	153,414
160,619	-8,859	324,665	153,228
161,633	-8,786	324,379	153,160
162,648	-8,819	324,172	153,013
163,662	-8,878	323,936	152,823
164,677	-8,865	323,679	152,702
165,692	-8,829	323,521	152,653
166,706	-8,775	323,273	152,582
167,721	-8,678	323,191	152,635
168,735	-8,566	322,809	152,563
169,750	-8,626	322,754	152,458
170,764	-8,671	322,478	152,266
171,779	-8,643	322,354	152,223
172,794	-8,759	322,121	151,974
173,808	-8,766	321,771	151,788
174,823	-8,926	321,406	151,429
175,837	-8,931	321,208	151,316
176,852	-8,702	321,071	151,486
177,867	-8,829	321,029	151,316
178,881	-8,681	320,873	151,389
179,896	-8,790	320,506	151,085
180,910	-8,739	320,415	151,083
181,925	-8,906	320,228	150,802
182,940	-8,741	319,836	150,781
183,954	-8,740	319,735	150,721
184,969	-8,718	319,602	150,668
185,983	-8,551	319,274	150,680
186,998	-8,650	319,110	150,482
188,013	-8,554	318,871	150,460
189,027	-8,582	318,487	150,234
190,042	-8,751	318,503	150,047
191,056	-8,512	318,239	150,166
192,071	-8,657	317,905	149,840
193,086	-8,616	317,758	149,802
194,100	-8,537	317,614	149,804
195,115	-8,484	317,209	149,656
196,129	-8,584	316,935	149,407
197,144	-8,550	316,823	149,378
198,159	-8,695	316,633	149,120
199,173	-8,684	316,420	149,018
200,188	-8,466	316,188	149,127
201,202	-8,690	315,784	148,686
202,217	-8,874	315,637	148,408
203,232	-8,944	315,353	148,187
204,246	-8,757	315,266	148,331
205,261	-8,737	315,028	148,227
206,275	-8,750	314,926	148,152
207,290	-8,675	314,621	148,075
208,304	-8,872	314,570	147,829
209,319	-8,608	314,221	147,931
210,334	-8,594	313,934	147,798
211,348	-8,698	313,791	147,607
212,363	-8,567	313,549	147,618
213,377	-8,630	313,394	147,466
214,392	-8,600	313,205	147,395
215,407	-8,633	312,758	147,137
216,421	-8,913	312,755	146,829
217,436	-8,969	312,423	146,601
218,450	-8,879	312,232	146,593
219,465	-8,793	312,139	146,626
220,480	-8,819	311,780	146,417
221,494	-8,874	311,659	146,289
222,509	-8,806	311,555	146,298
223,523	-8,768	311,224	146,170
224,538	-8,509	311,052	146,346
225,553	-8,537	310,861	146,214
226,567	-8,608	310,796	146,097
227,582	-8,470	310,490	146,084
228,596	-8,664	310,485	145,866
229,611	-8,498	310,150	145,868
230,626	-8,675	309,793	145,504
231,640	-8,835	309,530	145,200
232,655	-9,093	309,151	144,743
233,669	-8,923	309,088	144,876
234,684	-8,788	308,803	144,870
235,699	-9,022	308,752	144,591
236,713	-8,961	308,580	144,560
237,728	-8,705	308,297	144,680
238,742	-8,720	308,232	144,620
239,757	-8,675	307,982	144,537
240,772	-8,646	307,780	144,459
241,786	-8,740	307,656	144,291
242,801	-8,759	307,329	144,105
243,815	-8,874	307,272	143,948
244,830	-8,752	306,942	143,905
245,844	-8,847	306,837	143,746
246,859	-8,749	306,667	143,754
247,874	-8,715	306,358	143,631
248,888	-8,870	306,209	143,390
249,903	-8,714	306,064	143,469
250,917	-8,536	305,864	143,544
251,932	-8,702	305,859	143,359
252,947	-7,785	305,892	144,300
253,961	-7,212	305,892	144,874
254,976	-7,005	305,785	145,021
255,990	-7,512	305,447	144,330
257,005	-5,902	306,001	146,225
258,020	-2,190	307,529	150,751
259,034	-0,624	307,842	152,496
260,049	-0,251	307,703	152,797
261,063	0,003	307,743	153,063
262,078	0,506	307,678	153,532
263,093	0,705	307,449	153,607
264,107	0,620	307,456	153,511
265,122	0,544	307,449	153,415
266,136	0,982	307,107	153,678
267,151	0,880	307,132	153,573
268,166	0,992	306,883	153,549
269,180	0,918	306,772	153,404
270,195	0,923	306,289	153,154
271,209	0,989	306,169	153,148
272,224	0,879	306,030	152,952
273,239	1,034	305,794	152,979
274,253	1,078	305,692	152,958
275,268	0,922	305,458	152,669
276,282	0,988	305,169	152,578
277,297	0,811	304,993	152,297
278,312	0,938	304,766	152,299
279,326	0,910	304,583	152,165
280,341	0,940	304,466	152,124
281,355	0,835	304,124	151,834
282,370	0,784	304,093	151,753
283,384	0,813	303,810	151,628
284,399	0,847	303,475	151,480
285,414	0,751	303,470	151,368
286,428	0,726	303,252	151,221
287,443	0,852	302,951	151,183
288,457	1,021	302,821	151,276
289,472	0,717	302,543	150,817
290,487	0,775	302,435	150,808
291,501	0,857	302,266	150,793
292,516	0,814	302,043	150,625
293,530	0,798	301,824	150,486
294,545	0,856	301,607	150,423
295,560	0,732	301,399	150,181
296,574	0,785	301,247	150,146
297,589	0,794	300,970	150,003
298,603	0,837	300,750	149,923
299,618	0,869	300,584	149,859
300,633	0,822	300,405	149,709
301,647	0,696	300,355	149,546
302,662	0,784	300,151	149,518
303,676	0,763	299,895	149,357
304,691	0,790	299,734	149,290
305,706	0,860	299,498	149,228
306,720	0,864	299,028	148,985
307,735	0,770	299,003	148,866
308,749	0,752	298,874	148,771
309,764	0,886	298,628	148,768
310,779	0,810	298,524	148,628
311,793	0,618	298,454	148,390
312,808	0,961	298,031	148,504
313,822	0,800	297,876	148,255
314,837	0,747	297,732	148,119
315,852	0,729	297,460	147,952
316,866	0,772	297,230	147,867
317,881	0,662	297,196	147,728
318,895	0,635	296,913	147,548
319,910	0,878	296,796	147,716
320,925	0,828	296,580	147,546
321,939	0,925	296,280	147,478
322,954	0,852	296,119	147,314
323,968	0,786	296,154	147,253
324,983	0,885	295,830	147,176
325,997	0,881	295,679	147,083
327,012	0,923	295,455	147,000
328,027	0,863	295,263	146,833
329,041	0,956	295,011	146,785
330,056	0,633	294,894	146,399
331,070	0,826	294,735	146,495
332,085	0,699	294,559	146,271
333,100	0,858	294,291	146,279
334,114	0,760	294,179	146,115
335,129	0,706	293,895	145,909
336,143	0,888	293,704	145,977
337,158	0,909	293,648	145,958
338,173	0,895	293,407	145,811
339,187	0,836	293,304	145,690
340,202	1,033	292,960	145,696
341,216	0,905	292,744	145,452
342,231	0,979	292,747	145,512
343,246	0,933	292,464	145,314
344,260	1,016	292,415	145,356
345,275	1,025	292,157	145,224
346,289	0,831	291,981	144,937
347,304	1,020	291,779	145,005
348,319	0,992	291,534	144,844
349,333	0,967	291,264	144,673
350,348	1,278	291,009	144,832
351,362	1,046	290,942	144,563
352,377	0,953	290,903	144,442
353,392	1,025	290,699	144,397
354,406	1,152	290,416	144,364
355,421	193,600	1323,907	1393,588
356,435	157,087	1449,800	1393,566
