DTS Sentinel unit serial number:	SN410029Multiplexer serial number:	ORYXHardware model number:	OX2-SRSoftware version number:	ORYX F/W v4,00 Oryx Data Collector v3.7.2.0data status	okinstallation	B4 Nyhavnadifferential loss correction	single-endedforward channel	channel 2reverse channel	N/Adate	2023/12/19time	02:25:13forward acquisition time	300,00reverse acquisition time	0,00gamma	499,1914k internal	0,3125k external	0,3125temperature offset calibration	1,0000default loss term (dB/km)	0,3820temperature slope calibration	1,0000multiplexer offset coefficient	1,0000multiplexer slope coefficient	1,0000fibre end	0,00T internal ref (°C)	21,28T ext. ref 1 (°C)	6,22T ext. ref 2 (°C)	6,37length (m)	temperature (°C)	Stokes	anti-Stokes-744,400	-98,010	0,047	-0,009
-743,385	55,579	-0,141	0,102
-742,371	-50,981	0,078	0,027
-741,356	48,072	-0,163	0,113
-740,342	30,985	0,071	0,045
-739,327	-135,364	-0,279	0,024
-738,312	287,027	0,119	-0,161
-737,298	-27,614	-0,153	0,066
-736,283	-200,000	-0,002	-0,027
-735,269	37,670	-0,221	0,146
-734,254	6,666	-0,125	0,069
-733,239	-73,702	-0,469	-0,126
-732,225	33,528	0,044	-0,028
-731,210	-200,000	0,008	0,062
-730,196	-92,585	0,090	-0,019
-729,181	-7,393	-0,071	-0,036
-728,167	-152,232	-0,052	0,003
-727,152	101,945	-0,118	0,102
-726,137	178,915	-0,060	0,066
-725,123	635,197	-0,020	-0,038
-724,108	-200,000	0,006	0,117
-723,094	-39,040	-0,018	0,007
-722,079	-163,202	-0,150	0,005
-721,064	-50,340	0,122	0,043
-720,050	58,684	-0,108	0,079
-719,035	-200,000	-0,016	-0,181
-718,021	10,231	-0,101	-0,057
-717,006	33,254	-0,148	-0,096
-715,991	-81,817	-0,089	-0,022
-714,977	-200,000	-0,010	-0,073
-713,962	267,482	-0,085	-0,111
-712,948	-200,000	-0,001	-0,112
-711,933	-76,947	-0,140	0,036
-710,918	107,498	0,060	0,053
-709,904	25,571	-0,081	-0,050
-708,889	27,785	-0,087	0,054
-707,875	-147,325	-0,150	-0,009
-706,860	800,000	-0,015	-0,040
-705,845	-77,153	-0,058	0,015
-704,831	-8,217	0,083	-0,041
-703,816	-100,682	0,200	-0,036
-702,802	37,153	-0,110	0,072
-701,787	127,049	-0,126	-0,119
-700,772	-104,112	0,017	-0,003
-699,758	-200,000	-0,000	0,013
-698,743	158,238	-0,043	0,045
-697,729	-161,600	-0,114	-0,004
-696,714	81,259	0,065	0,052
-695,699	366,904	-0,024	0,035
-694,685	-159,681	-0,133	0,005
-693,670	104,862	0,072	-0,063
-692,656	800,000	0,041	-0,090
-691,641	-65,608	-0,073	-0,022
-690,627	37,804	-0,032	0,021
-689,612	166,242	0,087	0,091
-688,597	109,775	-0,069	-0,061
-687,583	-28,505	-0,029	-0,012
-686,568	269,133	-0,055	0,072
-685,554	-26,998	-0,051	0,022
-684,539	-178,278	-0,080	0,001
-683,524	-129,064	0,134	0,014
-682,510	53,814	0,039	-0,028
-681,495	-166,882	0,041	-0,001
-680,481	800,000	0,019	-0,058
-679,466	800,000	-0,042	-0,102
-678,451	800,000	-0,023	-0,073
-677,437	4,693	0,122	-0,066
-676,422	397,513	0,045	0,071
-675,408	244,229	-0,073	0,092
-674,393	373,175	0,010	-0,015
-673,378	-72,993	-0,153	0,042
-672,364	-92,445	-0,076	0,016
-671,349	2,168	0,015	-0,008
-670,335	-5,877	0,110	-0,056
-669,320	800,000	0,039	0,089
-668,305	411,087	0,071	0,113
-667,291	-165,289	-0,157	0,005
-666,276	310,659	-0,081	-0,114
-665,262	-200,000	-0,022	-0,078
-664,247	-200,000	-0,020	-0,072
-663,232	263,285	0,073	-0,095
-662,218	176,891	0,039	-0,042
-661,203	391,990	0,021	-0,033
-660,189	118,568	-0,056	0,051
-659,174	454,685	-0,049	-0,080
-658,159	279,256	-0,049	-0,065
-657,145	16,929	-0,039	-0,023
-656,130	310,257	0,075	0,105
-655,116	-200,000	-0,002	-0,116
-654,101	275,685	-0,057	0,075
-653,086	-60,575	-0,128	0,040
-652,072	-200,000	0,004	-0,032
-651,057	224,922	-0,111	-0,134
-650,043	-178,243	-0,092	0,002
-649,028	-200,000	-0,014	0,062
-648,014	-120,848	-0,041	0,005
-646,999	-200,000	0,057	0,201
-645,984	800,000	0,022	0,066
-644,970	232,115	0,038	0,047
-643,955	-130,344	-0,073	-0,007
-642,941	-83,102	0,115	-0,027
-641,926	-50,118	-0,069	0,024
-640,911	-43,261	0,033	0,012
-639,897	-200,000	-0,031	-0,103
-638,882	-200,000	-0,002	-0,041
-637,868	742,919	-0,032	0,064
-636,853	-9,213	-0,051	0,025
-635,838	-41,795	0,080	0,030
-634,824	-54,065	0,071	0,024
-633,809	-200,000	-0,001	-0,015
-632,795	26,162	-0,037	0,023
-631,780	800,000	0,032	-0,070
-630,765	800,000	-0,029	0,066
-629,751	217,772	0,026	-0,031
-628,736	800,000	-0,061	-0,184
-627,722	513,891	-0,042	-0,073
-626,707	-84,170	-0,179	-0,042
-625,692	-58,104	0,162	-0,052
-624,678	-96,531	0,020	0,004
-623,663	-137,797	-0,205	-0,017
-622,649	-157,134	-0,089	-0,004
-621,634	-200,000	0,006	-0,071
-620,619	-122,655	-0,140	-0,017
-619,605	-200,000	0,019	-0,065
-618,590	-192,373	-0,055	-0,000
-617,576	26,454	0,067	0,042
-616,561	-200,000	-0,009	-0,080
-615,546	-200,000	-0,030	0,132
-614,532	800,000	-0,010	0,023
-613,517	73,810	-0,139	-0,108
-612,503	-25,064	0,096	-0,042
-611,488	-200,000	-0,003	-0,057
-610,474	-43,308	0,147	0,055
-609,459	-70,531	-0,022	-0,006
-608,444	800,000	-0,021	0,050
-607,430	124,511	0,105	-0,098
-606,415	647,621	-0,045	-0,086
-605,401	-130,113	-0,110	0,011
-604,386	-138,652	-0,026	0,002
-603,371	-79,324	-0,079	-0,020
-602,357	-119,303	-0,069	0,009
-601,342	4,258	-0,094	0,051
-600,328	800,000	-0,032	0,070
-599,313	-66,909	-0,043	-0,012
-598,298	-200,000	0,045	-0,169
-597,284	651,343	0,042	0,079
-596,269	609,910	-0,039	0,073
-595,255	81,629	-0,114	0,091
-594,240	-200,000	-0,003	0,021
-593,225	-102,957	0,041	0,007
-592,211	-200,000	-0,001	-0,090
-591,196	-57,202	0,107	0,035
-590,182	-21,615	-0,065	0,029
-589,167	-200,000	0,005	0,062
-588,152	-92,196	-0,090	0,019
-587,138	-64,542	0,037	-0,011
-586,123	-21,156	-0,130	0,059
-585,109	-4,235	-0,022	0,011
-584,094	-123,897	0,090	-0,010
-583,079	20,894	0,033	0,020
-582,065	800,000	-0,003	0,008
-581,050	28,951	-0,014	-0,009
-580,036	-200,000	0,005	0,047
-579,021	44,812	0,075	-0,051
-578,006	428,353	-0,027	-0,043
-576,992	429,135	0,028	0,045
-575,977	-200,000	0,021	0,091
-574,963	77,072	0,096	0,075
-573,948	800,000	-0,051	0,112
-572,934	73,524	-0,099	-0,077
-571,919	-88,900	0,038	-0,008
-570,904	540,739	-0,066	-0,117
-569,890	52,879	0,100	-0,071
-568,875	-50,116	0,043	-0,015
-567,861	88,920	0,039	0,032
-566,846	122,501	0,039	0,036
-565,831	800,000	0,057	-0,153
-564,817	-39,134	-0,147	-0,057
-563,802	-45,671	-0,046	-0,017
-562,788	-126,250	0,096	-0,011
-561,773	-5,420	0,068	0,035
-560,758	440,948	0,041	0,066
-559,744	-200,000	-0,003	0,082
-558,729	-200,000	0,007	0,097
-557,715	-200,000	0,026	0,106
-556,700	800,000	0,029	0,070
-555,685	51,242	-0,014	-0,010
-554,671	-200,000	-0,033	0,189
-553,656	-47,973	-0,018	0,006
-552,642	238,605	-0,089	0,110
-551,627	-200,000	0,020	-0,107
-550,612	764,526	0,005	-0,009
-549,598	257,226	-0,085	-0,108
-548,583	-54,508	-0,170	-0,057
-547,569	-200,000	0,033	0,112
-546,554	-200,000	0,103	-0,000
-545,539	-96,099	0,061	-0,012
-544,525	478,627	-0,036	0,060
-543,510	-25,209	-0,111	-0,048
-542,496	448,206	0,019	-0,031
-541,481	53,600	-0,161	0,114
-540,466	19,837	-0,042	-0,025
-539,452	13,860	-0,041	-0,023
-538,437	-200,000	0,006	-0,023
-537,423	369,848	0,078	-0,117
-536,408	116,196	0,093	-0,084
-535,393	-63,138	-0,058	-0,018
-534,379	-200,000	-0,005	-0,017
-533,364	-3,654	-0,020	-0,010
-532,350	-126,120	0,073	-0,008
-531,335	88,128	0,068	-0,056
-530,321	-200,000	0,050	0,184
-529,306	-43,099	0,115	0,043
-528,291	117,992	0,125	-0,114
-527,277	-52,963	-0,060	-0,020
-526,262	-84,335	0,070	0,016
-525,248	-83,317	0,048	0,011
-524,233	263,215	0,098	0,125
-523,218	800,000	0,013	-0,039
-522,204	76,288	-0,030	0,024
-521,189	63,384	-0,037	-0,028
-520,175	-147,758	-0,093	-0,006
-519,160	-200,000	-0,015	-0,073
-518,145	324,073	-0,049	0,069
-517,131	-200,000	0,050	0,210
-516,116	294,815	-0,129	0,174
-515,102	-150,900	-0,025	0,001
-514,087	537,465	-0,052	-0,091
-513,072	159,259	-0,089	-0,092
-512,058	-200,000	-0,011	-0,179
-511,043	410,220	-0,044	0,069
-510,029	-131,397	0,150	-0,014
-509,014	210,173	-0,027	-0,032
-507,999	800,000	0,023	-0,055
-506,985	158,619	-0,076	0,078
-505,970	-200,000	0,037	-0,146
-504,956	115,801	0,015	0,014
-503,941	260,394	0,066	-0,085
-502,926	-200,000	-0,004	-0,025
-501,912	800,000	0,024	-0,069
-500,897	6,476	-0,097	0,053
-499,883	6,311	0,050	-0,027
-498,868	268,396	0,037	-0,048
-497,853	-53,339	-0,074	0,025
-496,839	-59,678	0,061	-0,019
-495,824	800,000	-0,018	0,052
-494,810	50,765	-0,018	-0,012
-493,795	91,604	0,025	-0,020
-492,781	-200,000	-0,019	-0,170
-491,766	-200,000	0,026	-0,138
-490,751	-30,575	-0,038	-0,016
-489,737	311,797	-0,009	-0,013
-488,722	18,222	-0,107	-0,063
-487,708	477,503	-0,014	-0,023
-486,693	-139,121	-0,049	0,004
-485,678	-200,000	0,029	0,112
-484,664	47,045	0,045	-0,031
-483,649	-126,263	-0,072	-0,008
-482,635	583,085	-0,039	-0,071
-481,620	147,200	0,044	-0,044
-480,605	112,728	0,071	0,064
-479,591	-88,203	0,069	-0,015
-478,576	-19,214	0,053	0,024
-477,562	660,710	-0,062	0,117
-476,547	-200,000	0,003	-0,016
-475,532	800,000	0,016	-0,041
-474,518	610,113	0,041	0,076
-473,503	-195,297	-0,070	-0,000
-472,489	42,706	0,080	-0,054
-471,474	-200,000	0,000	-0,094
-470,459	190,224	0,015	0,017
-469,445	800,000	-0,052	-0,120
-468,430	800,000	-0,038	-0,096
-467,416	-8,906	-0,080	-0,039
-466,401	10,444	0,085	-0,047
-465,386	34,231	0,035	-0,022
-464,372	639,691	0,057	-0,107
-463,357	37,233	0,021	0,014
-462,343	42,734	-0,067	-0,045
-461,328	800,000	-0,060	-0,138
-460,313	219,702	-0,079	0,093
-459,299	-90,419	0,038	0,008
-458,284	800,000	-0,010	0,028
-457,270	800,000	0,033	0,089
-456,255	-163,362	0,149	0,005
-455,241	50,838	0,082	-0,057
-454,226	800,000	0,026	-0,055
-453,211	59,323	0,102	0,074
-452,197	-200,000	0,023	0,175
-451,182	38,383	0,114	0,075
-450,168	800,000	-0,030	-0,062
-449,153	14,912	0,108	0,062
-448,138	-56,602	0,020	-0,007
-447,124	-87,862	-0,096	-0,021
-446,109	-92,582	0,060	0,012
-445,095	-32,967	0,060	0,025
-444,080	-168,399	-0,018	0,000
-443,065	784,824	0,068	-0,138
-442,051	-200,000	0,000	-0,047
-441,036	-200,000	-0,050	-0,180
-440,022	281,976	-0,046	0,061
-439,007	-100,452	0,060	-0,011
-437,992	322,619	0,048	-0,067
-436,978	800,000	0,032	-0,066
-435,963	315,807	0,085	0,119
-434,949	-200,000	0,014	0,072
-433,934	-200,000	0,000	0,014
-432,919	114,272	0,109	-0,097
-431,905	-64,129	0,035	0,010
-430,890	-200,000	-0,010	0,055
-429,876	-73,383	0,163	0,044
-428,861	800,000	-0,047	-0,123
-427,846	25,697	0,112	-0,069
-426,832	35,028	-0,012	-0,008
-425,817	-200,000	-0,020	0,136
-424,803	-27,527	0,079	-0,034
-423,788	-40,906	-0,163	0,062
-422,773	80,070	0,053	0,042
-421,759	34,510	0,026	0,016
-420,744	-200,000	0,004	-0,084
-419,730	-200,000	-0,002	0,030
-418,715	-200,000	0,004	-0,017
-417,701	800,000	0,029	-0,085
-416,686	-21,047	-0,035	0,016
-415,671	-39,697	0,095	0,036
-414,657	-200,000	0,036	0,138
-413,642	227,312	-0,023	-0,027
-412,628	524,170	0,046	-0,080
-411,613	-53,714	0,023	0,008
-410,598	4,528	0,062	0,034
-409,584	136,017	-0,094	-0,090
-408,569	76,589	0,075	0,058
-407,555	-200,000	0,011	-0,075
-406,540	-200,000	-0,036	-0,159
-405,525	-33,832	-0,082	-0,033
-404,511	-3,206	0,078	-0,040
-403,496	214,791	-0,024	-0,029
-402,482	410,737	0,032	0,050
-401,467	63,841	0,074	-0,055
-400,452	-89,192	0,090	-0,019
-399,438	113,959	0,047	-0,042
-398,423	800,000	-0,018	-0,057
-397,409	-200,000	0,047	0,196
-396,394	152,700	0,093	0,093
-395,379	30,402	-0,104	0,065
-394,365	-200,000	-0,028	0,117
-393,350	-184,391	0,190	0,002
-392,336	-55,962	0,189	0,062
-391,321	-94,635	0,082	0,016
-390,306	790,258	-0,042	-0,085
-389,292	-50,783	-0,117	-0,040
-388,277	-109,103	-0,172	0,027
-387,263	-0,041	0,125	0,065
-386,248	800,000	-0,010	0,029
-385,233	62,608	0,079	-0,058
-384,219	800,000	-0,040	-0,106
-383,204	-200,000	-0,036	-0,161
-382,190	291,630	0,054	-0,072
-381,175	-152,280	-0,063	-0,003
-380,160	11,637	0,140	-0,079
-379,146	-200,000	-0,020	0,181
-378,131	565,420	-0,015	0,026
-377,117	-200,000	-0,026	-0,131
-376,102	-21,379	-0,044	0,020
-375,088	747,443	0,039	-0,077
-374,073	210,716	0,142	-0,164
-373,058	800,000	0,032	0,080
-372,044	-200,000	0,024	0,133
-371,029	370,265	0,056	0,083
-370,015	800,000	0,066	0,141
-369,000	397,186	-0,080	-0,123
-367,985	65,415	-0,152	-0,113
-366,971	443,045	-0,077	-0,124
-365,956	800,000	-0,007	-0,017
-364,942	115,731	0,048	0,043
-363,927	800,000	0,016	0,052
-362,912	-200,000	-0,016	0,077
-361,898	-44,032	-0,145	0,053
-360,883	-22,734	-0,046	0,020
-359,869	-55,879	-0,080	0,026
-358,854	-85,325	-0,104	-0,024
-357,839	-94,349	0,025	0,005
-356,825	-69,364	0,081	-0,023
-355,810	800,000	-0,051	0,121
-354,796	242,987	0,023	0,028
-353,781	-121,695	0,150	0,018
-352,766	-54,765	-0,018	0,006
-351,752	-200,000	-0,016	-0,136
-350,737	327,996	0,029	0,042
-349,723	-200,000	-0,012	0,045
-348,708	91,641	0,098	-0,081
-347,693	-58,346	0,015	-0,005
-346,679	-200,000	0,005	-0,073
-345,664	17,504	0,055	-0,032
-344,650	364,632	0,053	-0,079
-343,635	258,655	0,041	0,052
-342,620	290,022	-0,035	0,046
-341,606	-25,460	-0,109	0,047
-340,591	373,376	-0,064	0,096
-339,577	493,285	0,036	-0,061
-338,562	-200,000	-0,018	0,070
-337,548	-52,615	0,065	-0,022
-336,533	-200,000	0,039	-0,128
-335,518	-45,837	0,116	-0,042
-334,504	120,019	0,112	0,102
-333,489	-59,073	-0,090	-0,028
-332,475	134,915	0,052	-0,050
-331,460	-200,000	-0,022	0,126
-330,445	-46,819	0,150	0,054
-329,431	-200,000	-0,024	-0,114
-328,416	-200,000	-0,022	0,091
-327,402	-200,000	0,049	0,209
-326,387	-157,041	-0,105	0,005
-325,372	-51,469	-0,106	0,036
-324,358	800,000	-0,060	-0,125
-323,343	800,000	-0,026	0,062
-322,329	800,000	0,029	0,070
-321,314	411,208	0,030	0,046
-320,299	-7,439	-0,090	0,045
-319,285	-72,819	-0,047	-0,013
-318,270	39,430	-0,059	-0,039
-317,256	30,428	-0,045	-0,028
-316,241	-34,022	-0,071	0,028
-315,226	-200,000	0,004	0,142
-314,212	-200,000	0,000	0,004
-313,197	596,435	-0,088	-0,160
-312,183	-140,680	-0,098	0,007
-311,168	-31,478	-0,055	0,023
-310,153	341,288	-0,042	-0,060
-309,139	800,000	0,030	0,086
-308,124	-200,000	-0,010	0,055
-307,110	-99,049	0,161	-0,030
-306,095	-200,000	-0,059	0,212
-305,080	800,000	0,018	0,047
-304,066	-200,000	-0,017	0,079
-303,051	-80,112	-0,048	0,012
-302,037	-8,032	0,150	-0,074
-301,022	64,542	-0,095	-0,070
-300,008	93,429	0,054	-0,045
-298,993	95,222	-0,002	0,002
-297,978	-61,237	0,042	-0,013
-296,964	-200,000	0,011	0,044
-295,949	-13,788	-0,051	-0,024
-294,935	25,532	-0,011	0,007
-293,920	34,064	0,104	-0,066
-292,905	64,640	-0,041	-0,030
-291,891	-200,000	0,002	0,158
-290,876	-103,782	-0,103	0,017
-289,862	638,549	-0,038	-0,071
-288,847	481,313	0,032	-0,054
-287,832	-200,000	-0,017	-0,121
-286,818	-200,000	0,046	-0,160
-285,803	-65,275	-0,114	0,033
-284,789	-200,000	0,012	0,123
-283,774	327,957	0,051	0,072
-282,759	-90,322	-0,121	-0,026
-281,745	-22,617	-0,056	-0,025
-280,730	-46,189	-0,110	-0,039
-279,716	-200,000	-0,042	-0,138
-278,701	196,872	0,050	-0,056
-277,686	532,829	0,083	-0,144
-276,672	22,552	0,079	-0,047
-275,657	218,275	0,038	-0,045
-274,643	303,085	-0,106	0,145
-273,628	351,342	0,043	-0,062
-272,613	800,000	0,015	-0,040
-271,599	45,946	0,067	-0,045
-270,584	38,824	0,080	0,052
-269,570	-200,000	-0,011	0,117
-268,555	-80,399	0,049	0,012
-267,540	13,586	-0,119	0,067
-266,526	-31,851	-0,138	0,056
-265,511	-99,042	-0,089	0,016
-264,497	45,727	0,061	-0,041
-263,482	-200,000	0,014	0,050
-262,467	22,525	-0,097	0,058
-261,453	800,000	-0,082	-0,177
-260,438	-43,867	-0,054	0,020
-259,424	-78,528	0,081	0,020
-258,409	50,686	-0,027	0,019
-257,395	334,009	-0,058	-0,082
-256,380	800,000	0,021	0,050
-255,365	198,257	0,054	0,060
-254,351	284,060	0,045	-0,060
-253,336	687,528	0,066	0,126
-252,322	261,711	-0,052	-0,066
-251,307	-45,047	-0,063	-0,023
-250,292	7,695	0,015	0,008
-249,278	-200,000	0,005	0,084
-248,263	702,990	0,086	0,167
-247,249	283,414	0,098	-0,129
-246,234	502,867	0,027	-0,046
-245,219	188,984	0,019	0,021
-244,205	-1,987	0,017	0,009
-243,190	-200,000	-0,006	-0,036
-242,176	-200,000	-0,020	0,156
-241,161	-77,212	0,116	-0,029
-240,146	-200,000	0,006	0,044
-239,132	267,969	-0,028	0,036
-238,117	93,952	-0,072	0,060
-237,103	-108,904	-0,056	-0,009
-236,088	800,000	0,030	0,071
-235,073	-200,000	0,001	0,015
-234,059	-200,000	0,031	0,100
-233,044	800,000	-0,034	0,089
-232,030	526,394	-0,010	0,017
-231,015	396,163	0,065	0,099
-230,000	-200,000	0,001	-0,092
-228,986	780,141	-0,020	0,041
-227,971	800,000	-0,021	-0,048
-226,957	60,754	0,040	0,029
-225,942	123,079	-0,080	0,073
-224,927	295,050	-0,066	0,088
-223,913	6,363	-0,036	-0,020
-222,898	35,288	-0,062	-0,040
-221,884	-27,528	-0,020	0,008
-220,869	598,473	0,028	-0,051
-219,855	187,736	-0,030	0,032
-218,840	-200,000	-0,005	0,036
-217,825	800,000	0,034	0,079
-216,811	-58,907	-0,148	-0,046
-215,796	82,681	-0,111	0,088
-214,782	739,612	-0,019	0,038
-213,767	-113,708	0,040	0,006
-212,752	388,425	0,061	0,093
-211,738	-200,000	0,005	-0,068
-210,723	-10,299	-0,047	0,023
-209,709	-200,000	-0,005	-0,059
-208,694	163,317	-0,093	-0,096
-207,679	79,082	0,096	-0,075
-206,665	199,225	-0,087	-0,097
-205,650	395,205	0,077	0,117
-204,636	-45,696	0,019	0,007
-203,621	-200,000	0,008	-0,124
-202,606	755,827	0,014	-0,028
-201,592	116,449	-0,083	-0,074
-200,577	-156,380	0,028	-0,001
-199,563	-83,192	-0,054	-0,013
-198,548	-58,855	0,043	0,013
-197,533	471,553	-0,032	0,053
-196,519	100,744	0,045	-0,038
-195,504	-20,325	0,097	-0,043
-194,490	171,971	-0,084	-0,088
-193,475	-86,397	-0,157	-0,035
-192,460	10,989	0,039	-0,022
-191,446	800,000	0,036	-0,077
-190,431	-200,000	-0,004	0,056
-189,417	-58,342	0,110	0,035
-188,402	527,603	-0,068	0,117
-187,387	45,602	-0,078	-0,052
-186,373	-200,000	0,012	0,105
-185,358	155,010	-0,106	0,107
-184,344	249,755	0,093	0,116
-183,329	78,781	0,109	0,085
-182,315	800,000	-0,031	0,089
-181,300	-200,000	-0,007	0,080
-180,285	-121,181	0,131	-0,016
-179,271	154,362	-0,091	-0,091
-178,256	13,529	0,121	-0,068
-177,242	-19,644	0,119	0,053
-176,227	-104,051	0,030	-0,005
-175,212	167,191	0,056	0,058
-174,198	-13,873	-0,054	-0,025
-173,183	-84,286	-0,168	-0,038
-172,169	-118,479	0,038	-0,005
-171,154	800,000	-0,090	-0,233
-170,139	-30,234	-0,059	-0,024
-169,125	-39,384	-0,012	-0,005
-168,110	343,514	0,104	0,149
-167,096	5,334	-0,096	0,052
-166,081	171,410	-0,065	-0,068
-165,066	-200,000	-0,010	-0,083
-164,052	42,216	-0,080	-0,053
-163,037	-36,506	-0,044	-0,017
-162,023	-25,225	0,016	0,007
-161,008	32,863	0,048	-0,030
-159,993	-48,354	0,067	-0,023
-158,979	-200,000	-0,000	0,072
-157,964	29,729	-0,060	-0,037
-156,950	440,750	-0,054	-0,086
-155,935	139,785	0,048	-0,046
-154,920	128,071	-0,106	0,098
-153,906	-14,541	0,007	0,003
-152,891	255,357	0,103	0,128
-151,877	-3,820	-0,108	-0,054
-150,862	-200,000	0,004	0,049
-149,847	-41,069	-0,059	-0,022
-148,833	78,947	-0,151	0,117
-147,818	155,780	0,036	0,036
-146,804	63,776	0,066	0,048
-145,789	-200,000	0,008	0,036
-144,775	59,839	-0,073	0,052
-143,760	721,194	-0,076	-0,148
-142,745	48,373	0,077	0,053
-141,731	-24,447	-0,125	-0,054
-140,716	147,861	0,087	0,085
-139,702	-67,690	0,065	0,019
-138,687	-200,000	0,018	0,107
-137,672	-74,875	-0,166	0,043
-136,658	-200,000	0,000	-0,025
-135,643	-25,250	-0,142	0,061
-134,629	5,126	-0,026	0,014
-133,614	687,147	-0,011	-0,020
-132,599	553,900	-0,014	-0,024
-131,585	-147,909	0,039	0,002
-130,570	46,201	0,022	-0,015
-129,556	-200,000	-0,033	0,148
-128,541	149,424	-0,016	-0,016
-127,526	65,574	-0,113	0,083
-126,512	59,971	0,140	0,101
-125,497	393,951	-0,065	0,099
-124,483	293,797	0,016	-0,022
-123,468	115,841	0,075	0,067
-122,453	706,388	-0,104	-0,201
-121,439	800,000	0,033	-0,098
-120,424	478,896	0,045	0,074
-119,410	206,059	-0,095	-0,108
-118,395	800,000	0,048	-0,112
-117,380	-105,564	0,035	-0,006
-116,366	420,266	-0,028	-0,043
-115,351	62,192	0,074	-0,054
-114,337	0,243	0,062	-0,032
-113,322	-28,837	-0,072	-0,030
-112,307	-22,591	-0,157	-0,069
-111,293	645,892	0,067	-0,125
-110,278	-120,729	0,077	0,009
-109,264	800,000	-0,027	-0,065
-108,249	125,546	0,033	-0,030
-107,234	80,768	-0,022	0,018
-106,220	495,098	0,019	-0,032
-105,205	14,711	0,044	-0,025
-104,191	-200,000	-0,013	0,115
-103,176	800,000	0,029	0,062
-102,162	-38,489	0,066	-0,025
-101,147	-150,151	0,102	-0,006
-100,132	-146,461	-0,075	-0,005
-99,118	150,130	-0,033	-0,032
-98,103	-68,519	0,132	-0,037
-97,089	-63,787	-0,042	0,012
-96,074	72,421	0,041	-0,031
-95,059	-200,000	0,007	-0,146
-94,045	88,662	-0,170	0,137
-93,030	800,000	0,046	0,133
-92,016	-27,650	-0,122	0,051
-91,001	-200,000	0,012	-0,089
-89,986	13,561	0,101	0,057
-88,972	303,367	-0,049	-0,065
-87,957	-200,000	-0,014	-0,055
-86,943	52,221	0,025	0,017
-85,928	556,181	0,056	-0,098
-84,913	511,601	0,062	0,105
-83,899	153,368	-0,063	-0,063
-82,884	-58,998	0,185	0,058
-81,870	634,584	0,041	0,076
-80,855	245,268	-0,102	0,125
-79,840	-200,000	-0,047	0,159
-78,826	-108,851	0,132	0,020
-77,811	-91,972	-0,143	0,029
-76,797	-200,000	-0,031	0,156
-75,782	-200,000	-0,009	0,124
-74,767	-33,382	0,071	-0,028
-73,753	191,956	0,053	-0,058
-72,738	-90,662	-0,158	0,033
-71,724	163,241	-0,030	-0,031
-70,709	-200,000	0,010	0,130
-69,694	-82,905	-0,047	-0,011
-68,680	-119,974	-0,115	0,014
-67,665	-68,374	0,094	-0,026
-66,651	-200,000	0,043	0,183
-65,636	-113,530	-0,118	0,017
-64,622	-71,614	-0,121	-0,032
-63,607	452,004	-0,078	-0,126
-62,592	-170,825	-0,087	0,002
-61,578	186,254	0,043	0,047
-60,563	-200,000	0,008	0,138
-59,549	-154,689	-0,020	0,001
-58,534	-111,004	-1,504	-0,222
-57,519	800,000	-0,707	-1,451
-56,505	-200,000	-0,979	-4,328
-55,490	-200,000	0,526	-0,001
-54,476	800,000	4,949	11,803
-53,461	-200,000	14,489	259,931
-52,446	-200,000	695,283	2275,070
-51,432	603,372	1622,418	2938,805
-50,417	117,379	1631,694	1454,896
-49,403	74,646	1285,355	979,470
-48,388	37,171	1022,721	655,286
-47,373	23,432	981,617	583,760
-46,359	22,702	970,897	574,972
-45,344	21,572	966,495	568,650
-44,330	21,527	965,270	567,761
-43,315	21,372	963,708	566,315
-42,300	21,369	962,701	565,691
-41,286	21,391	961,571	565,076
-40,271	21,312	960,542	564,193
-39,257	21,356	959,642	563,784
-38,242	21,353	958,752	563,229
-37,227	21,316	957,899	562,585
-36,213	21,306	956,957	561,977
-35,198	21,266	956,134	561,343
-34,184	21,326	955,492	561,135
-33,169	21,289	954,535	560,434
-32,154	21,396	953,494	560,143
-31,140	21,311	952,820	559,451
-30,125	21,358	951,948	559,070
-29,111	21,350	951,177	558,569
-28,096	21,307	950,630	558,088
-27,082	21,339	949,986	557,791
-26,067	21,342	949,083	557,246
-25,052	21,320	948,314	556,703
-24,038	21,375	947,547	556,406
-23,023	21,317	947,196	555,992
-22,009	21,321	946,425	555,531
-20,994	21,289	945,800	555,040
-19,979	21,337	945,227	554,835
-18,965	21,283	944,772	554,374
-17,950	21,290	943,953	553,893
-16,936	21,266	943,227	553,367
-15,921	21,256	942,386	552,823
-14,906	21,212	941,775	552,302
-13,892	21,166	941,269	551,838
-12,877	21,240	940,453	551,572
-11,863	21,189	939,939	551,087
-10,848	21,143	939,521	550,674
-9,833	21,279	939,176	550,879
-8,819	21,302	938,345	550,444
-7,804	21,205	937,705	549,741
-6,790	21,166	937,044	549,208
-5,775	21,253	936,523	549,154
-4,760	21,239	935,726	548,620
-3,746	21,179	935,257	548,134
-2,731	21,078	934,505	547,355
-1,717	21,061	933,625	546,761
-0,702	21,055	933,304	546,535
0,313	20,850	932,623	546,315
1,327	23,340	930,139	552,634
2,342	30,937	807,582	500,388
3,356	25,537	508,331	305,730
4,371	1,202	373,743	193,796
5,386	-1,733	356,761	181,370
6,400	-3,136	350,871	176,663
7,415	-3,584	348,143	174,736
8,429	-3,596	346,878	174,072
9,444	-3,632	345,718	173,432
10,459	-3,534	345,096	173,220
11,473	-3,445	344,544	173,033
12,488	-3,479	343,879	172,644
13,502	-3,556	343,390	172,291
14,517	-3,502	342,946	172,117
15,531	-3,450	342,477	171,929
16,546	-3,503	342,151	171,686
17,561	-3,426	341,558	171,465
18,575	-3,273	341,260	171,480
19,590	-3,594	340,846	170,880
20,604	-3,386	340,608	170,989
21,619	-3,455	340,213	170,694
22,634	-3,314	339,751	170,612
23,648	-3,396	339,452	170,351
24,663	-3,348	339,143	170,236
25,677	-3,298	338,711	170,063
26,692	-3,364	338,523	169,876
27,707	-3,372	338,307	169,744
28,721	-3,350	337,822	169,511
29,736	-3,452	337,592	169,261
30,750	-3,432	337,273	169,110
31,765	-3,493	337,111	168,943
32,780	-3,294	336,823	169,014
33,794	-3,365	336,509	168,759
34,809	-3,445	336,290	168,542
35,823	-3,417	335,821	168,324
36,838	-3,254	335,608	168,391
37,853	-3,409	335,334	168,059
38,867	-3,532	335,064	167,767
39,882	-3,421	334,846	167,771
40,896	-3,375	334,650	167,711
41,911	-3,181	334,193	167,689
42,926	-3,436	333,999	167,285
43,940	-3,383	333,574	167,117
44,955	-3,346	333,304	167,010
45,969	-3,438	333,165	166,820
46,984	-3,308	332,904	166,823
47,999	-3,235	332,656	166,767
49,013	-3,367	332,507	166,527
50,028	-3,480	332,276	166,267
51,042	-3,372	331,859	166,167
52,057	-3,368	331,663	166,058
53,071	-3,367	331,430	165,929
54,086	-3,430	331,271	165,762
55,101	-3,339	330,954	165,692
56,115	-3,394	330,681	165,478
57,130	-3,332	330,295	165,341
58,144	-3,387	330,054	165,143
59,159	-3,457	329,758	164,901
60,174	-3,556	329,519	164,655
61,188	-3,418	329,160	164,617
62,203	-3,472	329,041	164,482
63,217	-3,470	328,771	164,333
64,232	-3,479	328,567	164,207
65,247	-3,336	328,181	164,161
66,261	-3,480	327,962	163,874
67,276	-3,295	327,648	163,912
68,290	-3,395	327,517	163,718
69,305	-3,409	327,296	163,577
70,320	-3,274	327,071	163,602
71,334	-3,400	326,628	163,225
72,349	-3,385	326,378	163,102
73,363	-3,314	326,134	163,045
74,378	-3,464	325,948	162,770
75,393	-3,514	325,719	162,586
76,407	-3,323	325,407	162,629
77,422	-3,396	325,198	162,427
78,436	-3,428	324,951	162,255
79,451	-3,413	324,654	162,108
80,466	-3,388	324,485	162,037
81,480	-3,416	324,252	161,875
82,495	-3,340	323,977	161,807
83,509	-3,305	323,685	161,687
84,524	-3,346	323,532	161,550
85,539	-3,324	323,341	161,464
86,553	-3,295	323,131	161,377
87,568	-3,238	322,839	161,280
88,582	-3,309	322,552	161,044
89,597	-3,199	322,213	160,982
90,611	-3,447	322,113	160,644
91,626	-3,270	321,967	160,752
92,641	-3,355	321,786	160,553
93,655	-3,281	321,285	160,370
94,670	-3,292	321,125	160,264
95,684	-3,358	320,931	160,080
96,699	-3,372	320,582	159,877
97,714	-3,466	320,468	159,702
98,728	-3,235	320,261	159,838
99,743	-3,360	320,016	159,566
100,757	-3,160	319,790	159,658
101,772	-3,421	319,574	159,250
102,787	-3,418	319,312	159,108
103,801	-3,335	318,981	159,020
104,816	-3,397	318,823	158,859
105,830	-3,471	318,722	158,714
106,845	-3,407	318,350	158,585
107,860	-3,208	318,038	158,631
108,874	-3,518	317,939	158,231
109,889	-3,375	317,633	158,219
110,903	-3,277	317,380	158,186
111,918	-3,201	317,037	158,083
112,933	-3,379	316,957	157,837
113,947	-3,349	316,691	157,722
114,962	-3,360	316,553	157,628
115,976	-3,380	316,302	157,467
116,991	-3,390	316,088	157,336
118,006	-3,354	315,678	157,156
119,020	-3,332	315,646	157,150
120,035	-3,364	315,501	157,029
121,049	-3,329	315,281	156,944
122,064	-3,438	315,074	156,709
123,079	-3,327	314,707	156,632
124,093	-3,274	314,469	156,557
125,108	-3,257	314,252	156,453
126,122	-3,319	314,095	156,294
127,137	-3,353	313,890	156,141
128,151	-3,371	313,707	156,018
129,166	-3,392	313,516	155,886
130,181	-3,263	313,056	155,781
131,195	-3,237	312,814	155,675
132,210	-3,368	312,541	155,386
133,224	-3,401	312,410	155,271
134,239	-3,171	312,188	155,392
135,254	-3,258	311,938	155,161
136,268	-3,193	311,785	155,140
137,283	-3,333	311,569	154,870
138,297	-3,356	311,354	154,725
139,312	-3,399	311,246	154,612
140,327	-3,270	310,837	154,531
141,341	-3,332	310,623	154,346
142,356	-3,322	310,393	154,228
143,370	-3,430	310,266	154,037
144,385	-3,210	309,981	154,114
145,400	-3,352	309,790	153,856
146,414	-3,240	309,571	153,851
147,429	-3,210	309,323	153,746
148,443	-3,297	309,126	153,543
149,458	-3,302	308,795	153,359
150,473	-3,335	308,755	153,291
151,487	-3,395	308,563	153,119
152,502	-3,248	308,167	153,064
153,516	-3,218	308,127	153,062
154,531	-3,247	307,830	152,870
155,546	-3,315	307,657	152,699
156,560	-3,310	307,456	152,591
157,575	-3,351	307,191	152,403
158,589	-3,361	306,968	152,269
159,604	-3,281	306,592	152,151
160,619	-3,252	306,400	152,073
161,633	-3,281	306,425	152,042
162,648	-3,281	306,178	151,905
163,662	-3,339	306,009	151,748
164,677	-3,263	305,775	151,697
165,692	-3,255	305,639	151,625
166,706	-3,235	305,423	151,524
167,721	-3,256	305,313	151,434
168,735	-3,471	304,918	151,002
169,750	-3,165	304,754	151,224
170,764	-3,205	304,550	151,069
171,779	-3,306	304,394	150,873
172,794	-3,327	304,289	150,786
173,808	-3,106	303,960	150,837
174,823	-3,316	303,685	150,471
175,837	-3,287	303,590	150,441
176,852	-3,316	303,367	150,286
177,867	-3,320	303,268	150,220
178,881	-3,376	302,904	149,969
179,896	-3,384	302,950	149,970
180,910	-3,246	302,447	149,849
181,925	-3,353	302,335	149,671
182,940	-3,155	302,002	149,695
183,954	-3,318	301,958	149,494
184,969	-3,240	301,774	149,469
185,983	-3,109	301,508	149,458
186,998	-3,221	301,392	149,272
188,013	-3,298	301,069	149,020
189,027	-3,256	301,005	149,018
190,042	-3,246	300,514	148,772
191,056	-3,283	300,491	148,710
192,071	-3,370	300,280	148,504
193,086	-3,368	300,017	148,363
194,100	-3,247	299,817	148,373
195,115	-3,172	299,497	148,278
196,129	-3,257	299,354	148,107
197,144	-3,270	299,134	147,972
198,159	-3,311	298,928	147,815
199,173	-3,288	298,699	147,712
200,188	-3,264	298,523	147,636
201,202	-3,176	298,283	147,593
202,217	-3,314	298,231	147,415
203,232	-3,214	297,753	147,267
204,246	-3,225	297,603	147,168
205,261	-3,277	297,432	147,018
206,275	-3,119	297,227	147,062
207,290	-3,121	297,207	147,038
208,304	-3,216	297,002	146,828
209,319	-3,290	296,700	146,591
210,334	-3,182	296,422	146,549
211,348	-3,238	296,329	146,434
212,363	-3,179	296,203	146,418
213,377	-3,219	295,938	146,233
214,392	-3,240	295,638	146,051
215,407	-3,253	295,613	146,013
216,421	-3,286	295,323	145,823
217,436	-3,250	295,084	145,728
218,450	-3,241	294,938	145,652
219,465	-3,182	294,568	145,515
220,480	-3,272	294,556	145,407
221,494	-3,128	294,314	145,417
222,509	-3,258	294,214	145,226
223,523	-3,183	293,906	145,135
224,538	-3,301	293,870	144,987
225,553	-3,371	293,631	144,788
226,567	-3,321	293,458	144,739
227,582	-3,148	293,200	144,770
228,596	-3,243	293,032	144,580
229,611	-3,130	292,951	144,639
230,626	-3,319	292,748	144,339
231,640	-3,267	292,422	144,216
232,655	-3,142	292,282	144,258
233,669	-3,087	292,011	144,165
234,684	-3,094	291,897	144,090
235,699	-3,170	291,661	143,885
236,713	-3,185	291,564	143,809
237,728	-3,300	291,300	143,554
238,742	-3,347	291,151	143,422
239,757	-3,213	291,013	143,472
240,772	-3,335	290,643	143,157
241,786	-3,235	290,602	143,222
242,801	-3,226	290,388	143,114
243,815	-3,143	290,280	143,128
244,830	-3,161	289,886	142,904
245,844	-3,369	289,775	142,633
246,859	-3,422	289,624	142,494
247,874	-3,307	289,439	142,503
248,888	-3,239	289,197	142,437
249,903	-3,279	288,932	142,255
250,917	-3,272	288,812	142,190
251,932	-3,307	288,576	142,027
252,947	-3,430	288,315	141,766
253,961	-3,839	287,926	141,165
254,976	-4,179	287,713	140,717
255,990	-4,003	287,626	140,834
257,005	-2,990	287,831	141,905
258,020	-0,739	288,584	144,452
259,034	0,501	288,986	145,846
260,049	1,325	288,841	146,561
261,063	1,601	288,905	146,848
262,078	1,840	288,881	147,055
263,093	2,081	288,691	147,179
264,107	2,112	288,712	147,206
265,122	2,453	288,494	147,413
266,136	2,412	288,417	147,321
267,151	2,603	288,138	147,350
268,166	2,681	287,933	147,307
269,180	2,520	287,987	147,166
270,195	2,680	287,613	147,117
271,209	2,508	287,462	146,859
272,224	2,564	287,257	146,796
273,239	2,445	287,114	146,595
274,253	2,313	286,742	146,265
275,268	2,489	286,692	146,396
276,282	2,526	286,274	146,205
277,297	2,337	286,280	146,013
278,312	2,407	286,092	145,972
279,326	2,364	285,917	145,828
280,341	2,278	285,763	145,654
281,355	2,412	285,512	145,641
282,370	2,423	285,412	145,588
283,384	2,191	285,061	145,175
284,399	2,435	284,882	145,303
285,414	2,431	284,812	145,251
286,428	2,284	284,602	144,990
287,443	2,420	284,517	145,063
288,457	2,030	284,256	144,546
289,472	2,423	283,910	144,731
290,487	2,353	283,676	144,533
291,501	2,114	283,687	144,298
292,516	2,207	283,433	144,244
293,530	2,132	283,282	144,083
294,545	2,158	283,132	144,019
295,560	2,121	282,892	143,850
296,574	2,059	282,619	143,639
297,589	1,956	282,495	143,465
298,603	2,125	282,273	143,500
299,618	2,177	282,202	143,500
300,633	2,352	282,032	143,566
301,647	2,301	281,838	143,407
302,662	2,257	281,664	143,263
303,676	2,327	281,508	143,237
304,691	2,391	281,202	143,129
305,706	2,639	281,098	143,296
306,720	2,521	280,909	143,076
307,735	2,539	280,705	142,976
308,749	2,442	280,572	142,805
309,764	2,416	280,307	142,633
310,779	2,485	280,152	142,606
311,793	2,422	279,991	142,453
312,808	2,546	279,741	142,428
313,822	2,446	279,650	142,276
314,837	2,380	279,384	142,066
315,852	2,444	279,315	142,079
316,866	2,495	279,067	141,988
317,881	2,460	278,914	141,864
318,895	2,437	278,763	141,754
319,910	2,197	278,611	141,440
320,925	2,366	278,396	141,475
321,939	2,489	278,201	141,478
322,954	2,483	278,043	141,379
323,968	2,346	277,941	141,188
324,983	2,560	277,823	141,314
325,997	2,568	277,593	141,192
327,012	2,533	277,287	140,991
328,027	2,318	277,143	140,707
329,041	2,319	277,080	140,662
330,056	2,343	276,867	140,564
331,070	2,544	276,641	140,622
332,085	2,355	276,499	140,364
333,100	2,463	276,307	140,353
334,114	2,454	276,060	140,206
335,129	2,572	275,859	140,201
336,143	2,626	275,689	140,152
337,158	2,499	275,423	139,887
338,173	2,537	275,417	139,907
339,187	2,580	275,181	139,813
340,202	2,526	275,140	139,730
341,216	2,581	274,744	139,568
342,231	2,378	274,650	139,321
343,246	2,485	274,483	139,322
344,260	2,582	274,270	139,290
345,275	2,561	274,257	139,253
346,289	2,581	274,143	139,200
347,304	2,629	273,774	139,045
348,319	2,365	273,711	138,758
349,333	2,439	273,556	138,736
350,348	2,489	273,425	138,702
351,362	2,534	273,170	138,602
352,377	2,553	273,057	138,549
353,392	2,627	272,688	138,417
354,406	2,687	272,559	138,393
355,421	192,357	1347,831	1430,501
356,435	155,335	1478,940	1430,622
