DTS Sentinel unit serial number:	SN410029Multiplexer serial number:	ORYXHardware model number:	OX2-SRSoftware version number:	ORYX F/W v4,00 Oryx Data Collector v3.7.2.0data status	okinstallation	B4 Nyhavnadifferential loss correction	single-endedforward channel	channel 2reverse channel	N/Adate	2023/12/19time	00:45:13forward acquisition time	300,00reverse acquisition time	0,00gamma	499,1914k internal	0,3123k external	0,3123temperature offset calibration	1,0000default loss term (dB/km)	0,3820temperature slope calibration	1,0000multiplexer offset coefficient	1,0000multiplexer slope coefficient	1,0000fibre end	0,00T internal ref (°C)	22,01T ext. ref 1 (°C)	6,39T ext. ref 2 (°C)	6,40length (m)	temperature (°C)	Stokes	anti-Stokes-744,400	255,643	-0,086	-0,111
-743,385	26,948	-0,130	0,081
-742,371	7,288	-0,042	0,023
-741,356	-87,267	-0,223	0,050
-740,342	-200,000	0,024	0,199
-739,327	-2,000	-0,204	0,107
-738,312	101,107	0,013	-0,011
-737,298	-122,434	-0,255	0,031
-736,283	-135,410	-0,058	-0,005
-735,269	-12,886	-0,264	0,128
-734,254	31,978	0,110	-0,071
-733,239	-85,154	-0,362	-0,084
-732,225	503,630	0,043	-0,075
-731,210	14,774	0,186	-0,108
-730,196	650,708	-0,062	-0,119
-729,181	-18,540	0,080	-0,037
-728,167	800,000	-0,018	-0,058
-727,152	456,812	-0,037	-0,061
-726,137	-72,710	-0,128	-0,035
-725,123	204,914	-0,056	0,064
-724,108	137,844	-0,066	-0,065
-723,094	511,719	-0,051	-0,089
-722,079	80,389	0,062	-0,050
-721,064	438,209	0,104	-0,169
-720,050	17,625	-0,051	0,030
-719,035	800,000	-0,043	0,091
-718,021	634,539	-0,037	-0,070
-717,006	336,964	0,077	-0,112
-715,991	-145,497	-0,077	0,005
-714,977	431,980	0,041	-0,067
-713,962	800,000	0,058	-0,154
-712,948	-93,836	-0,125	0,025
-711,933	134,507	-0,037	0,036
-710,918	276,376	0,044	0,058
-709,904	-23,287	-0,066	0,030
-708,889	800,000	-0,050	-0,136
-707,875	117,407	-0,115	-0,105
-706,860	800,000	0,027	-0,067
-705,845	-200,000	0,027	-0,155
-704,831	188,802	0,105	0,118
-703,816	800,000	0,034	-0,084
-702,802	693,363	-0,030	-0,059
-701,787	-200,000	-0,019	-0,142
-700,772	-85,165	0,107	-0,025
-699,758	-200,000	-0,019	-0,101
-698,743	800,000	-0,008	0,022
-697,729	-70,376	0,014	-0,004
-696,714	8,278	0,087	0,049
-695,699	140,032	-0,062	0,061
-694,685	-116,936	-0,147	0,020
-693,670	582,844	0,034	0,063
-692,656	159,736	0,058	-0,060
-691,641	-200,000	0,004	-0,041
-690,627	344,360	0,069	-0,101
-689,612	-105,016	0,111	-0,019
-688,597	5,847	-0,041	-0,022
-687,583	-200,000	0,020	-0,079
-686,568	-60,661	-0,050	0,016
-685,554	-11,857	0,119	-0,058
-684,539	-25,604	0,131	0,057
-683,524	-200,000	0,011	0,065
-682,510	-200,000	0,005	0,028
-681,495	388,215	-0,057	-0,088
-680,481	800,000	0,022	0,065
-679,466	-200,000	0,004	-0,048
-678,451	70,809	-0,086	0,066
-677,437	533,390	0,040	0,070
-676,422	4,606	-0,063	-0,034
-675,408	28,050	0,084	-0,052
-674,393	-200,000	0,022	-0,182
-673,378	465,853	0,005	0,009
-672,364	474,435	-0,041	-0,069
-671,349	415,610	-0,049	-0,078
-670,335	-106,338	0,088	-0,015
-669,320	-50,891	-0,022	0,008
-668,305	-17,670	-0,017	0,008
-667,291	-200,000	-0,000	0,143
-666,276	37,044	0,156	-0,102
-665,262	-70,419	-0,075	0,021
-664,247	41,694	-0,078	-0,052
-663,232	-136,530	-0,125	-0,011
-662,218	-200,000	-0,006	0,051
-661,203	-200,000	0,019	0,078
-660,189	-200,000	0,015	-0,055
-659,174	800,000	-0,051	-0,148
-658,159	49,367	-0,085	-0,060
-657,145	479,892	-0,098	-0,165
-656,130	85,654	0,030	0,025
-655,116	243,000	0,079	0,099
-654,101	-180,459	0,090	0,001
-653,086	792,810	0,012	0,025
-652,072	-200,000	-0,004	-0,036
-651,057	241,872	-0,112	-0,139
-650,043	-7,140	-0,068	-0,034
-649,028	483,520	-0,024	0,041
-648,014	800,000	0,021	-0,052
-646,999	366,538	0,050	0,075
-645,984	-200,000	0,000	0,088
-644,970	-70,528	-0,077	-0,022
-643,955	-0,539	-0,070	0,037
-642,941	385,612	-0,163	0,251
-641,926	-6,606	0,128	0,064
-640,911	-77,298	-0,062	0,016
-639,897	-111,747	-0,027	0,004
-638,882	-200,000	-0,005	-0,025
-637,868	25,091	-0,048	-0,029
-636,853	800,000	0,045	-0,103
-635,838	-101,326	-0,269	0,048
-634,824	3,770	0,076	0,041
-633,809	368,719	-0,057	-0,086
-632,795	-57,717	0,103	0,033
-631,780	702,948	0,003	-0,007
-630,765	536,955	-0,035	-0,061
-629,751	-200,000	0,018	-0,071
-628,736	800,000	-0,017	-0,041
-627,722	-200,000	0,006	-0,196
-626,707	316,646	-0,070	0,099
-625,692	-115,712	0,068	-0,009
-624,678	-121,271	0,066	-0,008
-623,663	800,000	0,038	0,088
-622,649	-200,000	-0,002	-0,061
-621,634	420,429	-0,059	-0,094
-620,619	1,211	0,147	-0,078
-619,605	172,740	0,079	-0,084
-618,590	800,000	0,022	-0,054
-617,576	190,565	0,039	0,043
-616,561	-200,000	0,026	-0,095
-615,546	-100,271	-0,136	0,025
-614,532	278,209	-0,033	-0,043
-613,517	-18,582	-0,046	0,021
-612,503	-127,749	-0,108	0,011
-611,488	-200,000	0,028	0,101
-610,474	102,573	0,008	0,007
-609,459	-107,151	-0,132	-0,021
-608,444	-200,000	0,013	-0,186
-607,430	-200,000	0,004	-0,138
-606,415	341,427	-0,080	-0,117
-605,401	122,024	-0,106	-0,098
-604,386	800,000	-0,029	0,068
-603,371	275,495	0,039	0,051
-602,357	-200,000	0,002	-0,065
-601,342	25,659	-0,171	0,106
-600,328	307,553	0,002	0,003
-599,313	-200,000	-0,000	0,042
-598,298	350,066	-0,054	0,079
-597,284	-32,615	0,112	0,046
-596,269	557,830	0,078	-0,140
-595,255	-2,634	0,048	-0,025
-594,240	481,553	-0,065	0,110
-593,225	800,000	-0,032	0,102
-592,211	-200,000	0,013	-0,072
-591,196	248,162	0,037	0,046
-590,182	27,821	0,051	0,032
-589,167	712,176	0,031	0,060
-588,152	-7,358	-0,136	-0,068
-587,138	-200,000	-0,004	0,025
-586,123	-94,209	-0,118	-0,024
-585,109	800,000	-0,009	0,024
-584,094	416,835	-0,067	0,107
-583,079	800,000	0,025	-0,053
-582,065	-78,646	-0,098	-0,025
-581,050	4,997	0,140	0,076
-580,036	64,816	0,045	-0,034
-579,021	800,000	0,013	0,033
-578,006	-104,134	-0,085	0,014
-576,992	162,707	-0,089	-0,092
-575,977	34,266	0,123	-0,079
-574,963	64,287	0,070	0,052
-573,948	82,573	-0,069	0,055
-572,934	246,477	0,022	-0,027
-571,919	-130,192	-0,130	-0,013
-570,904	71,568	-0,151	-0,116
-569,890	-184,830	-0,132	0,002
-568,875	-71,571	-0,091	0,025
-567,861	1,717	0,082	0,044
-566,846	83,356	-0,082	0,066
-565,831	240,829	-0,019	-0,023
-564,817	118,981	0,063	-0,057
-563,802	211,050	-0,059	0,069
-562,788	-133,419	-0,111	-0,010
-561,773	638,199	0,082	0,156
-560,758	-40,270	-0,123	0,047
-559,744	-200,000	-0,001	0,115
-558,729	491,078	0,109	0,185
-557,715	-154,899	-0,065	0,003
-556,700	800,000	-0,070	-0,165
-555,685	-200,000	0,022	0,085
-554,671	800,000	-0,008	-0,023
-553,656	-200,000	-0,004	-0,065
-552,642	74,627	-0,146	0,113
-551,627	-200,000	0,011	-0,037
-550,612	219,208	-0,091	-0,108
-549,598	-39,356	0,075	-0,029
-548,583	296,521	-0,055	-0,074
-547,569	800,000	-0,026	-0,060
-546,554	-52,507	-0,141	-0,048
-545,539	253,139	-0,033	0,041
-544,525	-102,397	0,091	-0,016
-543,510	-40,970	-0,083	-0,032
-542,496	-10,309	-0,108	0,053
-541,481	631,028	0,058	-0,109
-540,466	108,507	-0,031	-0,027
-539,452	-200,000	0,002	0,025
-538,437	800,000	0,074	-0,157
-537,423	-200,000	-0,011	0,191
-536,408	73,805	0,053	-0,041
-535,393	800,000	-0,024	-0,066
-534,379	289,255	-0,056	-0,075
-533,364	-3,063	0,055	-0,028
-532,350	36,442	-0,025	0,016
-531,335	258,573	0,059	-0,075
-530,321	358,829	-0,025	0,038
-529,306	410,991	0,074	0,116
-528,291	82,876	-0,085	0,068
-527,277	800,000	-0,070	0,147
-526,262	726,556	0,063	-0,125
-525,248	276,273	-0,080	-0,105
-524,233	112,638	0,063	0,056
-523,218	277,194	-0,023	-0,030
-522,204	8,310	-0,046	0,025
-521,189	800,000	0,042	-0,111
-520,175	-103,348	0,089	-0,015
-519,160	-82,176	0,048	0,011
-518,145	51,945	-0,034	-0,024
-517,131	-93,451	-0,095	0,019
-516,116	226,885	-0,041	0,049
-515,102	242,812	0,102	-0,127
-514,087	792,636	0,038	0,078
-513,072	31,864	-0,060	-0,038
-512,058	1,211	-0,056	0,030
-511,043	454,778	0,028	0,046
-510,029	-22,014	0,025	-0,011
-509,014	156,156	0,036	-0,036
-507,999	-98,044	0,106	0,020
-506,985	14,479	-0,115	0,066
-505,970	73,965	-0,010	-0,008
-504,956	-200,000	-0,015	-0,072
-503,941	-200,000	-0,006	0,036
-502,926	-153,677	0,084	-0,004
-501,912	800,000	-0,041	0,131
-500,897	48,302	0,075	0,052
-499,883	54,512	-0,088	-0,062
-498,868	92,596	-0,149	-0,124
-497,853	23,477	0,052	0,032
-496,839	-200,000	0,005	-0,035
-495,824	-112,818	0,059	0,009
-494,810	-124,791	-0,140	-0,016
-493,795	734,680	0,009	0,017
-492,781	-200,000	-0,010	0,049
-491,766	-97,601	-0,086	0,016
-490,751	-200,000	0,019	0,137
-489,737	800,000	0,024	0,058
-488,722	-22,193	-0,040	0,018
-487,708	-77,644	-0,191	-0,049
-486,693	-71,499	0,060	-0,016
-485,678	295,003	-0,035	-0,047
-484,664	113,501	-0,048	-0,043
-483,649	140,710	0,076	-0,074
-482,635	-200,000	-0,017	-0,071
-481,620	-91,808	0,114	0,024
-480,605	-200,000	-0,020	-0,068
-479,591	397,733	-0,040	-0,061
-478,576	87,980	0,028	-0,023
-477,562	65,904	-0,056	0,042
-476,547	-19,026	-0,125	-0,057
-475,532	-200,000	-0,008	-0,027
-474,518	-200,000	0,012	0,087
-473,503	800,000	0,030	0,062
-472,489	-37,360	0,093	0,036
-471,474	190,299	0,079	0,087
-470,459	120,200	-0,081	0,074
-469,445	800,000	0,072	0,165
-468,430	672,450	0,045	-0,086
-467,416	-79,177	0,064	-0,016
-466,401	-7,181	0,121	0,060
-465,386	302,826	-0,084	0,115
-464,372	-200,000	0,003	0,017
-463,357	-37,863	-0,046	0,018
-462,343	-77,554	-0,202	-0,051
-461,328	800,000	0,020	0,043
-460,313	-31,873	0,017	0,007
-459,299	422,004	0,052	-0,083
-458,284	32,012	0,045	0,029
-457,270	105,767	-0,112	0,097
-456,255	232,559	0,037	-0,045
-455,241	225,007	-0,041	0,049
-454,226	-3,203	0,109	-0,056
-453,211	326,742	-0,042	0,059
-452,197	246,362	0,046	-0,057
-451,182	-145,029	0,053	0,004
-450,168	-200,000	-0,004	0,064
-449,153	-200,000	-0,006	0,074
-448,138	800,000	-0,015	-0,036
-447,124	231,493	0,028	0,033
-446,109	4,755	-0,188	-0,101
-445,095	-5,748	-0,050	0,025
-444,080	87,554	-0,023	-0,018
-443,065	-50,028	0,046	-0,016
-442,051	434,861	-0,014	-0,023
-441,036	-200,000	-0,027	-0,147
-440,022	-200,000	-0,052	-0,208
-439,007	190,520	-0,055	0,061
-437,992	-200,000	0,018	0,099
-436,978	105,367	0,041	0,036
-435,963	19,994	0,113	0,067
-434,949	73,149	-0,146	-0,113
-433,934	-200,000	0,014	0,101
-432,919	7,264	-0,082	-0,045
-431,905	800,000	-0,073	-0,155
-430,890	800,000	-0,035	-0,087
-429,876	-200,000	-0,012	0,087
-428,861	663,620	-0,028	-0,054
-427,846	-200,000	0,016	-0,127
-426,832	800,000	-0,040	0,110
-425,817	-93,938	-0,054	-0,011
-424,803	-200,000	-0,018	-0,084
-423,788	-31,318	0,149	-0,062
-422,773	-77,129	0,077	0,019
-421,759	-200,000	0,001	0,080
-420,744	180,022	-0,045	-0,048
-419,730	-144,658	0,034	-0,002
-418,715	-200,000	0,034	-0,145
-417,701	-200,000	0,003	0,053
-416,686	-49,031	-0,098	-0,034
-415,671	311,416	-0,074	0,103
-414,657	-50,549	0,146	0,050
-413,642	348,962	-0,032	-0,046
-412,628	-155,303	-0,095	0,004
-411,613	64,199	0,081	0,060
-410,598	65,570	0,063	-0,047
-409,584	255,899	0,065	-0,083
-408,569	-63,975	0,161	-0,048
-407,555	265,122	0,099	0,127
-406,540	310,613	-0,050	0,069
-405,525	86,107	-0,079	-0,064
-404,511	155,248	-0,044	-0,044
-403,496	-200,000	-0,021	0,099
-402,482	284,328	0,058	-0,077
-401,467	800,000	0,011	-0,027
-400,452	11,398	0,094	-0,053
-399,438	-200,000	-0,013	0,126
-398,423	800,000	-0,066	-0,147
-397,409	-60,150	-0,106	-0,033
-396,394	800,000	-0,015	-0,049
-395,379	-48,765	-0,017	0,006
-394,365	329,182	0,087	0,123
-393,350	-200,000	0,005	0,023
-392,336	-200,000	0,028	0,127
-391,321	191,073	0,114	-0,126
-390,306	590,975	-0,039	-0,071
-389,292	-101,915	-0,090	0,016
-388,277	179,557	0,037	0,040
-387,263	84,106	0,033	0,026
-386,248	508,563	0,068	0,117
-385,233	-81,442	0,029	0,007
-384,219	-7,333	0,157	0,078
-383,204	-47,068	-0,073	-0,026
-382,190	238,935	0,054	0,066
-381,175	-200,000	-0,018	0,113
-380,160	-2,830	-0,021	-0,011
-379,146	729,975	-0,040	-0,079
-378,131	800,000	0,047	0,150
-377,117	-13,550	0,058	-0,027
-376,102	69,529	-0,056	0,042
-375,088	-200,000	-0,011	0,142
-374,073	366,823	-0,024	0,035
-373,058	800,000	-0,081	-0,167
-372,044	-27,808	-0,025	-0,011
-371,029	-78,938	0,023	0,006
-370,015	198,711	-0,064	-0,072
-369,000	482,948	-0,054	-0,091
-367,985	-200,000	-0,002	-0,033
-366,971	43,456	-0,009	0,006
-365,956	96,485	0,071	0,060
-364,942	-76,091	-0,073	-0,019
-363,927	20,005	0,104	-0,061
-362,912	-121,492	0,147	0,018
-361,898	-200,000	-0,008	-0,172
-360,883	-200,000	-0,010	-0,066
-359,869	800,000	-0,030	-0,062
-358,854	133,912	-0,034	-0,033
-357,839	743,115	0,021	-0,042
-356,825	271,773	0,099	-0,128
-355,810	-200,000	-0,012	0,105
-354,796	387,270	-0,042	-0,064
-353,781	-200,000	0,005	-0,039
-352,766	-200,000	-0,003	-0,082
-351,752	158,547	0,085	-0,087
-350,737	-62,229	0,079	0,024
-349,723	800,000	0,003	0,007
-348,708	-200,000	-0,035	0,130
-347,693	93,309	0,127	-0,106
-346,679	-200,000	-0,023	-0,078
-345,664	253,447	-0,094	-0,118
-344,650	-55,839	0,046	0,015
-343,635	-200,000	-0,028	0,119
-342,620	800,000	0,040	0,088
-341,606	-200,000	0,015	0,059
-340,591	-200,000	-0,003	0,100
-339,577	-68,083	0,057	-0,016
-338,562	377,555	-0,042	-0,063
-337,548	800,000	-0,028	-0,074
-336,533	350,800	0,072	-0,105
-335,518	-97,277	0,222	0,042
-334,504	-73,987	-0,018	0,005
-333,489	109,339	-0,059	0,052
-332,475	-200,000	0,015	-0,088
-331,460	308,932	0,102	0,140
-330,445	496,205	-0,038	-0,064
-329,431	-50,119	-0,111	0,038
-328,416	59,471	0,179	0,129
-327,402	86,429	0,086	-0,070
-326,387	800,000	-0,037	0,102
-325,372	-137,178	0,044	0,004
-324,358	-200,000	-0,021	-0,148
-323,343	233,806	0,053	0,065
-322,329	247,257	0,033	0,041
-321,314	-193,999	0,064	0,000
-320,299	-93,913	0,071	0,014
-319,285	323,804	-0,015	0,022
-318,270	-200,000	-0,015	0,066
-317,256	118,614	-0,028	-0,026
-316,241	-119,187	0,086	-0,011
-315,226	125,515	0,024	-0,022
-314,212	-200,000	-0,002	0,154
-313,197	800,000	-0,024	0,074
-312,183	164,773	0,051	-0,052
-311,168	58,565	-0,057	-0,041
-310,153	-68,289	-0,063	0,018
-309,139	139,878	-0,051	-0,049
-308,124	113,689	0,055	0,049
-307,110	800,000	0,088	0,183
-306,095	-200,000	0,002	0,016
-305,080	46,281	0,037	-0,025
-304,066	305,323	-0,057	0,078
-303,051	16,498	0,006	-0,003
-302,037	100,936	-0,054	0,046
-301,022	145,294	0,083	0,081
-300,008	289,097	0,036	0,048
-298,993	-57,070	0,077	-0,025
-297,978	432,308	0,030	0,047
-296,964	-33,441	-0,090	-0,036
-295,949	428,909	-0,031	-0,049
-294,935	800,000	0,022	-0,061
-293,920	-200,000	-0,038	0,149
-292,905	185,580	0,076	0,083
-291,891	134,315	0,146	0,138
-290,876	-200,000	-0,007	0,193
-289,862	-165,587	-0,173	-0,005
-288,847	-61,899	-0,045	-0,014
-287,832	-35,590	-0,100	-0,040
-286,818	-200,000	0,015	0,129
-285,803	490,720	0,057	0,097
-284,789	449,239	0,091	0,147
-283,774	347,743	-0,068	0,098
-282,759	39,845	0,024	-0,016
-281,745	-73,753	-0,046	0,012
-280,730	-82,127	-0,157	0,037
-279,716	34,600	0,108	0,069
-278,701	800,000	-0,042	-0,091
-277,686	99,263	-0,049	0,041
-276,672	800,000	-0,020	0,055
-275,657	268,109	0,087	-0,112
-274,643	543,890	0,070	-0,123
-273,628	-108,167	-0,167	0,026
-272,613	-200,000	0,002	-0,083
-271,599	-200,000	-0,010	-0,037
-270,584	31,881	-0,043	-0,027
-269,570	-18,365	0,213	-0,097
-268,555	-86,998	0,072	-0,016
-267,540	144,030	0,136	0,132
-266,526	25,875	-0,080	-0,049
-265,511	578,079	-0,030	0,054
-264,497	59,344	0,131	0,094
-263,482	48,624	0,082	0,056
-262,467	741,959	0,031	-0,062
-261,453	800,000	-0,053	0,143
-260,438	-151,548	0,064	0,003
-259,424	793,368	0,043	0,087
-258,409	417,409	-0,101	0,158
-257,395	-200,000	-0,016	0,054
-256,380	800,000	0,025	0,074
-255,365	800,000	-0,050	0,130
-254,351	-200,000	0,020	0,095
-253,336	297,602	0,065	-0,087
-252,322	-200,000	-0,008	-0,093
-251,307	-18,657	0,036	0,016
-250,292	497,810	0,106	-0,179
-249,278	-169,935	0,185	-0,005
-248,263	410,550	-0,058	0,090
-247,249	-77,891	-0,028	0,007
-246,234	-200,000	0,004	-0,058
-245,219	90,837	0,131	-0,107
-244,205	304,066	-0,016	-0,022
-243,190	-200,000	0,003	0,077
-242,176	-89,215	0,120	-0,026
-241,161	800,000	-0,035	0,089
-240,146	-200,000	0,015	-0,088
-239,132	68,692	0,057	-0,042
-238,117	142,710	-0,079	-0,077
-237,103	800,000	0,065	-0,152
-236,088	800,000	0,033	0,081
-235,073	784,535	-0,058	-0,117
-234,059	-200,000	0,009	-0,143
-233,044	-40,209	0,079	-0,030
-232,030	800,000	0,035	0,084
-231,015	-86,709	0,079	-0,017
-230,000	-5,381	0,077	-0,039
-228,986	800,000	0,029	-0,079
-227,971	-56,825	-0,092	0,030
-226,957	115,845	-0,061	0,054
-225,942	48,156	0,007	0,005
-224,927	-13,567	-0,043	-0,020
-223,913	268,494	0,044	-0,057
-222,898	573,776	0,052	-0,092
-221,884	-101,487	-0,068	-0,012
-220,869	-200,000	0,011	-0,045
-219,855	-105,648	0,160	0,026
-218,840	-200,000	-0,029	0,096
-217,825	800,000	-0,052	0,153
-216,811	567,449	0,026	0,046
-215,796	183,740	-0,081	-0,088
-214,782	-200,000	-0,003	0,124
-213,767	535,712	-0,055	0,095
-212,752	-70,055	-0,061	0,017
-211,738	800,000	-0,055	0,156
-210,723	65,235	0,134	0,099
-209,709	57,494	-0,045	-0,032
-208,694	160,038	-0,062	-0,063
-207,679	569,057	0,061	-0,109
-206,665	-143,195	0,112	0,008
-205,650	800,000	0,051	0,117
-204,636	-37,308	0,113	-0,044
-203,621	-22,619	0,109	0,048
-202,606	-200,000	0,045	-0,170
-201,592	800,000	0,064	-0,142
-200,577	169,303	-0,094	0,098
-199,563	800,000	-0,010	-0,031
-198,548	467,535	0,070	0,116
-197,533	-147,528	-0,090	-0,005
-196,519	28,191	0,077	-0,047
-195,504	522,154	-0,008	0,015
-194,490	352,688	-0,049	-0,071
-193,475	203,411	-0,082	-0,093
-192,460	-87,283	0,096	-0,021
-191,446	41,401	0,088	0,058
-190,431	-200,000	0,009	-0,097
-189,417	800,000	-0,024	0,057
-188,402	-99,207	0,118	-0,021
-187,387	-200,000	0,032	-0,105
-186,373	-14,816	-0,073	0,034
-185,358	-46,569	0,089	-0,032
-184,344	73,436	0,048	-0,036
-183,329	-140,574	0,105	-0,008
-182,315	714,485	0,039	0,077
-181,300	19,829	-0,090	0,053
-180,285	369,130	-0,059	-0,087
-179,271	-166,622	-0,071	0,002
-178,256	190,847	0,103	-0,113
-177,242	-200,000	-0,009	-0,065
-176,227	-200,000	-0,004	0,044
-175,212	-160,611	-0,086	-0,003
-174,198	-91,770	-0,135	-0,028
-173,183	800,000	-0,077	-0,211
-172,169	-200,000	-0,024	-0,199
-171,154	176,924	0,132	-0,141
-170,139	-83,600	-0,048	0,011
-169,125	-180,522	0,077	0,001
-168,110	-200,000	-0,004	0,151
-167,096	-90,845	-0,109	0,023
-166,081	199,373	-0,053	0,059
-165,066	-111,218	-0,011	0,002
-164,052	-200,000	0,002	-0,106
-163,037	-2,250	-0,016	0,008
-162,023	800,000	0,025	-0,052
-161,008	-5,823	0,093	0,046
-159,993	-80,133	-0,047	-0,011
-158,979	-200,000	0,006	-0,097
-157,964	72,762	-0,113	0,086
-156,950	-66,379	0,090	-0,026
-155,935	153,685	-0,053	0,053
-154,920	-200,000	-0,000	-0,062
-153,906	14,011	-0,063	0,036
-152,891	395,913	-0,031	0,047
-151,877	-5,621	-0,109	-0,054
-150,862	-42,562	-0,094	-0,035
-149,847	-22,370	-0,150	0,066
-148,833	369,646	0,058	-0,087
-147,818	127,033	0,062	-0,057
-146,804	-200,000	-0,015	0,126
-145,789	-200,000	-0,020	0,162
-144,775	-78,758	-0,018	-0,004
-143,760	-44,018	-0,056	-0,020
-142,745	93,732	0,069	-0,057
-141,731	20,906	0,097	-0,057
-140,716	-101,286	0,128	0,023
-139,702	468,279	0,030	0,049
-138,687	144,364	-0,062	0,060
-137,672	800,000	0,050	-0,134
-136,658	-77,460	0,110	-0,028
-135,643	-136,531	0,035	-0,003
-134,629	-200,000	0,030	-0,122
-133,614	800,000	0,011	0,026
-132,599	150,501	0,084	-0,083
-131,585	-200,000	0,004	-0,027
-130,570	-109,453	0,124	-0,019
-129,556	4,967	0,026	-0,014
-128,541	191,762	-0,012	0,014
-127,526	507,337	0,051	0,087
-126,512	800,000	0,035	0,093
-125,497	-181,990	0,064	0,001
-124,483	-109,371	-0,098	-0,015
-123,468	83,802	0,026	0,021
-122,453	800,000	-0,074	-0,218
-121,439	-21,592	-0,102	-0,045
-120,424	-63,256	-0,014	-0,004
-119,410	102,807	0,035	0,030
-118,395	437,239	-0,109	0,173
-117,380	800,000	0,019	0,039
-116,366	99,998	0,142	-0,120
-115,351	322,904	-0,075	-0,105
-114,337	529,520	-0,089	-0,154
-113,322	-200,000	0,004	0,042
-112,307	-200,000	0,006	-0,081
-111,293	-44,306	0,070	-0,025
-110,278	355,683	-0,072	-0,105
-109,264	-59,915	-0,013	-0,004
-108,249	800,000	-0,028	-0,078
-107,234	360,952	0,098	0,143
-106,220	85,178	-0,135	0,107
-105,205	169,135	0,122	0,127
-104,191	800,000	-0,007	-0,016
-103,176	-35,355	0,033	-0,013
-102,162	132,793	-0,077	-0,072
-101,147	86,274	0,097	-0,077
-100,132	-151,780	-0,065	0,003
-99,118	-200,000	0,005	0,127
-98,103	-76,576	0,075	-0,019
-97,089	545,774	-0,059	0,103
-96,074	232,248	0,102	0,121
-95,059	14,141	0,027	-0,015
-94,045	-200,000	-0,025	-0,089
-93,030	-141,035	0,150	0,011
-92,016	11,386	0,150	-0,083
-91,001	-200,000	0,041	-0,157
-89,986	7,366	-0,017	-0,009
-88,972	114,084	0,034	-0,030
-87,957	800,000	-0,024	0,075
-86,943	-10,478	0,046	-0,022
-85,928	135,904	0,064	-0,060
-84,913	-200,000	0,037	-0,142
-83,899	-74,062	0,131	-0,034
-82,884	-11,462	-0,058	0,028
-81,870	70,555	0,030	0,022
-80,855	800,000	0,034	0,074
-79,840	672,391	0,020	-0,038
-78,826	147,906	-0,046	0,045
-77,811	-200,000	-0,006	-0,150
-76,797	-130,423	0,095	0,009
-75,782	-33,208	0,134	-0,054
-74,767	800,000	-0,011	-0,025
-73,753	35,291	0,061	0,039
-72,738	-22,117	-0,057	0,025
-71,724	-200,000	0,036	-0,201
-70,709	800,000	-0,044	-0,099
-69,694	38,000	0,101	-0,065
-68,680	-1,406	0,149	-0,076
-67,665	99,995	0,077	0,065
-66,651	-59,444	0,104	0,032
-65,636	-200,000	0,013	-0,081
-64,622	-93,964	0,070	0,014
-63,607	-48,688	0,077	0,027
-62,592	-143,111	0,052	-0,004
-61,578	335,949	-0,060	0,085
-60,563	-134,969	-0,039	-0,003
-59,549	-9,520	0,064	0,031
-58,534	-127,064	-1,333	-0,140
-57,519	363,318	-1,031	-1,509
-56,505	-200,000	-0,820	-4,488
-55,490	-70,211	0,521	-0,143
-54,476	800,000	4,921	11,820
-53,461	-200,000	13,915	253,315
-52,446	-200,000	693,624	2262,999
-51,432	600,830	1623,702	2938,501
-50,417	117,989	1633,029	1460,102
-49,403	73,792	1287,063	978,057
-48,388	37,591	1023,292	657,580
-47,373	24,048	981,611	586,244
-46,359	23,244	971,412	577,495
-45,344	22,282	967,080	571,752
-44,330	22,190	965,561	570,529
-43,315	22,109	963,909	569,267
-42,300	22,037	962,988	568,465
-41,286	22,072	961,966	567,956
-40,271	22,058	960,995	567,314
-39,257	22,059	960,055	566,738
-38,242	22,033	959,192	566,123
-37,227	22,022	958,241	565,504
-36,213	22,018	957,558	565,064
-35,198	22,011	956,556	564,428
-34,184	22,024	955,924	564,073
-33,169	21,992	955,065	563,444
-32,154	22,103	953,971	563,134
-31,140	22,118	953,189	562,697
-30,125	22,057	952,550	562,100
-29,111	22,115	951,583	561,696
-28,096	22,047	950,865	561,029
-27,082	22,054	950,364	560,736
-26,067	22,046	949,544	560,202
-25,052	22,038	948,795	559,714
-24,038	22,079	948,255	559,504
-23,023	21,993	947,529	558,779
-22,009	22,001	946,865	558,389
-20,994	22,030	946,243	558,094
-19,979	22,117	945,550	557,940
-18,965	22,042	944,942	557,321
-17,950	22,079	944,406	557,099
-16,936	21,998	943,710	556,408
-15,921	21,991	942,937	555,908
-14,906	21,937	942,217	555,290
-13,892	21,925	941,589	554,862
-12,877	21,858	941,063	554,314
-11,863	21,917	940,174	553,957
-10,848	21,856	940,042	553,665
-9,833	22,013	939,406	553,765
-8,819	22,016	938,772	553,380
-7,804	21,952	938,048	552,726
-6,790	21,924	937,485	552,285
-5,775	22,019	936,811	552,168
-4,760	21,979	936,302	551,718
-3,746	21,925	935,670	551,153
-2,731	21,800	934,964	550,320
-1,717	21,813	934,199	549,891
-0,702	21,727	933,679	549,291
0,313	21,582	932,898	549,202
1,327	24,063	930,546	555,569
2,342	31,733	808,797	503,677
3,356	26,342	509,145	307,833
4,371	1,263	374,089	194,201
5,386	-1,839	357,022	181,511
6,400	-2,874	350,956	177,159
7,415	-3,155	348,374	175,502
8,429	-3,151	347,014	174,805
9,444	-3,089	346,204	174,456
10,459	-2,984	345,397	174,159
11,473	-3,121	345,039	173,800
12,488	-3,038	344,184	173,452
13,502	-3,268	343,693	172,917
14,517	-3,211	343,206	172,724
15,531	-3,091	342,965	172,729
16,546	-2,960	342,392	172,579
17,561	-3,065	341,932	172,208
18,575	-2,868	341,637	172,277
19,590	-3,024	341,201	171,857
20,604	-2,999	340,825	171,682
21,619	-2,926	340,423	171,550
22,634	-2,855	340,013	171,411
23,648	-2,917	339,667	171,149
24,663	-2,811	339,391	171,119
25,677	-2,864	339,163	170,927
26,692	-2,892	338,879	170,735
27,707	-2,949	338,703	170,566
28,721	-2,889	338,210	170,372
29,736	-3,041	338,043	170,095
30,750	-3,053	337,544	169,815
31,765	-3,094	337,331	169,646
32,780	-2,992	337,075	169,620
33,794	-2,952	336,749	169,487
34,809	-2,978	336,540	169,337
35,823	-3,003	336,146	169,094
36,838	-2,972	335,896	168,989
37,853	-2,998	335,633	168,812
38,867	-3,037	335,372	168,620
39,882	-2,827	335,071	168,696
40,896	-2,954	334,755	168,376
41,911	-2,948	334,538	168,259
42,926	-2,836	334,131	168,168
43,940	-3,005	334,000	167,893
44,955	-2,889	333,610	167,815
45,969	-2,993	333,354	167,552
46,984	-2,936	333,210	167,530
47,999	-2,778	332,966	167,573
49,013	-2,896	332,774	167,326
50,028	-2,958	332,553	167,129
51,042	-2,987	332,287	166,948
52,057	-2,930	332,010	166,859
53,071	-2,889	331,653	166,711
54,086	-2,984	331,466	166,494
55,101	-2,943	331,352	166,469
56,115	-2,888	330,879	166,279
57,130	-2,980	330,642	166,040
58,144	-2,838	330,405	166,068
59,159	-2,779	330,061	165,946
60,174	-3,139	329,899	165,442
61,188	-2,969	329,598	165,469
62,203	-2,976	329,305	165,300
63,217	-2,978	329,124	165,192
64,232	-2,847	328,759	165,141
65,247	-2,895	328,388	164,886
66,261	-2,983	328,249	164,703
67,276	-3,072	328,028	164,477
68,290	-3,058	327,839	164,383
69,305	-2,902	327,730	164,489
70,320	-3,048	327,363	164,126
71,334	-2,938	327,004	164,056
72,349	-2,993	326,794	163,874
73,363	-2,867	326,539	163,872
74,378	-2,944	326,215	163,609
75,393	-2,931	325,976	163,489
76,407	-2,897	325,734	163,392
77,422	-2,934	325,495	163,215
78,436	-2,888	325,376	163,192
79,451	-2,899	324,852	162,903
80,466	-2,980	324,688	162,717
81,480	-3,121	324,536	162,469
82,495	-2,864	324,038	162,490
83,509	-2,963	323,918	162,306
84,524	-2,856	323,774	162,337
85,539	-2,962	323,429	162,033
86,553	-2,873	323,203	162,003
87,568	-2,877	322,944	161,855
88,582	-2,950	322,785	161,680
89,597	-2,880	322,587	161,644
90,611	-2,967	322,270	161,374
91,626	-2,784	321,995	161,424
92,641	-2,943	321,907	161,191
93,655	-2,857	321,571	161,102
94,670	-2,987	321,240	160,779
95,684	-2,896	321,237	160,864
96,699	-3,056	321,025	160,568
97,714	-2,877	320,633	160,553
98,728	-2,917	320,403	160,380
99,743	-2,838	320,192	160,346
100,757	-2,788	319,875	160,228
101,772	-2,813	319,599	160,049
102,787	-3,009	319,419	159,729
103,801	-3,009	319,191	159,601
104,816	-2,934	319,036	159,592
105,830	-3,005	318,804	159,384
106,845	-2,910	318,595	159,369
107,860	-2,953	318,336	159,178
108,874	-2,891	318,130	159,129
109,889	-3,104	317,960	158,797
110,903	-3,007	317,682	158,750
111,918	-3,147	317,512	158,499
112,933	-2,984	317,156	158,484
113,947	-3,011	316,870	158,297
114,962	-2,961	316,816	158,310
115,976	-3,013	316,666	158,165
116,991	-2,955	316,302	158,032
118,006	-3,110	315,986	157,693
119,020	-3,026	316,001	157,777
120,035	-2,877	315,711	157,778
121,049	-3,075	315,609	157,500
122,064	-2,850	315,246	157,547
123,079	-2,979	314,958	157,251
124,093	-2,987	314,725	157,112
125,108	-2,891	314,531	157,104
126,122	-3,097	314,452	156,829
127,137	-2,929	314,139	156,840
128,151	-2,895	313,958	156,771
129,166	-2,996	313,829	156,585
130,181	-2,855	313,533	156,574
131,195	-2,869	313,260	156,408
132,210	-2,891	312,949	156,216
133,224	-2,927	312,714	156,046
134,239	-2,918	312,458	155,914
135,254	-2,998	312,309	155,740
136,268	-2,883	312,007	155,699
137,283	-2,874	311,682	155,532
138,297	-3,143	311,784	155,283
139,312	-2,857	311,427	155,396
140,327	-2,906	311,175	155,203
141,341	-2,890	310,792	155,016
142,356	-2,916	310,694	154,926
143,370	-2,795	310,307	154,847
144,385	-2,915	310,242	154,674
145,400	-2,732	310,073	154,769
146,414	-2,892	309,799	154,449
147,429	-3,023	309,593	154,194
148,443	-2,766	309,263	154,287
149,458	-2,949	309,262	154,081
150,473	-2,954	308,965	153,913
151,487	-2,951	308,732	153,787
152,502	-2,805	308,607	153,864
153,516	-2,729	308,211	153,733
154,531	-2,807	308,021	153,543
155,546	-2,805	307,863	153,452
156,560	-2,900	307,712	153,264
157,575	-2,846	307,374	153,139
158,589	-2,698	307,126	153,155
159,604	-2,858	306,996	152,910
160,619	-2,648	306,727	152,981
161,633	-2,637	306,553	152,892
162,648	-2,734	306,475	152,739
163,662	-3,001	306,359	152,389
164,677	-2,878	306,007	152,328
165,692	-2,916	305,808	152,177
166,706	-2,897	305,577	152,068
167,721	-2,626	305,467	152,281
168,735	-2,620	305,216	152,149
169,750	-2,711	304,908	151,887
170,764	-2,834	304,817	151,701
171,779	-2,820	304,627	151,607
172,794	-2,750	304,420	151,562
173,808	-2,928	304,253	151,283
174,823	-2,835	304,074	151,276
175,837	-2,992	303,792	150,960
176,852	-2,923	303,547	150,896
177,867	-2,879	303,331	150,821
178,881	-2,835	303,157	150,765
179,896	-2,827	302,984	150,675
180,910	-2,746	302,679	150,593
181,925	-2,829	302,505	150,408
182,940	-2,902	302,452	150,292
183,954	-2,749	302,243	150,333
184,969	-2,915	302,037	150,047
185,983	-2,673	301,897	150,211
186,998	-2,732	301,575	149,977
188,013	-2,703	301,388	149,901
189,027	-2,697	301,093	149,747
190,042	-2,797	300,930	149,550
191,056	-2,794	300,761	149,456
192,071	-3,043	300,562	149,090
193,086	-2,946	300,349	149,069
194,100	-3,060	300,246	148,890
195,115	-2,916	299,944	148,872
196,129	-2,753	299,686	148,897
197,144	-2,771	299,488	148,767
198,159	-2,784	299,197	148,596
199,173	-2,828	299,018	148,449
200,188	-2,931	298,687	148,167
201,202	-2,891	298,568	148,136
202,217	-2,755	298,434	148,194
203,232	-2,787	298,149	148,007
204,246	-2,820	297,835	147,804
205,261	-2,813	297,657	147,710
206,275	-2,771	297,651	147,736
207,290	-2,662	297,324	147,670
208,304	-2,752	297,198	147,504
209,319	-2,696	297,048	147,473
210,334	-2,812	296,731	147,185
211,348	-2,632	296,627	147,301
212,363	-2,714	296,517	147,151
213,377	-2,675	296,271	147,055
214,392	-2,658	296,079	146,963
215,407	-2,720	295,718	146,709
216,421	-2,897	295,542	146,432
217,436	-2,779	295,304	146,419
218,450	-2,917	295,088	146,161
219,465	-2,839	294,939	146,152
220,480	-2,798	294,664	146,044
221,494	-2,944	294,671	145,889
222,509	-2,854	294,397	145,830
223,523	-3,020	294,290	145,598
224,538	-2,757	293,986	145,696
225,553	-2,691	293,709	145,612
226,567	-2,669	293,644	145,588
227,582	-2,652	293,305	145,424
228,596	-2,862	293,395	145,247
229,611	-2,793	293,221	145,216
230,626	-2,877	292,989	145,006
231,640	-2,711	292,739	145,033
232,655	-2,598	292,588	145,058
233,669	-2,931	292,337	144,591
234,684	-2,752	292,132	144,653
235,699	-2,920	292,005	144,412
236,713	-2,643	291,763	144,552
237,728	-2,788	291,521	144,276
238,742	-2,871	291,285	144,066
239,757	-2,803	291,164	144,060
240,772	-2,835	290,914	143,892
241,786	-2,748	290,759	143,887
242,801	-2,606	290,437	143,854
243,815	-2,732	290,480	143,739
244,830	-2,722	290,132	143,564
245,844	-2,674	289,842	143,455
246,859	-2,808	289,643	143,213
247,874	-2,807	289,576	143,167
248,888	-2,834	289,369	143,026
249,903	-3,038	289,385	142,823
250,917	-2,874	289,040	142,799
251,932	-2,673	288,800	142,864
252,947	-3,113	288,581	142,314
253,961	-3,619	288,050	141,547
254,976	-4,203	287,769	140,829
255,990	-4,091	287,509	140,799
257,005	-3,172	287,876	141,858
258,020	-0,980	288,767	144,419
259,034	0,633	289,008	146,097
260,049	1,030	289,260	146,599
261,063	1,533	289,144	147,015
262,078	1,850	288,942	147,208
263,093	2,165	288,823	147,440
264,107	2,223	288,826	147,485
265,122	2,510	288,701	147,686
266,136	2,583	288,539	147,661
267,151	2,680	288,272	147,605
268,166	2,637	288,114	147,469
269,180	2,622	287,997	147,382
270,195	2,543	287,862	147,223
271,209	2,626	287,581	147,146
272,224	2,715	287,299	147,075
273,239	2,414	287,241	146,742
274,253	2,452	286,951	146,617
275,268	2,412	286,737	146,456
276,282	2,362	286,535	146,292
277,297	2,323	286,400	146,173
278,312	2,341	286,300	146,126
279,326	2,502	286,083	146,157
280,341	2,521	285,746	145,990
281,355	2,316	285,807	145,811
282,370	2,355	285,490	145,674
283,384	2,314	285,240	145,495
284,399	2,482	285,060	145,550
285,414	2,373	284,885	145,343
286,428	2,291	284,702	145,158
287,443	2,393	284,477	145,128
288,457	2,391	284,320	145,033
289,472	2,370	283,961	144,817
290,487	2,282	283,910	144,694
291,501	2,228	283,595	144,469
292,516	2,239	283,392	144,364
293,530	2,106	283,397	144,228
294,545	2,186	283,160	144,170
295,560	2,233	283,065	144,153
296,574	2,395	282,801	144,159
297,589	2,191	282,656	143,880
298,603	2,102	282,413	143,659
299,618	2,364	282,251	143,811
300,633	2,258	282,252	143,698
301,647	2,261	281,920	143,520
302,662	2,341	281,816	143,530
303,676	2,594	281,612	143,652
304,691	2,519	281,497	143,509
305,706	2,595	281,299	143,467
306,720	2,589	281,176	143,386
307,735	2,379	280,985	143,078
308,749	2,409	280,650	142,923
309,764	2,448	280,568	142,905
310,779	2,584	280,349	142,908
311,793	2,372	280,160	142,601
312,808	2,415	279,910	142,501
313,822	2,433	279,675	142,385
314,837	2,301	279,691	142,257
315,852	2,364	279,504	142,208
316,866	2,579	279,151	142,217
317,881	2,507	278,997	142,059
318,895	2,466	278,783	141,899
319,910	2,486	278,717	141,872
320,925	2,383	278,488	141,646
321,939	2,468	278,379	141,657
322,954	2,481	278,308	141,621
323,968	2,445	278,045	141,440
324,983	2,466	277,945	141,396
325,997	2,429	277,734	141,242
327,012	2,510	277,423	141,146
328,027	2,597	277,251	141,127
329,041	2,623	277,113	141,068
330,056	2,601	276,891	140,923
331,070	2,550	276,767	140,799
332,085	2,623	276,529	140,734
333,100	2,634	276,321	140,625
334,114	2,488	276,264	140,448
335,129	2,489	276,093	140,351
336,143	2,341	275,975	140,141
337,158	2,705	275,656	140,302
338,173	2,616	275,577	140,167
339,187	2,652	275,309	140,052
340,202	2,464	275,173	139,797
341,216	2,476	274,910	139,662
342,231	2,371	274,831	139,513
343,246	2,573	274,734	139,636
344,260	2,547	274,553	139,509
345,275	2,469	274,387	139,340
346,289	2,727	274,087	139,412
347,304	2,680	273,957	139,290
348,319	2,571	273,889	139,143
349,333	2,533	273,562	138,930
350,348	2,597	273,487	138,938
351,362	2,591	273,130	138,739
352,377	2,720	273,011	138,783
353,392	2,820	272,855	138,782
354,406	2,489	272,803	138,443
355,421	192,058	1348,770	1431,602
356,435	155,087	1479,966	1431,740
