DTS Sentinel unit serial number:	SN410029Multiplexer serial number:	ORYXHardware model number:	OX2-SRSoftware version number:	ORYX F/W v4,00 Oryx Data Collector v3.7.2.0data status	okinstallation	B4 Nyhavnadifferential loss correction	single-endedforward channel	channel 2reverse channel	N/Adate	2023/12/18time	22:10:13forward acquisition time	300,00reverse acquisition time	0,00gamma	499,1914k internal	0,3124k external	0,3124temperature offset calibration	1,0000default loss term (dB/km)	0,3820temperature slope calibration	1,0000multiplexer offset coefficient	1,0000multiplexer slope coefficient	1,0000fibre end	0,00T internal ref (°C)	21,86T ext. ref 1 (°C)	7,21T ext. ref 2 (°C)	7,15length (m)	temperature (°C)	Stokes	anti-Stokes-744,400	66,407	0,111	-0,084
-743,385	77,266	-0,176	0,139
-742,371	-6,925	0,099	0,050
-741,356	57,510	-0,069	0,051
-740,342	-16,230	0,212	0,100
-739,327	-131,468	-0,378	0,037
-738,312	232,913	0,056	0,069
-737,298	-13,684	-0,187	0,090
-736,283	-141,136	0,086	-0,006
-735,269	121,090	-0,117	0,108
-734,254	80,548	-0,061	-0,049
-733,239	-79,420	-0,335	-0,084
-732,225	-200,000	-0,007	0,075
-731,210	-200,000	-0,015	0,187
-730,196	-40,093	-0,134	0,052
-729,181	31,779	-0,063	-0,041
-728,167	800,000	-0,019	-0,048
-727,152	-200,000	0,011	-0,062
-726,137	78,089	-0,092	-0,073
-725,123	-132,109	-0,096	0,009
-724,108	-200,000	-0,027	-0,155
-723,094	83,608	0,061	-0,049
-722,079	-161,660	-0,178	-0,007
-721,064	800,000	0,018	-0,050
-720,050	137,304	-0,058	0,057
-719,035	59,600	-0,056	-0,041
-718,021	259,880	-0,038	-0,049
-717,006	-65,276	-0,122	-0,036
-715,991	-5,660	-0,075	-0,038
-714,977	177,846	-0,046	-0,050
-713,962	581,569	-0,039	-0,071
-712,948	800,000	-0,057	0,147
-711,933	19,362	-0,053	0,032
-710,918	-141,020	-0,149	0,011
-709,904	800,000	-0,036	-0,080
-708,889	115,930	0,022	-0,020
-707,875	18,479	-0,055	-0,033
-706,860	41,248	-0,146	0,098
-705,845	-125,658	-0,025	0,003
-704,831	191,400	-0,077	-0,086
-703,816	-99,222	0,043	0,008
-702,802	800,000	-0,007	-0,021
-701,787	800,000	-0,091	-0,193
-700,772	85,031	-0,074	-0,061
-699,758	-115,976	0,131	0,018
-698,743	-85,302	0,134	0,031
-697,729	-15,928	-0,167	0,079
-696,714	457,204	-0,016	0,027
-695,699	-200,000	-0,015	-0,059
-694,685	53,674	-0,042	0,030
-693,670	-73,431	0,123	0,033
-692,656	800,000	0,041	0,120
-691,641	-200,000	0,004	0,048
-690,627	74,202	0,046	-0,036
-689,612	-116,145	0,090	0,012
-688,597	98,365	-0,080	0,068
-687,583	633,100	0,092	0,175
-686,568	601,427	-0,021	-0,040
-685,554	676,027	-0,062	-0,119
-684,539	34,699	0,125	-0,081
-683,524	-200,000	-0,045	0,168
-682,510	-200,000	-0,001	-0,050
-681,495	527,175	-0,051	0,090
-680,481	41,157	0,013	0,009
-679,466	-48,449	-0,146	-0,052
-678,451	7,397	0,009	0,005
-677,437	341,249	-0,022	0,033
-676,422	-200,000	-0,022	0,125
-675,408	510,393	-0,048	-0,084
-674,393	-200,000	-0,016	0,112
-673,378	-5,086	-0,105	-0,054
-672,364	655,142	0,018	-0,034
-671,349	-200,000	0,000	0,117
-670,335	800,000	-0,025	0,074
-669,320	-68,760	0,044	0,013
-668,305	-200,000	0,002	-0,008
-667,291	93,795	-0,045	-0,038
-666,276	-42,965	-0,040	-0,015
-665,262	146,619	-0,145	-0,145
-664,247	-33,607	-0,064	-0,026
-663,232	-200,000	0,031	-0,128
-662,218	745,174	-0,052	-0,104
-661,203	-200,000	-0,017	0,110
-660,189	3,492	-0,056	0,030
-659,174	800,000	-0,020	0,046
-658,159	91,664	-0,020	0,017
-657,145	212,236	0,050	0,059
-656,130	800,000	0,030	0,086
-655,116	84,383	-0,113	0,092
-654,101	-200,000	-0,005	0,055
-653,086	77,294	-0,143	0,113
-652,072	-87,501	-0,080	-0,018
-651,057	-200,000	0,033	-0,110
-650,043	509,943	-0,064	-0,111
-649,028	217,280	-0,027	-0,032
-648,014	207,263	0,053	-0,061
-646,999	19,989	-0,058	0,035
-645,984	-25,805	-0,040	0,017
-644,970	-101,441	-0,099	0,018
-643,955	315,606	-0,026	-0,037
-642,941	-200,000	-0,021	-0,152
-641,926	5,283	-0,019	-0,010
-640,911	-200,000	-0,003	0,053
-639,897	800,000	-0,048	0,135
-638,882	-200,000	0,025	0,117
-637,868	59,566	-0,050	0,036
-636,853	79,515	0,041	0,032
-635,838	-100,556	0,076	0,014
-634,824	-200,000	0,047	-0,218
-633,809	-200,000	0,014	0,058
-632,795	98,126	-0,049	-0,042
-631,780	82,849	-0,062	0,050
-630,765	60,106	0,075	-0,055
-629,751	58,888	0,033	0,024
-628,736	-25,541	-0,115	0,050
-627,722	-87,876	-0,073	-0,016
-626,707	375,533	-0,018	0,028
-625,692	-200,000	0,000	-0,031
-624,678	-200,000	0,001	0,226
-623,663	-24,979	0,024	0,011
-622,649	43,244	-0,137	0,093
-621,634	215,725	-0,068	0,080
-620,619	422,656	0,054	-0,087
-619,605	-95,293	0,180	-0,036
-618,590	-30,171	0,072	-0,030
-617,576	-86,399	0,121	-0,027
-616,561	-161,940	-0,093	-0,003
-615,546	42,892	0,065	0,044
-614,532	319,676	-0,040	-0,057
-613,517	800,000	0,024	0,057
-612,503	116,209	-0,015	-0,014
-611,488	58,194	-0,056	-0,041
-610,474	-195,763	-0,054	-0,000
-609,459	82,511	0,102	0,082
-608,444	44,461	0,089	-0,061
-607,430	-200,000	-0,014	-0,070
-606,415	88,019	0,087	-0,071
-605,401	-200,000	-0,001	-0,125
-604,386	-200,000	-0,008	-0,097
-603,371	-38,902	0,097	0,038
-602,357	-74,969	-0,116	0,031
-601,342	22,402	0,107	0,065
-600,328	24,866	-0,108	-0,066
-599,313	-23,391	-0,112	-0,049
-598,298	598,488	0,031	-0,058
-597,284	42,366	0,028	0,019
-596,269	-200,000	0,002	0,076
-595,255	-124,854	-0,065	0,007
-594,240	800,000	-0,047	-0,115
-593,225	67,907	0,088	-0,066
-592,211	-200,000	0,006	-0,060
-591,196	-94,404	0,098	0,020
-590,182	55,173	-0,026	-0,019
-589,167	-200,000	0,014	-0,064
-588,152	35,789	0,122	0,079
-587,138	334,127	0,042	-0,061
-586,123	-53,481	-0,107	0,036
-585,109	-95,033	-0,057	0,011
-584,094	-200,000	0,003	-0,103
-583,079	53,443	-0,064	0,045
-582,065	-25,163	0,040	-0,017
-581,050	-78,551	0,100	-0,025
-580,036	-142,413	-0,094	0,007
-579,021	454,817	-0,045	0,074
-578,006	-142,346	0,035	-0,003
-576,992	377,754	0,063	0,095
-575,977	-110,860	0,093	-0,014
-574,963	55,611	-0,110	0,079
-573,948	-200,000	-0,003	-0,027
-572,934	455,643	-0,011	-0,018
-571,919	11,991	-0,061	0,035
-570,904	180,018	-0,049	-0,053
-569,890	68,241	-0,154	-0,116
-568,875	40,578	-0,018	0,012
-567,861	800,000	0,010	0,023
-566,846	7,311	-0,093	-0,051
-565,831	370,734	0,025	-0,037
-564,817	-200,000	0,016	0,069
-563,802	800,000	0,024	0,073
-562,788	210,435	-0,122	-0,142
-561,773	523,547	0,040	-0,070
-560,758	-200,000	0,027	-0,101
-559,744	-200,000	0,027	0,153
-558,729	-200,000	0,005	-0,066
-557,715	800,000	-0,028	0,077
-556,700	800,000	-0,042	0,093
-555,685	800,000	-0,010	-0,025
-554,671	366,938	-0,021	-0,031
-553,656	311,173	0,086	0,119
-552,642	-200,000	0,030	-0,137
-551,627	25,341	-0,033	0,020
-550,612	9,328	-0,105	-0,058
-549,598	-200,000	0,008	-0,109
-548,583	19,457	-0,169	-0,100
-547,569	800,000	-0,062	-0,146
-546,554	-127,790	0,209	0,022
-545,539	-62,240	-0,098	-0,030
-544,525	-200,000	0,022	-0,100
-543,510	331,490	-0,031	-0,044
-542,496	800,000	-0,033	0,081
-541,481	39,361	-0,043	-0,028
-540,466	-200,000	-0,009	-0,079
-539,452	-200,000	-0,000	0,038
-538,437	800,000	-0,023	0,067
-537,423	768,130	0,032	0,065
-536,408	-94,574	0,120	0,024
-535,393	17,971	-0,077	0,046
-534,379	800,000	-0,066	-0,164
-533,364	390,857	0,065	-0,099
-532,350	-170,301	0,132	-0,003
-531,335	48,685	-0,078	0,054
-530,321	-194,329	-0,153	-0,001
-529,306	-49,899	-0,047	0,016
-528,291	119,023	-0,029	-0,027
-527,277	229,272	0,008	-0,010
-526,262	33,151	-0,124	-0,079
-525,248	-16,691	0,015	-0,007
-524,233	800,000	0,024	0,055
-523,218	-200,000	-0,034	-0,155
-522,204	131,387	0,038	0,036
-521,189	3,662	0,022	-0,012
-520,175	-200,000	0,029	-0,154
-519,160	-200,000	-0,005	-0,038
-518,145	184,277	0,059	-0,064
-517,131	-17,343	0,112	0,052
-516,116	23,937	-0,090	0,055
-515,102	-200,000	-0,016	-0,064
-514,087	-78,978	-0,051	0,013
-513,072	800,000	-0,026	-0,064
-512,058	-200,000	-0,022	-0,080
-511,043	27,059	0,061	0,038
-510,029	-200,000	-0,002	-0,041
-509,014	-92,588	-0,026	-0,005
-507,999	168,848	0,080	-0,084
-506,985	-200,000	-0,012	-0,153
-505,970	-134,898	-0,132	0,012
-504,956	-200,000	0,001	0,005
-503,941	-200,000	0,005	-0,017
-502,926	800,000	0,025	-0,054
-501,912	-13,960	0,077	0,037
-500,897	52,381	-0,103	-0,073
-499,883	-200,000	0,020	0,071
-498,868	293,263	-0,015	0,020
-497,853	-6,866	-0,053	-0,027
-496,839	746,945	-0,051	-0,102
-495,824	-173,248	0,035	-0,001
-494,810	-87,237	0,158	0,035
-493,795	-4,020	-0,104	-0,053
-492,781	256,888	0,107	-0,136
-491,766	-200,000	0,037	-0,157
-490,751	220,560	0,016	0,019
-489,737	800,000	0,019	0,046
-488,722	-200,000	0,034	0,203
-487,708	126,399	0,084	0,079
-486,693	-200,000	0,032	0,114
-485,678	800,000	-0,031	0,084
-484,664	-107,695	-0,057	0,009
-483,649	-82,374	-0,037	-0,009
-482,635	522,550	-0,050	-0,087
-481,620	-119,361	0,189	-0,024
-480,605	-200,000	0,010	0,057
-479,591	-175,973	0,097	-0,002
-478,576	800,000	-0,013	0,039
-477,562	250,748	0,020	-0,025
-476,547	178,453	-0,133	-0,144
-475,532	-200,000	-0,015	-0,128
-474,518	-200,000	-0,026	0,095
-473,503	574,082	0,061	-0,110
-472,489	135,533	0,051	0,049
-471,474	-155,233	-0,032	0,001
-470,459	74,510	-0,078	0,060
-469,445	-177,757	-0,262	-0,005
-468,430	225,088	0,062	-0,074
-467,416	-200,000	0,004	0,099
-466,401	-200,000	-0,001	0,016
-465,386	800,000	0,022	0,051
-464,372	-188,326	0,066	-0,001
-463,357	-132,187	-0,120	0,011
-462,343	800,000	0,043	-0,093
-461,328	347,723	0,038	-0,056
-460,313	-37,435	-0,133	-0,052
-459,299	391,440	0,080	0,122
-458,284	441,394	-0,006	0,010
-457,270	-185,663	-0,028	0,000
-456,255	347,863	0,070	-0,102
-455,241	-200,000	0,022	-0,086
-454,226	-4,866	-0,111	0,056
-453,211	-145,595	0,086	0,006
-452,197	-8,476	-0,091	-0,045
-451,182	800,000	0,040	0,109
-450,168	800,000	-0,024	0,059
-449,153	141,916	-0,055	0,054
-448,138	-200,000	0,026	-0,101
-447,124	800,000	0,040	-0,093
-446,109	128,016	-0,032	-0,030
-445,095	-26,810	-0,066	0,028
-444,080	-200,000	-0,010	0,054
-443,065	215,023	-0,072	0,084
-442,051	564,427	0,058	0,105
-441,036	-131,093	-0,124	-0,012
-440,022	-10,185	0,016	0,008
-439,007	-95,466	-0,018	-0,004
-437,992	162,604	0,082	-0,085
-436,978	-129,466	0,021	-0,002
-435,963	-200,000	-0,003	0,010
-434,949	-1,960	-0,023	-0,012
-433,934	237,164	-0,024	0,030
-432,919	62,877	-0,066	-0,049
-431,905	-200,000	0,053	0,172
-430,890	548,760	0,056	0,099
-429,876	800,000	0,040	0,110
-428,861	103,067	0,013	-0,011
-427,846	462,188	0,073	-0,121
-426,832	-173,863	-0,060	0,001
-425,817	267,563	0,049	-0,063
-424,803	280,350	-0,050	-0,066
-423,788	-200,000	0,003	0,102
-422,773	-68,600	-0,025	0,007
-421,759	217,863	-0,039	0,046
-420,744	-200,000	-0,025	0,105
-419,730	-149,996	-0,154	-0,009
-418,715	74,547	0,054	0,041
-417,701	-200,000	0,014	-0,074
-416,686	800,000	-0,040	-0,092
-415,671	18,378	0,199	0,117
-414,657	800,000	0,028	0,077
-413,642	-84,904	0,050	0,011
-412,628	-200,000	-0,004	0,104
-411,613	-200,000	0,016	-0,167
-410,598	598,499	-0,107	-0,196
-409,584	800,000	-0,031	0,079
-408,569	596,264	-0,072	-0,131
-407,555	-200,000	-0,016	-0,059
-406,540	782,119	0,033	-0,067
-405,525	-200,000	-0,034	-0,177
-404,511	134,483	0,046	-0,043
-403,496	174,945	0,135	0,143
-402,482	-200,000	0,025	-0,083
-401,467	334,027	0,054	0,077
-400,452	-57,133	0,012	-0,004
-399,438	-200,000	0,027	-0,167
-398,423	181,841	0,031	0,034
-397,409	-200,000	-0,035	-0,203
-396,394	-74,078	0,045	-0,012
-395,379	800,000	-0,021	0,066
-394,365	24,947	0,067	0,041
-393,350	800,000	0,035	-0,075
-392,336	49,711	0,031	0,021
-391,321	-200,000	0,016	0,198
-390,306	-200,000	0,015	0,087
-389,292	379,672	-0,047	-0,071
-388,277	362,076	0,077	-0,113
-387,263	31,996	0,047	-0,030
-386,248	-200,000	-0,015	0,092
-385,233	-200,000	0,020	0,129
-384,219	-200,000	-0,004	-0,083
-383,204	800,000	-0,056	-0,116
-382,190	-200,000	0,027	0,089
-381,175	-8,289	-0,068	-0,033
-380,160	-200,000	0,032	0,120
-379,146	23,885	0,083	-0,050
-378,131	476,744	-0,032	-0,053
-377,117	-200,000	0,021	-0,128
-376,102	-200,000	-0,007	-0,091
-375,088	198,684	-0,021	-0,023
-374,073	-139,246	-0,160	-0,012
-373,058	800,000	-0,011	-0,031
-372,044	136,601	0,065	0,062
-371,029	-100,145	-0,100	0,018
-370,015	-200,000	-0,021	0,213
-369,000	31,922	0,087	-0,055
-367,985	-43,360	-0,163	-0,060
-366,971	205,151	0,055	0,062
-365,956	53,430	-0,120	-0,085
-364,942	800,000	0,057	-0,152
-363,927	-200,000	-0,009	0,075
-362,912	-200,000	0,018	0,092
-361,898	-138,124	-0,094	0,008
-360,883	-200,000	0,014	0,089
-359,869	-70,574	0,080	-0,022
-358,854	397,306	0,057	-0,087
-357,839	-167,299	0,111	0,003
-356,825	-77,450	-0,123	-0,031
-355,810	92,213	-0,081	0,067
-354,796	77,919	-0,086	-0,067
-353,781	93,983	-0,028	-0,024
-352,766	232,265	-0,041	0,050
-351,752	-25,928	0,066	-0,028
-350,737	95,016	0,046	-0,038
-349,723	237,597	0,021	0,026
-348,708	254,916	0,124	0,156
-347,693	121,384	0,039	0,035
-346,679	142,430	0,047	-0,046
-345,664	264,813	-0,123	0,157
-344,650	800,000	-0,065	-0,156
-343,635	-200,000	0,022	-0,071
-342,620	-3,763	0,059	-0,030
-341,606	800,000	-0,027	0,069
-340,591	800,000	0,031	0,072
-339,577	-200,000	-0,002	-0,013
-338,562	-200,000	0,021	-0,079
-337,548	28,265	-0,017	0,011
-336,533	145,982	-0,156	0,153
-335,518	-78,426	-0,058	0,014
-334,504	-131,350	0,098	-0,009
-333,489	12,696	-0,141	-0,080
-332,475	-56,919	-0,036	-0,012
-331,460	-142,813	-0,089	0,006
-330,445	410,866	-0,059	-0,092
-329,431	92,409	0,037	-0,030
-328,416	-62,928	-0,099	0,030
-327,402	-200,000	0,020	0,124
-326,387	-200,000	-0,026	0,145
-325,372	764,906	-0,024	-0,048
-324,358	-106,884	0,137	0,022
-323,343	-200,000	-0,014	-0,094
-322,329	-7,568	0,061	0,030
-321,314	800,000	0,044	-0,091
-320,299	161,466	-0,067	-0,069
-319,285	85,632	0,066	0,053
-318,270	-126,502	0,094	0,010
-317,256	231,425	-0,043	0,051
-316,241	273,743	0,005	-0,007
-315,226	-83,798	-0,069	-0,016
-314,212	130,293	-0,105	-0,099
-313,197	193,545	0,084	0,093
-312,183	508,235	0,073	0,124
-311,168	91,570	-0,043	0,036
-310,153	397,181	-0,021	-0,032
-309,139	171,276	-0,128	-0,135
-308,124	-200,000	-0,015	0,099
-307,110	468,496	0,039	0,065
-306,095	-114,461	0,032	0,004
-305,080	50,709	0,083	0,058
-304,066	83,654	-0,165	0,132
-303,051	-170,182	-0,171	-0,004
-302,037	-18,691	-0,183	0,083
-301,022	-122,297	0,067	0,008
-300,008	69,951	-0,041	-0,031
-298,993	-200,000	0,022	0,110
-297,978	215,380	0,093	0,108
-296,964	140,125	-0,053	0,051
-295,949	-47,261	-0,094	0,033
-294,935	31,331	0,110	0,069
-293,920	800,000	0,050	0,117
-292,905	-200,000	0,003	0,105
-291,891	155,470	-0,076	0,076
-290,876	-114,283	-0,133	-0,019
-289,862	-32,635	0,021	-0,009
-288,847	-92,187	-0,131	-0,027
-287,832	152,640	0,142	-0,142
-286,818	-200,000	0,037	0,136
-285,803	-200,000	0,007	0,060
-284,789	747,436	0,054	0,107
-283,774	21,834	-0,090	-0,054
-282,759	-100,679	0,127	-0,023
-281,745	66,620	0,057	-0,042
-280,730	637,309	-0,058	0,108
-279,716	100,988	-0,075	0,063
-278,701	-48,961	0,198	0,069
-277,686	478,246	0,057	-0,094
-276,672	800,000	-0,041	-0,092
-275,657	-43,915	-0,085	-0,031
-274,643	-200,000	0,002	0,070
-273,628	-159,436	0,077	0,003
-272,613	-61,177	-0,046	-0,014
-271,599	-35,803	0,047	-0,018
-270,584	-200,000	0,032	0,135
-269,570	-162,710	0,174	-0,006
-268,555	606,244	-0,028	-0,051
-267,540	-143,637	0,081	0,006
-266,526	800,000	-0,006	0,019
-265,511	-117,459	-0,103	-0,013
-264,497	-92,959	-0,081	-0,016
-263,482	193,169	0,156	0,173
-262,467	800,000	0,039	0,102
-261,453	-74,442	-0,113	0,030
-260,438	39,885	0,103	-0,067
-259,424	332,498	-0,047	0,067
-258,409	800,000	0,087	-0,248
-257,395	87,544	0,015	-0,012
-256,380	-67,702	0,123	-0,035
-255,365	261,279	0,055	0,070
-254,351	75,862	-0,055	-0,043
-253,336	800,000	0,064	-0,199
-252,322	186,768	-0,099	-0,108
-251,307	-62,037	0,082	0,025
-250,292	38,886	0,033	0,021
-249,278	-200,000	-0,012	0,095
-248,263	-128,543	0,055	-0,006
-247,249	-200,000	-0,029	0,121
-246,234	-109,387	-0,113	0,017
-245,219	-45,474	-0,122	0,044
-244,205	800,000	0,025	-0,063
-243,190	57,222	0,110	0,079
-242,176	132,983	0,042	0,039
-241,161	-124,115	0,108	0,012
-240,146	120,545	-0,083	0,075
-239,132	85,637	0,092	-0,074
-238,117	800,000	0,003	-0,008
-237,103	148,120	0,064	0,064
-236,088	800,000	0,057	-0,132
-235,073	-117,550	-0,033	0,004
-234,059	-143,827	-0,042	-0,003
-233,044	-200,000	0,008	0,038
-232,030	-22,619	-0,100	-0,044
-231,015	65,115	0,014	-0,010
-230,000	-35,349	0,113	-0,045
-228,986	-200,000	0,027	-0,144
-227,971	800,000	0,018	0,053
-226,957	540,614	-0,015	-0,026
-225,942	-36,004	0,127	0,050
-224,927	-200,000	-0,008	0,061
-223,913	-200,000	-0,020	-0,087
-222,898	292,622	0,057	-0,075
-221,884	-132,784	0,201	-0,018
-220,869	-200,000	-0,007	0,067
-219,855	-200,000	-0,008	0,078
-218,840	335,127	-0,012	-0,017
-217,825	-61,649	0,067	-0,020
-216,811	-97,211	-0,060	0,011
-215,796	-200,000	0,002	0,118
-214,782	-105,266	-0,045	0,007
-213,767	177,324	0,022	0,024
-212,752	-12,128	0,073	-0,035
-211,738	133,018	0,027	-0,026
-210,723	-127,092	0,087	0,009
-209,709	-152,801	-0,106	0,005
-208,694	-100,762	-0,086	0,015
-207,679	-200,000	0,014	-0,079
-206,665	-200,000	0,004	0,052
-205,650	-153,943	0,002	0,000
-204,636	-135,366	0,051	-0,004
-203,621	-200,000	-0,005	0,029
-202,606	-166,427	-0,070	0,002
-201,592	27,969	0,046	-0,028
-200,577	100,085	-0,115	-0,097
-199,563	-134,754	-0,071	0,006
-198,548	800,000	0,101	0,234
-197,533	-200,000	-0,018	0,063
-196,519	800,000	0,052	0,141
-195,504	800,000	-0,049	0,132
-194,490	-120,909	-0,102	0,012
-193,475	259,446	-0,075	-0,095
-192,460	245,316	0,053	0,065
-191,446	-200,000	0,002	-0,017
-190,431	68,796	-0,067	0,050
-189,417	-141,140	0,096	-0,007
-188,402	176,158	0,104	0,110
-187,387	88,969	-0,088	-0,071
-186,373	232,301	0,060	0,071
-185,358	-106,927	0,097	-0,016
-184,344	-91,826	-0,040	-0,008
-183,329	437,053	-0,048	-0,077
-182,315	432,360	0,048	-0,076
-181,300	38,213	0,054	-0,035
-180,285	-179,331	0,045	-0,001
-179,271	7,529	-0,051	0,028
-178,256	-200,000	-0,012	-0,046
-177,242	-9,341	0,091	-0,044
-176,227	-119,470	0,089	-0,011
-175,212	-60,762	0,085	0,026
-174,198	-144,248	0,047	0,003
-173,183	-200,000	-0,025	-0,100
-172,169	-200,000	-0,016	-0,099
-171,154	39,841	0,085	-0,055
-170,139	-24,326	-0,123	-0,053
-169,125	-61,219	0,178	0,054
-168,110	-55,577	-0,072	0,023
-167,096	-200,000	0,020	0,124
-166,081	-200,000	-0,034	0,121
-165,066	784,245	-0,057	-0,115
-164,052	800,000	-0,028	-0,065
-163,037	800,000	-0,084	0,252
-162,023	800,000	0,029	-0,062
-161,008	800,000	0,041	0,102
-159,993	800,000	-0,032	0,065
-158,979	-38,426	-0,013	-0,005
-157,964	-200,000	0,026	0,113
-156,950	256,941	0,036	-0,045
-155,935	800,000	-0,022	0,053
-154,920	-168,953	0,060	0,002
-153,906	-200,000	0,012	0,063
-152,891	186,832	0,046	0,049
-151,877	-23,451	0,068	0,029
-150,862	-48,677	-0,112	-0,039
-149,847	800,000	-0,046	-0,101
-148,833	-200,000	0,001	-0,061
-147,818	-200,000	0,008	0,041
-146,804	350,680	-0,046	0,066
-145,789	-200,000	-0,014	-0,113
-144,775	555,499	0,030	0,052
-143,760	-4,126	-0,032	0,016
-142,745	65,353	-0,118	-0,087
-141,731	-188,028	0,101	-0,001
-140,716	237,297	0,081	0,098
-139,702	-200,000	0,025	-0,113
-138,687	57,417	-0,072	-0,051
-137,672	-160,093	-0,073	0,003
-136,658	800,000	-0,060	-0,142
-135,643	722,215	0,049	0,096
-134,629	-180,242	0,153	-0,002
-133,614	-146,275	-0,157	0,010
-132,599	242,661	0,048	-0,059
-131,585	130,512	-0,053	0,049
-130,570	-146,895	-0,126	0,008
-129,556	-200,000	-0,025	-0,098
-128,541	-164,199	-0,053	-0,002
-127,526	-41,923	0,092	0,034
-126,512	169,144	0,088	-0,091
-125,497	-167,214	0,058	-0,002
-124,483	-30,700	-0,065	0,026
-123,468	-200,000	-0,047	0,155
-122,453	-200,000	-0,007	-0,051
-121,439	-200,000	0,036	-0,152
-120,424	-101,801	0,069	-0,012
-119,410	-200,000	-0,015	-0,106
-118,395	117,205	0,117	0,104
-117,380	-66,473	-0,101	0,029
-116,366	254,116	-0,050	0,063
-115,351	-35,248	0,092	-0,036
-114,337	-200,000	0,019	-0,099
-113,322	-116,864	0,071	0,009
-112,307	16,533	0,150	0,086
-111,293	-162,412	0,145	0,005
-110,278	-179,547	0,159	0,002
-109,264	800,000	-0,016	0,047
-108,249	-200,000	-0,004	0,070
-107,234	-55,041	-0,148	-0,048
-106,220	61,442	-0,169	-0,122
-105,205	497,252	-0,046	0,078
-104,191	0,820	0,146	-0,076
-103,176	47,916	-0,039	-0,026
-102,162	50,044	-0,059	-0,040
-101,147	-200,000	0,003	-0,038
-100,132	41,541	-0,077	-0,051
-99,118	-127,225	-0,022	0,002
-98,103	104,487	0,068	-0,058
-97,089	584,648	-0,068	0,122
-96,074	119,879	0,060	-0,054
-95,059	33,314	0,030	0,019
-94,045	267,119	-0,089	-0,113
-93,030	-200,000	-0,006	-0,104
-92,016	324,605	-0,087	-0,120
-91,001	-124,620	0,076	0,008
-89,986	262,425	-0,057	0,072
-88,972	10,055	0,128	0,070
-87,957	-148,325	0,132	0,008
-86,943	481,134	-0,056	-0,093
-85,928	278,924	-0,122	-0,159
-84,913	234,089	0,083	-0,099
-83,899	-200,000	0,032	-0,133
-82,884	-28,829	-0,071	0,030
-81,870	-6,046	0,131	0,065
-80,855	-69,170	0,073	0,020
-79,840	-141,706	0,054	-0,004
-78,826	800,000	0,019	-0,039
-77,811	-101,523	-0,184	-0,032
-76,797	136,682	-0,135	0,128
-75,782	-200,000	-0,007	-0,029
-74,767	290,447	-0,041	0,055
-73,753	48,769	0,081	0,055
-72,738	173,896	-0,123	0,129
-71,724	86,353	-0,103	-0,082
-70,709	-200,000	-0,008	-0,113
-69,694	-87,686	-0,085	0,018
-68,680	800,000	0,020	0,058
-67,665	-64,621	0,127	0,037
-66,651	337,557	0,029	0,040
-65,636	800,000	0,032	0,095
-64,622	-200,000	0,029	0,137
-63,607	-200,000	0,005	0,065
-62,592	-86,561	-0,123	0,027
-61,578	341,411	-0,033	-0,047
-60,563	-200,000	0,016	0,101
-59,549	153,416	-0,101	0,100
-58,534	-134,667	-1,369	-0,119
-57,519	435,891	-0,940	-1,489
-56,505	-200,000	-0,839	-4,308
-55,490	-87,770	0,569	-0,123
-54,476	800,000	4,926	11,689
-53,461	-200,000	13,910	253,487
-52,446	-200,000	694,434	2261,023
-51,432	598,523	1624,550	2934,085
-50,417	117,570	1633,094	1457,415
-49,403	73,571	1287,091	976,676
-48,388	37,363	1023,677	656,713
-47,373	23,881	981,668	585,424
-46,359	23,094	971,295	576,636
-45,344	22,056	966,942	570,638
-44,330	22,041	965,502	569,714
-43,315	21,928	964,014	568,448
-42,300	21,850	963,057	567,606
-41,286	21,891	961,939	567,059
-40,271	21,888	961,097	566,528
-39,257	21,859	959,969	565,748
-38,242	21,894	959,011	565,275
-37,227	21,933	958,146	564,869
-36,213	21,860	957,344	564,138
-35,198	21,787	956,664	563,478
-34,184	21,890	955,933	563,357
-33,169	21,858	954,935	562,643
-32,154	21,939	954,050	562,360
-31,140	21,943	953,092	561,787
-30,125	21,947	952,401	561,369
-29,111	21,943	951,405	560,748
-28,096	21,931	950,758	560,308
-27,082	21,893	950,313	559,900
-26,067	21,879	949,477	559,339
-25,052	21,910	948,798	559,015
-24,038	21,910	948,026	558,539
-23,023	21,881	947,345	558,023
-22,009	21,918	946,755	557,773
-20,994	21,921	946,069	557,354
-19,979	21,898	945,556	556,957
-18,965	21,913	944,882	556,586
-17,950	21,886	944,236	556,098
-16,936	21,891	943,471	555,641
-15,921	21,825	942,839	555,035
-14,906	21,799	942,043	554,464
-13,892	21,798	941,517	554,127
-12,877	21,734	940,988	553,593
-11,863	21,747	940,360	553,241
-10,848	21,735	939,771	552,837
-9,833	21,870	939,355	552,996
-8,819	21,842	938,789	552,554
-7,804	21,737	938,015	551,741
-6,790	21,789	937,383	551,514
-5,775	21,824	936,811	551,265
-4,760	21,821	936,134	550,835
-3,746	21,760	935,610	550,314
-2,731	21,594	934,959	549,385
-1,717	21,643	934,159	549,048
-0,702	21,627	933,322	548,482
0,313	21,437	932,839	548,429
1,327	23,915	930,518	554,804
2,342	31,638	808,788	503,155
3,356	26,280	509,474	307,768
4,371	1,715	374,497	194,896
5,386	-1,172	357,268	182,363
6,400	-2,313	351,476	178,010
7,415	-2,809	348,813	176,049
8,429	-2,901	347,397	175,207
9,444	-2,937	346,370	174,631
10,459	-2,873	345,803	174,407
11,473	-2,926	345,104	173,976
12,488	-2,774	344,453	173,812
13,502	-2,897	343,956	173,400
14,517	-2,884	343,501	173,170
15,531	-2,781	343,177	173,113
16,546	-2,894	342,610	172,678
17,561	-2,884	342,133	172,435
18,575	-2,839	341,825	172,317
19,590	-2,823	341,292	172,051
20,604	-2,744	341,058	172,011
21,619	-2,938	340,665	171,569
22,634	-2,816	340,315	171,521
23,648	-2,759	339,874	171,350
24,663	-2,903	339,685	171,071
25,677	-2,715	339,313	171,088
26,692	-2,809	339,197	170,905
27,707	-2,767	338,819	170,748
28,721	-2,754	338,397	170,535
29,736	-2,892	338,128	170,225
30,750	-2,788	337,742	170,135
31,765	-2,725	337,479	170,061
32,780	-2,875	337,352	169,807
33,794	-2,861	336,998	169,630
34,809	-2,683	336,664	169,653
35,823	-2,856	336,377	169,294
36,838	-2,698	336,185	169,364
37,853	-2,986	335,979	168,913
38,867	-2,892	335,601	168,816
39,882	-2,799	335,303	168,759
40,896	-2,785	335,072	168,644
41,911	-2,780	334,702	168,448
42,926	-2,790	334,454	168,297
43,940	-2,845	334,112	168,047
44,955	-2,887	333,985	167,919
45,969	-2,964	333,747	167,697
46,984	-2,697	333,337	167,781
47,999	-2,902	333,349	167,537
49,013	-2,742	332,977	167,519
50,028	-2,944	332,633	167,100
51,042	-2,909	332,426	167,021
52,057	-2,884	332,082	166,862
53,071	-2,902	331,994	166,782
54,086	-2,773	331,389	166,610
55,101	-2,814	331,291	166,499
56,115	-2,846	331,249	166,427
57,130	-2,733	330,767	166,298
58,144	-2,729	330,419	166,113
59,159	-2,732	330,183	165,976
60,174	-2,793	329,973	165,787
61,188	-2,810	329,823	165,677
62,203	-2,628	329,591	165,752
63,217	-2,783	329,234	165,382
64,232	-2,759	328,969	165,262
65,247	-2,888	328,946	165,089
66,261	-2,804	328,578	164,984
67,276	-2,800	328,214	164,791
68,290	-2,852	327,997	164,610
69,305	-2,922	327,951	164,494
70,320	-2,788	327,547	164,427
71,334	-2,767	327,212	164,267
72,349	-2,800	326,958	164,088
73,363	-2,869	326,917	163,976
74,378	-2,827	326,563	163,830
75,393	-2,856	326,293	163,648
76,407	-2,680	325,925	163,645
77,422	-2,821	325,771	163,396
78,436	-2,669	325,641	163,486
79,451	-2,649	325,172	163,258
80,466	-2,767	324,892	162,971
81,480	-2,759	324,603	162,821
82,495	-2,741	324,309	162,679
83,509	-2,724	324,100	162,579
84,524	-2,666	323,833	162,495
85,539	-2,826	323,797	162,285
86,553	-2,763	323,414	162,148
87,568	-2,715	323,271	162,115
88,582	-2,745	322,957	161,910
89,597	-2,886	322,854	161,688
90,611	-2,985	322,637	161,455
91,626	-2,814	322,371	161,496
92,641	-2,760	322,181	161,447
93,655	-2,756	321,926	161,309
94,670	-2,711	321,531	161,146
95,684	-2,749	321,399	161,024
96,699	-2,803	321,090	160,794
97,714	-2,792	321,030	160,763
98,728	-2,697	320,631	160,653
99,743	-2,792	320,299	160,368
100,757	-2,789	320,192	160,303
101,772	-2,873	319,987	160,094
102,787	-2,817	319,781	160,038
103,801	-2,808	319,597	159,942
104,816	-2,952	319,372	159,658
105,830	-2,829	319,229	159,707
106,845	-2,690	318,848	159,653
107,860	-2,965	318,590	159,211
108,874	-2,690	318,356	159,378
109,889	-2,805	318,092	159,106
110,903	-2,693	317,846	159,091
111,918	-3,030	317,753	158,664
112,933	-2,829	317,548	158,766
113,947	-2,782	317,084	158,571
114,962	-2,767	317,183	158,623
115,976	-2,849	316,840	158,349
116,991	-2,740	316,496	158,280
118,006	-2,670	316,258	158,223
119,020	-2,740	316,132	158,070
120,035	-2,723	315,913	157,964
121,049	-2,702	315,778	157,906
122,064	-2,556	315,511	157,915
123,079	-2,789	315,252	157,521
124,093	-2,850	315,068	157,349
125,108	-2,817	314,734	157,204
126,122	-2,767	314,583	157,168
127,137	-2,768	314,362	157,042
128,151	-2,890	314,110	156,772
129,166	-2,616	313,646	156,819
130,181	-2,713	313,541	156,650
131,195	-2,766	313,461	156,539
132,210	-2,827	313,182	156,320
133,224	-2,858	313,022	156,194
134,239	-2,846	312,818	156,090
135,254	-2,683	312,512	156,098
136,268	-2,806	312,317	155,855
137,283	-2,685	311,924	155,773
138,297	-2,740	311,835	155,658
139,312	-2,650	311,418	155,530
140,327	-2,713	311,353	155,417
141,341	-2,717	311,317	155,381
142,356	-2,707	310,977	155,208
143,370	-2,581	310,768	155,224
144,385	-2,648	310,430	154,970
145,400	-2,637	310,262	154,884
146,414	-2,778	309,974	154,578
147,429	-2,692	309,821	154,578
148,443	-2,613	309,591	154,533
149,458	-2,512	309,344	154,503
150,473	-2,708	309,148	154,184
151,487	-2,821	309,097	154,026
152,502	-2,741	308,774	153,935
153,516	-2,743	308,517	153,792
154,531	-2,757	308,329	153,670
155,546	-2,646	308,048	153,633
156,560	-2,794	307,965	153,422
157,575	-2,713	307,792	153,407
158,589	-2,770	307,509	153,192
159,604	-2,776	307,275	153,056
160,619	-2,501	306,871	153,128
161,633	-2,439	306,827	153,157
162,648	-2,514	306,545	152,925
163,662	-2,755	306,440	152,608
164,677	-2,594	306,245	152,665
165,692	-2,583	306,010	152,545
166,706	-2,669	305,932	152,403
167,721	-2,597	305,722	152,360
168,735	-2,623	305,464	152,191
169,750	-2,799	305,359	151,942
170,764	-2,729	305,241	151,942
171,779	-2,711	304,971	151,813
172,794	-2,640	304,642	151,709
173,808	-2,661	304,407	151,557
174,823	-2,799	304,263	151,329
175,837	-2,741	303,981	151,236
176,852	-2,748	303,918	151,184
177,867	-2,779	303,685	151,022
178,881	-2,763	303,492	150,929
179,896	-2,650	303,224	150,899
180,910	-2,523	302,939	150,874
181,925	-2,765	302,868	150,577
182,940	-2,607	302,551	150,567
183,954	-2,715	302,476	150,405
184,969	-2,586	302,212	150,393
185,983	-2,577	302,077	150,322
186,998	-2,651	301,922	150,156
188,013	-2,578	301,576	150,045
189,027	-2,679	301,453	149,867
190,042	-2,658	301,378	149,838
191,056	-2,552	300,929	149,709
192,071	-2,713	300,651	149,393
193,086	-2,636	300,594	149,430
194,100	-2,697	300,425	149,271
195,115	-2,637	300,044	149,130
196,129	-2,516	299,868	149,152
197,144	-2,752	299,680	148,805
198,159	-2,789	299,569	148,699
199,173	-2,533	299,211	148,767
200,188	-2,650	299,138	148,600
201,202	-2,655	298,777	148,402
202,217	-2,747	298,569	148,193
203,232	-2,714	298,412	148,135
204,246	-2,585	298,360	148,226
205,261	-2,653	298,174	148,051
206,275	-2,652	297,764	147,836
207,290	-2,522	297,653	147,899
208,304	-2,648	297,467	147,666
209,319	-2,712	297,258	147,485
210,334	-2,561	297,014	147,503
211,348	-2,562	296,848	147,406
212,363	-2,631	296,719	147,259
213,377	-2,616	296,572	147,188
214,392	-2,674	296,334	146,999
215,407	-2,661	296,090	146,878
216,421	-2,717	295,958	146,743
217,436	-2,596	295,673	146,710
218,450	-2,679	295,605	146,580
219,465	-2,659	295,348	146,460
220,480	-2,567	295,133	146,432
221,494	-2,571	295,013	146,355
222,509	-2,706	294,819	146,111
223,523	-2,599	294,675	146,133
224,538	-2,608	294,350	145,951
225,553	-2,662	294,173	145,796
226,567	-2,561	293,880	145,738
227,582	-2,372	293,693	145,819
228,596	-2,497	293,541	145,607
229,611	-2,601	293,304	145,374
230,626	-2,556	293,169	145,338
231,640	-2,654	293,028	145,159
232,655	-2,721	292,827	144,980
233,669	-2,643	292,467	144,866
234,684	-2,727	292,411	144,742
235,699	-2,584	292,267	144,799
236,713	-2,624	292,051	144,639
237,728	-2,510	291,915	144,672
238,742	-2,671	291,707	144,397
239,757	-2,681	291,519	144,281
240,772	-2,529	291,193	144,256
241,786	-2,631	291,142	144,118
242,801	-2,715	291,015	143,960
243,815	-2,704	290,726	143,815
244,830	-2,535	290,373	143,793
245,844	-2,631	290,285	143,643
246,859	-2,447	290,168	143,752
247,874	-2,651	289,931	143,422
248,888	-2,679	289,693	143,264
249,903	-2,685	289,546	143,173
250,917	-2,611	289,330	143,126
251,932	-2,512	289,235	143,163
252,947	-2,754	289,042	142,818
253,961	-2,865	288,806	142,581
254,976	-2,708	288,546	142,592
255,990	-2,945	288,329	142,242
257,005	-2,689	288,283	142,456
258,020	-0,645	288,937	144,756
259,034	0,779	289,450	146,387
260,049	1,457	289,378	146,998
261,063	1,711	289,445	147,266
262,078	2,034	289,305	147,496
263,093	2,368	289,142	147,724
264,107	2,508	289,078	147,814
265,122	2,694	289,025	147,955
266,136	2,759	288,880	147,930
267,151	2,832	288,610	147,850
268,166	2,854	288,513	147,808
269,180	2,781	288,346	147,638
270,195	2,702	288,053	147,399
271,209	2,811	287,786	147,355
272,224	2,633	287,716	147,134
273,239	2,807	287,434	147,144
274,253	2,672	287,162	146,861
275,268	2,568	287,078	146,705
276,282	2,544	287,019	146,640
277,297	2,644	286,704	146,561
278,312	2,753	286,556	146,578
279,326	2,722	286,258	146,382
280,341	2,714	286,204	146,333
281,355	2,693	285,863	146,126
282,370	2,671	285,754	146,037
283,384	2,694	285,578	145,955
284,399	2,631	285,312	145,746
285,414	2,494	285,159	145,524
286,428	2,687	285,014	145,621
287,443	2,467	284,759	145,268
288,457	2,524	284,530	145,193
289,472	2,421	284,374	145,002
290,487	2,486	284,210	144,968
291,501	2,580	283,895	144,883
292,516	2,344	283,795	144,595
293,530	2,441	283,576	144,563
294,545	2,345	283,534	144,437
295,560	2,345	283,317	144,314
296,574	2,375	283,043	144,190
297,589	2,271	282,937	144,024
298,603	2,393	282,632	143,972
299,618	2,448	282,566	143,977
300,633	2,616	282,403	144,040
301,647	2,630	282,173	143,923
302,662	2,483	282,072	143,720
303,676	2,472	281,955	143,637
304,691	2,610	281,808	143,679
305,706	2,705	281,567	143,633
306,720	2,731	281,369	143,544
307,735	2,820	281,123	143,490
308,749	2,618	281,086	143,268
309,764	2,612	281,012	143,212
310,779	2,834	280,645	143,221
311,793	2,846	280,456	143,122
312,808	2,593	280,260	142,773
313,822	2,569	280,045	142,628
314,837	2,677	279,893	142,639
315,852	2,666	279,763	142,550
316,866	2,777	279,572	142,543
317,881	2,752	279,260	142,348
318,895	2,487	279,162	142,038
319,910	2,387	278,937	141,818
320,925	2,548	278,700	141,834
321,939	2,654	278,563	141,851
322,954	2,682	278,541	141,853
323,968	2,861	278,268	141,868
324,983	2,889	278,102	141,796
325,997	2,753	277,962	141,586
327,012	2,644	277,792	141,386
328,027	2,793	277,602	141,415
329,041	2,772	277,489	141,326
330,056	2,916	277,169	141,282
331,070	2,743	277,069	141,059
332,085	2,658	276,890	140,877
333,100	2,807	276,708	140,910
334,114	2,860	276,443	140,811
335,129	2,795	276,355	140,693
336,143	2,936	276,156	140,710
337,158	2,899	275,889	140,527
338,173	2,714	275,862	140,331
339,187	2,760	275,708	140,282
340,202	2,878	275,500	140,272
341,216	2,752	275,166	139,973
342,231	2,811	275,009	139,935
343,246	2,799	274,913	139,863
344,260	2,754	274,761	139,732
345,275	2,763	274,617	139,654
346,289	2,632	274,505	139,465
347,304	2,865	274,237	139,529
348,319	2,824	274,045	139,382
349,333	2,842	273,766	139,244
350,348	2,603	273,850	139,056
351,362	2,600	273,513	138,870
352,377	2,660	273,415	138,862
353,392	2,803	273,268	138,906
354,406	2,842	273,033	138,810
355,421	192,035	1348,325	1430,317
356,435	155,076	1479,432	1430,447
