DTS Sentinel unit serial number:	SN410029Multiplexer serial number:	ORYXHardware model number:	OX2-SRSoftware version number:	ORYX F/W v4,00 Oryx Data Collector v3.7.2.0data status	okinstallation	B4 Nyhavnadifferential loss correction	single-endedforward channel	channel 2reverse channel	N/Adate	2023/12/18time	17:50:13forward acquisition time	300,00reverse acquisition time	0,00gamma	499,1914k internal	0,3124k external	0,3124temperature offset calibration	1,0000default loss term (dB/km)	0,3820temperature slope calibration	1,0000multiplexer offset coefficient	1,0000multiplexer slope coefficient	1,0000fibre end	0,00T internal ref (°C)	21,81T ext. ref 1 (°C)	7,20T ext. ref 2 (°C)	7,22length (m)	temperature (°C)	Stokes	anti-Stokes-744,400	800,000	0,049	-0,128
-743,385	795,392	-0,068	0,141
-742,371	174,288	-0,027	0,030
-741,356	128,085	-0,195	0,185
-740,342	-103,077	0,029	0,005
-739,327	-60,320	-0,217	0,069
-738,312	-58,927	-0,116	-0,037
-737,298	-129,485	-0,283	0,029
-736,283	800,000	-0,010	0,024
-735,269	-108,431	-0,136	0,022
-734,254	800,000	0,038	-0,112
-733,239	-101,759	-0,377	-0,067
-732,225	-102,594	0,179	-0,032
-731,210	178,073	-0,053	0,058
-730,196	-200,000	0,004	-0,047
-729,181	800,000	-0,053	0,130
-728,167	-58,522	0,111	0,036
-727,152	-200,000	-0,032	0,215
-726,137	213,712	0,059	-0,070
-725,123	-200,000	0,003	-0,070
-724,108	-7,534	-0,015	-0,008
-723,094	25,634	-0,135	-0,084
-722,079	56,000	-0,043	-0,031
-721,064	70,280	-0,024	-0,018
-720,050	306,175	-0,039	-0,054
-719,035	23,927	-0,030	0,019
-718,021	59,000	0,099	-0,072
-717,006	135,891	-0,124	0,121
-715,991	800,000	-0,033	-0,082
-714,977	-200,000	-0,023	-0,093
-713,962	-74,782	0,051	0,014
-712,948	-200,000	-0,005	0,043
-711,933	-145,538	0,107	0,007
-710,918	3,764	-0,204	-0,111
-709,904	79,047	-0,129	-0,103
-708,889	17,973	-0,014	0,008
-707,875	697,972	0,017	-0,033
-706,860	-67,360	-0,030	0,009
-705,845	-200,000	-0,007	0,068
-704,831	-137,420	0,053	0,004
-703,816	281,398	0,040	0,053
-702,802	-24,723	-0,126	-0,055
-701,787	599,476	-0,055	-0,102
-700,772	-200,000	-0,028	-0,134
-699,758	-147,418	-0,126	-0,008
-698,743	196,865	-0,053	-0,060
-697,729	-104,274	0,111	0,019
-696,714	-200,000	-0,006	0,023
-695,699	8,544	0,025	-0,014
-694,685	-200,000	0,014	-0,128
-693,670	67,245	-0,159	-0,120
-692,656	-37,721	0,145	0,057
-691,641	-200,000	0,006	-0,043
-690,627	539,481	0,043	-0,077
-689,612	202,446	0,056	-0,064
-688,597	-91,876	-0,146	-0,031
-687,583	-37,941	-0,064	-0,025
-686,568	13,990	-0,087	0,050
-685,554	-8,665	-0,147	-0,073
-684,539	603,029	0,050	-0,093
-683,524	800,000	0,008	0,021
-682,510	101,530	0,049	0,042
-681,495	305,556	0,054	-0,075
-680,481	83,255	-0,047	0,038
-679,466	-105,370	0,060	-0,010
-678,451	178,370	-0,038	0,041
-677,437	-200,000	0,012	-0,157
-676,422	-200,000	-0,011	0,114
-675,408	-93,165	-0,010	-0,002
-674,393	800,000	0,041	-0,087
-673,378	-159,596	-0,234	-0,009
-672,364	761,697	-0,058	-0,117
-671,349	12,355	-0,091	0,052
-670,335	11,135	-0,070	-0,039
-669,320	-119,987	-0,139	-0,018
-668,305	-200,000	0,010	0,152
-667,291	323,696	-0,029	-0,042
-666,276	-200,000	-0,035	-0,199
-665,262	-200,000	-0,019	-0,246
-664,247	-200,000	0,004	0,035
-663,232	577,391	-0,043	-0,079
-662,218	45,668	-0,059	0,040
-661,203	-106,999	0,067	-0,011
-660,189	-200,000	0,014	0,058
-659,174	337,629	0,030	-0,043
-658,159	500,547	0,029	0,050
-657,145	800,000	-0,036	0,096
-656,130	-86,087	-0,042	0,010
-655,116	-78,656	-0,054	-0,014
-654,101	180,100	-0,025	0,027
-653,086	16,461	0,050	-0,029
-652,072	-104,599	-0,166	-0,028
-651,057	92,005	-0,053	-0,044
-650,043	-200,000	-0,050	-0,167
-649,028	-14,404	-0,083	-0,039
-648,014	-144,926	0,054	-0,004
-646,999	81,014	0,053	-0,042
-645,984	110,923	-0,154	0,137
-644,970	21,780	0,180	-0,108
-643,955	163,323	-0,060	-0,062
-642,941	-18,463	0,019	-0,009
-641,926	-200,000	-0,001	0,079
-640,911	104,597	0,029	0,026
-639,897	-200,000	0,004	-0,056
-638,882	297,950	0,123	0,168
-637,868	197,386	-0,032	-0,036
-636,853	347,020	0,023	0,033
-635,838	-200,000	0,053	-0,223
-634,824	-200,000	-0,020	-0,100
-633,809	-166,422	0,051	0,002
-632,795	364,079	0,074	-0,111
-631,780	-200,000	0,000	0,073
-630,765	-55,759	-0,100	0,033
-629,751	156,906	-0,085	-0,087
-628,736	163,929	0,057	-0,060
-627,722	-148,597	-0,121	-0,007
-626,707	800,000	-0,017	0,053
-625,692	511,167	0,080	0,139
-624,678	194,067	-0,099	-0,112
-623,663	-200,000	-0,032	-0,174
-622,649	125,068	-0,134	-0,126
-621,634	-64,291	-0,146	0,044
-620,619	-14,365	0,030	-0,014
-619,605	-15,242	0,036	-0,017
-618,590	-73,343	-0,075	0,020
-617,576	42,566	0,104	0,070
-616,561	9,403	-0,127	0,071
-615,546	242,518	-0,036	-0,044
-614,532	800,000	-0,041	-0,084
-613,517	25,768	-0,078	-0,048
-612,503	-130,436	-0,093	-0,009
-611,488	-83,951	0,085	0,020
-610,474	696,196	-0,026	-0,050
-609,459	-200,000	0,000	0,095
-608,444	27,961	0,040	0,025
-607,430	195,652	-0,103	-0,116
-606,415	-139,502	-0,057	0,004
-605,401	84,400	-0,013	-0,010
-604,386	-119,060	0,021	0,003
-603,371	-169,841	0,089	-0,002
-602,357	172,688	0,029	-0,031
-601,342	-103,606	0,050	0,009
-600,328	184,439	-0,069	0,075
-599,313	166,213	0,005	-0,006
-598,298	157,001	-0,047	-0,048
-597,284	188,715	0,060	0,067
-596,269	-200,000	0,032	0,118
-595,255	158,832	0,084	0,086
-594,240	-200,000	-0,029	-0,130
-593,225	434,429	0,068	-0,110
-592,211	-53,955	-0,036	-0,012
-591,196	-200,000	-0,037	0,000
-590,182	80,341	0,018	0,014
-589,167	158,548	0,072	0,074
-588,152	-200,000	0,023	0,092
-587,138	59,771	-0,124	0,090
-586,123	-39,980	-0,130	0,050
-585,109	-200,000	0,003	0,046
-584,094	800,000	-0,025	-0,077
-583,079	800,000	-0,024	-0,053
-582,065	-200,000	0,004	-0,041
-581,050	-200,000	-0,004	-0,019
-580,036	327,081	0,044	-0,062
-579,021	-72,541	-0,055	0,015
-578,006	352,801	-0,031	-0,045
-576,992	-10,060	-0,082	-0,040
-575,977	800,000	0,040	-0,096
-574,963	-53,870	-0,061	-0,020
-573,948	-200,000	0,000	0,034
-572,934	-200,000	-0,029	0,120
-571,919	-42,572	-0,130	-0,049
-570,904	-71,459	-0,131	-0,036
-569,890	181,631	0,061	-0,066
-568,875	389,857	0,005	0,008
-567,861	80,422	0,085	-0,068
-566,846	-12,680	0,121	-0,058
-565,831	35,664	-0,052	-0,034
-564,817	-9,940	-0,033	-0,016
-563,802	104,891	0,031	0,027
-562,788	-68,433	-0,054	0,015
-561,773	-21,467	0,054	-0,024
-560,758	40,219	0,098	-0,065
-559,744	-61,035	-0,203	-0,063
-558,729	350,201	-0,057	0,083
-557,715	-200,000	0,023	0,085
-556,700	69,195	0,048	-0,037
-555,685	-34,169	-0,030	0,012
-554,671	435,294	0,082	-0,132
-553,656	11,518	-0,147	0,083
-552,642	337,498	0,067	0,096
-551,627	80,659	0,062	0,050
-550,612	800,000	0,035	-0,105
-549,598	-200,000	0,012	-0,132
-548,583	800,000	0,027	-0,076
-547,569	-200,000	0,021	-0,076
-546,554	35,770	0,023	-0,015
-545,539	690,921	-0,043	0,083
-544,525	517,076	-0,021	0,036
-543,510	-200,000	-0,027	-0,127
-542,496	-200,000	0,008	-0,071
-541,481	-200,000	0,006	-0,147
-540,466	-18,651	-0,030	0,014
-539,452	-200,000	0,011	-0,048
-538,437	-200,000	0,005	-0,059
-537,423	146,986	-0,020	-0,020
-536,408	776,684	0,046	-0,094
-535,393	-25,930	-0,070	0,030
-534,379	-200,000	-0,007	0,044
-533,364	46,240	-0,045	-0,031
-532,350	-200,000	0,013	0,173
-531,335	-107,953	0,064	-0,010
-530,321	93,144	0,057	-0,048
-529,306	-141,131	0,015	0,001
-528,291	-200,000	0,002	-0,023
-527,277	-153,698	-0,083	-0,004
-526,262	-141,259	0,154	0,011
-525,248	71,102	0,098	0,075
-524,233	800,000	0,010	0,020
-523,218	-200,000	-0,003	0,069
-522,204	181,139	-0,027	0,029
-521,189	-93,421	-0,192	0,039
-520,175	-200,000	0,025	-0,133
-519,160	238,689	0,068	-0,083
-518,145	-200,000	0,024	-0,100
-517,131	-135,645	0,155	0,013
-516,116	303,881	-0,054	0,074
-515,102	-43,433	-0,186	0,069
-514,087	-157,518	0,076	0,003
-513,072	-200,000	0,025	0,083
-512,058	-81,474	0,086	0,021
-511,043	47,792	-0,077	-0,053
-510,029	74,404	0,018	-0,014
-509,014	-83,213	0,153	-0,036
-507,999	-200,000	0,003	0,083
-506,985	96,809	0,161	0,136
-505,970	-200,000	-0,028	-0,105
-504,956	33,101	0,057	-0,036
-503,941	-200,000	0,007	-0,056
-502,926	-76,024	0,084	0,022
-501,912	800,000	-0,010	-0,025
-500,897	-200,000	-0,025	0,091
-499,883	48,245	0,066	0,046
-498,868	-13,661	-0,132	0,063
-497,853	-200,000	-0,002	-0,010
-496,839	-200,000	-0,024	-0,089
-495,824	-39,182	-0,055	-0,021
-494,810	653,064	-0,049	0,092
-493,795	-141,207	0,056	-0,004
-492,781	-3,511	0,077	-0,039
-491,766	727,659	0,009	0,017
-490,751	-173,575	-0,132	-0,003
-489,737	-125,913	0,126	0,014
-488,722	800,000	-0,043	0,127
-487,708	704,445	0,047	-0,092
-486,693	-200,000	-0,010	-0,109
-485,678	-11,705	-0,050	0,024
-484,664	-78,111	-0,059	0,015
-483,649	-93,085	-0,194	-0,040
-482,635	226,877	0,034	0,041
-481,620	-59,710	0,031	-0,010
-480,605	95,134	0,125	0,105
-479,591	141,232	-0,043	0,042
-478,576	160,162	-0,059	0,061
-477,562	-200,000	0,000	-0,164
-476,547	-200,000	-0,012	-0,209
-475,532	-200,000	-0,005	-0,133
-474,518	-39,295	0,097	0,037
-473,503	-200,000	-0,008	0,134
-472,489	88,789	0,123	0,101
-471,474	443,297	0,038	-0,062
-470,459	520,200	0,030	-0,051
-469,445	-46,844	0,026	0,009
-468,430	-25,424	-0,072	-0,031
-467,416	740,423	0,097	0,194
-466,401	-98,831	-0,133	-0,025
-465,386	171,585	0,046	0,049
-464,372	19,898	0,092	-0,054
-463,357	23,927	-0,123	0,075
-462,343	-200,000	-0,044	-0,159
-461,328	118,100	-0,045	0,041
-460,313	800,000	-0,067	-0,164
-459,299	131,673	-0,090	-0,086
-458,284	-92,747	-0,083	-0,017
-457,270	328,422	0,034	0,048
-456,255	-200,000	0,001	-0,012
-455,241	565,384	0,029	-0,051
-454,226	-133,569	-0,118	0,011
-453,211	360,033	0,090	0,134
-452,197	-200,000	0,004	0,069
-451,182	-26,801	0,039	-0,017
-450,168	-23,016	-0,006	-0,003
-449,153	144,432	-0,071	-0,070
-448,138	800,000	0,038	-0,117
-447,124	-2,625	0,054	0,028
-446,109	-165,949	0,030	0,001
-445,095	-200,000	0,031	0,136
-444,080	441,989	0,047	0,076
-443,065	78,356	-0,043	-0,034
-442,051	24,957	-0,088	-0,053
-441,036	414,693	0,048	0,076
-440,022	-19,912	0,086	-0,039
-439,007	424,002	-0,043	-0,068
-437,992	15,165	-0,095	-0,054
-436,978	478,801	0,044	0,074
-435,963	-200,000	0,156	0,000
-434,949	507,177	-0,033	0,056
-433,934	800,000	0,010	0,026
-432,919	800,000	0,027	-0,085
-431,905	-200,000	0,020	-0,098
-430,890	800,000	0,034	-0,100
-429,876	381,872	-0,039	0,060
-428,861	243,472	0,051	-0,063
-427,846	-123,420	-0,099	-0,012
-426,832	800,000	0,028	-0,058
-425,817	64,006	-0,133	-0,098
-424,803	154,219	-0,027	-0,027
-423,788	-200,000	-0,028	0,122
-422,773	-62,270	-0,018	-0,005
-421,759	143,184	-0,048	0,047
-420,744	47,170	-0,076	0,052
-419,730	-200,000	-0,010	0,092
-418,715	229,934	-0,086	-0,104
-417,701	199,035	0,048	0,054
-416,686	-200,000	0,012	0,141
-415,671	-82,112	0,084	0,020
-414,657	7,101	0,107	0,059
-413,642	-67,493	0,162	-0,046
-412,628	5,379	-0,049	-0,026
-411,613	434,804	-0,027	0,044
-410,598	-51,835	0,047	0,016
-409,584	-100,972	-0,099	-0,018
-408,569	-116,199	-0,017	0,002
-407,555	-200,000	0,002	-0,117
-406,540	160,622	0,104	-0,107
-405,525	96,286	-0,083	-0,070
-404,511	272,337	0,042	-0,055
-403,496	672,090	-0,034	0,065
-402,482	-100,451	0,048	0,009
-401,467	81,156	0,119	0,095
-400,452	-200,000	0,006	-0,136
-399,438	-200,000	0,042	-0,154
-398,423	-15,170	-0,130	-0,061
-397,409	378,390	0,064	0,096
-396,394	552,065	0,017	0,030
-395,379	800,000	-0,026	0,064
-394,365	739,142	0,047	0,093
-393,350	-26,559	0,088	0,038
-392,336	800,000	0,030	-0,095
-391,321	4,912	0,084	-0,045
-390,306	113,436	-0,092	-0,082
-389,292	800,000	-0,005	-0,017
-388,277	800,000	0,085	0,273
-387,263	-81,886	0,098	-0,023
-386,248	-154,858	0,096	0,005
-385,233	533,661	0,006	0,011
-384,219	203,137	-0,043	-0,049
-383,204	494,717	0,036	-0,062
-382,190	-58,529	0,078	-0,025
-381,175	236,208	0,039	-0,048
-380,160	189,583	-0,044	-0,048
-379,146	-200,000	0,025	-0,108
-378,131	800,000	-0,031	0,068
-377,117	89,573	0,120	0,098
-376,102	-68,099	0,129	0,037
-375,088	140,297	-0,100	0,097
-374,073	-43,345	0,043	0,016
-373,058	-200,000	-0,001	-0,036
-372,044	-189,726	-0,073	-0,001
-371,029	-200,000	0,029	0,144
-370,015	-70,606	0,077	-0,021
-369,000	-200,000	-0,012	0,097
-367,985	245,653	-0,071	-0,088
-366,971	-125,042	-0,053	0,006
-365,956	-21,044	0,033	0,015
-364,942	800,000	0,018	-0,051
-363,927	220,149	0,056	0,067
-362,912	-200,000	-0,053	-0,173
-361,898	800,000	0,027	-0,086
-360,883	800,000	0,043	-0,134
-359,869	409,571	0,096	0,150
-358,854	-176,909	-0,056	0,001
-357,839	284,325	0,068	0,090
-356,825	159,049	-0,040	0,041
-355,810	224,217	-0,069	0,082
-354,796	168,731	-0,041	-0,043
-353,781	-75,647	-0,178	0,046
-352,766	-102,815	0,041	0,007
-351,752	179,420	0,049	-0,053
-350,737	800,000	-0,035	0,105
-349,723	-200,000	-0,002	0,020
-348,708	242,239	0,099	0,122
-347,693	-200,000	-0,003	0,046
-346,679	-107,127	-0,142	0,023
-345,664	-200,000	-0,001	-0,040
-344,650	-200,000	0,001	0,054
-343,635	258,896	-0,062	-0,079
-342,620	1,539	0,036	0,019
-341,606	85,261	-0,069	0,055
-340,591	-200,000	-0,013	-0,064
-339,577	-200,000	0,007	-0,053
-338,562	-200,000	0,003	0,027
-337,548	-102,374	0,086	0,015
-336,533	40,112	-0,079	0,052
-335,518	170,553	0,064	0,067
-334,504	-164,828	0,102	-0,003
-333,489	-56,195	-0,073	-0,024
-332,475	-19,991	-0,089	0,040
-331,460	620,418	0,036	0,066
-330,445	-45,891	0,019	0,007
-329,431	-25,332	-0,048	0,021
-328,416	-68,554	-0,076	-0,021
-327,402	48,407	0,020	-0,014
-326,387	800,000	0,073	-0,179
-325,372	-132,437	-0,077	-0,007
-324,358	225,782	-0,116	-0,138
-323,343	-119,943	0,018	-0,002
-322,329	-200,000	-0,007	0,025
-321,314	-182,980	-0,080	0,001
-320,299	208,918	-0,049	0,057
-319,285	262,255	0,049	-0,063
-318,270	-200,000	0,005	-0,042
-317,256	102,210	-0,221	-0,190
-316,241	117,342	0,118	0,106
-315,226	-5,609	0,124	0,062
-314,212	-27,130	-0,037	-0,016
-313,197	27,750	0,097	0,060
-312,183	-131,569	0,101	0,010
-311,168	800,000	-0,022	0,064
-310,153	399,039	-0,036	-0,056
-309,139	800,000	0,013	-0,032
-308,124	-200,000	-0,023	0,153
-307,110	668,054	0,056	0,106
-306,095	239,060	0,009	0,011
-305,080	-200,000	-0,012	0,126
-304,066	-6,413	-0,156	-0,078
-303,051	81,365	0,089	-0,071
-302,037	-200,000	-0,010	0,053
-301,022	-50,057	-0,094	-0,032
-300,008	-19,813	0,142	-0,064
-298,993	119,421	-0,076	0,069
-297,978	121,730	0,120	0,109
-296,964	302,370	0,077	-0,105
-295,949	87,096	0,088	-0,071
-294,935	-65,692	-0,173	-0,050
-293,920	-200,000	0,015	0,063
-292,905	19,654	-0,049	0,029
-291,891	183,327	0,029	0,031
-290,876	-200,000	0,011	0,036
-289,862	282,703	-0,050	0,065
-288,847	-87,885	-0,124	-0,027
-287,832	6,038	0,121	0,065
-286,818	653,409	0,054	0,101
-285,803	368,837	0,049	-0,072
-284,789	800,000	-0,004	0,008
-283,774	105,501	-0,050	0,044
-282,759	13,005	0,040	-0,023
-281,745	17,967	0,078	0,046
-280,730	800,000	0,066	-0,154
-279,716	326,289	0,027	-0,038
-278,701	800,000	-0,039	0,105
-277,686	26,993	0,252	0,154
-276,672	-123,523	0,100	-0,012
-275,657	81,241	-0,021	0,017
-274,643	-200,000	-0,000	0,057
-273,628	-200,000	-0,004	-0,132
-272,613	-200,000	-0,013	-0,048
-271,599	-2,104	0,092	-0,047
-270,584	37,464	-0,078	-0,050
-269,570	-200,000	-0,034	0,125
-268,555	-30,186	-0,063	0,026
-267,540	-200,000	-0,006	-0,109
-266,526	-200,000	0,021	-0,090
-265,511	138,311	0,019	0,018
-264,497	127,109	-0,098	0,091
-263,482	137,899	-0,100	0,095
-262,467	-95,016	0,083	0,016
-261,453	-6,918	0,029	0,014
-260,438	-200,000	0,003	0,056
-259,424	597,145	-0,096	0,175
-258,409	800,000	0,011	0,030
-257,395	398,441	-0,031	0,048
-256,380	737,979	0,079	0,157
-255,365	-124,103	0,061	-0,007
-254,351	-58,396	-0,151	0,048
-253,336	-94,738	-0,123	-0,024
-252,322	-24,984	0,059	-0,026
-251,307	800,000	0,047	-0,136
-250,292	419,663	-0,058	-0,091
-249,278	20,969	0,014	-0,008
-248,263	-200,000	-0,012	-0,117
-247,249	-200,000	-0,003	-0,071
-246,234	-200,000	-0,001	0,047
-245,219	369,828	0,044	0,065
-244,205	800,000	-0,039	-0,087
-243,190	-200,000	0,021	0,080
-242,176	95,955	-0,114	0,095
-241,161	-200,000	0,002	0,209
-240,146	800,000	0,033	0,087
-239,132	-111,711	-0,058	0,008
-238,117	-200,000	0,038	-0,178
-237,103	-152,839	0,075	-0,004
-236,088	-200,000	-0,002	-0,133
-235,073	800,000	-0,022	-0,064
-234,059	800,000	0,049	-0,146
-233,044	800,000	-0,012	-0,038
-232,030	-69,600	-0,024	0,007
-231,015	800,000	-0,067	0,160
-230,000	-86,473	-0,059	-0,013
-228,986	165,305	-0,026	0,027
-227,971	-200,000	0,007	0,084
-226,957	212,799	-0,028	0,032
-225,942	347,433	0,044	0,063
-224,927	142,142	-0,063	0,061
-223,913	-49,376	-0,071	-0,024
-222,898	129,257	0,115	-0,107
-221,884	1,269	-0,080	0,042
-220,869	800,000	0,053	0,132
-219,855	800,000	-0,031	0,084
-218,840	329,052	0,123	0,173
-217,825	-26,421	0,062	-0,027
-216,811	-124,400	0,096	-0,011
-215,796	-25,705	-0,112	-0,048
-214,782	162,279	0,054	-0,055
-213,767	-200,000	-0,012	0,111
-212,752	584,939	0,015	0,028
-211,738	-68,734	-0,011	0,003
-210,723	17,725	-0,078	-0,045
-209,709	-200,000	0,005	0,023
-208,694	61,963	0,101	-0,074
-207,679	24,527	-0,050	0,030
-206,665	77,940	-0,024	-0,019
-205,650	293,129	0,136	0,182
-204,636	800,000	0,027	0,059
-203,621	0,671	0,090	-0,047
-202,606	302,107	-0,084	-0,114
-201,592	101,917	-0,058	0,050
-200,577	-25,339	-0,060	0,026
-199,563	-93,942	0,177	-0,035
-198,548	134,088	0,069	0,066
-197,533	391,492	-0,025	-0,038
-196,519	-200,000	0,017	-0,158
-195,504	9,196	-0,091	0,050
-194,490	-200,000	-0,017	0,125
-193,475	800,000	-0,047	-0,108
-192,460	361,531	-0,114	-0,167
-191,446	329,677	-0,035	-0,050
-190,431	-200,000	-0,000	0,120
-189,417	-127,491	0,149	-0,016
-188,402	-175,584	-0,081	-0,002
-187,387	-56,387	-0,089	-0,029
-186,373	-121,987	0,073	-0,009
-185,358	24,714	-0,065	0,039
-184,344	-46,291	0,119	0,042
-183,329	-108,581	0,148	-0,023
-182,315	-70,965	0,142	-0,039
-181,300	209,859	-0,082	-0,094
-180,285	-200,000	0,000	0,120
-179,271	82,199	-0,079	-0,063
-178,256	423,643	-0,019	-0,030
-177,242	-79,921	-0,082	0,020
-176,227	185,410	0,056	-0,060
-175,212	-32,235	0,113	-0,046
-174,198	-44,992	-0,069	0,025
-173,183	-149,083	-0,104	-0,006
-172,169	106,315	-0,136	-0,117
-171,154	153,855	-0,134	0,134
-170,139	-200,000	-0,011	0,062
-169,125	205,292	0,069	0,078
-168,110	-3,386	-0,111	-0,056
-167,096	-27,025	0,106	-0,045
-166,081	-200,000	0,017	0,085
-165,066	-200,000	-0,000	0,010
-164,052	-67,249	-0,086	-0,024
-163,037	800,000	0,040	0,122
-162,023	-13,150	0,164	0,078
-161,008	-143,658	0,104	0,007
-159,993	-50,967	-0,100	0,034
-158,979	-192,279	-0,088	0,001
-157,964	81,169	-0,066	-0,052
-156,950	-188,868	-0,044	-0,000
-155,935	-67,529	0,124	0,035
-154,920	-200,000	-0,024	0,127
-153,906	-24,709	0,052	0,023
-152,891	451,955	-0,037	-0,060
-151,877	-30,158	0,077	0,032
-150,862	-200,000	0,000	0,016
-149,847	-72,178	-0,057	-0,015
-148,833	-22,986	0,090	-0,039
-147,818	-200,000	-0,008	-0,078
-146,804	-200,000	0,047	0,158
-145,789	587,687	0,084	0,151
-144,775	207,443	0,005	-0,006
-143,760	800,000	0,035	0,084
-142,745	-102,723	-0,100	-0,017
-141,731	23,169	-0,091	-0,054
-140,716	505,398	0,033	0,056
-139,702	800,000	0,008	-0,023
-138,687	-11,656	-0,135	0,064
-137,672	-77,447	-0,100	-0,025
-136,658	-15,253	0,057	0,026
-135,643	-49,581	-0,094	-0,032
-134,629	800,000	-0,047	0,099
-133,614	-70,605	-0,064	0,018
-132,599	-38,159	0,083	-0,032
-131,585	-200,000	-0,000	0,053
-130,570	96,325	0,047	0,039
-129,556	25,373	-0,017	0,010
-128,541	301,487	-0,126	-0,170
-127,526	288,328	0,039	-0,052
-126,512	-62,488	-0,050	0,015
-125,497	55,320	0,065	0,046
-124,483	416,863	0,065	0,101
-123,468	781,718	-0,050	0,100
-122,453	-143,874	-0,106	-0,007
-121,439	100,539	0,106	0,090
-120,424	-200,000	-0,035	0,177
-119,410	19,469	0,148	0,086
-118,395	-96,488	0,182	0,035
-117,380	-200,000	0,012	0,099
-116,366	-200,000	-0,022	0,146
-115,351	36,114	0,049	-0,031
-114,337	38,777	-0,093	0,061
-113,322	27,137	0,028	0,017
-112,307	-42,196	-0,090	0,033
-111,293	-200,000	-0,043	0,159
-110,278	800,000	0,101	0,223
-109,264	800,000	-0,067	0,171
-108,249	127,981	0,057	-0,052
-107,234	-91,220	-0,202	-0,042
-106,220	-200,000	-0,006	0,143
-105,205	-200,000	0,012	0,138
-104,191	402,288	0,059	0,091
-103,176	-42,159	-0,044	-0,016
-102,162	-31,911	0,255	-0,103
-101,147	373,144	-0,086	-0,128
-100,132	114,487	0,061	0,054
-99,118	33,576	0,057	-0,036
-98,103	170,208	-0,092	-0,096
-97,089	800,000	-0,024	0,051
-96,074	93,093	0,068	-0,056
-95,059	633,368	-0,043	-0,080
-94,045	-200,000	0,036	-0,140
-93,030	-15,321	0,027	0,012
-92,016	-5,467	-0,085	-0,042
-91,001	108,480	-0,098	0,085
-89,986	-200,000	0,211	0,000
-88,972	-200,000	-0,036	0,118
-87,957	649,685	0,034	0,063
-86,943	76,902	0,111	-0,086
-85,928	68,981	-0,087	-0,065
-84,913	800,000	-0,040	-0,101
-83,899	206,982	0,081	-0,092
-82,884	97,323	0,077	0,064
-81,870	-200,000	0,029	0,123
-80,855	-95,730	-0,081	-0,016
-79,840	105,410	-0,038	-0,033
-78,826	-200,000	0,013	-0,055
-77,811	177,798	-0,086	-0,091
-76,797	800,000	-0,053	-0,158
-75,782	5,666	0,112	0,060
-74,767	46,349	0,093	-0,062
-73,753	-162,810	-0,070	0,002
-72,738	483,324	-0,041	0,069
-71,724	-200,000	-0,037	-0,145
-70,709	-200,000	0,000	-0,089
-69,694	24,473	-0,043	-0,026
-68,680	361,355	-0,014	-0,020
-67,665	181,798	-0,043	0,046
-66,651	-175,837	0,100	-0,002
-65,636	-33,171	-0,226	-0,091
-64,622	-90,032	-0,045	-0,009
-63,607	198,293	0,056	-0,062
-62,592	800,000	-0,022	0,051
-61,578	-168,167	-0,065	-0,002
-60,563	-51,089	-0,044	-0,015
-59,549	-50,312	-0,124	0,042
-58,534	-69,282	-1,477	-0,409
-57,519	676,660	-0,866	-1,639
-56,505	-200,000	-0,967	-4,375
-55,490	7,421	0,420	-0,227
-54,476	800,000	4,950	11,771
-53,461	-200,000	13,923	254,135
-52,446	-200,000	693,500	2262,004
-51,432	599,954	1623,843	2935,959
-50,417	117,661	1632,994	1457,957
-49,403	73,269	1286,989	975,506
-48,388	37,282	1023,247	656,252
-47,373	23,822	981,506	585,211
-46,359	23,075	970,954	576,447
-45,344	22,062	966,541	570,496
-44,330	22,003	965,009	569,378
-43,315	21,829	963,666	567,995
-42,300	21,839	962,681	567,425
-41,286	21,846	961,798	566,906
-40,271	21,850	960,686	566,239
-39,257	21,810	959,817	565,575
-38,242	21,828	958,780	565,001
-37,227	21,809	958,119	564,528
-36,213	21,831	957,177	564,020
-35,198	21,776	956,361	563,338
-34,184	21,837	955,598	563,064
-33,169	21,798	954,614	562,338
-32,154	21,860	953,706	561,980
-31,140	21,887	952,966	561,608
-30,125	21,858	952,364	561,136
-29,111	21,887	951,344	560,609
-28,096	21,857	950,611	560,057
-27,082	21,837	949,951	559,583
-26,067	21,895	949,157	559,280
-25,052	21,847	948,454	558,689
-24,038	21,870	947,904	558,415
-23,023	21,808	947,485	557,947
-22,009	21,853	946,623	557,563
-20,994	21,889	945,909	557,235
-19,979	21,821	945,399	556,693
-18,965	21,861	944,629	556,345
-17,950	21,806	944,061	555,816
-16,936	21,824	943,256	555,376
-15,921	21,805	942,635	554,927
-14,906	21,726	941,873	554,205
-13,892	21,730	941,259	553,834
-12,877	21,734	940,665	553,476
-11,863	21,746	939,955	553,077
-10,848	21,699	939,476	552,621
-9,833	21,859	939,052	552,856
-8,819	21,811	938,553	552,391
-7,804	21,727	937,609	551,547
-6,790	21,746	937,109	551,292
-5,775	21,739	936,671	550,990
-4,760	21,775	935,769	550,549
-3,746	21,721	935,459	550,177
-2,731	21,592	934,606	549,245
-1,717	21,511	933,969	548,593
-0,702	21,572	933,150	548,282
0,313	21,326	932,574	547,995
1,327	23,852	930,264	554,528
2,342	31,503	808,997	502,989
3,356	26,312	510,235	308,324
4,371	2,126	375,483	195,966
5,386	-0,870	358,470	183,374
6,400	-1,817	352,604	179,207
7,415	-1,751	350,063	177,979
8,429	-1,635	349,026	177,577
9,444	-1,582	347,816	177,008
10,459	-1,616	347,267	176,672
11,473	-1,489	346,526	176,431
12,488	-1,567	345,876	175,991
13,502	-1,663	345,468	175,654
14,517	-1,627	345,011	175,448
15,531	-1,531	344,527	175,301
16,546	-1,440	344,275	175,264
17,561	-1,428	343,686	174,963
18,575	-1,238	343,337	174,994
19,590	-1,254	342,923	174,750
20,604	-1,229	342,538	174,568
21,619	-1,502	342,388	174,153
22,634	-1,367	341,847	174,021
23,648	-1,350	341,630	173,916
24,663	-1,249	341,216	173,808
25,677	-1,359	340,911	173,509
26,692	-1,481	340,849	173,318
27,707	-1,234	340,292	173,308
28,721	-1,421	340,057	172,955
29,736	-1,433	339,697	172,742
30,750	-1,317	339,447	172,734
31,765	-1,231	338,951	172,567
32,780	-1,375	338,838	172,327
33,794	-1,315	338,658	172,290
34,809	-1,342	338,322	172,072
35,823	-1,358	337,925	171,836
36,838	-1,335	337,760	171,763
37,853	-1,336	337,466	171,597
38,867	-1,301	337,061	171,416
39,882	-1,432	337,054	171,246
40,896	-1,386	336,764	171,137
41,911	-1,365	336,347	170,933
42,926	-1,255	336,067	170,904
43,940	-1,299	335,931	170,768
44,955	-1,372	335,567	170,484
45,969	-1,443	335,303	170,252
46,984	-1,413	335,073	170,155
47,999	-1,296	334,854	170,164
49,013	-1,476	334,542	169,782
50,028	-1,446	334,183	169,620
51,042	-1,348	333,853	169,549
52,057	-1,449	333,578	169,279
53,071	-1,391	333,452	169,266
54,086	-1,426	333,287	169,128
55,101	-1,534	333,125	168,907
56,115	-1,450	332,772	168,808
57,130	-1,479	332,680	168,713
58,144	-1,461	332,097	168,424
59,159	-1,524	331,898	168,236
60,174	-1,484	331,582	168,107
61,188	-1,388	331,391	168,104
62,203	-1,334	331,071	167,987
63,217	-1,395	330,938	167,836
64,232	-1,400	330,599	167,644
65,247	-1,526	330,244	167,305
66,261	-1,630	330,146	167,123
67,276	-1,466	329,799	167,119
68,290	-1,437	329,645	167,058
69,305	-1,457	329,238	166,814
70,320	-1,455	329,099	166,731
71,334	-1,473	328,962	166,626
72,349	-1,508	328,587	166,383
73,363	-1,426	328,304	166,316
74,378	-1,404	328,049	166,197
75,393	-1,593	327,926	165,908
76,407	-1,347	327,641	166,026
77,422	-1,403	327,386	165,818
78,436	-1,463	327,103	165,593
79,451	-1,422	326,699	165,419
80,466	-1,278	326,465	165,448
81,480	-1,293	326,292	165,328
82,495	-1,239	325,968	165,210
83,509	-1,289	325,804	165,056
84,524	-1,247	325,615	164,992
85,539	-1,365	325,370	164,722
86,553	-1,371	325,124	164,576
87,568	-1,306	324,860	164,500
88,582	-1,529	324,802	164,208
89,597	-1,384	324,415	164,159
90,611	-1,450	324,252	163,989
91,626	-1,440	323,919	163,816
92,641	-1,434	323,868	163,782
93,655	-1,322	323,486	163,699
94,670	-1,401	323,370	163,539
95,684	-1,537	322,977	163,175
96,699	-1,552	322,825	163,066
97,714	-1,434	322,629	163,083
98,728	-1,386	322,337	162,974
99,743	-1,275	322,128	162,976
100,757	-1,302	321,755	162,743
101,772	-1,333	321,551	162,592
102,787	-1,464	321,512	162,413
103,801	-1,486	321,223	162,229
104,816	-1,557	320,937	161,992
105,830	-1,204	320,561	162,174
106,845	-1,358	320,471	161,945
107,860	-1,473	320,270	161,704
108,874	-1,436	320,011	161,600
109,889	-1,365	319,549	161,429
110,903	-1,408	319,304	161,244
111,918	-1,378	319,296	161,258
112,933	-1,340	318,997	161,134
113,947	-1,399	318,715	160,913
114,962	-1,237	318,514	160,973
115,976	-1,425	318,453	160,723
116,991	-1,437	318,237	160,587
118,006	-1,349	317,905	160,500
119,020	-1,413	317,832	160,380
120,035	-1,432	317,628	160,243
121,049	-1,378	317,275	160,109
122,064	-1,300	317,091	160,085
123,079	-1,392	316,830	159,841
124,093	-1,366	316,712	159,795
125,108	-1,345	316,449	159,670
126,122	-1,376	316,268	159,532
127,137	-1,254	315,965	159,496
128,151	-1,320	315,657	159,256
129,166	-1,259	315,465	159,209
130,181	-1,451	315,394	158,954
131,195	-1,410	315,067	158,818
132,210	-1,392	314,785	158,681
133,224	-1,535	314,563	158,402
134,239	-1,461	314,281	158,326
135,254	-1,436	314,161	158,277
136,268	-1,560	313,980	158,039
137,283	-1,510	313,703	157,939
138,297	-1,358	313,331	157,900
139,312	-1,472	313,114	157,655
140,327	-1,411	312,953	157,625
141,341	-1,250	312,861	157,736
142,356	-1,303	312,600	157,534
143,370	-1,482	312,535	157,297
144,385	-1,384	312,363	157,300
145,400	-1,416	312,038	157,089
146,414	-1,333	311,716	157,001
147,429	-1,312	311,635	156,969
148,443	-1,551	311,264	156,515
149,458	-1,523	311,125	156,460
150,473	-1,463	310,812	156,351
151,487	-1,404	310,601	156,294
152,502	-1,446	310,584	156,228
153,516	-1,327	310,317	156,205
154,531	-1,451	310,047	155,924
155,546	-1,359	309,763	155,865
156,560	-1,317	309,604	155,815
157,575	-1,399	309,349	155,586
158,589	-1,394	309,186	155,496
159,604	-1,432	308,899	155,297
160,619	-1,130	308,685	155,494
161,633	-1,291	308,535	155,235
162,648	-1,212	308,329	155,200
163,662	-1,295	308,142	155,005
164,677	-1,416	307,867	154,726
165,692	-1,441	307,728	154,616
166,706	-1,313	307,634	154,689
167,721	-1,202	307,313	154,630
168,735	-1,263	307,249	154,520
169,750	-1,321	306,881	154,261
170,764	-1,528	306,819	154,001
171,779	-1,369	306,564	154,025
172,794	-1,506	306,416	153,793
173,808	-1,351	306,212	153,839
174,823	-1,404	305,923	153,625
175,837	-1,426	305,598	153,425
176,852	-1,421	305,365	153,300
177,867	-1,319	305,397	153,408
178,881	-1,408	305,203	153,204
179,896	-1,495	304,873	152,935
180,910	-1,384	304,646	152,922
181,925	-1,291	304,468	152,915
182,940	-1,380	304,263	152,706
183,954	-1,342	304,099	152,650
184,969	-1,239	303,925	152,655
185,983	-1,262	303,764	152,537
186,998	-1,298	303,498	152,353
188,013	-1,228	303,144	152,233
189,027	-1,215	303,063	152,192
190,042	-1,367	302,908	151,945
191,056	-1,254	302,699	151,943
192,071	-1,463	302,441	151,585
193,086	-1,530	302,205	151,385
194,100	-1,639	301,995	151,155
195,115	-1,333	301,711	151,312
196,129	-1,247	301,609	151,335
197,144	-1,331	301,210	151,036
198,159	-1,536	301,063	150,739
199,173	-1,471	300,868	150,694
200,188	-1,509	300,586	150,502
201,202	-1,429	300,260	150,406
202,217	-1,382	300,258	150,439
203,232	-1,451	300,129	150,291
204,246	-1,271	299,701	150,246
205,261	-1,395	299,797	150,155
206,275	-1,367	299,500	150,021
207,290	-1,190	299,250	150,061
208,304	-1,451	299,123	149,720
209,319	-1,321	298,819	149,687
210,334	-1,366	298,696	149,567
211,348	-1,191	298,429	149,596
212,363	-1,246	298,287	149,456
213,377	-1,103	298,004	149,445
214,392	-1,322	297,817	149,117
215,407	-1,225	297,737	149,161
216,421	-1,387	297,510	148,871
217,436	-1,506	297,342	148,654
218,450	-1,486	297,077	148,529
219,465	-1,532	296,991	148,427
220,480	-1,324	296,681	148,466
221,494	-1,483	296,685	148,296
222,509	-1,591	296,423	148,044
223,523	-1,442	296,196	148,067
224,538	-1,266	295,819	148,041
225,553	-1,202	295,705	148,034
226,567	-1,224	295,588	147,941
227,582	-1,194	295,377	147,852
228,596	-1,366	295,387	147,672
229,611	-1,250	294,983	147,572
230,626	-1,260	294,874	147,495
231,640	-1,339	294,595	147,263
232,655	-1,360	294,443	147,153
233,669	-1,406	294,139	146,943
234,684	-1,390	293,896	146,824
235,699	-1,338	293,903	146,865
236,713	-1,337	293,613	146,709
237,728	-1,341	293,490	146,631
238,742	-1,244	293,260	146,598
239,757	-1,378	293,012	146,328
240,772	-1,248	292,819	146,348
241,786	-1,387	292,621	146,099
242,801	-1,427	292,468	145,969
243,815	-1,515	292,289	145,781
244,830	-1,458	292,016	145,687
245,844	-1,516	291,900	145,560
246,859	-1,406	291,674	145,542
247,874	-1,484	291,509	145,370
248,888	-1,600	291,270	145,124
249,903	-1,549	291,162	145,107
250,917	-1,392	290,812	145,074
251,932	-1,513	290,717	144,895
252,947	-1,809	290,214	144,342
253,961	-2,565	289,861	143,414
254,976	-3,120	289,275	142,570
255,990	-3,252	289,256	142,419
257,005	-1,902	289,744	143,966
258,020	0,510	290,450	146,663
259,034	1,845	290,817	148,141
260,049	2,274	290,846	148,563
261,063	2,854	290,734	149,059
262,078	2,880	290,818	149,114
263,093	3,150	290,572	149,239
264,107	3,326	290,515	149,368
265,122	3,427	290,476	149,432
266,136	3,587	290,336	149,503
267,151	3,536	290,019	149,277
268,166	3,716	289,768	149,309
269,180	3,513	289,606	149,015
270,195	3,314	289,463	148,735
271,209	3,470	289,208	148,743
272,224	3,386	289,027	148,554
273,239	3,427	288,762	148,445
274,253	3,338	288,483	148,202
275,268	3,402	288,464	148,241
276,282	3,352	288,127	148,006
277,297	3,253	288,198	147,934
278,312	3,508	287,826	147,976
279,326	3,341	287,711	147,742
280,341	3,139	287,696	147,526
281,355	3,318	287,323	147,494
282,370	3,449	286,960	147,420
283,384	3,155	286,858	147,073
284,399	3,294	286,711	147,118
285,414	3,341	286,489	147,036
286,428	3,101	286,200	146,644
287,443	3,169	286,136	146,664
288,457	3,286	285,967	146,676
289,472	3,016	285,740	146,288
290,487	2,966	285,487	146,098
291,501	3,025	285,346	146,069
292,516	3,076	285,072	145,964
293,530	3,069	285,062	145,939
294,545	3,063	284,909	145,843
295,560	2,999	284,697	145,659
296,574	2,887	284,434	145,406
297,589	2,967	284,144	145,320
298,603	2,993	284,055	145,287
299,618	2,972	283,881	145,165
300,633	3,113	283,675	145,181
301,647	3,187	283,411	145,103
302,662	3,094	283,424	145,009
303,676	3,064	283,407	144,958
304,691	3,371	283,181	145,121
305,706	3,536	282,982	145,161
306,720	3,504	282,715	144,982
307,735	3,580	282,468	144,914
308,749	3,510	282,369	144,784
309,764	3,293	282,293	144,527
310,779	3,227	282,050	144,327
311,793	3,296	281,762	144,233
312,808	3,227	281,574	144,058
313,822	3,168	281,494	143,949
314,837	3,257	281,291	143,916
315,852	3,321	281,167	143,900
316,866	3,366	280,828	143,756
317,881	3,278	280,547	143,517
318,895	3,232	280,454	143,412
319,910	3,151	280,345	143,269
320,925	3,216	280,104	143,194
321,939	3,258	279,989	143,162
322,954	3,229	279,821	143,035
323,968	3,278	279,731	143,023
324,983	3,462	279,532	143,080
325,997	3,513	279,317	143,004
327,012	3,531	279,174	142,936
328,027	3,435	279,018	142,754
329,041	3,594	278,802	142,778
330,056	3,389	278,589	142,465
331,070	3,443	278,389	142,401
332,085	3,549	278,247	142,414
333,100	3,368	278,212	142,216
334,114	3,382	277,770	141,990
335,129	3,382	277,558	141,869
336,143	3,463	277,525	141,914
337,158	3,449	277,359	141,803
338,173	3,382	277,182	141,639
339,187	3,281	277,002	141,440
340,202	3,373	276,801	141,411
341,216	3,405	276,544	141,296
342,231	3,457	276,383	141,248
343,246	3,396	276,222	141,098
344,260	3,652	276,135	141,276
345,275	3,558	275,907	141,061
346,289	3,585	275,621	140,927
347,304	3,440	275,596	140,768
348,319	3,417	275,452	140,661
349,333	3,485	275,192	140,578
350,348	3,334	274,969	140,313
351,362	3,579	274,849	140,464
352,377	3,517	274,760	140,349
353,392	3,440	274,588	140,179
354,406	3,382	274,366	140,000
355,421	191,868	1351,141	1432,946
356,435	154,960	1482,428	1433,083
