DTS Sentinel unit serial number:	SN410029Multiplexer serial number:	ORYXHardware model number:	OX2-SRSoftware version number:	ORYX F/W v4,00 Oryx Data Collector v3.7.2.0data status	okinstallation	B4 Nyhavnadifferential loss correction	single-endedforward channel	channel 2reverse channel	N/Adate	2023/12/16time	13:15:13forward acquisition time	300,00reverse acquisition time	0,00gamma	499,1914k internal	0,3126k external	0,3126temperature offset calibration	1,0000default loss term (dB/km)	0,3820temperature slope calibration	1,0000multiplexer offset coefficient	1,0000multiplexer slope coefficient	1,0000fibre end	0,00T internal ref (°C)	24,62T ext. ref 1 (°C)	11,13T ext. ref 2 (°C)	11,31length (m)	temperature (°C)	Stokes	anti-Stokes-744,400	166,764	-0,013	-0,014
-743,385	55,971	-0,118	0,085
-742,371	394,665	0,089	-0,139
-741,356	598,025	-0,108	0,201
-740,342	-89,543	0,040	-0,009
-739,327	168,078	-0,169	0,179
-738,312	248,610	0,084	-0,106
-737,298	-100,765	-0,254	0,046
-736,283	469,362	0,071	-0,119
-735,269	72,509	-0,244	0,189
-734,254	31,036	-0,081	-0,052
-733,239	-42,689	-0,328	-0,124
-732,225	800,000	0,030	-0,098
-731,210	-200,000	0,012	-0,094
-730,196	-200,000	-0,018	0,070
-729,181	-151,929	-0,105	-0,006
-728,167	145,001	-0,027	-0,027
-727,152	-65,298	-0,047	-0,014
-726,137	28,801	-0,041	0,026
-725,123	-200,000	-0,035	0,126
-724,108	-200,000	0,014	-0,136
-723,094	-23,918	-0,142	-0,063
-722,079	-109,833	-0,123	0,019
-721,064	64,675	0,109	-0,082
-720,050	-200,000	-0,031	-0,128
-719,035	-141,375	-0,035	0,003
-718,021	240,584	-0,073	0,091
-717,006	-0,594	-0,115	0,061
-715,991	367,942	0,057	0,086
-714,977	10,261	-0,156	-0,088
-713,962	-200,000	-0,000	-0,041
-712,948	48,577	0,045	-0,031
-711,933	-20,798	-0,052	0,024
-710,918	1,991	0,092	-0,049
-709,904	-77,994	0,013	0,003
-708,889	-200,000	-0,018	-0,118
-707,875	-200,000	0,006	-0,078
-706,860	88,300	-0,061	-0,051
-705,845	-200,000	0,011	0,064
-704,831	-108,485	-0,078	0,012
-703,816	-56,583	0,024	-0,008
-702,802	-154,885	-0,083	0,004
-701,787	-116,666	-0,049	-0,007
-700,772	234,820	0,021	-0,026
-699,758	-200,000	0,011	0,043
-698,743	5,949	-0,037	-0,020
-697,729	658,055	0,028	0,054
-696,714	35,632	0,093	0,060
-695,699	-123,078	-0,094	0,011
-694,685	-23,661	-0,110	0,049
-693,670	175,139	-0,083	-0,090
-692,656	-200,000	-0,003	0,091
-691,641	297,461	0,089	0,122
-690,627	-70,924	-0,024	-0,007
-689,612	99,231	-0,062	0,053
-688,597	158,338	0,069	0,071
-687,583	-200,000	-0,009	0,054
-686,568	-128,693	-0,185	0,019
-685,554	800,000	-0,023	-0,047
-684,539	-179,617	0,096	0,002
-683,524	-200,000	0,057	0,210
-682,510	800,000	-0,064	0,163
-681,495	-200,000	0,005	0,029
-680,481	-92,366	-0,020	0,004
-679,466	628,186	-0,007	-0,013
-678,451	-200,000	-0,018	0,123
-677,437	-43,674	0,023	0,009
-676,422	-200,000	0,005	-0,042
-675,408	-200,000	0,002	0,086
-674,393	145,949	0,085	0,085
-673,378	133,593	-0,106	-0,102
-672,364	-95,573	-0,117	0,023
-671,349	-83,335	-0,090	0,021
-670,335	-55,653	-0,161	-0,053
-669,320	-200,000	0,006	0,036
-668,305	-188,126	-0,046	-0,000
-667,291	-200,000	0,015	0,060
-666,276	-62,206	-0,102	0,031
-665,262	-200,000	0,005	-0,024
-664,247	-200,000	0,018	-0,110
-663,232	99,848	0,114	0,098
-662,218	196,115	0,092	0,104
-661,203	131,148	0,007	0,007
-660,189	800,000	-0,032	-0,068
-659,174	-200,000	-0,011	-0,089
-658,159	800,000	0,023	0,060
-657,145	671,777	-0,057	0,110
-656,130	157,941	-0,054	0,056
-655,116	-200,000	0,021	0,099
-654,101	-101,455	0,197	0,035
-653,086	-200,000	-0,004	0,146
-652,072	-125,251	0,105	0,012
-651,057	-200,000	0,006	0,040
-650,043	-200,000	0,024	0,141
-649,028	-42,722	-0,125	0,047
-648,014	-55,608	0,076	0,025
-646,999	53,369	0,101	0,071
-645,984	432,431	0,018	0,030
-644,970	56,304	-0,045	-0,033
-643,955	800,000	-0,014	0,042
-642,941	-50,121	-0,100	-0,035
-641,926	7,738	0,089	0,050
-640,911	-200,000	0,012	-0,088
-639,897	-191,075	0,043	-0,000
-638,882	32,874	0,017	0,011
-637,868	-200,000	0,002	0,056
-636,853	-200,000	0,001	-0,007
-635,838	-200,000	-0,003	-0,028
-634,824	28,852	0,075	0,047
-633,809	686,987	0,021	0,041
-632,795	-5,026	0,140	-0,071
-631,780	800,000	-0,046	-0,123
-630,765	-45,445	-0,056	0,020
-629,751	-6,900	-0,072	0,036
-628,736	365,303	0,017	-0,026
-627,722	800,000	0,018	-0,041
-626,707	-200,000	-0,001	0,071
-625,692	-155,097	-0,052	-0,002
-624,678	28,561	0,038	0,024
-623,663	144,752	0,034	-0,034
-622,649	800,000	-0,012	-0,033
-621,634	72,345	-0,081	-0,063
-620,619	-51,453	-0,153	0,053
-619,605	32,279	0,036	0,023
-618,590	287,819	0,101	-0,135
-617,576	-200,000	-0,010	-0,147
-616,561	-181,611	-0,071	-0,001
-615,546	87,001	0,027	-0,022
-614,532	94,709	0,038	0,032
-613,517	-200,000	-0,006	0,067
-612,503	-41,184	-0,087	-0,033
-611,488	219,521	0,055	-0,066
-610,474	126,221	-0,006	0,006
-609,459	-200,000	-0,050	0,000
-608,444	-200,000	0,008	0,025
-607,430	-101,352	-0,134	-0,024
-606,415	-137,653	-0,054	-0,004
-605,401	800,000	0,051	-0,121
-604,386	-31,527	-0,063	-0,026
-603,371	800,000	0,070	0,157
-602,357	34,613	-0,068	0,044
-601,342	-32,240	0,070	-0,029
-600,328	44,784	-0,038	-0,026
-599,313	-200,000	0,016	0,178
-598,298	-200,000	0,016	0,174
-597,284	4,303	0,008	-0,004
-596,269	-200,000	0,032	-0,190
-595,255	-139,488	-0,125	0,010
-594,240	441,800	-0,066	-0,107
-593,225	5,444	-0,082	0,044
-592,211	-106,561	0,044	-0,007
-591,196	800,000	-0,061	-0,154
-590,182	800,000	0,032	-0,097
-589,167	18,635	-0,041	0,024
-588,152	-200,000	0,002	0,088
-587,138	160,042	-0,076	0,078
-586,123	141,964	-0,009	0,009
-585,109	-68,180	-0,130	0,037
-584,094	-200,000	0,021	0,080
-583,079	107,594	-0,100	-0,088
-582,065	800,000	-0,059	0,133
-581,050	-120,456	0,064	0,008
-580,036	-74,040	-0,041	0,011
-579,021	-200,000	0,003	0,059
-578,006	717,463	-0,053	0,104
-576,992	-200,000	0,020	0,067
-575,977	240,005	0,066	0,082
-574,963	-95,429	-0,087	-0,017
-573,948	-200,000	0,014	0,130
-572,934	58,190	0,155	0,112
-571,919	800,000	-0,018	0,036
-570,904	-129,786	-0,033	-0,003
-569,890	20,760	-0,058	-0,035
-568,875	236,191	-0,026	-0,032
-567,861	-30,300	0,044	0,019
-566,846	53,502	0,034	-0,024
-565,831	202,032	-0,051	-0,058
-564,817	-200,000	0,069	-0,000
-563,802	261,018	-0,035	0,045
-562,788	-166,097	0,031	-0,001
-561,773	63,845	0,064	0,048
-560,758	-200,000	-0,013	0,084
-559,744	-112,801	0,050	0,007
-558,729	332,639	0,044	0,063
-557,715	413,689	-0,034	-0,053
-556,700	87,752	-0,139	0,114
-555,685	393,806	-0,058	-0,090
-554,671	800,000	-0,039	0,106
-553,656	548,524	-0,031	0,055
-552,642	-83,412	-0,110	0,026
-551,627	195,273	-0,048	-0,054
-550,612	-13,310	0,043	0,021
-549,598	-178,843	-0,130	0,002
-548,583	24,954	-0,023	0,014
-547,569	-105,043	-0,174	0,029
-546,554	569,978	0,068	-0,124
-545,539	-7,290	0,071	-0,036
-544,525	334,861	-0,126	0,180
-543,510	-200,000	-0,001	-0,028
-542,496	-200,000	-0,008	0,047
-541,481	-96,728	0,016	-0,003
-540,466	177,601	0,081	0,087
-539,452	800,000	0,025	0,057
-538,437	95,258	0,088	0,074
-537,423	-200,000	0,017	0,113
-536,408	800,000	0,007	-0,023
-535,393	50,058	0,091	-0,063
-534,379	147,426	0,016	0,016
-533,364	-200,000	-0,034	-0,133
-532,350	-24,919	0,081	0,036
-531,335	-200,000	0,006	-0,075
-530,321	260,987	0,026	0,033
-529,306	1,051	0,025	-0,013
-528,291	336,728	-0,010	0,015
-527,277	-112,295	-0,161	0,024
-526,262	482,734	-0,053	-0,090
-525,248	29,073	0,063	-0,039
-524,233	-97,572	0,106	0,020
-523,218	800,000	0,020	0,064
-522,204	12,143	0,057	0,032
-521,189	-136,722	0,058	0,005
-520,175	-200,000	-0,003	-0,138
-519,160	328,027	0,065	-0,093
-518,145	126,813	0,053	-0,050
-517,131	243,540	0,027	0,034
-516,116	459,291	-0,059	0,097
-515,102	-200,000	0,101	-0,000
-514,087	-106,702	-0,057	-0,009
-513,072	800,000	-0,015	-0,030
-512,058	-78,069	0,124	-0,031
-511,043	-120,009	0,114	0,014
-510,029	762,122	0,014	0,029
-509,014	435,586	0,031	0,050
-507,999	226,373	0,045	0,053
-506,985	-35,060	-0,054	-0,022
-505,970	84,683	-0,028	-0,023
-504,956	-125,526	-0,030	-0,003
-503,941	218,697	0,078	-0,092
-502,926	-200,000	0,006	0,078
-501,912	-2,392	0,071	-0,036
-500,897	-200,000	0,002	0,034
-499,883	703,574	0,022	0,043
-498,868	-200,000	-0,019	-0,108
-497,853	246,720	-0,044	0,055
-496,839	-200,000	-0,013	0,099
-495,824	17,291	0,195	-0,114
-494,810	-200,000	-0,006	0,125
-493,795	-9,734	-0,115	-0,056
-492,781	129,222	0,030	0,028
-491,766	241,223	-0,097	0,120
-490,751	-200,000	0,021	0,109
-489,737	-200,000	0,016	-0,067
-488,722	-42,306	-0,050	-0,019
-487,708	42,547	0,066	0,044
-486,693	800,000	-0,016	0,049
-485,678	44,218	-0,060	-0,040
-484,664	-53,683	0,136	0,045
-483,649	-164,783	-0,090	-0,003
-482,635	512,272	-0,033	-0,057
-481,620	-51,238	0,063	0,022
-480,605	361,820	0,065	0,097
-479,591	800,000	-0,039	0,121
-478,576	-148,604	-0,067	0,004
-477,562	-200,000	0,023	-0,094
-476,547	436,070	0,067	-0,108
-475,532	-200,000	-0,007	0,112
-474,518	-36,634	0,154	0,061
-473,503	99,912	-0,075	-0,064
-472,489	551,544	-0,093	-0,165
-471,474	659,707	0,067	-0,127
-470,459	53,474	0,071	-0,050
-469,445	-65,398	-0,097	-0,029
-468,430	160,232	-0,071	0,073
-467,416	-136,744	-0,071	-0,006
-466,401	800,000	0,067	0,137
-465,386	485,444	-0,070	0,118
-464,372	-200,000	-0,044	0,145
-463,357	-29,345	-0,073	0,031
-462,343	-200,000	-0,001	-0,108
-461,328	-99,485	0,062	-0,011
-460,313	-200,000	0,040	0,172
-459,299	-168,293	0,089	0,002
-458,284	-40,721	0,037	-0,014
-457,270	-81,363	0,132	-0,032
-456,255	-200,000	-0,019	-0,066
-455,241	428,678	-0,009	-0,014
-454,226	52,157	-0,084	-0,059
-453,211	-200,000	0,037	-0,136
-452,197	-102,430	-0,018	0,003
-451,182	800,000	-0,022	-0,070
-450,168	-200,000	-0,031	0,152
-449,153	-130,332	-0,131	-0,013
-448,138	-147,942	-0,090	-0,005
-447,124	-200,000	-0,019	-0,092
-446,109	-4,012	-0,101	0,051
-445,095	330,561	0,045	0,064
-444,080	-200,000	0,022	0,077
-443,065	635,379	-0,038	0,071
-442,051	-87,527	0,108	-0,024
-441,036	-200,000	-0,014	-0,075
-440,022	-102,409	-0,039	0,007
-439,007	65,846	-0,085	-0,063
-437,992	-149,744	0,034	0,002
-436,978	-85,913	0,045	0,010
-435,963	-119,293	0,068	-0,009
-434,949	-200,000	0,037	0,163
-433,934	-200,000	0,011	0,167
-432,919	-75,893	0,088	-0,023
-431,905	-78,310	-0,205	0,051
-430,890	114,422	-0,041	0,036
-429,876	309,209	-0,039	0,054
-428,861	800,000	-0,031	0,080
-427,846	74,023	0,043	0,033
-426,832	61,076	-0,085	0,062
-425,817	800,000	-0,023	-0,051
-424,803	421,454	-0,039	0,062
-423,788	800,000	0,018	0,039
-422,773	286,632	0,047	0,063
-421,759	41,390	0,010	-0,007
-420,744	-128,315	-0,145	0,015
-419,730	185,047	-0,078	0,085
-418,715	-125,079	0,175	-0,020
-417,701	427,215	-0,045	-0,071
-416,686	-122,682	-0,068	0,008
-415,671	3,046	0,067	0,036
-414,657	388,595	0,070	-0,107
-413,642	-200,000	0,025	-0,143
-412,628	149,969	-0,015	-0,015
-411,613	-100,064	-0,075	-0,014
-410,598	103,452	0,104	0,090
-409,584	-9,501	0,096	-0,047
-408,569	-82,464	-0,057	0,014
-407,555	225,450	0,090	-0,107
-406,540	-200,000	-0,031	-0,268
-405,525	129,752	0,077	-0,072
-404,511	-200,000	0,008	0,136
-403,496	-123,855	0,062	0,007
-402,482	255,348	-0,041	0,051
-401,467	-200,000	-0,002	0,061
-400,452	-200,000	-0,007	0,241
-399,438	-197,669	-0,117	0,001
-398,423	227,349	0,078	0,094
-397,409	-78,141	-0,151	0,038
-396,394	800,000	-0,048	0,122
-395,379	84,400	0,067	-0,053
-394,365	355,123	0,077	0,113
-393,350	-200,000	0,017	0,128
-392,336	-200,000	-0,020	0,117
-391,321	800,000	0,021	-0,057
-390,306	-46,966	-0,049	0,017
-389,292	-124,055	-0,179	-0,020
-388,277	86,505	-0,037	0,030
-387,263	-200,000	-0,007	-0,088
-386,248	-71,294	0,071	-0,020
-385,233	150,175	0,115	0,115
-384,219	167,963	0,107	-0,112
-383,204	800,000	-0,070	-0,146
-382,190	-104,886	0,043	0,007
-381,175	24,034	0,090	0,055
-380,160	-200,000	0,014	0,055
-379,146	-61,036	-0,085	-0,026
-378,131	46,673	0,079	0,054
-377,117	92,980	-0,184	-0,152
-376,102	36,275	-0,063	0,041
-375,088	-200,000	-0,003	-0,131
-374,073	-90,475	0,082	-0,017
-373,058	800,000	0,040	-0,084
-372,044	161,393	-0,097	-0,100
-371,029	230,477	0,030	-0,036
-370,015	182,619	-0,067	0,072
-369,000	-200,000	-0,013	-0,155
-367,985	-200,000	0,020	0,106
-366,971	-200,000	0,001	-0,051
-365,956	14,819	0,089	-0,051
-364,942	-200,000	-0,001	0,177
-363,927	162,385	0,091	-0,094
-362,912	173,754	0,045	0,047
-361,898	-104,499	-0,080	-0,013
-360,883	-200,000	0,031	-0,187
-359,869	800,000	0,064	-0,170
-358,854	-154,314	0,205	-0,010
-357,839	143,053	0,112	0,109
-356,825	587,082	0,071	0,130
-355,810	800,000	0,046	-0,143
-354,796	-170,999	0,021	0,001
-353,781	568,104	-0,069	-0,124
-352,766	-137,416	0,184	0,015
-351,752	656,645	-0,003	-0,005
-350,737	800,000	-0,034	0,101
-349,723	-98,680	-0,052	-0,010
-348,708	29,605	-0,102	-0,063
-347,693	210,459	0,025	-0,029
-346,679	31,019	0,037	-0,023
-345,664	176,940	-0,088	-0,094
-344,650	55,284	-0,043	0,031
-343,635	-200,000	-0,008	0,082
-342,620	-200,000	0,002	0,054
-341,606	3,513	0,135	-0,072
-340,591	393,375	-0,059	0,091
-339,577	384,422	0,064	-0,096
-338,562	-1,851	0,118	-0,061
-337,548	800,000	0,035	0,089
-336,533	-109,956	0,242	-0,037
-335,518	66,357	0,106	0,079
-334,504	123,856	-0,109	0,100
-333,489	800,000	0,046	-0,096
-332,475	-200,000	0,016	0,095
-331,460	256,912	-0,066	0,083
-330,445	-73,861	0,070	-0,019
-329,431	207,347	-0,065	-0,074
-328,416	800,000	0,035	-0,076
-327,402	-101,751	0,111	0,020
-326,387	503,488	0,019	-0,032
-325,372	145,696	0,072	-0,071
-324,358	-200,000	0,009	-0,036
-323,343	240,491	0,092	0,112
-322,329	-200,000	-0,000	-0,027
-321,314	301,642	-0,044	0,059
-320,299	-64,779	0,097	0,029
-319,285	35,833	-0,017	0,011
-318,270	163,720	-0,046	0,047
-317,256	-18,926	-0,168	-0,076
-316,241	33,411	-0,073	0,047
-315,226	-200,000	-0,019	0,076
-314,212	-200,000	-0,016	0,076
-313,197	-96,094	0,125	0,024
-312,183	11,038	0,099	0,055
-311,168	564,061	-0,105	-0,187
-310,153	-200,000	-0,008	0,033
-309,139	-200,000	0,008	-0,074
-308,124	-5,189	0,114	-0,057
-307,110	-92,627	0,086	-0,017
-306,095	50,580	-0,048	-0,033
-305,080	128,038	-0,062	0,058
-304,066	590,593	-0,047	0,085
-303,051	42,742	0,019	-0,013
-302,037	-105,786	0,019	-0,003
-301,022	800,000	-0,028	-0,061
-300,008	192,707	0,143	-0,158
-298,993	-73,656	0,077	-0,021
-297,978	-19,949	-0,016	-0,007
-296,964	-200,000	-0,015	-0,090
-295,949	275,633	-0,094	-0,123
-294,935	-19,966	0,097	-0,044
-293,920	476,587	0,079	-0,130
-292,905	-200,000	-0,028	-0,102
-291,891	73,271	-0,081	0,062
-290,876	275,861	0,054	0,070
-289,862	454,010	0,044	-0,072
-288,847	-86,778	-0,059	-0,013
-287,832	598,225	0,073	0,133
-286,818	800,000	-0,098	-0,217
-285,803	-200,000	-0,018	0,099
-284,789	5,049	0,030	0,016
-283,774	115,096	-0,049	-0,044
-282,759	-54,985	-0,071	0,023
-281,745	434,862	-0,027	0,043
-280,730	-200,000	-0,040	-0,138
-279,716	-200,000	0,005	0,041
-278,701	51,516	0,060	-0,042
-277,686	-111,090	0,079	-0,012
-276,672	800,000	0,027	0,058
-275,657	-85,481	-0,136	0,031
-274,643	-200,000	0,024	-0,112
-273,628	-200,000	0,009	-0,104
-272,613	-200,000	0,007	0,114
-271,599	-200,000	0,009	-0,093
-270,584	22,927	0,153	0,092
-269,570	215,151	-0,072	-0,083
-268,555	800,000	-0,038	-0,086
-267,540	0,078	-0,090	0,047
-266,526	-200,000	-0,005	-0,111
-265,511	800,000	0,037	-0,113
-264,497	800,000	-0,022	0,057
-263,482	129,597	0,038	0,035
-262,467	581,221	-0,083	0,149
-261,453	305,450	0,037	0,050
-260,438	-134,345	-0,096	-0,009
-259,424	-56,792	-0,120	-0,038
-258,409	800,000	0,024	-0,052
-257,395	-114,866	0,084	-0,012
-256,380	28,790	-0,012	-0,008
-255,365	-50,075	-0,061	-0,021
-254,351	-200,000	-0,030	-0,123
-253,336	-63,443	-0,202	-0,060
-252,322	800,000	-0,015	-0,038
-251,307	447,221	0,026	0,042
-250,292	51,091	-0,066	-0,046
-249,278	307,621	-0,047	-0,064
-248,263	800,000	0,030	0,094
-247,249	559,534	0,013	0,022
-246,234	62,898	0,050	0,037
-245,219	30,792	-0,135	-0,084
-244,205	800,000	-0,032	-0,091
-243,190	-48,301	0,118	-0,041
-242,176	61,681	-0,006	0,005
-241,161	-25,082	0,118	0,051
-240,146	265,964	0,084	-0,108
-239,132	-128,314	-0,032	0,003
-238,117	145,894	-0,139	0,136
-237,103	-64,427	-0,065	0,019
-236,088	-162,559	-0,082	-0,003
-235,073	55,755	-0,078	-0,055
-234,059	-6,433	0,090	0,045
-233,044	-200,000	0,003	0,035
-232,030	-68,659	0,069	-0,019
-231,015	-34,599	0,089	0,035
-230,000	-76,597	-0,113	0,029
-228,986	67,480	0,077	-0,058
-227,971	-6,767	-0,034	-0,017
-226,957	157,288	0,113	0,114
-225,942	-200,000	-0,002	-0,045
-224,927	-123,249	0,022	-0,003
-223,913	-84,247	-0,084	0,019
-222,898	-200,000	-0,001	-0,156
-221,884	800,000	-0,036	-0,085
-220,869	800,000	0,057	0,140
-219,855	383,039	0,046	-0,069
-218,840	441,533	-0,044	0,071
-217,825	-88,737	0,122	0,026
-216,811	393,904	0,028	-0,042
-215,796	800,000	-0,015	0,038
-214,782	-150,354	-0,010	-0,001
-213,767	-200,000	-0,015	0,141
-212,752	311,611	-0,040	0,054
-211,738	-136,463	0,213	-0,018
-210,723	-200,000	-0,018	-0,077
-209,709	-200,000	-0,010	-0,066
-208,694	800,000	-0,063	-0,135
-207,679	340,302	-0,012	-0,017
-206,665	167,789	0,073	-0,075
-205,650	-116,319	0,040	-0,005
-204,636	-200,000	-0,005	-0,033
-203,621	-200,000	-0,000	-0,038
-202,606	800,000	-0,056	-0,138
-201,592	632,657	-0,038	0,071
-200,577	617,662	-0,032	-0,059
-199,563	-122,962	0,021	0,002
-198,548	-163,919	0,111	-0,004
-197,533	15,050	0,020	0,012
-196,519	496,582	0,086	0,144
-195,504	-200,000	0,018	-0,098
-194,490	37,719	-0,142	0,092
-193,475	359,777	-0,043	0,063
-192,460	-200,000	0,012	-0,061
-191,446	800,000	-0,005	-0,015
-190,431	800,000	-0,058	-0,121
-189,417	66,666	0,043	0,032
-188,402	-200,000	0,006	0,091
-187,387	-169,153	-0,127	0,003
-186,373	800,000	0,050	-0,134
-185,358	-200,000	-0,013	-0,152
-184,344	481,563	0,046	-0,076
-183,329	771,846	0,055	0,110
-182,315	532,495	0,052	0,090
-181,300	-134,690	-0,073	0,006
-180,285	-200,000	-0,013	-0,167
-179,271	800,000	0,051	0,105
-178,256	-200,000	-0,006	0,060
-177,242	-27,054	0,092	0,039
-176,227	114,365	0,070	0,062
-175,212	198,239	-0,098	-0,109
-174,198	32,276	-0,034	-0,021
-173,183	394,591	-0,034	0,052
-172,169	-200,000	0,016	-0,082
-171,154	-161,133	-0,081	-0,003
-170,139	564,173	-0,066	0,116
-169,125	800,000	0,039	0,095
-168,110	20,671	0,096	0,057
-167,096	88,214	-0,056	0,045
-166,081	369,287	-0,040	0,060
-165,066	235,355	-0,105	-0,127
-164,052	57,493	-0,029	-0,021
-163,037	800,000	0,012	0,027
-162,023	-200,000	0,001	0,146
-161,008	800,000	0,020	-0,055
-159,993	32,163	-0,082	-0,052
-158,979	559,955	-0,060	-0,105
-157,964	-16,652	-0,056	-0,026
-156,950	132,493	-0,147	-0,138
-155,935	-7,031	-0,119	-0,059
-154,920	800,000	0,022	-0,044
-153,906	77,505	0,111	0,086
-152,891	-200,000	0,005	0,110
-151,877	-10,637	-0,144	0,069
-150,862	-108,259	-0,106	0,017
-149,847	-70,798	-0,140	-0,038
-148,833	360,900	-0,053	-0,077
-147,818	102,806	0,079	-0,067
-146,804	-133,966	0,102	-0,009
-145,789	284,032	0,060	0,079
-144,775	800,000	0,066	0,135
-143,760	-200,000	0,001	0,083
-142,745	-200,000	-0,116	-0,000
-141,731	-200,000	-0,015	-0,117
-140,716	154,233	0,069	-0,069
-139,702	212,765	-0,021	0,024
-138,687	627,181	0,010	0,018
-137,672	133,050	0,039	0,037
-136,658	-200,000	-0,002	0,085
-135,643	265,439	0,064	-0,081
-134,629	-200,000	-0,007	0,057
-133,614	783,226	0,080	0,160
-132,599	63,511	0,084	0,061
-131,585	146,480	-0,069	0,067
-130,570	-66,485	-0,083	0,024
-129,556	111,578	-0,040	-0,035
-128,541	235,822	-0,028	-0,034
-127,526	-13,359	0,042	0,020
-126,512	-26,143	-0,091	0,039
-125,497	751,343	0,064	0,127
-124,483	-200,000	-0,004	0,060
-123,468	-65,157	-0,073	0,021
-122,453	-200,000	0,006	-0,057
-121,439	103,484	0,089	-0,076
-120,424	-62,344	-0,122	-0,037
-119,410	800,000	-0,009	0,027
-118,395	-28,702	0,189	-0,079
-117,380	41,744	0,111	0,073
-116,366	-200,000	-0,023	-0,158
-115,351	-200,000	0,021	-0,085
-114,337	-83,674	-0,063	0,014
-113,322	700,259	0,004	-0,008
-112,307	153,459	0,090	0,090
-111,293	-39,038	0,065	-0,025
-110,278	26,286	0,014	-0,008
-109,264	-68,532	0,109	-0,031
-108,249	800,000	-0,017	-0,039
-107,234	800,000	-0,072	-0,223
-106,220	127,806	-0,074	0,068
-105,205	-200,000	0,010	0,050
-104,191	800,000	0,063	0,152
-103,176	745,143	-0,052	-0,102
-102,162	-74,484	0,139	-0,036
-101,147	345,311	0,065	0,093
-100,132	-200,000	-0,023	-0,087
-99,118	97,907	-0,040	0,034
-98,103	394,593	0,091	0,139
-97,089	-200,000	0,011	-0,046
-96,074	40,990	0,113	0,074
-95,059	15,015	-0,174	-0,099
-94,045	-200,000	0,027	-0,131
-93,030	-41,047	-0,136	-0,051
-92,016	-45,565	-0,062	0,022
-91,001	-109,276	0,109	-0,017
-89,986	122,229	0,030	-0,027
-88,972	11,172	-0,032	0,018
-87,957	800,000	-0,033	0,103
-86,943	389,501	-0,107	0,161
-85,928	-200,000	-0,022	0,162
-84,913	-200,000	-0,000	-0,017
-83,899	42,412	-0,011	0,007
-82,884	-132,094	0,128	-0,012
-81,870	-66,018	0,102	0,029
-80,855	-200,000	0,002	0,024
-79,840	97,478	-0,118	-0,098
-78,826	46,293	-0,055	-0,037
-77,811	-182,075	0,032	-0,000
-76,797	-200,000	-0,003	0,020
-75,782	-200,000	0,005	-0,066
-74,767	97,221	0,036	-0,030
-73,753	644,334	0,033	-0,062
-72,738	7,266	0,114	0,062
-71,724	-200,000	0,011	0,128
-70,709	-200,000	0,010	0,071
-69,694	294,695	0,017	0,023
-68,680	51,166	0,045	0,031
-67,665	-200,000	-0,003	-0,028
-66,651	495,007	0,090	0,150
-65,636	24,577	0,018	0,011
-64,622	17,385	-0,091	-0,052
-63,607	177,833	0,056	0,059
-62,592	-87,760	-0,110	0,024
-61,578	-131,454	0,169	0,016
-60,563	-137,021	0,088	0,007
-59,549	-163,958	-0,055	-0,002
-58,534	-53,980	-1,072	0,352
-57,519	436,301	-1,042	-1,651
-56,505	-200,000	-0,733	-4,225
-55,490	453,377	0,406	-0,654
-54,476	800,000	4,797	11,596
-53,461	-200,000	11,926	228,423
-52,446	-200,000	676,142	2199,217
-51,432	589,203	1622,104	2910,084
-50,417	124,846	1650,045	1506,563
-49,403	78,614	1306,182	1011,314
-48,388	41,508	1038,682	680,249
-47,373	26,410	994,572	601,283
-46,359	25,566	984,600	592,437
-45,344	24,801	980,329	587,316
-44,330	24,707	978,827	586,085
-43,315	24,647	977,416	585,018
-42,300	24,668	976,055	584,249
-41,286	24,688	975,356	583,875
-40,271	24,691	974,346	583,257
-39,257	24,680	973,396	582,629
-38,242	24,690	972,445	582,069
-37,227	24,667	971,736	581,544
-36,213	24,636	970,779	580,848
-35,198	24,619	969,748	580,153
-34,184	24,676	969,150	579,959
-33,169	24,616	968,174	579,155
-32,154	24,666	967,244	578,738
-31,140	24,618	966,374	578,041
-30,125	24,692	965,690	577,848
-29,111	24,633	964,834	577,120
-28,096	24,682	963,897	576,697
-27,082	24,670	963,362	576,313
-26,067	24,636	962,674	575,770
-25,052	24,646	961,593	575,132
-24,038	24,625	961,281	574,854
-23,023	24,643	960,471	574,407
-22,009	24,670	959,800	574,071
-20,994	24,678	959,159	573,690
-19,979	24,710	958,371	573,299
-18,965	24,646	957,870	572,769
-17,950	24,711	957,138	572,520
-16,936	24,609	956,456	571,758
-15,921	24,601	955,740	571,284
-14,906	24,549	954,898	570,590
-13,892	24,551	954,463	570,316
-12,877	24,536	953,729	569,805
-11,863	24,478	953,304	569,342
-10,848	24,493	952,593	568,943
-9,833	24,642	952,240	569,186
-8,819	24,616	951,629	568,716
-7,804	24,536	950,953	568,034
-6,790	24,508	950,418	567,603
-5,775	24,572	949,794	567,412
-4,760	24,615	948,941	567,015
-3,746	24,523	948,422	566,389
-2,731	24,440	947,711	565,677
-1,717	24,344	947,124	565,000
-0,702	24,360	946,479	564,643
0,313	24,172	945,643	564,400
1,327	26,722	943,795	571,344
2,342	35,176	823,494	521,754
3,356	31,458	518,997	322,365
4,371	6,827	378,863	203,710
5,386	3,597	361,346	190,273
6,400	2,166	355,050	185,196
7,415	0,984	352,234	182,281
8,429	0,993	350,506	181,381
9,444	0,899	349,758	180,865
10,459	0,698	348,879	180,153
11,473	0,645	348,237	179,742
12,488	1,041	347,821	179,985
13,502	1,093	347,366	179,795
14,517	0,859	346,608	179,109
15,531	0,542	345,990	178,397
16,546	0,526	345,469	178,093
17,561	0,417	345,122	177,769
18,575	0,513	344,794	177,698
19,590	0,336	344,440	177,291
20,604	0,492	343,957	177,209
21,619	0,304	343,746	176,863
22,634	0,510	343,200	176,810
23,648	0,375	342,838	176,448
24,663	0,430	342,491	176,319
25,677	0,526	342,268	176,302
26,692	0,437	342,032	176,059
27,707	0,419	341,744	175,874
28,721	0,502	341,405	175,781
29,736	0,448	341,068	175,529
30,750	0,331	340,855	175,267
31,765	0,345	340,519	175,094
32,780	0,412	340,242	175,015
33,794	0,488	339,868	174,896
34,809	0,365	339,683	174,641
35,823	0,375	339,355	174,470
36,838	0,451	338,980	174,349
37,853	0,372	338,646	174,070
38,867	0,388	338,417	173,956
39,882	0,237	338,344	173,727
40,896	0,465	337,901	173,748
41,911	0,366	337,632	173,479
42,926	0,195	337,397	173,146
43,940	0,325	337,010	173,082
44,955	0,283	336,739	172,879
45,969	0,176	336,533	172,634
46,984	0,037	336,229	172,302
47,999	-0,197	335,925	171,862
49,013	-0,301	335,610	171,566
50,028	-0,304	335,263	171,370
51,042	-0,320	334,976	171,190
52,057	-0,295	334,816	171,122
53,071	-0,274	334,442	170,938
54,086	-0,268	334,265	170,840
55,101	-0,011	333,995	170,981
56,115	0,026	333,906	170,963
57,130	0,353	333,835	171,285
58,144	0,743	333,501	171,544
59,159	0,723	333,277	171,389
60,174	0,723	333,012	171,239
61,188	0,532	332,889	170,942
62,203	0,675	332,504	170,892
63,217	0,458	332,293	170,521
64,232	0,585	331,943	170,470
65,247	0,761	331,883	170,625
66,261	0,646	331,529	170,297
67,276	0,237	331,129	169,613
68,290	0,114	330,756	169,267
69,305	0,220	330,587	169,286
70,320	0,302	330,143	169,136
71,334	0,376	330,032	169,148
72,349	0,585	329,964	169,334
73,363	0,593	329,733	169,209
74,378	0,682	329,380	169,112
75,393	0,724	329,327	169,118
76,407	0,616	328,874	168,749
77,422	0,422	328,753	168,453
78,436	0,704	328,346	168,546
79,451	0,734	328,189	168,484
80,466	0,510	327,900	168,071
81,480	0,152	327,507	167,453
82,495	0,189	327,190	167,317
83,509	0,286	327,190	167,410
84,524	0,110	326,835	167,019
85,539	0,159	326,531	166,903
86,553	0,011	326,360	166,635
87,568	0,089	326,221	166,637
88,582	0,166	325,969	166,579
89,597	0,087	325,774	166,376
90,611	0,369	325,570	166,571
91,626	0,431	325,302	166,488
92,641	0,519	325,117	166,476
93,655	0,440	324,720	166,170
94,670	0,262	324,583	165,888
95,684	0,253	324,250	165,693
96,699	0,396	324,069	165,744
97,714	0,177	323,868	165,384
98,728	0,256	323,535	165,287
99,743	-0,074	323,245	164,760
100,757	0,064	323,034	164,789
101,772	0,229	322,813	164,844
102,787	0,261	322,602	164,756
103,801	0,172	322,535	164,610
104,816	0,409	322,241	164,706
105,830	0,581	322,159	164,838
106,845	0,612	321,902	164,726
107,860	0,466	321,551	164,372
108,874	0,379	321,448	164,209
109,889	0,433	321,092	164,071
110,903	0,149	321,004	163,701
111,918	0,312	320,666	163,692
112,933	0,379	320,498	163,665
113,947	0,516	320,322	163,710
114,962	0,342	320,138	163,412
115,976	0,287	319,922	163,226
116,991	0,518	319,533	163,265
118,006	0,686	319,238	163,282
119,020	0,533	319,191	163,077
120,035	0,537	319,115	163,029
121,049	0,516	318,899	162,881
122,064	0,629	318,504	162,787
123,079	0,470	318,257	162,474
124,093	0,281	317,936	162,091
125,108	0,149	317,828	161,879
126,122	0,081	317,329	161,537
127,137	-0,148	317,154	161,186
128,151	-0,016	316,946	161,209
129,166	0,099	316,919	161,305
130,181	0,264	316,445	161,226
131,195	0,010	316,174	160,801
132,210	0,287	316,141	161,068
133,224	0,415	316,001	161,119
134,239	0,537	315,834	161,150
135,254	0,576	315,580	161,048
136,268	0,426	315,259	160,709
137,283	0,081	315,005	160,197
138,297	-0,071	314,718	159,874
139,312	0,152	314,415	159,943
140,327	0,406	314,241	160,112
141,341	0,773	314,318	160,529
142,356	0,728	314,304	160,460
143,370	0,968	313,886	160,487
144,385	0,836	313,818	160,298
145,400	0,811	313,536	160,114
146,414	0,752	313,268	159,900
147,429	0,750	312,973	159,732
148,443	0,796	312,886	159,722
149,458	0,785	312,610	159,556
150,473	0,856	312,450	159,535
151,487	0,640	312,329	159,230
152,502	0,717	312,090	159,175
153,516	0,878	311,693	159,130
154,531	0,784	311,629	158,983
155,546	0,894	311,320	158,927
156,560	0,712	310,930	158,522
157,575	0,689	310,796	158,415
158,589	0,826	310,592	158,442
159,604	0,809	310,420	158,322
160,619	0,821	310,157	158,186
161,633	0,773	309,892	157,987
162,648	0,626	309,884	157,814
163,662	0,958	309,717	158,063
164,677	0,865	309,361	157,771
165,692	0,877	309,241	157,707
166,706	0,710	309,036	157,413
167,721	0,742	308,873	157,350
168,735	0,781	308,629	157,252
169,750	0,838	308,620	157,294
170,764	0,909	308,380	157,232
171,779	0,966	308,223	157,197
172,794	0,987	308,027	157,105
173,808	0,758	307,714	156,692
174,823	0,511	307,085	156,101
175,837	-0,008	307,134	155,572
176,852	0,715	306,982	156,233
177,867	0,865	306,869	156,318
178,881	0,985	306,749	156,367
179,896	1,055	306,506	156,302
180,910	0,970	306,347	156,119
181,925	0,881	306,076	155,875
182,940	1,015	305,771	155,844
183,954	0,933	305,741	155,731
184,969	1,000	305,530	155,678
185,983	0,791	305,196	155,278
186,998	0,811	305,030	155,201
188,013	0,868	304,735	155,095
189,027	0,956	304,738	155,173
190,042	0,839	304,447	154,891
191,056	1,049	304,208	154,972
192,071	0,995	304,235	154,916
193,086	1,255	303,952	155,025
194,100	1,009	303,678	154,619
195,115	1,040	303,360	154,476
196,129	0,830	303,279	154,206
197,144	1,035	302,983	154,251
198,159	1,206	302,846	154,343
199,173	1,149	302,696	154,194
200,188	1,282	302,323	154,126
201,202	0,798	302,049	153,479
202,217	0,270	301,765	152,782
203,232	0,351	301,408	152,670
204,246	0,682	301,372	152,976
205,261	0,834	301,339	153,099
206,275	1,004	301,303	153,241
207,290	1,063	301,036	153,152
208,304	0,849	300,968	152,886
209,319	0,913	300,650	152,775
210,334	1,135	300,216	152,766
211,348	1,003	299,975	152,496
212,363	1,000	299,992	152,488
213,377	1,146	299,784	152,517
214,392	1,027	299,649	152,315
215,407	0,754	299,276	151,836
216,421	0,660	299,036	151,605
217,436	0,555	298,896	151,415
218,450	0,816	298,595	151,511
219,465	0,978	298,619	151,673
220,480	0,996	298,410	151,572
221,494	0,960	298,110	151,370
222,509	0,863	297,930	151,168
223,523	1,052	297,944	151,351
224,538	1,264	297,666	151,409
225,553	1,170	297,513	151,223
226,567	1,093	297,276	151,012
227,582	1,241	297,061	151,038
228,596	1,220	296,934	150,938
229,611	1,248	296,861	150,917
230,626	1,106	296,642	150,649
231,640	0,750	296,196	150,054
232,655	0,282	295,772	149,360
233,669	0,182	295,723	149,222
234,684	0,227	295,517	149,149
235,699	0,358	295,267	149,140
236,713	0,319	295,234	149,072
237,728	0,504	295,045	149,147
238,742	0,684	295,025	149,302
239,757	0,965	294,844	149,476
240,772	1,140	294,613	149,520
241,786	1,070	294,430	149,344
242,801	0,749	294,056	148,823
243,815	0,545	293,963	148,561
244,830	0,795	293,703	148,664
245,844	0,789	293,286	148,433
246,859	0,706	293,324	148,357
247,874	0,535	293,065	148,044
248,888	0,792	292,788	148,144
249,903	1,016	292,867	148,391
250,917	1,005	292,855	148,362
251,932	1,138	292,802	148,453
252,947	1,896	292,761	149,165
253,961	2,027	292,424	149,109
254,976	1,896	292,492	149,001
255,990	3,431	292,716	150,612
257,005	3,809	292,869	151,049
258,020	4,516	292,980	151,787
259,034	4,412	292,697	151,525
260,049	4,100	292,522	151,114
261,063	3,894	292,163	150,714
262,078	4,472	292,166	151,268
263,093	5,126	292,067	151,844
264,107	4,924	292,010	151,603
265,122	5,016	291,790	151,564
266,136	5,075	291,735	151,581
267,151	5,043	291,389	151,357
268,166	4,907	291,250	151,138
269,180	4,784	290,892	150,818
270,195	4,699	290,864	150,708
271,209	4,672	290,721	150,594
272,224	4,825	290,236	150,478
273,239	4,592	290,071	150,153
274,253	4,736	290,007	150,246
275,268	5,228	289,999	150,706
276,282	4,914	289,796	150,283
277,297	5,163	289,600	150,409
278,312	5,123	289,554	150,332
279,326	5,059	289,104	150,024
280,341	4,859	289,052	149,790
281,355	4,641	288,711	149,390
282,370	4,620	288,374	149,181
283,384	4,572	288,306	149,087
284,399	4,815	288,229	149,268
285,414	4,909	288,095	149,276
286,428	4,631	287,750	148,816
287,443	4,298	287,523	148,365
288,457	4,325	287,282	148,253
289,472	4,302	287,095	148,121
290,487	4,496	287,028	148,260
291,501	4,297	286,734	147,905
292,516	4,203	286,425	147,642
293,530	4,108	286,352	147,500
294,545	4,359	286,255	147,677
295,560	4,535	286,040	147,722
296,574	4,254	285,913	147,374
297,589	4,355	285,723	147,359
298,603	4,861	285,672	147,803
299,618	5,038	285,377	147,806
300,633	4,679	285,267	147,393
301,647	4,675	285,153	147,318
302,662	4,706	284,936	147,222
303,676	4,628	284,671	146,998
304,691	4,178	284,325	146,379
305,706	4,182	284,241	146,326
306,720	4,283	283,850	146,208
307,735	4,020	283,668	145,851
308,749	4,544	283,603	146,301
309,764	4,526	283,361	146,147
310,779	4,254	283,284	145,837
311,793	4,262	282,862	145,614
312,808	4,261	282,655	145,493
313,822	4,231	282,677	145,464
314,837	4,472	282,292	145,480
315,852	4,092	282,156	145,038
316,866	4,153	282,087	145,047
317,881	4,241	282,010	145,077
318,895	4,269	281,774	144,969
319,910	4,158	281,541	144,732
320,925	4,067	281,290	144,505
321,939	4,139	281,275	144,552
322,954	4,399	281,023	144,653
323,968	4,377	281,088	144,653
324,983	4,468	280,931	144,645
325,997	4,555	280,546	144,515
327,012	4,539	280,548	144,488
328,027	4,497	280,150	144,231
329,041	4,508	279,985	144,144
330,056	4,618	279,842	144,160
331,070	4,490	279,617	143,911
332,085	4,422	279,432	143,740
333,100	4,330	279,430	143,641
334,114	4,496	278,969	143,545
335,129	4,313	278,934	143,345
336,143	4,429	278,758	143,349
337,158	4,786	278,711	143,644
338,173	4,594	278,424	143,305
339,187	4,518	278,267	143,141
340,202	4,418	278,085	142,942
341,216	4,446	277,951	142,886
342,231	4,645	277,772	142,965
343,246	4,452	277,580	142,676
344,260	4,413	277,444	142,556
345,275	4,479	277,327	142,545
346,289	4,884	277,238	142,860
347,304	4,726	277,075	142,617
348,319	4,701	276,632	142,354
349,333	4,607	276,405	142,137
350,348	4,806	276,429	142,321
351,362	4,762	276,379	142,241
352,377	4,615	276,263	142,034
353,392	4,708	275,991	141,968
354,406	4,961	275,794	142,085
355,421	190,825	1337,444	1414,078
356,435	154,204	1466,920	1414,249
