DTS Sentinel unit serial number:	SN410029Multiplexer serial number:	ORYXHardware model number:	OX2-SRSoftware version number:	ORYX F/W v4,00 Oryx Data Collector v3.7.2.0data status	okinstallation	B4 Nyhavnadifferential loss correction	single-endedforward channel	channel 2reverse channel	N/Adate	2023/12/16time	04:40:13forward acquisition time	300,00reverse acquisition time	0,00gamma	499,1914k internal	0,3128k external	0,3128temperature offset calibration	1,0000default loss term (dB/km)	0,3820temperature slope calibration	1,0000multiplexer offset coefficient	1,0000multiplexer slope coefficient	1,0000fibre end	0,00T internal ref (°C)	22,00T ext. ref 1 (°C)	7,19T ext. ref 2 (°C)	7,39length (m)	temperature (°C)	Stokes	anti-Stokes-744,400	46,453	0,059	0,041
-743,385	-111,318	-0,205	-0,031
-742,371	-3,937	0,051	0,026
-741,356	277,475	-0,046	0,061
-740,342	800,000	0,039	-0,084
-739,327	-87,641	-0,182	0,041
-738,312	-200,000	-0,002	0,018
-737,298	-153,114	-0,198	0,010
-736,283	165,812	0,071	0,075
-735,269	9,630	-0,212	0,119
-734,254	74,793	0,083	-0,065
-733,239	-60,071	-0,319	-0,101
-732,225	-113,140	0,186	0,027
-731,210	-68,608	-0,109	0,031
-730,196	493,348	-0,048	-0,082
-729,181	152,024	-0,069	-0,070
-728,167	-25,584	0,147	-0,064
-727,152	-187,562	0,035	0,000
-726,137	342,443	-0,018	-0,026
-725,123	442,206	0,067	-0,109
-724,108	-42,099	-0,151	-0,057
-723,094	12,075	-0,093	0,053
-722,079	-76,150	-0,051	0,013
-721,064	-119,293	0,039	-0,005
-720,050	-200,000	-0,016	-0,095
-719,035	377,197	0,009	0,014
-718,021	143,384	-0,138	-0,136
-717,006	-200,000	-0,008	-0,031
-715,991	146,684	-0,092	-0,092
-714,977	-65,764	-0,147	-0,043
-713,962	800,000	0,026	-0,068
-712,948	-200,000	0,056	0,251
-711,933	701,054	-0,059	0,115
-710,918	-70,511	-0,113	-0,032
-709,904	-200,000	0,012	-0,079
-708,889	800,000	-0,081	-0,242
-707,875	-200,000	0,030	-0,191
-706,860	-158,012	0,032	-0,001
-705,845	-200,000	-0,009	-0,062
-704,831	508,847	0,025	0,044
-703,816	-3,421	0,118	-0,061
-702,802	-200,000	-0,011	0,086
-701,787	-51,647	-0,064	-0,022
-700,772	118,030	0,030	0,028
-699,758	800,000	-0,102	0,255
-698,743	-153,716	0,045	-0,002
-697,729	549,573	-0,022	-0,039
-696,714	-200,000	0,023	0,103
-695,699	-78,410	-0,087	0,022
-694,685	126,272	-0,094	-0,088
-693,670	139,078	-0,105	-0,103
-692,656	-128,302	0,119	-0,012
-691,641	800,000	-0,038	0,103
-690,627	167,957	-0,048	0,051
-689,612	-51,926	0,063	-0,022
-688,597	3,374	-0,101	-0,055
-687,583	-89,010	0,080	0,018
-686,568	195,469	-0,096	-0,109
-685,554	-111,825	-0,117	0,017
-684,539	-1,657	0,150	0,078
-683,524	800,000	-0,016	0,034
-682,510	800,000	0,011	0,025
-681,495	88,325	-0,040	-0,033
-680,481	541,719	-0,096	-0,171
-679,466	-145,207	0,032	0,002
-678,451	-72,829	0,093	-0,025
-677,437	633,388	-0,052	-0,099
-676,422	-127,820	-0,045	0,005
-675,408	-200,000	-0,035	0,148
-674,393	-71,223	0,085	0,023
-673,378	7,852	0,049	0,027
-672,364	-200,000	-0,120	0,000
-671,349	800,000	0,028	-0,067
-670,335	-67,397	0,020	0,006
-669,320	800,000	-0,028	0,064
-668,305	-200,000	0,006	0,121
-667,291	-200,000	0,016	-0,084
-666,276	-109,766	-0,076	-0,012
-665,262	69,103	-0,105	-0,080
-664,247	16,105	-0,080	-0,047
-663,232	-16,678	-0,065	0,031
-662,218	-167,823	0,154	-0,004
-661,203	124,458	0,045	-0,042
-660,189	725,316	0,045	-0,090
-659,174	800,000	-0,083	0,172
-658,159	21,094	-0,144	-0,087
-657,145	800,000	-0,031	0,069
-656,130	371,972	-0,082	-0,123
-655,116	800,000	0,034	-0,104
-654,101	-200,000	0,001	0,035
-653,086	22,419	0,074	0,045
-652,072	-56,825	-0,055	-0,018
-651,057	139,396	-0,056	-0,055
-650,043	-29,880	-0,184	-0,077
-649,028	-43,966	-0,119	-0,044
-648,014	67,136	0,093	-0,071
-646,999	122,322	-0,096	-0,089
-645,984	109,029	0,042	-0,037
-644,970	-77,185	-0,081	0,021
-643,955	-22,780	0,116	0,052
-642,941	-49,175	-0,064	-0,023
-641,926	-200,000	0,004	-0,084
-640,911	-1,545	-0,068	-0,035
-639,897	-119,273	0,105	-0,013
-638,882	-200,000	-0,006	-0,041
-637,868	-89,193	0,043	0,009
-636,853	-200,000	0,000	0,034
-635,838	221,974	-0,212	-0,254
-634,824	-140,710	-0,049	0,004
-633,809	10,748	-0,075	-0,042
-632,795	527,857	0,029	0,051
-631,780	800,000	0,024	-0,057
-630,765	116,030	-0,108	0,098
-629,751	64,980	-0,098	-0,073
-628,736	559,926	0,056	-0,100
-627,722	58,888	0,051	0,037
-626,707	-146,187	-0,130	0,008
-625,692	300,798	0,056	0,077
-624,678	393,821	0,021	-0,033
-623,663	12,596	-0,101	-0,057
-622,649	-119,562	-0,149	-0,019
-621,634	800,000	-0,011	-0,030
-620,619	-128,324	-0,213	-0,022
-619,605	800,000	-0,061	-0,170
-618,590	143,791	0,155	0,153
-617,576	-8,446	-0,043	0,021
-616,561	-200,000	-0,009	0,080
-615,546	80,489	-0,120	-0,096
-614,532	800,000	-0,040	-0,088
-613,517	15,059	-0,073	-0,042
-612,503	-200,000	-0,004	0,150
-611,488	-200,000	-0,019	0,140
-610,474	-200,000	0,004	0,147
-609,459	58,688	-0,039	-0,028
-608,444	741,104	0,040	-0,080
-607,430	-65,763	-0,076	0,022
-606,415	-200,000	-0,031	-0,251
-605,401	161,683	0,079	-0,082
-604,386	-200,000	-0,036	0,124
-603,371	-154,491	0,102	0,005
-602,357	159,670	0,084	0,086
-601,342	236,836	-0,106	0,131
-600,328	-200,000	-0,028	-0,102
-599,313	150,169	0,048	-0,049
-598,298	-200,000	-0,003	0,060
-597,284	63,631	-0,077	0,057
-596,269	800,000	0,028	0,077
-595,255	-83,258	0,044	0,010
-594,240	-200,000	0,017	-0,078
-593,225	-33,513	-0,082	-0,033
-592,211	-161,256	-0,124	0,005
-591,196	-93,919	-0,055	0,011
-590,182	27,396	0,108	-0,067
-589,167	389,777	0,045	0,069
-588,152	34,938	0,091	0,059
-587,138	12,160	-0,201	-0,114
-586,123	-200,000	0,003	0,023
-585,109	-61,107	0,121	-0,038
-584,094	-44,814	-0,145	-0,053
-583,079	-76,344	0,031	0,008
-582,065	-59,759	-0,170	0,053
-581,050	-83,360	0,131	0,031
-580,036	527,274	-0,030	-0,052
-579,021	137,090	-0,040	-0,039
-578,006	-200,000	0,022	-0,080
-576,992	-200,000	-0,001	0,109
-575,977	187,672	0,042	-0,046
-574,963	-200,000	0,009	0,058
-573,948	119,715	-0,163	-0,149
-572,934	416,569	0,078	0,124
-571,919	384,398	-0,061	-0,093
-570,904	146,090	-0,075	-0,074
-569,890	-120,493	0,063	-0,008
-568,875	-22,369	0,104	0,047
-567,861	-28,566	0,045	0,019
-566,846	-200,000	0,007	-0,069
-565,831	193,091	-0,013	-0,015
-564,817	-141,356	-0,083	0,006
-563,802	19,448	0,131	-0,078
-562,788	135,935	-0,094	0,091
-561,773	-200,000	-0,002	0,062
-560,758	-137,254	0,070	0,006
-559,744	-141,497	0,042	0,003
-558,729	-200,000	0,015	0,124
-557,715	71,119	-0,061	-0,047
-556,700	524,093	0,027	0,047
-555,685	442,101	0,025	0,041
-554,671	-7,843	-0,061	-0,030
-553,656	-83,946	0,085	-0,020
-552,642	-200,000	0,029	0,097
-551,627	-15,441	-0,028	-0,013
-550,612	53,309	0,044	-0,031
-549,598	-78,607	-0,107	-0,027
-548,583	-152,867	0,057	-0,003
-547,569	92,840	0,093	0,078
-546,554	144,629	0,065	0,064
-545,539	-200,000	0,002	0,029
-544,525	14,869	-0,072	0,042
-543,510	157,819	-0,103	-0,105
-542,496	-138,324	0,036	0,003
-541,481	217,220	0,068	-0,080
-540,466	35,127	0,056	-0,036
-539,452	145,583	-0,026	0,026
-538,437	18,784	0,171	0,101
-537,423	-200,000	-0,005	0,082
-536,408	212,635	-0,041	-0,047
-535,393	-71,349	0,121	0,033
-534,379	800,000	0,039	0,091
-533,364	107,990	-0,052	0,046
-532,350	-48,209	-0,057	0,020
-531,335	-141,496	-0,125	0,009
-530,321	191,206	-0,071	-0,079
-529,306	325,174	-0,061	-0,086
-528,291	61,643	0,062	-0,045
-527,277	-15,408	-0,132	0,062
-526,262	176,439	0,044	-0,048
-525,248	-200,000	0,016	0,073
-524,233	-104,653	0,226	0,038
-523,218	301,672	0,056	0,077
-522,204	-66,431	-0,048	0,014
-521,189	94,647	0,077	-0,065
-520,175	151,137	-0,088	-0,089
-519,160	800,000	-0,035	-0,090
-518,145	51,423	0,075	-0,053
-517,131	143,730	0,024	0,024
-516,116	-200,000	-0,004	0,043
-515,102	-33,387	0,074	-0,030
-514,087	-200,000	-0,013	-0,093
-513,072	-200,000	-0,017	-0,174
-512,058	-200,000	-0,033	-0,139
-511,043	-126,547	0,152	-0,016
-510,029	339,686	-0,055	-0,079
-509,014	-200,000	0,000	-0,011
-507,999	0,893	0,136	0,072
-506,985	-49,687	-0,069	0,024
-505,970	32,195	-0,062	-0,039
-504,956	592,776	-0,108	-0,197
-503,941	571,379	0,024	-0,043
-502,926	-71,173	0,089	-0,024
-501,912	209,198	0,019	-0,022
-500,897	265,008	-0,099	-0,128
-499,883	675,221	0,023	0,044
-498,868	800,000	0,029	-0,070
-497,853	200,277	-0,051	-0,058
-496,839	66,791	-0,051	0,039
-495,824	144,750	-0,137	0,135
-494,810	-68,039	0,125	0,036
-493,795	393,918	0,065	0,100
-492,781	45,371	-0,057	0,039
-491,766	-200,000	0,026	0,183
-490,751	-141,672	-0,069	-0,005
-489,737	-200,000	-0,023	-0,098
-488,722	12,838	-0,015	-0,009
-487,708	-91,513	0,168	-0,035
-486,693	-29,842	0,108	-0,045
-485,678	216,959	-0,160	-0,188
-484,664	-10,319	0,051	0,025
-483,649	588,284	-0,054	0,099
-482,635	-111,037	-0,046	0,007
-481,620	-200,000	0,013	0,183
-480,605	800,000	-0,055	0,127
-479,591	-163,210	0,106	-0,004
-478,576	278,480	-0,069	-0,091
-477,562	-200,000	0,050	0,000
-476,547	-200,000	-0,009	-0,104
-475,532	800,000	-0,022	-0,057
-474,518	389,190	-0,000	0,000
-473,503	50,000	0,008	0,005
-472,489	90,608	0,154	0,127
-471,474	73,495	0,028	0,022
-470,459	-200,000	-0,015	-0,065
-469,445	13,104	0,049	-0,028
-468,430	-200,000	0,027	0,109
-467,416	-200,000	-0,004	0,105
-466,401	-200,000	0,000	-0,059
-465,386	-200,000	-0,018	0,111
-464,372	37,595	0,047	0,030
-463,357	36,149	0,036	-0,024
-462,343	800,000	-0,062	0,135
-461,328	-200,000	-0,040	0,186
-460,313	-200,000	0,007	-0,061
-459,299	-200,000	0,004	-0,045
-458,284	539,052	0,074	0,130
-457,270	79,581	0,089	0,071
-456,255	-200,000	-0,004	-0,060
-455,241	335,866	0,011	-0,015
-454,226	14,308	-0,084	-0,048
-453,211	-200,000	0,004	-0,209
-452,197	-122,452	-0,029	-0,003
-451,182	-122,321	-0,042	0,005
-450,168	800,000	0,058	0,133
-449,153	800,000	0,048	-0,118
-448,138	800,000	-0,016	-0,038
-447,124	74,742	-0,037	0,029
-446,109	341,629	0,056	0,080
-445,095	113,051	-0,093	0,083
-444,080	-61,883	0,009	0,003
-443,065	-200,000	0,007	-0,048
-442,051	-200,000	-0,034	-0,158
-441,036	42,386	-0,132	-0,088
-440,022	800,000	-0,017	-0,039
-439,007	-130,689	0,150	-0,015
-437,992	146,998	-0,026	0,026
-436,978	108,442	0,097	0,085
-435,963	-19,553	0,085	0,039
-434,949	800,000	-0,030	-0,080
-433,934	3,100	0,105	-0,056
-432,919	-200,000	0,012	0,064
-431,905	163,720	-0,075	0,077
-430,890	25,759	0,112	0,068
-429,876	1,720	-0,040	0,021
-428,861	-37,899	-0,056	-0,022
-427,846	788,547	-0,041	-0,084
-426,832	-200,000	0,016	-0,059
-425,817	800,000	-0,037	-0,082
-424,803	199,665	0,070	-0,079
-423,788	-149,158	-0,147	-0,008
-422,773	-200,000	-0,013	0,090
-421,759	723,334	0,054	0,106
-420,744	800,000	-0,032	-0,079
-419,730	800,000	0,020	-0,060
-418,715	800,000	-0,018	-0,045
-417,701	-71,557	0,066	-0,018
-416,686	-72,771	0,082	-0,022
-415,671	-8,988	0,101	0,050
-414,657	290,908	0,028	0,037
-413,642	220,936	-0,061	-0,072
-412,628	-109,753	0,071	0,011
-411,613	22,674	-0,082	-0,049
-410,598	170,049	0,113	-0,119
-409,584	0,495	0,069	0,036
-408,569	-50,535	0,129	-0,045
-407,555	800,000	0,008	-0,023
-406,540	-200,000	0,008	-0,153
-405,525	568,225	-0,036	0,065
-404,511	57,161	-0,042	0,030
-403,496	-200,000	-0,012	0,048
-402,482	-200,000	-0,016	0,069
-401,467	33,758	0,048	-0,030
-400,452	621,852	0,037	-0,069
-399,438	-200,000	0,011	-0,094
-398,423	-12,584	-0,103	-0,049
-397,409	114,923	0,035	0,031
-396,394	-51,991	0,085	-0,029
-395,379	-77,059	-0,178	0,045
-394,365	-11,113	0,075	0,036
-393,350	-0,363	0,137	0,071
-392,336	72,360	-0,089	-0,068
-391,321	-200,000	0,014	0,104
-390,306	-200,000	-0,016	0,078
-389,292	-20,497	0,108	0,049
-388,277	221,968	0,053	-0,062
-387,263	-19,531	0,190	-0,086
-386,248	-10,344	-0,108	0,052
-385,233	-28,705	-0,058	0,025
-384,219	99,358	-0,034	-0,029
-383,204	-124,386	-0,092	0,010
-382,190	-200,000	-0,015	-0,125
-381,175	29,463	0,075	-0,046
-380,160	238,735	-0,016	-0,019
-379,146	625,591	-0,036	0,067
-378,131	800,000	-0,041	-0,115
-377,117	-119,606	-0,071	0,009
-376,102	-42,100	0,038	0,014
-375,088	-200,000	0,017	-0,057
-374,073	380,437	-0,024	-0,036
-373,058	2,611	0,119	-0,063
-372,044	177,078	-0,048	-0,051
-371,029	181,198	-0,052	0,057
-370,015	-90,837	0,165	0,035
-369,000	135,168	0,041	-0,039
-367,985	-80,599	0,079	0,019
-366,971	-200,000	0,092	0,000
-365,956	67,450	0,091	-0,068
-364,942	-104,716	0,087	0,015
-363,927	-78,829	0,085	-0,021
-362,912	119,311	-0,122	0,111
-361,898	84,663	-0,082	-0,065
-360,883	587,694	0,044	-0,079
-359,869	800,000	-0,029	-0,076
-358,854	-200,000	-0,012	0,101
-357,839	-3,930	-0,036	-0,018
-356,825	178,693	0,080	0,085
-355,810	487,495	-0,056	-0,094
-354,796	105,099	0,025	0,021
-353,781	-13,488	0,081	-0,038
-352,766	472,281	-0,070	-0,117
-351,752	-16,194	0,054	-0,025
-350,737	800,000	0,045	0,104
-349,723	-84,350	0,099	0,023
-348,708	590,225	0,030	0,055
-347,693	213,520	0,024	-0,028
-346,679	562,753	-0,102	-0,182
-345,664	800,000	0,083	-0,188
-344,650	-166,876	0,024	-0,001
-343,635	-198,427	0,162	0,001
-342,620	251,294	-0,048	-0,060
-341,606	244,075	-0,081	0,100
-340,591	800,000	0,043	-0,130
-339,577	-123,921	-0,092	0,010
-338,562	-200,000	0,022	-0,100
-337,548	-26,748	0,112	-0,048
-336,533	39,665	0,018	-0,012
-335,518	-200,000	0,048	0,178
-334,504	-124,477	0,086	0,010
-333,489	70,230	-0,089	-0,067
-332,475	260,760	-0,068	0,086
-331,460	-135,791	0,177	-0,015
-330,445	240,750	-0,064	0,079
-329,431	-25,776	0,178	-0,077
-328,416	-200,000	-0,003	-0,064
-327,402	-200,000	-0,007	0,144
-326,387	800,000	0,054	0,115
-325,372	627,810	-0,097	0,180
-324,358	-111,089	-0,085	-0,013
-323,343	162,312	-0,122	0,125
-322,329	-102,173	0,145	0,025
-321,314	193,963	-0,078	0,087
-320,299	-8,724	0,098	0,048
-319,285	800,000	-0,029	0,086
-318,270	122,186	-0,037	-0,034
-317,256	-53,246	-0,167	-0,056
-316,241	-140,153	0,138	-0,010
-315,226	229,661	0,110	0,131
-314,212	583,098	0,067	0,121
-313,197	128,981	-0,124	0,116
-312,183	225,785	-0,044	0,052
-311,168	-200,000	0,010	-0,050
-310,153	36,958	0,073	0,047
-309,139	231,362	-0,057	-0,068
-308,124	93,075	0,027	-0,022
-307,110	-17,880	0,062	0,029
-306,095	-200,000	0,039	0,185
-305,080	-112,692	-0,047	0,007
-304,066	-200,000	0,012	0,060
-303,051	-143,374	-0,120	-0,008
-302,037	-54,674	0,042	-0,014
-301,022	488,248	0,040	-0,067
-300,008	-200,000	0,002	0,134
-298,993	207,643	-0,036	0,041
-297,978	726,037	-0,028	0,054
-296,964	664,213	-0,053	-0,100
-295,949	94,075	-0,085	0,071
-294,935	-80,888	-0,139	0,033
-293,920	-55,078	-0,028	0,009
-292,905	800,000	-0,015	0,039
-291,891	50,833	-0,090	0,062
-290,876	-200,000	0,009	0,051
-289,862	-25,112	-0,065	0,028
-288,847	687,588	-0,040	-0,077
-287,832	-96,393	0,083	0,016
-286,818	800,000	0,038	-0,078
-285,803	150,746	-0,046	0,046
-284,789	-19,566	-0,166	0,075
-283,774	-102,038	0,083	0,015
-282,759	251,308	-0,024	-0,030
-281,745	-85,412	0,166	-0,038
-280,730	-200,000	-0,028	-0,091
-279,716	-8,539	-0,104	-0,051
-278,701	-200,000	0,002	-0,012
-277,686	36,581	-0,013	0,009
-276,672	-4,326	0,104	0,052
-275,657	276,313	0,065	-0,084
-274,643	104,898	-0,067	-0,057
-273,628	202,728	-0,062	-0,070
-272,613	354,405	0,083	-0,121
-271,599	-200,000	0,016	0,124
-270,584	-134,453	-0,084	-0,007
-269,570	86,900	0,057	0,046
-268,555	-150,075	-0,104	-0,006
-267,540	107,426	0,032	0,028
-266,526	800,000	0,044	-0,090
-265,511	-200,000	-0,028	-0,097
-264,497	-140,948	-0,014	-0,001
-263,482	79,084	0,039	0,031
-262,467	93,807	0,101	0,084
-261,453	334,845	-0,058	-0,083
-260,438	378,539	-0,036	0,054
-259,424	-68,694	0,146	-0,041
-258,409	800,000	0,010	-0,032
-257,395	-200,000	-0,001	-0,021
-256,380	800,000	0,090	0,183
-255,365	-200,000	-0,026	0,111
-254,351	422,042	0,043	0,068
-253,336	502,436	-0,012	-0,021
-252,322	-200,000	0,005	0,113
-251,307	207,535	0,059	-0,068
-250,292	-200,000	0,027	0,115
-249,278	800,000	-0,069	-0,163
-248,263	800,000	0,015	0,042
-247,249	-200,000	-0,035	0,140
-246,234	-200,000	0,011	0,069
-245,219	137,081	0,030	-0,028
-244,205	-166,825	-0,092	0,003
-243,190	732,100	-0,059	0,117
-242,176	3,162	0,125	0,066
-241,161	-200,000	-0,012	-0,095
-240,146	503,695	0,032	0,054
-239,132	-5,465	-0,130	0,065
-238,117	93,035	0,034	0,028
-237,103	-200,000	0,001	0,064
-236,088	-200,000	0,002	-0,155
-235,073	-51,628	-0,063	-0,021
-234,059	-45,582	-0,058	0,021
-233,044	-55,639	0,170	-0,055
-232,030	-163,398	-0,019	0,001
-231,015	-200,000	0,029	-0,197
-230,000	569,483	-0,008	-0,014
-228,986	-199,167	0,012	0,000
-227,971	-51,994	0,078	-0,026
-226,957	-54,194	0,045	0,015
-225,942	-39,825	0,073	-0,028
-224,927	50,937	-0,071	0,049
-223,913	800,000	-0,013	-0,040
-222,898	-200,000	-0,006	-0,090
-221,884	-69,831	-0,121	-0,033
-220,869	28,640	0,108	0,066
-219,855	-128,141	-0,040	-0,004
-218,840	-200,000	0,002	0,016
-217,825	-149,295	0,047	-0,003
-216,811	-200,000	0,000	-0,072
-215,796	800,000	-0,034	-0,097
-214,782	-54,740	-0,098	-0,032
-213,767	250,864	0,022	-0,028
-212,752	58,060	-0,093	0,067
-211,738	800,000	0,041	0,114
-210,723	105,360	-0,088	0,076
-209,709	-52,394	-0,069	0,023
-208,694	-142,403	-0,011	0,001
-207,679	686,470	-0,054	0,103
-206,665	-200,000	0,029	-0,182
-205,650	124,518	0,044	0,040
-204,636	-93,384	0,178	0,036
-203,621	-106,487	-0,113	-0,018
-202,606	-200,000	-0,004	0,058
-201,592	-9,184	-0,113	-0,055
-200,577	-37,367	0,100	0,039
-199,563	257,565	-0,069	0,086
-198,548	679,216	-0,043	0,083
-197,533	178,521	-0,046	-0,049
-196,519	10,999	0,074	-0,041
-195,504	-200,000	0,008	0,044
-194,490	419,970	0,050	-0,079
-193,475	800,000	0,060	0,146
-192,460	120,175	-0,035	-0,032
-191,446	-31,529	-0,034	0,014
-190,431	800,000	-0,046	0,094
-189,417	107,342	-0,033	0,029
-188,402	619,866	0,018	-0,033
-187,387	-80,874	0,088	0,021
-186,373	143,616	-0,133	-0,129
-185,358	800,000	0,019	0,044
-184,344	-74,935	0,061	0,016
-183,329	97,900	-0,019	0,016
-182,315	-83,383	-0,088	0,020
-181,300	-55,407	-0,150	0,049
-180,285	-80,597	-0,055	0,013
-179,271	-104,280	-0,170	-0,028
-178,256	-200,000	-0,030	-0,099
-177,242	-200,000	0,017	0,132
-176,227	-200,000	0,043	0,150
-175,212	168,127	-0,049	-0,051
-174,198	-70,169	-0,082	0,022
-173,183	-200,000	-0,003	-0,030
-172,169	220,350	0,025	0,029
-171,154	345,398	-0,018	0,025
-170,139	-200,000	0,003	-0,042
-169,125	-184,274	-0,075	0,001
-168,110	33,368	0,080	-0,050
-167,096	-200,000	-0,007	0,041
-166,081	157,438	-0,037	-0,037
-165,066	234,698	-0,040	-0,048
-164,052	-107,907	0,159	0,025
-163,037	-25,071	0,057	0,025
-162,023	54,650	0,084	0,059
-161,008	137,247	0,044	0,042
-159,993	231,332	0,068	0,081
-158,979	-68,281	-0,199	-0,056
-157,964	-36,077	-0,074	0,029
-156,950	-34,626	0,066	-0,026
-155,935	800,000	0,027	-0,063
-154,920	-76,089	0,135	-0,034
-153,906	194,029	-0,026	0,028
-152,891	438,409	-0,054	0,086
-151,877	354,118	-0,103	-0,149
-150,862	-38,928	0,096	-0,036
-149,847	166,347	-0,020	-0,020
-148,833	-118,005	0,060	0,008
-147,818	32,526	0,078	-0,049
-146,804	187,775	-0,082	-0,089
-145,789	446,273	-0,044	0,070
-144,775	-200,000	0,002	0,012
-143,760	-60,117	0,113	0,035
-142,745	-200,000	-0,013	0,154
-141,731	-69,612	0,119	-0,033
-140,716	-169,013	0,109	-0,003
-139,702	-142,886	0,098	0,007
-138,687	-103,264	-0,090	-0,015
-137,672	118,863	-0,054	-0,049
-136,658	-200,000	0,003	-0,042
-135,643	134,801	-0,064	0,061
-134,629	-28,277	0,087	-0,036
-133,614	-106,745	-0,038	-0,006
-132,599	3,410	-0,048	-0,025
-131,585	800,000	0,017	0,053
-130,570	641,614	-0,042	0,079
-129,556	-60,636	0,153	0,047
-128,541	90,243	0,008	0,006
-127,526	-200,000	0,026	-0,116
-126,512	434,124	0,019	0,031
-125,497	394,831	-0,068	0,103
-124,483	36,961	-0,058	-0,037
-123,468	-94,975	-0,065	0,013
-122,453	-77,188	-0,110	-0,028
-121,439	-122,967	0,030	-0,004
-120,424	285,356	0,037	-0,049
-119,410	800,000	-0,017	0,042
-118,395	436,799	-0,072	0,114
-117,380	-45,084	-0,073	0,026
-116,366	343,655	-0,028	0,040
-115,351	323,864	-0,046	0,064
-114,337	178,706	0,008	0,008
-113,322	32,108	-0,103	0,064
-112,307	-139,610	0,143	-0,011
-111,293	-38,659	0,063	0,024
-110,278	497,090	-0,043	0,071
-109,264	171,118	0,075	0,078
-108,249	800,000	-0,035	-0,091
-107,234	-200,000	-0,046	-0,172
-106,220	-200,000	-0,001	0,088
-105,205	-86,303	0,124	0,027
-104,191	-164,559	-0,083	-0,003
-103,176	-130,993	-0,131	0,013
-102,162	-200,000	-0,006	0,087
-101,147	-200,000	-0,001	-0,072
-100,132	-6,005	0,029	-0,014
-99,118	-175,175	-0,118	0,002
-98,103	106,298	0,036	0,031
-97,089	-200,000	-0,019	0,081
-96,074	800,000	-0,030	0,070
-95,059	-53,746	-0,032	0,011
-94,045	673,517	0,042	-0,080
-93,030	-200,000	0,005	-0,064
-92,016	155,694	0,098	-0,098
-91,001	577,208	-0,023	-0,041
-89,986	36,307	-0,076	0,049
-88,972	-200,000	-0,015	0,061
-87,957	139,140	-0,093	-0,089
-86,943	-114,123	-0,034	0,005
-85,928	74,642	-0,046	-0,035
-84,913	-99,160	-0,028	0,005
-83,899	350,154	0,043	0,061
-82,884	-144,758	0,070	-0,005
-81,870	800,000	-0,049	0,122
-80,855	-200,000	-0,013	0,069
-79,840	800,000	-0,029	-0,077
-78,826	800,000	0,031	-0,093
-77,811	-200,000	-0,037	-0,325
-76,797	-24,940	0,042	-0,018
-75,782	171,834	-0,055	0,058
-74,767	340,223	0,036	0,051
-73,753	79,716	-0,083	0,064
-72,738	-11,134	-0,041	0,020
-71,724	242,269	-0,028	-0,035
-70,709	32,244	-0,039	0,024
-69,694	800,000	0,039	-0,124
-68,680	20,787	0,092	0,054
-67,665	178,849	-0,034	0,036
-66,651	-5,803	-0,071	0,035
-65,636	-200,000	0,013	0,111
-64,622	-200,000	-0,034	0,136
-63,607	800,000	-0,023	0,054
-62,592	-200,000	-0,006	-0,038
-61,578	409,954	0,026	-0,040
-60,563	175,800	0,090	-0,094
-59,549	-200,000	0,000	0,061
-58,534	-80,771	-1,295	-0,309
-57,519	800,000	-0,779	-1,631
-56,505	-200,000	-0,825	-4,427
-55,490	-52,020	0,436	-0,146
-54,476	800,000	4,781	11,444
-53,461	-200,000	13,999	252,176
-52,446	-200,000	692,943	2243,516
-51,432	583,619	1622,705	2898,237
-50,417	118,003	1631,847	1456,621
-49,403	73,981	1286,137	976,448
-48,388	37,779	1022,606	656,654
-47,373	24,072	980,879	584,886
-46,359	23,273	970,343	575,968
-45,344	22,250	966,052	570,064
-44,330	22,172	964,539	568,894
-43,315	22,112	962,921	567,724
-42,300	22,042	962,128	567,005
-41,286	22,058	961,217	566,498
-40,271	22,004	960,108	565,646
-39,257	22,046	959,138	565,188
-38,242	22,049	958,110	564,571
-37,227	22,011	957,514	564,073
-36,213	21,972	956,586	563,381
-35,198	22,013	955,752	562,998
-34,184	22,065	954,943	562,668
-33,169	21,982	954,166	561,920
-32,154	22,059	953,188	561,567
-31,140	22,118	952,216	561,163
-30,125	22,057	951,692	560,637
-29,111	22,048	950,736	560,022
-28,096	22,041	950,014	559,551
-27,082	22,070	949,377	559,247
-26,067	22,060	948,658	558,771
-25,052	22,018	947,742	558,074
-24,038	22,022	947,421	557,875
-23,023	21,991	946,836	557,410
-22,009	22,043	945,962	557,039
-20,994	22,038	945,371	556,653
-19,979	22,056	944,733	556,312
-18,965	22,044	944,075	555,864
-17,950	22,104	943,418	555,646
-16,936	22,017	942,842	555,009
-15,921	21,991	941,884	554,340
-14,906	21,907	941,486	553,816
-13,892	21,911	940,769	553,388
-12,877	21,918	940,191	553,046
-11,863	21,859	939,523	552,444
-10,848	21,887	939,063	552,240
-9,833	22,013	938,514	552,295
-8,819	21,939	937,915	551,687
-7,804	21,911	937,333	551,234
-6,790	21,955	936,526	550,878
-5,775	21,953	936,071	550,580
-4,760	21,929	935,491	550,143
-3,746	21,934	934,866	549,768
-2,731	21,771	934,211	548,848
-1,717	21,729	933,405	548,219
-0,702	21,722	932,726	547,779
0,313	21,523	932,164	547,648
1,327	24,102	929,645	554,207
2,342	31,996	807,610	502,787
3,356	27,159	508,057	308,044
4,371	2,882	372,740	195,243
5,386	-0,110	355,638	182,614
6,400	-1,599	349,355	177,582
7,415	-2,500	346,628	175,106
8,429	-2,702	345,078	174,067
9,444	-2,575	344,215	173,767
10,459	-2,483	343,388	173,442
11,473	-2,521	342,769	173,069
12,488	-2,425	342,441	173,001
13,502	-2,352	341,872	172,784
14,517	-2,313	341,325	172,539
15,531	-2,650	340,773	171,849
16,546	-2,676	340,418	171,624
17,561	-2,722	339,843	171,265
18,575	-2,406	339,442	171,417
19,590	-2,583	339,087	171,016
20,604	-2,541	338,712	170,861
21,619	-2,743	338,307	170,406
22,634	-2,579	337,881	170,367
23,648	-2,497	337,477	170,243
24,663	-2,429	337,283	170,209
25,677	-2,598	336,942	169,826
26,692	-2,640	336,678	169,629
27,707	-2,662	336,375	169,436
28,721	-2,577	336,049	169,354
29,736	-2,636	335,696	169,093
30,750	-2,777	335,459	168,797
31,765	-2,678	335,182	168,756
32,780	-2,655	334,951	168,651
33,794	-2,628	334,574	168,477
34,809	-2,809	334,568	168,251
35,823	-2,596	333,979	168,184
36,838	-2,761	333,748	167,863
37,853	-2,748	333,356	167,666
38,867	-2,669	333,203	167,665
39,882	-2,713	332,901	167,448
40,896	-2,777	332,714	167,266
41,911	-2,656	332,279	167,170
42,926	-2,744	332,065	166,947
43,940	-2,671	331,801	166,883
44,955	-2,720	331,439	166,631
45,969	-2,943	331,313	166,299
46,984	-2,885	330,987	166,185
47,999	-3,145	330,658	165,712
49,013	-3,225	330,412	165,482
50,028	-3,292	329,951	165,160
51,042	-3,457	329,803	164,884
52,057	-3,304	329,410	164,846
53,071	-3,239	329,215	164,808
54,086	-3,386	329,150	164,595
55,101	-3,139	328,798	164,683
56,115	-3,078	328,691	164,683
57,130	-2,630	328,432	165,043
58,144	-2,663	328,299	164,925
59,159	-2,496	328,004	164,949
60,174	-2,494	327,614	164,741
61,188	-2,514	327,487	164,640
62,203	-2,606	327,214	164,385
63,217	-2,575	327,012	164,303
64,232	-2,545	326,680	164,155
65,247	-2,521	326,584	164,119
66,261	-2,498	326,174	163,925
67,276	-2,823	325,883	163,401
68,290	-2,788	325,504	163,235
69,305	-2,915	325,446	163,050
70,320	-2,807	324,887	162,876
71,334	-2,617	324,707	162,982
72,349	-2,590	324,711	163,000
73,363	-2,399	324,306	162,994
74,378	-2,520	324,162	162,772
75,393	-2,571	323,978	162,609
76,407	-2,603	323,702	162,421
77,422	-2,452	323,253	162,348
78,436	-2,478	323,148	162,251
79,451	-2,438	322,862	162,138
80,466	-2,767	322,544	161,600
81,480	-2,722	322,237	161,483
82,495	-2,906	322,134	161,214
83,509	-2,828	321,845	161,140
84,524	-2,908	321,661	160,946
85,539	-3,074	321,398	160,617
86,553	-2,910	321,067	160,618
87,568	-2,821	320,757	160,545
88,582	-2,953	320,715	160,366
89,597	-2,916	320,319	160,194
90,611	-2,982	320,198	160,047
91,626	-2,666	320,113	160,335
92,641	-2,695	319,615	160,040
93,655	-2,722	319,511	159,944
94,670	-2,737	319,220	159,768
95,684	-2,779	318,998	159,597
96,699	-2,876	318,769	159,362
97,714	-2,762	318,499	159,337
98,728	-2,847	318,239	159,100
99,743	-2,977	318,051	158,852
100,757	-2,966	317,882	158,765
101,772	-2,843	317,577	158,732
102,787	-2,856	317,182	158,506
103,801	-2,882	317,308	158,527
104,816	-2,668	317,014	158,597
105,830	-2,765	316,768	158,356
106,845	-2,721	316,561	158,285
107,860	-2,550	316,258	158,304
108,874	-2,729	315,963	157,950
109,889	-2,780	315,826	157,812
110,903	-2,755	315,520	157,672
111,918	-2,804	315,339	157,515
112,933	-2,820	315,087	157,357
113,947	-2,554	314,898	157,535
114,962	-2,799	314,794	157,206
115,976	-2,788	314,486	157,050
116,991	-2,773	314,259	156,939
118,006	-2,711	314,046	156,884
119,020	-2,670	313,828	156,805
120,035	-2,697	313,748	156,722
121,049	-2,861	313,711	156,514
122,064	-2,624	313,256	156,527
123,079	-2,683	313,003	156,323
124,093	-2,770	312,717	156,074
125,108	-2,940	312,573	155,807
126,122	-2,917	312,184	155,624
127,137	-3,045	311,865	155,315
128,151	-2,992	311,834	155,342
129,166	-2,858	311,583	155,345
130,181	-3,052	311,346	155,008
131,195	-2,902	310,952	154,956
132,210	-2,785	310,835	155,008
133,224	-2,681	310,668	155,021
134,239	-2,672	310,502	154,934
135,254	-2,743	310,223	154,706
136,268	-2,774	310,052	154,574
137,283	-2,932	309,692	154,214
138,297	-2,904	309,366	154,067
139,312	-3,082	309,263	153,815
140,327	-2,749	309,205	154,123
141,341	-2,491	308,919	154,238
142,356	-2,439	308,863	154,251
143,370	-2,341	308,687	154,252
144,385	-2,414	308,478	154,057
145,400	-2,475	308,187	153,834
146,414	-2,412	308,063	153,825
147,429	-2,504	307,719	153,542
148,443	-2,407	307,615	153,579
149,458	-2,469	307,408	153,397
150,473	-2,319	307,075	153,373
151,487	-2,446	306,969	153,174
152,502	-2,522	306,766	152,980
153,516	-2,264	306,398	153,052
154,531	-2,371	306,215	152,836
155,546	-2,314	305,984	152,766
156,560	-2,596	305,929	152,432
157,575	-2,689	305,659	152,187
158,589	-2,458	305,253	152,211
159,604	-2,414	305,235	152,234
160,619	-2,482	305,138	152,101
161,633	-2,393	304,829	152,026
162,648	-2,477	304,661	151,842
163,662	-2,333	304,525	151,910
164,677	-2,511	304,198	151,549
165,692	-2,408	304,072	151,579
166,706	-2,442	303,798	151,394
167,721	-2,599	303,599	151,119
168,735	-2,547	303,520	151,120
169,750	-2,311	303,315	151,247
170,764	-2,351	303,219	151,145
171,779	-2,141	302,802	151,139
172,794	-2,393	302,833	150,882
173,808	-2,395	302,432	150,667
174,823	-2,737	302,109	150,142
175,837	-2,893	301,851	149,840
176,852	-2,593	301,883	150,150
177,867	-2,288	301,605	150,311
178,881	-2,288	301,410	150,200
179,896	-2,266	301,363	150,186
180,910	-2,287	301,239	150,089
181,925	-2,296	300,892	149,894
182,940	-2,193	300,695	149,888
183,954	-2,352	300,611	149,670
184,969	-2,456	300,386	149,439
185,983	-2,496	300,145	149,265
186,998	-2,474	300,008	149,206
188,013	-2,281	299,614	149,192
189,027	-2,341	299,568	149,096
190,042	-2,329	299,454	149,038
191,056	-2,225	299,123	148,965
192,071	-2,285	299,107	148,883
193,086	-2,223	298,798	148,778
194,100	-2,228	298,630	148,677
195,115	-2,281	298,243	148,418
196,129	-2,352	298,155	148,288
197,144	-2,293	297,939	148,227
198,159	-2,319	297,780	148,109
199,173	-2,201	297,637	148,143
200,188	-2,050	297,428	148,178
201,202	-2,309	296,924	147,654
202,217	-2,788	296,557	146,977
203,232	-2,794	296,336	146,849
204,246	-2,446	296,202	147,118
205,261	-2,246	296,171	147,290
206,275	-2,050	296,002	147,388
207,290	-2,221	295,765	147,086
208,304	-2,300	295,662	146,943
209,319	-2,256	295,535	146,910
210,334	-2,355	295,194	146,629
211,348	-2,286	294,979	146,579
212,363	-2,286	294,777	146,465
213,377	-2,259	294,598	146,390
214,392	-2,343	294,492	146,240
215,407	-2,456	294,280	146,009
216,421	-2,584	293,994	145,728
217,436	-2,750	293,669	145,389
218,450	-2,576	293,533	145,480
219,465	-2,468	293,410	145,514
220,480	-2,488	293,317	145,435
221,494	-2,536	293,030	145,232
222,509	-2,627	292,851	145,041
223,523	-2,513	292,705	145,068
224,538	-2,204	292,489	145,254
225,553	-2,170	292,466	145,262
226,567	-2,094	292,128	145,157
227,582	-2,244	292,065	144,964
228,596	-2,201	291,889	144,907
229,611	-2,150	291,754	144,877
230,626	-2,183	291,534	144,722
231,640	-2,509	291,132	144,189
232,655	-2,662	290,782	143,853
233,669	-2,869	290,596	143,546
234,684	-2,978	290,559	143,407
235,699	-2,695	290,290	143,539
236,713	-2,718	290,213	143,465
237,728	-2,531	289,916	143,489
238,742	-2,480	289,679	143,408
239,757	-2,490	289,757	143,425
240,772	-2,476	289,465	143,281
241,786	-2,230	289,143	143,349
242,801	-2,716	289,012	142,798
243,815	-2,558	288,931	142,899
244,830	-2,527	288,755	142,829
245,844	-2,480	288,444	142,709
246,859	-2,541	288,214	142,522
247,874	-2,499	288,283	142,584
248,888	-2,393	288,014	142,542
249,903	-2,299	287,859	142,544
250,917	-2,467	287,858	142,367
251,932	-2,047	287,591	142,629
252,947	-1,554	287,580	143,089
253,961	-1,888	287,302	142,614
254,976	-0,952	287,647	143,680
255,990	1,673	288,526	146,652
257,005	2,675	288,802	147,751
258,020	3,949	289,134	149,143
259,034	4,007	288,937	149,085
260,049	3,758	288,664	148,689
261,063	3,549	288,456	148,367
262,078	3,787	288,482	148,598
263,093	4,502	288,346	149,205
264,107	4,560	288,165	149,154
265,122	4,538	288,015	149,042
266,136	4,682	287,926	149,122
267,151	4,609	287,669	148,905
268,166	4,337	287,396	148,488
269,180	4,385	287,279	148,461
270,195	4,499	286,946	148,385
271,209	4,474	286,636	148,188
272,224	4,386	286,651	148,098
273,239	4,234	286,280	147,747
274,253	4,122	286,295	147,634
275,268	4,720	286,309	148,202
276,282	4,528	285,890	147,788
277,297	4,553	285,819	147,761
278,312	4,817	285,732	147,956
279,326	4,641	285,492	147,651
280,341	4,488	285,229	147,355
281,355	4,131	285,092	146,931
282,370	4,406	284,811	147,035
283,384	4,379	284,482	146,826
284,399	4,560	284,254	146,867
285,414	4,225	284,320	146,570
286,428	4,288	284,097	146,501
287,443	4,050	283,795	146,107
288,457	4,012	283,579	145,947
289,472	4,050	283,360	145,857
290,487	4,032	283,331	145,812
291,501	3,939	283,065	145,574
292,516	3,833	282,710	145,278
293,530	3,862	282,449	145,159
294,545	4,087	282,372	145,319
295,560	4,010	282,582	145,341
296,574	3,888	282,273	145,054
297,589	4,106	282,088	145,152
298,603	4,344	281,919	145,276
299,618	4,434	281,667	145,217
300,633	4,273	281,607	145,022
301,647	4,333	281,335	144,925
302,662	4,397	281,055	144,828
303,676	4,070	280,897	144,428
304,691	3,783	280,757	144,074
305,706	3,772	280,336	143,834
306,720	3,592	280,294	143,632
307,735	3,792	280,018	143,664
308,749	3,802	279,976	143,639
309,764	4,191	279,736	143,867
310,779	3,880	279,618	143,503
311,793	3,588	279,319	143,065
312,808	3,884	279,090	143,210
313,822	3,793	279,025	143,079
314,837	3,727	278,866	142,923
315,852	3,452	278,527	142,481
316,866	3,543	278,461	142,520
317,881	3,829	278,279	142,679
318,895	3,757	278,082	142,499
319,910	3,508	277,909	142,166
320,925	3,632	277,693	142,157
321,939	3,685	277,598	142,145
322,954	3,751	277,585	142,187
323,968	3,832	277,369	142,139
324,983	4,128	277,162	142,294
325,997	4,100	276,947	142,144
327,012	4,000	276,803	141,966
328,027	3,854	276,547	141,687
329,041	4,071	276,433	141,816
330,056	4,078	276,264	141,723
331,070	4,000	276,064	141,536
332,085	3,833	275,760	141,215
333,100	3,871	275,690	141,201
334,114	3,910	275,463	141,108
335,129	3,864	275,262	140,951
336,143	3,795	275,356	140,923
337,158	4,348	275,056	141,263
338,173	4,168	274,854	140,982
339,187	3,915	274,613	140,614
340,202	3,941	274,630	140,635
341,216	3,977	274,298	140,484
342,231	4,042	274,086	140,423
343,246	3,977	273,991	140,303
344,260	3,999	273,727	140,175
345,275	4,051	273,820	140,257
346,289	4,272	273,646	140,356
347,304	4,137	273,625	140,210
348,319	4,030	273,281	139,924
349,333	3,955	272,901	139,649
350,348	4,234	272,845	139,861
351,362	4,300	272,775	139,873
352,377	4,146	272,622	139,642
353,392	4,082	272,416	139,466
354,406	4,334	272,333	139,640
355,421	192,180	1329,696	1409,344
356,435	155,292	1458,602	1409,452
