DTS Sentinel unit serial number:	SN410029Multiplexer serial number:	ORYXHardware model number:	OX2-SRSoftware version number:	ORYX F/W v4,00 Oryx Data Collector v3.7.2.0data status	okinstallation	B4 Nyhavnadifferential loss correction	single-endedforward channel	channel 2reverse channel	N/Adate	2023/12/19time	09:10:13forward acquisition time	300,00reverse acquisition time	0,00gamma	499,1914k internal	0,3127k external	0,3127temperature offset calibration	1,0000default loss term (dB/km)	0,3820temperature slope calibration	1,0000multiplexer offset coefficient	1,0000multiplexer slope coefficient	1,0000fibre end	0,00T internal ref (°C)	20,55T ext. ref 1 (°C)	5,42T ext. ref 2 (°C)	5,43length (m)	temperature (°C)	Stokes	anti-Stokes-744,400	-200,000	0,014	-0,160
-743,385	-47,809	-0,153	0,055
-742,371	523,892	-0,039	-0,069
-741,356	8,863	-0,230	0,129
-740,342	37,303	-0,024	0,016
-739,327	25,085	-0,173	0,107
-738,312	800,000	-0,036	0,088
-737,298	-102,032	-0,295	0,052
-736,283	30,229	0,107	-0,068
-735,269	800,000	-0,053	0,151
-734,254	-200,000	0,001	-0,016
-733,239	-112,954	-0,473	-0,069
-732,225	-12,767	0,074	0,036
-731,210	401,489	0,055	-0,087
-730,196	-200,000	-0,019	0,070
-729,181	167,395	-0,090	0,096
-728,167	-142,139	0,219	-0,016
-727,152	131,167	0,050	0,047
-726,137	466,087	-0,040	-0,067
-725,123	-91,656	-0,010	0,002
-724,108	47,747	-0,110	0,077
-723,094	-50,080	-0,013	-0,005
-722,079	800,000	-0,032	-0,087
-721,064	-58,820	0,105	-0,034
-720,050	-142,324	0,070	-0,005
-719,035	-49,157	-0,086	-0,030
-718,021	301,946	-0,059	-0,082
-717,006	-200,000	0,015	-0,082
-715,991	-200,000	0,000	0,105
-714,977	800,000	0,022	-0,061
-713,962	800,000	-0,037	-0,109
-712,948	117,605	0,076	-0,069
-711,933	-73,766	-0,141	-0,038
-710,918	109,195	0,087	0,078
-709,904	16,320	-0,018	-0,010
-708,889	-134,227	0,091	-0,008
-707,875	-41,769	0,178	0,068
-706,860	-154,192	-0,075	0,004
-705,845	-200,000	0,005	-0,022
-704,831	758,783	0,040	0,082
-703,816	-156,626	-0,108	0,005
-702,802	-66,356	-0,015	0,004
-701,787	-69,909	-0,214	0,060
-700,772	-22,040	-0,072	-0,032
-699,758	-43,548	-0,079	-0,029
-698,743	-67,695	0,136	-0,039
-697,729	-96,341	0,116	-0,023
-696,714	-200,000	0,004	-0,052
-695,699	208,972	-0,118	-0,138
-694,685	345,594	-0,006	-0,009
-693,670	100,811	0,026	0,023
-692,656	-146,851	-0,059	0,004
-691,641	-200,000	0,003	0,043
-690,627	353,508	0,007	-0,011
-689,612	147,505	-0,103	0,103
-688,597	95,103	-0,088	0,075
-687,583	800,000	-0,099	-0,205
-686,568	800,000	0,043	-0,097
-685,554	-200,000	-0,000	0,090
-684,539	490,894	-0,096	-0,163
-683,524	21,171	-0,167	0,101
-682,510	-200,000	0,006	0,105
-681,495	3,412	0,109	-0,059
-680,481	-39,478	-0,032	-0,012
-679,466	92,241	-0,058	0,049
-678,451	-200,000	-0,005	-0,032
-677,437	168,966	-0,025	0,027
-676,422	614,168	0,083	0,154
-675,408	800,000	-0,037	0,080
-674,393	-200,000	-0,008	0,056
-673,378	-157,445	-0,036	-0,002
-672,364	744,060	0,027	-0,053
-671,349	579,672	0,060	-0,110
-670,335	-200,000	-0,015	0,067
-669,320	-45,392	0,042	-0,015
-668,305	-49,666	-0,169	0,059
-667,291	-142,743	-0,056	0,004
-666,276	46,757	-0,152	-0,105
-665,262	-146,986	-0,140	0,009
-664,247	-200,000	0,008	-0,072
-663,232	276,983	0,085	0,112
-662,218	-200,000	-0,019	-0,073
-661,203	-200,000	0,012	0,046
-660,189	-200,000	0,006	0,081
-659,174	223,763	-0,062	0,075
-658,159	-27,838	-0,166	-0,071
-657,145	28,522	0,009	0,005
-656,130	360,318	-0,037	0,055
-655,116	248,822	-0,034	0,043
-654,101	340,553	-0,013	0,018
-653,086	800,000	-0,048	0,153
-652,072	-142,384	0,115	0,008
-651,057	220,271	-0,040	-0,047
-650,043	166,937	0,044	0,046
-649,028	448,901	0,050	0,082
-648,014	-200,000	-0,002	0,043
-646,999	-150,043	-0,091	-0,005
-645,984	-200,000	0,016	-0,081
-644,970	-200,000	0,006	-0,052
-643,955	634,631	0,014	-0,027
-642,941	109,745	-0,122	-0,108
-641,926	331,786	0,033	0,047
-640,911	8,359	0,106	0,059
-639,897	-88,999	-0,104	-0,023
-638,882	270,075	0,021	-0,027
-637,868	800,000	0,042	-0,095
-636,853	-43,731	-0,079	0,029
-635,838	800,000	0,037	-0,089
-634,824	-35,336	-0,132	0,053
-633,809	20,551	0,125	0,075
-632,795	-200,000	-0,008	-0,036
-631,780	800,000	-0,026	-0,060
-630,765	183,444	0,086	-0,094
-629,751	800,000	-0,054	-0,135
-628,736	-94,235	-0,164	-0,033
-627,722	-148,374	0,024	0,001
-626,707	91,234	0,052	-0,043
-625,692	307,469	-0,041	0,057
-624,678	-200,000	0,020	-0,075
-623,663	740,326	0,039	0,077
-622,649	-200,000	-0,026	-0,141
-621,634	-58,312	-0,159	0,051
-620,619	-200,000	-0,026	-0,109
-619,605	-29,813	0,045	-0,019
-618,590	-130,409	-0,139	-0,014
-617,576	60,596	-0,112	0,082
-616,561	-45,369	-0,068	-0,025
-615,546	-106,850	-0,174	0,028
-614,532	-166,259	-0,217	-0,007
-613,517	-200,000	0,006	-0,028
-612,503	-200,000	0,006	-0,084
-611,488	-200,000	0,008	-0,067
-610,474	-9,259	0,127	0,063
-609,459	-175,464	-0,085	0,002
-608,444	120,513	-0,034	-0,032
-607,430	-179,198	0,131	-0,002
-606,415	-200,000	0,005	-0,027
-605,401	-67,047	-0,139	0,040
-604,386	-135,948	0,106	0,009
-603,371	167,463	-0,085	0,089
-602,357	391,634	-0,068	-0,105
-601,342	101,610	0,018	-0,016
-600,328	748,967	0,024	-0,047
-599,313	58,685	-0,086	-0,063
-598,298	367,535	0,076	-0,114
-597,284	551,303	0,077	-0,137
-596,269	-200,000	0,018	0,103
-595,255	-67,295	-0,091	-0,026
-594,240	-84,641	-0,067	-0,016
-593,225	-32,705	0,041	-0,017
-592,211	-200,000	0,001	-0,065
-591,196	103,355	0,075	-0,065
-590,182	-200,000	0,034	0,139
-589,167	800,000	0,039	0,080
-588,152	-200,000	-0,009	-0,052
-587,138	-143,832	-0,114	0,008
-586,123	161,751	-0,009	0,009
-585,109	800,000	-0,028	-0,083
-584,094	-137,024	0,047	-0,004
-583,079	-100,874	0,045	-0,008
-582,065	-200,000	-0,012	-0,081
-581,050	-111,602	-0,072	0,011
-580,036	-200,000	0,038	-0,141
-579,021	478,894	-0,046	-0,078
-578,006	166,679	-0,086	-0,090
-576,992	127,802	0,068	0,064
-575,977	-200,000	-0,008	0,065
-574,963	-200,000	0,018	0,079
-573,948	196,192	-0,045	0,051
-572,934	-200,000	-0,004	0,047
-571,919	-58,606	-0,084	-0,027
-570,904	-200,000	-0,025	-0,160
-569,890	-200,000	-0,027	-0,105
-568,875	-200,000	0,006	-0,114
-567,861	-200,000	0,016	-0,192
-566,846	-74,062	0,070	0,019
-565,831	800,000	-0,032	-0,101
-564,817	-114,992	0,066	-0,009
-563,802	-61,317	-0,059	0,018
-562,788	-200,000	0,018	0,061
-561,773	286,340	0,027	0,037
-560,758	-72,707	-0,100	0,027
-559,744	-62,794	0,162	0,049
-558,729	117,288	0,043	-0,039
-557,715	-200,000	-0,008	-0,067
-556,700	-200,000	-0,015	-0,093
-555,685	-124,966	-0,063	0,007
-554,671	-77,886	0,123	0,031
-553,656	800,000	0,023	0,057
-552,642	-65,205	-0,098	-0,029
-551,627	-122,805	-0,034	-0,004
-550,612	-19,610	0,084	-0,038
-549,598	271,619	0,021	0,028
-548,583	126,996	-0,015	0,014
-547,569	-200,000	-0,026	0,087
-546,554	14,089	0,027	0,016
-545,539	800,000	0,049	0,107
-544,525	-200,000	0,005	-0,028
-543,510	-92,615	0,039	-0,008
-542,496	-91,798	-0,072	0,015
-541,481	335,813	-0,059	0,085
-540,466	229,186	-0,064	-0,077
-539,452	-135,016	-0,074	0,007
-538,437	65,962	0,010	0,008
-537,423	77,603	0,020	-0,016
-536,408	495,584	0,012	0,020
-535,393	-200,000	-0,002	-0,055
-534,379	800,000	-0,020	0,049
-533,364	-200,000	0,012	0,129
-532,350	800,000	0,056	0,160
-531,335	184,590	-0,027	0,030
-530,321	216,399	0,056	-0,066
-529,306	-113,318	-0,150	0,022
-528,291	-4,385	-0,050	0,025
-527,277	396,722	0,042	-0,064
-526,262	428,840	0,053	0,084
-525,248	-200,000	-0,001	-0,093
-524,233	-100,752	0,046	0,008
-523,218	-200,000	-0,001	0,151
-522,204	27,711	0,020	0,013
-521,189	-200,000	-0,024	0,093
-520,175	130,877	-0,079	0,074
-519,160	-200,000	0,013	0,115
-518,145	-88,900	0,078	-0,017
-517,131	9,116	-0,067	-0,037
-516,116	-49,503	-0,038	-0,013
-515,102	-200,000	0,028	-0,092
-514,087	-200,000	0,015	-0,106
-513,072	617,581	0,049	0,092
-512,058	230,067	-0,052	-0,063
-511,043	-200,000	0,032	-0,138
-510,029	-96,195	0,063	-0,012
-509,014	-57,441	-0,064	0,021
-507,999	31,131	0,058	0,037
-506,985	7,130	-0,038	-0,021
-505,970	735,914	-0,027	-0,054
-504,956	287,647	-0,079	-0,106
-503,941	800,000	-0,088	0,193
-502,926	-98,301	-0,065	0,012
-501,912	-200,000	0,017	0,101
-500,897	-126,025	-0,142	-0,016
-499,883	57,050	0,066	-0,048
-498,868	-16,677	-0,049	0,023
-497,853	-24,773	-0,097	0,042
-496,839	-200,000	0,024	-0,083
-495,824	184,563	-0,025	0,027
-494,810	-118,898	-0,096	0,012
-493,795	-161,713	-0,101	-0,004
-492,781	72,791	0,050	0,039
-491,766	800,000	-0,034	-0,102
-490,751	-17,029	0,141	-0,065
-489,737	-68,595	0,089	-0,025
-488,722	18,739	0,052	0,030
-487,708	-32,486	0,160	0,065
-486,693	201,793	0,054	0,061
-485,678	277,312	0,074	0,097
-484,664	-42,065	0,123	-0,046
-483,649	69,172	-0,128	-0,097
-482,635	-37,275	0,032	-0,013
-481,620	-200,000	-0,017	-0,090
-480,605	-200,000	0,001	0,079
-479,591	-156,781	0,144	0,006
-478,576	11,259	-0,146	0,082
-477,562	-60,080	-0,087	-0,027
-476,547	-200,000	-0,002	-0,024
-475,532	402,977	-0,044	0,068
-474,518	372,260	0,013	-0,019
-473,503	-200,000	-0,006	0,050
-472,489	-200,000	-0,000	0,027
-471,474	432,313	0,023	-0,037
-470,459	335,033	-0,089	0,128
-469,445	254,656	0,112	0,141
-468,430	800,000	0,054	0,173
-467,416	-200,000	-0,020	0,156
-466,401	333,120	-0,029	-0,042
-465,386	-79,874	0,105	0,026
-464,372	37,929	0,028	0,019
-463,357	-200,000	0,002	-0,049
-462,343	-21,174	0,090	-0,040
-461,328	-200,000	-0,024	-0,087
-460,313	-26,202	-0,049	0,021
-459,299	48,913	0,115	-0,080
-458,284	800,000	0,029	0,083
-457,270	780,552	-0,043	0,087
-456,255	-138,262	-0,044	-0,004
-455,241	217,501	0,016	-0,019
-454,226	-200,000	-0,047	-0,208
-453,211	221,525	-0,093	-0,110
-452,197	47,564	0,092	-0,063
-451,182	-60,637	0,100	-0,031
-450,168	23,358	0,033	-0,020
-449,153	209,274	-0,027	0,031
-448,138	-200,000	0,015	-0,120
-447,124	800,000	0,010	0,029
-446,109	800,000	-0,016	0,052
-445,095	-81,479	0,129	0,031
-444,080	73,140	0,026	-0,020
-443,065	-200,000	-0,014	-0,088
-442,051	159,543	0,072	0,074
-441,036	-90,304	0,032	0,007
-440,022	-64,497	0,049	0,015
-439,007	-94,819	-0,034	-0,007
-437,992	23,822	0,024	0,015
-436,978	-155,358	0,153	0,007
-435,963	800,000	-0,017	0,041
-434,949	20,281	-0,076	0,045
-433,934	-33,930	-0,066	0,027
-432,919	-200,000	-0,008	-0,123
-431,905	-200,000	-0,012	-0,153
-430,890	800,000	0,018	-0,050
-429,876	-200,000	0,008	-0,038
-428,861	-57,209	0,116	0,037
-427,846	79,452	-0,043	-0,034
-426,832	800,000	-0,039	-0,126
-425,817	174,984	-0,119	-0,127
-424,803	-119,803	0,125	-0,016
-423,788	608,157	-0,036	0,067
-422,773	474,627	-0,036	0,059
-421,759	-154,494	0,135	0,007
-420,744	-200,000	0,051	0,174
-419,730	800,000	0,016	-0,036
-418,715	-200,000	0,032	0,228
-417,701	-70,803	-0,124	0,034
-416,686	-200,000	-0,024	0,192
-415,671	-200,000	-0,016	0,072
-414,657	-81,012	0,085	0,020
-413,642	800,000	0,042	0,102
-412,628	-34,452	0,049	0,020
-411,613	-164,845	0,098	0,003
-410,598	-200,000	-0,001	-0,018
-409,584	18,711	0,094	0,055
-408,569	17,715	0,148	0,086
-407,555	20,985	-0,080	0,048
-406,540	800,000	0,013	0,029
-405,525	-84,638	-0,141	-0,032
-404,511	26,985	-0,093	-0,057
-403,496	242,040	0,088	-0,109
-402,482	2,958	0,085	0,045
-401,467	-21,677	0,076	0,034
-400,452	112,978	-0,100	-0,089
-399,438	551,964	-0,069	-0,122
-398,423	-200,000	0,001	0,061
-397,409	178,999	0,088	-0,094
-396,394	-30,865	-0,040	0,017
-395,379	555,851	0,058	-0,102
-394,365	83,892	0,077	-0,062
-393,350	800,000	0,050	0,146
-392,336	514,903	0,083	0,143
-391,321	65,910	-0,011	0,008
-390,306	-129,462	-0,053	0,005
-389,292	493,519	0,073	0,124
-388,277	-57,978	-0,108	0,034
-387,263	275,112	-0,087	0,114
-386,248	-200,000	-0,009	-0,060
-385,233	-22,577	-0,027	0,012
-384,219	-200,000	-0,020	0,072
-383,204	95,702	-0,067	-0,056
-382,190	800,000	0,054	-0,113
-381,175	-12,054	-0,064	-0,031
-380,160	332,754	0,045	-0,064
-379,146	-182,859	0,112	0,001
-378,131	-44,751	0,018	0,007
-377,117	-39,627	0,078	0,030
-376,102	-166,097	-0,101	0,003
-375,088	-71,229	-0,125	-0,034
-374,073	122,092	-0,019	-0,017
-373,058	-138,934	0,027	-0,002
-372,044	383,942	0,022	0,033
-371,029	800,000	0,039	0,121
-370,015	-200,000	-0,015	0,131
-369,000	-3,965	0,084	0,042
-367,985	717,411	0,051	0,099
-366,971	-200,000	-0,030	-0,157
-365,956	-200,000	0,007	-0,089
-364,942	-200,000	0,006	0,050
-363,927	-170,039	0,065	-0,002
-362,912	574,712	-0,061	0,109
-361,898	-103,027	-0,043	0,007
-360,883	-200,000	0,071	0,000
-359,869	800,000	0,024	0,072
-358,854	800,000	-0,021	0,048
-357,839	47,167	0,051	0,034
-356,825	-200,000	-0,003	-0,055
-355,810	374,144	-0,040	0,059
-354,796	-78,533	-0,283	-0,070
-353,781	800,000	0,062	-0,173
-352,766	-56,598	0,133	-0,043
-351,752	-141,234	-0,124	0,009
-350,737	800,000	0,017	0,043
-349,723	-200,000	-0,013	0,063
-348,708	-200,000	-0,011	0,100
-347,693	284,721	0,011	-0,015
-346,679	800,000	0,011	-0,027
-345,664	11,672	0,090	-0,050
-344,650	800,000	0,022	-0,046
-343,635	67,237	-0,008	0,006
-342,620	800,000	0,056	0,154
-341,606	89,327	-0,076	0,062
-340,591	-41,027	-0,070	0,026
-339,577	-200,000	0,001	0,035
-338,562	-183,098	0,105	0,001
-337,548	-200,000	-0,009	-0,041
-336,533	15,613	-0,066	-0,038
-335,518	-200,000	-0,019	-0,180
-334,504	-62,756	0,102	0,031
-333,489	-17,777	0,081	-0,037
-332,475	-200,000	0,039	-0,137
-331,460	-200,000	0,012	-0,124
-330,445	189,624	0,043	0,047
-329,431	97,601	-0,022	0,019
-328,416	-59,597	-0,062	-0,019
-327,402	64,507	0,050	0,037
-326,387	746,195	0,100	0,199
-325,372	11,741	0,062	0,034
-324,358	485,016	0,053	-0,088
-323,343	-88,593	0,090	-0,019
-322,329	-200,000	0,010	0,065
-321,314	-53,235	-0,132	0,044
-320,299	-200,000	0,006	0,079
-319,285	56,357	-0,008	-0,006
-318,270	275,311	-0,076	0,098
-317,256	311,112	-0,055	-0,075
-316,241	-36,099	-0,146	-0,058
-315,226	12,185	0,109	0,061
-314,212	-164,871	-0,056	-0,002
-313,197	-136,918	0,096	0,008
-312,183	800,000	-0,059	-0,160
-311,168	-200,000	0,011	-0,078
-310,153	-200,000	0,035	-0,138
-309,139	110,034	-0,043	-0,038
-308,124	-17,238	-0,018	0,008
-307,110	-200,000	0,063	-0,252
-306,095	55,340	0,070	0,050
-305,080	114,668	0,053	0,048
-304,066	-43,773	0,076	-0,028
-303,051	-36,864	-0,145	-0,057
-302,037	2,120	-0,145	-0,076
-301,022	-109,618	-0,113	-0,017
-300,008	-89,713	0,041	-0,009
-298,993	-113,248	0,052	-0,007
-297,978	1,032	-0,007	-0,004
-296,964	-10,090	-0,055	-0,027
-295,949	-190,535	-0,089	0,001
-294,935	79,037	-0,099	0,078
-293,920	-200,000	0,070	0,231
-292,905	-104,860	-0,043	0,007
-291,891	49,109	0,071	0,049
-290,876	-200,000	0,013	-0,102
-289,862	-97,226	-0,081	-0,015
-288,847	-51,709	-0,173	0,059
-287,832	10,883	-0,083	-0,046
-286,818	-112,433	0,034	0,005
-285,803	-64,972	0,140	-0,041
-284,789	800,000	0,038	-0,113
-283,774	8,464	0,059	0,032
-282,759	-27,245	-0,015	0,006
-281,745	405,250	-0,031	-0,048
-280,730	-200,000	-0,036	-0,184
-279,716	800,000	-0,008	-0,022
-278,701	-200,000	0,004	0,038
-277,686	388,392	-0,006	0,009
-276,672	800,000	-0,061	-0,136
-275,657	0,708	0,070	-0,036
-274,643	25,592	-0,057	-0,035
-273,628	283,743	0,076	0,100
-272,613	78,738	0,071	0,055
-271,599	-58,936	-0,131	-0,041
-270,584	-121,332	0,156	0,019
-269,570	7,713	0,110	0,060
-268,555	800,000	0,033	-0,081
-267,540	-200,000	0,044	-0,158
-266,526	665,761	0,038	-0,071
-265,511	-10,104	-0,114	0,055
-264,497	-200,000	0,008	-0,084
-263,482	242,552	0,040	-0,049
-262,467	-200,000	0,022	0,169
-261,453	109,581	0,122	0,106
-260,438	409,518	-0,082	0,128
-259,424	581,739	0,067	-0,120
-258,409	-10,023	-0,036	0,018
-257,395	800,000	0,029	-0,071
-256,380	36,274	0,017	-0,011
-255,365	20,397	-0,016	-0,009
-254,351	44,072	-0,093	0,062
-253,336	6,001	-0,062	0,034
-252,322	800,000	-0,047	-0,127
-251,307	-200,000	0,002	-0,063
-250,292	194,684	0,095	0,105
-249,278	-200,000	-0,002	-0,040
-248,263	228,381	-0,060	0,072
-247,249	800,000	-0,038	0,081
-246,234	307,682	0,091	0,125
-245,219	800,000	-0,084	-0,179
-244,205	-28,227	-0,031	0,013
-243,190	-7,784	0,192	0,094
-242,176	-200,000	0,000	-0,104
-241,161	277,370	0,062	0,081
-240,146	0,461	-0,065	0,034
-239,132	-200,000	0,001	0,029
-238,117	123,471	-0,029	0,026
-237,103	800,000	-0,107	-0,271
-236,088	706,566	0,058	-0,112
-235,073	482,976	-0,068	-0,113
-234,059	86,285	0,129	-0,104
-233,044	143,076	0,136	0,132
-232,030	800,000	-0,041	-0,131
-231,015	-103,863	-0,150	-0,025
-230,000	-0,887	-0,141	0,072
-228,986	-172,422	-0,089	-0,002
-227,971	-200,000	0,009	0,168
-226,957	106,902	0,062	0,053
-225,942	284,677	-0,071	-0,094
-224,927	-119,552	-0,098	0,012
-223,913	-200,000	0,000	0,005
-222,898	-200,000	-0,003	0,019
-221,884	800,000	0,047	0,129
-220,869	800,000	-0,038	-0,080
-219,855	665,527	0,046	0,088
-218,840	800,000	-0,027	0,079
-217,825	-180,008	-0,018	-0,000
-216,811	149,861	-0,040	0,039
-215,796	-200,000	-0,001	0,090
-214,782	234,798	-0,056	0,068
-213,767	-118,953	-0,045	-0,006
-212,752	17,460	-0,010	0,006
-211,738	-92,241	-0,091	-0,019
-210,723	-26,498	0,122	-0,052
-209,709	800,000	-0,027	0,071
-208,694	800,000	0,039	-0,089
-207,679	-200,000	0,002	-0,067
-206,665	-85,801	0,090	0,020
-205,650	-200,000	0,002	-0,009
-204,636	-200,000	0,017	0,117
-203,621	-130,326	0,075	-0,007
-202,606	-200,000	0,009	-0,101
-201,592	429,987	-0,085	0,135
-200,577	-200,000	-0,011	-0,097
-199,563	11,645	-0,036	-0,020
-198,548	-200,000	0,039	0,130
-197,533	-114,077	-0,022	-0,003
-196,519	358,856	0,042	0,061
-195,504	443,156	-0,123	0,197
-194,490	191,284	-0,079	-0,086
-193,475	114,830	-0,120	-0,106
-192,460	-149,282	0,118	0,007
-191,446	538,903	-0,055	0,095
-190,431	127,433	-0,029	0,027
-189,417	39,786	-0,065	0,042
-188,402	-149,151	0,048	0,003
-187,387	800,000	-0,022	-0,061
-186,373	-200,000	0,014	-0,109
-185,358	-200,000	-0,016	-0,081
-184,344	-57,820	0,087	-0,028
-183,329	645,488	0,052	-0,098
-182,315	-200,000	-0,001	0,061
-181,300	25,427	-0,092	0,055
-180,285	9,434	-0,033	0,018
-179,271	800,000	0,057	0,122
-178,256	7,257	0,200	0,109
-177,242	-36,868	-0,028	0,011
-176,227	-200,000	0,033	0,190
-175,212	-177,340	0,071	0,001
-174,198	186,304	0,038	0,041
-173,183	-44,704	-0,070	0,025
-172,169	800,000	0,035	0,112
-171,154	-200,000	0,036	0,164
-170,139	32,711	0,043	0,027
-169,125	1,084	-0,015	-0,008
-168,110	729,959	0,058	-0,113
-167,096	79,566	0,062	-0,049
-166,081	-200,000	-0,040	0,145
-165,066	800,000	0,005	0,015
-164,052	-8,022	0,074	0,036
-163,037	248,159	0,072	-0,089
-162,023	452,049	0,077	0,125
-161,008	21,628	0,097	-0,057
-159,993	-200,000	0,030	0,171
-158,979	-111,718	-0,037	-0,005
-157,964	61,969	-0,057	-0,041
-156,950	14,702	0,147	-0,084
-155,935	106,496	-0,071	0,062
-154,920	-52,876	-0,094	-0,031
-153,906	-200,000	-0,011	0,038
-152,891	230,483	0,036	-0,043
-151,877	-200,000	-0,012	-0,064
-150,862	61,997	-0,043	0,031
-149,847	-79,932	-0,072	0,017
-148,833	168,493	0,089	0,093
-147,818	-84,663	0,035	-0,008
-146,804	-200,000	-0,000	0,056
-145,789	100,108	0,023	-0,020
-144,775	-86,284	-0,087	0,019
-143,760	251,456	-0,021	0,026
-142,745	-200,000	0,096	0,000
-141,731	-200,000	-0,009	0,031
-140,716	22,826	-0,061	-0,036
-139,702	800,000	0,004	0,009
-138,687	-200,000	-0,033	0,182
-137,672	178,415	0,013	0,014
-136,658	-55,609	0,034	0,011
-135,643	800,000	0,042	0,105
-134,629	226,766	0,047	0,055
-133,614	-94,678	0,092	0,018
-132,599	71,419	-0,043	0,033
-131,585	147,673	0,016	-0,016
-130,570	404,619	0,035	0,053
-129,556	-200,000	0,041	0,137
-128,541	-94,416	-0,017	-0,003
-127,526	439,003	0,020	-0,031
-126,512	800,000	0,019	0,057
-125,497	213,953	-0,013	0,015
-124,483	-31,792	0,107	-0,044
-123,468	-200,000	0,020	0,138
-122,453	-149,057	-0,005	0,000
-121,439	800,000	0,027	-0,078
-120,424	-164,584	-0,029	0,001
-119,410	-11,627	0,069	-0,033
-118,395	417,149	0,018	-0,029
-117,380	-90,259	0,123	-0,026
-116,366	800,000	-0,061	-0,167
-115,351	-200,000	0,037	0,000
-114,337	-65,173	-0,040	-0,011
-113,322	-200,000	0,019	-0,065
-112,307	-2,312	0,029	0,015
-111,293	-56,822	-0,039	0,012
-110,278	-131,212	0,085	0,008
-109,264	4,572	0,084	0,045
-108,249	-200,000	0,012	-0,157
-107,234	677,022	0,052	-0,098
-106,220	800,000	0,052	0,107
-105,205	800,000	0,016	-0,050
-104,191	117,222	-0,053	0,047
-103,176	800,000	-0,030	-0,064
-102,162	-118,149	0,071	-0,009
-101,147	-83,400	0,078	0,018
-100,132	-200,000	0,001	0,035
-99,118	-200,000	0,021	-0,087
-98,103	800,000	-0,033	-0,074
-97,089	718,237	-0,012	0,024
-96,074	172,261	0,054	-0,057
-95,059	31,730	0,133	0,083
-94,045	-200,000	0,009	0,138
-93,030	-66,852	-0,093	0,027
-92,016	-57,078	0,038	0,012
-91,001	110,219	0,043	0,038
-89,986	-95,526	-0,037	0,007
-88,972	324,224	-0,066	-0,092
-87,957	-64,296	0,058	-0,017
-86,943	496,645	0,059	-0,098
-85,928	-31,941	-0,065	-0,026
-84,913	724,943	0,073	-0,142
-83,899	64,331	0,035	-0,025
-82,884	38,039	-0,051	-0,033
-81,870	61,340	-0,032	-0,023
-80,855	-200,000	-0,022	0,092
-79,840	-94,764	0,032	0,006
-78,826	-200,000	-0,010	-0,083
-77,811	712,863	-0,040	-0,076
-76,797	800,000	0,023	0,057
-75,782	69,745	0,146	0,109
-74,767	218,274	-0,060	0,069
-73,753	294,936	-0,046	0,062
-72,738	-149,236	0,120	0,007
-71,724	12,775	-0,150	0,084
-70,709	395,356	-0,055	-0,084
-69,694	33,119	0,036	-0,023
-68,680	275,942	0,017	0,022
-67,665	800,000	0,033	-0,085
-66,651	-135,693	0,179	0,015
-65,636	11,488	-0,092	-0,051
-64,622	-200,000	-0,031	-0,146
-63,607	550,217	-0,086	-0,151
-62,592	-200,000	-0,011	0,067
-61,578	117,623	-0,085	0,075
-60,563	-140,478	0,072	-0,005
-59,549	244,883	0,038	0,047
-58,534	-106,905	-1,448	-0,230
-57,519	365,780	-0,881	-1,290
-56,505	-200,000	-0,944	-4,403
-55,490	-85,004	0,551	-0,124
-54,476	800,000	4,981	11,800
-53,461	-200,000	14,880	265,052
-52,446	-200,000	699,900	2275,304
-51,432	599,213	1624,313	2931,967
-50,417	120,431	1629,708	1466,455
-49,403	79,434	1282,884	996,047
-48,388	37,625	1021,264	655,381
-47,373	22,997	981,011	581,508
-46,359	22,059	970,231	572,021
-45,344	20,779	965,816	565,220
-44,330	20,797	964,577	564,531
-43,315	20,599	962,988	562,933
-42,300	20,604	961,904	562,293
-41,286	20,589	960,981	561,684
-40,271	20,601	959,992	561,121
-39,257	20,652	959,092	560,739
-38,242	20,553	958,320	559,944
-37,227	20,621	957,465	559,643
-36,213	20,578	956,427	558,873
-35,198	20,571	955,449	558,258
-34,184	20,597	954,825	557,955
-33,169	20,556	954,011	557,325
-32,154	20,622	953,096	556,982
-31,140	20,578	952,175	556,280
-30,125	20,583	951,289	555,754
-29,111	20,596	950,542	555,340
-28,096	20,573	950,023	554,939
-27,082	20,562	949,258	554,437
-26,067	20,659	948,208	554,113
-25,052	20,575	947,678	553,509
-24,038	20,612	946,653	553,008
-23,023	20,581	946,311	552,689
-22,009	20,533	945,860	552,250
-20,994	20,610	945,058	552,005
-19,979	20,588	944,598	551,645
-18,965	20,541	943,861	551,041
-17,950	20,588	943,145	550,752
-16,936	20,500	942,577	550,117
-15,921	20,528	941,787	549,724
-14,906	20,476	941,145	549,160
-13,892	20,413	940,617	548,632
-12,877	20,501	939,883	548,462
-11,863	20,409	939,309	547,814
-10,848	20,459	938,849	547,680
-9,833	20,581	938,269	547,707
-8,819	20,531	937,666	547,176
-7,804	20,428	937,168	546,536
-6,790	20,471	936,495	546,259
-5,775	20,518	936,094	546,153
-4,760	20,466	935,206	545,449
-3,746	20,429	934,714	545,022
-2,731	20,324	934,005	544,256
-1,717	20,341	933,314	543,885
-0,702	20,291	932,583	543,280
0,313	20,150	931,892	543,254
1,327	22,720	929,507	549,886
2,342	30,246	805,761	497,008
3,356	24,500	506,911	302,870
4,371	-0,025	373,514	191,950
5,386	-2,954	356,600	179,647
6,400	-4,090	350,729	175,302
7,415	-4,342	348,104	173,671
8,429	-4,427	346,821	172,914
9,444	-4,344	345,869	172,523
10,459	-4,275	345,134	172,223
11,473	-4,250	344,432	171,887
12,488	-4,426	344,064	171,480
13,502	-4,467	343,506	171,138
14,517	-4,294	342,984	171,067
15,531	-4,229	342,477	170,875
16,546	-4,221	342,064	170,663
17,561	-4,249	341,691	170,429
18,575	-4,176	341,350	170,329
19,590	-4,271	340,836	169,947
20,604	-4,076	340,472	169,978
21,619	-4,136	340,051	169,682
22,634	-4,217	339,846	169,470
23,648	-4,104	339,482	169,406
24,663	-4,182	339,206	169,163
25,677	-4,209	338,828	168,927
26,692	-4,059	338,583	168,964
27,707	-4,000	338,081	168,767
28,721	-4,259	337,941	168,382
29,736	-4,201	337,587	168,258
30,750	-4,050	337,188	168,219
31,765	-4,137	336,948	167,983
32,780	-4,138	336,678	167,833
33,794	-4,043	336,326	167,752
34,809	-4,085	336,087	167,570
35,823	-4,055	335,764	167,428
36,838	-4,098	335,514	167,239
37,853	-4,200	335,310	167,004
38,867	-4,380	335,189	166,722
39,882	-4,179	334,748	166,720
40,896	-4,205	334,646	166,624
41,911	-4,062	334,193	166,547
42,926	-4,171	333,807	166,215
43,940	-4,112	333,643	166,186
44,955	-4,197	333,337	165,922
45,969	-4,231	333,117	165,758
46,984	-4,194	333,002	165,728
47,999	-4,029	332,723	165,763
49,013	-4,016	332,415	165,610
50,028	-4,175	332,229	165,322
51,042	-4,109	331,885	165,210
52,057	-4,033	331,704	165,193
53,071	-3,951	331,259	165,049
54,086	-4,096	331,169	164,825
55,101	-4,116	330,999	164,703
56,115	-4,025	330,734	164,659
57,130	-4,199	330,261	164,212
58,144	-4,292	330,049	163,987
59,159	-4,179	329,854	164,003
60,174	-4,242	329,546	163,765
61,188	-4,161	329,343	163,741
62,203	-4,271	328,976	163,420
63,217	-4,101	328,818	163,517
64,232	-4,255	328,501	163,172
65,247	-4,169	328,180	163,095
66,261	-4,246	327,929	162,869
67,276	-4,216	327,673	162,761
68,290	-4,147	327,534	162,755
69,305	-4,144	327,293	162,624
70,320	-4,132	326,917	162,436
71,334	-4,166	326,758	162,304
72,349	-4,132	326,492	162,196
73,363	-4,131	326,155	162,015
74,378	-4,219	325,965	161,809
75,393	-4,076	325,470	161,708
76,407	-4,142	325,403	161,587
77,422	-3,969	325,056	161,592
78,436	-4,132	324,761	161,249
79,451	-4,193	324,551	161,063
80,466	-4,003	324,234	161,102
81,480	-4,131	324,180	160,920
82,495	-4,006	323,739	160,825
83,509	-4,008	323,746	160,811
84,524	-4,149	323,565	160,552
85,539	-4,108	323,189	160,395
86,553	-4,249	323,120	160,191
87,568	-4,082	322,696	160,151
88,582	-4,109	322,384	159,953
89,597	-3,955	322,094	159,963
90,611	-4,109	321,922	159,694
91,626	-4,231	321,867	159,519
92,641	-4,221	321,633	159,399
93,655	-4,057	321,241	159,371
94,670	-4,314	321,068	158,989
95,684	-4,078	320,579	158,991
96,699	-4,236	320,538	158,784
97,714	-4,131	320,308	158,771
98,728	-4,054	320,046	158,711
99,743	-3,982	319,890	158,698
100,757	-4,126	319,736	158,450
101,772	-4,185	319,323	158,167
102,787	-4,230	319,226	158,056
103,801	-4,056	318,845	158,043
104,816	-4,189	318,674	157,799
105,830	-4,051	318,441	157,819
106,845	-3,978	318,215	157,773
107,860	-4,153	317,974	157,449
108,874	-4,232	317,623	157,175
109,889	-4,076	317,505	157,272
110,903	-4,037	317,148	157,124
111,918	-4,074	317,004	156,998
112,933	-4,249	316,868	156,728
113,947	-4,131	316,508	156,663
114,962	-4,316	316,296	156,345
115,976	-4,203	316,194	156,402
116,991	-4,049	315,913	156,415
118,006	-4,127	315,722	156,223
119,020	-4,267	315,690	156,042
120,035	-4,153	315,381	155,998
121,049	-4,051	315,097	155,953
122,064	-4,182	315,063	155,782
123,079	-4,062	314,629	155,682
124,093	-4,151	314,374	155,446
125,108	-3,980	314,226	155,543
126,122	-3,960	313,881	155,379
127,137	-3,939	313,757	155,327
128,151	-4,016	313,725	155,215
129,166	-4,112	313,196	154,837
130,181	-4,136	313,073	154,736
131,195	-4,153	312,901	154,619
132,210	-4,149	312,628	154,475
133,224	-4,143	312,372	154,341
134,239	-4,171	312,064	154,146
135,254	-3,950	311,872	154,272
136,268	-4,003	311,625	154,079
137,283	-4,074	311,486	153,921
138,297	-3,976	311,105	153,823
139,312	-3,963	310,828	153,686
140,327	-4,063	310,575	153,441
141,341	-4,030	310,542	153,447
142,356	-4,033	310,216	153,270
143,370	-4,200	310,123	153,033
144,385	-4,119	309,946	153,018
145,400	-4,116	309,673	152,872
146,414	-4,058	309,521	152,845
147,429	-3,910	309,185	152,821
148,443	-4,110	308,928	152,470
149,458	-4,177	308,758	152,301
150,473	-4,036	308,393	152,257
151,487	-3,898	308,271	152,327
152,502	-3,961	308,024	152,125
153,516	-4,017	307,810	151,948
154,531	-4,137	307,698	151,753
155,546	-4,087	307,477	151,683
156,560	-4,090	307,261	151,560
157,575	-3,998	307,053	151,540
158,589	-4,004	306,842	151,416
159,604	-4,017	306,545	151,243
160,619	-3,912	306,347	151,240
161,633	-4,105	306,202	150,954
162,648	-3,956	306,071	151,032
163,662	-4,036	305,846	150,824
164,677	-3,962	305,683	150,807
165,692	-4,067	305,468	150,579
166,706	-3,996	305,111	150,462
167,721	-4,151	305,001	150,234
168,735	-4,041	304,802	150,237
169,750	-4,045	304,535	150,087
170,764	-4,199	304,435	149,865
171,779	-4,007	304,087	149,879
172,794	-4,043	304,096	149,833
173,808	-4,164	303,797	149,548
174,823	-3,931	303,575	149,665
175,837	-3,965	303,384	149,523
176,852	-4,123	303,148	149,231
177,867	-4,172	302,964	149,076
178,881	-4,090	302,787	149,060
179,896	-4,136	302,613	148,913
180,910	-3,906	302,234	148,950
181,925	-4,076	302,070	148,682
182,940	-3,992	301,923	148,682
183,954	-4,018	301,820	148,592
184,969	-3,990	301,652	148,524
185,983	-3,910	301,404	148,470
186,998	-3,885	301,224	148,394
188,013	-4,028	301,005	148,127
189,027	-4,074	300,622	147,878
190,042	-4,006	300,444	147,847
191,056	-4,163	300,228	147,568
192,071	-4,120	300,091	147,532
193,086	-4,025	299,836	147,489
194,100	-4,179	299,890	147,347
195,115	-4,061	299,461	147,242
196,129	-3,948	299,299	147,264
197,144	-4,101	299,063	146,980
198,159	-4,166	298,741	146,742
199,173	-4,157	298,659	146,697
200,188	-4,109	298,261	146,537
201,202	-4,293	298,187	146,303
202,217	-3,916	297,969	146,563
203,232	-3,907	297,767	146,460
204,246	-4,127	297,533	146,110
205,261	-3,950	297,248	146,136
206,275	-3,959	296,957	145,970
207,290	-3,991	297,016	145,954
208,304	-4,085	296,752	145,716
209,319	-3,965	296,517	145,708
210,334	-3,880	296,237	145,644
211,348	-4,110	296,197	145,380
212,363	-4,064	296,026	145,329
213,377	-3,991	295,680	145,219
214,392	-4,050	295,526	145,072
215,407	-4,064	295,462	145,013
216,421	-3,998	295,264	144,969
217,436	-3,963	295,068	144,896
218,450	-4,142	294,729	144,538
219,465	-4,102	294,559	144,481
220,480	-4,047	294,477	144,482
221,494	-4,032	294,028	144,264
222,509	-4,022	293,931	144,214
223,523	-4,060	293,793	144,096
224,538	-3,997	293,621	144,061
225,553	-4,052	293,408	143,889
226,567	-4,130	293,259	143,725
227,582	-4,099	292,981	143,608
228,596	-4,116	292,968	143,571
229,611	-4,043	292,737	143,518
230,626	-3,919	292,479	143,500
231,640	-4,063	292,347	143,281
232,655	-3,918	292,040	143,261
233,669	-3,904	291,764	143,127
234,684	-3,849	291,722	143,147
235,699	-3,958	291,542	142,939
236,713	-3,888	291,354	142,903
237,728	-4,058	291,101	142,599
238,742	-3,926	290,806	142,571
239,757	-4,044	290,550	142,317
240,772	-4,092	290,551	142,258
241,786	-4,054	290,250	142,136
242,801	-3,966	290,048	142,109
243,815	-3,859	289,798	142,079
244,830	-3,949	289,726	141,943
245,844	-4,052	289,621	141,778
246,859	-4,144	289,414	141,574
247,874	-4,112	289,250	141,513
248,888	-3,906	288,929	141,544
249,903	-4,176	288,885	141,247
250,917	-4,184	288,695	141,133
251,932	-4,120	288,478	141,076
252,947	-4,304	288,057	140,680
253,961	-4,897	287,755	139,944
254,976	-5,116	287,335	139,516
255,990	-5,054	287,213	139,504
257,005	-3,483	287,852	141,326
258,020	-1,174	288,641	143,946
259,034	-0,034	288,879	145,159
260,049	0,496	288,874	145,658
261,063	0,960	288,862	146,090
262,078	1,341	288,779	146,404
263,093	1,736	288,674	146,721
264,107	1,904	288,674	146,871
265,122	2,037	288,551	146,924
266,136	2,197	288,349	146,963
267,151	2,162	288,148	146,814
268,166	2,204	287,992	146,762
269,180	2,268	287,752	146,687
270,195	2,270	287,637	146,618
271,209	2,186	287,300	146,352
272,224	2,215	287,285	146,360
273,239	2,067	287,103	146,112
274,253	1,974	286,848	145,879
275,268	1,987	286,624	145,764
276,282	2,021	286,443	145,692
277,297	1,885	286,292	145,472
278,312	1,861	286,096	145,337
279,326	2,033	285,729	145,301
280,341	2,121	285,560	145,286
281,355	1,966	285,363	145,025
282,370	2,024	285,230	145,001
283,384	1,915	285,104	144,820
284,399	2,022	284,946	144,828
285,414	1,946	284,737	144,636
286,428	2,070	284,470	144,606
287,443	1,938	284,426	144,445
288,457	1,952	284,161	144,310
289,472	1,915	283,959	144,161
290,487	1,894	283,791	144,043
291,501	1,783	283,538	143,796
292,516	1,820	283,343	143,720
293,530	1,951	283,207	143,762
294,545	1,785	283,067	143,520
295,560	1,972	282,812	143,555
296,574	1,627	282,665	143,142
297,589	1,944	282,350	143,268
298,603	1,809	282,164	143,034
299,618	1,798	282,173	143,015
300,633	1,977	281,915	143,041
301,647	1,974	281,717	142,925
302,662	1,923	281,581	142,794
303,676	2,001	281,405	142,766
304,691	2,114	281,237	142,775
305,706	2,224	280,996	142,743
306,720	2,129	280,887	142,585
307,735	1,945	280,722	142,316
308,749	1,964	280,645	142,283
309,764	1,969	280,432	142,166
310,779	1,992	280,198	142,057
311,793	2,113	279,846	141,979
312,808	2,085	279,682	141,857
313,822	1,920	279,662	141,680
314,837	2,013	279,470	141,657
315,852	2,032	279,319	141,586
316,866	2,024	279,099	141,454
317,881	1,958	278,919	141,288
318,895	1,829	278,751	141,071
319,910	1,994	278,555	141,112
320,925	1,985	278,376	141,001
321,939	2,136	278,239	141,059
322,954	1,933	278,053	140,763
323,968	2,195	277,835	140,884
324,983	2,212	277,630	140,783
325,997	1,984	277,556	140,522
327,012	1,976	277,298	140,372
328,027	2,087	277,134	140,379
329,041	2,108	276,978	140,306
330,056	2,118	276,788	140,207
331,070	2,115	276,634	140,114
332,085	2,016	276,538	139,961
333,100	2,062	276,190	139,815
334,114	2,065	276,037	139,728
335,129	2,009	276,007	139,649
336,143	2,042	275,743	139,533
337,158	2,196	275,599	139,589
338,173	2,216	275,281	139,434
339,187	2,145	275,236	139,333
340,202	2,317	274,885	139,301
341,216	2,160	274,828	139,116
342,231	2,177	274,667	139,037
343,246	2,015	274,536	138,811
344,260	2,253	274,219	138,855
345,275	2,294	274,133	138,836
346,289	2,304	273,986	138,759
347,304	2,167	273,805	138,530
348,319	2,175	273,579	138,411
349,333	2,162	273,412	138,302
350,348	2,328	273,204	138,336
351,362	2,176	272,992	138,077
352,377	2,245	272,932	138,098
353,392	2,137	272,722	137,881
354,406	2,055	272,577	137,721
355,421	191,494	1348,082	1426,805
356,435	154,607	1479,191	1426,917
