DTS Sentinel unit serial number:	SN410029Multiplexer serial number:	ORYXHardware model number:	OX2-SRSoftware version number:	ORYX F/W v4,00 Oryx Data Collector v3.7.2.0data status	okinstallation	B4 Nyhavnadifferential loss correction	single-endedforward channel	channel 2reverse channel	N/Adate	2023/12/15time	20:10:13forward acquisition time	300,00reverse acquisition time	0,00gamma	499,1914k internal	0,3136k external	0,3136temperature offset calibration	1,0000default loss term (dB/km)	0,3820temperature slope calibration	1,0000multiplexer offset coefficient	1,0000multiplexer slope coefficient	1,0000fibre end	0,00T internal ref (°C)	20,38T ext. ref 1 (°C)	5,89T ext. ref 2 (°C)	6,05length (m)	temperature (°C)	Stokes	anti-Stokes-744,400	800,000	-0,036	-0,085
-743,385	-200,000	-0,159	-0,000
-742,371	-68,088	0,134	0,039
-741,356	26,445	-0,161	0,100
-740,342	4,683	-0,026	0,014
-739,327	-71,543	-0,287	0,079
-738,312	-200,000	0,018	0,063
-737,298	-140,897	-0,292	0,022
-736,283	424,302	0,027	-0,044
-735,269	-36,391	-0,260	0,103
-734,254	264,131	0,024	-0,031
-733,239	-82,238	-0,490	-0,117
-732,225	-39,658	0,145	-0,056
-731,210	800,000	0,058	0,128
-730,196	-200,000	0,002	-0,213
-729,181	49,363	-0,020	-0,014
-728,167	800,000	-0,037	-0,076
-727,152	103,360	0,086	-0,074
-726,137	-200,000	0,005	0,044
-725,123	202,020	-0,098	-0,112
-724,108	800,000	0,031	0,064
-723,094	-111,953	-0,094	-0,014
-722,079	-127,178	-0,112	0,012
-721,064	800,000	-0,012	0,026
-720,050	-86,872	0,076	0,017
-719,035	331,685	-0,070	0,101
-718,021	-200,000	0,012	-0,091
-717,006	-71,506	-0,042	-0,011
-715,991	117,091	-0,184	-0,167
-714,977	-200,000	-0,022	-0,127
-713,962	-159,515	-0,114	0,005
-712,948	800,000	-0,040	-0,120
-711,933	-18,913	0,065	0,030
-710,918	-200,000	-0,035	0,133
-709,904	800,000	-0,014	-0,043
-708,889	432,099	-0,100	-0,161
-707,875	-200,000	0,029	-0,117
-706,860	561,113	0,049	0,088
-705,845	-130,202	-0,043	0,004
-704,831	-200,000	-0,011	0,068
-703,816	-200,000	-0,057	0,000
-702,802	248,857	-0,050	0,063
-701,787	800,000	-0,047	-0,140
-700,772	586,409	-0,074	-0,136
-699,758	-111,414	0,083	-0,012
-698,743	-200,000	-0,004	-0,071
-697,729	11,542	0,061	0,034
-696,714	-50,291	0,052	-0,018
-695,699	450,759	0,049	-0,081
-694,685	-200,000	-0,025	-0,214
-693,670	-57,244	-0,021	-0,007
-692,656	-133,910	-0,041	-0,004
-691,641	-110,652	0,031	-0,005
-690,627	-30,983	-0,151	0,063
-689,612	-200,000	0,045	0,185
-688,597	-97,672	-0,144	0,027
-687,583	140,714	-0,042	-0,041
-686,568	143,351	-0,032	-0,031
-685,554	119,539	-0,037	0,034
-684,539	-108,365	0,067	-0,011
-683,524	429,082	-0,028	0,044
-682,510	154,211	0,071	0,072
-681,495	30,379	-0,026	-0,016
-680,481	800,000	-0,040	-0,085
-679,466	73,120	-0,081	-0,062
-678,451	14,743	0,123	-0,071
-677,437	-156,015	0,039	0,002
-676,422	800,000	-0,018	-0,054
-675,408	-117,582	-0,086	0,011
-674,393	16,608	-0,079	0,046
-673,378	418,573	-0,034	-0,053
-672,364	800,000	-0,050	-0,111
-671,349	-200,000	-0,045	-0,158
-670,335	-26,473	-0,063	0,027
-669,320	225,106	0,040	0,047
-668,305	-68,005	0,104	-0,030
-667,291	800,000	-0,080	-0,167
-666,276	426,769	-0,026	-0,041
-665,262	-200,000	0,000	-0,098
-664,247	-58,498	-0,124	-0,039
-663,232	141,403	-0,059	0,058
-662,218	88,722	0,079	-0,065
-661,203	378,137	-0,022	0,033
-660,189	800,000	0,009	-0,023
-659,174	-127,354	-0,121	-0,013
-658,159	168,089	-0,061	0,064
-657,145	186,419	-0,073	0,080
-656,130	-200,000	0,035	0,151
-655,116	554,002	0,057	0,101
-654,101	-4,397	-0,054	0,027
-653,086	-200,000	0,013	0,045
-652,072	99,211	-0,095	-0,081
-651,057	-200,000	-0,031	0,117
-650,043	-23,261	-0,065	-0,029
-649,028	800,000	0,034	-0,109
-648,014	-200,000	0,011	0,049
-646,999	-10,106	-0,043	0,021
-645,984	165,239	0,019	-0,019
-644,970	282,589	0,046	0,061
-643,955	-68,452	-0,176	-0,050
-642,941	-200,000	-0,019	0,090
-641,926	109,615	0,068	-0,061
-640,911	800,000	-0,028	-0,073
-639,897	-164,659	0,084	0,003
-638,882	337,441	-0,043	0,062
-637,868	58,368	-0,099	0,072
-636,853	225,052	-0,075	-0,090
-635,838	58,883	-0,039	0,028
-634,824	6,970	0,095	0,052
-633,809	497,040	0,038	0,066
-632,795	-146,090	-0,095	-0,006
-631,780	800,000	-0,016	0,041
-630,765	-200,000	-0,027	-0,144
-629,751	-80,979	-0,129	-0,031
-628,736	-200,000	-0,025	-0,095
-627,722	-200,000	-0,048	-0,205
-626,707	59,068	-0,118	0,086
-625,692	368,708	0,025	0,038
-624,678	31,223	0,121	-0,076
-623,663	800,000	0,037	0,106
-622,649	-73,664	-0,056	0,015
-621,634	133,683	-0,143	-0,137
-620,619	-113,156	0,078	0,011
-619,605	3,085	0,167	-0,089
-618,590	-18,943	-0,097	-0,044
-617,576	19,921	0,040	-0,024
-616,561	-46,525	-0,070	-0,025
-615,546	-3,733	-0,088	-0,045
-614,532	800,000	0,033	0,076
-613,517	-105,931	-0,141	-0,023
-612,503	-200,000	0,015	-0,074
-611,488	-200,000	-0,004	0,027
-610,474	-125,221	0,217	-0,024
-609,459	58,704	0,092	0,067
-608,444	492,798	-0,131	-0,223
-607,430	-200,000	0,031	-0,164
-606,415	-200,000	0,004	-0,025
-605,401	-149,076	0,082	-0,005
-604,386	-16,728	0,084	0,039
-603,371	-200,000	-0,005	-0,035
-602,357	-200,000	-0,001	0,006
-601,342	-192,905	-0,143	0,001
-600,328	33,900	0,062	-0,040
-599,313	276,879	-0,051	0,067
-598,298	238,592	0,022	-0,027
-597,284	-200,000	0,013	-0,047
-596,269	800,000	-0,083	0,171
-595,255	63,674	-0,035	-0,026
-594,240	66,905	0,019	-0,015
-593,225	-200,000	-0,015	-0,072
-592,211	800,000	-0,076	-0,163
-591,196	800,000	-0,032	-0,066
-590,182	215,264	-0,013	0,015
-589,167	-70,694	0,100	-0,028
-588,152	-85,761	0,083	-0,019
-587,138	800,000	0,025	-0,079
-586,123	-200,000	-0,048	-0,158
-585,109	354,851	-0,039	0,058
-584,094	-9,440	-0,031	0,015
-583,079	313,743	0,077	0,107
-582,065	-149,080	-0,034	-0,002
-581,050	53,496	0,141	0,099
-580,036	254,484	0,061	0,078
-579,021	-95,956	-0,167	-0,032
-578,006	-200,000	0,003	-0,023
-576,992	800,000	-0,038	-0,086
-575,977	40,460	0,117	-0,078
-574,963	43,175	0,052	0,035
-573,948	-200,000	0,009	0,114
-572,934	800,000	0,042	0,100
-571,919	800,000	0,003	-0,011
-570,904	423,604	-0,063	-0,099
-569,890	269,748	-0,081	-0,105
-568,875	800,000	0,011	0,033
-567,861	286,726	0,042	0,057
-566,846	800,000	0,022	0,065
-565,831	-200,000	0,021	0,080
-564,817	-33,959	0,046	-0,019
-563,802	111,319	-0,131	-0,116
-562,788	-110,413	0,099	-0,015
-561,773	703,818	0,077	0,151
-560,758	-160,604	0,225	-0,009
-559,744	-72,745	0,235	0,063
-558,729	-137,379	-0,040	-0,003
-557,715	-200,000	-0,000	0,003
-556,700	-75,531	-0,023	0,006
-555,685	234,107	-0,063	-0,077
-554,671	101,569	-0,070	0,060
-553,656	495,466	-0,039	0,067
-552,642	110,226	0,153	0,135
-551,627	800,000	-0,018	0,037
-550,612	65,992	0,125	0,093
-549,598	-200,000	-0,000	0,029
-548,583	-200,000	-0,014	-0,078
-547,569	296,681	-0,047	-0,064
-546,554	-200,000	-0,026	-0,145
-545,539	-4,420	0,107	0,054
-544,525	288,162	0,042	0,056
-543,510	500,103	0,008	0,014
-542,496	-200,000	0,021	0,075
-541,481	-143,263	0,052	-0,004
-540,466	391,529	0,013	0,020
-539,452	-200,000	0,018	-0,106
-538,437	-200,000	-0,022	-0,097
-537,423	162,622	0,074	0,076
-536,408	29,771	0,080	0,050
-535,393	-200,000	0,019	-0,116
-534,379	191,525	0,090	0,100
-533,364	800,000	0,037	-0,099
-532,350	-5,417	0,038	0,019
-531,335	386,100	0,045	0,068
-530,321	-196,620	0,149	0,001
-529,306	-93,905	-0,082	0,016
-528,291	377,660	0,032	0,048
-527,277	-40,088	-0,087	0,033
-526,262	-200,000	0,016	-0,128
-525,248	800,000	0,065	-0,189
-524,233	110,759	0,107	-0,094
-523,218	-200,000	0,019	0,139
-522,204	340,501	-0,018	-0,025
-521,189	70,896	0,020	0,015
-520,175	330,014	0,121	-0,171
-519,160	-85,528	-0,077	-0,017
-518,145	-200,000	-0,009	-0,060
-517,131	800,000	0,031	-0,066
-516,116	-21,787	-0,098	0,044
-515,102	88,634	-0,065	-0,053
-514,087	-129,304	-0,008	-0,001
-513,072	50,064	-0,085	-0,059
-512,058	187,912	-0,075	0,082
-511,043	5,283	0,102	0,055
-510,029	54,336	0,080	0,057
-509,014	800,000	0,033	0,085
-507,999	13,961	-0,105	0,060
-506,985	-58,125	-0,088	0,028
-505,970	-200,000	0,002	-0,133
-504,956	278,401	0,052	0,068
-503,941	137,778	-0,112	0,108
-502,926	70,682	0,025	-0,019
-501,912	-22,980	0,084	-0,037
-500,897	150,689	-0,018	0,018
-499,883	-26,490	-0,097	0,042
-498,868	216,200	-0,123	-0,144
-497,853	112,058	0,034	-0,030
-496,839	800,000	0,032	0,072
-495,824	8,981	0,015	-0,009
-494,810	154,762	-0,037	-0,038
-493,795	-146,705	0,039	0,002
-492,781	109,640	-0,047	-0,042
-491,766	-5,264	0,056	0,028
-490,751	305,180	-0,020	-0,027
-489,737	31,653	-0,077	0,048
-488,722	-138,603	-0,122	-0,010
-487,708	-200,000	-0,009	-0,104
-486,693	446,397	-0,054	0,087
-485,678	333,888	0,025	-0,035
-484,664	-200,000	-0,011	-0,066
-483,649	-1,983	0,041	-0,021
-482,635	-200,000	0,016	-0,090
-481,620	22,219	0,068	-0,041
-480,605	383,787	0,051	0,077
-479,591	-200,000	0,020	0,084
-478,576	44,562	0,074	0,050
-477,562	-200,000	0,013	0,046
-476,547	-200,000	-0,019	-0,176
-475,532	-200,000	-0,024	0,114
-474,518	76,664	0,057	-0,044
-473,503	-129,509	-0,050	-0,005
-472,489	65,505	-0,068	0,050
-471,474	98,127	-0,059	-0,050
-470,459	118,165	-0,065	-0,059
-469,445	-149,949	0,051	-0,003
-468,430	-200,000	-0,032	-0,155
-467,416	-200,000	0,018	-0,061
-466,401	195,526	-0,043	0,048
-465,386	20,183	0,061	0,036
-464,372	318,613	0,026	0,036
-463,357	800,000	0,033	-0,087
-462,343	96,660	-0,086	-0,072
-461,328	-31,271	-0,039	0,016
-460,313	800,000	0,055	-0,150
-459,299	-109,379	-0,063	-0,010
-458,284	-200,000	0,026	0,109
-457,270	-166,633	0,103	0,003
-456,255	30,393	-0,079	0,049
-455,241	800,000	-0,010	-0,028
-454,226	800,000	-0,030	-0,061
-453,211	118,474	-0,030	0,027
-452,197	-200,000	0,016	0,170
-451,182	32,914	0,098	0,062
-450,168	19,788	-0,065	0,039
-449,153	800,000	-0,045	-0,132
-448,138	800,000	-0,031	-0,092
-447,124	59,757	-0,029	-0,021
-446,109	20,001	-0,087	0,051
-445,095	42,389	0,131	-0,087
-444,080	-112,995	-0,065	0,009
-443,065	-200,000	0,001	0,143
-442,051	18,694	-0,081	0,047
-441,036	114,111	-0,038	-0,034
-440,022	-53,319	0,089	0,030
-439,007	76,055	-0,096	0,074
-437,992	-200,000	0,024	-0,090
-436,978	-121,115	-0,049	0,006
-435,963	-141,321	0,043	-0,003
-434,949	-200,000	-0,023	-0,115
-433,934	490,545	-0,055	0,092
-432,919	-111,881	-0,015	0,002
-431,905	-200,000	-0,034	-0,140
-430,890	800,000	-0,069	0,141
-429,876	326,415	0,058	-0,081
-428,861	29,497	0,029	0,018
-427,846	-13,699	-0,059	-0,028
-426,832	178,552	-0,060	0,065
-425,817	-159,314	-0,085	0,003
-424,803	-128,978	0,005	-0,000
-423,788	800,000	0,032	0,074
-422,773	800,000	-0,032	0,099
-421,759	-70,588	0,106	0,029
-420,744	126,369	0,012	-0,011
-419,730	606,211	-0,060	0,111
-418,715	-95,575	-0,034	0,007
-417,701	-200,000	-0,035	-0,189
-416,686	34,445	0,016	0,010
-415,671	-64,037	-0,064	-0,019
-414,657	-200,000	0,003	-0,119
-413,642	18,490	0,075	-0,044
-412,628	-200,000	0,003	-0,079
-411,613	-43,744	-0,077	-0,028
-410,598	94,204	-0,083	0,069
-409,584	116,112	-0,105	0,094
-408,569	18,008	-0,061	0,035
-407,555	119,190	0,069	0,062
-406,540	-200,000	0,000	0,109
-405,525	14,907	-0,064	-0,037
-404,511	276,411	-0,106	-0,138
-403,496	-79,108	-0,096	-0,024
-402,482	582,748	-0,075	0,136
-401,467	-102,718	-0,060	-0,010
-400,452	122,555	0,148	0,135
-399,438	-13,111	0,056	-0,026
-398,423	-13,724	-0,167	-0,079
-397,409	-149,062	-0,027	-0,002
-396,394	-38,011	-0,141	0,054
-395,379	138,482	0,081	0,077
-394,365	5,176	0,062	-0,033
-393,350	798,989	-0,042	0,084
-392,336	800,000	0,047	0,132
-391,321	-77,757	0,050	-0,013
-390,306	-200,000	0,022	0,108
-389,292	169,449	-0,072	0,075
-388,277	800,000	0,018	-0,055
-387,263	392,376	0,025	0,038
-386,248	-21,230	0,120	0,054
-385,233	-133,720	-0,086	-0,008
-384,219	13,454	-0,067	0,038
-383,204	800,000	0,053	-0,120
-382,190	298,359	0,022	0,029
-381,175	-33,219	-0,042	0,017
-380,160	79,918	-0,093	0,073
-379,146	-82,560	0,098	0,023
-378,131	390,442	0,100	-0,152
-377,117	800,000	-0,051	0,139
-376,102	-200,000	-0,014	-0,048
-375,088	800,000	0,023	0,074
-374,073	231,474	-0,077	-0,092
-373,058	196,830	-0,062	0,069
-372,044	-137,829	0,089	-0,007
-371,029	-108,069	0,087	0,014
-370,015	-35,420	-0,088	0,035
-369,000	30,280	0,062	0,039
-367,985	-200,000	-0,000	-0,070
-366,971	133,370	-0,134	-0,127
-365,956	800,000	0,068	-0,152
-364,942	-200,000	0,016	-0,080
-363,927	-33,645	-0,064	0,026
-362,912	-117,954	0,116	0,015
-361,898	-200,000	-0,014	0,132
-360,883	800,000	-0,070	0,157
-359,869	-200,000	-0,010	-0,044
-358,854	-200,000	-0,018	0,173
-357,839	389,236	0,098	-0,148
-356,825	800,000	-0,025	-0,081
-355,810	32,775	0,075	-0,048
-354,796	278,582	0,069	-0,090
-353,781	116,268	0,086	-0,077
-352,766	94,409	-0,015	-0,013
-351,752	800,000	-0,034	0,083
-350,737	-32,761	0,105	0,043
-349,723	800,000	0,070	0,151
-348,708	-200,000	-0,063	0,213
-347,693	-47,087	-0,090	0,032
-346,679	-200,000	-0,047	-0,164
-345,664	50,077	0,034	0,023
-344,650	-82,833	0,046	-0,011
-343,635	87,018	0,050	-0,040
-342,620	201,232	0,027	-0,031
-341,606	292,143	0,023	0,031
-340,591	264,030	0,030	-0,039
-339,577	800,000	-0,072	0,148
-338,562	-200,000	0,022	-0,075
-337,548	-146,324	-0,109	0,007
-336,533	222,815	0,104	-0,122
-335,518	-18,386	0,104	0,047
-334,504	-2,923	-0,023	0,012
-333,489	-132,636	-0,047	-0,004
-332,475	192,996	0,031	-0,034
-331,460	-200,000	-0,004	-0,074
-330,445	237,466	-0,003	-0,004
-329,431	-108,166	-0,033	-0,005
-328,416	630,814	-0,021	0,039
-327,402	19,129	0,159	0,093
-326,387	800,000	-0,043	0,124
-325,372	32,691	-0,052	0,033
-324,358	-200,000	0,004	-0,022
-323,343	-166,995	-0,101	-0,003
-322,329	800,000	-0,026	-0,057
-321,314	800,000	0,023	0,072
-320,299	-115,577	0,069	0,009
-319,285	-56,601	0,063	0,020
-318,270	50,993	0,021	0,014
-317,256	800,000	-0,019	-0,053
-316,241	-127,768	0,069	-0,007
-315,226	390,648	0,057	0,087
-314,212	-200,000	0,025	0,090
-313,197	-129,317	0,132	-0,013
-312,183	-200,000	0,025	0,111
-311,168	-11,364	0,040	-0,019
-310,153	-104,702	-0,087	-0,014
-309,139	760,418	0,085	0,169
-308,124	-109,516	-0,026	-0,004
-307,110	-124,249	0,107	0,012
-306,095	-68,039	0,103	-0,029
-305,080	26,890	0,083	-0,051
-304,066	60,741	-0,101	0,073
-303,051	438,452	0,091	-0,145
-302,037	-115,700	0,130	0,018
-301,022	-200,000	-0,016	-0,084
-300,008	32,135	0,057	0,036
-298,993	33,262	0,063	0,040
-297,978	800,000	-0,066	0,145
-296,964	-200,000	0,011	0,042
-295,949	28,024	-0,106	-0,065
-294,935	231,463	0,089	-0,107
-293,920	55,578	0,041	-0,029
-292,905	627,383	-0,029	-0,054
-291,891	-200,000	0,008	0,039
-290,876	800,000	0,051	0,110
-289,862	107,625	0,155	0,135
-288,847	-83,335	-0,164	0,038
-287,832	70,527	-0,103	-0,078
-286,818	-200,000	0,015	-0,124
-285,803	1,242	-0,043	0,023
-284,789	-200,000	0,013	-0,099
-283,774	653,111	-0,024	0,046
-282,759	72,942	-0,052	0,040
-281,745	-156,386	0,086	0,004
-280,730	62,776	-0,118	-0,086
-279,716	-200,000	0,004	-0,029
-278,701	-200,000	0,007	0,105
-277,686	707,589	-0,033	-0,063
-276,672	-151,383	0,216	0,012
-275,657	-36,107	0,041	-0,016
-274,643	-200,000	-0,015	-0,067
-273,628	-200,000	0,005	-0,017
-272,613	800,000	-0,046	0,117
-271,599	52,563	-0,026	0,018
-270,584	12,265	0,053	-0,030
-269,570	446,305	0,047	-0,075
-268,555	186,715	-0,098	0,106
-267,540	724,577	0,013	0,026
-266,526	1,959	-0,105	0,055
-265,511	-78,615	-0,086	-0,021
-264,497	64,105	0,055	0,040
-263,482	-33,948	-0,100	-0,040
-262,467	52,366	0,012	-0,008
-261,453	800,000	0,051	0,125
-260,438	-200,000	0,003	-0,022
-259,424	101,206	0,029	0,024
-258,409	-200,000	0,004	-0,059
-257,395	13,265	-0,022	0,012
-256,380	203,443	0,097	0,109
-255,365	-200,000	-0,029	-0,146
-254,351	-71,681	-0,085	0,023
-253,336	800,000	0,037	0,077
-252,322	159,271	-0,080	-0,081
-251,307	741,918	-0,041	-0,081
-250,292	95,257	0,023	0,019
-249,278	800,000	0,039	0,100
-248,263	800,000	0,001	0,002
-247,249	214,380	-0,017	-0,019
-246,234	310,724	-0,128	-0,175
-245,219	-61,670	-0,058	-0,018
-244,205	-171,877	-0,123	0,003
-243,190	333,706	0,072	0,102
-242,176	121,787	0,079	-0,072
-241,161	38,050	-0,120	0,078
-240,146	91,962	0,039	-0,032
-239,132	800,000	0,015	-0,039
-238,117	-9,741	-0,147	0,071
-237,103	60,762	0,113	-0,082
-236,088	-167,468	-0,081	-0,002
-235,073	800,000	0,035	-0,085
-234,059	-129,625	-0,055	-0,005
-233,044	126,083	0,034	-0,031
-232,030	-200,000	-0,004	-0,018
-231,015	-200,000	-0,024	-0,086
-230,000	-200,000	-0,019	-0,079
-228,986	-200,000	0,038	0,197
-227,971	-136,989	0,079	-0,007
-226,957	319,689	-0,017	0,023
-225,942	20,307	0,059	0,034
-224,927	70,198	-0,032	0,024
-223,913	233,134	-0,088	0,105
-222,898	800,000	-0,051	-0,160
-221,884	-167,132	-0,050	-0,001
-220,869	800,000	0,026	-0,076
-219,855	5,291	0,087	0,046
-218,840	-77,363	-0,032	-0,008
-217,825	-81,413	-0,122	0,029
-216,811	-47,738	0,085	-0,030
-215,796	193,217	-0,060	-0,066
-214,782	-200,000	-0,015	-0,052
-213,767	47,352	0,044	0,030
-212,752	-200,000	0,021	0,073
-211,738	-79,490	-0,029	-0,007
-210,723	800,000	0,033	0,069
-209,709	234,577	-0,067	-0,081
-208,694	800,000	0,027	-0,075
-207,679	152,471	-0,110	0,109
-206,665	-200,000	0,001	0,050
-205,650	-128,049	0,074	-0,008
-204,636	265,158	0,051	-0,065
-203,621	768,680	0,023	-0,046
-202,606	-100,669	-0,095	-0,017
-201,592	221,747	-0,074	-0,086
-200,577	-145,658	0,083	-0,005
-199,563	658,523	-0,046	-0,087
-198,548	-73,980	0,040	-0,010
-197,533	113,766	0,069	0,061
-196,519	-200,000	0,030	0,124
-195,504	-49,352	-0,110	-0,038
-194,490	-200,000	-0,027	0,090
-193,475	-39,173	-0,078	-0,030
-192,460	-103,818	-0,066	-0,011
-191,446	800,000	-0,048	0,123
-190,431	800,000	-0,032	0,082
-189,417	800,000	-0,048	0,110
-188,402	-89,987	0,084	-0,018
-187,387	-112,286	-0,075	0,011
-186,373	79,517	0,029	-0,022
-185,358	-142,909	0,141	-0,010
-184,344	-58,822	0,154	-0,048
-183,329	-126,419	0,037	0,004
-182,315	116,135	-0,009	-0,008
-181,300	202,683	0,016	0,018
-180,285	-10,067	0,027	-0,013
-179,271	-132,982	-0,141	0,013
-178,256	44,690	-0,036	-0,024
-177,242	800,000	0,037	0,101
-176,227	267,155	0,046	0,059
-175,212	-37,094	0,118	-0,045
-174,198	15,416	-0,154	0,087
-173,183	145,213	0,089	-0,087
-172,169	374,786	-0,039	-0,058
-171,154	316,271	-0,103	-0,142
-170,139	304,290	0,043	-0,057
-169,125	-80,731	-0,112	0,027
-168,110	222,376	0,042	0,049
-167,096	-200,000	-0,010	0,053
-166,081	-93,161	-0,096	0,019
-165,066	800,000	-0,091	-0,183
-164,052	-62,059	-0,052	0,016
-163,037	17,705	0,024	0,014
-162,023	-119,118	0,066	-0,008
-161,008	292,243	0,060	-0,079
-159,993	6,036	0,242	0,130
-158,979	629,295	-0,041	0,076
-157,964	-200,000	-0,033	0,114
-156,950	-200,000	-0,001	-0,072
-155,935	430,865	-0,020	0,032
-154,920	165,098	-0,030	0,031
-153,906	87,028	0,107	0,085
-152,891	119,465	0,119	0,107
-151,877	-88,496	-0,133	0,029
-150,862	184,307	0,017	0,019
-149,847	-200,000	0,000	-0,019
-148,833	-98,794	0,022	0,004
-147,818	800,000	-0,034	-0,070
-146,804	800,000	-0,029	-0,092
-145,789	-91,274	-0,114	-0,023
-144,775	-200,000	-0,016	-0,145
-143,760	800,000	-0,048	-0,117
-142,745	800,000	0,039	-0,086
-141,731	-84,770	0,136	-0,031
-140,716	666,144	-0,108	0,203
-139,702	-200,000	-0,008	-0,050
-138,687	-98,042	0,054	-0,010
-137,672	54,566	-0,017	-0,012
-136,658	223,168	-0,162	-0,190
-135,643	-133,804	0,026	-0,002
-134,629	-200,000	-0,002	-0,045
-133,614	-200,000	0,020	0,086
-132,599	-69,959	0,150	0,041
-131,585	-200,000	-0,003	-0,035
-130,570	-143,186	-0,038	-0,003
-129,556	-50,637	0,015	0,005
-128,541	198,382	-0,101	-0,112
-127,526	-1,834	0,125	0,063
-126,512	-138,329	0,080	0,006
-125,497	262,684	0,084	0,106
-124,483	50,210	0,019	0,013
-123,468	-200,000	-0,032	-0,120
-122,453	800,000	-0,008	-0,024
-121,439	-200,000	0,040	-0,217
-120,424	-122,440	0,023	-0,003
-119,410	204,269	0,069	0,077
-118,395	-200,000	0,011	-0,059
-117,380	160,004	0,088	0,089
-116,366	51,656	-0,120	-0,083
-115,351	370,556	-0,027	0,040
-114,337	-200,000	-0,018	-0,154
-113,322	800,000	0,049	-0,154
-112,307	152,192	-0,068	-0,067
-111,293	6,645	0,153	0,082
-110,278	-96,341	0,029	0,006
-109,264	150,004	-0,044	0,043
-108,249	263,300	0,095	0,120
-107,234	63,677	-0,112	-0,081
-106,220	114,784	-0,053	-0,046
-105,205	322,829	-0,074	0,103
-104,191	-107,998	0,088	-0,014
-103,176	800,000	0,030	-0,060
-102,162	800,000	0,016	0,049
-101,147	131,267	-0,040	0,037
-100,132	-200,000	0,025	-0,132
-99,118	295,425	0,047	0,062
-98,103	-51,097	0,036	0,012
-97,089	57,768	0,185	0,131
-96,074	-200,000	-0,003	0,037
-95,059	-200,000	-0,016	0,061
-94,045	283,082	-0,064	0,083
-93,030	394,944	-0,055	-0,084
-92,016	-88,379	0,049	0,010
-91,001	-109,023	-0,154	-0,023
-89,986	-68,334	0,057	0,016
-88,972	-200,000	-0,012	0,053
-87,957	261,194	0,047	-0,059
-86,943	569,221	-0,060	0,107
-85,928	-200,000	-0,016	-0,157
-84,913	-19,691	-0,069	0,031
-83,899	135,036	0,024	-0,022
-82,884	692,657	-0,081	-0,155
-81,870	-200,000	0,010	-0,116
-80,855	60,620	0,147	0,105
-79,840	95,013	-0,071	-0,058
-78,826	122,050	0,010	-0,009
-77,811	327,987	-0,121	-0,168
-76,797	-200,000	0,022	-0,130
-75,782	226,808	-0,060	-0,071
-74,767	-200,000	-0,004	-0,043
-73,753	-50,150	0,093	0,032
-72,738	-93,879	-0,103	0,020
-71,724	141,401	-0,106	0,102
-70,709	800,000	-0,029	0,065
-69,694	-200,000	-0,018	-0,078
-68,680	777,701	-0,091	0,181
-67,665	-127,529	0,088	0,009
-66,651	-94,991	0,310	0,060
-65,636	284,857	-0,049	0,064
-64,622	39,236	-0,074	-0,048
-63,607	-26,067	0,057	-0,024
-62,592	-172,415	-0,118	0,003
-61,578	-96,011	0,100	0,019
-60,563	8,381	-0,056	-0,030
-59,549	286,165	-0,066	0,086
-58,534	-81,201	-1,503	-0,356
-57,519	708,650	-0,649	-1,246
-56,505	-200,000	-0,943	-4,593
-55,490	-135,350	0,763	-0,065
-54,476	800,000	4,903	11,468
-53,461	-200,000	14,941	263,285
-52,446	-200,000	699,088	2241,843
-51,432	576,341	1620,419	2872,034
-50,417	120,523	1626,186	1459,559
-49,403	79,074	1280,251	989,744
-48,388	37,790	1019,514	652,955
-47,373	22,856	979,563	578,532
-46,359	21,981	968,641	569,207
-45,344	20,701	964,253	562,445
-44,330	20,672	963,117	561,666
-43,315	20,489	961,498	560,108
-42,300	20,482	960,497	559,480
-41,286	20,450	959,553	558,805
-40,271	20,424	958,682	558,191
-39,257	20,435	957,717	557,644
-38,242	20,404	956,896	557,041
-37,227	20,370	955,978	556,377
-36,213	20,383	955,148	555,912
-35,198	20,377	954,018	555,212
-34,184	20,419	953,571	555,065
-33,169	20,393	952,531	554,355
-32,154	20,399	951,699	553,868
-31,140	20,438	950,687	553,382
-30,125	20,480	949,857	553,012
-29,111	20,447	949,089	552,436
-28,096	20,450	948,454	552,054
-27,082	20,449	947,746	551,619
-26,067	20,373	947,073	550,961
-25,052	20,428	946,242	550,632
-24,038	20,400	945,695	550,201
-23,023	20,405	945,014	549,801
-22,009	20,448	944,162	549,418
-20,994	20,409	943,714	549,013
-19,979	20,483	943,156	548,901
-18,965	20,410	942,528	548,282
-17,950	20,402	941,917	547,879
-16,936	20,355	941,186	547,285
-15,921	20,342	940,537	546,844
-14,906	20,330	939,852	546,387
-13,892	20,360	939,199	546,079
-12,877	20,278	938,696	545,507
-11,863	20,201	938,124	544,907
-10,848	20,242	937,609	544,717
-9,833	20,378	937,139	544,852
-8,819	20,367	936,281	544,297
-7,804	20,306	935,769	543,785
-6,790	20,295	935,260	543,434
-5,775	20,367	934,533	543,216
-4,760	20,363	933,836	542,776
-3,746	20,307	933,325	542,283
-2,731	20,148	932,603	541,341
-1,717	20,097	931,975	540,797
-0,702	20,103	931,342	540,425
0,313	19,914	930,771	540,318
1,327	22,580	928,281	547,161
2,342	30,222	804,732	494,897
3,356	25,268	505,835	302,671
4,371	1,795	372,736	193,331
5,386	-1,204	355,865	180,905
6,400	-2,651	349,551	175,943
7,415	-3,546	346,918	173,536
8,429	-3,645	345,445	172,667
9,444	-3,757	344,311	171,952
10,459	-3,644	343,593	171,712
11,473	-3,788	342,983	171,222
12,488	-3,633	342,550	171,172
13,502	-3,623	341,964	170,877
14,517	-3,909	341,553	170,321
15,531	-4,058	340,703	169,707
16,546	-4,051	340,477	169,587
17,561	-4,077	339,740	169,175
18,575	-4,017	339,364	169,043
19,590	-4,143	339,058	168,728
20,604	-3,979	338,623	168,688
21,619	-4,171	338,304	168,291
22,634	-4,082	337,961	168,209
23,648	-4,211	337,686	167,907
24,663	-4,235	337,362	167,703
25,677	-4,132	337,155	167,704
26,692	-4,230	336,879	167,439
27,707	-4,136	336,301	167,245
28,721	-4,100	336,024	167,133
29,736	-4,076	335,706	166,989
30,750	-4,234	335,528	166,704
31,765	-4,206	335,301	166,608
32,780	-4,201	334,865	166,382
33,794	-4,237	334,659	166,224
34,809	-4,180	334,311	166,101
35,823	-4,203	333,983	165,897
36,838	-4,079	333,698	165,882
37,853	-4,195	333,397	165,586
38,867	-4,098	332,995	165,482
39,882	-4,231	332,997	165,316
40,896	-4,382	332,633	164,949
41,911	-4,259	332,258	164,888
42,926	-4,296	332,003	164,705
43,940	-4,301	331,809	164,589
44,955	-4,216	331,430	164,482
45,969	-4,443	331,163	164,077
46,984	-4,495	330,995	163,920
47,999	-4,576	330,669	163,653
49,013	-4,735	330,443	163,347
50,028	-4,778	330,161	163,143
51,042	-4,671	329,826	163,084
52,057	-4,751	329,532	162,834
53,071	-4,700	329,275	162,750
54,086	-4,665	328,914	162,597
55,101	-4,643	328,864	162,583
56,115	-4,351	328,502	162,718
57,130	-4,314	328,478	162,732
58,144	-4,199	328,240	162,729
59,159	-4,081	328,013	162,734
60,174	-4,042	327,747	162,632
61,188	-4,034	327,478	162,493
62,203	-4,098	327,104	162,221
63,217	-4,027	326,807	162,138
64,232	-4,142	326,921	162,052
65,247	-3,973	326,446	161,990
66,261	-3,928	326,046	161,828
67,276	-4,172	325,803	161,421
68,290	-4,221	325,490	161,197
69,305	-4,267	325,297	161,037
70,320	-4,345	325,062	160,819
71,334	-4,302	324,814	160,729
72,349	-3,890	324,532	161,032
73,363	-3,879	324,455	160,992
74,378	-4,078	324,117	160,590
75,393	-4,003	323,846	160,524
76,407	-3,961	323,585	160,427
77,422	-4,263	323,546	160,059
78,436	-4,121	323,050	159,957
79,451	-3,955	322,758	159,981
80,466	-4,323	322,570	159,468
81,480	-4,293	322,219	159,314
82,495	-4,249	321,965	159,222
83,509	-4,208	321,684	159,114
84,524	-4,256	321,426	158,919
85,539	-4,378	321,134	158,627
86,553	-4,396	320,937	158,495
87,568	-4,270	320,682	158,493
88,582	-4,261	320,598	158,447
89,597	-4,337	320,335	158,220
90,611	-4,383	320,235	158,107
91,626	-4,154	319,908	158,181
92,641	-4,200	319,680	158,004
93,655	-4,316	319,385	157,718
94,670	-4,341	319,186	157,578
95,684	-4,257	318,833	157,481
96,699	-4,195	318,636	157,438
97,714	-4,165	318,373	157,326
98,728	-4,304	318,229	157,090
99,743	-4,326	317,917	156,898
100,757	-4,476	317,833	156,680
101,772	-4,318	317,408	156,628
102,787	-4,394	317,228	156,443
103,801	-4,189	316,991	156,533
104,816	-4,108	316,760	156,493
105,830	-4,068	316,605	156,445
106,845	-4,013	316,469	156,424
107,860	-4,146	316,320	156,192
108,874	-4,167	315,928	155,962
109,889	-4,183	315,696	155,817
110,903	-4,375	315,590	155,544
111,918	-4,177	315,319	155,609
112,933	-4,209	315,036	155,421
113,947	-4,169	314,859	155,363
114,962	-4,093	314,692	155,349
115,976	-4,137	314,406	155,146
116,991	-4,295	314,142	154,833
118,006	-4,353	313,924	154,650
119,020	-4,147	313,824	154,807
120,035	-4,032	313,700	154,854
121,049	-4,055	313,520	154,727
122,064	-4,140	313,275	154,502
123,079	-4,149	312,892	154,290
124,093	-4,413	312,809	153,954
125,108	-4,314	312,418	153,853
126,122	-4,374	312,070	153,604
127,137	-4,469	311,833	153,373
128,151	-4,341	311,646	153,403
129,166	-4,598	311,578	153,084
130,181	-4,340	311,229	153,172
131,195	-4,413	311,038	152,987
132,210	-4,307	310,687	152,912
133,224	-4,233	310,551	152,910
134,239	-4,173	310,376	152,874
135,254	-4,200	310,110	152,701
136,268	-4,314	309,905	152,466
137,283	-4,383	309,659	152,259
138,297	-4,433	309,284	152,009
139,312	-4,370	309,092	151,967
140,327	-4,269	309,097	152,061
141,341	-3,984	308,955	152,277
142,356	-3,794	308,667	152,320
143,370	-3,783	308,542	152,257
144,385	-3,728	308,300	152,182
145,400	-3,785	307,998	151,959
146,414	-3,755	307,950	151,953
147,429	-3,865	307,700	151,701
148,443	-3,826	307,447	151,604
149,458	-3,918	307,188	151,367
150,473	-3,757	307,098	151,477
151,487	-3,885	306,886	151,226
152,502	-3,895	306,664	151,093
153,516	-4,054	306,387	150,777
154,531	-3,884	305,961	150,731
155,546	-3,886	305,930	150,700
156,560	-3,918	305,628	150,505
157,575	-4,133	305,487	150,198
158,589	-3,994	305,258	150,217
159,604	-3,931	305,054	150,168
160,619	-3,752	304,933	150,280
161,633	-3,911	304,684	149,980
162,648	-3,834	304,466	149,938
163,662	-3,894	304,203	149,734
164,677	-4,003	304,137	149,575
165,692	-3,899	303,886	149,546
166,706	-3,762	303,730	149,596
167,721	-3,929	303,349	149,224
168,735	-3,783	303,389	149,380
169,750	-3,777	303,182	149,271
170,764	-3,876	303,005	149,070
171,779	-3,785	302,784	149,040
172,794	-3,841	302,550	148,855
173,808	-3,991	302,352	148,590
174,823	-4,119	301,851	148,201
175,837	-4,350	301,644	147,849
176,852	-3,896	301,671	148,314
177,867	-3,690	301,606	148,479
178,881	-3,696	301,305	148,311
179,896	-3,762	301,147	148,152
180,910	-3,827	300,960	147,981
181,925	-3,702	300,712	147,973
182,940	-3,705	300,527	147,866
183,954	-3,958	300,255	147,462
184,969	-3,706	300,092	147,625
185,983	-3,789	299,886	147,426
186,998	-3,739	299,780	147,411
188,013	-3,674	299,378	147,266
189,027	-3,818	299,400	147,118
190,042	-3,674	299,164	147,135
191,056	-3,658	298,949	147,032
192,071	-3,465	298,704	147,093
193,086	-3,463	298,521	146,993
194,100	-3,600	298,461	146,811
195,115	-3,660	298,011	146,516
196,129	-3,702	297,868	146,390
197,144	-3,627	297,649	146,346
198,159	-3,631	297,384	146,198
199,173	-3,719	297,203	146,008
200,188	-3,416	297,071	146,234
201,202	-3,693	296,780	145,799
202,217	-4,086	296,292	145,154
203,232	-4,254	296,182	144,919
204,246	-3,917	296,089	145,198
205,261	-3,692	295,965	145,349
206,275	-3,905	295,963	145,122
207,290	-3,605	295,588	145,224
208,304	-3,758	295,457	144,995
209,319	-3,674	295,110	144,895
210,334	-3,846	295,090	144,701
211,348	-3,739	294,718	144,612
212,363	-3,675	294,635	144,622
213,377	-3,652	294,576	144,603
214,392	-3,855	294,306	144,255
215,407	-3,861	293,960	144,067
216,421	-3,990	293,731	143,815
217,436	-4,066	293,583	143,654
218,450	-4,026	293,341	143,562
219,465	-3,975	293,406	143,632
220,480	-3,882	293,111	143,567
221,494	-3,755	292,779	143,516
222,509	-3,916	292,675	143,294
223,523	-3,862	292,547	143,272
224,538	-3,816	292,411	143,237
225,553	-3,650	292,091	143,232
226,567	-3,769	292,142	143,127
227,582	-3,653	291,928	143,123
228,596	-3,553	291,595	143,045
229,611	-3,658	291,461	142,864
230,626	-3,756	291,340	142,696
231,640	-3,875	290,885	142,344
232,655	-4,141	290,524	141,894
233,669	-4,358	290,458	141,637
234,684	-4,456	290,198	141,402
235,699	-4,199	290,038	141,562
236,713	-4,156	289,927	141,537
237,728	-3,934	289,806	141,682
238,742	-3,902	289,656	141,628
239,757	-3,849	289,353	141,518
240,772	-4,006	289,302	141,328
241,786	-3,844	289,049	141,349
242,801	-4,022	288,964	141,121
243,815	-3,970	288,772	141,065
244,830	-3,889	288,548	141,023
245,844	-3,891	288,388	140,930
246,859	-3,954	288,158	140,744
247,874	-4,016	288,082	140,635
248,888	-3,766	287,815	140,733
249,903	-3,832	287,574	140,538
250,917	-3,659	287,473	140,645
251,932	-3,397	287,436	140,867
252,947	-2,898	287,545	141,390
253,961	-3,103	287,188	141,003
254,976	-2,322	287,583	141,940
255,990	0,293	288,278	144,801
257,005	0,825	288,235	145,280
258,020	1,948	288,700	146,588
259,034	2,803	288,729	147,416
260,049	2,684	288,566	147,204
261,063	2,459	288,322	146,850
262,078	2,527	288,308	146,895
263,093	3,387	288,229	147,670
264,107	3,432	288,245	147,709
265,122	3,534	287,838	147,585
266,136	3,628	287,823	147,655
267,151	3,446	287,523	147,313
268,166	3,336	287,349	147,105
269,180	3,209	287,180	146,884
270,195	3,369	286,970	146,917
271,209	3,403	286,705	146,800
272,224	3,268	286,565	146,587
273,239	3,288	286,167	146,389
274,253	3,069	286,094	146,129
275,268	3,396	286,030	146,396
276,282	3,464	285,779	146,320
277,297	3,506	285,346	146,124
278,312	3,466	285,556	146,181
279,326	3,757	285,318	146,324
280,341	3,594	285,124	146,055
281,355	3,356	284,917	145,710
282,370	3,260	284,705	145,498
283,384	3,242	284,481	145,353
284,399	3,195	284,426	145,267
285,414	3,214	284,243	145,179
286,428	3,332	283,979	145,143
287,443	3,058	283,627	144,691
288,457	2,801	283,670	144,456
289,472	2,913	283,387	144,405
290,487	3,080	283,083	144,395
291,501	2,824	282,830	144,012
292,516	2,757	282,721	143,880
293,530	2,660	282,599	143,714
294,545	3,047	282,409	143,969
295,560	3,095	282,397	143,996
296,574	2,868	282,142	143,639
297,589	3,137	281,920	143,766
298,603	3,398	281,798	143,936
299,618	3,321	281,631	143,766
300,633	3,235	281,513	143,612
301,647	3,183	281,397	143,491
302,662	3,407	281,047	143,510
303,676	2,971	280,747	142,936
304,691	2,740	280,391	142,526
305,706	2,396	280,272	142,131
306,720	2,466	280,081	142,087
307,735	2,559	279,901	142,070
308,749	2,709	279,803	142,148
309,764	3,005	279,448	142,230
310,779	2,724	279,365	141,913
311,793	2,671	279,059	141,696
312,808	2,631	278,999	141,616
313,822	2,652	278,796	141,520
314,837	2,563	278,491	141,270
315,852	2,339	278,390	140,997
316,866	2,478	278,242	141,039
317,881	2,707	278,140	141,187
318,895	2,746	277,902	141,090
319,910	2,334	277,686	140,586
320,925	2,397	277,546	140,561
321,939	2,509	277,506	140,632
322,954	2,686	277,275	140,666
323,968	2,746	277,125	140,633
324,983	2,795	276,971	140,587
325,997	2,756	276,962	140,534
327,012	2,875	276,598	140,447
328,027	2,826	276,493	140,335
329,041	2,961	276,319	140,359
330,056	2,981	276,205	140,306
331,070	2,789	275,993	140,011
332,085	2,781	275,581	139,781
333,100	2,797	275,550	139,768
334,114	2,739	275,195	139,522
335,129	2,719	275,061	139,424
336,143	2,769	275,117	139,485
337,158	3,133	274,802	139,646
338,173	2,858	274,641	139,300
339,187	2,838	274,329	139,111
340,202	2,912	274,344	139,174
341,216	2,881	274,244	139,083
342,231	3,029	273,995	139,079
343,246	2,781	273,793	138,738
344,260	2,812	273,509	138,610
345,275	2,988	273,535	138,771
346,289	3,399	273,465	139,096
347,304	3,303	273,234	138,879
348,319	2,794	272,910	138,241
349,333	2,947	272,720	138,270
350,348	3,145	272,804	138,480
351,362	3,201	272,496	138,362
352,377	3,073	272,278	138,124
353,392	3,179	272,396	138,267
354,406	3,172	272,094	138,095
355,421	191,742	1330,181	1404,665
356,435	154,905	1459,158	1404,731
