DTS Sentinel unit serial number:	SN410029Multiplexer serial number:	ORYXHardware model number:	OX2-SRSoftware version number:	ORYX F/W v4,00 Oryx Data Collector v3.7.2.0data status	okinstallation	B4 Nyhavnadifferential loss correction	single-endedforward channel	channel 2reverse channel	N/Adate	2023/12/16time	01:50:14forward acquisition time	300,00reverse acquisition time	0,00gamma	499,1914k internal	0,3128k external	0,3128temperature offset calibration	1,0000default loss term (dB/km)	0,3820temperature slope calibration	1,0000multiplexer offset coefficient	1,0000multiplexer slope coefficient	1,0000fibre end	0,00T internal ref (°C)	21,93T ext. ref 1 (°C)	7,13T ext. ref 2 (°C)	7,31length (m)	temperature (°C)	Stokes	anti-Stokes-744,400	-140,516	0,054	0,004
-743,385	-113,347	-0,275	0,040
-742,371	268,887	0,053	0,069
-741,356	50,261	-0,079	0,055
-740,342	-200,000	-0,003	-0,026
-739,327	-81,099	-0,230	0,056
-738,312	64,227	0,066	-0,050
-737,298	-117,232	-0,253	-0,034
-736,283	5,503	-0,040	-0,022
-735,269	91,666	-0,176	0,147
-734,254	-80,412	0,154	0,038
-733,239	-169,034	-0,351	-0,010
-732,225	-107,491	0,168	-0,027
-731,210	-171,334	0,073	0,002
-730,196	-200,000	0,043	0,209
-729,181	-81,457	-0,079	-0,019
-728,167	800,000	-0,005	-0,012
-727,152	17,607	-0,077	0,046
-726,137	138,532	0,088	-0,086
-725,123	218,690	-0,051	-0,061
-724,108	800,000	0,034	-0,092
-723,094	-110,600	-0,175	-0,027
-722,079	499,161	0,020	-0,034
-721,064	-200,000	0,006	-0,080
-720,050	510,362	0,024	-0,043
-719,035	31,140	-0,052	-0,033
-718,021	431,410	0,043	-0,069
-717,006	24,067	-0,078	-0,048
-715,991	267,855	-0,075	-0,098
-714,977	363,223	-0,079	-0,119
-713,962	-62,196	-0,128	-0,039
-712,948	-200,000	0,010	-0,085
-711,933	795,535	0,072	-0,148
-710,918	800,000	-0,024	0,073
-709,904	9,916	-0,071	0,040
-708,889	800,000	-0,026	0,054
-707,875	101,778	0,003	0,002
-706,860	-119,785	0,017	0,002
-705,845	800,000	-0,014	-0,045
-704,831	-200,000	-0,021	0,141
-703,816	-200,000	-0,023	-0,101
-702,802	186,544	-0,092	0,102
-701,787	100,796	-0,050	-0,043
-700,772	-64,046	-0,027	0,008
-699,758	-2,789	-0,062	0,032
-698,743	380,554	-0,032	-0,049
-697,729	-200,000	-0,015	-0,077
-696,714	613,795	-0,042	0,079
-695,699	800,000	0,069	-0,155
-694,685	800,000	0,013	-0,043
-693,670	211,430	0,058	-0,067
-692,656	800,000	0,010	0,023
-691,641	-12,305	-0,026	-0,013
-690,627	49,149	-0,165	0,115
-689,612	-200,000	0,017	0,173
-688,597	740,874	-0,031	-0,062
-687,583	55,355	-0,045	0,032
-686,568	73,696	-0,137	-0,106
-685,554	402,238	-0,062	0,097
-684,539	800,000	0,034	0,083
-683,524	800,000	-0,026	0,063
-682,510	-120,061	-0,067	0,008
-681,495	-200,000	-0,011	-0,091
-680,481	24,136	0,044	-0,027
-679,466	-200,000	-0,037	-0,138
-678,451	719,937	-0,092	-0,183
-677,437	106,022	-0,060	0,053
-676,422	393,861	0,015	0,023
-675,408	-50,794	-0,140	0,049
-674,393	-75,031	-0,098	-0,026
-673,378	61,464	0,095	0,070
-672,364	-88,825	-0,079	-0,017
-671,349	-200,000	-0,007	-0,076
-670,335	646,447	0,061	0,116
-669,320	800,000	-0,020	-0,055
-668,305	1,345	-0,047	-0,025
-667,291	67,179	0,059	-0,044
-666,276	800,000	-0,035	-0,089
-665,262	667,826	-0,058	-0,111
-664,247	-163,154	0,020	-0,001
-663,232	-95,947	-0,108	-0,021
-662,218	133,005	-0,094	-0,090
-661,203	-200,000	0,001	-0,033
-660,189	69,274	0,024	-0,018
-659,174	-200,000	-0,001	-0,060
-658,159	59,563	0,086	-0,063
-657,145	-200,000	-0,037	-0,135
-656,130	-48,608	0,117	-0,042
-655,116	-200,000	0,008	-0,039
-654,101	-14,557	0,089	0,042
-653,086	-197,714	0,066	-0,000
-652,072	-200,000	0,028	-0,155
-651,057	28,501	-0,081	0,051
-650,043	126,357	0,077	-0,072
-649,028	-165,027	0,048	0,002
-648,014	-200,000	0,009	-0,090
-646,999	-200,000	-0,003	-0,132
-645,984	-200,000	-0,016	0,209
-644,970	132,258	-0,157	0,150
-643,955	-114,116	-0,112	-0,016
-642,941	-33,913	-0,132	-0,054
-641,926	288,675	0,028	-0,038
-640,911	-100,747	0,020	0,004
-639,897	-200,000	0,030	0,138
-638,882	-70,172	-0,186	-0,052
-637,868	132,111	0,048	-0,045
-636,853	438,540	-0,067	-0,109
-635,838	34,838	-0,040	-0,026
-634,824	0,658	-0,080	-0,042
-633,809	4,115	0,075	0,041
-632,795	-200,000	-0,001	0,028
-631,780	800,000	0,051	-0,131
-630,765	-110,017	0,096	0,015
-629,751	188,703	0,008	0,009
-628,736	-116,640	-0,085	-0,011
-627,722	130,307	-0,034	0,032
-626,707	54,061	-0,091	0,064
-625,692	72,113	-0,038	-0,029
-624,678	24,339	0,078	-0,048
-623,663	-15,371	0,044	0,021
-622,649	-24,021	-0,048	0,021
-621,634	-60,836	-0,134	0,042
-620,619	800,000	0,039	-0,105
-619,605	646,400	0,045	-0,085
-618,590	191,483	-0,074	0,083
-617,576	115,223	-0,037	-0,034
-616,561	-116,185	0,062	-0,008
-615,546	-86,526	-0,104	-0,023
-614,532	-83,918	-0,090	0,021
-613,517	800,000	0,042	-0,123
-612,503	258,405	-0,076	-0,097
-611,488	177,031	0,102	0,110
-610,474	-73,137	-0,015	0,004
-609,459	757,618	-0,071	-0,143
-608,444	-108,773	-0,178	-0,028
-607,430	-98,886	0,033	-0,006
-606,415	-109,725	0,078	-0,012
-605,401	-157,435	0,058	0,003
-604,386	-200,000	-0,005	-0,037
-603,371	-52,697	-0,086	-0,029
-602,357	-10,384	0,054	0,026
-601,342	800,000	0,055	-0,162
-600,328	138,362	0,058	0,057
-599,313	37,556	0,058	-0,038
-598,298	800,000	-0,060	-0,159
-597,284	-142,038	0,048	-0,004
-596,269	-166,188	-0,036	0,001
-595,255	-200,000	-0,008	0,096
-594,240	800,000	-0,010	0,029
-593,225	40,522	-0,096	-0,064
-592,211	-1,328	-0,182	0,095
-591,196	-34,521	-0,053	-0,022
-590,182	-161,629	-0,130	-0,005
-589,167	9,076	0,117	-0,065
-588,152	-116,687	0,150	0,020
-587,138	113,749	-0,046	-0,041
-586,123	-84,728	0,068	0,016
-585,109	294,956	0,059	-0,081
-584,094	-78,807	-0,105	0,026
-583,079	114,797	0,073	0,066
-582,065	-200,000	-0,047	-0,221
-581,050	-200,000	-0,012	0,057
-580,036	154,954	-0,050	0,051
-579,021	-200,000	0,001	-0,018
-578,006	-200,000	-0,012	0,040
-576,992	-56,500	-0,098	0,032
-575,977	-33,276	0,134	-0,054
-574,963	-200,000	-0,016	0,067
-573,948	625,476	-0,032	0,061
-572,934	800,000	-0,057	0,143
-571,919	122,383	0,055	-0,051
-570,904	29,392	-0,041	-0,025
-569,890	-10,595	0,026	0,013
-568,875	-48,131	0,080	0,028
-567,861	52,610	-0,079	-0,055
-566,846	800,000	-0,005	-0,016
-565,831	39,835	-0,092	-0,061
-564,817	-192,326	0,039	-0,000
-563,802	75,597	-0,099	0,077
-562,788	-177,696	0,089	-0,002
-561,773	349,113	-0,022	-0,033
-560,758	-200,000	0,002	0,018
-559,744	271,814	-0,083	0,109
-558,729	110,047	0,022	0,019
-557,715	-66,563	0,186	-0,054
-556,700	-200,000	-0,007	-0,073
-555,685	4,483	-0,086	0,047
-554,671	469,783	-0,025	0,041
-553,656	-200,000	0,002	0,030
-552,642	-51,182	0,084	0,029
-551,627	-200,000	-0,007	0,033
-550,612	800,000	-0,037	0,104
-549,598	-39,828	-0,106	-0,041
-548,583	116,228	0,101	0,091
-547,569	-200,000	-0,018	-0,134
-546,554	-200,000	0,022	0,101
-545,539	323,075	0,021	-0,029
-544,525	-200,000	0,004	-0,060
-543,510	159,809	-0,053	-0,055
-542,496	800,000	-0,078	-0,164
-541,481	-13,244	-0,046	-0,022
-540,466	-200,000	0,014	-0,060
-539,452	175,597	0,031	0,033
-538,437	-19,459	-0,035	-0,016
-537,423	436,461	0,047	-0,076
-536,408	77,712	-0,080	0,063
-535,393	800,000	0,072	-0,147
-534,379	-158,519	-0,053	-0,002
-533,364	302,284	-0,063	0,086
-532,350	267,209	-0,024	-0,031
-531,335	-128,820	0,112	0,011
-530,321	729,215	-0,016	-0,031
-529,306	-114,625	0,078	0,011
-528,291	167,645	-0,065	0,068
-527,277	115,145	-0,020	-0,018
-526,262	800,000	-0,047	-0,113
-525,248	37,579	0,103	-0,067
-524,233	627,622	0,059	0,111
-523,218	159,690	0,069	-0,071
-522,204	-200,000	0,011	0,077
-521,189	800,000	-0,011	-0,025
-520,175	28,986	-0,131	0,082
-519,160	800,000	-0,020	0,046
-518,145	388,423	-0,027	-0,042
-517,131	166,921	0,113	-0,119
-516,116	-200,000	0,003	-0,121
-515,102	209,248	-0,052	-0,060
-514,087	-36,226	0,111	-0,044
-513,072	-200,000	-0,011	-0,138
-512,058	-144,929	0,107	-0,007
-511,043	8,462	0,054	-0,030
-510,029	800,000	0,059	0,123
-509,014	63,483	0,066	0,049
-507,999	-200,000	0,001	0,016
-506,985	146,458	0,017	0,017
-505,970	72,178	-0,066	-0,051
-504,956	9,710	0,112	0,062
-503,941	1,358	0,057	-0,030
-502,926	-200,000	-0,012	0,104
-501,912	-200,000	0,000	-0,052
-500,897	385,661	0,057	-0,087
-499,883	-200,000	0,008	0,034
-498,868	-200,000	0,010	0,037
-497,853	-118,637	-0,069	0,009
-496,839	134,873	0,110	0,106
-495,824	354,574	-0,005	-0,008
-494,810	800,000	0,003	-0,007
-493,795	-200,000	0,014	0,065
-492,781	-144,524	-0,103	0,007
-491,766	77,518	-0,109	-0,085
-490,751	800,000	0,014	0,037
-489,737	431,789	0,049	0,079
-488,722	100,822	-0,038	0,033
-487,708	401,934	0,024	0,038
-486,693	-23,309	-0,083	0,037
-485,678	-200,000	0,003	0,043
-484,664	800,000	0,032	-0,089
-483,649	117,004	-0,093	-0,084
-482,635	800,000	-0,032	0,101
-481,620	338,891	-0,064	0,092
-480,605	-16,940	0,005	-0,002
-479,591	-200,000	-0,006	0,106
-478,576	800,000	0,050	-0,147
-477,562	-200,000	0,003	-0,071
-476,547	288,014	-0,028	0,037
-475,532	20,856	-0,090	-0,053
-474,518	-24,424	0,098	-0,043
-473,503	190,234	0,066	-0,073
-472,489	196,220	-0,014	-0,016
-471,474	-200,000	0,013	0,213
-470,459	348,292	-0,026	0,038
-469,445	-144,781	0,032	-0,002
-468,430	-86,507	0,035	-0,008
-467,416	800,000	-0,016	0,044
-466,401	189,326	-0,045	0,049
-465,386	-200,000	0,036	0,168
-464,372	800,000	0,067	0,202
-463,357	175,634	-0,102	-0,109
-462,343	-53,307	0,151	-0,051
-461,328	-57,908	-0,135	-0,043
-460,313	-118,078	0,087	0,011
-459,299	303,231	0,049	0,066
-458,284	-142,816	0,211	-0,015
-457,270	259,214	-0,134	0,170
-456,255	140,827	-0,123	0,120
-455,241	100,393	0,028	-0,024
-454,226	3,465	-0,135	0,072
-453,211	-71,887	0,014	-0,004
-452,197	800,000	0,050	-0,154
-451,182	-103,069	-0,032	0,006
-450,168	96,496	0,084	-0,071
-449,153	772,613	0,061	-0,124
-448,138	-33,774	-0,107	-0,043
-447,124	217,434	-0,105	-0,123
-446,109	-200,000	0,024	0,079
-445,095	31,336	0,042	0,026
-444,080	434,978	-0,071	0,114
-443,065	176,214	0,044	-0,047
-442,051	-84,626	-0,077	-0,018
-441,036	-200,000	-0,033	-0,149
-440,022	147,364	-0,030	-0,030
-439,007	-135,888	0,017	0,001
-437,992	-50,760	0,159	0,055
-436,978	403,210	-0,104	0,161
-435,963	800,000	0,017	0,054
-434,949	131,080	-0,089	-0,084
-433,934	-45,513	-0,118	-0,043
-432,919	-6,227	-0,063	-0,032
-431,905	-148,553	-0,059	0,003
-430,890	-144,145	0,104	-0,007
-429,876	444,496	0,061	0,099
-428,861	-200,000	-0,005	0,049
-427,846	-111,881	0,073	-0,011
-426,832	-60,015	0,114	0,036
-425,817	-62,568	-0,104	-0,032
-424,803	30,723	-0,046	-0,029
-423,788	-200,000	0,006	-0,049
-422,773	-111,086	0,068	0,010
-421,759	-47,466	-0,057	-0,020
-420,744	-31,941	0,025	0,010
-419,730	365,251	0,090	-0,134
-418,715	-161,600	0,034	0,001
-417,701	744,403	-0,041	0,081
-416,686	-20,475	0,052	-0,023
-415,671	397,831	0,078	0,121
-414,657	-55,375	0,108	0,035
-413,642	553,426	-0,052	-0,093
-412,628	-0,972	-0,096	0,050
-411,613	-96,294	-0,168	-0,032
-410,598	304,728	-0,058	0,080
-409,584	58,372	-0,066	-0,048
-408,569	800,000	0,060	0,164
-407,555	-200,000	0,013	0,061
-406,540	800,000	-0,024	-0,072
-405,525	63,499	-0,080	-0,059
-404,511	68,560	0,053	-0,040
-403,496	800,000	0,040	-0,113
-402,482	-114,778	0,083	0,012
-401,467	521,234	-0,035	0,060
-400,452	109,778	-0,038	-0,034
-399,438	-200,000	0,010	0,144
-398,423	-87,976	-0,082	0,018
-397,409	-200,000	-0,003	-0,147
-396,394	-26,188	-0,033	0,014
-395,379	32,128	-0,110	0,069
-394,365	284,032	0,060	0,079
-393,350	-34,765	0,116	0,046
-392,336	-200,000	0,004	-0,019
-391,321	-159,959	-0,064	0,003
-390,306	-4,871	0,153	0,077
-389,292	-57,180	-0,063	-0,020
-388,277	-53,896	0,089	-0,030
-387,263	-99,851	-0,058	-0,011
-386,248	-109,213	0,049	-0,007
-385,233	554,018	-0,044	0,077
-384,219	-200,000	-0,010	0,131
-383,204	-200,000	-0,002	0,079
-382,190	60,651	0,044	0,032
-381,175	-32,380	0,139	0,057
-380,160	92,520	-0,048	-0,040
-379,146	800,000	0,071	-0,161
-378,131	281,897	-0,061	-0,080
-377,117	141,049	-0,073	0,071
-376,102	-200,000	0,017	-0,080
-375,088	-200,000	0,018	0,064
-374,073	95,705	0,015	-0,013
-373,058	-173,940	0,121	-0,003
-372,044	-59,048	0,098	-0,031
-371,029	76,718	0,123	-0,096
-370,015	800,000	-0,010	0,027
-369,000	45,514	-0,141	-0,095
-367,985	15,514	0,022	0,013
-366,971	58,055	0,136	0,098
-365,956	204,580	0,061	0,069
-364,942	201,927	-0,083	0,094
-363,927	800,000	-0,038	0,103
-362,912	-200,000	0,013	0,057
-361,898	-200,000	-0,006	0,032
-360,883	21,223	-0,117	-0,070
-359,869	-11,017	-0,101	0,049
-358,854	48,180	0,085	-0,058
-357,839	-108,664	0,100	0,015
-356,825	190,471	0,047	0,052
-355,810	276,652	-0,032	0,042
-354,796	41,259	0,045	0,030
-353,781	558,559	0,011	0,020
-352,766	188,625	0,060	0,066
-351,752	57,530	-0,054	-0,039
-350,737	-35,512	0,102	0,040
-349,723	-49,442	0,052	0,018
-348,708	-7,112	0,061	0,030
-347,693	102,043	0,069	0,059
-346,679	-200,000	0,000	-0,009
-345,664	40,347	-0,127	-0,084
-344,650	-167,311	0,106	0,003
-343,635	-200,000	0,029	0,096
-342,620	229,935	0,035	-0,042
-341,606	49,766	0,041	-0,028
-340,591	26,193	-0,089	-0,054
-339,577	-200,000	0,007	-0,092
-338,562	800,000	-0,022	0,058
-337,548	77,023	0,110	-0,086
-336,533	1,006	-0,097	0,051
-335,518	227,142	0,077	0,092
-334,504	54,938	0,027	-0,019
-333,489	-67,191	0,022	0,006
-332,475	117,943	0,042	-0,038
-331,460	295,715	0,036	0,049
-330,445	-200,000	0,000	0,033
-329,431	-133,646	0,192	0,017
-328,416	447,245	-0,039	-0,063
-327,402	-21,925	0,015	0,007
-326,387	-105,192	-0,050	0,008
-325,372	583,678	-0,016	0,030
-324,358	-82,730	-0,089	-0,021
-323,343	-96,832	0,130	-0,025
-322,329	222,962	-0,043	0,051
-321,314	-200,000	0,001	0,045
-320,299	800,000	0,029	0,061
-319,285	800,000	-0,021	0,049
-318,270	-81,492	-0,066	0,016
-317,256	800,000	-0,027	-0,085
-316,241	-200,000	-0,005	0,021
-315,226	-200,000	0,025	-0,167
-314,212	43,048	0,066	-0,044
-313,197	-55,511	0,067	0,022
-312,183	800,000	-0,017	0,039
-311,168	44,884	-0,138	-0,093
-310,153	558,506	-0,044	0,078
-309,139	24,806	-0,046	-0,028
-308,124	190,171	-0,072	-0,079
-307,110	95,698	0,078	0,065
-306,095	-120,951	-0,152	-0,019
-305,080	24,949	0,042	-0,025
-304,066	185,720	-0,042	0,045
-303,051	-3,857	-0,175	-0,088
-302,037	179,318	0,060	-0,065
-301,022	-49,022	0,007	-0,003
-300,008	183,592	-0,086	0,094
-298,993	121,379	0,110	0,101
-297,978	-55,935	0,103	0,034
-296,964	-169,253	0,043	-0,001
-295,949	416,234	-0,039	-0,062
-294,935	-200,000	0,010	-0,080
-293,920	-98,467	-0,087	-0,016
-292,905	-148,143	-0,055	-0,003
-291,891	320,209	0,016	-0,022
-290,876	-101,862	0,076	-0,013
-289,862	49,887	0,014	0,010
-288,847	195,392	0,035	-0,039
-287,832	69,752	0,068	0,051
-286,818	21,500	0,165	-0,098
-285,803	-200,000	0,011	0,135
-284,789	-200,000	0,017	-0,063
-283,774	202,728	-0,087	0,098
-282,759	800,000	-0,035	-0,104
-281,745	185,996	-0,025	0,027
-280,730	306,242	-0,059	0,080
-279,716	36,823	-0,038	-0,025
-278,701	-200,000	-0,005	0,071
-277,686	-200,000	0,012	0,043
-276,672	183,202	0,063	-0,068
-275,657	90,439	0,042	0,034
-274,643	6,566	-0,155	-0,084
-273,628	405,033	-0,079	-0,123
-272,613	-200,000	0,011	0,083
-271,599	-125,050	0,088	0,010
-270,584	165,072	0,097	-0,100
-269,570	543,132	0,010	0,018
-268,555	147,724	0,035	0,034
-267,540	-74,432	-0,054	0,014
-266,526	-200,000	-0,016	-0,162
-265,511	17,726	-0,027	0,015
-264,497	800,000	0,044	0,101
-263,482	-27,872	0,064	0,027
-262,467	-200,000	0,013	0,129
-261,453	242,453	0,084	-0,103
-260,438	103,970	-0,140	-0,120
-259,424	61,482	-0,086	-0,062
-258,409	31,614	0,118	-0,074
-257,395	800,000	0,008	0,017
-256,380	-200,000	0,020	0,087
-255,365	-200,000	0,007	0,046
-254,351	-182,501	-0,152	-0,002
-253,336	-22,408	-0,120	-0,053
-252,322	389,748	0,042	-0,063
-251,307	-21,015	0,053	0,024
-250,292	-200,000	0,002	0,028
-249,278	-56,149	0,027	-0,009
-248,263	72,857	-0,073	-0,055
-247,249	-93,716	0,143	0,028
-246,234	30,829	-0,139	0,087
-245,219	-92,038	-0,144	0,029
-244,205	800,000	-0,042	-0,092
-243,190	-200,000	-0,001	0,014
-242,176	-200,000	-0,004	0,104
-241,161	-200,000	0,006	0,023
-240,146	-2,015	0,154	0,079
-239,132	-141,364	0,079	-0,006
-238,117	-102,115	-0,061	0,011
-237,103	403,126	-0,027	0,042
-236,088	-200,000	-0,006	0,080
-235,073	401,454	0,075	0,115
-234,059	11,682	-0,087	-0,049
-233,044	463,901	-0,059	-0,097
-232,030	-200,000	-0,007	0,035
-231,015	-46,336	-0,034	0,012
-230,000	-200,000	-0,004	-0,128
-228,986	-165,962	-0,133	-0,004
-227,971	-30,898	0,148	-0,061
-226,957	-79,750	0,187	0,046
-225,942	-200,000	-0,019	0,089
-224,927	10,231	0,033	-0,018
-223,913	-200,000	-0,001	0,065
-222,898	124,779	-0,100	-0,092
-221,884	-32,379	-0,081	0,033
-220,869	-200,000	0,039	-0,198
-219,855	40,079	0,017	0,011
-218,840	25,868	-0,053	-0,032
-217,825	-45,895	-0,150	0,054
-216,811	70,008	0,125	0,094
-215,796	-31,075	-0,076	-0,031
-214,782	800,000	0,038	-0,082
-213,767	800,000	-0,041	0,085
-212,752	19,190	0,079	0,046
-211,738	-96,122	0,045	-0,009
-210,723	-96,984	-0,114	-0,022
-209,709	-200,000	0,024	-0,079
-208,694	-200,000	0,025	0,090
-207,679	800,000	-0,103	-0,219
-206,665	464,531	0,015	-0,024
-205,650	514,508	-0,031	-0,053
-204,636	41,574	-0,047	0,031
-203,621	684,387	-0,051	-0,098
-202,606	216,737	0,024	0,028
-201,592	-116,114	-0,142	0,019
-200,577	20,189	0,092	0,054
-199,563	800,000	-0,032	0,085
-198,548	-200,000	0,011	0,040
-197,533	464,852	0,026	0,042
-196,519	57,202	0,102	-0,073
-195,504	110,535	-0,087	0,076
-194,490	-120,450	0,012	-0,001
-193,475	142,736	0,061	-0,059
-192,460	-134,241	-0,090	0,008
-191,446	23,306	0,097	0,058
-190,431	-55,372	0,153	-0,050
-189,417	-147,447	0,085	0,005
-188,402	800,000	0,036	-0,112
-187,387	164,659	-0,061	-0,063
-186,373	-141,376	0,119	0,009
-185,358	391,688	-0,047	-0,071
-184,344	71,313	-0,055	0,041
-183,329	-119,105	0,054	-0,007
-182,315	58,350	0,096	0,068
-181,300	42,252	-0,038	0,025
-180,285	-72,949	-0,072	-0,019
-179,271	119,646	-0,040	-0,036
-178,256	800,000	0,017	-0,041
-177,242	-200,000	0,003	0,090
-176,227	99,520	0,134	0,113
-175,212	-9,929	0,148	-0,072
-174,198	-39,913	0,173	0,066
-173,183	800,000	0,039	-0,079
-172,169	273,104	0,064	0,083
-171,154	177,608	-0,073	-0,078
-170,139	-61,778	0,149	-0,045
-169,125	665,340	-0,026	0,048
-168,110	-200,000	0,006	0,137
-167,096	-200,000	-0,004	-0,018
-166,081	800,000	-0,039	-0,087
-165,066	-40,880	-0,087	-0,033
-164,052	341,571	-0,065	-0,093
-163,037	-89,296	0,035	0,007
-162,023	-200,000	-0,023	-0,117
-161,008	84,390	0,056	0,044
-159,993	-63,491	0,107	0,032
-158,979	-200,000	-0,010	-0,076
-157,964	182,708	0,070	-0,075
-156,950	-112,764	-0,111	0,016
-155,935	-125,291	-0,046	-0,005
-154,920	-200,000	0,017	0,100
-153,906	554,682	-0,065	0,114
-152,891	-200,000	0,001	0,110
-151,877	244,158	-0,050	0,062
-150,862	-60,325	-0,098	-0,030
-149,847	-200,000	-0,026	0,086
-148,833	800,000	-0,045	0,129
-147,818	75,576	0,068	0,052
-146,804	-200,000	-0,020	-0,103
-145,789	-200,000	0,017	0,069
-144,775	480,722	-0,098	0,162
-143,760	-156,689	-0,072	0,003
-142,745	-71,251	0,057	0,015
-141,731	-200,000	-0,013	-0,114
-140,716	-200,000	0,009	0,059
-139,702	323,366	-0,026	0,035
-138,687	-148,102	-0,107	-0,006
-137,672	-31,023	0,124	-0,051
-136,658	-170,009	-0,113	-0,003
-135,643	133,877	-0,103	0,097
-134,629	-200,000	-0,002	-0,042
-133,614	-200,000	0,009	-0,030
-132,599	-200,000	-0,017	0,184
-131,585	203,347	-0,103	0,115
-130,570	-200,000	0,000	0,008
-129,556	-152,870	-0,051	-0,003
-128,541	-134,198	-0,025	0,002
-127,526	-200,000	0,022	0,073
-126,512	800,000	0,079	0,188
-125,497	-200,000	-0,012	0,143
-124,483	-66,320	0,047	0,014
-123,468	800,000	-0,044	-0,139
-122,453	99,899	-0,089	-0,075
-121,439	-200,000	0,004	-0,037
-120,424	-26,380	-0,156	-0,066
-119,410	380,418	0,041	0,062
-118,395	-93,799	0,038	-0,008
-117,380	2,565	0,075	0,039
-116,366	-75,042	-0,085	-0,022
-115,351	-200,000	-0,009	-0,050
-114,337	-94,758	-0,018	0,004
-113,322	-51,598	0,043	0,015
-112,307	485,897	0,044	0,073
-111,293	672,135	0,015	0,028
-110,278	280,296	0,120	0,156
-109,264	-153,026	-0,050	0,003
-108,249	-200,000	-0,005	-0,105
-107,234	-200,000	0,006	-0,091
-106,220	188,191	-0,039	0,042
-105,205	-55,574	-0,096	-0,031
-104,191	171,079	-0,059	0,062
-103,176	-87,893	0,090	-0,019
-102,162	-200,000	0,004	-0,062
-101,147	-200,000	0,047	-0,231
-100,132	-47,011	0,076	-0,027
-99,118	645,759	-0,049	-0,091
-98,103	-200,000	-0,029	-0,235
-97,089	60,890	0,099	0,071
-96,074	376,104	0,036	0,054
-95,059	-40,734	0,088	0,033
-94,045	28,693	-0,047	0,029
-93,030	-200,000	0,000	-0,062
-92,016	800,000	0,035	0,081
-91,001	358,223	-0,029	0,042
-89,986	-200,000	0,013	-0,046
-88,972	-200,000	-0,004	0,078
-87,957	800,000	0,030	0,089
-86,943	18,726	-0,075	0,044
-85,928	249,958	0,092	-0,113
-84,913	-200,000	-0,025	-0,142
-83,899	-200,000	-0,009	0,039
-82,884	-44,082	-0,052	0,019
-81,870	289,406	0,038	0,050
-80,855	410,753	0,039	0,061
-79,840	-123,702	-0,063	0,007
-78,826	-89,302	0,070	0,015
-77,811	800,000	0,033	-0,074
-76,797	-97,859	0,034	-0,006
-75,782	233,000	-0,011	0,013
-74,767	-200,000	0,008	-0,058
-73,753	563,444	-0,068	-0,119
-72,738	745,408	0,042	0,082
-71,724	-200,000	-0,007	-0,083
-70,709	-5,238	-0,094	-0,047
-69,694	800,000	-0,019	-0,051
-68,680	-102,330	-0,048	0,008
-67,665	482,919	0,012	-0,020
-66,651	-0,022	-0,068	0,035
-65,636	387,019	0,020	-0,030
-64,622	-104,840	0,066	-0,011
-63,607	-92,391	-0,066	-0,013
-62,592	7,781	0,028	-0,015
-61,578	800,000	0,025	-0,064
-60,563	-200,000	0,016	-0,097
-59,549	-53,789	-0,094	-0,031
-58,534	-144,639	-1,375	-0,090
-57,519	628,792	-0,764	-1,405
-56,505	-200,000	-0,853	-4,497
-55,490	-57,444	0,660	-0,209
-54,476	800,000	4,666	11,490
-53,461	-200,000	14,140	251,362
-52,446	-200,000	693,519	2237,364
-51,432	580,686	1621,581	2890,182
-50,417	117,643	1630,041	1453,170
-49,403	73,913	1284,713	975,006
-48,388	37,810	1021,465	655,971
-47,373	24,003	979,973	584,067
-46,359	23,296	969,389	575,424
-45,344	22,168	965,188	569,236
-44,330	22,149	963,693	568,271
-43,315	22,042	962,250	567,050
-42,300	22,005	961,219	566,301
-41,286	21,937	960,303	565,518
-40,271	21,979	959,256	565,014
-39,257	22,035	958,336	564,631
-38,242	21,918	957,348	563,648
-37,227	21,938	956,528	563,209
-36,213	21,912	955,677	562,600
-35,198	21,856	954,858	561,916
-34,184	21,952	954,149	561,783
-33,169	21,915	953,387	561,195
-32,154	22,039	952,180	560,862
-31,140	21,947	951,412	560,091
-30,125	21,990	950,646	559,755
-29,111	21,973	949,820	559,191
-28,096	21,964	949,253	558,808
-27,082	21,892	948,748	558,258
-26,067	21,992	947,809	558,002
-25,052	21,993	946,876	557,433
-24,038	21,960	946,509	557,090
-23,023	21,964	945,960	556,759
-22,009	21,992	945,113	556,328
-20,994	22,038	944,205	555,917
-19,979	21,992	943,887	555,562
-18,965	22,035	943,047	555,180
-17,950	21,964	942,674	554,713
-16,936	21,923	941,918	554,116
-15,921	21,936	941,091	553,650
-14,906	21,827	940,505	552,938
-13,892	21,857	939,888	552,647
-12,877	21,814	939,149	552,055
-11,863	21,823	938,744	551,825
-10,848	21,857	938,147	551,559
-9,833	21,955	937,634	551,546
-8,819	21,914	937,094	551,075
-7,804	21,844	936,292	550,363
-6,790	21,842	935,980	550,149
-5,775	21,854	935,255	549,738
-4,760	21,842	934,642	549,319
-3,746	21,882	934,019	549,056
-2,731	21,724	933,283	548,105
-1,717	21,646	932,586	547,431
-0,702	21,640	932,026	547,059
0,313	21,501	931,250	546,995
1,327	24,009	928,901	553,422
2,342	31,773	806,805	501,642
3,356	26,890	507,438	307,183
4,371	2,963	372,700	195,309
5,386	0,058	355,621	182,794
6,400	-1,618	349,121	177,425
7,415	-2,564	346,468	174,932
8,429	-2,771	344,988	173,924
9,444	-2,823	343,992	173,345
10,459	-2,887	343,286	172,898
11,473	-2,791	342,670	172,686
12,488	-2,524	342,195	172,746
13,502	-2,587	341,770	172,441
14,517	-2,532	341,127	172,165
15,531	-2,852	340,496	171,458
16,546	-2,765	340,028	171,308
17,561	-2,810	339,570	171,010
18,575	-2,938	339,411	170,764
19,590	-2,987	338,983	170,478
20,604	-2,725	338,523	170,535
21,619	-2,710	338,016	170,282
22,634	-2,904	337,901	169,984
23,648	-2,821	337,463	169,845
24,663	-2,854	337,177	169,647
25,677	-2,925	336,772	169,346
26,692	-2,856	336,393	169,221
27,707	-2,831	336,204	169,139
28,721	-2,972	335,933	168,825
29,736	-2,863	335,444	168,690
30,750	-2,969	335,398	168,530
31,765	-2,907	335,064	168,418
32,780	-2,672	334,512	168,396
33,794	-2,752	334,434	168,250
34,809	-2,939	334,084	167,844
35,823	-2,921	333,855	167,734
36,838	-2,882	333,685	167,679
37,853	-2,963	333,269	167,362
38,867	-2,877	332,965	167,293
39,882	-2,840	332,671	167,173
40,896	-2,929	332,454	166,947
41,911	-2,956	332,260	166,803
42,926	-3,001	331,832	166,523
43,940	-2,964	331,659	166,463
44,955	-2,948	331,374	166,324
45,969	-2,898	331,213	166,285
46,984	-3,154	330,844	165,793
47,999	-3,384	330,609	165,400
49,013	-3,440	330,411	165,223
50,028	-3,360	329,886	165,036
51,042	-3,461	329,775	164,852
52,057	-3,465	329,440	164,665
53,071	-3,396	329,149	164,583
54,086	-3,462	328,998	164,418
55,101	-3,340	328,705	164,396
56,115	-3,122	328,425	164,485
57,130	-2,848	328,375	164,755
58,144	-2,756	328,131	164,721
59,159	-2,745	327,931	164,618
60,174	-2,824	327,774	164,435
61,188	-2,839	327,424	164,229
62,203	-2,762	327,138	164,157
63,217	-2,809	326,827	163,933
64,232	-2,929	326,718	163,729
65,247	-2,616	326,344	163,878
66,261	-2,657	326,181	163,735
67,276	-2,845	325,735	163,287
68,290	-2,975	325,537	163,029
69,305	-3,124	325,224	162,692
70,320	-3,177	324,963	162,488
71,334	-2,961	324,787	162,625
72,349	-2,716	324,566	162,772
73,363	-2,631	324,250	162,694
74,378	-2,717	324,072	162,494
75,393	-2,885	323,962	162,238
76,407	-2,899	323,590	162,022
77,422	-2,988	323,401	161,815
78,436	-2,883	323,089	161,760
79,451	-2,791	322,904	161,755
80,466	-2,939	322,483	161,367
81,480	-2,945	322,129	161,167
82,495	-3,009	321,881	160,959
83,509	-2,950	321,689	160,913
84,524	-3,002	321,536	160,766
85,539	-3,098	321,234	160,495
86,553	-3,327	321,048	160,136
87,568	-3,012	320,690	160,288
88,582	-3,131	320,576	160,087
89,597	-3,050	320,251	159,999
90,611	-2,939	320,109	160,035
91,626	-2,761	319,717	160,020
92,641	-2,926	319,693	159,813
93,655	-2,957	319,402	159,620
94,670	-3,056	319,193	159,393
95,684	-3,014	318,981	159,318
96,699	-3,028	318,778	159,187
97,714	-3,204	318,406	158,796
98,728	-3,106	318,340	158,856
99,743	-3,085	317,918	158,653
100,757	-3,098	317,691	158,512
101,772	-3,043	317,485	158,455
102,787	-2,993	317,253	158,379
103,801	-3,077	317,236	158,266
104,816	-2,982	316,940	158,206
105,830	-3,008	316,737	158,063
106,845	-2,879	316,515	158,077
107,860	-2,783	316,203	158,012
108,874	-2,980	315,994	157,680
109,889	-3,009	315,823	157,549
110,903	-3,041	315,573	157,376
111,918	-3,017	315,279	157,242
112,933	-2,874	315,087	157,285
113,947	-2,802	314,931	157,270
114,962	-2,827	314,649	157,089
115,976	-2,974	314,442	156,814
116,991	-2,936	314,217	156,729
118,006	-2,885	313,926	156,624
119,020	-3,091	313,967	156,410
120,035	-2,768	313,660	156,589
121,049	-2,866	313,414	156,347
122,064	-2,773	313,166	156,308
123,079	-2,905	313,124	156,133
124,093	-2,949	312,790	155,905
125,108	-3,018	312,360	155,604
126,122	-3,239	312,059	155,205
127,137	-3,330	311,939	155,035
128,151	-3,245	311,683	154,984
129,166	-3,071	311,556	155,093
130,181	-3,045	311,322	154,989
131,195	-3,191	310,954	154,638
132,210	-3,069	310,906	154,729
133,224	-2,940	310,708	154,753
134,239	-2,939	310,582	154,678
135,254	-2,859	310,272	154,594
136,268	-3,069	310,120	154,283
137,283	-3,311	309,760	153,835
138,297	-3,191	309,495	153,815
139,312	-3,058	309,140	153,765
140,327	-3,124	309,202	153,713
141,341	-2,768	309,047	153,997
142,356	-2,673	308,939	154,030
143,370	-2,722	308,798	153,893
144,385	-2,303	308,369	154,106
145,400	-2,645	308,152	153,625
146,414	-2,710	308,048	153,491
147,429	-2,621	307,695	153,395
148,443	-2,685	307,498	153,217
149,458	-2,656	307,367	153,167
150,473	-2,542	307,067	153,123
151,487	-2,678	306,982	152,925
152,502	-2,625	306,694	152,824
153,516	-2,528	306,545	152,837
154,531	-2,646	306,274	152,565
155,546	-2,561	306,023	152,515
156,560	-2,646	305,740	152,271
157,575	-2,696	305,495	152,085
158,589	-2,688	305,363	152,013
159,604	-2,599	305,115	151,968
160,619	-2,583	304,823	151,826
161,633	-2,617	304,682	151,708
162,648	-2,551	304,537	151,690
163,662	-2,771	304,529	151,445
164,677	-2,702	304,237	151,358
165,692	-2,648	304,094	151,329
166,706	-2,612	303,800	151,206
167,721	-2,669	303,649	151,058
168,735	-2,655	303,443	150,956
169,750	-2,553	303,377	151,016
170,764	-2,425	303,064	150,978
171,779	-2,577	302,946	150,750
172,794	-2,644	302,640	150,515
173,808	-2,697	302,424	150,340
174,823	-3,142	302,040	149,679
175,837	-2,960	301,826	149,746
176,852	-2,703	301,814	149,991
177,867	-2,445	301,658	150,163
178,881	-2,540	301,456	149,952
179,896	-2,478	301,280	149,914
180,910	-2,505	301,111	149,789
181,925	-2,542	300,854	149,610
182,940	-2,358	300,589	149,653
183,954	-2,441	300,454	149,488
184,969	-2,609	300,250	149,202
185,983	-2,530	300,033	149,162
186,998	-2,513	299,797	149,048
188,013	-2,512	299,437	148,857
189,027	-2,494	299,455	148,870
190,042	-2,543	299,270	148,715
191,056	-2,571	299,152	148,616
192,071	-2,283	298,758	148,698
193,086	-2,309	298,618	148,589
194,100	-2,469	298,526	148,367
195,115	-2,516	298,261	148,176
196,129	-2,567	298,034	147,998
197,144	-2,434	297,782	147,993
198,159	-2,372	297,531	147,919
199,173	-2,411	297,459	147,831
200,188	-2,331	297,205	147,771
201,202	-2,608	296,904	147,330
202,217	-2,983	296,635	146,807
203,232	-3,118	296,487	146,584
204,246	-2,783	296,132	146,732
205,261	-2,515	296,001	146,923
206,275	-2,364	295,991	147,055
207,290	-2,554	295,725	146,720
208,304	-2,451	295,478	146,688
209,319	-2,576	295,418	146,520
210,334	-2,563	295,097	146,361
211,348	-2,441	294,877	146,360
212,363	-2,541	294,809	146,213
213,377	-2,562	294,548	146,051
214,392	-2,572	294,433	145,970
215,407	-2,538	294,135	145,843
216,421	-2,837	293,952	145,442
217,436	-2,838	293,788	145,347
218,450	-2,780	293,536	145,267
219,465	-2,803	293,429	145,178
220,480	-2,850	293,280	145,045
221,494	-2,761	293,060	145,012
222,509	-2,671	292,804	144,961
223,523	-2,609	292,780	144,998
224,538	-2,429	292,485	145,016
225,553	-2,623	292,370	144,755
226,567	-2,420	292,238	144,877
227,582	-2,418	291,956	144,726
228,596	-2,575	291,833	144,498
229,611	-2,518	291,669	144,460
230,626	-2,521	291,425	144,323
231,640	-2,780	291,080	143,885
232,655	-3,011	290,753	143,484
233,669	-3,105	290,646	143,325
234,684	-2,942	290,468	143,385
235,699	-2,982	290,419	143,309
236,713	-2,687	290,025	143,390
237,728	-2,918	290,052	143,165
238,742	-2,860	289,872	143,119
239,757	-2,660	289,723	143,229
240,772	-2,388	289,343	143,293
241,786	-2,730	289,134	142,844
242,801	-2,775	289,083	142,762
243,815	-2,731	288,926	142,715
244,830	-2,548	288,755	142,796
245,844	-2,816	288,672	142,481
246,859	-2,773	288,393	142,372
247,874	-2,687	288,157	142,326
248,888	-2,644	287,948	142,252
249,903	-2,371	287,674	142,370
250,917	-2,303	287,627	142,399
251,932	-2,244	287,651	142,456
252,947	-1,636	287,687	143,050
253,961	-2,206	287,226	142,257
254,976	-1,322	287,652	143,311
255,990	1,309	288,258	146,151
257,005	2,345	288,752	147,392
258,020	3,634	289,159	148,837
259,034	3,823	288,878	148,863
260,049	3,681	288,508	148,521
261,063	3,359	288,313	148,096
262,078	3,687	288,329	148,409
263,093	4,451	288,314	149,126
264,107	4,321	288,067	148,859
265,122	4,403	287,974	148,877
266,136	4,498	287,950	148,943
267,151	4,427	287,627	148,694
268,166	4,163	287,300	148,259
269,180	4,208	287,115	148,192
270,195	4,369	286,957	148,253
271,209	4,362	286,822	148,163
272,224	4,094	286,573	147,764
273,239	3,853	286,411	147,436
274,253	4,180	286,156	147,606
275,268	4,545	286,132	147,929
276,282	4,387	285,946	147,669
277,297	4,499	285,787	147,680
278,312	4,839	285,780	147,988
279,326	4,475	285,520	147,493
280,341	4,193	285,166	147,028
281,355	4,252	284,956	146,962
282,370	4,090	284,765	146,697
283,384	4,035	284,617	146,555
284,399	4,176	284,453	146,592
285,414	4,180	284,325	146,517
286,428	4,167	284,163	146,407
287,443	3,961	283,770	145,996
288,457	3,777	283,616	145,730
289,472	3,925	283,311	145,700
290,487	3,682	283,136	145,368
291,501	3,755	283,005	145,356
292,516	3,475	282,692	144,918
293,530	3,559	282,605	144,940
294,545	3,804	282,638	145,175
295,560	4,087	282,388	145,301
296,574	3,736	282,123	144,820
297,589	3,860	281,991	144,857
298,603	4,112	281,984	145,078
299,618	4,263	281,797	145,111
300,633	3,969	281,560	144,699
301,647	4,024	281,246	144,576
302,662	4,143	281,076	144,588
303,676	3,940	280,844	144,265
304,691	3,574	280,576	143,772
305,706	3,451	280,341	143,524
306,720	3,331	280,139	143,295
307,735	3,405	280,046	143,304
308,749	3,714	280,018	143,565
309,764	4,017	279,631	143,637
310,779	3,693	279,569	143,291
311,793	3,545	279,329	143,017
312,808	3,542	279,089	142,878
313,822	3,606	279,044	142,902
314,837	3,469	278,752	142,613
315,852	3,333	278,469	142,328
316,866	3,398	278,384	142,332
317,881	3,467	278,239	142,310
318,895	3,440	278,030	142,165
319,910	3,339	277,860	141,972
320,925	3,507	277,601	141,983
321,939	3,676	277,495	142,072
322,954	3,725	277,480	142,097
323,968	3,739	277,277	141,993
324,983	3,818	277,220	142,025
325,997	3,768	276,911	141,808
327,012	3,883	276,692	141,789
328,027	3,881	276,558	141,705
329,041	3,518	276,493	141,325
330,056	3,731	276,195	141,356
331,070	3,716	276,090	141,276
332,085	3,583	275,947	141,068
333,100	3,675	275,841	141,085
334,114	3,717	275,406	140,889
335,129	3,536	275,210	140,610
336,143	3,549	275,249	140,630
337,158	4,057	275,060	140,985
338,173	3,938	274,771	140,717
339,187	3,674	274,635	140,393
340,202	3,731	274,524	140,376
341,216	3,870	274,325	140,389
342,231	3,686	274,118	140,102
343,246	3,784	274,009	140,123
344,260	3,725	273,825	139,962
345,275	3,909	273,719	140,064
346,289	4,147	273,766	140,291
347,304	4,115	273,386	140,056
348,319	3,776	273,174	139,627
349,333	3,801	272,928	139,511
350,348	4,014	272,994	139,726
351,362	4,196	272,783	139,770
352,377	4,071	272,490	139,494
353,392	4,161	272,378	139,506
354,406	4,213	272,327	139,515
355,421	190,524	1332,274	1406,551
356,435	153,874	1461,488	1406,661
