DTS Sentinel unit serial number:	SN410029Multiplexer serial number:	ORYXHardware model number:	OX2-SRSoftware version number:	ORYX F/W v4,00 Oryx Data Collector v3.7.2.0data status	okinstallation	B4 Nyhavnadifferential loss correction	single-endedforward channel	channel 2reverse channel	N/Adate	2023/12/16time	03:15:14forward acquisition time	300,00reverse acquisition time	0,00gamma	499,1914k internal	0,3128k external	0,3128temperature offset calibration	1,0000default loss term (dB/km)	0,3820temperature slope calibration	1,0000multiplexer offset coefficient	1,0000multiplexer slope coefficient	1,0000fibre end	0,00T internal ref (°C)	21,97T ext. ref 1 (°C)	6,98T ext. ref 2 (°C)	7,17length (m)	temperature (°C)	Stokes	anti-Stokes-744,400	-200,000	-0,001	-0,103
-743,385	-24,168	-0,191	0,085
-742,371	172,045	0,046	0,049
-741,356	82,109	-0,186	0,150
-740,342	154,167	0,096	0,098
-739,327	-71,337	-0,332	-0,092
-738,312	325,492	0,089	-0,127
-737,298	2,073	-0,248	0,133
-736,283	-200,000	0,004	0,037
-735,269	-97,717	-0,184	0,035
-734,254	280,203	0,096	0,129
-733,239	-84,643	-0,407	-0,095
-732,225	-200,000	0,012	0,110
-731,210	764,779	-0,088	0,179
-730,196	46,275	-0,088	0,061
-729,181	605,416	0,041	0,076
-728,167	-45,820	-0,113	-0,041
-727,152	-65,483	0,079	0,024
-726,137	-200,000	-0,022	-0,151
-725,123	-23,766	-0,124	-0,055
-724,108	758,753	0,071	-0,143
-723,094	70,697	-0,075	0,058
-722,079	255,117	-0,089	-0,113
-721,064	56,966	-0,084	-0,061
-720,050	-200,000	-0,011	0,046
-719,035	800,000	-0,021	-0,045
-718,021	-200,000	0,001	-0,100
-717,006	-200,000	0,028	-0,106
-715,991	-200,000	-0,036	-0,151
-714,977	-200,000	-0,017	-0,115
-713,962	800,000	-0,035	-0,104
-712,948	599,546	0,044	-0,081
-711,933	40,050	-0,035	0,023
-710,918	398,123	-0,033	0,051
-709,904	-152,994	-0,079	-0,004
-708,889	-36,183	0,083	-0,033
-707,875	0,504	-0,085	0,045
-706,860	220,114	-0,027	-0,032
-705,845	-21,222	-0,106	-0,048
-704,831	-85,706	0,060	-0,014
-703,816	-200,000	-0,014	-0,053
-702,802	-200,000	-0,007	0,056
-701,787	-200,000	0,022	-0,102
-700,772	561,712	0,034	-0,062
-699,758	-48,482	0,036	0,013
-698,743	-200,000	0,008	0,029
-697,729	-42,839	0,092	0,034
-696,714	193,122	0,058	-0,065
-695,699	-26,693	-0,130	-0,056
-694,685	67,163	-0,022	0,017
-693,670	670,785	-0,090	-0,174
-692,656	225,405	-0,043	-0,052
-691,641	-39,142	0,032	-0,012
-690,627	13,012	-0,131	0,075
-689,612	-27,868	0,025	0,011
-688,597	-200,000	0,002	-0,051
-687,583	130,472	-0,057	-0,054
-686,568	-200,000	0,030	-0,213
-685,554	-200,000	-0,002	-0,063
-684,539	149,346	0,046	-0,046
-683,524	-38,477	-0,093	0,036
-682,510	-200,000	0,001	0,092
-681,495	-200,000	-0,003	-0,069
-680,481	-200,000	0,009	0,069
-679,466	-29,002	-0,078	-0,033
-678,451	-140,698	-0,061	-0,005
-677,437	157,248	-0,069	-0,071
-676,422	800,000	-0,045	0,121
-675,408	-131,042	-0,074	0,007
-674,393	-34,902	-0,067	-0,027
-673,378	53,503	-0,101	0,072
-672,364	38,349	-0,081	-0,053
-671,349	-200,000	-0,009	-0,072
-670,335	-78,118	-0,066	0,017
-669,320	800,000	0,020	-0,062
-668,305	19,058	-0,049	0,029
-667,291	94,790	0,038	0,032
-666,276	800,000	-0,046	-0,106
-665,262	188,553	-0,086	-0,096
-664,247	-200,000	0,001	0,107
-663,232	800,000	-0,041	-0,090
-662,218	46,362	0,048	0,033
-661,203	250,031	-0,043	0,054
-660,189	539,330	-0,021	0,038
-659,174	800,000	0,041	-0,120
-658,159	-200,000	-0,008	-0,031
-657,145	-175,214	-0,030	-0,001
-656,130	638,985	0,043	0,082
-655,116	-103,974	-0,091	0,016
-654,101	-200,000	0,000	-0,112
-653,086	-143,467	0,075	-0,005
-652,072	-117,967	-0,122	0,016
-651,057	83,536	-0,092	-0,075
-650,043	68,418	-0,118	-0,089
-649,028	261,665	-0,027	0,035
-648,014	-200,000	0,011	0,093
-646,999	406,750	-0,061	0,096
-645,984	800,000	-0,012	0,031
-644,970	-45,296	-0,022	-0,008
-643,955	64,979	-0,097	0,073
-642,941	355,679	-0,009	0,013
-641,926	322,818	0,086	-0,122
-640,911	-148,906	0,091	-0,005
-639,897	-200,000	0,010	0,116
-638,882	302,476	0,032	-0,044
-637,868	87,107	-0,066	-0,054
-636,853	-3,300	-0,127	0,065
-635,838	53,310	0,151	-0,107
-634,824	513,404	0,028	-0,049
-633,809	163,268	-0,065	0,067
-632,795	-84,425	-0,129	-0,030
-631,780	-24,695	-0,030	-0,013
-630,765	196,608	-0,160	0,181
-629,751	-200,000	-0,002	-0,109
-628,736	-71,663	-0,036	-0,010
-627,722	204,030	-0,068	-0,078
-626,707	800,000	0,039	-0,090
-625,692	-200,000	0,003	-0,169
-624,678	217,909	0,041	0,048
-623,663	593,356	-0,084	0,155
-622,649	-200,000	0,010	-0,042
-621,634	50,089	-0,095	-0,066
-620,619	-200,000	-0,026	-0,109
-619,605	800,000	0,018	0,038
-618,590	647,709	-0,070	0,134
-617,576	224,015	-0,059	0,070
-616,561	800,000	0,050	-0,104
-615,546	-68,986	-0,029	-0,008
-614,532	-61,672	-0,088	-0,027
-613,517	45,474	0,107	-0,073
-612,503	715,143	-0,040	-0,079
-611,488	-8,820	0,085	-0,042
-610,474	800,000	0,049	0,106
-609,459	-16,114	-0,144	-0,068
-608,444	-82,156	-0,064	-0,015
-607,430	-132,490	-0,078	-0,007
-606,415	-181,800	-0,043	0,001
-605,401	-200,000	0,010	0,041
-604,386	-153,022	-0,085	0,004
-603,371	687,165	-0,040	-0,078
-602,357	653,466	-0,028	-0,053
-601,342	-32,624	0,087	-0,036
-600,328	-24,583	-0,019	0,008
-599,313	129,612	-0,101	-0,096
-598,298	-200,000	0,002	-0,099
-597,284	-200,000	0,015	0,054
-596,269	-200,000	0,012	0,196
-595,255	9,020	-0,044	0,025
-594,240	25,265	0,089	0,055
-593,225	800,000	-0,025	0,067
-592,211	-200,000	-0,008	0,065
-591,196	-63,347	-0,019	-0,006
-590,182	-77,713	0,126	-0,032
-589,167	-200,000	0,012	-0,144
-588,152	-63,000	0,056	-0,017
-587,138	660,107	-0,068	0,131
-586,123	-116,635	0,087	-0,012
-585,109	-57,027	-0,042	-0,013
-584,094	-79,986	-0,133	0,033
-583,079	44,122	0,038	0,026
-582,065	-76,272	0,077	-0,020
-581,050	-200,000	0,013	0,099
-580,036	-59,139	-0,040	-0,013
-579,021	-136,622	-0,177	-0,015
-578,006	107,772	0,041	-0,036
-576,992	-200,000	0,010	-0,136
-575,977	275,353	-0,068	-0,089
-574,963	671,389	-0,066	0,127
-573,948	-105,744	-0,028	-0,005
-572,934	-121,516	0,076	-0,009
-571,919	-200,000	-0,045	0,161
-570,904	-200,000	-0,006	-0,054
-569,890	-200,000	0,027	-0,145
-568,875	281,547	0,045	-0,060
-567,861	-200,000	0,013	0,071
-566,846	800,000	0,057	0,147
-565,831	59,053	0,036	-0,026
-564,817	36,476	-0,048	-0,031
-563,802	-200,000	-0,024	-0,081
-562,788	-59,699	-0,034	0,011
-561,773	306,732	0,074	0,103
-560,758	223,847	-0,022	0,027
-559,744	9,485	0,080	0,045
-558,729	480,637	-0,012	0,021
-557,715	-200,000	-0,016	-0,077
-556,700	-14,938	0,084	-0,040
-555,685	-200,000	0,011	-0,106
-554,671	312,661	-0,051	-0,071
-553,656	84,854	0,149	0,121
-552,642	-46,273	-0,073	0,026
-551,627	-119,204	0,116	-0,015
-550,612	144,135	-0,035	0,034
-549,598	-124,875	-0,075	0,008
-548,583	-94,815	-0,051	0,010
-547,569	9,475	0,026	0,015
-546,554	-87,457	0,102	0,023
-545,539	455,759	-0,078	-0,129
-544,525	-17,013	-0,072	-0,033
-543,510	800,000	0,070	-0,147
-542,496	-148,778	0,029	0,002
-541,481	-154,325	0,079	0,004
-540,466	-200,000	-0,018	-0,169
-539,452	268,140	0,108	-0,139
-538,437	285,231	0,036	0,048
-537,423	16,920	0,037	0,022
-536,408	77,801	-0,077	0,061
-535,393	800,000	0,041	-0,107
-534,379	211,082	0,024	-0,027
-533,364	-160,820	-0,055	-0,002
-532,350	114,100	0,024	0,021
-531,335	-200,000	-0,003	0,115
-530,321	800,000	-0,034	-0,080
-529,306	-17,724	0,150	-0,069
-528,291	-23,478	0,121	-0,053
-527,277	-200,000	-0,003	-0,068
-526,262	800,000	0,043	-0,094
-525,248	-104,716	-0,074	0,012
-524,233	-148,185	-0,079	-0,005
-523,218	3,455	0,121	-0,065
-522,204	53,311	0,074	-0,052
-521,189	-200,000	-0,023	-0,101
-520,175	-31,650	0,058	-0,024
-519,160	605,139	-0,017	0,031
-518,145	11,195	0,043	0,024
-517,131	-200,000	-0,023	-0,106
-516,116	124,135	-0,041	-0,038
-515,102	-200,000	0,022	-0,090
-514,087	39,163	-0,072	-0,047
-513,072	449,032	0,005	-0,008
-512,058	202,407	0,089	-0,102
-511,043	-200,000	-0,044	0,150
-510,029	800,000	0,022	0,048
-509,014	800,000	0,037	-0,105
-507,999	122,937	0,039	0,036
-506,985	-175,811	-0,042	-0,001
-505,970	800,000	-0,044	0,108
-504,956	104,299	0,032	-0,028
-503,941	-44,286	-0,087	0,032
-502,926	383,954	-0,122	0,186
-501,912	800,000	0,013	0,028
-500,897	6,286	-0,045	-0,025
-499,883	181,926	0,084	0,091
-498,868	-58,638	-0,030	-0,010
-497,853	-20,396	-0,073	0,033
-496,839	800,000	-0,043	0,135
-495,824	-200,000	0,018	-0,107
-494,810	134,421	-0,047	0,045
-493,795	-200,000	0,031	-0,139
-492,781	-67,138	-0,078	-0,023
-491,766	-200,000	0,006	-0,039
-490,751	241,813	0,095	-0,117
-489,737	479,275	-0,025	-0,042
-488,722	268,758	0,038	0,049
-487,708	-200,000	-0,019	0,088
-486,693	-162,070	0,019	-0,001
-485,678	800,000	0,044	0,106
-484,664	-200,000	-0,015	0,066
-483,649	800,000	0,033	-0,074
-482,635	-96,492	-0,051	0,010
-481,620	-63,701	-0,115	0,035
-480,605	-5,935	0,091	0,046
-479,591	-3,192	0,043	-0,022
-478,576	-200,000	-0,026	0,146
-477,562	-147,206	-0,108	0,007
-476,547	171,402	0,062	0,065
-475,532	-76,839	0,097	-0,025
-474,518	359,083	0,071	0,104
-473,503	-81,023	0,069	0,017
-472,489	-200,000	0,026	-0,104
-471,474	38,240	-0,094	0,062
-470,459	23,843	-0,048	-0,029
-469,445	-89,173	-0,033	-0,007
-468,430	-200,000	-0,037	0,178
-467,416	-200,000	-0,028	0,121
-466,401	3,428	0,014	0,007
-465,386	-200,000	0,029	0,135
-464,372	444,536	-0,053	0,086
-463,357	-116,115	0,105	-0,014
-462,343	-200,000	-0,004	-0,035
-461,328	-200,000	0,020	0,137
-460,313	800,000	0,031	0,080
-459,299	-106,203	-0,053	0,009
-458,284	800,000	-0,078	0,176
-457,270	-200,000	-0,035	0,181
-456,255	800,000	0,060	-0,138
-455,241	-108,641	-0,044	-0,007
-454,226	19,856	-0,140	0,083
-453,211	800,000	0,039	-0,124
-452,197	-200,000	-0,014	0,159
-451,182	712,215	0,028	0,055
-450,168	800,000	0,018	0,052
-449,153	800,000	-0,032	0,091
-448,138	484,115	-0,044	-0,074
-447,124	-62,259	-0,106	-0,032
-446,109	633,255	0,028	0,052
-445,095	117,445	0,081	0,073
-444,080	800,000	0,066	0,194
-443,065	800,000	0,037	0,090
-442,051	-95,848	-0,044	-0,009
-441,036	-1,026	-0,059	-0,031
-440,022	345,047	0,063	0,092
-439,007	-48,348	0,052	-0,018
-437,992	-200,000	0,019	0,111
-436,978	220,175	-0,053	-0,063
-435,963	-200,000	0,004	-0,067
-434,949	-200,000	0,014	-0,080
-433,934	-200,000	0,023	-0,092
-432,919	-4,977	-0,075	0,038
-431,905	117,413	0,070	0,063
-430,890	-9,419	0,027	-0,013
-429,876	-200,000	-0,016	0,129
-428,861	166,846	0,063	-0,066
-427,846	30,363	-0,082	-0,051
-426,832	-129,690	-0,159	0,016
-425,817	305,725	-0,029	-0,039
-424,803	-200,000	0,006	-0,107
-423,788	-200,000	0,004	0,103
-422,773	45,603	0,068	0,046
-421,759	-144,390	-0,084	-0,006
-420,744	511,594	-0,035	0,060
-419,730	-200,000	-0,035	-0,199
-418,715	-200,000	-0,011	-0,049
-417,701	-200,000	0,010	0,067
-416,686	298,877	0,110	0,149
-415,671	-27,452	0,036	-0,015
-414,657	702,264	0,076	0,148
-413,642	-43,882	0,068	-0,025
-412,628	800,000	0,015	-0,046
-411,613	151,808	-0,039	-0,039
-410,598	800,000	-0,017	0,039
-409,584	-59,408	-0,043	0,013
-408,569	180,310	0,135	-0,146
-407,555	261,565	0,019	-0,024
-406,540	-200,000	-0,001	0,142
-405,525	14,105	-0,042	-0,024
-404,511	800,000	-0,023	-0,053
-403,496	-200,000	-0,008	-0,177
-402,482	154,266	-0,044	-0,045
-401,467	-200,000	-0,004	0,024
-400,452	501,702	0,056	0,095
-399,438	-121,441	0,090	-0,011
-398,423	-200,000	-0,004	0,070
-397,409	629,596	-0,020	0,037
-396,394	402,435	-0,021	-0,032
-395,379	-98,535	-0,153	0,028
-394,365	800,000	-0,036	0,114
-393,350	-200,000	0,009	-0,035
-392,336	-154,570	-0,063	0,003
-391,321	723,788	-0,039	0,077
-390,306	110,774	0,108	0,095
-389,292	-71,524	-0,049	-0,013
-388,277	-200,000	0,004	-0,016
-387,263	-35,090	0,089	0,035
-386,248	528,190	0,031	0,053
-385,233	-200,000	0,018	0,066
-384,219	692,494	0,051	0,099
-383,204	-134,845	-0,047	-0,004
-382,190	98,870	0,082	-0,070
-381,175	-200,000	0,030	-0,105
-380,160	800,000	0,082	0,171
-379,146	107,708	0,034	0,030
-378,131	-200,000	0,033	0,135
-377,117	-65,013	-0,057	0,017
-376,102	148,454	0,043	-0,043
-375,088	69,806	-0,076	-0,057
-374,073	800,000	-0,029	-0,075
-373,058	-180,032	0,131	0,002
-372,044	-200,000	-0,007	-0,022
-371,029	800,000	0,034	0,082
-370,015	-200,000	-0,012	-0,108
-369,000	24,582	-0,025	0,015
-367,985	-54,133	-0,029	-0,010
-366,971	243,654	0,093	-0,115
-365,956	800,000	-0,014	-0,033
-364,942	800,000	-0,040	-0,127
-363,927	800,000	0,024	-0,055
-362,912	26,360	0,084	0,051
-361,898	-200,000	-0,000	0,031
-360,883	-200,000	0,009	0,038
-359,869	-52,899	-0,086	-0,029
-358,854	-152,143	0,077	0,004
-357,839	2,213	-0,031	0,017
-356,825	40,943	0,042	-0,027
-355,810	-63,156	-0,092	-0,028
-354,796	53,837	-0,047	0,033
-353,781	-200,000	-0,000	0,033
-352,766	70,601	-0,050	0,038
-351,752	-200,000	0,020	-0,083
-350,737	-125,790	-0,023	-0,003
-349,723	-200,000	0,004	0,016
-348,708	-200,000	0,001	0,029
-347,693	-53,024	0,033	-0,011
-346,679	192,233	-0,100	-0,110
-345,664	-9,358	0,019	-0,010
-344,650	-114,334	-0,043	0,006
-343,635	800,000	0,053	0,171
-342,620	135,649	0,030	0,029
-341,606	41,453	0,037	-0,024
-340,591	237,906	0,068	0,083
-339,577	218,867	0,076	-0,089
-338,562	-15,598	0,082	-0,038
-337,548	-80,108	0,062	0,015
-336,533	-200,000	-0,009	0,084
-335,518	-200,000	-0,000	0,028
-334,504	-114,664	0,167	-0,023
-333,489	-59,856	-0,114	0,036
-332,475	7,216	-0,104	-0,057
-331,460	-200,000	-0,011	-0,092
-330,445	-148,981	-0,101	-0,006
-329,431	201,647	0,087	-0,098
-328,416	-200,000	-0,020	0,097
-327,402	-200,000	-0,026	0,138
-326,387	-86,755	-0,011	-0,003
-325,372	26,747	0,066	-0,041
-324,358	90,335	-0,122	-0,100
-323,343	478,242	-0,018	-0,030
-322,329	800,000	-0,021	0,060
-321,314	-200,000	0,028	0,100
-320,299	-200,000	0,007	0,053
-319,285	-84,850	0,055	0,013
-318,270	800,000	-0,096	-0,261
-317,256	36,791	0,080	-0,052
-316,241	-163,109	0,076	0,003
-315,226	-200,000	0,009	0,036
-314,212	-200,000	0,006	0,079
-313,197	-49,710	-0,016	-0,005
-312,183	-200,000	0,017	0,063
-311,168	-200,000	-0,023	-0,083
-310,153	800,000	0,082	-0,181
-309,139	-200,000	-0,012	0,057
-308,124	-200,000	-0,024	0,096
-307,110	11,978	0,094	0,053
-306,095	-200,000	-0,005	-0,025
-305,080	-137,077	-0,142	-0,012
-304,066	800,000	0,017	-0,045
-303,051	-200,000	0,018	-0,101
-302,037	80,454	-0,050	-0,039
-301,022	-45,381	-0,025	0,009
-300,008	-158,113	-0,086	-0,004
-298,993	-200,000	0,020	0,071
-297,978	-91,837	0,042	0,009
-296,964	176,564	0,008	-0,008
-295,949	-67,557	-0,138	0,039
-294,935	-28,197	0,088	-0,037
-293,920	-77,471	0,012	0,003
-292,905	-56,985	0,038	-0,012
-291,891	800,000	-0,010	-0,021
-290,876	-200,000	0,026	0,091
-289,862	73,771	0,098	-0,075
-288,847	-200,000	0,021	-0,165
-287,832	144,881	-0,036	-0,035
-286,818	-200,000	-0,005	-0,072
-285,803	36,398	0,110	-0,071
-284,789	1,771	-0,037	0,020
-283,774	800,000	0,019	-0,042
-282,759	183,788	0,074	-0,080
-281,745	-40,941	-0,091	0,034
-280,730	-200,000	-0,022	-0,108
-279,716	800,000	0,063	-0,133
-278,701	47,183	-0,112	0,076
-277,686	800,000	-0,074	0,181
-276,672	800,000	0,003	-0,009
-275,657	-37,751	-0,065	0,025
-274,643	-184,481	0,047	-0,001
-273,628	-6,175	-0,097	-0,048
-272,613	58,343	0,007	-0,005
-271,599	-49,429	-0,071	-0,024
-270,584	67,465	0,062	-0,046
-269,570	800,000	0,044	0,092
-268,555	-78,267	0,121	0,030
-267,540	-200,000	0,003	-0,083
-266,526	473,015	-0,051	-0,084
-265,511	-15,314	0,083	-0,039
-264,497	-21,650	-0,046	-0,020
-263,482	197,434	0,119	0,133
-262,467	55,336	0,112	-0,079
-261,453	-122,355	0,028	0,003
-260,438	-86,587	0,002	0,001
-259,424	289,746	-0,017	0,023
-258,409	-200,000	-0,009	-0,034
-257,395	-127,883	-0,164	-0,017
-256,380	226,209	-0,007	0,008
-255,365	4,146	0,069	-0,037
-254,351	800,000	-0,022	0,049
-253,336	800,000	-0,032	-0,091
-252,322	800,000	0,051	-0,145
-251,307	-200,000	0,025	0,080
-250,292	-88,281	-0,025	-0,006
-249,278	-92,438	0,123	-0,025
-248,263	-82,869	0,115	0,027
-247,249	-56,937	0,041	-0,013
-246,234	800,000	-0,015	-0,032
-245,219	-162,324	-0,074	-0,003
-244,205	-200,000	0,003	0,039
-243,190	284,981	0,031	-0,041
-242,176	425,031	0,046	0,072
-241,161	179,303	0,032	0,034
-240,146	-200,000	0,000	0,055
-239,132	-14,546	0,110	0,051
-238,117	-102,988	0,047	0,008
-237,103	12,244	0,028	0,016
-236,088	-200,000	-0,011	-0,128
-235,073	800,000	0,018	-0,052
-234,059	-11,410	0,076	0,036
-233,044	-53,878	0,169	-0,056
-232,030	-8,052	-0,030	-0,015
-231,015	354,777	0,060	-0,088
-230,000	106,162	-0,141	0,122
-228,986	800,000	0,036	0,106
-227,971	598,327	0,048	-0,086
-226,957	800,000	0,061	-0,162
-225,942	-200,000	-0,002	0,094
-224,927	-75,846	0,123	-0,032
-223,913	535,625	0,063	-0,110
-222,898	-83,771	0,009	0,002
-221,884	800,000	0,013	0,027
-220,869	563,917	0,007	0,013
-219,855	-200,000	0,018	0,093
-218,840	204,788	-0,145	0,165
-217,825	558,200	-0,051	0,090
-216,811	-15,020	-0,079	0,037
-215,796	-200,000	-0,016	0,111
-214,782	-145,178	0,104	0,007
-213,767	800,000	0,032	-0,078
-212,752	33,998	-0,113	0,072
-211,738	-200,000	0,005	0,101
-210,723	800,000	-0,061	-0,153
-209,709	189,413	0,025	-0,027
-208,694	15,934	-0,111	0,064
-207,679	-110,220	-0,204	-0,031
-206,665	-68,384	-0,156	0,044
-205,650	-110,177	-0,029	0,004
-204,636	-200,000	0,004	0,096
-203,621	-30,084	0,104	-0,043
-202,606	168,017	-0,054	-0,056
-201,592	-200,000	0,009	0,092
-200,577	32,425	-0,080	-0,050
-199,563	4,853	-0,132	-0,071
-198,548	800,000	0,062	0,146
-197,533	800,000	-0,012	0,032
-196,519	-103,931	0,115	0,019
-195,504	800,000	-0,053	0,130
-194,490	312,357	-0,093	-0,127
-193,475	266,801	-0,039	-0,050
-192,460	-144,540	0,105	-0,007
-191,446	800,000	-0,048	0,102
-190,431	454,906	0,031	0,050
-189,417	-105,623	0,036	0,006
-188,402	169,083	-0,110	-0,114
-187,387	54,120	-0,128	-0,090
-186,373	-200,000	0,023	-0,122
-185,358	-10,941	-0,037	-0,018
-184,344	300,934	-0,052	-0,070
-183,329	463,981	-0,023	-0,038
-182,315	93,337	0,089	0,073
-181,300	-200,000	0,000	-0,066
-180,285	20,618	-0,105	-0,062
-179,271	-13,451	-0,023	0,011
-178,256	-200,000	0,008	-0,109
-177,242	-44,022	-0,043	0,016
-176,227	552,379	0,053	0,094
-175,212	12,225	0,052	0,029
-174,198	-83,248	-0,057	-0,013
-173,183	61,311	-0,063	-0,046
-172,169	800,000	0,050	-0,115
-171,154	233,991	0,030	-0,036
-170,139	-200,000	0,041	-0,179
-169,125	-0,711	0,169	0,087
-168,110	86,707	-0,099	0,080
-167,096	316,552	0,034	0,047
-166,081	62,432	0,072	0,053
-165,066	479,230	-0,068	-0,112
-164,052	-18,550	0,055	-0,025
-163,037	244,884	0,042	-0,052
-162,023	-200,000	-0,010	0,116
-161,008	349,491	-0,032	0,047
-159,993	101,222	-0,066	0,056
-158,979	800,000	-0,044	-0,093
-157,964	-200,000	0,015	0,061
-156,950	-22,294	-0,225	0,099
-155,935	-97,685	0,120	-0,022
-154,920	56,075	0,213	-0,150
-153,906	-13,198	0,008	-0,004
-152,891	527,050	0,046	-0,079
-151,877	638,479	0,018	-0,034
-150,862	-200,000	0,018	-0,153
-149,847	0,570	0,082	0,042
-148,833	65,323	0,043	-0,032
-147,818	-156,840	0,114	0,005
-146,804	191,737	0,019	0,021
-145,789	122,202	-0,192	0,174
-144,775	113,895	0,117	-0,103
-143,760	-92,009	-0,134	0,027
-142,745	800,000	-0,027	0,065
-141,731	-122,333	-0,157	0,018
-140,716	151,863	-0,097	0,097
-139,702	8,971	-0,161	0,088
-138,687	328,085	0,030	-0,042
-137,672	40,434	0,136	0,089
-136,658	125,096	0,029	0,027
-135,643	800,000	-0,024	-0,074
-134,629	564,771	0,061	-0,107
-133,614	-35,401	0,087	0,034
-132,599	800,000	0,059	-0,148
-131,585	-200,000	-0,021	-0,118
-130,570	296,191	-0,041	-0,055
-129,556	-194,029	-0,121	0,001
-128,541	-140,255	-0,125	-0,009
-127,526	11,935	-0,078	-0,043
-126,512	-48,406	0,203	-0,071
-125,497	-200,000	0,009	0,074
-124,483	800,000	0,040	-0,128
-123,468	-13,532	0,032	0,015
-122,453	38,053	-0,080	0,051
-121,439	-44,625	-0,061	-0,022
-120,424	21,832	0,071	-0,042
-119,410	-176,529	0,091	-0,002
-118,395	800,000	0,065	-0,133
-117,380	-200,000	-0,006	0,117
-116,366	-200,000	0,011	-0,035
-115,351	-98,105	-0,063	0,012
-114,337	29,341	-0,152	-0,093
-113,322	-8,740	0,049	-0,024
-112,307	107,862	0,066	-0,057
-111,293	-97,464	-0,029	0,005
-110,278	102,302	0,119	0,101
-109,264	570,810	0,031	-0,055
-108,249	37,448	0,085	0,055
-107,234	-51,486	-0,054	-0,018
-106,220	800,000	0,081	0,167
-105,205	73,783	0,103	0,079
-104,191	-200,000	0,019	-0,078
-103,176	-103,587	0,100	-0,017
-102,162	426,311	0,032	0,050
-101,147	-64,545	0,019	-0,006
-100,132	-200,000	0,021	-0,112
-99,118	-44,469	-0,178	-0,064
-98,103	-63,598	0,017	-0,005
-97,089	800,000	0,013	-0,042
-96,074	71,253	0,076	-0,057
-95,059	-200,000	-0,010	0,066
-94,045	800,000	0,020	0,050
-93,030	-51,995	0,043	0,015
-92,016	-200,000	-0,015	0,119
-91,001	-174,783	0,062	-0,001
-89,986	-168,441	-0,143	0,004
-88,972	106,437	-0,046	0,040
-87,957	49,395	-0,007	-0,005
-86,943	22,792	-0,057	0,034
-85,928	-103,578	-0,095	-0,016
-84,913	371,394	-0,105	-0,155
-83,899	372,997	-0,055	-0,082
-82,884	800,000	-0,045	-0,098
-81,870	141,195	0,058	-0,056
-80,855	-86,253	0,157	0,035
-79,840	-137,575	0,035	0,003
-78,826	800,000	-0,026	-0,072
-77,811	4,343	-0,133	0,071
-76,797	-81,550	-0,090	-0,021
-75,782	-175,899	0,131	0,002
-74,767	103,318	-0,122	0,104
-73,753	237,518	-0,077	0,093
-72,738	-200,000	0,009	-0,037
-71,724	408,724	-0,035	-0,054
-70,709	-59,311	0,145	-0,045
-69,694	40,459	-0,007	0,005
-68,680	-162,872	-0,061	-0,002
-67,665	-200,000	0,025	0,108
-66,651	-200,000	-0,015	0,079
-65,636	116,290	0,048	0,042
-64,622	-200,000	0,007	-0,129
-63,607	-200,000	-0,020	-0,136
-62,592	-33,428	-0,037	-0,015
-61,578	445,755	0,100	-0,159
-60,563	-200,000	0,013	0,112
-59,549	-200,000	-0,018	0,057
-58,534	-113,181	-1,367	-0,193
-57,519	654,352	-0,795	-1,484
-56,505	-200,000	-0,782	-4,291
-55,490	-162,258	0,520	0,018
-54,476	800,000	4,793	11,534
-53,461	-200,000	14,113	251,985
-52,446	-200,000	693,020	2241,510
-51,432	583,066	1621,824	2895,579
-50,417	117,954	1630,922	1455,564
-49,403	73,958	1285,424	975,816
-48,388	37,784	1022,106	656,351
-47,373	23,959	980,417	584,238
-46,359	23,232	969,852	575,544
-45,344	22,285	965,360	569,769
-44,330	22,107	964,139	568,449
-43,315	22,024	962,769	567,349
-42,300	22,021	961,590	566,620
-41,286	22,065	960,533	566,119
-40,271	22,029	959,557	565,404
-39,257	21,990	958,787	564,801
-38,242	21,986	957,756	564,159
-37,227	22,007	956,922	563,713
-36,213	22,003	955,988	563,127
-35,198	21,954	955,055	562,397
-34,184	21,940	954,512	562,012
-33,169	22,005	953,639	561,684
-32,154	22,068	952,553	561,225
-31,140	21,979	952,002	560,592
-30,125	22,055	951,237	560,363
-29,111	22,039	950,041	559,583
-28,096	21,997	949,645	559,194
-27,082	22,022	948,908	558,818
-26,067	21,992	948,106	558,229
-25,052	21,948	947,599	557,766
-24,038	22,020	946,886	557,555
-23,023	22,058	946,058	557,165
-22,009	22,021	945,455	556,672
-20,994	22,035	944,941	556,391
-19,979	22,089	944,161	556,082
-18,965	21,953	943,685	555,345
-17,950	22,017	943,037	555,146
-16,936	21,933	942,430	554,500
-15,921	21,922	941,636	553,977
-14,906	21,945	940,807	553,538
-13,892	21,900	940,202	553,018
-12,877	21,844	939,661	552,501
-11,863	21,840	939,217	552,205
-10,848	21,910	938,438	551,946
-9,833	22,019	938,134	552,090
-8,819	21,962	937,347	551,425
-7,804	21,952	936,676	550,978
-6,790	21,946	935,984	550,529
-5,775	21,961	935,589	550,323
-4,760	21,954	934,796	549,812
-3,746	21,915	934,307	549,380
-2,731	21,731	933,591	548,359
-1,717	21,750	932,744	547,898
-0,702	21,710	932,231	547,450
0,313	21,535	931,588	547,348
1,327	24,136	929,084	553,978
2,342	31,903	807,305	502,347
3,356	27,053	507,660	307,624
4,371	2,886	372,454	195,098
5,386	-0,215	355,391	182,359
6,400	-1,927	349,039	177,028
7,415	-2,573	346,179	174,792
8,429	-2,691	344,763	173,921
9,444	-2,772	343,708	173,278
10,459	-2,643	343,085	173,101
11,473	-2,615	342,456	172,800
12,488	-2,501	342,102	172,741
13,502	-2,335	341,390	172,561
14,517	-2,594	341,014	172,051
15,531	-2,783	340,609	171,611
16,546	-2,668	340,011	171,428
17,561	-2,633	339,591	171,242
18,575	-2,719	339,231	170,945
19,590	-2,697	338,740	170,709
20,604	-2,634	338,433	170,612
21,619	-2,644	338,050	170,392
22,634	-2,757	337,644	170,040
23,648	-2,691	337,295	169,926
24,663	-2,767	337,012	169,681
25,677	-2,678	336,742	169,632
26,692	-2,710	336,367	169,391
27,707	-2,748	336,087	169,191
28,721	-2,822	335,786	168,939
29,736	-2,655	335,391	168,917
30,750	-2,824	335,246	168,636
31,765	-2,776	334,987	168,545
32,780	-2,597	334,619	168,550
33,794	-2,699	334,319	168,267
34,809	-2,616	333,900	168,137
35,823	-2,756	333,767	167,895
36,838	-2,793	333,472	167,689
37,853	-2,862	333,083	167,400
38,867	-2,749	332,823	167,383
39,882	-2,799	332,553	167,175
40,896	-2,747	332,459	167,172
41,911	-2,689	331,985	166,985
42,926	-2,801	331,766	166,733
43,940	-2,821	331,495	166,559
44,955	-2,807	331,087	166,354
45,969	-2,846	330,897	166,200
46,984	-3,029	330,785	165,921
47,999	-3,275	330,328	165,398
49,013	-3,287	330,122	165,267
50,028	-3,344	329,812	165,032
51,042	-3,306	329,380	164,844
52,057	-3,413	329,267	164,653
53,071	-3,241	328,876	164,637
54,086	-3,417	328,820	164,396
55,101	-3,285	328,528	164,383
56,115	-3,034	328,407	164,591
57,130	-2,646	328,110	164,863
58,144	-2,676	327,918	164,719
59,159	-2,761	327,640	164,468
60,174	-2,528	327,349	164,570
61,188	-2,643	327,227	164,364
62,203	-2,475	326,848	164,348
63,217	-2,521	326,585	164,149
64,232	-2,691	326,427	163,865
65,247	-2,687	326,315	163,798
66,261	-2,507	325,794	163,723
67,276	-2,806	325,486	163,221
68,290	-2,965	325,245	162,908
69,305	-2,853	324,871	162,831
70,320	-2,907	324,677	162,659
71,334	-2,738	324,560	162,774
72,349	-2,577	324,354	162,835
73,363	-2,541	324,064	162,715
74,378	-2,520	323,815	162,599
75,393	-2,617	323,634	162,385
76,407	-2,629	323,373	162,227
77,422	-2,806	323,266	161,963
78,436	-2,690	322,885	161,886
79,451	-2,721	322,588	161,688
80,466	-2,844	322,187	161,337
81,480	-2,856	321,947	161,189
82,495	-2,737	321,532	161,098
83,509	-2,785	321,509	161,019
84,524	-2,860	321,195	160,766
85,539	-2,936	320,828	160,484
86,553	-3,048	320,771	160,318
87,568	-2,996	320,608	160,279
88,582	-2,884	320,281	160,224
89,597	-3,084	320,189	159,945
90,611	-2,889	319,930	160,015
91,626	-2,567	319,508	160,141
92,641	-2,732	319,482	159,934
93,655	-2,911	319,185	159,576
94,670	-2,861	318,992	159,519
95,684	-2,738	318,610	159,448
96,699	-2,718	318,341	159,321
97,714	-2,817	318,207	159,132
98,728	-2,924	317,944	158,869
99,743	-3,041	317,747	158,631
100,757	-3,044	317,582	158,531
101,772	-3,077	317,285	158,333
102,787	-3,102	317,164	158,231
103,801	-2,891	316,718	158,223
104,816	-2,848	316,513	158,153
105,830	-2,778	316,492	158,204
106,845	-2,614	316,284	158,263
107,860	-2,779	316,072	157,965
108,874	-2,884	315,681	157,642
109,889	-2,799	315,374	157,566
110,903	-2,709	315,261	157,592
111,918	-2,858	314,918	157,247
112,933	-2,918	314,887	157,152
113,947	-2,735	314,653	157,218
114,962	-2,825	314,377	156,970
115,976	-2,763	314,092	156,880
116,991	-2,849	314,010	156,733
118,006	-2,779	313,752	156,665
119,020	-2,769	313,532	156,551
120,035	-2,712	313,396	156,531
121,049	-2,714	313,232	156,433
122,064	-2,748	312,863	156,199
123,079	-2,832	312,782	156,055
124,093	-2,845	312,438	155,855
125,108	-2,933	312,185	155,621
126,122	-3,028	311,918	155,373
127,137	-3,076	311,655	155,178
128,151	-2,859	311,506	155,319
129,166	-2,851	311,273	155,198
130,181	-3,073	311,102	154,864
131,195	-2,950	310,756	154,808
132,210	-3,079	310,889	154,724
133,224	-2,844	310,477	154,753
134,239	-2,684	310,159	154,750
135,254	-2,820	309,945	154,486
136,268	-2,739	309,753	154,462
137,283	-2,985	309,409	154,018
138,297	-3,062	309,136	153,788
139,312	-3,066	308,993	153,698
140,327	-2,736	308,849	153,959
141,341	-2,691	308,712	153,925
142,356	-2,514	308,735	154,108
143,370	-2,436	308,501	154,059
144,385	-2,389	308,122	153,906
145,400	-2,462	307,836	153,673
146,414	-2,450	307,713	153,610
147,429	-2,361	307,506	153,586
148,443	-2,484	307,321	153,352
149,458	-2,523	307,225	153,249
150,473	-2,382	306,854	153,198
151,487	-2,415	306,434	152,940
152,502	-2,558	306,476	152,799
153,516	-2,567	306,265	152,671
154,531	-2,634	306,243	152,576
155,546	-2,471	305,807	152,514
156,560	-2,459	305,495	152,357
157,575	-2,800	305,421	151,953
158,589	-2,682	305,100	151,903
159,604	-2,655	305,039	151,886
160,619	-2,575	304,780	151,827
161,633	-2,338	304,490	151,914
162,648	-2,445	304,444	151,767
163,662	-2,529	304,240	151,565
164,677	-2,561	304,001	151,399
165,692	-2,374	303,756	151,457
166,706	-2,434	303,648	151,327
167,721	-2,486	303,335	151,104
168,735	-2,537	303,262	151,001
169,750	-2,359	303,007	151,044
170,764	-2,469	302,905	150,867
171,779	-2,325	302,585	150,842
172,794	-2,207	302,388	150,851
173,808	-2,488	302,219	150,466
174,823	-2,770	301,894	150,002
175,837	-3,003	301,561	149,585
176,852	-2,690	301,548	149,885
177,867	-2,374	301,424	150,132
178,881	-2,261	301,218	150,132
179,896	-2,425	301,132	149,909
180,910	-2,385	300,896	149,818
181,925	-2,336	300,649	149,732
182,940	-2,221	300,458	149,741
183,954	-2,329	300,191	149,485
184,969	-2,574	300,168	149,210
185,983	-2,352	299,776	149,228
186,998	-2,521	299,606	148,959
188,013	-2,317	299,517	149,108
189,027	-2,415	299,223	148,849
190,042	-2,424	298,981	148,706
191,056	-2,520	298,969	148,589
192,071	-2,288	298,754	148,704
193,086	-2,244	298,411	148,564
194,100	-2,325	298,225	148,377
195,115	-2,437	297,978	148,128
196,129	-2,391	297,718	148,032
197,144	-2,279	297,659	148,102
198,159	-2,359	297,418	147,888
199,173	-2,423	297,233	147,719
200,188	-2,333	297,066	147,713
201,202	-2,550	296,807	147,353
202,217	-2,771	296,298	146,866
203,232	-3,022	296,107	146,506
204,246	-2,582	296,022	146,893
205,261	-2,258	295,878	147,132
206,275	-2,118	295,602	147,122
207,290	-2,381	295,623	146,856
208,304	-2,283	295,303	146,782
209,319	-2,430	295,280	146,610
210,334	-2,346	294,967	146,526
211,348	-2,479	294,754	146,274
212,363	-2,597	294,578	146,056
213,377	-2,336	294,343	146,187
214,392	-2,409	294,311	146,085
215,407	-2,504	293,943	145,795
216,421	-2,739	293,778	145,466
217,436	-2,745	293,540	145,329
218,450	-2,671	293,228	145,236
219,465	-2,649	293,225	145,243
220,480	-2,555	292,928	145,176
221,494	-2,545	292,828	145,123
222,509	-2,506	292,558	145,016
223,523	-2,546	292,482	144,925
224,538	-2,380	292,420	145,045
225,553	-2,360	292,139	144,913
226,567	-2,387	292,059	144,834
227,582	-2,388	291,817	144,700
228,596	-2,495	291,594	144,471
229,611	-2,430	291,449	144,450
230,626	-2,255	291,247	144,509
231,640	-2,746	290,903	143,843
232,655	-3,050	290,706	143,435
233,669	-3,055	290,390	143,262
234,684	-3,034	290,245	143,198
235,699	-2,976	290,097	143,168
236,713	-2,765	290,076	143,352
237,728	-2,746	289,669	143,156
238,742	-2,666	289,575	143,176
239,757	-2,655	289,474	143,124
240,772	-2,595	289,251	143,059
241,786	-2,691	289,104	142,881
242,801	-2,711	288,869	142,731
243,815	-2,602	288,686	142,735
244,830	-2,584	288,600	142,697
245,844	-2,546	288,299	142,572
246,859	-2,697	288,193	142,361
247,874	-2,704	287,926	142,209
248,888	-2,594	287,691	142,187
249,903	-2,308	287,523	142,368
250,917	-2,418	287,432	142,204
251,932	-2,403	287,243	142,112
252,947	-1,668	287,301	142,840
253,961	-2,222	286,837	142,061
254,976	-1,285	287,574	143,321
255,990	1,635	288,387	146,545
257,005	2,607	288,668	147,616
258,020	3,759	289,048	148,916
259,034	4,043	288,664	148,979
260,049	3,740	288,367	148,520
261,063	3,589	288,073	148,209
262,078	3,677	287,994	148,239
263,093	4,392	288,042	148,942
264,107	4,394	287,996	148,907
265,122	4,495	287,839	148,909
266,136	4,659	287,614	148,938
267,151	4,519	287,482	148,721
268,166	4,517	287,126	148,522
269,180	4,390	286,965	148,303
270,195	4,336	286,801	148,153
271,209	4,454	286,646	148,174
272,224	4,125	286,507	147,773
273,239	3,950	286,054	147,358
274,253	4,122	286,066	147,517
275,268	4,823	285,878	148,077
276,282	4,348	285,693	147,514
277,297	4,684	285,567	147,757
278,312	4,978	285,420	147,948
279,326	4,480	285,280	147,387
280,341	4,401	285,002	147,154
281,355	4,387	284,710	146,978
282,370	4,253	284,506	146,732
283,384	4,197	284,394	146,608
284,399	4,304	284,130	146,560
285,414	4,155	284,054	146,367
286,428	4,153	283,804	146,222
287,443	3,957	283,507	145,871
288,457	3,893	283,367	145,725
289,472	3,967	283,151	145,671
290,487	3,895	282,778	145,399
291,501	3,682	282,730	145,159
292,516	3,591	282,428	144,905
293,530	3,685	282,341	144,936
294,545	4,000	282,153	145,124
295,560	4,095	282,184	145,217
296,574	3,737	281,875	144,707
297,589	3,888	281,876	144,837
298,603	4,372	281,655	145,166
299,618	4,021	281,589	144,789
300,633	4,319	281,266	144,890
301,647	4,312	281,077	144,773
302,662	4,234	281,006	144,651
303,676	3,797	280,705	144,073
304,691	3,621	280,518	143,799
305,706	3,433	280,290	143,493
306,720	3,600	280,191	143,586
307,735	3,422	279,829	143,222
308,749	3,693	279,803	143,449
309,764	3,926	279,626	143,563
310,779	3,856	279,362	143,349
311,793	3,510	279,155	142,908
312,808	3,645	278,774	142,825
313,822	3,509	278,876	142,738
314,837	3,666	278,516	142,687
315,852	3,563	278,353	142,495
316,866	3,609	278,222	142,458
317,881	3,589	278,068	142,348
318,895	3,543	277,908	142,212
319,910	3,530	277,537	141,996
320,925	3,338	277,463	141,769
321,939	3,594	277,330	141,924
322,954	3,911	277,078	142,076
323,968	3,737	277,055	141,890
324,983	3,829	276,926	141,897
325,997	4,105	276,729	142,038
327,012	3,915	276,656	141,813
328,027	3,924	276,439	141,697
329,041	3,921	276,125	141,520
330,056	3,992	275,974	141,496
331,070	3,691	275,831	141,133
332,085	3,822	275,621	141,134
333,100	3,725	275,561	141,001
334,114	3,807	275,169	140,863
335,129	3,588	275,060	140,594
336,143	3,930	274,876	140,800
337,158	4,222	274,951	141,093
338,173	3,889	274,654	140,624
339,187	3,869	274,365	140,445
340,202	3,820	274,253	140,331
341,216	3,766	274,033	140,157
342,231	3,783	273,949	140,116
343,246	3,819	273,622	139,970
344,260	3,846	273,497	139,918
345,275	4,029	273,411	140,028
346,289	4,265	273,394	140,221
347,304	4,215	273,122	140,024
348,319	3,847	273,046	139,639
349,333	3,823	272,830	139,494
350,348	4,192	272,715	139,757
351,362	4,285	272,552	139,745
352,377	4,397	272,337	139,724
353,392	3,947	272,362	139,317
354,406	4,111	272,053	139,294
355,421	192,000	1330,017	1409,100
356,435	155,132	1458,998	1409,220
