DTS Sentinel unit serial number:	SN410029Multiplexer serial number:	ORYXHardware model number:	OX2-SRSoftware version number:	ORYX F/W v4,00 Oryx Data Collector v3.7.2.0data status	okinstallation	B4 Nyhavnadifferential loss correction	single-endedforward channel	channel 2reverse channel	N/Adate	2023/12/18time	19:35:13forward acquisition time	300,00reverse acquisition time	0,00gamma	499,1914k internal	0,3124k external	0,3124temperature offset calibration	1,0000default loss term (dB/km)	0,3820temperature slope calibration	1,0000multiplexer offset coefficient	1,0000multiplexer slope coefficient	1,0000fibre end	0,00T internal ref (°C)	21,87T ext. ref 1 (°C)	7,03T ext. ref 2 (°C)	7,04length (m)	temperature (°C)	Stokes	anti-Stokes-744,400	-200,000	0,014	-0,128
-743,385	800,000	-0,051	0,118
-742,371	-91,996	0,072	0,015
-741,356	478,142	-0,104	0,177
-740,342	19,802	0,053	-0,032
-739,327	54,921	-0,132	0,095
-738,312	-135,761	-0,073	0,006
-737,298	94,855	-0,240	0,203
-736,283	53,437	-0,157	-0,112
-735,269	33,047	-0,091	0,059
-734,254	-200,000	0,011	-0,102
-733,239	-25,137	-0,399	-0,175
-732,225	42,472	0,057	0,039
-731,210	280,583	0,066	0,088
-730,196	800,000	-0,032	-0,096
-729,181	642,914	-0,045	0,085
-728,167	-54,813	0,123	0,041
-727,152	-200,000	-0,002	0,023
-726,137	109,077	-0,032	0,029
-725,123	-200,000	-0,013	0,066
-724,108	-111,081	0,065	-0,010
-723,094	557,558	-0,011	-0,020
-722,079	-87,478	-0,110	-0,025
-721,064	-147,807	0,041	0,003
-720,050	800,000	0,016	-0,050
-719,035	800,000	0,032	-0,081
-718,021	381,983	0,055	0,085
-717,006	121,118	-0,167	-0,155
-715,991	713,880	-0,075	-0,148
-714,977	800,000	0,043	-0,094
-713,962	750,052	0,006	-0,012
-712,948	204,367	0,055	-0,064
-711,933	252,197	-0,087	-0,110
-710,918	800,000	-0,038	-0,103
-709,904	800,000	-0,052	-0,127
-708,889	-39,382	-0,044	-0,017
-707,875	435,150	-0,041	-0,066
-706,860	-200,000	0,004	-0,057
-705,845	-91,407	-0,042	0,009
-704,831	800,000	0,032	0,073
-703,816	800,000	-0,022	-0,059
-702,802	-200,000	-0,009	0,111
-701,787	417,188	0,110	-0,176
-700,772	161,141	-0,157	-0,164
-699,758	-68,285	0,081	-0,023
-698,743	-26,665	0,109	0,047
-697,729	341,469	0,064	-0,093
-696,714	800,000	-0,021	-0,065
-695,699	-200,000	0,004	-0,055
-694,685	800,000	-0,038	-0,107
-693,670	201,870	-0,120	-0,138
-692,656	269,866	-0,071	-0,093
-691,641	-12,701	0,083	-0,040
-690,627	-67,409	-0,009	0,003
-689,612	-132,124	0,039	-0,004
-688,597	338,216	-0,097	-0,141
-687,583	119,896	-0,079	-0,073
-686,568	-200,000	0,002	-0,015
-685,554	-174,247	0,053	-0,001
-684,539	800,000	0,043	-0,106
-683,524	1,528	0,055	-0,029
-682,510	800,000	0,026	0,081
-681,495	800,000	-0,026	-0,071
-680,481	41,184	0,066	-0,044
-679,466	-200,000	0,002	0,030
-678,451	-200,000	-0,027	-0,170
-677,437	-187,780	0,073	-0,001
-676,422	231,835	0,109	-0,133
-675,408	45,221	0,093	0,064
-674,393	-129,566	-0,132	-0,013
-673,378	70,752	0,067	-0,052
-672,364	103,140	-0,140	-0,122
-671,349	758,286	-0,047	-0,095
-670,335	574,354	0,064	0,117
-669,320	-103,709	-0,136	0,023
-668,305	169,699	-0,016	-0,017
-667,291	440,050	0,018	0,029
-666,276	-65,645	-0,080	-0,024
-665,262	800,000	-0,015	-0,031
-664,247	-8,574	-0,056	0,028
-663,232	-10,122	-0,062	-0,030
-662,218	-168,099	-0,120	-0,003
-661,203	510,755	-0,059	0,103
-660,189	380,496	-0,059	-0,090
-659,174	-200,000	0,031	-0,153
-658,159	18,940	-0,075	-0,044
-657,145	800,000	-0,044	-0,123
-656,130	800,000	0,022	0,070
-655,116	-200,000	-0,002	0,039
-654,101	129,651	-0,100	0,095
-653,086	18,653	-0,100	-0,059
-652,072	-92,789	-0,141	0,029
-651,057	-60,354	-0,106	-0,033
-650,043	229,224	0,046	-0,055
-649,028	390,151	-0,027	0,042
-648,014	246,673	-0,016	-0,020
-646,999	-186,940	0,198	-0,002
-645,984	-200,000	0,005	0,070
-644,970	-103,693	-0,101	0,017
-643,955	800,000	-0,039	-0,084
-642,941	-136,842	-0,079	-0,007
-641,926	-151,345	0,092	-0,005
-640,911	-17,081	-0,104	-0,049
-639,897	800,000	-0,022	0,050
-638,882	229,698	0,013	-0,016
-637,868	13,448	-0,060	0,035
-636,853	800,000	0,021	-0,056
-635,838	22,362	-0,103	-0,062
-634,824	457,810	-0,098	-0,163
-633,809	-200,000	-0,018	-0,117
-632,795	800,000	0,016	-0,052
-631,780	166,320	0,075	-0,079
-630,765	-28,721	-0,080	-0,034
-629,751	116,570	-0,085	-0,077
-628,736	-154,219	0,088	-0,004
-627,722	-200,000	0,003	0,019
-626,707	-63,189	-0,062	0,019
-625,692	-200,000	0,015	0,119
-624,678	-200,000	-0,017	0,106
-623,663	-200,000	0,023	-0,105
-622,649	-151,889	-0,090	-0,005
-621,634	398,197	-0,058	0,090
-620,619	-13,822	-0,092	0,044
-619,605	-71,586	0,101	-0,028
-618,590	-9,514	-0,054	0,027
-617,576	-29,835	-0,087	-0,037
-616,561	126,085	-0,038	0,035
-615,546	95,459	-0,086	-0,073
-614,532	-34,922	-0,150	-0,061
-613,517	90,142	-0,034	-0,028
-612,503	67,015	0,107	-0,081
-611,488	284,905	-0,084	0,113
-610,474	64,131	0,065	0,048
-609,459	25,086	0,022	-0,014
-608,444	191,586	0,050	-0,056
-607,430	-200,000	-0,014	-0,109
-606,415	-139,985	-0,044	0,003
-605,401	45,358	-0,059	-0,040
-604,386	800,000	-0,020	-0,047
-603,371	-137,100	-0,030	0,003
-602,357	18,255	-0,118	-0,069
-601,342	747,135	-0,026	-0,052
-600,328	-166,617	0,152	-0,005
-599,313	-200,000	-0,007	-0,044
-598,298	96,707	-0,042	0,035
-597,284	440,923	0,032	0,051
-596,269	257,552	-0,006	0,008
-595,255	25,475	-0,114	0,070
-594,240	24,398	-0,093	-0,057
-593,225	-200,000	-0,007	-0,047
-592,211	187,243	-0,118	-0,131
-591,196	-127,449	0,078	-0,008
-590,182	65,133	-0,105	-0,078
-589,167	800,000	0,016	-0,048
-588,152	-164,649	0,074	0,002
-587,138	122,219	0,018	-0,017
-586,123	-99,204	-0,020	0,004
-585,109	-147,754	-0,165	-0,010
-584,094	-89,561	0,067	0,014
-583,079	318,512	-0,009	0,013
-582,065	-122,778	0,075	0,009
-581,050	-84,554	0,050	0,012
-580,036	422,841	0,031	-0,049
-579,021	82,547	-0,060	0,048
-578,006	-46,866	0,101	-0,037
-576,992	800,000	-0,016	-0,045
-575,977	160,056	-0,021	0,022
-574,963	-200,000	0,027	0,092
-573,948	-32,193	0,098	-0,040
-572,934	177,939	-0,015	-0,017
-571,919	-139,136	0,124	0,010
-570,904	-65,419	0,115	0,034
-569,890	673,961	-0,050	0,097
-568,875	-171,250	0,082	-0,002
-567,861	35,723	-0,088	0,057
-566,846	77,325	0,050	0,040
-565,831	-81,055	-0,123	0,030
-564,817	-200,000	-0,012	0,200
-563,802	-57,002	0,068	-0,022
-562,788	235,410	-0,074	-0,090
-561,773	-200,000	0,010	0,071
-560,758	268,802	-0,067	-0,087
-559,744	366,004	0,012	0,018
-558,729	-40,661	-0,158	-0,060
-557,715	-177,260	-0,056	-0,001
-556,700	287,950	-0,006	-0,008
-555,685	138,987	0,012	0,012
-554,671	483,608	0,039	-0,067
-553,656	531,496	-0,027	0,047
-552,642	-200,000	0,004	-0,020
-551,627	-109,148	-0,025	-0,004
-550,612	81,771	-0,053	-0,043
-549,598	-94,506	0,046	0,009
-548,583	396,771	-0,096	-0,149
-547,569	800,000	0,029	0,064
-546,554	36,703	-0,050	0,033
-545,539	-200,000	-0,030	-0,183
-544,525	-194,845	0,127	0,001
-543,510	-139,524	-0,125	-0,010
-542,496	-200,000	-0,017	-0,115
-541,481	108,538	-0,128	-0,113
-540,466	800,000	0,030	-0,080
-539,452	-118,964	-0,067	0,009
-538,437	-77,615	0,195	-0,049
-537,423	71,241	0,135	0,103
-536,408	800,000	-0,011	0,023
-535,393	-75,936	-0,053	0,014
-534,379	-200,000	0,001	0,036
-533,364	155,609	-0,069	-0,071
-532,350	-55,705	0,102	0,034
-531,335	800,000	-0,040	0,114
-530,321	214,821	-0,005	-0,006
-529,306	-60,735	0,070	0,022
-528,291	-2,487	-0,061	0,031
-527,277	-121,474	0,025	-0,003
-526,262	800,000	0,074	-0,181
-525,248	-2,831	-0,082	-0,042
-524,233	-149,862	0,221	0,013
-523,218	72,276	-0,073	-0,056
-522,204	114,361	-0,107	0,096
-521,189	800,000	-0,020	-0,045
-520,175	-200,000	-0,003	-0,053
-519,160	-29,584	-0,034	0,014
-518,145	675,388	0,109	0,210
-517,131	-200,000	0,004	0,149
-516,116	800,000	-0,055	0,124
-515,102	-116,089	0,115	-0,016
-514,087	608,187	0,042	-0,079
-513,072	-74,907	-0,095	-0,025
-512,058	25,991	-0,033	0,021
-511,043	7,143	-0,050	0,028
-510,029	150,249	-0,056	0,057
-509,014	-186,432	-0,109	-0,001
-507,999	62,292	0,027	0,020
-506,985	-1,215	-0,094	0,049
-505,970	179,697	0,084	0,091
-504,956	58,726	-0,026	0,019
-503,941	800,000	-0,035	-0,111
-502,926	800,000	0,003	-0,009
-501,912	-30,380	0,081	0,034
-500,897	321,556	0,051	-0,071
-499,883	-200,000	-0,025	0,083
-498,868	-4,831	-0,105	0,053
-497,853	800,000	-0,060	-0,155
-496,839	667,244	0,044	-0,085
-495,824	-98,815	-0,038	-0,007
-494,810	-200,000	-0,004	0,041
-493,795	800,000	0,019	0,041
-492,781	-30,891	-0,096	-0,040
-491,766	65,592	0,015	0,011
-490,751	86,944	0,083	0,068
-489,737	-121,112	-0,042	0,005
-488,722	-200,000	-0,021	0,090
-487,708	-200,000	-0,006	0,041
-486,693	416,763	-0,031	-0,049
-485,678	800,000	0,040	-0,083
-484,664	285,651	-0,036	-0,048
-483,649	765,199	-0,066	0,132
-482,635	314,749	-0,046	0,064
-481,620	-200,000	0,003	0,055
-480,605	-200,000	0,056	0,197
-479,591	-200,000	0,021	0,122
-478,576	-200,000	-0,011	0,052
-477,562	430,175	-0,055	0,088
-476,547	-200,000	-0,012	0,057
-475,532	64,117	0,135	-0,100
-474,518	562,682	-0,018	-0,033
-473,503	800,000	-0,030	0,089
-472,489	-200,000	-0,021	0,194
-471,474	800,000	-0,020	-0,042
-470,459	-200,000	0,000	-0,138
-469,445	167,197	-0,136	-0,143
-468,430	186,027	-0,056	0,061
-467,416	-108,694	0,090	-0,014
-466,401	218,157	-0,076	0,089
-465,386	-200,000	0,010	0,180
-464,372	-35,071	-0,090	0,036
-463,357	-200,000	0,009	-0,101
-462,343	800,000	-0,023	-0,060
-461,328	-200,000	-0,025	0,184
-460,313	287,038	0,051	-0,068
-459,299	-158,989	0,117	-0,005
-458,284	-6,096	0,100	0,050
-457,270	-91,020	0,125	0,026
-456,255	60,431	-0,055	0,040
-455,241	22,190	0,111	-0,067
-454,226	171,173	-0,110	-0,117
-453,211	182,085	0,069	0,075
-452,197	28,751	0,060	0,037
-451,182	-158,257	0,119	-0,005
-450,168	89,621	-0,046	0,038
-449,153	129,076	-0,037	-0,035
-448,138	198,916	-0,026	0,029
-447,124	102,592	0,069	0,059
-446,109	-200,000	0,006	-0,025
-445,095	205,981	0,104	-0,120
-444,080	456,986	0,044	-0,072
-443,065	800,000	-0,004	0,011
-442,051	214,783	0,076	-0,089
-441,036	78,815	-0,100	-0,079
-440,022	-87,486	0,061	-0,013
-439,007	-150,814	-0,064	0,004
-437,992	470,152	0,057	0,095
-436,978	-200,000	-0,016	0,077
-435,963	228,401	-0,026	-0,032
-434,949	84,604	0,131	-0,106
-433,934	59,224	0,035	-0,025
-432,919	-121,302	-0,135	0,016
-431,905	7,591	0,152	0,083
-430,890	-27,364	-0,065	-0,028
-429,876	-158,697	-0,053	-0,002
-428,861	-200,000	-0,005	0,036
-427,846	554,877	-0,009	-0,016
-426,832	115,985	-0,104	-0,094
-425,817	254,921	-0,103	-0,130
-424,803	-198,227	-0,168	-0,001
-423,788	-200,000	0,027	-0,097
-422,773	-130,807	0,162	-0,016
-421,759	-200,000	0,003	-0,030
-420,744	800,000	0,032	0,094
-419,730	800,000	-0,017	-0,036
-418,715	59,749	-0,044	-0,032
-417,701	629,366	-0,082	0,154
-416,686	-200,000	0,004	-0,039
-415,671	152,708	-0,055	-0,055
-414,657	-200,000	-0,006	-0,023
-413,642	-200,000	-0,009	0,081
-412,628	10,239	-0,031	-0,017
-411,613	-200,000	0,007	-0,111
-410,598	-98,296	-0,031	-0,006
-409,584	800,000	0,035	0,074
-408,569	256,618	0,044	-0,056
-407,555	533,322	0,082	0,144
-406,540	57,476	0,060	0,043
-405,525	-24,148	-0,076	0,033
-404,511	140,070	-0,067	-0,065
-403,496	0,503	-0,077	0,040
-402,482	303,608	0,051	-0,070
-401,467	800,000	-0,027	-0,074
-400,452	-110,072	0,154	-0,023
-399,438	-200,000	-0,002	0,023
-398,423	416,501	0,069	0,109
-397,409	-200,000	0,015	-0,157
-396,394	133,609	-0,028	-0,027
-395,379	-200,000	-0,011	0,153
-394,365	-95,554	0,120	0,023
-393,350	-200,000	-0,008	-0,171
-392,336	62,252	-0,034	0,025
-391,321	-200,000	-0,002	-0,096
-390,306	-79,382	0,121	-0,030
-389,292	-55,125	-0,059	0,019
-388,277	724,457	0,058	0,115
-387,263	-200,000	0,011	-0,052
-386,248	-148,651	0,150	0,009
-385,233	800,000	0,072	0,182
-384,219	-200,000	-0,014	0,048
-383,204	53,466	-0,144	-0,102
-382,190	800,000	-0,014	0,041
-381,175	-115,826	-0,051	0,007
-380,160	-72,139	-0,099	-0,027
-379,146	394,803	-0,075	0,115
-378,131	-200,000	-0,002	0,050
-377,117	130,214	-0,121	-0,114
-376,102	-92,629	0,109	-0,022
-375,088	800,000	-0,061	-0,138
-374,073	230,730	-0,024	0,028
-373,058	266,942	0,039	-0,050
-372,044	-200,000	0,007	0,093
-371,029	-68,828	-0,066	-0,019
-370,015	6,890	-0,098	-0,054
-369,000	224,229	-0,104	-0,124
-367,985	569,253	-0,046	0,083
-366,971	-200,000	0,023	0,110
-365,956	169,908	0,037	-0,039
-364,942	73,140	0,105	-0,081
-363,927	253,039	0,078	0,098
-362,912	23,755	0,088	0,053
-361,898	435,325	0,054	-0,086
-360,883	-5,447	-0,094	0,047
-359,869	800,000	0,014	-0,035
-358,854	-200,000	0,012	-0,044
-357,839	-23,948	0,118	0,052
-356,825	-200,000	-0,036	-0,131
-355,810	-60,587	0,101	-0,031
-354,796	-200,000	-0,050	0,215
-353,781	800,000	0,032	0,096
-352,766	277,771	-0,123	-0,161
-351,752	-200,000	0,011	-0,067
-350,737	-200,000	-0,001	0,154
-349,723	-200,000	0,017	-0,099
-348,708	800,000	-0,003	0,007
-347,693	303,178	-0,071	0,096
-346,679	-200,000	0,004	-0,071
-345,664	-145,097	-0,052	0,003
-344,650	314,976	-0,045	-0,062
-343,635	786,081	-0,032	0,065
-342,620	-76,651	-0,046	-0,012
-341,606	800,000	-0,014	0,036
-340,591	331,122	0,072	0,103
-339,577	-200,000	0,006	-0,099
-338,562	-2,902	0,083	0,042
-337,548	-162,722	0,148	-0,005
-336,533	-200,000	0,045	0,169
-335,518	-200,000	0,003	0,040
-334,504	800,000	0,081	0,168
-333,489	451,696	0,015	-0,024
-332,475	-200,000	-0,000	0,059
-331,460	-33,765	-0,051	0,021
-330,445	138,738	0,028	-0,027
-329,431	-200,000	-0,008	-0,046
-328,416	100,723	-0,054	0,046
-327,402	415,654	0,091	0,142
-326,387	800,000	0,045	-0,115
-325,372	800,000	-0,027	-0,083
-324,358	800,000	-0,014	0,043
-323,343	-140,304	-0,061	0,005
-322,329	-200,000	0,011	0,114
-321,314	175,356	-0,093	0,099
-320,299	800,000	0,032	0,099
-319,285	800,000	0,015	-0,037
-318,270	800,000	0,045	-0,116
-317,256	-82,262	-0,112	-0,027
-316,241	-200,000	-0,016	0,133
-315,226	179,471	-0,066	0,071
-314,212	-51,819	0,070	-0,024
-313,197	-19,839	0,093	-0,042
-312,183	-131,075	0,131	-0,013
-311,168	-58,767	-0,074	0,023
-310,153	-200,000	-0,042	-0,167
-309,139	-127,781	-0,063	0,007
-308,124	-200,000	-0,002	0,047
-307,110	-200,000	-0,003	0,078
-306,095	274,276	0,090	0,117
-305,080	-40,602	0,113	-0,043
-304,066	800,000	0,034	0,079
-303,051	-123,909	0,076	0,009
-302,037	50,613	0,091	0,063
-301,022	31,240	-0,047	0,030
-300,008	-51,498	0,128	0,043
-298,993	-200,000	0,008	0,075
-297,978	-200,000	0,016	-0,072
-296,964	-200,000	0,004	-0,057
-295,949	-200,000	0,019	-0,082
-294,935	-48,124	-0,128	-0,045
-293,920	15,664	-0,088	-0,051
-292,905	86,584	0,062	0,050
-291,891	-200,000	-0,006	0,039
-290,876	-200,000	-0,012	0,056
-289,862	-200,000	-0,005	0,087
-288,847	63,037	-0,188	-0,137
-287,832	290,283	-0,021	0,027
-286,818	24,281	-0,028	-0,017
-285,803	777,169	0,056	-0,113
-284,789	103,165	0,098	-0,084
-283,774	95,960	0,041	-0,034
-282,759	20,915	0,052	-0,031
-281,745	800,000	0,016	-0,043
-280,730	90,874	-0,191	-0,156
-279,716	467,921	0,018	-0,029
-278,701	379,608	0,038	-0,058
-277,686	224,470	-0,023	-0,027
-276,672	-82,973	-0,058	-0,014
-275,657	166,679	-0,063	0,065
-274,643	115,311	-0,082	-0,073
-273,628	186,194	-0,081	-0,088
-272,613	-200,000	-0,008	0,069
-271,599	-200,000	-0,002	-0,096
-270,584	129,352	0,044	0,041
-269,570	-105,149	-0,055	0,009
-268,555	2,216	-0,072	0,038
-267,540	-200,000	-0,022	-0,091
-266,526	-16,094	-0,050	-0,023
-265,511	-37,965	0,143	0,055
-264,497	-76,717	-0,136	0,035
-263,482	-97,526	0,100	0,019
-262,467	-10,677	0,078	0,038
-261,453	-17,626	0,096	-0,044
-260,438	26,473	-0,108	-0,066
-259,424	-200,000	0,018	-0,091
-258,409	-139,228	-0,044	0,003
-257,395	-200,000	-0,002	0,014
-256,380	800,000	-0,016	0,049
-255,365	211,357	0,100	-0,116
-254,351	-130,589	0,015	0,001
-253,336	-200,000	0,007	0,024
-252,322	-66,433	-0,123	-0,035
-251,307	-184,976	0,032	-0,000
-250,292	-11,502	-0,051	-0,025
-249,278	800,000	-0,040	0,119
-248,263	90,945	-0,062	0,051
-247,249	-200,000	-0,005	0,054
-246,234	58,205	0,030	-0,021
-245,219	520,325	0,020	0,035
-244,205	-160,316	-0,063	-0,002
-243,190	142,557	-0,018	-0,018
-242,176	-120,499	0,154	-0,019
-241,161	-200,000	0,018	0,145
-240,146	-143,741	-0,116	0,008
-239,132	381,965	0,029	0,043
-238,117	-200,000	0,002	0,019
-237,103	-200,000	0,025	-0,084
-236,088	-35,348	-0,169	0,067
-235,073	288,347	-0,147	-0,195
-234,059	199,343	0,094	-0,105
-233,044	481,712	0,079	0,131
-232,030	391,442	0,066	-0,101
-231,015	-200,000	0,034	-0,112
-230,000	543,920	-0,044	0,077
-228,986	128,969	0,067	0,062
-227,971	800,000	-0,061	0,148
-226,957	13,261	0,049	0,028
-225,942	-200,000	0,011	0,077
-224,927	-110,445	0,136	-0,020
-223,913	-5,675	-0,137	-0,068
-222,898	337,272	0,039	-0,055
-221,884	-75,037	0,125	0,033
-220,869	307,226	-0,014	-0,019
-219,855	164,656	0,100	-0,103
-218,840	800,000	0,020	-0,041
-217,825	90,589	0,053	0,044
-216,811	453,326	-0,061	-0,099
-215,796	221,067	-0,067	0,079
-214,782	20,115	0,091	-0,053
-213,767	0,566	0,085	-0,044
-212,752	-43,823	0,127	-0,046
-211,738	384,528	0,050	0,075
-210,723	428,165	0,052	0,083
-209,709	-200,000	-0,004	-0,027
-208,694	216,879	0,033	-0,038
-207,679	-200,000	0,009	0,078
-206,665	352,881	0,062	0,091
-205,650	441,111	0,100	0,160
-204,636	-200,000	0,011	0,149
-203,621	-200,000	-0,009	0,031
-202,606	318,564	-0,075	0,103
-201,592	-200,000	-0,006	-0,179
-200,577	800,000	0,093	-0,194
-199,563	-112,997	0,064	-0,009
-198,548	-126,634	0,094	0,010
-197,533	24,999	-0,084	0,051
-196,519	426,616	-0,041	0,065
-195,504	800,000	-0,082	-0,211
-194,490	-200,000	0,024	-0,131
-193,475	-200,000	-0,010	-0,103
-192,460	-54,561	0,109	-0,036
-191,446	800,000	-0,018	-0,044
-190,431	392,237	0,120	0,182
-189,417	-200,000	-0,006	0,038
-188,402	12,757	-0,150	-0,084
-187,387	166,415	0,064	-0,067
-186,373	17,554	-0,081	-0,047
-185,358	107,628	0,053	0,046
-184,344	41,361	0,075	-0,049
-183,329	37,110	0,135	0,087
-182,315	501,326	-0,027	0,046
-181,300	-77,692	-0,162	0,040
-180,285	23,027	-0,110	-0,066
-179,271	800,000	-0,011	-0,024
-178,256	217,522	0,056	0,065
-177,242	128,156	0,046	0,042
-176,227	546,892	0,044	-0,077
-175,212	75,484	0,039	0,030
-174,198	-200,000	0,012	0,082
-173,183	262,572	0,036	0,045
-172,169	-46,257	0,182	0,065
-171,154	-200,000	-0,027	0,197
-170,139	137,937	0,041	0,039
-169,125	334,124	-0,098	0,139
-168,110	800,000	0,036	0,081
-167,096	230,354	0,099	-0,119
-166,081	-118,786	0,040	-0,005
-165,066	459,738	0,043	-0,071
-164,052	-200,000	0,031	-0,127
-163,037	15,676	0,061	-0,035
-162,023	225,017	-0,021	0,025
-161,008	-101,161	0,080	0,014
-159,993	91,819	0,087	0,071
-158,979	-106,947	-0,112	-0,018
-157,964	-131,536	-0,136	-0,013
-156,950	-200,000	0,010	-0,108
-155,935	-112,810	0,104	0,015
-154,920	-151,584	0,068	-0,004
-153,906	-28,261	0,089	0,037
-152,891	-10,901	-0,096	0,046
-151,877	25,226	0,017	-0,010
-150,862	332,998	-0,071	-0,100
-149,847	151,129	0,104	-0,103
-148,833	268,104	-0,067	0,086
-147,818	159,138	0,024	0,024
-146,804	108,481	-0,069	-0,060
-145,789	39,629	-0,181	0,118
-144,775	-200,000	-0,037	0,119
-143,760	-200,000	-0,018	-0,178
-142,745	677,321	0,032	0,061
-141,731	-81,485	0,077	-0,018
-140,716	-87,587	-0,043	-0,009
-139,702	800,000	0,059	0,126
-138,687	-58,387	-0,110	-0,034
-137,672	-113,239	0,017	0,002
-136,658	800,000	-0,047	-0,103
-135,643	339,420	-0,049	-0,069
-134,629	14,555	-0,044	0,025
-133,614	-64,571	0,122	0,036
-132,599	83,829	-0,021	0,017
-131,585	-51,956	0,074	0,025
-130,570	22,863	0,024	-0,015
-129,556	32,565	-0,085	0,053
-128,541	-200,000	-0,003	0,023
-127,526	800,000	-0,008	-0,021
-126,512	344,669	-0,037	0,053
-125,497	166,275	0,093	0,096
-124,483	155,490	-0,073	0,073
-123,468	-200,000	0,030	0,115
-122,453	-99,732	-0,164	0,030
-121,439	147,873	0,048	-0,047
-120,424	131,847	-0,018	0,017
-119,410	171,135	0,048	-0,050
-118,395	-200,000	-0,023	0,128
-117,380	-144,954	0,103	0,007
-116,366	503,144	0,077	0,130
-115,351	-18,390	-0,103	-0,047
-114,337	120,938	0,087	0,078
-113,322	-200,000	0,028	-0,099
-112,307	63,446	0,081	0,059
-111,293	13,940	0,068	-0,038
-110,278	-80,904	-0,063	-0,015
-109,264	498,954	-0,047	0,079
-108,249	800,000	0,036	-0,104
-107,234	800,000	0,008	-0,018
-106,220	240,707	0,097	-0,118
-105,205	-200,000	-0,007	-0,097
-104,191	800,000	-0,013	-0,030
-103,176	-103,535	0,110	0,019
-102,162	800,000	0,062	-0,147
-101,147	40,173	0,069	0,045
-100,132	325,149	-0,036	-0,051
-99,118	32,305	-0,166	-0,104
-98,103	208,105	0,072	0,082
-97,089	-200,000	-0,004	-0,064
-96,074	76,773	-0,049	0,038
-95,059	-200,000	-0,013	0,080
-94,045	5,409	0,030	-0,016
-93,030	-200,000	-0,005	0,055
-92,016	47,432	-0,095	0,064
-91,001	-200,000	-0,012	0,108
-89,986	-74,111	0,096	-0,025
-88,972	39,247	0,068	0,044
-87,957	-23,079	-0,032	0,014
-86,943	121,005	0,054	-0,049
-85,928	-200,000	-0,021	0,075
-84,913	-200,000	-0,004	0,035
-83,899	176,943	0,027	-0,029
-82,884	162,668	0,058	-0,059
-81,870	129,637	-0,094	0,088
-80,855	-200,000	0,009	-0,049
-79,840	303,307	0,017	-0,023
-78,826	56,863	-0,061	0,043
-77,811	-27,106	-0,070	-0,029
-76,797	-24,874	0,076	-0,032
-75,782	800,000	0,065	-0,136
-74,767	654,474	-0,041	0,077
-73,753	489,241	0,045	0,076
-72,738	-200,000	0,006	-0,089
-71,724	-200,000	-0,000	-0,077
-70,709	-13,268	-0,128	0,060
-69,694	178,863	-0,075	-0,080
-68,680	-200,000	-0,019	-0,097
-67,665	32,601	-0,112	0,070
-66,651	89,526	-0,066	-0,053
-65,636	247,045	-0,030	0,036
-64,622	-115,014	0,022	-0,003
-63,607	-200,000	0,003	-0,041
-62,592	10,339	-0,093	-0,051
-61,578	-75,419	0,102	0,026
-60,563	-200,000	0,022	0,094
-59,549	387,374	0,023	0,035
-58,534	-166,715	-1,307	-0,038
-57,519	734,001	-0,789	-1,540
-56,505	-200,000	-0,800	-4,343
-55,490	-2,810	0,577	-0,291
-54,476	800,000	4,904	11,716
-53,461	-200,000	13,971	254,166
-52,446	-200,000	693,476	2262,570
-51,432	600,518	1623,882	2937,204
-50,417	117,788	1633,423	1458,989
-49,403	73,471	1287,691	976,891
-48,388	37,420	1023,766	657,073
-47,373	23,953	981,879	585,886
-46,359	23,178	971,333	577,028
-45,344	22,153	967,030	571,100
-44,330	22,093	965,597	570,035
-43,315	21,935	964,219	568,686
-42,300	21,955	963,074	568,052
-41,286	21,926	962,114	567,368
-40,271	21,885	961,256	566,706
-39,257	21,894	960,384	566,199
-38,242	21,931	959,192	565,594
-37,227	21,862	958,593	564,997
-36,213	21,882	957,676	564,498
-35,198	21,849	956,679	563,782
-34,184	21,922	956,112	563,660
-33,169	21,856	955,242	562,912
-32,154	21,892	954,347	562,478
-31,140	21,938	953,370	562,030
-30,125	21,948	952,548	561,552
-29,111	21,923	951,925	561,082
-28,096	21,904	951,180	560,561
-27,082	21,921	950,414	560,142
-26,067	21,928	949,650	559,691
-25,052	21,898	949,035	559,210
-24,038	21,907	948,230	558,745
-23,023	21,908	947,719	558,422
-22,009	21,911	947,044	558,012
-20,994	21,924	946,340	557,618
-19,979	21,940	945,711	557,275
-18,965	21,952	945,083	556,922
-17,950	21,930	944,449	556,458
-16,936	21,850	943,841	555,820
-15,921	21,819	943,213	555,329
-14,906	21,794	942,490	554,801
-13,892	21,772	941,867	554,344
-12,877	21,836	941,039	554,039
-11,863	21,738	940,647	553,473
-10,848	21,786	939,954	553,198
-9,833	21,868	939,658	553,259
-8,819	21,849	938,846	552,700
-7,804	21,811	938,116	552,130
-6,790	21,821	937,575	551,819
-5,775	21,849	936,915	551,498
-4,760	21,802	936,374	551,007
-3,746	21,770	935,839	550,571
-2,731	21,626	935,125	549,674
-1,717	21,569	934,422	549,061
-0,702	21,591	933,828	548,760
0,313	21,422	933,084	548,618
1,327	23,867	930,686	554,844
2,342	31,380	809,278	502,845
3,356	26,209	509,997	308,013
4,371	1,965	374,830	195,424
5,386	-1,138	357,982	182,800
6,400	-2,218	352,124	178,482
7,415	-2,473	349,405	176,781
8,429	-2,309	347,943	176,222
9,444	-2,429	347,113	175,643
10,459	-2,335	346,301	175,328
11,473	-2,303	345,786	175,089
12,488	-2,420	345,282	174,680
13,502	-2,481	344,724	174,310
14,517	-2,226	344,063	174,262
15,531	-2,314	343,782	174,001
16,546	-2,264	343,360	173,830
17,561	-2,318	342,859	173,498
18,575	-2,231	342,407	173,355
19,590	-2,162	342,062	173,247
20,604	-2,082	341,718	173,151
21,619	-2,186	341,299	172,802
22,634	-2,231	340,960	172,561
23,648	-2,237	340,678	172,397
24,663	-2,293	340,394	172,172
25,677	-2,014	340,009	172,288
26,692	-2,253	339,962	171,969
27,707	-2,181	339,508	171,809
28,721	-2,290	339,232	171,526
29,736	-2,210	338,799	171,385
30,750	-2,084	338,444	171,337
31,765	-2,144	338,286	171,172
32,780	-2,270	338,078	170,905
33,794	-2,173	337,639	170,781
34,809	-2,258	337,362	170,526
35,823	-2,274	337,143	170,382
36,838	-2,227	336,698	170,196
37,853	-2,131	336,491	170,188
38,867	-2,287	336,300	169,895
39,882	-2,159	336,034	169,894
40,896	-2,241	335,713	169,623
41,911	-2,143	335,490	169,607
42,926	-2,132	335,087	169,401
43,940	-2,322	334,746	168,995
44,955	-2,280	334,645	168,977
45,969	-2,242	334,362	168,863
46,984	-2,264	334,151	168,716
47,999	-2,233	333,780	168,549
49,013	-2,210	333,593	168,466
50,028	-2,281	333,436	168,290
51,042	-2,248	333,010	168,098
52,057	-2,355	332,813	167,861
53,071	-2,245	332,652	167,891
54,086	-2,287	332,411	167,706
55,101	-2,247	332,036	167,548
56,115	-2,168	331,824	167,515
57,130	-2,245	331,616	167,308
58,144	-2,156	331,248	167,208
59,159	-2,332	331,032	166,884
60,174	-2,272	330,754	166,798
61,188	-2,401	330,480	166,499
62,203	-2,125	330,176	166,643
63,217	-2,308	329,914	166,289
64,232	-2,184	329,649	166,281
65,247	-2,232	329,376	166,075
66,261	-2,309	329,194	165,881
67,276	-2,190	328,893	165,849
68,290	-2,182	328,790	165,790
69,305	-2,413	328,526	165,382
70,320	-2,333	328,256	165,321
71,334	-2,192	327,908	165,290
72,349	-2,211	327,725	165,162
73,363	-2,346	327,507	164,886
74,378	-2,252	327,114	164,779
75,393	-2,265	326,937	164,660
76,407	-2,209	326,793	164,636
77,422	-2,172	326,373	164,451
78,436	-2,269	326,146	164,214
79,451	-2,139	325,893	164,216
80,466	-2,163	325,541	163,998
81,480	-2,276	325,424	163,798
82,495	-2,120	325,235	163,862
83,509	-2,077	324,960	163,757
84,524	-2,112	324,728	163,586
85,539	-2,203	324,473	163,342
86,553	-2,198	324,253	163,223
87,568	-2,218	324,048	163,082
88,582	-2,250	323,695	162,855
89,597	-2,264	323,505	162,730
90,611	-2,083	323,213	162,769
91,626	-2,229	323,129	162,550
92,641	-2,202	322,835	162,417
93,655	-2,045	322,561	162,438
94,670	-2,134	322,304	162,196
95,684	-2,062	321,955	162,085
96,699	-2,153	321,896	161,941
97,714	-2,278	321,710	161,696
98,728	-2,289	321,463	161,545
99,743	-2,308	321,261	161,408
100,757	-2,172	321,041	161,432
101,772	-2,205	320,732	161,227
102,787	-2,247	320,608	161,104
103,801	-2,335	320,294	160,835
104,816	-2,186	320,068	160,871
105,830	-2,348	319,731	160,510
106,845	-2,251	319,574	160,523
107,860	-2,260	319,286	160,353
108,874	-2,293	319,055	160,188
109,889	-2,385	318,846	159,968
110,903	-2,236	318,564	159,975
111,918	-2,185	318,517	159,993
112,933	-1,905	317,958	160,001
113,947	-2,191	317,978	159,686
114,962	-2,300	317,756	159,442
115,976	-2,187	317,446	159,395
116,991	-2,228	317,288	159,258
118,006	-2,165	316,989	159,160
119,020	-2,161	316,889	159,101
120,035	-2,319	316,937	158,940
121,049	-2,147	316,507	158,896
122,064	-2,208	316,427	158,776
123,079	-2,219	316,081	158,576
124,093	-2,208	315,684	158,374
125,108	-2,153	315,569	158,362
126,122	-2,234	315,424	158,188
127,137	-2,112	315,085	158,135
128,151	-2,190	314,986	157,987
129,166	-2,245	314,652	157,747
130,181	-2,440	314,464	157,430
131,195	-2,265	314,081	157,411
132,210	-2,149	313,912	157,436
133,224	-2,122	313,710	157,350
134,239	-2,278	313,610	157,119
135,254	-2,201	313,295	157,029
136,268	-2,194	313,021	156,885
137,283	-2,166	312,731	156,756
138,297	-2,246	312,504	156,543
139,312	-2,242	312,274	156,418
140,327	-2,206	311,961	156,286
141,341	-2,198	312,019	156,309
142,356	-2,133	311,678	156,193
143,370	-2,070	311,386	156,100
144,385	-2,148	311,263	155,941
145,400	-1,959	310,990	155,991
146,414	-2,222	310,776	155,592
147,429	-2,124	310,564	155,575
148,443	-2,224	310,463	155,405
149,458	-2,124	310,154	155,342
150,473	-2,129	309,923	155,208
151,487	-2,216	309,653	154,966
152,502	-2,132	309,532	154,980
153,516	-2,211	309,330	154,783
154,531	-2,346	309,106	154,515
155,546	-2,314	308,944	154,454
156,560	-2,228	308,682	154,399
157,575	-2,083	308,372	154,383
158,589	-2,284	308,291	154,117
159,604	-2,113	307,990	154,132
160,619	-2,014	307,738	154,096
161,633	-2,024	307,474	153,939
162,648	-2,074	307,429	153,851
163,662	-2,075	307,230	153,737
164,677	-2,028	306,904	153,609
165,692	-2,110	306,841	153,479
166,706	-2,165	306,608	153,290
167,721	-2,155	306,465	153,216
168,735	-2,145	306,228	153,094
169,750	-2,176	306,211	153,040
170,764	-2,216	305,919	152,838
171,779	-2,128	305,559	152,736
172,794	-2,100	305,379	152,662
173,808	-2,184	305,245	152,494
174,823	-2,200	304,871	152,277
175,837	-2,247	304,760	152,159
176,852	-2,123	304,546	152,167
177,867	-2,096	304,387	152,102
178,881	-2,051	304,130	152,007
179,896	-2,066	303,874	151,850
180,910	-2,264	303,836	151,613
181,925	-2,190	303,389	151,453
182,940	-2,132	303,382	151,495
183,954	-2,021	303,099	151,455
184,969	-2,247	303,000	151,159
185,983	-1,889	302,753	151,391
186,998	-2,094	302,675	151,127
188,013	-2,022	302,287	150,994
189,027	-2,175	302,129	150,745
190,042	-2,093	301,853	150,677
191,056	-2,047	301,616	150,593
192,071	-2,268	301,485	150,289
193,086	-2,224	301,248	150,202
194,100	-2,112	300,979	150,168
195,115	-1,854	300,801	150,330
196,129	-2,066	300,644	150,021
197,144	-2,110	300,291	149,787
198,159	-2,116	300,101	149,672
199,173	-2,065	299,891	149,607
200,188	-2,106	299,692	149,452
201,202	-2,212	299,554	149,263
202,217	-2,303	299,406	149,083
203,232	-2,133	299,038	149,059
204,246	-2,223	298,912	148,891
205,261	-2,085	298,612	148,869
206,275	-2,158	298,665	148,808
207,290	-2,003	298,500	148,869
208,304	-1,938	298,176	148,759
209,319	-1,969	297,959	148,607
210,334	-2,057	297,706	148,378
211,348	-2,004	297,487	148,310
212,363	-1,845	297,206	148,316
213,377	-2,065	297,167	148,062
214,392	-2,099	297,025	147,944
215,407	-2,002	296,651	147,842
216,421	-2,055	296,552	147,726
217,436	-2,258	296,446	147,457
218,450	-2,143	296,098	147,386
219,465	-2,124	296,044	147,365
220,480	-2,095	295,787	147,253
221,494	-2,116	295,672	147,161
222,509	-2,103	295,456	147,054
223,523	-2,138	295,295	146,925
224,538	-2,315	295,141	146,659
225,553	-2,085	294,908	146,760
226,567	-1,985	294,765	146,775
227,582	-2,079	294,446	146,509
228,596	-1,937	294,259	146,544
229,611	-2,076	294,086	146,307
230,626	-2,196	294,031	146,148
231,640	-2,050	293,629	146,079
232,655	-2,003	293,446	146,022
233,669	-2,003	293,166	145,870
234,684	-2,194	293,014	145,593
235,699	-1,966	292,866	145,731
236,713	-1,956	292,753	145,672
237,728	-2,063	292,504	145,429
238,742	-2,066	292,258	145,291
239,757	-2,069	292,080	145,186
240,772	-2,136	291,896	145,016
241,786	-2,056	291,557	144,914
242,801	-2,108	291,585	144,863
243,815	-2,150	291,362	144,698
244,830	-2,113	291,181	144,632
245,844	-2,240	291,169	144,488
246,859	-2,241	290,813	144,297
247,874	-2,197	290,561	144,202
248,888	-2,114	290,398	144,191
249,903	-2,100	290,306	144,146
250,917	-2,234	289,929	143,815
251,932	-2,249	289,832	143,739
252,947	-2,569	289,581	143,289
253,961	-2,780	289,171	142,868
254,976	-2,784	288,989	142,761
255,990	-2,986	288,837	142,477
257,005	-2,429	288,889	143,033
258,020	-0,138	289,639	145,626
259,034	1,298	289,972	147,182
260,049	1,864	289,941	147,705
261,063	2,281	289,966	148,112
262,078	2,604	289,961	148,410
263,093	2,918	289,895	148,670
264,107	2,991	289,785	148,670
265,122	3,211	289,690	148,822
266,136	3,207	289,614	148,766
267,151	3,276	289,321	148,669
268,166	3,449	289,084	148,703
269,180	3,195	288,917	148,356
270,195	3,228	288,660	148,244
271,209	3,104	288,563	148,060
272,224	3,096	288,394	147,953
273,239	2,998	288,138	147,714
274,253	3,050	287,783	147,569
275,268	2,909	287,682	147,367
276,282	2,951	287,409	147,255
277,297	3,044	287,206	147,228
278,312	3,128	287,014	147,197
279,326	3,067	287,041	147,138
280,341	3,129	286,776	147,050
281,355	2,829	286,779	146,749
282,370	2,945	286,399	146,653
283,384	2,836	286,330	146,500
284,399	2,901	285,988	146,374
285,414	2,940	285,843	146,325
286,428	3,105	285,657	146,375
287,443	2,961	285,343	146,063
288,457	3,052	285,114	146,020
289,472	2,933	284,936	145,802
290,487	2,807	284,736	145,567
291,501	2,667	284,685	145,393
292,516	2,876	284,318	145,392
293,530	2,814	284,350	145,337
294,545	2,755	284,146	145,163
295,560	2,810	283,833	145,042
296,574	2,525	283,717	144,700
297,589	2,699	283,498	144,741
298,603	2,565	283,355	144,527
299,618	2,770	283,261	144,661
300,633	2,960	283,018	144,704
301,647	2,893	282,913	144,574
302,662	2,914	282,729	144,487
303,676	3,011	282,477	144,436
304,691	2,926	282,339	144,273
305,706	3,030	282,263	144,320
306,720	3,164	282,100	144,349
307,735	3,109	281,988	144,228
308,749	2,968	281,612	143,890
309,764	3,035	281,564	143,915
310,779	3,011	281,329	143,760
311,793	2,986	281,160	143,637
312,808	2,947	280,864	143,437
313,822	2,944	280,669	143,321
314,837	2,968	280,462	143,225
315,852	3,098	280,341	143,272
316,866	2,879	280,211	142,988
317,881	2,977	279,881	142,899
318,895	3,124	279,709	142,936
319,910	2,986	279,711	142,795
320,925	2,965	279,365	142,586
321,939	2,868	279,255	142,426
322,954	3,091	279,096	142,540
323,968	3,070	279,040	142,480
324,983	3,314	278,727	142,535
325,997	3,106	278,703	142,316
327,012	3,165	278,435	142,221
328,027	3,138	278,343	142,137
329,041	3,024	278,118	141,903
330,056	3,132	277,927	141,893
331,070	3,165	277,810	141,851
332,085	3,174	277,540	141,710
333,100	3,143	277,361	141,576
334,114	3,169	277,160	141,485
335,129	3,014	276,797	141,144
336,143	3,087	276,846	141,224
337,158	3,050	276,691	141,099
338,173	3,323	276,356	141,166
339,187	3,052	276,281	140,866
340,202	3,103	276,184	140,851
341,216	3,106	275,870	140,681
342,231	3,073	275,717	140,560
343,246	3,024	275,696	140,492
344,260	3,109	275,434	140,424
345,275	3,168	275,165	140,328
346,289	3,371	274,989	140,412
347,304	3,193	274,911	140,196
348,319	3,071	274,686	139,958
349,333	3,110	274,566	139,920
350,348	3,326	274,337	139,989
351,362	3,091	274,079	139,629
352,377	3,354	274,050	139,842
353,392	3,224	273,918	139,643
354,406	3,239	273,665	139,516
355,421	192,292	1351,203	1434,460
356,435	155,298	1482,589	1434,604
