DTS Sentinel unit serial number:	SN410029Multiplexer serial number:	ORYXHardware model number:	OX2-SRSoftware version number:	ORYX F/W v4,00 Oryx Data Collector v3.7.2.0data status	okinstallation	B4 Nyhavnadifferential loss correction	single-endedforward channel	channel 2reverse channel	N/Adate	2023/12/19time	09:25:13forward acquisition time	300,00reverse acquisition time	0,00gamma	499,1914k internal	0,3128k external	0,3128temperature offset calibration	1,0000default loss term (dB/km)	0,3820temperature slope calibration	1,0000multiplexer offset coefficient	1,0000multiplexer slope coefficient	1,0000fibre end	0,00T internal ref (°C)	20,47T ext. ref 1 (°C)	5,18T ext. ref 2 (°C)	5,17length (m)	temperature (°C)	Stokes	anti-Stokes-744,400	-95,104	-0,102	-0,020
-743,385	99,857	-0,171	0,148
-742,371	-200,000	0,003	0,137
-741,356	-200,000	-0,077	0,322
-740,342	800,000	-0,011	0,035
-739,327	-6,583	-0,240	0,121
-738,312	295,175	-0,046	-0,063
-737,298	-107,192	-0,310	0,050
-736,283	800,000	-0,010	-0,026
-735,269	15,193	-0,123	0,071
-734,254	14,456	0,066	0,038
-733,239	-143,815	-0,519	0,036
-732,225	-141,302	0,147	0,011
-731,210	-25,608	-0,104	0,045
-730,196	25,746	-0,061	-0,037
-729,181	6,821	0,074	-0,041
-728,167	781,249	-0,052	-0,107
-727,152	-185,639	-0,015	-0,000
-726,137	-200,000	0,025	0,099
-725,123	626,942	-0,017	-0,033
-724,108	45,485	-0,055	-0,037
-723,094	-187,046	0,038	-0,000
-722,079	-51,541	-0,131	0,045
-721,064	-200,000	0,016	-0,099
-720,050	800,000	0,017	-0,038
-719,035	-200,000	-0,015	-0,121
-718,021	-127,163	-0,129	-0,014
-717,006	800,000	-0,029	-0,093
-715,991	-200,000	0,012	-0,099
-714,977	-200,000	0,033	-0,135
-713,962	-125,990	-0,056	0,006
-712,948	-137,132	-0,086	-0,007
-711,933	800,000	-0,017	-0,049
-710,918	-200,000	-0,020	-0,154
-709,904	69,021	-0,117	-0,089
-708,889	-55,206	-0,091	-0,030
-707,875	383,189	0,071	-0,109
-706,860	-200,000	-0,014	0,064
-705,845	726,624	-0,030	0,060
-704,831	-200,000	0,057	0,213
-703,816	309,134	0,014	-0,019
-702,802	800,000	0,017	-0,053
-701,787	585,238	-0,072	-0,132
-700,772	78,649	-0,028	-0,022
-699,758	249,008	-0,075	0,095
-698,743	32,707	0,095	0,061
-697,729	-200,000	0,026	0,120
-696,714	474,474	0,040	0,067
-695,699	-200,000	-0,049	-0,164
-694,685	-189,359	-0,032	-0,000
-693,670	340,838	-0,066	-0,095
-692,656	-200,000	0,035	-0,135
-691,641	-200,000	-0,013	-0,153
-690,627	-118,535	0,144	-0,019
-689,612	-200,000	-0,010	0,112
-688,597	-8,449	-0,052	0,026
-687,583	7,215	0,028	-0,015
-686,568	50,893	-0,083	0,058
-685,554	689,416	-0,074	-0,145
-684,539	7,505	0,092	-0,051
-683,524	-167,678	0,010	-0,000
-682,510	-26,737	-0,102	0,044
-681,495	133,801	-0,073	-0,070
-680,481	560,512	0,066	-0,118
-679,466	-75,957	0,107	-0,028
-678,451	800,000	0,043	-0,118
-677,437	800,000	0,019	0,059
-676,422	-200,000	-0,017	-0,127
-675,408	88,397	-0,094	-0,077
-674,393	72,950	0,093	-0,072
-673,378	6,584	-0,077	0,042
-672,364	-6,259	0,070	0,035
-671,349	298,762	-0,033	0,045
-670,335	121,151	-0,042	0,039
-669,320	287,016	0,053	0,072
-668,305	-45,504	0,081	0,030
-667,291	-103,831	-0,108	0,019
-666,276	-200,000	-0,004	-0,077
-665,262	18,429	-0,077	-0,046
-664,247	110,870	0,055	0,049
-663,232	-200,000	0,020	0,162
-662,218	-40,938	0,129	-0,049
-661,203	532,733	-0,026	0,045
-660,189	-5,066	0,179	-0,091
-659,174	-200,000	-0,062	0,000
-658,159	-200,000	-0,001	-0,049
-657,145	315,898	-0,074	-0,104
-656,130	285,873	-0,066	-0,088
-655,116	-200,000	0,002	-0,033
-654,101	449,750	0,040	-0,065
-653,086	-200,000	-0,012	0,072
-652,072	-6,533	-0,070	0,035
-651,057	-76,370	0,091	-0,024
-650,043	800,000	0,024	0,072
-649,028	800,000	0,024	-0,058
-648,014	-49,187	0,096	0,034
-646,999	635,099	0,061	0,115
-645,984	159,946	0,082	0,085
-644,970	383,171	-0,072	0,110
-643,955	-200,000	-0,007	-0,101
-642,941	-200,000	0,017	-0,121
-641,926	-200,000	-0,027	-0,111
-640,911	-200,000	0,010	-0,102
-639,897	-77,518	0,123	0,031
-638,882	-200,000	-0,025	0,118
-637,868	-5,793	0,041	-0,021
-636,853	800,000	-0,036	-0,084
-635,838	776,308	0,004	-0,008
-634,824	46,123	-0,183	-0,126
-633,809	-67,205	-0,099	0,029
-632,795	-200,000	-0,022	-0,098
-631,780	-36,391	0,118	-0,047
-630,765	-200,000	-0,029	-0,099
-629,751	1,564	-0,143	-0,076
-628,736	-158,140	-0,063	-0,003
-627,722	-47,754	-0,030	-0,011
-626,707	9,187	-0,189	-0,106
-625,692	195,309	0,018	-0,020
-624,678	22,664	-0,059	0,036
-623,663	416,488	0,021	0,033
-622,649	-200,000	0,020	-0,074
-621,634	23,677	0,035	0,021
-620,619	-200,000	-0,008	0,027
-619,605	-32,419	0,155	0,064
-618,590	-143,395	0,053	0,004
-617,576	120,398	-0,126	0,116
-616,561	174,222	-0,043	0,046
-615,546	800,000	-0,054	-0,129
-614,532	377,679	-0,033	0,049
-613,517	800,000	-0,060	-0,140
-612,503	-200,000	-0,008	0,034
-611,488	800,000	0,024	0,062
-610,474	-200,000	0,021	0,123
-609,459	6,494	-0,064	0,035
-608,444	-151,924	-0,066	-0,004
-607,430	144,949	-0,090	-0,089
-606,415	-200,000	-0,020	-0,073
-605,401	-200,000	0,005	-0,126
-604,386	-124,562	0,069	-0,008
-603,371	-200,000	-0,130	0,000
-602,357	13,334	0,041	0,023
-601,342	800,000	-0,048	-0,137
-600,328	245,993	0,049	-0,061
-599,313	-82,718	-0,053	-0,013
-598,298	-158,509	0,091	0,004
-597,284	233,690	-0,031	-0,038
-596,269	-64,645	-0,127	0,038
-595,255	69,608	0,115	-0,088
-594,240	-129,468	-0,175	0,018
-593,225	-79,705	-0,140	-0,035
-592,211	413,057	-0,096	-0,151
-591,196	76,251	0,022	-0,018
-590,182	-158,973	-0,032	0,001
-589,167	-200,000	0,005	-0,072
-588,152	-200,000	-0,007	-0,050
-587,138	94,085	-0,145	-0,122
-586,123	370,199	-0,049	-0,074
-585,109	800,000	-0,037	-0,082
-584,094	210,409	-0,033	-0,038
-583,079	100,444	0,048	-0,041
-582,065	-75,203	-0,126	0,033
-581,050	-143,601	0,147	-0,010
-580,036	1,001	-0,024	-0,013
-579,021	-200,000	0,000	-0,048
-578,006	-200,000	0,009	-0,060
-576,992	506,754	0,017	0,030
-575,977	29,630	-0,058	0,037
-574,963	325,387	0,057	-0,081
-573,948	28,549	0,095	-0,059
-572,934	-200,000	0,015	0,157
-571,919	251,808	0,035	-0,045
-570,904	-200,000	-0,009	0,097
-569,890	-136,629	-0,130	-0,011
-568,875	29,389	0,130	0,081
-567,861	465,236	0,016	-0,026
-566,846	147,088	0,068	0,067
-565,831	-124,319	0,108	-0,012
-564,817	-163,840	-0,069	-0,002
-563,802	-137,067	-0,074	0,006
-562,788	-200,000	0,011	-0,146
-561,773	42,065	0,089	0,060
-560,758	-24,567	0,104	-0,046
-559,744	704,874	0,042	0,082
-558,729	42,224	-0,017	0,012
-557,715	-200,000	-0,002	-0,017
-556,700	-86,019	-0,168	0,038
-555,685	396,316	0,050	0,077
-554,671	-0,483	-0,046	0,024
-553,656	-147,689	-0,079	-0,005
-552,642	116,640	-0,038	0,034
-551,627	800,000	-0,023	-0,069
-550,612	-0,045	0,030	-0,016
-549,598	-200,000	-0,006	0,051
-548,583	-200,000	-0,009	0,056
-547,569	-200,000	-0,021	-0,156
-546,554	-200,000	0,018	0,078
-545,539	98,137	0,064	-0,054
-544,525	-41,299	0,034	-0,013
-543,510	-105,498	-0,088	0,015
-542,496	26,588	-0,068	0,042
-541,481	-40,954	-0,104	-0,039
-540,466	273,447	-0,118	-0,155
-539,452	-129,157	0,162	0,016
-538,437	-167,407	0,035	-0,001
-537,423	-169,847	-0,068	0,002
-536,408	-71,213	0,087	-0,024
-535,393	108,562	0,052	-0,046
-534,379	-67,227	-0,172	0,050
-533,364	-121,074	0,152	0,019
-532,350	-200,000	0,014	-0,120
-531,335	-200,000	0,002	0,028
-530,321	492,895	0,034	0,058
-529,306	225,962	0,011	-0,013
-528,291	-200,000	0,021	-0,102
-527,277	3,007	0,085	0,045
-526,262	-200,000	-0,009	-0,037
-525,248	-200,000	0,022	-0,070
-524,233	-74,141	0,019	-0,005
-523,218	-200,000	0,011	0,110
-522,204	151,455	-0,080	0,081
-521,189	-98,299	-0,035	-0,007
-520,175	-39,693	0,035	0,013
-519,160	-200,000	0,007	0,068
-518,145	235,032	-0,088	0,108
-517,131	800,000	0,009	-0,027
-516,116	-167,619	0,043	-0,001
-515,102	-200,000	-0,007	0,044
-514,087	199,760	0,107	-0,121
-513,072	80,335	-0,130	-0,103
-512,058	800,000	0,067	-0,160
-511,043	122,431	0,053	0,048
-510,029	220,243	-0,063	0,075
-509,014	-200,000	0,035	0,133
-507,999	-143,810	-0,098	0,007
-506,985	121,506	-0,035	0,033
-505,970	-200,000	-0,014	-0,053
-504,956	800,000	-0,029	-0,071
-503,941	-200,000	-0,006	-0,077
-502,926	-116,092	-0,170	0,023
-501,912	-83,435	0,085	-0,020
-500,897	-39,213	0,037	-0,014
-499,883	-200,000	0,032	0,139
-498,868	382,714	-0,042	-0,064
-497,853	-200,000	-0,002	-0,028
-496,839	319,769	0,072	-0,100
-495,824	10,336	0,076	-0,042
-494,810	191,847	0,124	0,138
-493,795	292,604	0,075	0,101
-492,781	-138,220	-0,128	0,010
-491,766	-200,000	-0,033	0,145
-490,751	-18,543	-0,034	0,015
-489,737	-52,815	-0,101	-0,034
-488,722	94,046	0,075	-0,062
-487,708	131,059	-0,042	0,040
-486,693	56,869	-0,018	-0,013
-485,678	-103,469	-0,075	-0,013
-484,664	-48,593	-0,120	-0,042
-483,649	61,901	-0,057	-0,042
-482,635	75,580	0,112	-0,087
-481,620	-200,000	-0,003	-0,019
-480,605	-200,000	-0,006	0,079
-479,591	319,848	0,108	-0,151
-478,576	-120,613	0,091	-0,011
-477,562	-200,000	0,010	-0,068
-476,547	707,565	-0,082	0,161
-475,532	-89,781	0,093	-0,020
-474,518	-200,000	0,014	-0,186
-473,503	-26,936	-0,061	-0,026
-472,489	-86,132	-0,030	0,007
-471,474	-200,000	0,005	0,043
-470,459	66,123	-0,083	-0,062
-469,445	800,000	-0,021	-0,047
-468,430	-200,000	-0,010	-0,084
-467,416	362,912	0,118	-0,175
-466,401	-135,644	-0,037	0,003
-465,386	89,226	0,064	0,053
-464,372	98,648	0,061	0,052
-463,357	-200,000	-0,026	-0,119
-462,343	135,360	-0,113	-0,108
-461,328	-63,610	-0,058	0,018
-460,313	392,038	-0,003	-0,005
-459,299	-200,000	0,022	0,098
-458,284	177,282	-0,067	0,072
-457,270	50,204	0,067	-0,047
-456,255	166,292	-0,069	-0,072
-455,241	-84,756	-0,085	-0,020
-454,226	363,180	-0,022	-0,032
-453,211	-169,731	0,102	0,003
-452,197	800,000	0,046	0,108
-451,182	219,131	0,108	0,127
-450,168	800,000	0,044	0,108
-449,153	32,657	-0,125	-0,080
-448,138	-29,649	-0,057	-0,024
-447,124	-31,471	-0,036	-0,015
-446,109	17,410	0,090	0,052
-445,095	132,505	0,074	-0,070
-444,080	57,902	0,123	0,088
-443,065	-200,000	-0,019	0,130
-442,051	-200,000	-0,035	-0,179
-441,036	-19,271	-0,088	-0,040
-440,022	99,537	0,050	-0,042
-439,007	-139,300	0,081	-0,006
-437,992	368,198	-0,102	0,152
-436,978	-200,000	-0,009	0,063
-435,963	-9,539	0,051	0,025
-434,949	800,000	-0,030	0,091
-433,934	-200,000	-0,013	0,099
-432,919	470,933	0,035	-0,057
-431,905	-200,000	-0,030	-0,159
-430,890	-200,000	0,010	-0,059
-429,876	259,939	0,131	0,167
-428,861	-86,044	0,073	-0,016
-427,846	121,877	-0,059	0,055
-426,832	-167,469	-0,159	0,005
-425,817	89,841	-0,051	0,042
-424,803	800,000	0,048	0,106
-423,788	-190,307	-0,065	-0,001
-422,773	-43,505	0,080	-0,030
-421,759	-200,000	-0,010	0,065
-420,744	43,373	-0,114	0,076
-419,730	-37,870	-0,074	0,029
-418,715	-191,791	0,100	-0,001
-417,701	19,794	-0,074	0,044
-416,686	-190,193	0,021	-0,000
-415,671	800,000	0,021	-0,060
-414,657	-200,000	0,050	0,181
-413,642	800,000	0,016	0,049
-412,628	27,574	-0,023	0,014
-411,613	-200,000	-0,066	-0,250
-410,598	-24,139	-0,069	-0,030
-409,584	153,832	-0,041	-0,042
-408,569	800,000	0,029	-0,086
-407,555	192,211	0,012	0,013
-406,540	-200,000	0,023	0,078
-405,525	469,760	-0,027	-0,045
-404,511	797,433	0,042	-0,085
-403,496	13,308	-0,079	-0,045
-402,482	182,622	0,068	-0,073
-401,467	-25,067	-0,073	0,032
-400,452	-200,000	-0,023	0,112
-399,438	-200,000	0,032	0,130
-398,423	-180,394	-0,119	0,002
-397,409	800,000	-0,027	-0,083
-396,394	232,059	0,074	-0,089
-395,379	208,780	0,054	0,062
-394,365	333,662	0,067	0,095
-393,350	613,183	-0,090	0,166
-392,336	-147,930	0,048	-0,003
-391,321	-170,231	-0,018	0,000
-390,306	800,000	0,014	0,041
-389,292	800,000	0,016	0,035
-388,277	645,544	-0,055	-0,104
-387,263	-7,130	0,038	0,019
-386,248	-97,653	-0,067	-0,013
-385,233	745,188	0,080	0,158
-384,219	291,706	-0,019	-0,025
-383,204	-30,813	-0,197	-0,081
-382,190	319,152	0,098	0,136
-381,175	-124,487	0,181	-0,020
-380,160	-200,000	0,004	-0,059
-379,146	93,934	0,061	-0,051
-378,131	800,000	0,059	0,165
-377,117	-200,000	-0,004	0,059
-376,102	800,000	-0,040	-0,098
-375,088	129,322	0,103	0,096
-374,073	279,196	-0,051	0,067
-373,058	-200,000	0,000	-0,009
-372,044	-200,000	-0,003	0,144
-371,029	-200,000	-0,006	0,024
-370,015	800,000	0,033	0,069
-369,000	800,000	0,009	0,019
-367,985	-200,000	-0,000	-0,028
-366,971	-156,000	-0,074	0,003
-365,956	7,638	0,042	0,023
-364,942	-115,215	-0,104	-0,014
-363,927	170,708	-0,027	-0,029
-362,912	-200,000	-0,004	-0,109
-361,898	387,639	-0,007	-0,011
-360,883	800,000	-0,047	-0,107
-359,869	117,851	-0,088	0,079
-358,854	123,985	0,021	-0,020
-357,839	-200,000	-0,020	0,069
-356,825	22,648	0,072	0,043
-355,810	583,390	-0,095	-0,171
-354,796	2,142	-0,109	-0,058
-353,781	27,861	0,044	0,027
-352,766	800,000	-0,079	0,186
-351,752	-100,792	-0,101	0,018
-350,737	11,758	0,105	0,059
-349,723	32,588	0,107	0,067
-348,708	-200,000	0,012	0,201
-347,693	-93,221	0,057	-0,012
-346,679	-200,000	0,011	0,080
-345,664	176,607	0,042	0,045
-344,650	-200,000	-0,004	-0,030
-343,635	800,000	-0,028	-0,083
-342,620	-76,893	0,082	0,021
-341,606	-113,339	-0,266	0,038
-340,591	-200,000	-0,040	-0,160
-339,577	800,000	0,038	0,116
-338,562	142,316	-0,139	-0,135
-337,548	93,338	0,100	-0,082
-336,533	349,839	0,030	-0,044
-335,518	-120,622	-0,103	0,013
-334,504	-200,000	0,003	0,077
-333,489	-3,946	-0,116	-0,059
-332,475	414,921	-0,015	0,023
-331,460	-161,607	0,028	0,001
-330,445	332,033	-0,040	0,056
-329,431	70,384	0,058	0,044
-328,416	139,566	0,104	0,100
-327,402	-200,000	-0,035	0,136
-326,387	-200,000	0,035	0,122
-325,372	252,698	-0,021	0,026
-324,358	-85,772	0,129	0,029
-323,343	544,346	0,018	0,032
-322,329	-132,255	0,079	0,007
-321,314	242,411	0,052	-0,063
-320,299	27,617	-0,064	0,040
-319,285	-114,301	0,289	-0,040
-318,270	-200,000	-0,023	-0,097
-317,256	-200,000	0,064	0,223
-316,241	168,892	0,104	0,109
-315,226	-200,000	-0,002	-0,071
-314,212	393,935	-0,119	0,182
-313,197	-200,000	0,003	0,016
-312,183	-200,000	0,015	0,054
-311,168	-200,000	0,005	0,106
-310,153	800,000	0,038	-0,104
-309,139	800,000	0,050	-0,145
-308,124	-108,304	0,102	0,016
-307,110	-66,624	-0,056	-0,016
-306,095	-200,000	0,021	0,067
-305,080	614,620	-0,053	0,097
-304,066	-12,747	-0,092	-0,043
-303,051	77,709	0,047	-0,037
-302,037	-59,805	0,179	0,056
-301,022	14,229	-0,027	-0,015
-300,008	-200,000	0,013	0,055
-298,993	-27,796	-0,075	-0,031
-297,978	800,000	0,057	-0,182
-296,964	-23,205	-0,111	0,049
-295,949	-200,000	0,017	-0,070
-294,935	-200,000	0,007	-0,046
-293,920	-11,301	0,058	-0,028
-292,905	69,808	0,127	-0,096
-291,891	-16,226	0,132	0,061
-290,876	-200,000	-0,035	0,117
-289,862	771,092	0,019	-0,038
-288,847	74,808	-0,052	-0,040
-287,832	770,197	0,044	-0,089
-286,818	186,839	0,046	-0,051
-285,803	-103,060	0,056	-0,010
-284,789	-200,000	0,017	0,166
-283,774	-6,752	0,083	-0,041
-282,759	-200,000	-0,024	-0,117
-281,745	9,613	0,101	-0,056
-280,730	-91,894	-0,122	0,025
-279,716	-32,842	-0,019	0,008
-278,701	-195,152	0,131	0,001
-277,686	111,034	0,048	0,042
-276,672	-75,649	0,054	-0,014
-275,657	306,528	-0,080	-0,109
-274,643	-200,000	0,003	0,031
-273,628	800,000	0,047	0,116
-272,613	2,259	-0,052	0,027
-271,599	161,038	0,067	-0,068
-270,584	-200,000	0,000	0,014
-269,570	-200,000	-0,015	0,117
-268,555	-158,327	0,063	0,003
-267,540	343,551	0,017	-0,024
-266,526	-15,261	-0,035	0,016
-265,511	-78,613	0,051	0,013
-264,497	800,000	0,032	0,077
-263,482	461,120	0,021	0,035
-262,467	-77,901	0,085	-0,021
-261,453	-200,000	-0,001	-0,038
-260,438	-130,076	-0,149	-0,015
-259,424	800,000	-0,037	0,116
-258,409	-200,000	0,011	0,111
-257,395	-27,940	0,098	-0,041
-256,380	-200,000	0,013	0,051
-255,365	175,522	-0,013	-0,013
-254,351	800,000	0,035	0,089
-253,336	29,523	0,031	-0,019
-252,322	-200,000	0,002	0,011
-251,307	0,430	-0,056	-0,029
-250,292	91,485	0,055	0,045
-249,278	676,382	-0,010	-0,019
-248,263	-200,000	0,001	0,069
-247,249	800,000	0,053	-0,133
-246,234	-200,000	0,023	-0,207
-245,219	-200,000	0,001	0,031
-244,205	29,219	0,012	0,008
-243,190	-200,000	0,011	0,043
-242,176	515,274	-0,020	0,034
-241,161	-200,000	-0,011	0,048
-240,146	800,000	-0,055	0,118
-239,132	-200,000	-0,024	0,119
-238,117	-100,907	-0,162	0,029
-237,103	-94,681	0,067	0,013
-236,088	142,026	0,027	-0,027
-235,073	-172,679	0,127	0,003
-234,059	-200,000	-0,033	0,139
-233,044	226,946	0,115	0,136
-232,030	-55,100	-0,124	-0,041
-231,015	-46,491	0,043	-0,015
-230,000	-113,739	-0,048	0,007
-228,986	-86,872	0,106	0,023
-227,971	800,000	0,002	-0,006
-226,957	-200,000	0,001	0,050
-225,942	106,948	-0,030	-0,026
-224,927	555,056	-0,044	0,078
-223,913	363,492	0,048	-0,071
-222,898	91,518	-0,038	-0,031
-221,884	-200,000	0,001	-0,108
-220,869	800,000	-0,007	0,016
-219,855	-155,986	0,111	-0,005
-218,840	800,000	0,064	0,137
-217,825	-107,504	-0,064	-0,010
-216,811	800,000	-0,016	-0,051
-215,796	800,000	-0,033	0,100
-214,782	342,507	0,040	-0,057
-213,767	153,689	0,022	-0,022
-212,752	-129,371	0,127	0,013
-211,738	-200,000	-0,034	0,177
-210,723	800,000	-0,011	-0,023
-209,709	-156,990	-0,105	0,005
-208,694	94,302	0,035	-0,029
-207,679	261,448	0,097	-0,123
-206,665	-200,000	0,023	-0,092
-205,650	-43,708	0,103	0,038
-204,636	-200,000	0,005	-0,072
-203,621	29,052	-0,061	-0,038
-202,606	4,343	0,047	-0,025
-201,592	-200,000	-0,010	-0,048
-200,577	800,000	0,035	0,079
-199,563	-182,880	-0,097	-0,001
-198,548	-126,158	0,031	0,003
-197,533	151,884	0,020	0,020
-196,519	-200,000	0,022	0,155
-195,504	800,000	-0,045	0,128
-194,490	800,000	0,053	-0,124
-193,475	-200,000	0,004	0,050
-192,460	534,650	-0,041	-0,071
-191,446	13,466	0,088	-0,050
-190,431	559,137	-0,032	-0,057
-189,417	-11,167	0,041	-0,020
-188,402	-162,049	-0,140	-0,005
-187,387	-200,000	0,008	-0,125
-186,373	-200,000	-0,025	-0,095
-185,358	800,000	-0,044	0,118
-184,344	-74,111	-0,048	-0,013
-183,329	92,197	0,007	-0,005
-182,315	442,979	0,049	0,078
-181,300	-106,934	-0,042	0,007
-180,285	-200,000	-0,009	-0,084
-179,271	687,190	0,011	0,020
-178,256	716,161	0,027	-0,052
-177,242	209,217	0,043	0,049
-176,227	172,631	0,122	0,127
-175,212	43,219	-0,081	-0,054
-174,198	-81,218	-0,051	-0,012
-173,183	9,714	-0,053	-0,029
-172,169	800,000	0,086	-0,176
-171,154	22,108	-0,031	0,019
-170,139	800,000	-0,028	0,074
-169,125	-61,556	0,036	-0,011
-168,110	-200,000	-0,008	-0,134
-167,096	-151,302	0,088	-0,005
-166,081	-87,142	-0,193	0,042
-165,066	-200,000	-0,015	-0,052
-164,052	76,408	-0,185	-0,143
-163,037	357,159	0,066	-0,096
-162,023	42,117	0,031	-0,021
-161,008	336,042	0,027	-0,038
-159,993	-42,840	-0,038	-0,014
-158,979	-72,034	0,127	0,034
-157,964	-200,000	0,019	0,091
-156,950	-200,000	0,022	0,076
-155,935	-56,557	0,049	0,016
-154,920	-15,139	-0,072	0,034
-153,906	-200,000	-0,005	0,018
-152,891	241,549	0,071	-0,087
-151,877	245,485	-0,019	0,024
-150,862	800,000	0,035	-0,073
-149,847	800,000	0,015	0,047
-148,833	57,485	-0,132	-0,094
-147,818	-102,961	0,094	-0,016
-146,804	-17,644	-0,044	0,020
-145,789	-74,228	0,090	-0,023
-144,775	86,222	-0,051	0,041
-143,760	-126,930	0,048	-0,005
-142,745	362,244	-0,109	-0,159
-141,731	800,000	0,042	-0,085
-140,716	-2,649	0,057	-0,029
-139,702	16,745	0,093	-0,054
-138,687	-40,981	0,065	-0,024
-137,672	3,075	-0,082	-0,043
-136,658	194,149	-0,094	-0,103
-135,643	-67,809	0,104	-0,029
-134,629	-200,000	-0,009	-0,127
-133,614	-11,232	0,148	0,071
-132,599	116,158	0,091	0,081
-131,585	37,657	0,184	0,118
-130,570	800,000	0,038	0,100
-129,556	101,633	-0,055	0,047
-128,541	-63,977	-0,102	0,030
-127,526	-200,000	-0,005	0,104
-126,512	200,726	-0,095	0,106
-125,497	-87,926	0,099	0,021
-124,483	-200,000	-0,002	0,045
-123,468	-80,584	-0,070	0,017
-122,453	-14,447	0,012	-0,006
-121,439	-139,396	0,053	-0,004
-120,424	-64,932	0,016	-0,005
-119,410	24,469	0,068	-0,040
-118,395	28,642	0,046	-0,028
-117,380	84,896	-0,087	-0,069
-116,366	91,178	0,016	-0,013
-115,351	-200,000	0,001	0,010
-114,337	96,446	-0,096	-0,079
-113,322	105,275	-0,032	-0,027
-112,307	284,254	0,100	0,132
-111,293	666,825	-0,038	0,071
-110,278	-200,000	0,027	0,152
-109,264	-98,962	-0,062	0,011
-108,249	-200,000	0,010	0,079
-107,234	275,257	-0,079	-0,102
-106,220	-200,000	-0,000	0,005
-105,205	800,000	0,009	-0,021
-104,191	800,000	0,021	0,048
-103,176	-56,425	-0,157	0,050
-102,162	800,000	0,026	-0,056
-101,147	-200,000	0,009	-0,043
-100,132	-200,000	0,007	-0,084
-99,118	-200,000	0,009	-0,033
-98,103	108,523	-0,014	-0,012
-97,089	198,817	0,070	0,078
-96,074	239,918	0,097	0,118
-95,059	800,000	-0,020	-0,063
-94,045	342,651	-0,032	0,045
-93,030	-200,000	0,014	-0,147
-92,016	300,827	0,004	-0,006
-91,001	-116,314	-0,157	-0,021
-89,986	12,788	0,033	-0,019
-88,972	36,128	0,076	-0,049
-87,957	412,746	-0,037	-0,057
-86,943	-200,000	0,025	-0,199
-85,928	-45,122	0,071	0,025
-84,913	-76,092	-0,088	-0,022
-83,899	22,225	0,072	-0,043
-82,884	-131,829	0,075	0,007
-81,870	3,357	0,190	0,100
-80,855	-200,000	-0,009	-0,036
-79,840	333,593	0,065	-0,091
-78,826	121,559	0,074	-0,067
-77,811	800,000	-0,029	-0,070
-76,797	646,551	0,071	0,133
-75,782	586,909	-0,032	-0,057
-74,767	-86,623	0,031	0,007
-73,753	-146,476	-0,051	-0,003
-72,738	-200,000	0,043	0,167
-71,724	-200,000	-0,037	-0,146
-70,709	16,698	0,104	-0,059
-69,694	-137,034	0,031	-0,003
-68,680	-128,126	0,034	0,003
-67,665	110,254	0,122	0,106
-66,651	3,639	0,080	0,042
-65,636	-57,628	-0,118	-0,037
-64,622	182,511	0,079	0,084
-63,607	800,000	-0,024	-0,050
-62,592	-200,000	0,006	-0,062
-61,578	289,691	0,054	0,072
-60,563	-200,000	-0,012	0,068
-59,549	-200,000	0,009	0,086
-58,534	-108,191	-1,447	-0,225
-57,519	588,728	-0,851	-1,526
-56,505	-200,000	-1,034	-4,480
-55,490	-110,747	0,640	-0,095
-54,476	800,000	5,002	11,859
-53,461	-200,000	14,982	264,719
-52,446	-200,000	700,241	2269,899
-51,432	596,764	1624,181	2926,702
-50,417	120,436	1629,273	1465,932
-49,403	79,660	1282,615	996,639
-48,388	37,628	1021,140	655,242
-47,373	22,851	981,227	581,089
-46,359	21,983	970,193	571,690
-45,344	20,735	965,936	565,085
-44,330	20,759	964,658	564,395
-43,315	20,549	963,234	562,855
-42,300	20,590	962,162	562,341
-41,286	20,528	961,131	561,512
-40,271	20,527	960,091	560,878
-39,257	20,516	959,301	560,362
-38,242	20,509	958,362	559,765
-37,227	20,590	957,431	559,463
-36,213	20,562	956,662	558,899
-35,198	20,489	955,672	558,064
-34,184	20,508	954,860	557,629
-33,169	20,424	954,156	556,926
-32,154	20,542	953,047	556,636
-31,140	20,543	952,240	556,145
-30,125	20,516	951,660	555,698
-29,111	20,521	950,721	555,145
-28,096	20,469	950,103	554,593
-27,082	20,440	949,514	554,135
-26,067	20,454	948,544	553,593
-25,052	20,481	947,785	553,214
-24,038	20,531	947,218	553,021
-23,023	20,475	946,554	552,433
-22,009	20,554	945,683	552,153
-20,994	20,562	945,084	551,808
-19,979	20,515	944,714	551,419
-18,965	20,498	944,013	550,934
-17,950	20,497	943,432	550,572
-16,936	20,416	942,718	549,875
-15,921	20,481	941,947	549,610
-14,906	20,368	941,511	548,973
-13,892	20,455	940,589	548,691
-12,877	20,349	940,218	548,114
-11,863	20,365	939,348	547,638
-10,848	20,337	939,033	547,345
-9,833	20,473	938,412	547,392
-8,819	20,452	938,011	547,068
-7,804	20,395	937,239	546,417
-6,790	20,326	936,829	545,937
-5,775	20,480	935,867	545,842
-4,760	20,409	935,390	545,316
-3,746	20,385	934,883	544,926
-2,731	20,233	934,165	544,005
-1,717	20,237	933,366	543,530
-0,702	20,257	932,762	543,221
0,313	20,006	932,131	542,883
1,327	22,481	929,758	549,226
2,342	29,811	805,779	495,793
3,356	24,120	506,493	301,940
4,371	-0,063	372,674	191,449
5,386	-2,922	355,978	179,354
6,400	-4,163	350,170	174,916
7,415	-4,509	347,705	173,253
8,429	-4,239	346,186	172,804
9,444	-4,446	345,547	172,222
10,459	-4,256	344,546	171,935
11,473	-4,328	344,091	171,607
12,488	-4,356	343,459	171,243
13,502	-4,379	342,926	170,935
14,517	-4,420	342,540	170,679
15,531	-4,286	342,047	170,576
16,546	-3,997	341,486	170,621
17,561	-4,239	341,198	170,177
18,575	-4,104	340,752	170,098
19,590	-4,224	340,247	169,690
20,604	-4,188	340,150	169,668
21,619	-4,248	339,739	169,378
22,634	-4,165	339,288	169,236
23,648	-4,277	338,824	168,858
24,663	-4,302	338,730	168,767
25,677	-4,197	338,282	168,651
26,692	-4,253	338,017	168,439
27,707	-4,228	337,715	168,303
28,721	-4,150	337,285	168,164
29,736	-4,164	337,021	168,000
30,750	-4,239	336,751	167,764
31,765	-4,127	336,537	167,773
32,780	-4,234	336,270	167,500
33,794	-4,244	335,992	167,336
34,809	-4,209	335,808	167,269
35,823	-4,280	335,489	167,013
36,838	-4,218	335,164	166,908
37,853	-4,182	334,847	166,777
38,867	-4,105	334,469	166,663
39,882	-4,197	334,161	166,389
40,896	-4,231	334,178	166,342
41,911	-4,164	333,654	166,144
42,926	-4,229	333,323	165,891
43,940	-4,234	333,198	165,808
44,955	-4,147	332,890	165,739
45,969	-4,084	332,490	165,597
46,984	-4,106	332,302	165,464
47,999	-4,116	332,250	165,411
49,013	-4,098	331,984	165,285
50,028	-4,126	331,759	165,126
51,042	-4,283	331,492	164,800
52,057	-4,153	331,148	164,762
53,071	-4,233	330,830	164,497
54,086	-4,283	330,770	164,397
55,101	-4,030	330,414	164,492
56,115	-4,288	330,224	164,090
57,130	-4,196	329,863	164,000
58,144	-4,263	329,605	163,782
59,159	-4,263	329,203	163,568
60,174	-4,255	329,053	163,487
61,188	-4,198	328,725	163,374
62,203	-4,231	328,571	163,246
63,217	-4,172	328,319	163,172
64,232	-4,230	328,088	162,978
65,247	-4,119	327,668	162,879
66,261	-4,287	327,460	162,573
67,276	-4,266	327,164	162,435
68,290	-4,153	326,955	162,443
69,305	-4,179	326,712	162,280
70,320	-4,189	326,495	162,146
71,334	-4,239	326,254	161,955
72,349	-4,172	325,955	161,867
73,363	-4,307	325,672	161,562
74,378	-4,341	325,465	161,407
75,393	-4,251	325,180	161,352
76,407	-4,195	324,935	161,278
77,422	-4,226	324,641	161,083
78,436	-4,221	324,352	160,931
79,451	-4,260	324,244	160,819
80,466	-4,180	323,872	160,709
81,480	-4,190	323,673	160,585
82,495	-4,203	323,395	160,419
83,509	-4,076	323,130	160,413
84,524	-4,102	322,985	160,299
85,539	-3,968	322,662	160,272
86,553	-3,973	322,450	160,146
87,568	-4,133	322,215	159,839
88,582	-4,163	321,996	159,684
89,597	-4,170	321,787	159,558
90,611	-4,319	321,494	159,234
91,626	-4,159	321,235	159,267
92,641	-4,134	321,074	159,202
93,655	-4,099	320,615	158,998
94,670	-4,175	320,634	158,910
95,684	-4,124	320,285	158,779
96,699	-4,316	320,067	158,445
97,714	-4,210	319,830	158,431
98,728	-4,141	319,610	158,383
99,743	-4,023	319,411	158,399
100,757	-4,232	319,099	158,003
101,772	-4,114	318,900	158,019
102,787	-4,230	318,699	157,778
103,801	-4,171	318,467	157,713
104,816	-4,070	318,100	157,627
105,830	-4,151	317,927	157,439
106,845	-4,385	317,943	157,180
107,860	-4,171	317,501	157,179
108,874	-4,167	317,306	157,072
109,889	-4,115	316,941	156,934
110,903	-4,094	316,664	156,806
111,918	-4,105	316,462	156,679
112,933	-4,183	316,326	156,514
113,947	-4,114	316,188	156,506
114,962	-4,232	315,938	156,242
115,976	-4,078	315,649	156,251
116,991	-4,301	315,521	155,934
118,006	-4,189	315,202	155,882
119,020	-4,310	315,145	155,710
120,035	-4,213	314,799	155,629
121,049	-4,038	314,667	155,738
122,064	-3,944	314,405	155,695
123,079	-4,136	314,095	155,322
124,093	-4,263	313,876	155,063
125,108	-4,245	313,578	154,922
126,122	-4,204	313,603	154,965
127,137	-4,059	313,328	154,970
128,151	-3,960	312,948	154,874
129,166	-4,253	312,901	154,524
130,181	-4,076	312,680	154,589
131,195	-4,058	312,212	154,364
132,210	-4,132	312,006	154,169
133,224	-4,074	311,853	154,141
134,239	-4,291	311,755	153,849
135,254	-4,154	311,418	153,814
136,268	-4,115	311,131	153,700
137,283	-4,197	311,122	153,595
138,297	-4,076	310,631	153,468
139,312	-3,889	310,337	153,506
140,327	-4,185	310,271	153,146
141,341	-4,094	309,934	153,063
142,356	-4,204	309,793	152,864
143,370	-4,100	309,543	152,836
144,385	-4,128	309,438	152,741
145,400	-3,996	309,029	152,664
146,414	-4,236	308,799	152,285
147,429	-4,262	308,741	152,215
148,443	-4,173	308,525	152,189
149,458	-4,133	308,207	152,060
150,473	-4,162	308,034	151,931
151,487	-4,234	307,888	151,770
152,502	-4,227	307,616	151,630
153,516	-4,297	307,380	151,427
154,531	-4,226	307,187	151,393
155,546	-4,150	307,008	151,370
156,560	-3,992	306,771	151,404
157,575	-4,147	306,555	151,123
158,589	-4,115	306,254	150,994
159,604	-4,188	306,161	150,859
160,619	-4,109	305,876	150,788
161,633	-4,083	305,791	150,759
162,648	-3,999	305,452	150,665
163,662	-4,028	305,319	150,556
164,677	-4,171	305,147	150,310
165,692	-3,984	304,829	150,334
166,706	-4,055	304,623	150,145
167,721	-4,042	304,535	150,102
168,735	-4,195	304,477	149,901
169,750	-4,197	304,216	149,757
170,764	-4,328	303,913	149,460
171,779	-4,147	303,835	149,595
172,794	-4,146	303,504	149,420
173,808	-4,056	303,272	149,385
174,823	-4,068	303,097	149,273
175,837	-4,059	302,938	149,191
176,852	-4,169	302,622	148,909
177,867	-4,017	302,525	149,004
178,881	-4,149	302,363	148,775
179,896	-4,154	302,146	148,650
180,910	-4,154	301,906	148,519
181,925	-4,072	301,656	148,466
182,940	-4,111	301,467	148,321
183,954	-4,030	301,088	148,204
184,969	-4,144	301,010	148,035
185,983	-4,178	300,938	147,952
186,998	-4,021	300,620	147,942
188,013	-4,147	300,357	147,672
189,027	-4,127	300,132	147,568
190,042	-4,057	300,034	147,578
191,056	-3,987	299,746	147,495
192,071	-4,209	299,526	147,147
193,086	-4,149	299,080	146,976
194,100	-4,189	299,230	146,996
195,115	-3,983	298,826	146,993
196,129	-4,013	298,759	146,917
197,144	-4,293	298,495	146,490
198,159	-4,251	298,298	146,423
199,173	-4,012	298,001	146,506
200,188	-4,137	297,743	146,240
201,202	-4,090	297,581	146,194
202,217	-4,014	297,378	146,159
203,232	-3,985	297,190	146,082
204,246	-4,090	296,890	145,816
205,261	-4,080	296,714	145,726
206,275	-4,136	296,677	145,640
207,290	-4,013	296,329	145,578
208,304	-3,956	296,284	145,601
209,319	-3,894	295,885	145,454
210,334	-4,065	295,824	145,240
211,348	-4,095	295,705	145,138
212,363	-4,078	295,320	144,953
213,377	-4,030	295,275	144,966
214,392	-4,115	295,076	144,770
215,407	-4,102	294,828	144,649
216,421	-3,917	294,511	144,665
217,436	-4,048	294,386	144,460
218,450	-4,044	294,191	144,356
219,465	-4,054	293,960	144,220
220,480	-4,330	293,874	143,890
221,494	-4,120	293,731	144,016
222,509	-4,135	293,475	143,863
223,523	-4,228	293,408	143,725
224,538	-4,148	293,101	143,641
225,553	-4,047	292,782	143,571
226,567	-4,002	292,713	143,570
227,582	-4,064	292,569	143,424
228,596	-4,054	292,312	143,296
229,611	-4,038	292,175	143,232
230,626	-4,039	291,959	143,112
231,640	-4,005	291,851	143,081
232,655	-3,962	291,613	142,993
233,669	-3,886	291,250	142,877
234,684	-3,973	291,143	142,726
235,699	-3,976	291,010	142,645
236,713	-4,075	290,786	142,425
237,728	-3,980	290,520	142,376
238,742	-3,978	290,470	142,340
239,757	-4,080	290,165	142,079
240,772	-4,261	289,906	141,761
241,786	-4,118	289,815	141,844
242,801	-4,109	289,614	141,742
243,815	-4,135	289,594	141,694
244,830	-4,197	289,258	141,457
245,844	-3,950	289,030	141,574
246,859	-4,128	288,802	141,276
247,874	-4,105	288,677	141,225
248,888	-4,049	288,554	141,206
249,903	-4,118	288,325	141,015
250,917	-4,119	288,019	140,851
251,932	-4,102	287,842	140,769
252,947	-4,366	287,467	140,317
253,961	-5,053	287,084	139,452
254,976	-5,475	286,822	138,904
255,990	-5,206	286,705	139,095
257,005	-3,592	287,267	140,919
258,020	-1,400	288,194	143,488
259,034	0,054	288,262	144,919
260,049	0,552	288,359	145,438
261,063	0,873	288,340	145,726
262,078	1,257	288,366	146,099
263,093	1,635	288,238	146,386
264,107	1,874	287,952	146,459
265,122	1,909	288,115	146,563
266,136	1,887	287,897	146,417
267,151	2,199	287,723	146,617
268,166	2,131	287,477	146,413
269,180	2,234	287,324	146,422
270,195	2,024	287,216	146,151
271,209	2,116	287,032	146,133
272,224	2,338	286,711	146,170
273,239	2,079	286,532	145,816
274,253	1,886	286,276	145,488
275,268	1,929	286,210	145,483
276,282	2,041	285,878	145,408
277,297	1,974	285,701	145,242
278,312	2,019	285,590	145,215
279,326	2,054	285,420	145,149
280,341	2,167	285,171	145,117
281,355	2,005	285,102	144,914
282,370	1,904	284,849	144,677
283,384	1,856	284,741	144,563
284,399	1,795	284,613	144,428
285,414	2,126	284,155	144,497
286,428	1,957	284,174	144,333
287,443	1,918	283,999	144,194
288,457	1,670	283,822	143,856
289,472	1,935	283,400	143,881
290,487	1,962	283,263	143,824
291,501	1,785	283,094	143,557
292,516	1,757	282,846	143,392
293,530	1,848	282,711	143,397
294,545	1,967	282,584	143,432
295,560	1,938	282,242	143,218
296,574	1,953	282,031	143,113
297,589	1,802	281,965	142,924
298,603	1,929	281,742	142,918
299,618	1,747	281,643	142,684
300,633	1,796	281,469	142,629
301,647	1,954	281,235	142,646
302,662	1,961	281,142	142,593
303,676	1,935	280,916	142,441
304,691	1,939	280,702	142,324
305,706	2,105	280,548	142,389
306,720	1,976	280,434	142,198
307,735	2,147	280,314	142,284
308,749	2,053	280,157	142,103
309,764	2,021	279,857	141,909
310,779	2,069	279,613	141,817
311,793	1,999	279,517	141,691
312,808	1,963	279,256	141,512
313,822	1,914	279,054	141,351
314,837	2,031	278,854	141,346
315,852	1,982	278,831	141,276
316,866	2,163	278,520	141,275
317,881	1,914	278,450	140,995
318,895	2,156	278,211	141,086
319,910	1,957	278,161	140,864
320,925	1,901	277,881	140,657
321,939	2,023	277,785	140,709
322,954	2,286	277,615	140,854
323,968	2,097	277,528	140,623
324,983	2,048	277,192	140,394
325,997	2,062	277,048	140,322
327,012	2,039	276,906	140,216
328,027	2,185	276,679	140,223
329,041	2,104	276,475	140,033
330,056	2,012	276,335	139,864
331,070	2,102	276,188	139,861
332,085	2,064	276,005	139,720
333,100	2,084	275,718	139,581
334,114	2,166	275,401	139,484
335,129	2,239	275,325	139,500
336,143	1,980	275,261	139,217
337,158	2,268	275,012	139,343
338,173	2,145	274,881	139,151
339,187	2,271	274,725	139,176
340,202	2,170	274,618	139,016
341,216	2,114	274,435	138,860
342,231	2,114	274,240	138,749
343,246	2,036	274,052	138,570
344,260	2,204	273,958	138,663
345,275	2,117	273,762	138,473
346,289	2,218	273,589	138,465
347,304	2,301	273,283	138,373
348,319	2,181	273,128	138,173
349,333	2,113	273,021	138,045
350,348	1,875	272,955	137,783
351,362	2,297	272,544	137,946
352,377	2,334	272,396	137,893
353,392	2,264	272,256	137,746
354,406	2,319	272,145	137,728
355,421	192,282	1345,850	1426,886
356,435	155,269	1476,751	1426,984
