DTS Sentinel unit serial number:	SN410029Multiplexer serial number:	ORYXHardware model number:	OX2-SRSoftware version number:	ORYX F/W v4,00 Oryx Data Collector v3.7.2.0data status	okinstallation	B4 Nyhavnadifferential loss correction	single-endedforward channel	channel 2reverse channel	N/Adate	2023/12/16time	07:35:13forward acquisition time	300,00reverse acquisition time	0,00gamma	499,1914k internal	0,3127k external	0,3127temperature offset calibration	1,0000default loss term (dB/km)	0,3820temperature slope calibration	1,0000multiplexer offset coefficient	1,0000multiplexer slope coefficient	1,0000fibre end	0,00T internal ref (°C)	22,36T ext. ref 1 (°C)	7,65T ext. ref 2 (°C)	7,81length (m)	temperature (°C)	Stokes	anti-Stokes-744,400	331,273	0,082	-0,118
-743,385	-82,912	-0,183	0,044
-742,371	330,524	0,070	-0,100
-741,356	119,753	-0,189	0,174
-740,342	-12,106	0,126	-0,061
-739,327	18,424	-0,191	0,114
-738,312	-91,891	0,086	-0,018
-737,298	82,073	-0,142	0,114
-736,283	-149,644	0,144	0,008
-735,269	121,402	-0,224	0,208
-734,254	-54,689	0,036	0,012
-733,239	-2,867	-0,392	-0,203
-732,225	136,725	-0,058	-0,056
-731,210	531,981	-0,066	0,116
-730,196	-38,639	-0,045	0,018
-729,181	800,000	0,059	0,166
-728,167	-200,000	-0,015	-0,128
-727,152	305,224	-0,062	-0,086
-726,137	78,700	-0,085	-0,068
-725,123	-22,745	-0,044	-0,020
-724,108	800,000	-0,024	-0,061
-723,094	-200,000	-0,005	-0,193
-722,079	119,713	-0,109	-0,100
-721,064	-94,558	0,063	0,013
-720,050	-200,000	-0,035	-0,134
-719,035	-77,719	-0,066	0,017
-718,021	-106,151	-0,020	-0,003
-717,006	800,000	-0,040	-0,101
-715,991	75,430	-0,087	-0,068
-714,977	298,197	0,009	0,013
-713,962	727,112	-0,059	-0,117
-712,948	143,943	-0,032	-0,032
-711,933	-47,620	-0,049	-0,018
-710,918	-200,000	0,011	-0,088
-709,904	434,768	-0,057	0,093
-708,889	344,544	-0,031	-0,046
-707,875	800,000	0,030	-0,072
-706,860	-200,000	0,008	0,109
-705,845	-200,000	0,014	-0,054
-704,831	800,000	0,021	0,062
-703,816	36,771	0,056	-0,036
-702,802	19,638	0,034	-0,020
-701,787	121,183	-0,093	-0,086
-700,772	-35,019	-0,167	-0,067
-699,758	149,680	-0,048	0,048
-698,743	800,000	0,014	-0,035
-697,729	187,296	0,053	0,059
-696,714	515,009	-0,077	-0,135
-695,699	800,000	-0,061	-0,129
-694,685	474,866	-0,089	-0,150
-693,670	348,664	0,077	0,113
-692,656	-200,000	0,026	0,104
-691,641	0,137	0,062	-0,033
-690,627	353,331	0,017	0,025
-689,612	-200,000	0,001	0,150
-688,597	-53,993	-0,151	0,051
-687,583	-200,000	0,018	-0,085
-686,568	211,890	-0,071	-0,084
-685,554	-200,000	-0,000	-0,003
-684,539	-92,479	-0,027	0,006
-683,524	-160,122	0,063	0,002
-682,510	495,016	-0,028	0,048
-681,495	-200,000	-0,014	0,047
-680,481	-200,000	0,015	-0,115
-679,466	76,605	0,043	-0,034
-678,451	86,053	0,019	0,016
-677,437	-114,233	-0,079	0,011
-676,422	223,894	-0,048	0,058
-675,408	-53,593	0,027	0,009
-674,393	-200,000	-0,027	-0,121
-673,378	177,966	-0,129	0,140
-672,364	22,033	-0,120	-0,073
-671,349	800,000	0,027	-0,074
-670,335	-93,862	-0,188	0,038
-669,320	800,000	0,007	0,016
-668,305	227,888	-0,045	0,054
-667,291	800,000	-0,016	-0,035
-666,276	82,320	-0,090	-0,073
-665,262	-125,880	0,081	0,009
-664,247	-2,965	-0,041	0,021
-663,232	800,000	0,015	0,048
-662,218	121,489	-0,020	0,019
-661,203	-118,823	-0,094	-0,012
-660,189	68,544	-0,141	0,107
-659,174	138,363	-0,049	-0,048
-658,159	-200,000	0,002	0,011
-657,145	-56,062	0,036	-0,012
-656,130	336,052	-0,015	0,022
-655,116	77,551	0,086	-0,068
-654,101	-200,000	-0,006	0,222
-653,086	-200,000	-0,016	0,064
-652,072	-109,526	0,133	-0,021
-651,057	800,000	-0,007	-0,016
-650,043	71,931	-0,123	-0,095
-649,028	-200,000	-0,012	-0,120
-648,014	-200,000	-0,013	-0,057
-646,999	-135,751	0,047	-0,004
-645,984	556,203	-0,013	-0,023
-644,970	-96,370	-0,070	0,014
-643,955	451,116	0,020	-0,033
-642,941	800,000	-0,047	0,150
-641,926	204,610	-0,008	-0,010
-640,911	48,157	-0,101	0,070
-639,897	-98,665	-0,036	-0,007
-638,882	100,094	-0,065	0,056
-637,868	-125,704	-0,072	0,008
-636,853	800,000	0,037	0,099
-635,838	636,254	-0,047	-0,088
-634,824	-200,000	-0,010	0,059
-633,809	-200,000	0,010	-0,032
-632,795	187,680	-0,044	0,049
-631,780	419,481	-0,038	0,061
-630,765	800,000	0,021	-0,046
-629,751	17,370	-0,116	0,068
-628,736	-200,000	0,028	-0,104
-627,722	107,157	-0,108	0,095
-626,707	-200,000	-0,007	0,034
-625,692	271,779	-0,028	0,037
-624,678	-200,000	0,021	0,147
-623,663	-200,000	-0,015	-0,082
-622,649	255,753	-0,151	-0,192
-621,634	274,667	0,101	-0,132
-620,619	-108,354	-0,095	-0,015
-619,605	170,158	-0,071	0,075
-618,590	-130,287	0,080	-0,008
-617,576	141,845	-0,064	-0,063
-616,561	800,000	0,025	-0,073
-615,546	-200,000	0,022	0,108
-614,532	800,000	-0,042	-0,108
-613,517	244,054	-0,086	-0,108
-612,503	107,506	0,030	0,027
-611,488	-60,703	0,125	-0,039
-610,474	-32,438	0,083	-0,034
-609,459	-34,417	-0,095	0,039
-608,444	-200,000	-0,018	-0,170
-607,430	384,117	-0,098	-0,150
-606,415	-52,144	-0,108	-0,037
-605,401	416,514	0,062	-0,099
-604,386	-200,000	-0,007	0,033
-603,371	800,000	0,023	-0,057
-602,357	-11,574	0,107	0,052
-601,342	251,370	-0,171	0,216
-600,328	-122,226	-0,006	0,001
-599,313	-19,558	0,107	-0,049
-598,298	428,874	0,043	-0,070
-597,284	-200,000	0,009	0,091
-596,269	-200,000	-0,004	-0,072
-595,255	-200,000	0,001	-0,061
-594,240	300,552	-0,020	-0,027
-593,225	227,678	0,093	-0,112
-592,211	800,000	-0,063	0,147
-591,196	193,088	-0,047	0,052
-590,182	-76,509	0,017	-0,004
-589,167	33,400	0,083	0,053
-588,152	-121,435	-0,093	-0,011
-587,138	800,000	-0,034	-0,079
-586,123	-36,805	-0,234	-0,092
-585,109	-200,000	0,024	-0,137
-584,094	800,000	-0,026	-0,064
-583,079	-101,077	0,149	0,027
-582,065	642,700	0,043	-0,081
-581,050	448,760	0,061	-0,099
-580,036	-70,337	-0,098	-0,027
-579,021	-59,144	-0,153	-0,049
-578,006	60,713	0,065	0,047
-576,992	-200,000	0,022	0,080
-575,977	60,796	0,126	0,092
-574,963	-83,403	0,120	-0,028
-573,948	800,000	0,016	-0,035
-572,934	-66,285	-0,066	0,019
-571,919	-28,134	-0,044	-0,019
-570,904	-200,000	-0,002	0,082
-569,890	-200,000	0,020	0,088
-568,875	255,333	-0,044	0,056
-567,861	13,753	0,062	-0,036
-566,846	-200,000	0,008	0,065
-565,831	281,627	-0,064	-0,085
-564,817	-129,818	-0,150	0,015
-563,802	800,000	0,029	-0,063
-562,788	-96,935	0,059	-0,011
-561,773	735,809	-0,036	0,071
-560,758	220,929	-0,031	-0,037
-559,744	-29,150	0,058	-0,024
-558,729	253,936	-0,067	0,084
-557,715	102,428	-0,073	0,063
-556,700	-130,838	0,120	0,012
-555,685	589,203	0,062	-0,114
-554,671	-200,000	0,004	0,068
-553,656	3,968	0,042	-0,023
-552,642	-48,217	0,096	0,034
-551,627	24,293	-0,071	-0,043
-550,612	-89,437	-0,028	-0,006
-549,598	-29,405	-0,190	0,080
-548,583	246,288	-0,092	-0,115
-547,569	800,000	0,025	-0,080
-546,554	20,288	-0,111	-0,066
-545,539	-19,795	-0,129	-0,059
-544,525	800,000	0,077	0,167
-543,510	191,846	0,145	-0,162
-542,496	-200,000	0,010	0,054
-541,481	-97,685	0,079	-0,015
-540,466	-27,644	-0,078	0,033
-539,452	-41,910	-0,120	0,045
-538,437	-200,000	0,027	-0,117
-537,423	220,128	-0,038	0,045
-536,408	-200,000	0,015	-0,095
-535,393	-125,294	-0,057	0,006
-534,379	-22,370	-0,060	-0,027
-533,364	-200,000	-0,042	0,147
-532,350	29,089	0,088	0,055
-531,335	166,451	-0,040	0,042
-530,321	10,064	0,156	0,087
-529,306	334,559	0,059	0,085
-528,291	-200,000	-0,124	-0,000
-527,277	49,533	-0,045	-0,031
-526,262	-200,000	-0,014	0,081
-525,248	800,000	0,048	0,132
-524,233	-200,000	0,023	0,126
-523,218	117,597	0,023	0,021
-522,204	800,000	-0,012	-0,028
-521,189	-113,457	0,054	-0,008
-520,175	-54,533	-0,054	-0,018
-519,160	63,574	-0,085	-0,063
-518,145	-64,606	0,072	-0,021
-517,131	8,611	0,035	0,019
-516,116	52,637	0,103	0,072
-515,102	-39,183	-0,075	-0,029
-514,087	349,593	-0,022	-0,032
-513,072	-200,000	0,000	0,018
-512,058	-200,000	0,005	0,068
-511,043	116,488	-0,092	0,084
-510,029	-200,000	0,006	0,110
-509,014	298,158	0,099	0,135
-507,999	471,417	0,035	-0,058
-506,985	594,562	0,078	0,142
-505,970	-102,770	-0,132	-0,023
-504,956	-58,813	-0,018	0,006
-503,941	800,000	0,053	-0,162
-502,926	-200,000	0,012	-0,063
-501,912	-36,836	-0,067	0,026
-500,897	82,965	0,109	-0,087
-499,883	74,447	-0,098	-0,076
-498,868	-6,031	0,110	0,055
-497,853	-90,648	-0,065	0,014
-496,839	269,265	-0,039	-0,051
-495,824	-75,840	0,047	0,012
-494,810	-47,758	0,075	0,027
-493,795	-200,000	-0,003	0,028
-492,781	58,447	0,069	0,050
-491,766	388,570	0,064	-0,098
-490,751	-200,000	-0,008	0,026
-489,737	-164,795	-0,125	0,004
-488,722	-122,878	0,133	0,016
-487,708	9,968	-0,058	0,032
-486,693	-167,068	-0,026	0,001
-485,678	-112,326	-0,054	0,008
-484,664	-111,664	-0,120	-0,018
-483,649	-81,916	-0,050	0,012
-482,635	293,637	0,026	-0,036
-481,620	793,557	-0,038	0,077
-480,605	159,399	-0,092	-0,094
-479,591	-149,409	0,035	0,002
-478,576	139,574	-0,084	-0,082
-477,562	-79,410	-0,076	-0,019
-476,547	-41,154	-0,191	-0,072
-475,532	-51,259	0,100	0,034
-474,518	-146,500	0,135	-0,009
-473,503	-200,000	0,007	0,138
-472,489	-73,910	-0,074	0,020
-471,474	69,087	0,052	-0,039
-470,459	-200,000	0,045	-0,149
-469,445	-200,000	-0,036	-0,212
-468,430	800,000	-0,029	-0,092
-467,416	2,161	0,215	-0,114
-466,401	-8,394	0,072	-0,035
-465,386	-200,000	-0,018	-0,104
-464,372	-200,000	-0,013	-0,121
-463,357	8,276	-0,144	-0,079
-462,343	800,000	-0,051	-0,116
-461,328	47,847	-0,034	0,023
-460,313	800,000	-0,013	-0,033
-459,299	-90,558	0,039	0,008
-458,284	117,376	0,066	0,060
-457,270	22,707	-0,151	0,091
-456,255	-64,444	-0,022	-0,007
-455,241	-77,867	-0,085	0,021
-454,226	190,268	0,105	-0,116
-453,211	29,941	0,035	0,022
-452,197	582,692	0,058	0,105
-451,182	-130,667	0,177	-0,017
-450,168	800,000	0,014	0,031
-449,153	800,000	-0,017	-0,045
-448,138	41,429	-0,130	-0,086
-447,124	306,502	0,103	-0,141
-446,109	-74,513	0,096	-0,025
-445,095	516,001	0,038	0,065
-444,080	59,564	0,143	-0,103
-443,065	-58,752	0,109	-0,034
-442,051	-123,795	-0,166	-0,019
-441,036	-200,000	0,001	-0,023
-440,022	-144,480	-0,083	-0,006
-439,007	180,885	0,095	0,103
-437,992	-200,000	-0,024	0,088
-436,978	800,000	-0,055	0,114
-435,963	-200,000	-0,003	-0,017
-434,949	40,235	0,153	0,101
-433,934	-200,000	-0,005	0,137
-432,919	363,354	-0,047	-0,070
-431,905	-149,582	0,068	0,004
-430,890	-72,701	-0,177	-0,048
-429,876	95,772	0,123	0,103
-428,861	321,403	-0,050	0,070
-427,846	160,872	0,038	0,039
-426,832	61,453	-0,192	0,140
-425,817	-28,621	0,068	0,029
-424,803	200,008	0,069	-0,078
-423,788	-200,000	-0,004	0,014
-422,773	263,480	-0,080	0,102
-421,759	457,478	-0,056	-0,093
-420,744	148,069	0,023	0,023
-419,730	184,949	0,083	-0,091
-418,715	-7,540	-0,016	0,008
-417,701	-176,400	-0,192	0,004
-416,686	313,756	0,020	-0,028
-415,671	-140,299	0,146	0,011
-414,657	-200,000	-0,013	-0,043
-413,642	-178,539	0,086	0,001
-412,628	-97,046	-0,125	0,024
-411,613	311,488	-0,037	-0,051
-410,598	-93,970	0,060	-0,012
-409,584	374,318	0,022	0,033
-408,569	196,734	0,036	0,040
-407,555	800,000	0,021	0,062
-406,540	-200,000	-0,022	0,087
-405,525	42,831	0,038	0,026
-404,511	33,214	-0,142	0,091
-403,496	800,000	-0,019	0,045
-402,482	280,692	0,087	-0,115
-401,467	-200,000	-0,009	0,031
-400,452	800,000	-0,068	0,144
-399,438	156,402	-0,090	-0,091
-398,423	-12,589	0,096	0,046
-397,409	-200,000	-0,024	-0,118
-396,394	800,000	-0,038	-0,081
-395,379	-89,529	0,042	-0,009
-394,365	231,924	-0,026	-0,032
-393,350	800,000	0,019	-0,052
-392,336	482,051	0,026	-0,043
-391,321	-5,238	-0,010	0,005
-390,306	-200,000	0,004	0,051
-389,292	-200,000	0,007	0,023
-388,277	204,357	-0,041	-0,046
-387,263	-54,797	0,122	-0,040
-386,248	3,800	-0,110	0,059
-385,233	-25,912	0,125	-0,054
-384,219	-18,580	0,156	-0,071
-383,204	-126,210	-0,127	-0,014
-382,190	800,000	-0,027	-0,055
-381,175	122,224	-0,031	0,028
-380,160	-200,000	-0,006	-0,030
-379,146	-200,000	-0,017	-0,079
-378,131	800,000	0,014	0,035
-377,117	47,171	0,065	-0,045
-376,102	206,627	0,029	-0,033
-375,088	800,000	0,066	-0,165
-374,073	800,000	0,039	-0,120
-373,058	105,595	0,081	-0,070
-372,044	-64,444	-0,184	0,054
-371,029	-48,984	0,094	0,033
-370,015	-50,753	0,157	-0,054
-369,000	88,188	0,061	-0,050
-367,985	17,458	-0,003	0,002
-366,971	-200,000	0,022	0,185
-365,956	-74,122	0,075	-0,020
-364,942	-200,000	0,021	-0,132
-363,927	305,057	0,032	0,043
-362,912	-46,324	-0,067	0,024
-361,898	-15,775	-0,115	0,054
-360,883	-115,384	-0,168	0,023
-359,869	-200,000	-0,015	-0,056
-358,854	-200,000	0,019	-0,142
-357,839	15,893	-0,090	-0,052
-356,825	-46,813	0,083	0,030
-355,810	800,000	0,039	0,095
-354,796	-106,464	0,028	-0,005
-353,781	-200,000	-0,005	0,094
-352,766	639,367	-0,028	0,052
-351,752	250,089	-0,046	-0,058
-350,737	-200,000	-0,025	-0,127
-349,723	-200,000	0,031	-0,126
-348,708	-200,000	0,021	-0,092
-347,693	373,645	-0,019	-0,029
-346,679	619,648	-0,007	-0,013
-345,664	303,291	0,046	-0,062
-344,650	-181,997	0,113	0,002
-343,635	800,000	-0,062	0,152
-342,620	50,875	-0,113	0,079
-341,606	-200,000	0,017	-0,065
-340,591	28,922	-0,068	-0,042
-339,577	-114,016	0,043	0,006
-338,562	239,002	-0,119	0,145
-337,548	-200,000	0,033	-0,108
-336,533	-193,810	0,147	0,001
-335,518	9,908	0,178	0,099
-334,504	341,600	-0,066	0,095
-333,489	134,322	0,056	0,053
-332,475	800,000	-0,015	0,036
-331,460	45,402	0,166	-0,112
-330,445	-200,000	0,001	0,050
-329,431	760,074	-0,047	-0,093
-328,416	-122,024	-0,091	-0,011
-327,402	-7,862	-0,113	0,056
-326,387	88,931	-0,054	-0,044
-325,372	-123,069	-0,052	-0,006
-324,358	-101,043	0,062	-0,011
-323,343	-160,553	0,060	-0,002
-322,329	81,691	0,072	0,057
-321,314	66,265	-0,120	0,089
-320,299	-99,216	-0,079	0,014
-319,285	800,000	-0,032	-0,089
-318,270	-159,521	-0,146	0,006
-317,256	140,459	-0,034	-0,033
-316,241	-200,000	0,013	0,081
-315,226	-73,117	0,250	0,067
-314,212	12,427	0,107	-0,060
-313,197	-200,000	0,023	0,091
-312,183	800,000	0,012	0,031
-311,168	-200,000	0,037	-0,130
-310,153	589,388	0,028	-0,051
-309,139	172,609	0,091	-0,096
-308,124	13,956	0,028	-0,016
-307,110	4,774	-0,033	-0,018
-306,095	-200,000	0,011	0,087
-305,080	-123,718	-0,087	-0,010
-304,066	-47,673	0,024	0,008
-303,051	-71,328	-0,043	-0,012
-302,037	-200,000	0,044	-0,150
-301,022	-200,000	0,014	0,059
-300,008	-200,000	0,012	0,105
-298,993	-87,900	0,190	0,042
-297,978	-200,000	-0,016	0,145
-296,964	-105,557	0,072	-0,012
-295,949	182,554	-0,152	-0,165
-294,935	433,680	-0,044	0,071
-293,920	371,178	0,045	0,067
-292,905	-62,751	0,073	0,022
-291,891	23,246	0,063	-0,038
-290,876	57,045	-0,097	-0,069
-289,862	-124,658	-0,096	-0,011
-288,847	-200,000	-0,021	0,134
-287,832	-157,657	-0,026	0,001
-286,818	800,000	-0,038	-0,093
-285,803	192,939	0,067	0,074
-284,789	87,421	0,072	0,058
-283,774	-112,180	0,099	-0,014
-282,759	-200,000	0,020	0,123
-281,745	221,622	-0,062	-0,073
-280,730	120,811	-0,037	-0,034
-279,716	-200,000	-0,000	0,036
-278,701	197,369	-0,059	-0,066
-277,686	-116,738	0,066	-0,009
-276,672	-200,000	-0,007	-0,077
-275,657	111,365	-0,051	0,045
-274,643	574,817	0,072	0,130
-273,628	547,876	-0,006	-0,011
-272,613	-200,000	0,018	-0,067
-271,599	139,505	-0,065	0,063
-270,584	73,465	0,117	0,090
-269,570	800,000	-0,027	0,058
-268,555	-82,256	0,190	-0,045
-267,540	713,817	0,049	-0,096
-266,526	360,552	-0,081	-0,119
-265,511	-200,000	-0,052	0,186
-264,497	-23,704	0,075	0,033
-263,482	508,945	0,006	0,010
-262,467	72,143	0,031	-0,023
-261,453	192,478	-0,074	-0,081
-260,438	-101,034	0,115	-0,020
-259,424	736,827	-0,034	0,068
-258,409	490,589	0,046	-0,078
-257,395	-151,542	0,020	-0,001
-256,380	133,688	-0,080	-0,076
-255,365	-200,000	-0,014	0,097
-254,351	-53,095	0,065	-0,022
-253,336	-32,079	0,070	-0,029
-252,322	-28,323	-0,120	-0,051
-251,307	-42,292	-0,038	-0,014
-250,292	115,926	-0,042	-0,038
-249,278	-54,474	0,023	0,008
-248,263	800,000	0,032	0,080
-247,249	-74,782	0,066	0,017
-246,234	0,371	-0,117	-0,061
-245,219	-36,846	-0,201	-0,078
-244,205	-85,648	-0,033	-0,007
-243,190	412,874	0,010	-0,016
-242,176	800,000	-0,024	0,054
-241,161	731,661	-0,065	0,127
-240,146	-200,000	-0,004	0,114
-239,132	19,650	-0,057	-0,033
-238,117	800,000	0,029	-0,071
-237,103	728,341	0,028	-0,054
-236,088	-200,000	-0,031	0,101
-235,073	312,700	0,069	0,095
-234,059	275,069	0,024	-0,031
-233,044	-200,000	0,003	0,167
-232,030	60,972	0,111	-0,080
-231,015	610,792	0,063	-0,116
-230,000	800,000	-0,011	0,035
-228,986	235,938	0,053	0,064
-227,971	341,915	0,069	0,099
-226,957	-200,000	0,038	0,133
-225,942	-13,823	0,030	0,014
-224,927	37,103	0,082	0,053
-223,913	-93,421	0,019	-0,004
-222,898	800,000	-0,044	-0,098
-221,884	-200,000	-0,001	-0,088
-220,869	800,000	0,047	-0,132
-219,855	-200,000	0,010	0,147
-218,840	-200,000	0,012	0,095
-217,825	134,353	-0,057	-0,054
-216,811	-94,137	-0,050	-0,010
-215,796	-200,000	0,000	-0,025
-214,782	-200,000	0,001	0,045
-213,767	-76,265	-0,048	0,012
-212,752	729,783	0,062	0,121
-211,738	-85,738	0,095	-0,021
-210,723	36,925	-0,089	0,057
-209,709	290,768	-0,079	-0,105
-208,694	-147,684	0,113	0,007
-207,679	800,000	0,022	-0,066
-206,665	-99,516	0,106	-0,019
-205,650	-200,000	-0,123	-0,000
-204,636	495,924	0,030	0,051
-203,621	-200,000	0,026	0,097
-202,606	103,905	-0,046	0,040
-201,592	350,872	-0,082	-0,118
-200,577	-77,769	0,068	-0,017
-199,563	-46,021	-0,002	0,001
-198,548	-15,774	-0,050	0,023
-197,533	10,630	-0,030	-0,017
-196,519	-77,434	0,104	0,026
-195,504	226,745	0,103	0,122
-194,490	206,901	0,024	-0,027
-193,475	298,458	-0,107	-0,144
-192,460	12,577	-0,047	-0,026
-191,446	-89,918	0,102	0,022
-190,431	451,902	-0,069	0,111
-189,417	265,215	0,016	0,020
-188,402	30,922	-0,107	0,067
-187,387	-118,767	-0,164	-0,021
-186,373	166,209	0,078	-0,080
-185,358	-31,924	0,084	0,034
-184,344	800,000	-0,032	0,070
-183,329	-71,474	0,081	-0,022
-182,315	-200,000	-0,008	-0,095
-181,300	302,676	0,033	0,045
-180,285	175,365	-0,080	-0,085
-179,271	-166,286	0,063	0,002
-178,256	219,255	-0,008	0,009
-177,242	27,534	0,072	0,044
-176,227	575,776	0,017	0,030
-175,212	-200,000	0,007	0,083
-174,198	3,816	0,063	0,033
-173,183	31,834	0,043	-0,027
-172,169	-166,682	0,135	-0,004
-171,154	243,878	-0,074	0,090
-170,139	-200,000	0,002	0,111
-169,125	13,019	-0,029	0,016
-168,110	-32,395	0,106	-0,043
-167,096	-29,319	-0,103	0,043
-166,081	306,651	-0,053	0,073
-165,066	48,577	-0,154	0,105
-164,052	-200,000	0,021	-0,161
-163,037	800,000	-0,017	-0,035
-162,023	-200,000	-0,000	0,088
-161,008	182,027	0,061	0,066
-159,993	44,812	-0,040	0,027
-158,979	460,647	0,089	-0,145
-157,964	-47,241	-0,046	0,016
-156,950	800,000	0,069	0,140
-155,935	2,610	0,088	0,046
-154,920	91,885	-0,068	0,055
-153,906	505,639	-0,037	0,062
-152,891	-15,953	0,129	0,060
-151,877	22,097	0,062	0,037
-150,862	17,694	0,032	-0,018
-149,847	-87,352	-0,154	-0,034
-148,833	356,628	-0,060	0,088
-147,818	-90,346	0,032	-0,007
-146,804	800,000	0,001	0,004
-145,789	-44,686	0,116	0,042
-144,775	137,214	0,104	0,099
-143,760	176,754	0,001	-0,001
-142,745	-200,000	-0,026	-0,129
-141,731	70,484	0,015	0,011
-140,716	-200,000	0,000	0,107
-139,702	-115,570	0,037	-0,005
-138,687	-200,000	-0,001	-0,014
-137,672	102,867	0,084	-0,072
-136,658	27,102	-0,099	-0,060
-135,643	66,232	0,018	-0,013
-134,629	-132,197	0,105	-0,010
-133,614	-200,000	0,004	0,056
-132,599	142,819	0,138	0,134
-131,585	-200,000	-0,032	0,141
-130,570	293,044	0,128	-0,171
-129,556	-5,608	-0,039	0,020
-128,541	295,699	-0,074	-0,099
-127,526	31,431	-0,034	-0,021
-126,512	-127,339	-0,088	-0,009
-125,497	800,000	0,014	0,043
-124,483	224,791	-0,094	0,110
-123,468	469,062	-0,068	-0,112
-122,453	-180,972	-0,101	-0,001
-121,439	50,498	0,138	0,095
-120,424	475,465	-0,032	-0,052
-119,410	-117,791	0,136	0,018
-118,395	67,918	0,061	0,045
-117,380	6,635	0,068	-0,036
-116,366	-46,019	-0,098	0,035
-115,351	-200,000	0,012	-0,088
-114,337	-51,877	-0,070	-0,024
-113,322	-200,000	-0,002	0,009
-112,307	800,000	0,035	0,091
-111,293	382,183	0,091	0,137
-110,278	800,000	-0,034	0,069
-109,264	-81,151	0,183	-0,044
-108,249	-79,265	-0,120	-0,029
-107,234	60,231	-0,058	-0,041
-106,220	-200,000	0,007	0,058
-105,205	57,296	0,016	-0,011
-104,191	64,455	0,076	0,056
-103,176	800,000	-0,024	-0,061
-102,162	-35,580	0,069	0,027
-101,147	-200,000	-0,006	-0,064
-100,132	34,518	0,093	-0,059
-99,118	229,032	-0,064	-0,076
-98,103	-131,894	-0,043	0,004
-97,089	-144,319	-0,047	-0,003
-96,074	271,160	0,033	0,043
-95,059	800,000	-0,041	0,104
-94,045	30,893	-0,018	0,011
-93,030	-200,000	-0,003	0,019
-92,016	-25,892	0,127	-0,054
-91,001	-200,000	0,023	0,088
-89,986	-200,000	0,003	-0,016
-88,972	704,133	-0,007	0,014
-87,957	-23,392	0,142	0,062
-86,943	-200,000	0,033	0,130
-85,928	56,026	0,034	-0,024
-84,913	-154,647	-0,050	0,002
-83,899	446,441	-0,068	0,109
-82,884	637,730	0,080	0,148
-81,870	226,342	0,080	0,095
-80,855	557,168	-0,022	0,038
-79,840	-200,000	-0,045	0,188
-78,826	162,199	0,028	-0,028
-77,811	298,833	0,094	-0,126
-76,797	-200,000	0,006	0,123
-75,782	-200,000	0,010	0,037
-74,767	130,101	0,064	0,059
-73,753	55,734	0,105	0,073
-72,738	-165,051	-0,164	0,005
-71,724	65,353	0,071	0,052
-70,709	-166,508	-0,084	0,002
-69,694	43,027	-0,103	0,068
-68,680	56,420	-0,077	0,054
-67,665	-70,728	0,062	-0,017
-66,651	-200,000	0,031	-0,167
-65,636	-200,000	0,017	-0,117
-64,622	756,511	0,021	0,041
-63,607	76,986	-0,092	-0,071
-62,592	-93,608	-0,058	0,011
-61,578	337,582	0,018	-0,026
-60,563	5,259	0,176	0,094
-59,549	74,128	0,084	0,064
-58,534	-140,266	-1,339	-0,100
-57,519	595,196	-0,890	-1,604
-56,505	-200,000	-0,739	-4,506
-55,490	-111,299	0,696	-0,102
-54,476	800,000	4,772	11,538
-53,461	-200,000	13,853	251,214
-52,446	-200,000	689,140	2249,864
-51,432	592,732	1619,601	2911,565
-50,417	119,381	1631,726	1463,596
-49,403	74,369	1286,254	978,470
-48,388	38,237	1022,460	658,358
-47,373	24,318	980,557	585,725
-46,359	23,618	970,150	577,195
-45,344	22,587	965,766	571,207
-44,330	22,510	964,421	570,136
-43,315	22,414	962,979	568,951
-42,300	22,438	961,816	568,319
-41,286	22,454	960,925	567,820
-40,271	22,325	959,981	566,821
-39,257	22,336	959,057	566,290
-38,242	22,378	958,120	565,851
-37,227	22,336	957,354	565,238
-36,213	22,337	956,315	564,607
-35,198	22,298	955,601	564,037
-34,184	22,379	954,944	563,887
-33,169	22,320	954,034	563,137
-32,154	22,411	952,958	562,774
-31,140	22,445	952,169	562,393
-30,125	22,364	951,533	561,737
-29,111	22,456	950,587	561,452
-28,096	22,463	949,807	560,989
-27,082	22,347	949,119	560,191
-26,067	22,383	948,306	559,802
-25,052	22,434	947,721	559,599
-24,038	22,353	947,212	559,017
-23,023	22,444	946,341	558,773
-22,009	22,440	945,675	558,344
-20,994	22,477	945,106	558,103
-19,979	22,476	944,468	557,701
-18,965	22,427	943,970	557,228
-17,950	22,430	943,281	556,808
-16,936	22,324	942,524	556,002
-15,921	22,378	941,723	555,679
-14,906	22,320	941,132	555,125
-13,892	22,322	940,561	554,774
-12,877	22,286	939,888	554,240
-11,863	22,222	939,476	553,771
-10,848	22,246	938,816	553,436
-9,833	22,402	938,290	553,597
-8,819	22,307	937,823	553,000
-7,804	22,296	936,974	552,442
-6,790	22,251	936,515	552,009
-5,775	22,299	935,839	551,740
-4,760	22,316	935,298	551,452
-3,746	22,298	934,577	550,947
-2,731	22,163	933,820	550,055
-1,717	22,076	933,301	549,454
-0,702	22,073	932,584	549,000
0,313	21,893	931,974	548,905
1,327	24,331	929,665	555,142
2,342	31,938	807,481	502,738
3,356	27,136	507,791	307,958
4,371	3,373	372,390	195,760
5,386	0,268	355,125	182,879
6,400	-1,191	349,027	177,971
7,415	-2,069	346,191	175,463
8,429	-2,147	344,742	174,621
9,444	-2,146	343,648	174,053
10,459	-2,101	343,042	173,783
11,473	-2,056	342,436	173,514
12,488	-1,759	342,012	173,632
13,502	-1,778	341,493	173,332
14,517	-1,912	341,003	172,910
15,531	-2,045	340,340	172,403
16,546	-1,991	339,921	172,238
17,561	-2,186	339,531	171,798
18,575	-2,071	339,152	171,725
19,590	-2,175	338,650	171,333
20,604	-1,958	338,422	171,455
21,619	-2,131	338,012	171,032
22,634	-2,103	337,768	170,925
23,648	-2,046	337,294	170,737
24,663	-1,948	336,946	170,659
25,677	-2,081	336,725	170,378
26,692	-2,053	336,421	170,241
27,707	-2,048	336,140	170,089
28,721	-1,920	335,716	170,008
29,736	-2,090	335,501	169,688
30,750	-2,129	335,223	169,487
31,765	-2,214	334,997	169,260
32,780	-2,136	334,768	169,219
33,794	-2,129	334,377	169,014
34,809	-2,091	334,090	168,898
35,823	-2,105	333,631	168,634
36,838	-2,229	333,554	168,438
37,853	-2,126	333,176	168,350
38,867	-2,112	332,805	168,163
39,882	-2,257	332,681	167,920
40,896	-2,256	332,404	167,767
41,911	-2,277	332,003	167,526
42,926	-2,161	331,753	167,516
43,940	-2,297	331,539	167,238
44,955	-2,255	331,241	167,121
45,969	-2,266	330,980	166,962
46,984	-2,376	330,731	166,697
47,999	-2,592	330,368	166,254
49,013	-2,535	330,009	166,123
50,028	-2,718	329,749	165,770
51,042	-2,956	329,532	165,377
52,057	-2,852	329,290	165,359
53,071	-2,660	328,977	165,403
54,086	-2,935	328,832	165,006
55,101	-2,567	328,481	165,230
56,115	-2,466	328,515	165,346
57,130	-2,112	328,376	165,660
58,144	-1,947	327,949	165,614
59,159	-1,940	327,883	165,575
60,174	-1,864	327,491	165,447
61,188	-1,934	327,218	165,216
62,203	-2,049	327,065	164,995
63,217	-2,020	326,943	164,951
64,232	-2,018	326,527	164,728
65,247	-1,889	326,234	164,710
66,261	-1,992	325,910	164,418
67,276	-2,291	325,670	163,948
68,290	-2,295	325,403	163,794
69,305	-2,414	325,220	163,555
70,320	-2,421	324,890	163,367
71,334	-2,261	324,691	163,430
72,349	-1,957	324,636	163,725
73,363	-1,959	324,205	163,491
74,378	-2,052	323,882	163,211
75,393	-2,085	323,803	163,120
76,407	-2,102	323,572	162,970
77,422	-2,012	323,162	162,849
78,436	-1,958	322,850	162,737
79,451	-2,004	322,753	162,623
80,466	-2,164	322,367	162,238
81,480	-2,169	321,986	162,026
82,495	-2,345	321,926	161,787
83,509	-2,207	321,714	161,818
84,524	-2,289	321,392	161,551
85,539	-2,426	321,067	161,223
86,553	-2,421	320,908	161,134
87,568	-2,472	320,706	160,962
88,582	-2,310	320,361	160,952
89,597	-2,332	320,186	160,826
90,611	-2,228	320,098	160,882
91,626	-2,314	320,065	160,756
92,641	-1,892	319,558	160,948
93,655	-2,251	319,434	160,479
94,670	-2,182	319,043	160,344
95,684	-2,293	318,901	160,137
96,699	-2,232	318,599	160,038
97,714	-2,229	318,465	159,960
98,728	-2,440	318,062	159,513
99,743	-2,535	317,959	159,345
100,757	-2,420	317,650	159,300
101,772	-2,333	317,373	159,242
102,787	-2,261	317,247	159,243
103,801	-2,202	316,959	159,147
104,816	-2,279	316,841	158,990
105,830	-2,260	316,734	158,943
106,845	-2,128	316,466	158,937
107,860	-2,197	316,291	158,760
108,874	-2,196	315,931	158,566
109,889	-2,194	315,788	158,483
110,903	-2,156	315,618	158,425
111,918	-2,271	315,223	158,088
112,933	-2,346	315,103	157,933
113,947	-2,075	314,772	158,045
114,962	-2,217	314,694	157,839
115,976	-2,078	314,388	157,821
116,991	-2,081	314,059	157,638
118,006	-2,159	314,031	157,527
119,020	-2,105	313,788	157,447
120,035	-2,139	313,738	157,372
121,049	-1,870	313,333	157,443
122,064	-1,922	313,218	157,315
123,079	-2,202	312,836	156,810
124,093	-2,116	312,502	156,721
125,108	-2,364	312,404	156,394
126,122	-2,379	312,011	156,168
127,137	-2,541	311,790	155,871
128,151	-2,552	311,815	155,857
129,166	-2,297	311,432	155,923
130,181	-2,402	311,386	155,775
131,195	-2,429	310,953	155,516
132,210	-2,257	310,702	155,558
133,224	-2,197	310,580	155,546
134,239	-2,241	310,434	155,413
135,254	-2,178	310,158	155,327
136,268	-2,328	309,859	155,006
137,283	-2,390	309,440	154,717
138,297	-2,690	309,343	154,338
139,312	-2,506	309,117	154,406
140,327	-2,228	309,056	154,654
141,341	-1,937	309,040	154,938
142,356	-1,784	308,828	154,979
143,370	-1,791	308,568	154,827
144,385	-1,792	308,309	154,682
145,400	-1,927	308,118	154,431
146,414	-1,917	307,883	154,309
147,429	-1,991	307,776	154,165
148,443	-1,661	307,408	154,313
149,458	-1,764	307,244	154,109
150,473	-1,955	307,230	153,888
151,487	-1,759	306,725	153,826
152,502	-1,845	306,720	153,720
153,516	-1,880	306,519	153,570
154,531	-1,840	306,124	153,399
155,546	-1,825	305,919	153,298
156,560	-1,890	305,624	153,069
157,575	-2,013	305,464	152,847
158,589	-1,926	305,347	152,866
159,604	-1,894	304,927	152,675
160,619	-1,878	304,846	152,638
161,633	-1,992	304,703	152,434
162,648	-1,897	304,544	152,440
163,662	-1,948	304,419	152,311
164,677	-1,960	304,113	152,131
165,692	-2,009	303,963	151,993
166,706	-1,770	303,721	152,105
167,721	-1,915	303,460	151,811
168,735	-1,852	303,309	151,786
169,750	-1,721	303,113	151,810
170,764	-1,791	303,097	151,716
171,779	-1,841	302,806	151,506
172,794	-1,738	302,535	151,462
173,808	-1,738	302,281	151,322
174,823	-2,259	301,914	150,591
175,837	-2,517	301,787	150,250
176,852	-1,949	301,662	150,755
177,867	-1,950	301,582	150,701
178,881	-1,704	301,272	150,784
179,896	-1,605	301,201	150,836
180,910	-1,748	301,019	150,585
181,925	-1,744	300,886	150,510
182,940	-1,781	300,648	150,340
183,954	-1,753	300,291	150,176
184,969	-1,955	300,231	149,926
185,983	-1,710	299,944	150,020
186,998	-1,726	299,812	149,924
188,013	-1,796	299,667	149,766
189,027	-1,694	299,278	149,662
190,042	-1,666	299,223	149,650
191,056	-1,547	299,020	149,656
192,071	-1,727	298,938	149,419
193,086	-1,640	298,689	149,369
194,100	-1,532	298,432	149,336
195,115	-1,685	298,139	149,023
196,129	-1,561	297,855	148,992
197,144	-1,732	297,693	148,725
198,159	-1,729	297,485	148,611
199,173	-1,811	297,419	148,483
200,188	-1,553	297,138	148,588
201,202	-1,867	296,986	148,183
202,217	-2,349	296,592	147,489
203,232	-2,316	296,231	147,330
204,246	-1,938	296,182	147,671
205,261	-1,708	296,051	147,823
206,275	-1,550	295,958	147,922
207,290	-1,668	295,637	147,630
208,304	-1,696	295,699	147,621
209,319	-1,621	295,171	147,418
210,334	-1,658	295,135	147,350
211,348	-1,804	294,885	147,066
212,363	-1,642	294,692	147,119
213,377	-1,647	294,624	147,066
214,392	-1,752	294,367	146,821
215,407	-1,978	294,230	146,514
216,421	-2,110	293,893	146,203
217,436	-1,937	293,645	146,237
218,450	-1,965	293,567	146,158
219,465	-1,876	293,234	146,068
220,480	-1,622	293,168	146,273
221,494	-1,719	293,002	146,081
222,509	-1,948	292,872	145,777
223,523	-1,779	292,629	145,809
224,538	-1,793	292,452	145,695
225,553	-1,715	292,304	145,685
226,567	-1,626	292,125	145,670
227,582	-1,732	292,026	145,504
228,596	-1,692	291,881	145,459
229,611	-1,597	291,704	145,450
230,626	-1,809	291,304	145,030
231,640	-1,991	291,043	144,708
232,655	-2,324	290,728	144,212
233,669	-2,360	290,434	144,018
234,684	-2,467	290,363	143,865
235,699	-2,402	290,142	143,806
236,713	-2,239	290,040	143,902
237,728	-2,042	289,875	144,000
238,742	-2,066	289,725	143,889
239,757	-1,774	289,524	144,062
240,772	-1,762	289,392	143,995
241,786	-1,940	289,236	143,731
242,801	-1,959	288,986	143,576
243,815	-1,978	288,801	143,453
244,830	-1,931	288,659	143,414
245,844	-2,114	288,270	143,030
246,859	-2,233	288,318	142,926
247,874	-2,042	287,967	142,925
248,888	-2,041	287,790	142,825
249,903	-1,867	287,825	142,998
250,917	-1,757	287,570	142,966
251,932	-1,395	287,556	143,297
252,947	-1,015	287,582	143,665
253,961	-1,121	287,318	143,417
254,976	-0,042	287,659	144,619
255,990	2,187	288,305	147,092
257,005	2,906	288,414	147,831
258,020	3,725	288,816	148,817
259,034	4,182	288,621	149,146
260,049	4,292	288,303	149,075
261,063	3,755	288,349	148,566
262,078	4,004	288,157	148,695
263,093	4,727	288,083	149,342
264,107	4,769	287,838	149,241
265,122	4,765	287,736	149,171
266,136	4,823	287,671	149,181
267,151	4,868	287,288	149,012
268,166	4,600	287,200	148,696
269,180	4,730	286,794	148,597
270,195	4,590	286,873	148,490
271,209	4,651	286,506	148,345
272,224	4,616	286,405	148,246
273,239	4,592	286,176	148,091
274,253	4,552	285,987	147,942
275,268	4,961	285,872	148,261
276,282	4,779	285,836	148,055
277,297	4,720	285,464	147,792
278,312	4,987	285,377	147,989
279,326	4,975	285,129	147,836
280,341	4,633	285,194	147,530
281,355	4,519	284,802	147,206
282,370	4,419	284,637	147,011
283,384	4,588	284,346	147,009
284,399	4,507	284,222	146,855
285,414	4,444	284,189	146,765
286,428	4,497	283,687	146,543
287,443	4,245	283,459	146,173
288,457	4,092	283,323	145,944
289,472	4,256	283,067	145,955
290,487	4,150	282,945	145,778
291,501	4,253	282,618	145,695
292,516	4,003	282,405	145,336
293,530	3,838	282,468	145,200
294,545	4,112	282,433	145,427
295,560	4,524	282,042	145,602
296,574	4,196	281,908	145,210
297,589	4,329	281,840	145,287
298,603	4,643	281,602	145,447
299,618	4,830	281,536	145,576
300,633	4,659	281,310	145,286
301,647	4,371	281,094	144,891
302,662	4,380	280,983	144,829
303,676	4,380	280,639	144,639
304,691	4,119	280,360	144,238
305,706	4,023	280,096	143,999
306,720	3,976	280,034	143,911
307,735	4,061	279,809	143,861
308,749	4,105	279,827	143,899
309,764	4,239	279,462	143,824
310,779	3,926	279,291	143,430
311,793	3,861	279,076	143,247
312,808	3,934	278,925	143,225
313,822	4,092	278,704	143,246
314,837	3,800	278,552	142,884
315,852	3,866	278,336	142,821
316,866	3,887	278,259	142,789
317,881	4,075	278,052	142,843
318,895	4,079	277,814	142,713
319,910	3,814	277,460	142,273
320,925	3,620	277,417	142,058
321,939	3,760	277,390	142,161
322,954	4,133	277,090	142,339
323,968	4,225	277,086	142,409
324,983	4,394	276,865	142,440
325,997	4,133	276,801	142,153
327,012	4,162	276,591	142,059
328,027	4,293	276,334	142,036
329,041	4,274	276,138	141,904
330,056	4,197	276,123	141,813
331,070	4,163	275,815	141,611
332,085	3,910	275,710	141,312
333,100	4,158	275,494	141,417
334,114	4,150	275,184	141,237
335,129	4,069	275,027	141,070
336,143	4,086	275,130	141,125
337,158	4,281	274,864	141,155
338,173	4,123	274,755	140,942
339,187	3,974	274,521	140,674
340,202	4,182	274,284	140,729
341,216	4,314	274,141	140,764
342,231	4,267	274,055	140,665
343,246	4,095	273,780	140,354
344,260	4,169	273,568	140,299
345,275	4,467	273,431	140,488
346,289	4,459	273,478	140,492
347,304	4,587	273,057	140,381
348,319	4,266	272,928	140,010
349,333	4,149	272,720	139,785
350,348	4,508	272,740	140,108
351,362	4,397	272,636	139,941
352,377	4,356	272,248	139,693
353,392	4,523	272,076	139,743
354,406	4,491	272,035	139,680
355,421	192,811	1331,951	1414,309
356,435	155,805	1461,177	1414,431
