DTS Sentinel unit serial number:	SN410029Multiplexer serial number:	ORYXHardware model number:	OX2-SRSoftware version number:	ORYX F/W v4,00 Oryx Data Collector v3.7.2.0data status	okinstallation	B4 Nyhavnadifferential loss correction	single-endedforward channel	channel 2reverse channel	N/Adate	2023/12/18time	19:05:13forward acquisition time	300,00reverse acquisition time	0,00gamma	499,1914k internal	0,3123k external	0,3123temperature offset calibration	1,0000default loss term (dB/km)	0,3820temperature slope calibration	1,0000multiplexer offset coefficient	1,0000multiplexer slope coefficient	1,0000fibre end	0,00T internal ref (°C)	21,88T ext. ref 1 (°C)	6,95T ext. ref 2 (°C)	6,95length (m)	temperature (°C)	Stokes	anti-Stokes-744,400	505,844	0,064	-0,111
-743,385	96,439	-0,187	0,159
-742,371	-182,840	0,072	0,001
-741,356	74,041	-0,211	0,165
-740,342	378,147	0,055	-0,084
-739,327	141,943	-0,210	0,208
-738,312	40,124	-0,019	0,013
-737,298	87,562	-0,179	0,148
-736,283	288,386	0,082	-0,111
-735,269	70,254	-0,168	0,129
-734,254	-109,532	0,029	0,005
-733,239	-62,468	-0,455	-0,140
-732,225	-89,638	0,217	-0,047
-731,210	-200,000	0,001	0,122
-730,196	88,797	-0,069	-0,057
-729,181	-200,000	-0,038	-0,251
-728,167	665,552	-0,027	-0,052
-727,152	158,506	-0,012	0,012
-726,137	800,000	-0,051	-0,110
-725,123	-14,195	-0,078	-0,037
-724,108	800,000	-0,019	0,043
-723,094	485,346	-0,070	-0,119
-722,079	46,492	-0,201	-0,139
-721,064	80,686	-0,163	-0,131
-720,050	-35,760	0,037	0,015
-719,035	-200,000	0,001	-0,128
-718,021	258,567	0,022	0,028
-717,006	74,065	-0,098	0,076
-715,991	800,000	-0,087	-0,198
-714,977	36,104	-0,130	-0,085
-713,962	-56,122	0,154	-0,051
-712,948	488,285	0,030	-0,051
-711,933	-98,695	-0,118	-0,022
-710,918	-149,994	0,076	0,004
-709,904	-200,000	-0,012	-0,206
-708,889	800,000	-0,058	-0,142
-707,875	-200,000	0,030	-0,142
-706,860	800,000	0,084	-0,181
-705,845	-200,000	-0,080	0,000
-704,831	800,000	0,068	0,185
-703,816	356,321	0,022	-0,033
-702,802	-200,000	0,012	-0,059
-701,787	-75,719	-0,096	-0,025
-700,772	800,000	-0,027	0,072
-699,758	-200,000	-0,013	-0,060
-698,743	-60,355	-0,093	0,029
-697,729	292,872	0,046	-0,062
-696,714	-42,712	-0,126	0,048
-695,699	322,095	-0,028	-0,040
-694,685	-15,450	-0,125	0,059
-693,670	276,931	0,023	-0,031
-692,656	322,327	-0,069	-0,098
-691,641	-75,935	-0,105	-0,027
-690,627	-200,000	-0,000	0,022
-689,612	18,882	0,075	0,044
-688,597	-20,270	-0,071	-0,033
-687,583	-93,514	-0,138	-0,028
-686,568	-200,000	0,037	0,127
-685,554	-200,000	-0,028	0,106
-684,539	36,589	0,109	-0,072
-683,524	-116,355	0,102	-0,014
-682,510	-111,034	0,113	0,017
-681,495	-9,202	0,042	0,021
-680,481	-54,703	-0,081	0,027
-679,466	-74,393	-0,115	0,031
-678,451	88,250	-0,037	-0,031
-677,437	4,951	-0,111	-0,061
-676,422	152,014	0,053	-0,054
-675,408	343,102	-0,024	-0,035
-674,393	-200,000	0,001	0,013
-673,378	800,000	0,021	0,062
-672,364	-57,491	-0,033	0,011
-671,349	60,838	-0,106	-0,078
-670,335	-200,000	0,014	-0,071
-669,320	800,000	0,029	-0,066
-668,305	-164,366	0,117	-0,004
-667,291	-200,000	-0,002	0,042
-666,276	-200,000	-0,009	0,039
-665,262	204,050	0,036	-0,042
-664,247	687,764	-0,065	-0,128
-663,232	9,783	-0,069	0,039
-662,218	453,122	0,029	0,048
-661,203	-200,000	-0,013	0,052
-660,189	-120,914	0,068	0,008
-659,174	392,535	-0,088	-0,137
-658,159	-184,620	-0,102	-0,001
-657,145	-200,000	0,020	0,121
-656,130	-53,211	-0,055	0,019
-655,116	145,180	-0,046	0,046
-654,101	213,967	-0,021	-0,025
-653,086	-71,026	0,021	0,006
-652,072	74,594	-0,046	-0,036
-651,057	-126,715	0,021	0,002
-650,043	-200,000	-0,011	-0,070
-649,028	-5,109	-0,056	-0,028
-648,014	352,140	0,030	-0,044
-646,999	30,245	0,036	-0,023
-645,984	43,720	-0,050	0,034
-644,970	-14,765	-0,117	-0,056
-643,955	145,323	0,075	-0,074
-642,941	546,087	-0,061	-0,110
-641,926	-200,000	0,013	0,066
-640,911	16,985	-0,022	-0,013
-639,897	-200,000	-0,003	-0,135
-638,882	-72,605	-0,070	0,019
-637,868	-10,404	0,076	-0,037
-636,853	57,718	0,071	-0,051
-635,838	540,468	0,063	0,111
-634,824	-200,000	-0,000	-0,026
-633,809	10,360	0,094	0,053
-632,795	-200,000	0,022	0,092
-631,780	60,272	0,047	-0,035
-630,765	371,865	-0,045	-0,069
-629,751	-200,000	-0,009	-0,119
-628,736	800,000	-0,024	-0,051
-627,722	90,553	-0,159	-0,132
-626,707	79,077	-0,021	-0,017
-625,692	209,746	-0,030	0,035
-624,678	-30,115	-0,062	-0,026
-623,663	800,000	0,003	0,008
-622,649	-200,000	-0,018	0,077
-621,634	-35,244	-0,041	0,016
-620,619	800,000	-0,040	0,114
-619,605	-77,166	0,120	0,031
-618,590	530,692	-0,020	0,036
-617,576	386,086	0,058	0,089
-616,561	800,000	-0,025	0,078
-615,546	102,310	0,040	0,035
-614,532	55,011	-0,055	-0,039
-613,517	207,067	-0,043	-0,050
-612,503	302,534	-0,034	-0,046
-611,488	-64,832	-0,105	0,031
-610,474	-7,380	-0,046	0,023
-609,459	800,000	0,028	0,082
-608,444	107,250	0,075	-0,066
-607,430	-162,436	-0,039	0,001
-606,415	-200,000	-0,017	-0,139
-605,401	581,326	-0,051	-0,094
-604,386	-4,191	0,188	0,096
-603,371	800,000	-0,018	-0,050
-602,357	800,000	-0,005	-0,011
-601,342	-200,000	0,032	-0,136
-600,328	800,000	-0,022	-0,053
-599,313	18,414	-0,046	0,027
-598,298	289,229	-0,042	0,056
-597,284	88,131	-0,104	0,085
-596,269	762,498	0,087	0,176
-595,255	-200,000	0,029	-0,158
-594,240	800,000	-0,064	-0,191
-593,225	128,925	0,053	-0,050
-592,211	-200,000	-0,005	-0,039
-591,196	148,972	-0,035	-0,036
-590,182	6,958	0,056	0,031
-589,167	-46,451	-0,069	0,025
-588,152	-200,000	0,023	0,134
-587,138	-200,000	-0,006	0,077
-586,123	40,931	-0,169	-0,113
-585,109	-104,655	0,026	-0,004
-584,094	238,053	-0,036	0,045
-583,079	-65,647	-0,087	0,026
-582,065	800,000	0,052	0,149
-581,050	800,000	0,052	0,120
-580,036	-162,264	-0,084	-0,003
-579,021	-84,695	-0,113	-0,026
-578,006	-200,000	-0,025	-0,125
-576,992	-37,575	0,045	0,018
-575,977	136,200	-0,129	-0,124
-574,963	-200,000	0,149	0,000
-573,948	-200,000	0,021	0,138
-572,934	-131,579	-0,095	0,009
-571,919	-200,000	0,009	0,051
-570,904	-141,061	-0,062	0,005
-569,890	-182,985	0,120	-0,002
-568,875	-200,000	-0,009	-0,093
-567,861	-200,000	0,020	-0,081
-566,846	425,242	0,035	0,056
-565,831	-54,882	-0,128	0,043
-564,817	184,952	0,039	0,043
-563,802	-95,892	-0,071	-0,014
-562,788	-147,312	0,061	0,004
-561,773	-67,608	0,052	0,015
-560,758	800,000	0,029	0,081
-559,744	-200,000	-0,008	-0,064
-558,729	-177,492	-0,086	-0,002
-557,715	368,200	-0,087	-0,131
-556,700	-69,946	0,064	-0,018
-555,685	-84,020	-0,063	0,015
-554,671	99,981	0,026	-0,022
-553,656	-200,000	-0,001	-0,074
-552,642	800,000	0,040	0,117
-551,627	-200,000	-0,021	0,110
-550,612	530,473	-0,069	-0,121
-549,598	-116,412	-0,102	-0,014
-548,583	160,474	-0,082	-0,084
-547,569	-62,400	-0,065	-0,020
-546,554	-91,343	-0,065	-0,014
-545,539	208,843	0,087	0,101
-544,525	23,451	0,045	0,027
-543,510	-200,000	0,002	-0,025
-542,496	310,443	0,048	0,067
-541,481	51,545	0,071	-0,049
-540,466	-200,000	0,011	-0,060
-539,452	-67,901	-0,095	0,027
-538,437	-109,848	0,041	0,006
-537,423	342,033	0,029	-0,041
-536,408	-200,000	0,002	-0,080
-535,393	60,072	-0,161	-0,117
-534,379	800,000	0,007	-0,022
-533,364	81,243	-0,110	-0,088
-532,350	61,297	-0,059	0,044
-531,335	800,000	-0,010	0,030
-530,321	-19,929	0,119	0,054
-529,306	-108,595	-0,153	-0,024
-528,291	420,397	-0,034	0,054
-527,277	-200,000	0,033	-0,200
-526,262	800,000	-0,049	-0,158
-525,248	800,000	0,021	-0,050
-524,233	800,000	0,034	-0,111
-523,218	-200,000	-0,019	0,064
-522,204	321,632	0,094	0,132
-521,189	57,546	-0,018	-0,013
-520,175	0,310	-0,086	-0,045
-519,160	162,253	0,036	-0,038
-518,145	265,475	0,054	-0,070
-517,131	159,425	0,096	0,099
-516,116	472,113	0,094	0,158
-515,102	-28,596	0,022	0,009
-514,087	-200,000	-0,018	0,059
-513,072	557,513	-0,012	0,022
-512,058	193,489	0,023	0,025
-511,043	-195,747	-0,078	0,000
-510,029	-200,000	-0,021	0,104
-509,014	-84,562	-0,066	-0,015
-507,999	800,000	-0,019	-0,054
-506,985	-200,000	-0,008	0,099
-505,970	73,748	-0,029	-0,022
-504,956	-200,000	0,027	-0,090
-503,941	-200,000	0,008	-0,055
-502,926	-80,071	0,100	-0,025
-501,912	-76,713	0,045	-0,012
-500,897	334,077	-0,074	0,106
-499,883	-200,000	-0,019	-0,138
-498,868	-200,000	0,011	-0,043
-497,853	-200,000	-0,022	-0,076
-496,839	-200,000	-0,001	0,158
-495,824	-56,145	0,027	0,009
-494,810	-16,074	0,187	0,088
-493,795	-73,775	-0,043	-0,011
-492,781	-200,000	-0,004	0,037
-491,766	-200,000	-0,022	-0,125
-490,751	800,000	0,035	0,090
-489,737	-200,000	-0,003	0,056
-488,722	19,400	0,118	0,070
-487,708	283,789	0,085	0,113
-486,693	-200,000	0,011	-0,114
-485,678	-200,000	-0,010	0,128
-484,664	-115,342	0,052	0,007
-483,649	68,578	-0,097	-0,074
-482,635	517,181	-0,028	0,048
-481,620	800,000	0,019	0,046
-480,605	-143,829	-0,019	-0,001
-479,591	171,213	-0,062	-0,065
-478,576	-200,000	-0,016	0,070
-477,562	-97,369	-0,161	-0,031
-476,547	-200,000	-0,042	-0,169
-475,532	-8,828	0,020	-0,010
-474,518	-50,859	0,054	0,019
-473,503	800,000	-0,030	-0,071
-472,489	322,269	-0,033	0,046
-471,474	769,389	-0,005	-0,009
-470,459	66,403	0,034	-0,026
-469,445	-200,000	0,019	-0,153
-468,430	18,731	0,102	0,060
-467,416	-11,069	-0,095	-0,046
-466,401	109,722	0,122	-0,107
-465,386	-121,683	-0,081	0,010
-464,372	-200,000	0,005	0,098
-463,357	-76,191	-0,090	-0,023
-462,343	-27,547	-0,052	-0,022
-461,328	-200,000	0,003	0,056
-460,313	-200,000	-0,041	-0,149
-459,299	-200,000	-0,012	0,074
-458,284	-200,000	0,013	-0,091
-457,270	-111,148	-0,134	0,020
-456,255	-95,794	-0,103	-0,020
-455,241	40,250	0,021	0,014
-454,226	145,505	0,050	-0,049
-453,211	156,957	-0,055	-0,056
-452,197	144,684	-0,032	0,031
-451,182	-200,000	-0,011	-0,116
-450,168	82,088	0,076	-0,061
-449,153	287,512	0,054	0,072
-448,138	300,503	-0,098	0,133
-447,124	669,228	0,067	-0,129
-446,109	-200,000	-0,007	0,075
-445,095	227,772	-0,033	-0,040
-444,080	-200,000	0,006	-0,120
-443,065	101,741	-0,083	0,071
-442,051	381,213	-0,120	0,182
-441,036	800,000	0,060	-0,180
-440,022	53,029	-0,138	-0,097
-439,007	41,662	-0,029	0,019
-437,992	-200,000	0,000	-0,027
-436,978	19,252	-0,082	0,048
-435,963	-64,045	-0,091	-0,027
-434,949	-12,769	0,059	-0,028
-433,934	800,000	-0,035	0,084
-432,919	250,447	0,013	0,016
-431,905	-76,912	-0,070	-0,018
-430,890	-200,000	0,018	-0,072
-429,876	-200,000	0,011	0,068
-428,861	467,167	0,058	0,096
-427,846	-11,266	0,069	0,034
-426,832	800,000	-0,075	-0,241
-425,817	800,000	-0,010	-0,025
-424,803	-53,398	-0,019	-0,006
-423,788	239,705	0,078	-0,096
-422,773	-200,000	-0,008	-0,027
-421,759	73,700	0,091	0,070
-420,744	-17,844	0,044	-0,020
-419,730	-120,372	-0,027	0,003
-418,715	-147,906	-0,086	0,005
-417,701	32,617	-0,053	-0,033
-416,686	45,775	0,058	0,039
-415,671	246,427	0,016	0,020
-414,657	310,383	0,092	0,127
-413,642	580,300	0,008	-0,014
-412,628	800,000	-0,035	-0,083
-411,613	538,189	0,047	-0,082
-410,598	-200,000	-0,005	-0,055
-409,584	84,803	-0,069	-0,055
-408,569	145,037	0,048	0,048
-407,555	-39,142	0,125	0,048
-406,540	-141,380	0,094	0,007
-405,525	-133,925	0,138	0,012
-404,511	-53,918	-0,088	0,029
-403,496	98,801	-0,037	0,031
-402,482	265,777	-0,078	0,100
-401,467	-200,000	0,016	0,065
-400,452	-48,504	-0,102	-0,036
-399,438	80,677	0,026	0,020
-398,423	70,327	-0,038	-0,029
-397,409	800,000	-0,021	0,067
-396,394	103,360	-0,043	-0,037
-395,379	245,045	-0,018	0,022
-394,365	800,000	0,053	0,128
-393,350	7,076	0,064	-0,035
-392,336	135,647	0,040	0,039
-391,321	-125,797	0,087	-0,010
-390,306	-200,000	0,002	0,116
-389,292	-200,000	-0,026	-0,120
-388,277	800,000	-0,039	-0,089
-387,263	283,027	-0,046	-0,060
-386,248	-200,000	0,019	0,068
-385,233	-91,700	-0,216	-0,045
-384,219	800,000	-0,042	-0,094
-383,204	42,808	-0,036	-0,024
-382,190	800,000	0,039	-0,089
-381,175	-54,566	0,173	0,057
-380,160	82,975	-0,077	-0,061
-379,146	472,494	0,077	0,128
-378,131	-25,675	-0,050	-0,021
-377,117	62,697	-0,080	-0,059
-376,102	-142,985	0,103	-0,007
-375,088	-60,915	0,022	-0,007
-374,073	800,000	-0,016	-0,049
-373,058	-200,000	-0,014	0,140
-372,044	67,866	0,076	0,057
-371,029	22,949	0,059	0,035
-370,015	-200,000	0,017	-0,058
-369,000	-200,000	-0,040	-0,190
-367,985	13,956	-0,086	0,049
-366,971	-0,155	0,101	0,053
-365,956	-200,000	-0,006	0,029
-364,942	198,505	0,022	-0,025
-363,927	800,000	0,015	-0,048
-362,912	-200,000	-0,004	0,069
-361,898	-77,056	0,050	0,013
-360,883	800,000	0,006	-0,017
-359,869	-114,246	0,041	0,006
-358,854	-152,731	0,041	0,002
-357,839	800,000	-0,035	-0,085
-356,825	762,110	-0,015	-0,030
-355,810	-33,002	-0,066	-0,027
-354,796	-142,304	0,117	0,008
-353,781	-200,000	-0,007	-0,076
-352,766	800,000	0,038	0,101
-351,752	72,372	-0,079	-0,060
-350,737	61,789	0,110	-0,080
-349,723	263,944	0,084	0,107
-348,708	-132,108	-0,077	0,007
-347,693	800,000	0,030	-0,083
-346,679	-200,000	0,008	-0,067
-345,664	-71,611	-0,035	-0,010
-344,650	-96,013	0,085	-0,016
-343,635	24,384	0,182	0,110
-342,620	33,579	0,048	-0,030
-341,606	703,720	0,055	-0,107
-340,591	-8,461	0,097	-0,048
-339,577	76,358	-0,079	-0,061
-338,562	-200,000	0,001	-0,021
-337,548	-35,603	0,122	0,048
-336,533	37,086	0,126	0,081
-335,518	-9,546	-0,104	-0,051
-334,504	-200,000	0,000	0,063
-333,489	-13,855	0,244	0,115
-332,475	-128,168	0,018	-0,002
-331,460	-200,000	0,040	0,155
-330,445	627,130	-0,014	-0,026
-329,431	-69,569	-0,072	-0,020
-328,416	-34,756	0,130	0,052
-327,402	-101,814	-0,058	0,010
-326,387	-76,074	-0,098	-0,025
-325,372	-200,000	-0,001	-0,109
-324,358	-170,551	-0,029	0,001
-323,343	-200,000	-0,017	0,114
-322,329	677,030	-0,057	0,110
-321,314	-6,753	0,072	0,036
-320,299	176,821	0,078	0,083
-319,285	721,808	-0,052	0,102
-318,270	66,820	-0,072	-0,053
-317,256	202,639	0,086	-0,097
-316,241	-116,811	0,086	-0,011
-315,226	800,000	-0,029	-0,088
-314,212	33,495	-0,036	0,023
-313,197	-200,000	0,035	0,149
-312,183	661,781	-0,010	0,019
-311,168	-49,085	-0,067	0,023
-310,153	800,000	-0,062	-0,126
-309,139	75,017	0,044	0,034
-308,124	-200,000	0,019	-0,105
-307,110	800,000	0,015	0,041
-306,095	-6,932	-0,036	0,018
-305,080	800,000	-0,046	0,148
-304,066	-200,000	0,019	-0,064
-303,051	-200,000	0,007	0,085
-302,037	-11,298	0,041	0,020
-301,022	-185,748	-0,071	-0,001
-300,008	-200,000	-0,004	0,063
-298,993	20,748	-0,033	0,020
-297,978	-200,000	0,006	-0,075
-296,964	800,000	-0,039	-0,100
-295,949	116,573	0,074	-0,067
-294,935	-26,998	0,084	-0,036
-293,920	-56,942	0,112	-0,036
-292,905	225,657	-0,017	-0,020
-291,891	285,972	-0,036	-0,048
-290,876	-77,591	0,059	0,015
-289,862	-87,394	-0,109	0,024
-288,847	20,338	-0,011	-0,007
-287,832	-113,400	-0,119	0,017
-286,818	-101,685	-0,134	0,024
-285,803	-61,661	0,135	0,041
-284,789	800,000	0,055	-0,114
-283,774	-2,719	-0,085	0,044
-282,759	-200,000	0,007	0,111
-281,745	-200,000	0,028	0,131
-280,730	54,380	0,066	-0,046
-279,716	239,109	0,025	-0,030
-278,701	-200,000	0,014	-0,051
-277,686	-112,486	-0,090	-0,013
-276,672	-200,000	-0,001	0,121
-275,657	-59,271	-0,125	0,039
-274,643	800,000	0,057	-0,173
-273,628	-135,221	0,103	0,009
-272,613	-113,173	-0,052	-0,007
-271,599	395,897	0,041	0,063
-270,584	-91,530	-0,033	0,007
-269,570	-14,209	0,120	0,056
-268,555	-86,901	0,097	-0,021
-267,540	42,136	-0,075	-0,050
-266,526	-200,000	0,001	0,015
-265,511	-88,216	-0,153	0,033
-264,497	103,919	0,112	0,096
-263,482	276,319	-0,060	0,078
-262,467	-200,000	-0,016	0,120
-261,453	349,286	-0,031	0,045
-260,438	21,561	-0,041	-0,025
-259,424	187,792	-0,164	-0,180
-258,409	-200,000	0,015	0,133
-257,395	-200,000	0,026	-0,130
-256,380	800,000	0,042	-0,129
-255,365	800,000	0,022	0,045
-254,351	-55,723	0,155	-0,050
-253,336	281,785	-0,092	-0,121
-252,322	-200,000	0,014	-0,105
-251,307	41,810	0,073	-0,049
-250,292	-129,755	0,135	-0,013
-249,278	-82,975	0,045	-0,011
-248,263	-119,157	0,151	-0,019
-247,249	-119,590	-0,055	-0,007
-246,234	-200,000	0,008	-0,103
-245,219	10,921	-0,069	0,038
-244,205	-95,854	-0,048	-0,009
-243,190	-200,000	0,032	-0,148
-242,176	-200,000	0,021	0,076
-241,161	8,873	0,101	-0,055
-240,146	-42,342	-0,181	0,067
-239,132	-143,570	-0,124	0,008
-238,117	-200,000	-0,003	0,030
-237,103	-93,441	0,090	0,018
-236,088	660,250	-0,030	-0,056
-235,073	-10,460	-0,069	-0,033
-234,059	800,000	0,026	0,074
-233,044	-62,055	0,136	-0,041
-232,030	434,102	-0,029	-0,047
-231,015	199,034	0,049	-0,055
-230,000	-132,470	0,024	-0,002
-228,986	-130,848	0,100	-0,010
-227,971	216,580	-0,031	-0,036
-226,957	-91,920	0,121	-0,025
-225,942	-33,379	-0,190	-0,077
-224,927	-200,000	-0,016	-0,074
-223,913	71,095	-0,045	-0,034
-222,898	6,053	0,080	0,043
-221,884	23,368	-0,093	0,056
-220,869	407,177	0,135	0,209
-219,855	-200,000	-0,018	0,157
-218,840	-200,000	-0,008	0,221
-217,825	305,331	0,031	0,042
-216,811	-200,000	0,053	0,200
-215,796	-24,821	-0,111	-0,048
-214,782	183,738	0,045	0,049
-213,767	-95,760	0,047	-0,009
-212,752	300,418	0,108	0,146
-211,738	216,220	-0,032	-0,037
-210,723	-89,008	-0,081	-0,017
-209,709	-200,000	-0,014	0,128
-208,694	51,013	0,052	-0,036
-207,679	-200,000	-0,004	0,037
-206,665	800,000	0,037	-0,089
-205,650	-75,856	0,069	0,018
-204,636	747,444	0,073	0,144
-203,621	-171,860	0,051	-0,001
-202,606	33,816	0,070	-0,044
-201,592	-3,208	-0,084	-0,043
-200,577	-200,000	-0,008	0,027
-199,563	800,000	-0,006	0,015
-198,548	800,000	-0,034	0,078
-197,533	167,844	0,053	0,055
-196,519	-7,982	-0,092	-0,045
-195,504	-200,000	0,003	0,055
-194,490	-200,000	-0,002	-0,084
-193,475	800,000	-0,038	-0,118
-192,460	800,000	-0,044	-0,120
-191,446	-84,572	-0,105	0,024
-190,431	35,937	0,103	0,066
-189,417	241,602	-0,071	0,087
-188,402	423,466	-0,108	-0,169
-187,387	-200,000	0,013	0,107
-186,373	-94,382	-0,021	-0,004
-185,358	800,000	0,056	0,148
-184,344	-200,000	0,007	-0,073
-183,329	159,345	0,071	0,073
-182,315	800,000	0,020	-0,044
-181,300	242,240	0,052	0,064
-180,285	-12,539	0,035	0,016
-179,271	142,037	0,096	0,093
-178,256	-105,097	-0,168	0,028
-177,242	-34,781	0,129	0,051
-176,227	800,000	-0,031	0,063
-175,212	-200,000	0,150	0,000
-174,198	-79,870	0,039	-0,010
-173,183	800,000	-0,026	0,078
-172,169	-200,000	0,023	0,074
-171,154	-27,819	0,027	0,011
-170,139	-200,000	0,000	0,010
-169,125	-83,475	0,067	-0,015
-168,110	-200,000	-0,011	0,080
-167,096	69,667	0,093	-0,070
-166,081	371,995	0,022	0,033
-165,066	670,264	-0,088	-0,167
-164,052	48,121	0,105	-0,072
-163,037	-200,000	-0,006	0,033
-162,023	735,674	0,062	0,122
-161,008	-45,938	-0,040	-0,014
-159,993	-200,000	-0,002	-0,083
-158,979	800,000	-0,033	0,083
-157,964	-24,005	0,015	0,007
-156,950	789,860	-0,016	0,032
-155,935	257,886	-0,125	0,158
-154,920	80,644	0,089	0,070
-153,906	542,571	-0,043	0,075
-152,891	-96,047	-0,123	-0,024
-151,877	-19,017	0,059	0,027
-150,862	-59,983	-0,205	0,063
-149,847	-200,000	-0,003	-0,051
-148,833	-200,000	0,005	0,076
-147,818	800,000	0,042	-0,120
-146,804	88,871	0,013	-0,010
-145,789	81,362	0,045	0,035
-144,775	138,191	-0,058	-0,056
-143,760	-200,000	-0,003	0,041
-142,745	-91,624	-0,055	-0,011
-141,731	-45,821	0,092	-0,033
-140,716	198,821	0,095	-0,106
-139,702	638,449	0,028	0,052
-138,687	217,141	0,047	0,055
-137,672	-111,479	-0,016	-0,002
-136,658	800,000	0,025	-0,053
-135,643	-200,000	-0,007	0,176
-134,629	-7,424	0,127	0,062
-133,614	-112,053	0,117	0,017
-132,599	-200,000	-0,015	0,051
-131,585	-126,335	-0,135	0,014
-130,570	112,625	0,087	0,077
-129,556	78,066	0,019	0,015
-128,541	-200,000	-0,001	-0,124
-127,526	-130,918	-0,097	-0,009
-126,512	-85,171	0,068	0,015
-125,497	-170,333	-0,072	0,002
-124,483	800,000	-0,016	0,036
-123,468	334,806	-0,072	-0,102
-122,453	222,553	-0,038	-0,044
-121,439	170,043	-0,046	0,048
-120,424	-76,818	-0,183	-0,046
-119,410	744,257	0,065	0,128
-118,395	160,145	0,060	-0,061
-117,380	-94,543	0,067	-0,013
-116,366	35,795	-0,065	0,042
-115,351	633,959	-0,086	0,159
-114,337	-200,000	0,044	-0,194
-113,322	259,621	-0,030	-0,037
-112,307	-200,000	0,005	-0,022
-111,293	-200,000	0,012	0,124
-110,278	283,845	-0,047	0,061
-109,264	-83,522	-0,070	-0,016
-108,249	183,716	0,005	-0,005
-107,234	-120,607	-0,126	-0,015
-106,220	-14,754	0,046	-0,021
-105,205	-200,000	-0,003	0,250
-104,191	467,676	0,104	0,169
-103,176	-200,000	-0,020	0,079
-102,162	-34,370	-0,067	-0,027
-101,147	470,639	-0,009	-0,014
-100,132	5,693	-0,053	-0,028
-99,118	800,000	0,038	0,116
-98,103	198,708	0,067	0,075
-97,089	-200,000	0,006	-0,058
-96,074	-189,927	-0,041	-0,000
-95,059	20,790	-0,038	0,022
-94,045	-41,621	-0,124	-0,046
-93,030	322,949	0,054	0,075
-92,016	210,972	-0,062	-0,071
-91,001	49,385	0,054	-0,037
-89,986	-200,000	-0,008	0,070
-88,972	-200,000	0,016	0,055
-87,957	759,679	-0,072	0,142
-86,943	215,709	0,068	0,078
-85,928	-37,073	-0,082	-0,032
-84,913	-200,000	-0,004	-0,107
-83,899	-200,000	0,001	-0,076
-82,884	107,338	-0,087	-0,075
-81,870	-200,000	0,001	0,039
-80,855	297,437	0,009	-0,013
-79,840	54,674	0,131	0,091
-78,826	70,417	0,105	0,079
-77,811	-176,726	-0,054	-0,001
-76,797	65,803	0,117	0,086
-75,782	-200,000	-0,019	0,074
-74,767	-55,094	0,102	0,033
-73,753	-24,264	-0,130	0,056
-72,738	-21,852	-0,077	0,034
-71,724	85,793	-0,076	-0,061
-70,709	-108,518	-0,113	-0,018
-69,694	-187,048	-0,188	0,002
-68,680	-63,063	-0,039	0,012
-67,665	-200,000	0,015	0,067
-66,651	52,720	0,067	0,046
-65,636	800,000	0,016	-0,038
-64,622	-41,208	-0,137	0,051
-63,607	-200,000	-0,000	-0,028
-62,592	-75,821	-0,076	-0,019
-61,578	164,561	0,089	0,091
-60,563	227,618	-0,058	0,068
-59,549	-18,116	-0,160	0,072
-58,534	-192,661	-1,326	0,009
-57,519	641,908	-0,814	-1,512
-56,505	-200,000	-0,903	-4,358
-55,490	17,400	0,545	-0,313
-54,476	800,000	4,998	11,620
-53,461	-200,000	13,906	254,184
-52,446	-200,000	693,758	2263,401
-51,432	600,398	1623,867	2937,474
-50,417	117,755	1633,381	1459,058
-49,403	73,495	1287,364	976,915
-48,388	37,379	1023,742	657,039
-47,373	24,028	981,646	586,099
-46,359	23,221	971,435	577,334
-45,344	22,132	967,100	571,176
-44,330	22,034	965,491	569,885
-43,315	21,963	964,208	568,873
-42,300	21,928	963,084	568,073
-41,286	21,893	962,369	567,514
-40,271	21,894	961,167	566,786
-39,257	21,904	960,298	566,285
-38,242	21,839	959,353	565,491
-37,227	21,929	958,464	565,238
-36,213	21,953	957,572	564,766
-35,198	21,800	956,805	563,797
-34,184	21,919	956,241	563,828
-33,169	21,846	955,273	562,998
-32,154	21,959	954,124	562,665
-31,140	22,019	953,283	562,337
-30,125	21,975	952,712	561,837
-29,111	21,958	951,658	561,138
-28,096	21,883	951,362	560,702
-27,082	21,908	950,526	560,268
-26,067	21,936	949,795	559,902
-25,052	21,964	948,885	559,433
-24,038	21,849	948,599	558,875
-23,023	21,922	947,759	558,591
-22,009	21,967	947,082	558,314
-20,994	21,945	946,242	557,728
-19,979	21,891	945,840	557,294
-18,965	21,946	945,019	556,964
-17,950	21,972	944,190	556,536
-16,936	21,856	943,948	556,003
-15,921	21,788	943,355	555,416
-14,906	21,831	942,407	554,972
-13,892	21,842	941,721	554,579
-12,877	21,821	941,118	554,138
-11,863	21,807	940,459	553,681
-10,848	21,785	940,075	553,363
-9,833	21,874	939,560	553,322
-8,819	21,883	938,994	552,994
-7,804	21,816	938,252	552,323
-6,790	21,814	937,578	551,898
-5,775	21,837	937,218	551,738
-4,760	21,754	936,416	550,981
-3,746	21,772	935,771	550,637
-2,731	21,625	935,259	549,849
-1,717	21,646	934,310	549,336
-0,702	21,651	933,752	549,000
0,313	21,432	933,115	548,765
1,327	23,892	930,591	554,967
2,342	31,542	808,957	503,173
3,356	26,202	509,801	307,938
4,371	1,723	374,807	195,135
5,386	-1,201	357,709	182,616
6,400	-2,234	351,736	178,298
7,415	-2,387	349,261	176,844
8,429	-2,256	348,051	176,372
9,444	-2,196	347,086	175,939
10,459	-2,211	346,343	175,530
11,473	-2,288	345,710	175,101
12,488	-2,121	345,066	174,958
13,502	-2,297	344,476	174,433
14,517	-2,219	344,007	174,274
15,531	-2,031	343,582	174,265
16,546	-1,990	343,297	174,154
17,561	-1,946	342,807	173,941
18,575	-1,972	342,584	173,782
19,590	-1,876	341,904	173,534
20,604	-1,898	341,675	173,377
21,619	-2,181	341,435	172,907
22,634	-2,058	340,964	172,798
23,648	-2,090	340,715	172,619
24,663	-2,005	340,239	172,462
25,677	-2,009	339,927	172,283
26,692	-2,017	339,748	172,168
27,707	-1,916	339,374	172,081
28,721	-2,009	339,100	171,818
29,736	-1,952	338,717	171,675
30,750	-2,146	338,530	171,339
31,765	-2,087	338,237	171,244
32,780	-1,994	337,868	171,150
33,794	-2,012	337,705	171,032
34,809	-1,868	337,268	170,962
35,823	-2,071	337,019	170,585
36,838	-2,081	336,817	170,456
37,853	-2,092	336,498	170,266
38,867	-1,918	336,070	170,236
39,882	-2,040	336,046	170,068
40,896	-1,895	335,707	170,048
41,911	-1,955	335,392	169,804
42,926	-2,039	335,247	169,619
43,940	-1,983	334,892	169,489
44,955	-1,996	334,679	169,351
45,969	-2,035	334,363	169,131
46,984	-2,080	334,131	168,948
47,999	-2,074	333,883	168,814
49,013	-1,965	333,483	168,722
50,028	-2,185	333,390	168,407
51,042	-2,023	333,073	168,417
52,057	-2,008	332,711	168,237
53,071	-2,133	332,623	168,034
54,086	-2,029	332,306	167,977
55,101	-2,094	332,069	167,769
56,115	-2,013	331,899	167,760
57,130	-2,076	331,579	167,512
58,144	-2,201	331,219	167,172
59,159	-2,110	330,911	167,106
60,174	-2,051	330,742	167,073
61,188	-1,934	330,405	167,020
62,203	-2,088	330,193	166,724
63,217	-2,007	330,025	166,716
64,232	-2,193	329,737	166,345
65,247	-2,070	329,322	166,260
66,261	-2,110	329,089	166,082
67,276	-1,944	328,959	166,188
68,290	-2,074	328,762	165,928
69,305	-2,060	328,497	165,795
70,320	-2,127	328,150	165,530
71,334	-1,999	328,069	165,619
72,349	-2,162	327,729	165,249
73,363	-1,990	327,207	165,164
74,378	-1,970	327,140	165,138
75,393	-1,979	326,791	164,937
76,407	-1,950	326,571	164,844
77,422	-1,975	326,302	164,665
78,436	-2,239	326,174	164,290
79,451	-1,940	325,802	164,422
80,466	-1,867	325,519	164,346
81,480	-1,948	325,259	164,110
82,495	-1,916	325,180	164,091
83,509	-2,021	324,876	163,807
84,524	-1,928	324,674	163,793
85,539	-2,098	324,403	163,453
86,553	-2,032	324,355	163,487
87,568	-2,087	323,913	163,189
88,582	-1,985	323,697	163,179
89,597	-1,993	323,491	163,051
90,611	-1,997	323,286	162,930
91,626	-1,947	323,051	162,852
92,641	-1,998	322,741	162,625
93,655	-1,827	322,441	162,647
94,670	-1,930	322,280	162,438
95,684	-1,995	322,068	162,245
96,699	-1,949	321,771	162,131
97,714	-1,835	321,516	162,114
98,728	-2,029	321,360	161,808
99,743	-2,063	321,171	161,662
100,757	-1,956	321,029	161,693
101,772	-2,022	320,713	161,447
102,787	-1,968	320,382	161,324
103,801	-2,132	320,397	161,139
104,816	-2,009	319,935	161,026
105,830	-1,940	319,679	160,959
106,845	-1,934	319,429	160,824
107,860	-1,960	319,159	160,646
108,874	-2,085	319,073	160,452
109,889	-2,147	318,727	160,196
110,903	-1,906	318,419	160,289
111,918	-2,006	318,120	160,015
112,933	-2,055	318,137	159,957
113,947	-1,820	317,659	159,957
114,962	-1,959	317,612	159,769
115,976	-2,048	317,427	159,565
116,991	-2,057	317,154	159,404
118,006	-2,035	317,002	159,336
119,020	-2,071	316,899	159,232
120,035	-1,934	316,617	159,223
121,049	-1,916	316,437	159,138
122,064	-2,056	316,064	158,786
123,079	-2,072	316,007	158,725
124,093	-2,094	315,757	158,562
125,108	-2,126	315,465	158,367
126,122	-1,921	315,243	158,462
127,137	-2,003	315,139	158,308
128,151	-2,090	314,791	158,025
129,166	-1,991	314,482	157,962
130,181	-2,076	314,327	157,780
131,195	-1,894	314,027	157,809
132,210	-2,134	313,884	157,467
133,224	-1,885	313,552	157,553
134,239	-1,990	313,461	157,380
135,254	-2,129	313,247	157,110
136,268	-2,106	313,052	157,023
137,283	-1,998	312,719	156,958
138,297	-2,058	312,462	156,750
139,312	-1,880	312,142	156,765
140,327	-1,925	311,958	156,611
141,341	-2,127	311,896	156,351
142,356	-1,966	311,581	156,351
143,370	-2,057	311,419	156,159
144,385	-1,990	311,157	156,084
145,400	-1,947	310,922	155,997
146,414	-1,852	310,662	155,954
147,429	-2,048	310,582	155,693
148,443	-1,945	310,284	155,638
149,458	-2,058	309,942	155,333
150,473	-2,021	309,979	155,376
151,487	-1,973	309,666	155,257
152,502	-2,009	309,393	155,069
153,516	-1,871	309,292	155,150
154,531	-1,973	309,024	154,893
155,546	-1,798	308,746	154,924
156,560	-1,938	308,553	154,667
157,575	-1,865	308,330	154,617
158,589	-1,990	307,978	154,297
159,604	-1,893	307,774	154,283
160,619	-1,737	307,758	154,423
161,633	-1,978	307,631	154,094
162,648	-1,700	307,325	154,218
163,662	-1,711	307,070	154,064
164,677	-2,001	307,012	153,718
165,692	-1,915	306,761	153,669
166,706	-1,885	306,530	153,571
167,721	-1,861	306,259	153,447
168,735	-1,799	306,172	153,453
169,750	-1,858	305,863	153,224
170,764	-1,889	305,608	153,050
171,779	-1,889	305,461	152,962
172,794	-1,905	305,333	152,869
173,808	-1,798	304,990	152,795
174,823	-1,970	304,912	152,564
175,837	-1,903	304,629	152,477
176,852	-2,060	304,582	152,278
177,867	-1,857	304,208	152,286
178,881	-1,852	303,989	152,169
179,896	-2,053	304,036	151,972
180,910	-1,921	303,675	151,914
181,925	-1,810	303,400	151,877
182,940	-1,927	303,310	151,697
183,954	-1,967	303,069	151,523
184,969	-1,883	303,047	151,585
185,983	-1,758	302,754	151,553
186,998	-1,891	302,692	151,371
188,013	-1,915	302,366	151,171
189,027	-1,816	301,968	151,059
190,042	-1,947	301,753	150,805
191,056	-1,894	301,503	150,720
192,071	-1,969	301,289	150,523
193,086	-1,944	301,050	150,416
194,100	-1,878	300,930	150,409
195,115	-1,844	300,785	150,358
196,129	-2,019	300,462	150,006
197,144	-1,958	300,292	149,969
198,159	-1,791	299,961	149,960
199,173	-1,847	299,742	149,780
200,188	-2,127	299,605	149,414
201,202	-2,186	299,623	149,350
202,217	-1,815	299,168	149,486
203,232	-1,961	298,992	149,236
204,246	-2,048	298,891	149,085
205,261	-1,988	298,608	148,991
206,275	-1,820	298,347	149,018
207,290	-1,862	298,255	148,916
208,304	-1,861	298,020	148,786
209,319	-1,722	297,811	148,809
210,334	-1,869	297,540	148,512
211,348	-1,833	297,439	148,485
212,363	-1,878	297,328	148,371
213,377	-1,840	297,164	148,314
214,392	-1,876	296,905	148,135
215,407	-1,968	296,698	147,926
216,421	-1,887	296,466	147,879
217,436	-1,759	296,184	147,853
218,450	-1,908	296,044	147,621
219,465	-2,063	295,912	147,387
220,480	-1,822	295,609	147,463
221,494	-2,070	295,593	147,195
222,509	-2,001	295,325	147,117
223,523	-2,018	295,187	147,018
224,538	-2,093	294,928	146,801
225,553	-1,987	294,761	146,810
226,567	-1,963	294,601	146,742
227,582	-1,866	294,413	146,732
228,596	-1,730	294,114	146,705
229,611	-1,949	294,035	146,434
230,626	-1,744	293,743	146,479
231,640	-1,947	293,635	146,211
232,655	-1,933	293,371	146,080
233,669	-1,892	293,230	146,038
234,684	-1,945	292,865	145,791
235,699	-1,788	292,855	145,928
236,713	-1,772	292,622	145,815
237,728	-1,816	292,387	145,641
238,742	-1,978	292,246	145,398
239,757	-1,900	292,032	145,355
240,772	-2,079	291,803	145,052
241,786	-2,032	291,685	145,027
242,801	-1,966	291,517	144,995
243,815	-1,870	291,229	144,934
244,830	-1,987	291,143	144,763
245,844	-1,994	290,837	144,591
246,859	-2,064	290,593	144,388
247,874	-1,995	290,464	144,379
248,888	-2,026	290,205	144,206
249,903	-2,144	290,030	143,992
250,917	-2,022	289,862	144,014
251,932	-2,117	289,646	143,801
252,947	-2,458	289,445	143,356
253,961	-2,956	288,975	142,625
254,976	-3,270	288,553	142,098
255,990	-3,345	288,329	141,902
257,005	-2,448	288,614	142,903
258,020	-0,116	289,463	145,586
259,034	1,381	289,889	147,248
260,049	1,949	289,999	147,844
261,063	2,302	289,873	148,111
262,078	2,643	289,856	148,421
263,093	3,038	289,604	148,663
264,107	3,092	289,612	148,707
265,122	3,309	289,459	148,826
266,136	3,439	289,414	148,915
267,151	3,308	289,351	148,743
268,166	3,422	288,950	148,634
269,180	3,334	288,775	148,445
270,195	3,321	288,587	148,323
271,209	3,217	288,374	148,099
272,224	3,397	288,154	148,148
273,239	3,274	287,931	147,901
274,253	2,943	287,732	147,466
275,268	3,125	287,571	147,546
276,282	3,064	287,263	147,315
277,297	3,155	287,188	147,352
278,312	3,153	286,915	147,197
279,326	3,098	287,018	147,183
280,341	3,216	286,524	147,030
281,355	3,211	286,388	146,942
282,370	3,054	286,225	146,695
283,384	3,065	286,199	146,679
284,399	3,039	285,702	146,387
285,414	3,044	285,605	146,329
286,428	2,936	285,634	146,227
287,443	3,052	285,233	146,120
288,457	3,042	285,024	145,990
289,472	2,943	284,878	145,808
290,487	2,892	284,686	145,648
291,501	2,803	284,486	145,447
292,516	2,898	284,209	145,383
293,530	2,869	284,090	145,282
294,545	2,759	283,983	145,110
295,560	2,846	283,807	145,090
296,574	2,645	283,581	144,770
297,589	2,877	283,341	144,855
298,603	2,808	283,105	144,656
299,618	2,785	283,016	144,576
300,633	2,894	282,982	144,649
301,647	3,051	282,730	144,656
302,662	3,031	282,453	144,483
303,676	3,115	282,346	144,494
304,691	3,126	282,210	144,422
305,706	3,170	282,046	144,367
306,720	3,085	281,994	144,247
307,735	3,290	281,805	144,331
308,749	3,232	281,531	144,122
309,764	3,262	281,332	144,036
310,779	3,150	281,197	143,849
311,793	3,204	280,949	143,760
312,808	3,147	280,720	143,577
313,822	3,055	280,566	143,399
314,837	3,011	280,394	143,256
315,852	3,054	280,275	143,223
316,866	3,138	280,040	143,169
317,881	3,010	279,983	143,008
318,895	2,902	279,768	142,783
319,910	2,999	279,408	142,678
320,925	3,044	279,285	142,644
321,939	3,075	279,242	142,639
322,954	3,072	278,993	142,496
323,968	3,184	278,944	142,562
324,983	3,269	278,578	142,443
325,997	3,330	278,413	142,402
327,012	3,151	278,416	142,224
328,027	3,191	278,065	142,069
329,041	3,374	277,980	142,183
330,056	3,115	277,996	141,938
331,070	3,274	277,628	141,884
332,085	3,345	277,328	141,785
333,100	3,197	277,203	141,571
334,114	3,226	277,119	141,543
335,129	3,175	276,891	141,367
336,143	3,327	276,598	141,344
337,158	3,362	276,608	141,369
338,173	3,612	276,198	141,377
339,187	3,226	276,201	141,011
340,202	3,270	275,956	140,913
341,216	3,195	275,677	140,690
342,231	3,164	275,566	140,592
343,246	3,136	275,423	140,481
344,260	3,112	275,392	140,430
345,275	3,263	275,052	140,383
346,289	3,237	275,016	140,327
347,304	3,227	274,795	140,194
348,319	3,307	274,576	140,142
349,333	3,137	274,500	139,936
350,348	3,270	274,157	139,870
351,362	3,248	274,059	139,787
352,377	3,172	273,991	139,671
353,392	3,512	273,708	139,824
354,406	3,435	273,458	139,614
355,421	191,361	1351,066	1431,489
356,435	154,503	1482,452	1431,625
