DTS Sentinel unit serial number:	SN410029Multiplexer serial number:	ORYXHardware model number:	OX2-SRSoftware version number:	ORYX F/W v4,00 Oryx Data Collector v3.7.2.0data status	okinstallation	B3 Nyhavnadifferential loss correction	single-endedforward channel	channel 1reverse channel	N/Adate	2023/11/28time	12:02:30forward acquisition time	300,00reverse acquisition time	0,00gamma	499,1914k internal	0,3144k external	0,3144temperature offset calibration	1,0000default loss term (dB/km)	0,3820temperature slope calibration	1,0000multiplexer offset coefficient	1,0000multiplexer slope coefficient	1,0000fibre end	0,00T internal ref (°C)	8,78T ext. ref 1 (°C)	-7,48T ext. ref 2 (°C)	-7,71length (m)	temperature (°C)	Stokes	anti-Stokes-744,400	419,540	-0,184	-0,292
-743,385	-200,000	-0,052	0,282
-742,371	198,541	-0,059	-0,067
-741,356	-200,000	-0,061	0,264
-740,342	-132,859	-0,173	-0,016
-739,327	-200,000	0,074	0,255
-738,312	386,352	-0,145	-0,222
-737,298	266,836	-0,106	0,137
-736,283	35,392	-0,230	-0,149
-735,269	-200,000	0,010	0,437
-734,254	800,000	-0,082	-0,240
-733,239	32,533	-0,222	0,142
-732,225	281,974	-0,201	-0,267
-731,210	-200,000	0,037	0,225
-730,196	-41,632	-0,144	-0,055
-729,181	408,743	0,035	-0,055
-728,167	-200,000	0,033	-0,108
-727,152	-200,000	-0,051	-0,209
-726,137	-25,001	-0,132	-0,058
-725,123	451,361	-0,036	-0,058
-724,108	-200,000	-0,023	-0,131
-723,094	67,070	-0,060	0,045
-722,079	-200,000	-0,023	-0,087
-721,064	-2,085	0,122	-0,063
-720,050	-58,316	0,076	0,024
-719,035	-54,567	-0,075	0,025
-718,021	-98,027	-0,163	-0,031
-717,006	243,067	0,081	-0,101
-715,991	-45,668	-0,170	-0,062
-714,977	-200,000	-0,017	0,074
-713,962	319,060	0,017	-0,024
-712,948	-13,639	-0,169	-0,081
-711,933	90,771	0,052	0,043
-710,918	-200,000	-0,014	-0,069
-709,904	-200,000	0,018	-0,165
-708,889	-76,821	-0,081	-0,021
-707,875	325,031	-0,128	-0,182
-706,860	-32,886	-0,038	-0,015
-705,845	-7,517	0,101	0,051
-704,831	-72,598	-0,041	-0,011
-703,816	42,729	0,045	-0,030
-702,802	162,986	0,164	-0,170
-701,787	-53,480	0,063	-0,021
-700,772	-96,035	0,016	0,003
-699,758	-9,645	-0,082	0,040
-698,743	-200,000	0,010	0,122
-697,729	-124,776	0,047	0,005
-696,714	59,453	0,035	-0,026
-695,699	-103,096	-0,056	0,010
-694,685	-2,418	-0,110	-0,057
-693,670	597,044	-0,065	-0,119
-692,656	-37,185	-0,120	-0,047
-691,641	3,291	0,130	0,070
-690,627	-200,000	-0,005	0,091
-689,612	-200,000	-0,001	-0,073
-688,597	-82,195	0,018	0,004
-687,583	-200,000	0,000	0,085
-686,568	128,785	0,025	-0,024
-685,554	624,224	0,074	-0,138
-684,539	-200,000	0,009	0,087
-683,524	-200,000	-0,045	0,163
-682,510	-78,854	0,093	0,023
-681,495	-15,598	-0,094	-0,044
-680,481	-111,593	-0,053	0,008
-679,466	-28,627	-0,084	0,035
-678,451	88,270	-0,034	-0,028
-677,437	54,821	-0,036	0,026
-676,422	-45,429	0,068	0,025
-675,408	-26,784	-0,095	0,041
-674,393	154,322	0,107	0,108
-673,378	265,034	0,070	-0,090
-672,364	-200,000	-0,013	-0,048
-671,349	156,724	-0,115	-0,117
-670,335	-96,742	0,076	-0,015
-669,320	-97,783	0,041	0,008
-668,305	800,000	0,028	0,076
-667,291	309,003	-0,083	0,115
-666,276	-97,971	-0,099	-0,019
-665,262	167,111	-0,084	-0,088
-664,247	-97,605	-0,098	0,019
-663,232	241,900	0,036	0,045
-662,218	-0,949	0,083	-0,043
-661,203	-175,792	0,147	0,003
-660,189	-84,824	0,036	0,008
-659,174	-187,967	-0,216	-0,002
-658,159	334,866	0,023	-0,033
-657,145	122,719	-0,086	-0,079
-656,130	1,721	-0,094	-0,050
-655,116	42,950	0,050	-0,033
-654,101	800,000	0,064	-0,200
-653,086	-117,269	0,091	-0,012
-652,072	-200,000	-0,017	-0,073
-651,057	91,825	-0,108	-0,089
-650,043	64,482	-0,059	-0,044
-649,028	607,187	-0,056	-0,103
-648,014	-136,301	0,075	0,006
-646,999	-200,000	0,026	0,181
-645,984	-94,530	-0,054	-0,011
-644,970	-34,984	-0,043	0,017
-643,955	250,812	-0,102	-0,129
-642,941	-118,927	-0,157	-0,020
-641,926	344,082	-0,031	-0,045
-640,911	-51,678	-0,179	-0,061
-639,897	488,221	-0,049	-0,082
-638,882	-200,000	0,035	-0,117
-637,868	-200,000	-0,019	-0,081
-636,853	397,961	-0,046	0,071
-635,838	-200,000	-0,014	-0,121
-634,824	-200,000	-0,010	-0,117
-633,809	37,916	-0,057	-0,038
-632,795	-200,000	0,039	0,154
-631,780	54,395	0,011	-0,008
-630,765	97,005	-0,177	-0,150
-629,751	543,266	0,012	-0,021
-628,736	13,046	-0,041	-0,023
-627,722	-96,781	-0,092	-0,018
-626,707	-120,864	0,038	0,005
-625,692	40,317	-0,041	0,027
-624,678	-3,963	-0,104	0,053
-623,663	-200,000	-0,042	-0,151
-622,649	-33,009	0,036	0,015
-621,634	-183,738	-0,069	0,001
-620,619	-200,000	-0,006	-0,077
-619,605	345,120	0,101	0,147
-618,590	-200,000	0,019	-0,062
-617,576	-200,000	0,015	0,092
-616,561	331,241	0,065	-0,093
-615,546	800,000	-0,050	-0,119
-614,532	-200,000	-0,011	-0,106
-613,517	800,000	0,047	0,105
-612,503	50,829	0,034	-0,024
-611,488	800,000	-0,045	0,137
-610,474	543,281	0,051	0,090
-609,459	-200,000	-0,034	-0,175
-608,444	-200,000	0,000	0,026
-607,430	98,095	0,048	-0,041
-606,415	34,891	-0,057	0,036
-605,401	396,369	-0,050	0,077
-604,386	-156,994	-0,067	-0,003
-603,371	800,000	0,024	0,069
-602,357	-200,000	0,012	-0,043
-601,342	90,310	-0,071	-0,058
-600,328	800,000	-0,040	-0,106
-599,313	800,000	-0,073	-0,156
-598,298	-200,000	-0,005	-0,101
-597,284	-45,372	-0,074	-0,027
-596,269	-82,311	-0,031	0,007
-595,255	-200,000	0,001	0,120
-594,240	-127,495	-0,052	-0,005
-593,225	569,807	-0,038	-0,069
-592,211	800,000	0,014	-0,033
-591,196	-45,354	0,102	0,037
-590,182	-200,000	-0,067	0,229
-589,167	14,819	0,084	0,048
-588,152	-23,152	0,042	-0,019
-587,138	-50,364	-0,093	0,032
-586,123	167,266	-0,080	-0,084
-585,109	-8,533	0,053	-0,026
-584,094	-200,000	-0,002	-0,055
-583,079	-200,000	0,034	0,131
-582,065	345,041	-0,016	-0,023
-581,050	-200,000	0,033	0,126
-580,036	-200,000	0,017	-0,115
-579,021	-15,231	0,033	-0,016
-578,006	-95,056	-0,159	-0,031
-576,992	20,294	-0,133	-0,079
-575,977	-200,000	-0,034	0,158
-574,963	404,472	-0,027	0,042
-573,948	167,898	0,044	-0,046
-572,934	800,000	-0,035	-0,073
-571,919	128,761	-0,155	-0,145
-570,904	-21,985	0,149	-0,066
-569,890	-39,920	-0,020	0,008
-568,875	-200,000	-0,014	0,057
-567,861	48,612	0,156	0,107
-566,846	90,055	-0,020	0,016
-565,831	170,264	-0,123	0,130
-564,817	544,056	-0,018	-0,032
-563,802	277,314	-0,047	-0,062
-562,788	-200,000	0,016	0,061
-561,773	-136,356	-0,073	0,006
-560,758	800,000	-0,063	0,156
-559,744	21,858	0,071	0,043
-558,729	800,000	0,046	-0,104
-557,715	-70,557	-0,121	0,033
-556,700	282,401	-0,078	-0,103
-555,685	-129,340	-0,021	-0,002
-554,671	-200,000	-0,002	0,103
-553,656	496,438	-0,012	0,020
-552,642	630,725	0,019	0,036
-551,627	96,453	-0,058	0,049
-550,612	-123,810	-0,106	0,012
-549,598	800,000	0,024	-0,059
-548,583	-8,356	-0,071	0,035
-547,569	332,882	-0,059	0,083
-546,554	83,427	0,036	0,028
-545,539	-47,738	0,064	-0,023
-544,525	-35,255	-0,112	0,045
-543,510	194,327	0,058	-0,065
-542,496	43,410	-0,111	-0,075
-541,481	-200,000	-0,027	-0,098
-540,466	-20,824	0,151	-0,068
-539,452	-85,109	-0,011	0,003
-538,437	491,547	0,056	0,095
-537,423	-18,595	0,109	-0,050
-536,408	74,177	-0,075	-0,058
-535,393	-63,203	-0,042	0,013
-534,379	-200,000	-0,009	0,063
-533,364	-200,000	-0,007	0,068
-532,350	-36,481	0,073	-0,029
-531,335	-126,241	0,144	0,016
-530,321	-200,000	0,037	-0,142
-529,306	800,000	-0,017	0,043
-528,291	160,522	0,036	-0,037
-527,277	24,248	-0,095	-0,058
-526,262	-200,000	0,022	-0,110
-525,248	494,568	-0,047	-0,080
-524,233	123,635	0,123	0,114
-523,218	800,000	0,047	0,117
-522,204	73,256	-0,057	0,044
-521,189	16,572	0,150	-0,087
-520,175	-200,000	-0,070	-0,269
-519,160	415,797	-0,060	-0,095
-518,145	81,618	0,180	0,143
-517,131	32,310	-0,116	0,073
-516,116	10,011	0,056	0,031
-515,102	800,000	-0,010	-0,022
-514,087	266,486	0,061	-0,078
-513,072	751,035	0,048	-0,096
-512,058	-200,000	-0,037	-0,143
-511,043	269,557	0,065	-0,083
-510,029	434,950	0,062	0,099
-509,014	-200,000	0,022	0,076
-507,999	580,685	0,019	0,035
-506,985	-14,983	0,102	0,048
-505,970	93,366	-0,077	-0,064
-504,956	-97,886	0,081	-0,015
-503,941	44,063	-0,051	0,034
-502,926	-200,000	-0,005	0,087
-501,912	-200,000	-0,009	-0,066
-500,897	72,763	0,052	0,040
-499,883	551,699	0,072	0,127
-498,868	179,980	-0,024	0,026
-497,853	-101,972	0,139	-0,024
-496,839	100,973	0,057	0,049
-495,824	-8,746	-0,043	-0,021
-494,810	-35,096	0,046	-0,018
-493,795	-30,692	0,014	-0,006
-492,781	-200,000	0,021	-0,093
-491,766	-2,860	-0,137	-0,070
-490,751	-132,896	-0,292	0,027
-489,737	-46,643	0,112	0,040
-488,722	390,352	0,082	-0,125
-487,708	48,896	-0,041	-0,028
-486,693	-30,137	0,073	0,030
-485,678	-133,337	0,150	0,014
-484,664	-84,442	-0,223	-0,051
-483,649	103,638	-0,079	-0,068
-482,635	190,952	-0,101	0,111
-481,620	800,000	-0,031	0,091
-480,605	-200,000	-0,008	0,118
-479,591	800,000	0,011	-0,032
-478,576	140,339	-0,044	0,042
-477,562	-200,000	0,017	-0,132
-476,547	800,000	-0,051	-0,141
-475,532	-85,154	0,083	0,019
-474,518	76,267	-0,121	-0,093
-473,503	-59,985	-0,049	0,015
-472,489	800,000	0,022	0,059
-471,474	800,000	0,053	0,167
-470,459	314,903	0,104	-0,144
-469,445	800,000	-0,019	-0,045
-468,430	-200,000	0,020	-0,105
-467,416	-200,000	-0,003	-0,083
-466,401	-200,000	0,001	0,055
-465,386	210,077	-0,058	-0,067
-464,372	157,649	0,037	-0,037
-463,357	2,693	-0,154	-0,082
-462,343	-200,000	0,031	0,110
-461,328	89,254	0,021	0,017
-460,313	800,000	-0,044	-0,112
-459,299	42,203	-0,109	-0,072
-458,284	-115,742	0,121	0,016
-457,270	-105,735	0,197	0,032
-456,255	-200,000	-0,010	-0,045
-455,241	-200,000	-0,015	-0,127
-454,226	489,049	-0,115	-0,192
-453,211	525,355	0,074	0,128
-452,197	396,504	0,067	0,103
-451,182	-200,000	0,175	0,000
-450,168	-191,350	-0,155	0,001
-449,153	-200,000	-0,031	0,137
-448,138	800,000	-0,016	-0,033
-447,124	85,326	0,009	0,007
-446,109	52,464	-0,024	-0,017
-445,095	0,196	-0,053	-0,028
-444,080	80,056	0,103	-0,081
-443,065	-48,406	-0,071	0,025
-442,051	-200,000	0,014	0,051
-441,036	-139,919	-0,101	-0,008
-440,022	343,779	0,075	-0,108
-439,007	124,002	0,081	-0,074
-437,992	-200,000	0,017	-0,078
-436,978	-119,629	-0,103	-0,013
-435,963	347,517	0,067	0,097
-434,949	-48,545	0,143	-0,050
-433,934	-200,000	-0,022	0,122
-432,919	-191,908	-0,183	0,001
-431,905	-200,000	-0,037	0,126
-430,890	71,122	-0,029	0,022
-429,876	800,000	0,038	-0,086
-428,861	-112,811	0,130	-0,019
-427,846	-70,452	-0,094	-0,026
-426,832	-200,000	-0,002	-0,023
-425,817	7,026	-0,152	-0,083
-424,803	-110,322	0,066	0,010
-423,788	-200,000	0,033	0,117
-422,773	291,408	0,083	0,111
-421,759	-53,167	0,048	0,016
-420,744	-73,081	-0,096	0,025
-419,730	-91,489	0,131	0,027
-418,715	-200,000	0,045	-0,165
-417,701	42,184	-0,049	-0,032
-416,686	-71,283	0,074	-0,020
-415,671	32,092	0,112	-0,070
-414,657	-200,000	-0,002	0,141
-413,642	169,200	-0,044	0,046
-412,628	263,830	-0,058	-0,074
-411,613	-116,128	-0,060	-0,008
-410,598	800,000	0,019	-0,051
-409,584	800,000	-0,044	0,117
-408,569	-200,000	-0,001	0,056
-407,555	-200,000	-0,005	-0,155
-406,540	519,784	0,078	0,134
-405,525	-200,000	0,001	0,068
-404,511	160,646	-0,028	0,029
-403,496	-200,000	-0,024	-0,087
-402,482	-200,000	-0,007	0,030
-401,467	-200,000	0,046	0,185
-400,452	-200,000	-0,009	-0,070
-399,438	324,317	0,031	0,043
-398,423	22,957	-0,157	-0,094
-397,409	683,943	-0,050	-0,095
-396,394	-103,166	-0,045	-0,008
-395,379	-54,473	0,105	-0,034
-394,365	134,241	0,073	0,069
-393,350	-126,352	0,136	0,015
-392,336	-200,000	0,008	0,091
-391,321	-94,171	0,017	-0,003
-390,306	800,000	-0,067	-0,141
-389,292	-200,000	0,019	0,109
-388,277	100,858	-0,049	0,042
-387,263	-200,000	0,010	0,067
-386,248	-68,777	0,153	-0,043
-385,233	46,005	0,053	-0,036
-384,219	-37,452	0,025	-0,010
-383,204	-116,663	-0,135	0,018
-382,190	-200,000	0,012	0,056
-381,175	-153,021	-0,119	-0,006
-380,160	187,265	0,052	-0,057
-379,146	-200,000	0,003	0,057
-378,131	800,000	0,058	0,147
-377,117	-41,738	0,093	0,035
-376,102	122,508	0,120	-0,110
-375,088	-200,000	-0,020	0,082
-374,073	-58,867	-0,034	-0,011
-373,058	-49,476	0,105	0,036
-372,044	113,824	0,093	-0,083
-371,029	5,246	0,134	0,072
-370,015	185,711	0,014	0,015
-369,000	-200,000	0,061	-0,221
-367,985	283,551	-0,095	-0,125
-366,971	-200,000	-0,011	0,091
-365,956	-200,000	0,024	0,112
-364,942	-71,899	0,043	0,011
-363,927	-13,414	0,170	0,080
-362,912	25,575	-0,066	-0,040
-361,898	800,000	-0,057	0,123
-360,883	-104,566	0,067	-0,011
-359,869	135,606	0,096	0,092
-358,854	296,348	-0,081	0,108
-357,839	170,864	0,042	0,044
-356,825	-103,140	0,165	0,028
-355,810	-200,000	-0,030	0,145
-354,796	-139,087	-0,124	-0,010
-353,781	-163,617	-0,073	0,002
-352,766	-123,555	-0,079	0,009
-351,752	158,765	0,115	-0,117
-350,737	-200,000	-0,010	0,086
-349,723	-200,000	0,011	0,050
-348,708	84,620	-0,018	-0,014
-347,693	458,705	-0,029	-0,048
-346,679	-104,693	-0,099	0,016
-345,664	-103,373	-0,198	-0,034
-344,650	-8,374	0,051	0,025
-343,635	71,173	0,089	0,067
-342,620	678,502	0,050	0,094
-341,606	-115,485	-0,142	0,019
-340,591	7,455	-0,040	0,022
-339,577	-44,323	-0,171	0,062
-338,562	513,710	0,072	-0,123
-337,548	310,354	-0,071	0,097
-336,533	-200,000	0,016	0,057
-335,518	167,222	-0,099	-0,103
-334,504	1,378	0,075	-0,039
-333,489	-115,995	-0,097	-0,013
-332,475	532,698	0,118	-0,204
-331,460	-119,675	-0,130	-0,016
-330,445	-79,811	0,125	-0,030
-329,431	-157,434	-0,027	0,001
-328,416	-200,000	0,027	0,228
-327,402	187,692	-0,128	0,139
-326,387	752,216	-0,022	0,043
-325,372	-200,000	-0,000	-0,202
-324,358	102,225	-0,035	0,030
-323,343	47,219	0,105	-0,071
-322,329	800,000	0,057	0,122
-321,314	-98,432	0,079	0,015
-320,299	78,456	0,140	0,109
-319,285	180,592	0,019	-0,021
-318,270	-200,000	0,004	-0,038
-317,256	-200,000	0,006	-0,074
-316,241	-200,000	-0,012	-0,075
-315,226	299,948	0,058	0,077
-314,212	121,621	0,151	0,137
-313,197	-99,030	0,117	0,021
-312,183	-112,189	-0,106	0,015
-311,168	40,514	-0,119	-0,078
-310,153	-41,274	-0,037	0,014
-309,139	800,000	-0,038	-0,085
-308,124	-200,000	-0,027	0,088
-307,110	-4,665	0,141	0,071
-306,095	-200,000	0,017	-0,065
-305,080	-50,453	-0,057	0,019
-304,066	-168,088	-0,045	-0,001
-303,051	-47,559	0,086	0,030
-302,037	787,544	-0,021	0,041
-301,022	800,000	0,039	-0,107
-300,008	297,252	-0,023	-0,031
-298,993	-200,000	0,005	-0,042
-297,978	35,325	0,109	0,069
-296,964	-179,824	-0,115	-0,002
-295,949	175,664	0,044	0,046
-294,935	130,571	-0,065	-0,060
-293,920	50,559	0,101	-0,069
-292,905	-200,000	-0,027	0,126
-291,891	53,572	0,082	-0,057
-290,876	6,787	-0,083	0,045
-289,862	-125,819	-0,081	-0,009
-288,847	480,834	0,056	-0,093
-287,832	-200,000	0,026	-0,129
-286,818	-156,441	-0,075	0,003
-285,803	-91,848	-0,007	0,001
-284,789	161,092	0,060	-0,061
-283,774	-125,791	0,087	-0,009
-282,759	129,906	-0,058	0,054
-281,745	452,993	0,074	-0,119
-280,730	550,525	-0,067	0,118
-279,716	-33,776	-0,102	-0,041
-278,701	-200,000	-0,013	-0,046
-277,686	-148,194	0,047	-0,003
-276,672	132,634	0,150	0,141
-275,657	-200,000	-0,070	0,000
-274,643	-76,445	-0,128	0,033
-273,628	-39,432	-0,123	0,047
-272,613	-99,272	0,124	-0,023
-271,599	265,045	-0,070	0,089
-270,584	29,545	0,116	-0,072
-269,570	-100,282	0,132	0,024
-268,555	-121,990	0,056	0,007
-267,540	220,258	0,023	-0,027
-266,526	232,945	-0,099	-0,119
-265,511	-37,053	-0,135	-0,052
-264,497	-200,000	0,023	0,114
-263,482	599,880	-0,050	0,091
-262,467	-49,004	-0,035	-0,012
-261,453	-113,731	-0,040	-0,006
-260,438	-182,723	-0,166	0,002
-259,424	-76,851	0,048	0,012
-258,409	-199,573	0,096	-0,000
-257,395	421,482	0,047	0,073
-256,380	62,159	0,049	-0,035
-255,365	264,474	-0,107	0,135
-254,351	171,521	0,153	0,160
-253,336	418,487	-0,043	-0,067
-252,322	-200,000	-0,003	0,020
-251,307	41,663	0,074	-0,049
-250,292	-181,771	-0,153	-0,002
-249,278	-85,161	0,217	0,049
-248,263	316,869	-0,111	0,153
-247,249	-200,000	0,006	-0,040
-246,234	-41,498	-0,048	0,018
-245,219	-61,477	-0,148	-0,045
-244,205	800,000	-0,003	0,009
-243,190	-111,029	-0,080	-0,012
-242,176	314,200	0,060	0,082
-241,161	-200,000	-0,015	0,051
-240,146	145,546	0,072	0,070
-239,132	-67,283	0,033	0,009
-238,117	581,093	-0,031	-0,056
-237,103	30,253	0,134	-0,083
-236,088	-9,416	0,064	-0,031
-235,073	-200,000	0,031	-0,110
-234,059	-13,795	0,109	0,051
-233,044	192,717	0,001	-0,001
-232,030	-200,000	0,065	-0,234
-231,015	99,672	-0,111	-0,093
-230,000	45,978	0,084	0,056
-228,986	87,174	-0,084	-0,068
-227,971	-200,000	-0,017	0,081
-226,957	-200,000	-0,039	0,177
-225,942	-200,000	0,005	0,151
-224,927	-200,000	0,002	-0,075
-223,913	76,284	0,085	-0,065
-222,898	-200,000	0,008	-0,086
-221,884	349,630	0,062	-0,090
-220,869	323,406	-0,078	0,108
-219,855	-79,654	0,137	-0,033
-218,840	-200,000	-0,028	0,147
-217,825	656,619	-0,041	-0,077
-216,811	-26,649	0,052	0,022
-215,796	-200,000	-0,003	-0,064
-214,782	-105,362	0,119	0,019
-213,767	163,170	-0,094	0,096
-212,752	800,000	0,038	0,101
-211,738	-200,000	-0,000	0,095
-210,723	-200,000	0,009	0,271
-209,709	-142,109	-0,134	-0,010
-208,694	-44,254	0,103	-0,037
-207,679	-62,513	0,068	0,020
-206,665	324,438	0,027	-0,038
-205,650	800,000	-0,035	0,094
-204,636	-168,054	0,072	0,002
-203,621	-200,000	-0,007	0,100
-202,606	800,000	0,016	-0,045
-201,592	-29,466	0,079	0,033
-200,577	104,328	-0,058	-0,049
-199,563	305,376	0,064	0,087
-198,548	800,000	0,037	0,082
-197,533	-102,264	-0,073	0,013
-196,519	800,000	0,016	-0,035
-195,504	196,597	-0,144	-0,159
-194,490	223,279	-0,048	0,056
-193,475	-200,000	-0,015	-0,145
-192,460	-137,730	0,031	0,003
-191,446	-200,000	-0,008	0,054
-190,431	-150,472	0,074	0,004
-189,417	53,944	0,100	0,070
-188,402	-160,288	0,142	0,005
-187,387	800,000	0,020	-0,051
-186,373	800,000	-0,027	-0,063
-185,358	-105,288	0,075	-0,012
-184,344	-99,856	0,026	-0,005
-183,329	225,106	0,076	0,089
-182,315	800,000	-0,062	0,126
-181,300	-192,223	-0,052	-0,000
-180,285	117,749	0,131	-0,117
-179,271	133,494	-0,110	-0,103
-178,256	800,000	-0,023	-0,063
-177,242	58,690	-0,016	-0,012
-176,227	456,424	0,109	0,176
-175,212	-200,000	-0,028	0,137
-174,198	-16,564	0,058	-0,027
-173,183	-128,586	-0,108	-0,011
-172,169	189,056	-0,122	-0,133
-171,154	-158,933	0,160	0,006
-170,139	-3,442	-0,065	-0,033
-169,125	-200,000	-0,012	0,049
-168,110	800,000	0,057	0,115
-167,096	-13,624	0,059	0,028
-166,081	77,401	0,083	-0,064
-165,066	-188,953	-0,061	0,001
-164,052	800,000	-0,036	-0,106
-163,037	-200,000	-0,003	-0,131
-162,023	-200,000	-0,018	0,121
-161,008	-70,883	0,098	0,026
-159,993	518,613	-0,015	-0,025
-158,979	335,351	0,039	-0,054
-157,964	-88,352	-0,047	-0,010
-156,950	51,727	-0,120	-0,082
-155,935	-74,593	-0,103	-0,027
-154,920	439,965	0,086	0,137
-153,906	800,000	0,034	-0,084
-152,891	17,302	0,042	-0,024
-151,877	168,859	0,016	0,017
-150,862	-90,621	-0,164	-0,034
-149,847	224,928	-0,051	0,060
-148,833	104,608	-0,078	0,066
-147,818	-119,177	0,038	0,005
-146,804	-200,000	0,024	0,222
-145,789	9,902	-0,184	-0,101
-144,775	800,000	0,049	0,102
-143,760	-54,967	-0,096	-0,031
-142,745	44,718	0,052	-0,034
-141,731	345,181	-0,062	-0,089
-140,716	-91,412	-0,170	-0,035
-139,702	130,316	-0,052	0,048
-138,687	800,000	-0,040	-0,127
-137,672	800,000	-0,022	-0,047
-136,658	800,000	0,017	-0,043
-135,643	-200,000	0,004	-0,208
-134,629	418,302	-0,075	0,116
-133,614	81,666	-0,089	-0,070
-132,599	-94,276	0,104	-0,020
-131,585	-200,000	-0,004	-0,136
-130,570	-200,000	-0,015	-0,075
-129,556	321,199	-0,079	-0,109
-128,541	260,366	0,067	-0,084
-127,526	800,000	-0,103	-0,212
-126,512	19,898	-0,055	0,032
-125,497	92,254	0,032	0,026
-124,483	-46,259	-0,040	-0,014
-123,468	-200,000	-0,008	-0,097
-122,453	-200,000	0,008	0,030
-121,439	-200,000	-0,004	-0,049
-120,424	-200,000	0,004	0,036
-119,410	53,747	0,167	0,116
-118,395	111,556	-0,108	0,094
-117,380	111,441	0,066	0,058
-116,366	-200,000	-0,004	0,079
-115,351	-199,433	-0,107	-0,000
-114,337	-200,000	-0,003	0,176
-113,322	-82,819	-0,066	-0,015
-112,307	32,585	0,117	0,073
-111,293	415,138	-0,070	0,107
-110,278	-142,797	0,146	0,010
-109,264	267,067	0,044	0,056
-108,249	800,000	-0,037	0,103
-107,234	800,000	0,041	-0,123
-106,220	238,884	-0,074	-0,089
-105,205	-72,867	0,132	0,035
-104,191	-200,000	-0,006	0,116
-103,176	-46,555	-0,060	0,021
-102,162	-200,000	-0,014	-0,094
-101,147	736,696	-0,009	-0,017
-100,132	761,261	-0,025	-0,049
-99,118	81,886	-0,075	0,058
-98,103	86,237	0,058	0,046
-97,089	765,537	0,089	0,176
-96,074	800,000	0,049	0,116
-95,059	261,992	-0,098	0,122
-94,045	800,000	0,039	0,078
-93,030	800,000	-0,047	-0,113
-92,016	-200,000	-0,026	-0,165
-91,001	-200,000	0,006	0,095
-89,986	-173,946	0,058	-0,001
-88,972	97,240	0,101	-0,084
-87,957	800,000	0,021	0,043
-86,943	95,739	0,029	-0,024
-85,928	800,000	-0,009	-0,021
-84,913	97,296	-0,085	-0,070
-83,899	-200,000	-0,008	0,091
-82,884	-17,820	-0,102	-0,046
-81,870	-50,685	-0,024	0,008
-80,855	-200,000	-0,002	0,018
-79,840	-200,000	-0,015	-0,062
-78,826	100,910	-0,091	-0,076
-77,811	-34,152	-0,136	-0,054
-76,797	-200,000	-0,000	-0,021
-75,782	-200,000	-0,027	0,147
-74,767	185,606	-0,084	0,090
-73,753	-126,816	-0,100	0,011
-72,738	162,773	-0,025	-0,026
-71,724	33,665	-0,009	0,006
-70,709	-200,000	0,002	0,015
-69,694	-200,000	0,006	-0,022
-68,680	214,489	-0,154	0,176
-67,665	56,846	-0,046	0,032
-66,651	-200,000	-0,021	0,106
-65,636	-152,029	0,098	0,005
-64,622	19,942	-0,114	0,066
-63,607	800,000	-0,026	-0,070
-62,592	-53,230	0,071	-0,023
-61,578	140,259	0,154	0,147
-60,563	-200,000	0,000	0,020
-59,549	800,000	-0,073	0,220
-58,534	62,367	-2,062	-1,482
-57,519	800,000	-1,079	-2,231
-56,505	-200,000	-0,219	-4,162
-55,490	800,000	0,847	1,733
-54,476	800,000	5,116	11,138
-53,461	-200,000	22,029	342,950
-52,446	800,000	756,036	2313,583
-51,432	515,060	1647,032	2782,140
-50,417	69,135	1575,002	1165,766
-49,403	20,323	1135,464	659,383
-48,388	12,305	844,857	467,715
-47,373	26,377	809,649	486,584
-46,359	18,002	795,598	455,741
-45,344	8,989	791,170	429,034
-44,330	8,738	789,788	427,592
-43,315	8,667	788,291	426,575
-42,300	8,690	787,040	425,943
-41,286	8,698	786,200	425,492
-40,271	8,677	785,341	424,953
-39,257	8,641	784,584	424,430
-38,242	8,802	783,311	424,155
-37,227	8,836	782,620	423,855
-36,213	8,783	781,821	423,265
-35,198	8,745	780,974	422,687
-34,184	8,956	780,189	422,805
-33,169	8,709	779,426	421,720
-32,154	8,854	778,733	421,712
-31,140	8,844	777,356	420,924
-30,125	8,881	776,779	420,692
-29,111	8,837	776,223	420,259
-28,096	8,770	776,121	420,009
-27,082	8,813	775,331	419,679
-26,067	8,768	774,541	419,115
-25,052	8,787	773,816	418,757
-24,038	8,697	773,505	418,337
-23,023	8,744	772,640	417,975
-22,009	8,843	772,077	417,914
-20,994	8,837	771,289	417,455
-19,979	8,889	770,519	417,157
-18,965	8,848	770,098	416,806
-17,950	8,877	769,794	416,701
-16,936	8,804	769,133	416,136
-15,921	8,778	768,601	415,764
-14,906	8,734	767,738	415,165
-13,892	8,744	767,417	415,002
-12,877	8,693	766,808	414,522
-11,863	8,657	766,416	414,201
-10,848	8,608	766,173	413,926
-9,833	8,789	765,455	413,991
-8,819	8,794	764,820	413,644
-7,804	8,830	763,945	413,248
-6,790	8,701	763,824	412,831
-5,775	8,816	763,479	412,928
-4,760	8,790	762,910	412,536
-3,746	8,673	762,546	412,020
-2,731	8,542	761,963	411,349
-1,717	8,526	761,680	411,138
-0,702	8,523	760,803	410,642
0,313	8,687	757,900	410,116
1,327	12,282	738,004	408,322
2,342	20,559	598,627	347,909
3,356	14,359	330,186	184,975
4,371	-15,477	221,892	101,659
5,386	-18,537	208,839	93,468
6,400	-18,721	204,934	91,582
7,415	-17,995	203,078	91,253
8,429	-18,643	201,781	90,211
9,444	-18,705	201,145	89,876
10,459	-18,808	200,750	89,621
11,473	-18,766	200,308	89,444
12,488	-18,639	199,853	89,321
13,502	-18,985	199,384	88,865
14,517	-18,607	199,150	89,012
15,531	-18,881	198,601	88,571
16,546	-18,553	198,341	88,672
17,561	-18,661	197,956	88,418
18,575	-18,792	197,874	88,285
19,590	-18,709	197,448	88,143
20,604	-18,754	197,333	88,053
21,619	-18,652	196,963	87,949
22,634	-18,759	196,632	87,721
23,648	-18,809	196,508	87,624
24,663	-18,590	196,134	87,597
25,677	-18,733	195,937	87,405
26,692	-18,577	195,776	87,431
27,707	-18,625	195,614	87,319
28,721	-18,654	195,281	87,143
29,736	-18,676	195,121	87,049
30,750	-18,771	194,897	86,877
31,765	-18,801	194,622	86,727
32,780	-18,787	194,503	86,676
33,794	-18,592	194,362	86,735
34,809	-18,662	194,044	86,539
35,823	-18,423	193,941	86,645
36,838	-18,832	193,773	86,290
37,853	-18,727	193,400	86,186
38,867	-18,696	193,274	86,142
39,882	-18,416	193,248	86,308
40,896	-18,689	193,019	86,018
41,911	-18,700	192,914	85,956
42,926	-18,656	192,595	85,835
43,940	-18,693	192,592	85,802
44,955	-18,748	192,161	85,566
45,969	-18,506	192,113	85,696
46,984	-18,509	191,925	85,603
47,999	-18,437	191,882	85,623
49,013	-18,495	191,627	85,464
50,028	-18,482	191,477	85,398
51,042	-18,703	191,223	85,132
52,057	-18,700	191,072	85,059
53,071	-18,403	190,808	85,129
54,086	-18,427	190,829	85,114
55,101	-18,406	190,491	84,970
56,115	-18,660	190,511	84,806
57,130	-18,519	190,179	84,742
58,144	-18,686	189,917	84,509
59,159	-18,640	189,697	84,434
60,174	-18,718	189,611	84,337
61,188	-18,530	189,442	84,377
62,203	-18,589	189,211	84,227
63,217	-18,584	188,987	84,124
64,232	-18,656	188,873	84,019
65,247	-18,704	188,634	83,874
66,261	-18,464	188,540	83,980
67,276	-18,827	188,474	83,708
68,290	-18,607	188,218	83,729
69,305	-18,619	188,193	83,702
70,320	-18,338	187,837	83,718
71,334	-18,492	187,717	83,558
72,349	-18,608	187,647	83,445
73,363	-18,467	187,229	83,342
74,378	-18,614	187,181	83,219
75,393	-18,480	187,045	83,237
76,407	-18,560	186,915	83,121
77,422	-18,315	186,670	83,161
78,436	-18,377	186,536	83,054
79,451	-18,659	186,461	82,833
80,466	-18,603	186,274	82,778
81,480	-18,414	186,085	82,807
82,495	-18,481	185,859	82,656
83,509	-18,301	185,629	82,661
84,524	-18,321	185,567	82,614
85,539	-18,587	185,577	82,442
86,553	-18,277	185,337	82,524
87,568	-18,642	185,137	82,197
88,582	-18,441	185,106	82,303
89,597	-18,404	184,744	82,158
90,611	-18,470	184,813	82,139
91,626	-18,519	184,527	81,974
92,641	-18,528	184,430	81,918
93,655	-18,514	184,240	81,835
94,670	-18,541	184,101	81,749
95,684	-18,777	184,026	81,560
96,699	-18,581	183,708	81,536
97,714	-18,477	183,680	81,581
98,728	-18,497	183,456	81,462
99,743	-18,329	183,403	81,536
100,757	-18,437	183,212	81,377
101,772	-18,451	182,993	81,263
102,787	-18,248	182,796	81,295
103,801	-18,532	182,803	81,114
104,816	-18,635	182,639	80,969
105,830	-18,437	182,455	81,004
106,845	-18,607	182,347	80,843
107,860	-18,403	182,277	80,931
108,874	-18,505	182,078	80,773
109,889	-18,395	181,864	80,739
110,903	-18,473	181,631	80,580
111,918	-18,570	181,485	80,448
112,933	-18,524	181,438	80,448
113,947	-18,220	181,144	80,499
114,962	-18,415	181,034	80,322
115,976	-18,256	180,914	80,360
116,991	-18,757	181,014	80,087
118,006	-18,720	180,559	79,902
119,020	-18,448	180,538	80,053
120,035	-18,454	180,403	79,983
121,049	-18,267	180,313	80,050
122,064	-18,664	180,150	79,727
123,079	-18,232	179,966	79,904
124,093	-18,340	179,777	79,747
125,108	-18,540	179,710	79,587
126,122	-18,260	179,576	79,692
127,137	-18,468	179,441	79,498
128,151	-18,291	179,218	79,500
129,166	-18,190	179,121	79,511
130,181	-18,270	178,987	79,396
131,195	-18,570	178,851	79,146
132,210	-18,605	178,528	78,974
133,224	-18,387	178,418	79,051
134,239	-18,409	178,282	78,970
135,254	-18,383	178,203	78,945
136,268	-18,426	178,134	78,880
137,283	-18,107	177,868	78,950
138,297	-18,580	177,807	78,629
139,312	-18,485	177,564	78,571
140,327	-18,684	177,206	78,286
141,341	-18,916	177,091	78,088
142,356	-19,186	177,042	77,897
143,370	-17,728	177,139	78,812
144,385	-10,575	179,107	84,037
145,400	-3,787	180,607	88,892
146,414	-2,753	180,851	89,638
147,429	-2,109	180,826	90,011
148,443	-2,072	180,681	89,953
149,458	-1,687	180,580	90,130
150,473	-1,581	180,439	90,116
151,487	-1,539	180,472	90,150
152,502	-1,269	180,235	90,188
153,516	-1,658	180,224	89,938
154,531	-1,344	180,000	90,009
155,546	-1,589	180,009	89,857
156,560	-1,421	179,810	89,852
157,575	-1,499	179,767	89,775
158,589	-1,529	179,559	89,645
159,604	-1,499	179,381	89,566
160,619	-1,372	179,288	89,588
161,633	-1,201	179,180	89,630
162,648	-1,313	179,018	89,473
163,662	-1,107	179,008	89,585
164,677	-1,225	178,805	89,404
165,692	-1,083	178,635	89,397
166,706	-0,987	178,405	89,331
167,721	-1,030	178,541	89,366
168,735	-1,246	178,312	89,113
169,750	-0,903	178,313	89,312
170,764	-0,892	178,058	89,182
171,779	-1,169	178,041	89,000
172,794	-1,419	177,844	88,743
173,808	-0,863	177,722	89,008
174,823	-1,140	177,667	88,807
175,837	-1,197	177,570	88,716
176,852	-1,044	177,412	88,720
177,867	-0,862	177,286	88,759
178,881	-1,168	177,112	88,481
179,896	-0,896	176,970	88,564
180,910	-0,928	176,910	88,507
181,925	-1,128	176,866	88,358
182,940	-1,123	176,634	88,237
183,954	-0,871	176,569	88,347
184,969	-0,821	176,271	88,219
185,983	-0,902	176,333	88,195
186,998	-0,799	176,163	88,163
188,013	-0,880	176,067	88,059
189,027	-0,981	175,914	87,915
190,042	-1,341	175,719	87,596
191,056	-0,678	175,596	87,919
192,071	-0,548	175,525	87,953
193,086	-0,748	175,378	87,753
194,100	-0,832	175,289	87,651
195,115	-0,817	175,169	87,592
196,129	-1,048	175,067	87,397
197,144	-0,844	174,893	87,423
198,159	-1,007	174,782	87,263
199,173	-0,932	174,736	87,277
200,188	-0,616	174,481	87,327
201,202	-0,835	174,391	87,146
202,217	-0,898	174,281	87,047
203,232	-0,595	174,075	87,113
204,246	-0,995	174,121	86,894
205,261	-0,890	173,933	86,854
206,275	-0,794	173,726	86,799
207,290	-0,920	173,717	86,713
208,304	-0,584	173,565	86,825
209,319	-0,696	173,238	86,589
210,334	-0,879	173,357	86,534
211,348	-1,042	173,340	86,423
212,363	-0,948	173,113	86,357
213,377	-0,665	172,981	86,447
214,392	-0,572	172,872	86,439
215,407	-0,809	172,839	86,277
216,421	-0,609	172,628	86,280
217,436	-0,799	172,497	86,098
218,450	-0,665	172,515	86,176
219,465	-0,879	172,380	85,977
220,480	-0,929	172,127	85,815
221,494	-0,491	172,049	86,021
222,509	-0,474	171,937	85,967
223,523	-0,666	171,822	85,791
224,538	-0,673	171,687	85,712
225,553	-0,561	171,499	85,675
226,567	-0,592	171,477	85,639
227,582	-0,479	171,364	85,640
228,596	-0,247	171,158	85,662
229,611	-0,333	171,047	85,549
230,626	-0,413	170,940	85,443
231,640	-0,692	170,753	85,182
232,655	-0,804	170,830	85,149
233,669	-0,487	170,639	85,227
234,684	-0,479	170,443	85,126
235,699	-0,409	170,434	85,154
236,713	-0,440	170,420	85,122
237,728	-0,394	170,098	84,979
238,742	-0,618	170,063	84,826
239,757	-0,524	170,036	84,859
240,772	-0,340	169,907	84,892
241,786	-0,241	169,628	84,802
242,801	-0,305	169,651	84,769
243,815	-0,148	169,412	84,731
244,830	-0,228	169,407	84,676
245,844	-0,399	169,285	84,510
246,859	-0,371	169,161	84,456
247,874	-0,423	169,077	84,378
248,888	-0,332	169,059	84,413
249,903	-0,402	168,947	84,310
250,917	-0,133	168,723	84,342
251,932	-0,402	168,620	84,132
252,947	-0,193	168,552	84,208
253,961	-0,150	168,319	84,108
254,976	-0,363	168,239	83,941
255,990	-0,158	168,081	83,970
257,005	-0,308	168,137	83,906
258,020	-0,179	168,066	83,936
259,034	-0,034	167,750	83,852
260,049	-0,044	167,666	83,796
261,063	-0,389	167,601	83,563
262,078	-0,131	167,284	83,542
263,093	-0,364	167,315	83,419
264,107	-0,370	167,227	83,365
265,122	0,055	167,210	83,587
266,136	-0,146	167,195	83,459
267,151	-0,163	166,947	83,319
268,166	-0,074	166,927	83,351
269,180	-0,072	166,714	83,238
270,195	-0,102	166,669	83,192
271,209	-0,294	166,573	83,029
272,224	0,168	166,210	83,098
273,239	-0,201	166,369	82,964
274,253	-0,048	166,150	82,933
275,268	-0,103	166,095	82,867
276,282	0,098	165,919	82,883
277,297	0,106	165,907	82,874
278,312	-0,193	165,779	82,638
279,326	0,006	165,783	82,743
280,341	0,276	165,451	82,719
281,355	0,012	165,425	82,553
282,370	0,006	165,312	82,486
283,384	0,071	165,078	82,397
284,399	0,124	165,052	82,406
285,414	0,032	164,915	82,279
286,428	-0,203	164,974	82,172
287,443	0,225	164,688	82,258
288,457	0,488	164,589	82,346
289,472	0,118	164,431	82,056
290,487	0,014	164,435	81,993
291,501	-0,085	164,548	81,989
292,516	-0,015	164,197	81,844
293,530	0,117	164,166	81,894
294,545	0,135	163,998	81,813
295,560	0,412	163,957	81,936
296,574	0,574	163,790	81,935
297,589	0,328	163,775	81,785
298,603	0,053	163,649	81,565
299,618	0,275	163,515	81,612
300,633	0,208	163,399	81,510
301,647	0,201	163,298	81,449
302,662	0,518	163,116	81,523
303,676	0,575	163,061	81,519
304,691	0,157	162,970	81,239
305,706	0,400	162,796	81,277
306,720	-0,149	162,721	80,935
307,735	0,245	162,750	81,156
308,749	0,355	162,514	81,090
309,764	0,327	162,488	81,055
310,779	0,364	162,354	81,001
311,793	0,608	162,163	81,030
312,808	0,525	162,072	80,933
313,822	0,273	162,005	80,756
314,837	0,118	161,962	80,644
315,852	0,160	161,988	80,672
316,866	0,423	161,821	80,724
317,881	-0,034	161,651	80,386
318,895	0,589	161,341	80,559
319,910	0,408	161,292	80,430
320,925	0,325	161,243	80,354
321,939	0,357	161,225	80,355
322,954	0,031	161,108	80,115
323,968	0,200	161,153	80,221
324,983	0,339	160,987	80,205
325,997	0,253	160,772	80,045
327,012	0,541	160,571	80,092
328,027	0,369	160,528	79,971
329,041	0,597	160,373	80,008
330,056	0,612	160,422	80,034
331,070	0,206	160,303	79,751
332,085	0,416	160,198	79,803
333,100	0,059	160,055	79,535
334,114	0,169	159,971	79,545
335,129	0,500	159,759	79,608
336,143	0,437	159,748	79,562
337,158	0,418	159,762	79,552
338,173	0,383	159,573	79,432
339,187	0,438	159,369	79,352
340,202	0,728	159,244	79,436
341,216	0,561	159,102	79,270
342,231	0,513	159,129	79,252
343,246	0,842	159,013	79,360
344,260	0,606	158,991	79,218
345,275	0,391	158,901	79,052
346,289	0,547	158,766	79,060
347,304	0,715	158,642	79,080
348,319	0,619	158,416	78,910
349,333	0,579	158,414	78,880
350,348	0,708	158,382	78,925
351,362	0,552	158,143	78,717
352,377	0,653	158,071	78,728
353,392	0,532	158,143	78,693
354,406	0,386	157,962	78,519
355,421	190,981	1323,746	1392,058
356,435	150,851	1466,241	1392,550
