DTS Sentinel unit serial number:	SN410029Multiplexer serial number:	ORYXHardware model number:	OX2-SRSoftware version number:	ORYX F/W v4,00 Oryx Data Collector v3.7.2.0data status	okinstallation	B3 Nyhavnadifferential loss correction	single-endedforward channel	channel 1reverse channel	N/Adate	2023/11/28time	15:02:30forward acquisition time	300,00reverse acquisition time	0,00gamma	499,1914k internal	0,3163k external	0,3163temperature offset calibration	1,0000default loss term (dB/km)	0,3820temperature slope calibration	1,0000multiplexer offset coefficient	1,0000multiplexer slope coefficient	1,0000fibre end	0,00T internal ref (°C)	7,35T ext. ref 1 (°C)	-7,77T ext. ref 2 (°C)	-7,95length (m)	temperature (°C)	Stokes	anti-Stokes-744,400	-200,000	-0,022	-0,281
-743,385	-200,000	-0,107	0,371
-742,371	-200,000	-0,016	-0,189
-741,356	-200,000	-0,092	0,302
-740,342	800,000	-0,095	-0,194
-739,327	800,000	-0,086	0,252
-738,312	246,770	-0,176	-0,219
-737,298	658,064	-0,041	0,078
-736,283	347,104	-0,176	-0,256
-735,269	-200,000	-0,045	0,265
-734,254	-200,000	0,027	-0,151
-733,239	-132,092	-0,239	0,023
-732,225	-200,000	0,016	-0,194
-731,210	-200,000	-0,007	0,182
-730,196	-51,703	-0,079	-0,027
-729,181	-200,000	0,018	0,146
-728,167	323,091	-0,033	-0,046
-727,152	142,610	-0,034	-0,033
-726,137	-108,015	-0,192	-0,030
-725,123	34,629	0,092	-0,059
-724,108	405,988	-0,072	-0,112
-723,094	36,304	0,098	-0,063
-722,079	61,589	-0,088	-0,064
-721,064	-10,060	0,035	-0,017
-720,050	425,980	-0,015	0,024
-719,035	-200,000	0,041	0,156
-718,021	19,087	-0,049	0,029
-717,006	352,694	0,035	-0,051
-715,991	800,000	-0,054	-0,121
-714,977	-200,000	-0,038	-0,149
-713,962	-50,868	-0,024	0,008
-712,948	206,176	-0,046	0,053
-711,933	800,000	-0,026	-0,073
-710,918	-200,000	0,018	-0,151
-709,904	-200,000	-0,015	-0,124
-708,889	42,982	-0,038	-0,026
-707,875	-65,592	-0,121	-0,036
-706,860	800,000	-0,032	-0,086
-705,845	328,129	0,094	0,133
-704,831	-200,000	0,023	0,106
-703,816	641,216	-0,037	-0,069
-702,802	-67,829	-0,132	0,038
-701,787	5,698	0,053	-0,029
-700,772	-115,301	-0,103	0,014
-699,758	535,549	0,079	-0,138
-698,743	150,601	0,086	-0,086
-697,729	-191,913	-0,085	-0,001
-696,714	-200,000	-0,007	-0,028
-695,699	-157,714	0,067	0,003
-694,685	800,000	-0,077	-0,175
-693,670	122,137	-0,168	-0,154
-692,656	800,000	0,052	-0,152
-691,641	-200,000	0,002	0,080
-690,627	-200,000	0,045	0,168
-689,612	3,044	-0,135	-0,072
-688,597	361,520	-0,057	0,085
-687,583	53,161	-0,115	-0,081
-686,568	-200,000	0,018	-0,137
-685,554	93,706	-0,103	-0,085
-684,539	-200,000	0,006	-0,118
-683,524	-159,194	0,036	-0,001
-682,510	239,687	-0,113	0,139
-681,495	124,746	-0,095	-0,088
-680,481	236,556	0,010	0,013
-679,466	-91,591	0,053	-0,011
-678,451	800,000	-0,019	-0,054
-677,437	800,000	-0,012	-0,037
-676,422	-50,758	-0,110	0,038
-675,408	84,997	-0,087	0,070
-674,393	309,130	0,031	0,043
-673,378	115,493	-0,156	-0,140
-672,364	-55,535	0,062	0,020
-671,349	800,000	0,041	0,115
-670,335	32,466	0,088	0,055
-669,320	341,195	0,035	0,051
-668,305	533,382	0,040	0,070
-667,291	-33,726	0,080	0,032
-666,276	800,000	-0,008	-0,021
-665,262	-17,513	0,076	-0,035
-664,247	-134,969	-0,095	-0,008
-663,232	-22,207	-0,027	0,012
-662,218	-46,241	-0,107	0,038
-661,203	388,525	-0,076	0,116
-660,189	2,931	0,051	-0,027
-659,174	-136,359	-0,144	-0,012
-658,159	800,000	0,041	-0,109
-657,145	-35,189	-0,100	0,040
-656,130	201,054	-0,032	-0,037
-655,116	-165,430	-0,033	0,001
-654,101	800,000	0,041	-0,091
-653,086	-97,652	-0,062	-0,012
-652,072	-200,000	-0,021	-0,102
-651,057	-170,988	0,188	-0,005
-650,043	-131,778	-0,093	0,009
-649,028	-200,000	-0,019	0,089
-648,014	147,404	0,179	0,177
-646,999	-119,470	0,113	-0,014
-645,984	21,659	0,183	-0,109
-644,970	93,465	-0,072	0,060
-643,955	218,558	-0,048	-0,056
-642,941	-200,000	-0,003	-0,111
-641,926	800,000	0,021	-0,065
-640,911	-12,210	-0,058	0,027
-639,897	481,768	-0,052	0,086
-638,882	573,076	0,065	-0,116
-637,868	213,835	0,060	0,070
-636,853	-200,000	-0,000	-0,133
-635,838	149,570	-0,132	-0,131
-634,824	-200,000	-0,010	-0,168
-633,809	800,000	0,030	0,081
-632,795	411,695	-0,019	0,030
-631,780	508,818	-0,041	-0,070
-630,765	-138,215	0,079	-0,006
-629,751	-200,000	-0,045	-0,162
-628,736	-88,885	-0,139	-0,030
-627,722	56,943	-0,072	-0,051
-626,707	-75,335	0,040	0,010
-625,692	-85,404	0,189	-0,043
-624,678	5,525	-0,136	-0,073
-623,663	545,649	-0,025	-0,044
-622,649	166,321	-0,091	-0,095
-621,634	-200,000	0,010	-0,041
-620,619	63,658	0,034	0,025
-619,605	-33,111	0,102	-0,041
-618,590	317,135	0,060	-0,083
-617,576	215,222	-0,057	0,066
-616,561	53,075	0,104	-0,073
-615,546	-11,520	0,012	-0,006
-614,532	22,957	-0,058	0,035
-613,517	-39,488	0,030	0,012
-612,503	-71,071	-0,010	-0,003
-611,488	9,737	0,121	0,067
-610,474	-184,833	0,167	0,002
-609,459	-200,000	-0,014	-0,146
-608,444	92,756	-0,093	-0,077
-607,430	29,068	0,123	-0,076
-606,415	-200,000	0,006	-0,138
-605,401	153,583	-0,065	-0,065
-604,386	-110,619	0,095	-0,014
-603,371	-28,095	0,144	0,061
-602,357	-66,395	-0,082	0,024
-601,342	-8,127	0,041	0,020
-600,328	-122,966	-0,185	-0,022
-599,313	233,272	-0,056	0,068
-598,298	449,489	0,052	0,084
-597,284	800,000	0,010	0,028
-596,269	444,334	-0,025	0,040
-595,255	-200,000	-0,015	0,217
-594,240	-200,000	0,006	0,071
-593,225	-200,000	0,007	-0,108
-592,211	100,783	-0,049	-0,042
-591,196	-18,203	-0,061	0,028
-590,182	800,000	0,031	-0,087
-589,167	-105,330	0,119	-0,020
-588,152	-200,000	-0,015	0,111
-587,138	-200,000	-0,011	-0,126
-586,123	526,540	-0,045	-0,078
-585,109	225,227	-0,032	-0,038
-584,094	183,709	0,043	0,047
-583,079	-178,401	0,074	0,001
-582,065	-114,485	-0,054	0,008
-581,050	-200,000	-0,024	-0,107
-580,036	-155,971	-0,105	-0,005
-579,021	-200,000	0,029	-0,170
-578,006	-42,108	-0,083	0,031
-576,992	700,304	-0,054	-0,105
-575,977	416,699	0,035	-0,055
-574,963	447,139	-0,046	0,073
-573,948	800,000	-0,019	0,049
-572,934	276,416	-0,083	0,109
-571,919	-88,997	0,032	-0,007
-570,904	85,506	-0,143	-0,115
-569,890	97,229	0,034	0,028
-568,875	-200,000	0,026	0,161
-567,861	77,517	-0,061	-0,047
-566,846	-52,919	-0,087	0,029
-565,831	91,920	0,016	-0,013
-564,817	81,588	0,119	0,094
-563,802	-23,239	-0,100	0,044
-562,788	-200,000	0,022	-0,103
-561,773	-200,000	0,052	0,173
-560,758	-200,000	0,006	0,080
-559,744	-165,486	0,099	0,003
-558,729	-200,000	-0,004	0,046
-557,715	127,210	-0,125	0,116
-556,700	-83,681	0,079	-0,018
-555,685	-33,852	-0,049	0,020
-554,671	-200,000	-0,009	0,080
-553,656	469,433	0,053	-0,087
-552,642	-107,048	0,061	-0,010
-551,627	-200,000	-0,001	-0,070
-550,612	563,841	-0,008	0,015
-549,598	403,608	-0,043	0,067
-548,583	277,587	0,043	0,056
-547,569	87,608	-0,029	-0,024
-546,554	292,873	-0,033	-0,044
-545,539	796,869	-0,043	-0,088
-544,525	137,690	-0,102	-0,098
-543,510	-73,417	-0,113	-0,030
-542,496	-200,000	-0,024	-0,100
-541,481	-200,000	-0,013	-0,057
-540,466	800,000	-0,032	-0,098
-539,452	-200,000	0,055	0,212
-538,437	-50,039	-0,074	-0,025
-537,423	79,359	0,027	0,021
-536,408	800,000	-0,052	0,155
-535,393	800,000	-0,049	0,135
-534,379	-166,950	0,013	-0,000
-533,364	-116,708	-0,126	0,017
-532,350	800,000	0,068	0,142
-531,335	483,428	0,063	-0,105
-530,321	541,633	-0,064	-0,111
-529,306	47,709	0,135	0,092
-528,291	-200,000	0,004	-0,099
-527,277	376,013	-0,061	-0,091
-526,262	30,702	-0,060	0,038
-525,248	660,819	0,082	-0,155
-524,233	-118,375	-0,109	-0,014
-523,218	114,639	-0,151	0,135
-522,204	800,000	-0,021	0,048
-521,189	332,176	0,085	-0,120
-520,175	12,519	0,096	-0,054
-519,160	570,406	-0,029	-0,051
-518,145	-159,384	-0,107	-0,004
-517,131	-182,665	0,162	-0,002
-516,116	-1,335	0,075	-0,039
-515,102	-117,004	-0,114	0,015
-514,087	390,835	-0,088	0,134
-513,072	93,035	-0,098	0,081
-512,058	45,378	-0,142	-0,095
-511,043	169,693	-0,017	-0,018
-510,029	216,032	0,061	-0,070
-509,014	-119,684	0,078	0,010
-507,999	-50,170	-0,088	-0,030
-506,985	133,549	0,139	0,131
-505,970	740,881	-0,039	0,077
-504,956	-8,392	0,049	-0,024
-503,941	800,000	0,051	-0,111
-502,926	-18,962	0,150	0,068
-501,912	-200,000	0,013	-0,147
-500,897	-17,778	0,083	0,038
-499,883	183,794	-0,005	-0,006
-498,868	102,497	-0,105	-0,089
-497,853	495,240	0,074	-0,124
-496,839	-77,903	0,036	-0,009
-495,824	182,564	0,169	0,181
-494,810	-20,771	-0,134	-0,060
-493,795	611,425	-0,032	-0,059
-492,781	424,253	-0,031	-0,049
-491,766	-70,744	-0,090	-0,025
-490,751	800,000	-0,065	-0,183
-489,737	-5,900	-0,044	-0,022
-488,722	-46,697	0,057	-0,020
-487,708	37,632	0,185	0,119
-486,693	310,031	0,017	-0,024
-485,678	800,000	0,066	-0,149
-484,664	343,727	0,082	-0,117
-483,649	-94,247	-0,060	-0,012
-482,635	800,000	0,024	-0,066
-481,620	171,131	0,118	0,123
-480,605	800,000	0,027	-0,062
-479,591	-200,000	0,030	0,102
-478,576	-200,000	0,017	0,072
-477,562	479,047	-0,066	0,109
-476,547	2,084	-0,142	-0,075
-475,532	254,060	-0,050	-0,063
-474,518	123,633	0,111	0,102
-473,503	65,854	-0,042	0,031
-472,489	-36,261	0,054	0,021
-471,474	343,113	-0,067	-0,096
-470,459	-200,000	0,020	-0,077
-469,445	-200,000	-0,005	-0,096
-468,430	726,089	-0,031	-0,060
-467,416	-109,044	0,091	0,014
-466,401	332,025	0,071	-0,099
-465,386	156,026	-0,094	0,094
-464,372	800,000	-0,060	0,151
-463,357	-175,703	-0,054	-0,001
-462,343	-200,000	-0,035	-0,156
-461,328	341,988	-0,063	0,090
-460,313	736,828	-0,019	-0,038
-459,299	-43,932	0,069	0,025
-458,284	-111,340	-0,023	0,003
-457,270	-135,983	0,040	-0,003
-456,255	800,000	0,013	-0,030
-455,241	68,255	-0,082	-0,061
-454,226	-200,000	-0,013	-0,139
-453,211	-31,436	-0,049	-0,020
-452,197	800,000	0,067	0,196
-451,182	102,345	0,084	0,071
-450,168	21,652	-0,045	-0,026
-449,153	-5,320	-0,017	0,008
-448,138	392,424	0,112	-0,170
-447,124	10,288	0,011	0,006
-446,109	800,000	0,048	0,128
-445,095	210,869	0,083	0,095
-444,080	306,042	0,049	0,066
-443,065	-149,745	0,107	0,006
-442,051	223,471	-0,130	0,153
-441,036	-14,404	0,175	-0,081
-440,022	3,092	-0,017	0,009
-439,007	84,592	-0,110	0,087
-437,992	6,944	-0,063	0,034
-436,978	473,121	0,031	-0,051
-435,963	-200,000	0,006	0,178
-434,949	-73,562	-0,085	-0,022
-433,934	-200,000	0,004	-0,075
-432,919	-66,278	-0,120	-0,035
-431,905	46,317	-0,034	-0,023
-430,890	105,341	0,088	-0,075
-429,876	190,391	0,082	0,090
-428,861	-200,000	-0,001	0,023
-427,846	-0,733	-0,084	-0,043
-426,832	800,000	-0,042	-0,132
-425,817	9,565	-0,023	-0,013
-424,803	59,626	0,042	0,030
-423,788	-200,000	0,037	0,236
-422,773	-200,000	-0,052	0,189
-421,759	-7,468	0,123	-0,061
-420,744	800,000	-0,069	0,161
-419,730	13,059	-0,098	-0,055
-418,715	422,094	0,025	-0,040
-417,701	94,579	0,036	-0,030
-416,686	-200,000	-0,002	0,029
-415,671	-200,000	0,017	0,081
-414,657	-200,000	0,038	0,156
-413,642	-200,000	-0,020	0,085
-412,628	156,696	0,026	-0,026
-411,613	209,920	-0,089	-0,102
-410,598	-149,462	-0,043	-0,002
-409,584	800,000	0,035	-0,086
-408,569	208,705	-0,033	0,037
-407,555	-134,135	-0,063	-0,006
-406,540	-200,000	0,012	-0,095
-405,525	72,403	-0,041	-0,031
-404,511	80,108	0,098	-0,076
-403,496	100,296	-0,014	-0,012
-402,482	-46,165	-0,144	-0,051
-401,467	-145,864	0,111	0,007
-400,452	249,754	0,097	0,120
-399,438	45,840	-0,088	0,059
-398,423	-79,102	-0,054	-0,013
-397,409	519,202	0,098	-0,167
-396,394	-144,516	-0,162	0,011
-395,379	-15,865	-0,066	-0,030
-394,365	512,463	0,065	0,111
-393,350	167,953	0,052	-0,054
-392,336	-170,985	-0,025	-0,001
-391,321	262,406	0,005	-0,007
-390,306	696,340	-0,020	0,038
-389,292	-42,907	-0,072	-0,026
-388,277	-200,000	0,027	-0,094
-387,263	800,000	-0,038	0,104
-386,248	-200,000	0,010	0,120
-385,233	283,515	0,088	0,116
-384,219	48,694	0,089	-0,061
-383,204	800,000	-0,028	0,088
-382,190	-198,096	0,092	-0,000
-381,175	-200,000	0,003	-0,073
-380,160	800,000	0,048	0,136
-379,146	109,371	-0,110	0,095
-378,131	215,573	-0,082	-0,094
-377,117	-130,900	-0,084	-0,008
-376,102	137,437	-0,112	-0,106
-375,088	-152,922	-0,046	0,002
-374,073	-51,961	0,163	0,055
-373,058	337,697	0,044	0,062
-372,044	-28,469	0,124	0,052
-371,029	197,824	-0,036	-0,040
-370,015	-41,562	-0,116	-0,043
-369,000	547,497	0,030	0,052
-367,985	56,271	0,110	0,078
-366,971	694,015	0,035	0,067
-365,956	587,652	0,036	-0,065
-364,942	217,969	0,092	0,107
-363,927	-200,000	0,011	0,140
-362,912	-91,861	0,082	-0,017
-361,898	-184,675	-0,109	0,001
-360,883	-129,255	0,027	0,003
-359,869	262,444	0,060	0,076
-358,854	-200,000	0,004	-0,059
-357,839	345,899	-0,016	-0,022
-356,825	-4,904	0,103	0,051
-355,810	-93,247	-0,159	-0,032
-354,796	-158,369	0,028	0,001
-353,781	650,096	-0,036	0,067
-352,766	-200,000	0,025	0,083
-351,752	376,441	-0,080	0,119
-350,737	184,451	-0,026	0,028
-349,723	160,487	-0,089	0,090
-348,708	79,462	-0,038	-0,029
-347,693	800,000	-0,046	-0,104
-346,679	-72,424	-0,054	-0,014
-345,664	-200,000	-0,024	-0,110
-344,650	-83,271	0,165	0,038
-343,635	459,479	0,020	0,033
-342,620	-200,000	0,025	-0,150
-341,606	-200,000	-0,005	-0,105
-340,591	91,024	-0,064	-0,052
-339,577	318,370	0,021	-0,029
-338,562	-200,000	0,017	-0,136
-337,548	-200,000	-0,008	0,046
-336,533	321,628	-0,059	-0,082
-335,518	351,845	-0,023	0,033
-334,504	800,000	0,030	-0,063
-333,489	800,000	0,037	0,078
-332,475	800,000	0,016	0,036
-331,460	372,564	-0,069	0,102
-330,445	81,954	0,145	0,114
-329,431	-200,000	0,019	-0,066
-328,416	7,770	0,010	-0,005
-327,402	457,162	0,090	0,145
-326,387	546,138	0,079	-0,138
-325,372	-200,000	0,015	-0,096
-324,358	800,000	0,054	-0,115
-323,343	341,205	-0,039	0,056
-322,329	-119,369	0,017	-0,002
-321,314	258,813	0,060	0,075
-320,299	41,349	0,036	-0,024
-319,285	800,000	-0,022	0,070
-318,270	-29,505	0,060	0,025
-317,256	748,986	-0,051	-0,101
-316,241	-200,000	0,009	0,068
-315,226	-69,257	0,105	0,029
-314,212	-200,000	0,018	0,077
-313,197	-35,219	0,045	0,018
-312,183	131,008	-0,092	0,085
-311,168	303,365	0,088	0,118
-310,153	131,926	0,041	-0,038
-309,139	269,231	0,054	0,069
-308,124	-110,463	0,070	-0,010
-307,110	-200,000	0,007	0,091
-306,095	212,531	0,087	0,100
-305,080	800,000	0,038	0,101
-304,066	-22,481	-0,115	0,050
-303,051	-57,423	-0,020	-0,006
-302,037	-88,681	-0,116	-0,025
-301,022	-116,308	0,196	0,026
-300,008	107,404	-0,082	0,071
-298,993	800,000	0,022	0,052
-297,978	-15,245	0,071	-0,033
-296,964	148,095	-0,096	0,094
-295,949	154,400	-0,020	0,019
-294,935	58,494	-0,106	-0,075
-293,920	-93,292	-0,127	0,025
-292,905	-90,955	-0,035	-0,007
-291,891	-46,195	0,145	-0,051
-290,876	-39,013	-0,029	-0,011
-289,862	232,447	-0,063	0,074
-288,847	-200,000	-0,002	-0,206
-287,832	-169,984	-0,139	-0,004
-286,818	800,000	-0,084	-0,178
-285,803	800,000	0,009	-0,026
-284,789	800,000	-0,038	-0,081
-283,774	71,035	0,079	0,059
-282,759	-48,900	0,116	-0,040
-281,745	800,000	-0,032	0,068
-280,730	522,713	0,045	0,076
-279,716	183,935	-0,070	-0,075
-278,701	-43,182	-0,171	0,062
-277,686	-66,722	0,113	0,032
-276,672	-200,000	0,016	-0,154
-275,657	-163,253	0,135	-0,005
-274,643	-137,002	-0,137	0,011
-273,628	74,998	-0,066	0,050
-272,613	626,045	-0,024	0,044
-271,599	800,000	0,043	0,136
-270,584	623,239	-0,038	-0,069
-269,570	800,000	-0,023	0,066
-268,555	-87,531	-0,035	-0,008
-267,540	169,231	-0,107	0,111
-266,526	768,633	-0,020	0,039
-265,511	206,018	-0,077	0,086
-264,497	100,374	0,099	0,083
-263,482	63,083	0,142	0,102
-262,467	-200,000	-0,019	0,131
-261,453	-14,204	0,051	0,024
-260,438	-200,000	-0,038	-0,163
-259,424	140,238	0,064	0,061
-258,409	800,000	-0,044	-0,091
-257,395	-80,048	0,095	0,023
-256,380	205,125	0,112	0,125
-255,365	-121,367	0,170	0,020
-254,351	-71,959	0,035	-0,009
-253,336	-200,000	-0,037	-0,181
-252,322	-200,000	0,018	-0,103
-251,307	-189,449	-0,072	-0,001
-250,292	-117,912	0,036	-0,005
-249,278	81,784	-0,119	0,093
-248,263	61,058	-0,055	-0,040
-247,249	-200,000	0,009	-0,152
-246,234	-23,023	-0,033	0,014
-245,219	143,051	0,032	-0,031
-244,205	-200,000	-0,004	0,041
-243,190	85,236	0,059	0,047
-242,176	-37,966	0,100	0,038
-241,161	98,876	0,039	0,032
-240,146	-77,622	-0,074	-0,018
-239,132	80,844	-0,076	0,059
-238,117	77,795	0,015	0,012
-237,103	54,573	-0,065	0,045
-236,088	800,000	0,080	0,203
-235,073	800,000	0,050	-0,108
-234,059	680,857	0,043	0,081
-233,044	800,000	-0,016	0,049
-232,030	548,242	0,071	-0,123
-231,015	-200,000	-0,005	-0,052
-230,000	256,211	-0,067	0,083
-228,986	-200,000	0,004	0,026
-227,971	800,000	0,030	0,074
-226,957	85,314	0,055	0,043
-225,942	4,014	0,024	0,013
-224,927	115,676	-0,062	0,055
-223,913	363,814	0,086	-0,124
-222,898	58,199	-0,071	0,050
-221,884	-72,348	-0,032	-0,008
-220,869	-200,000	-0,004	0,027
-219,855	73,188	0,068	0,051
-218,840	-91,270	-0,096	-0,020
-217,825	-200,000	0,031	-0,116
-216,811	-81,818	0,017	0,004
-215,796	91,311	-0,037	-0,030
-214,782	80,926	0,022	-0,017
-213,767	-200,000	0,008	0,054
-212,752	800,000	0,063	-0,176
-211,738	249,843	-0,035	-0,042
-210,723	105,822	0,043	0,037
-209,709	-133,055	-0,062	0,006
-208,694	146,004	-0,060	0,058
-207,679	-20,066	-0,075	0,033
-206,665	-200,000	0,005	0,071
-205,650	193,171	0,102	0,111
-204,636	297,922	0,055	-0,073
-203,621	800,000	0,031	-0,079
-202,606	-187,083	-0,062	0,001
-201,592	237,095	-0,106	-0,127
-200,577	214,290	-0,030	-0,034
-199,563	499,164	0,030	-0,050
-198,548	800,000	-0,011	0,031
-197,533	119,215	0,095	0,085
-196,519	43,811	0,178	-0,117
-195,504	35,542	-0,063	0,040
-194,490	33,229	-0,088	-0,055
-193,475	119,581	0,064	-0,057
-192,460	-11,489	-0,101	0,048
-191,446	-200,000	-0,005	0,134
-190,431	800,000	-0,030	0,081
-189,417	729,739	0,077	-0,148
-188,402	162,923	-0,166	-0,168
-187,387	-9,897	-0,211	-0,101
-186,373	250,217	-0,060	0,073
-185,358	257,968	-0,112	0,140
-184,344	-200,000	0,014	-0,119
-183,329	66,146	0,144	0,105
-182,315	116,705	0,056	0,050
-181,300	-200,000	-0,022	-0,092
-180,285	762,035	0,021	-0,040
-179,271	800,000	-0,055	-0,123
-178,256	-16,433	0,029	-0,013
-177,242	-6,564	-0,069	0,034
-176,227	40,130	-0,048	0,031
-175,212	-61,838	0,056	-0,017
-174,198	-58,078	0,138	-0,043
-173,183	109,539	-0,047	-0,041
-172,169	19,433	0,088	0,051
-171,154	-177,721	-0,111	-0,002
-170,139	567,551	-0,049	-0,086
-169,125	-200,000	0,014	0,056
-168,110	800,000	-0,004	0,010
-167,096	193,555	-0,019	-0,021
-166,081	-148,398	-0,109	0,006
-165,066	-70,077	0,056	-0,015
-164,052	55,056	-0,042	-0,029
-163,037	201,732	-0,036	-0,040
-162,023	-6,240	0,175	0,086
-161,008	194,739	0,038	-0,042
-159,993	-70,280	-0,180	0,049
-158,979	84,128	-0,147	-0,116
-157,964	676,066	0,053	-0,099
-156,950	497,590	0,059	-0,098
-155,935	-200,000	0,026	0,113
-154,920	408,668	0,047	0,071
-153,906	113,280	0,047	0,041
-152,891	-71,079	0,024	0,006
-151,877	216,048	0,027	-0,031
-150,862	6,541	-0,103	-0,055
-149,847	438,768	0,023	-0,036
-148,833	353,517	0,055	0,078
-147,818	-64,446	0,098	-0,028
-146,804	-26,797	0,035	0,015
-145,789	-200,000	-0,003	0,062
-144,775	800,000	-0,047	0,122
-143,760	239,523	-0,061	-0,073
-142,745	81,537	-0,161	-0,125
-141,731	-107,965	-0,060	-0,009
-140,716	-200,000	0,015	0,105
-139,702	-200,000	0,017	0,063
-138,687	282,808	-0,043	0,056
-137,672	351,610	-0,097	0,138
-136,658	-200,000	0,003	0,087
-135,643	47,342	0,016	-0,011
-134,629	-200,000	-0,008	-0,056
-133,614	-200,000	0,013	0,110
-132,599	39,289	0,078	-0,050
-131,585	-38,857	0,079	0,030
-130,570	641,241	-0,022	-0,040
-129,556	173,533	0,027	0,028
-128,541	800,000	-0,055	-0,116
-127,526	-39,173	0,035	-0,013
-126,512	-200,000	0,004	-0,015
-125,497	43,079	-0,093	-0,061
-124,483	800,000	-0,051	-0,121
-123,468	127,939	0,067	0,061
-122,453	-200,000	-0,031	-0,116
-121,439	-58,062	-0,102	-0,032
-120,424	426,303	-0,060	-0,093
-119,410	797,974	0,054	0,107
-118,395	452,667	0,083	0,133
-117,380	-200,000	-0,034	0,164
-116,366	698,427	-0,033	-0,063
-115,351	800,000	-0,024	-0,058
-114,337	-200,000	-0,021	0,083
-113,322	253,676	0,014	-0,017
-112,307	-200,000	-0,015	0,052
-111,293	-134,760	0,048	0,004
-110,278	-200,000	0,028	-0,128
-109,264	-68,282	-0,150	0,042
-108,249	403,189	-0,054	0,082
-107,234	-200,000	-0,020	-0,099
-106,220	253,184	-0,045	0,055
-105,205	149,150	0,065	-0,063
-104,191	-24,061	-0,020	-0,009
-103,176	800,000	-0,048	0,119
-102,162	65,018	-0,103	-0,075
-101,147	-200,000	0,000	0,130
-100,132	-11,063	-0,108	-0,051
-99,118	81,295	-0,075	-0,058
-98,103	-68,845	0,040	-0,011
-97,089	800,000	0,076	0,235
-96,074	216,706	0,017	-0,019
-95,059	-112,993	0,094	0,013
-94,045	-200,000	-0,069	0,263
-93,030	445,970	-0,014	-0,023
-92,016	-200,000	0,008	0,066
-91,001	193,086	0,078	-0,085
-89,986	14,134	0,036	-0,020
-88,972	77,529	0,147	0,112
-87,957	-200,000	-0,009	0,100
-86,943	-200,000	-0,011	0,118
-85,928	31,337	-0,063	-0,039
-84,913	64,914	0,137	-0,099
-83,899	-0,984	-0,042	-0,021
-82,884	-200,000	-0,033	0,147
-81,870	800,000	-0,049	-0,132
-80,855	555,306	0,024	0,041
-79,840	-200,000	0,025	-0,089
-78,826	-200,000	-0,006	-0,068
-77,811	-200,000	-0,001	-0,061
-76,797	800,000	-0,017	0,046
-75,782	800,000	0,067	0,137
-74,767	221,189	0,054	0,063
-73,753	-168,692	-0,055	-0,001
-72,738	403,599	0,017	0,025
-71,724	-99,684	0,061	-0,011
-70,709	-64,422	-0,055	-0,016
-69,694	-200,000	0,000	0,068
-68,680	70,468	0,128	0,095
-67,665	-134,779	0,032	-0,003
-66,651	-200,000	0,019	-0,079
-65,636	49,650	-0,065	0,044
-64,622	43,519	-0,078	-0,051
-63,607	-28,006	-0,049	-0,020
-62,592	-64,548	-0,048	0,014
-61,578	101,988	0,057	0,048
-60,563	-200,000	-0,000	0,035
-59,549	-200,000	0,014	0,094
-58,534	82,869	-2,276	-1,772
-57,519	604,228	-1,052	-1,885
-56,505	-200,000	-0,378	-4,389
-55,490	736,070	0,934	1,801
-54,476	800,000	5,287	11,159
-53,461	-200,000	22,928	350,400
-52,446	800,000	758,132	2281,001
-51,432	505,554	1637,220	2727,634
-50,417	67,819	1549,726	1133,704
-49,403	20,238	1073,614	619,384
-48,388	11,308	760,407	415,854
-47,373	30,734	723,668	442,730
-46,359	18,172	708,663	403,885
-45,344	7,421	704,704	376,091
-44,330	7,295	702,951	374,839
-43,315	7,222	701,576	373,919
-42,300	7,266	700,365	373,363
-41,286	7,319	699,424	372,971
-40,271	7,187	698,753	372,287
-39,257	7,331	697,720	372,062
-38,242	7,379	696,965	371,757
-37,227	7,314	696,232	371,199
-36,213	7,283	695,572	370,758
-35,198	7,311	694,620	370,304
-34,184	7,467	694,192	370,428
-33,169	7,310	693,366	369,603
-32,154	7,354	693,080	369,540
-31,140	7,462	691,701	369,042
-30,125	7,452	691,089	368,678
-29,111	7,347	690,725	368,222
-28,096	7,322	690,520	368,040
-27,082	7,406	689,564	367,711
-26,067	7,395	688,970	367,356
-25,052	7,237	688,645	366,801
-24,038	7,208	688,136	366,446
-23,023	7,333	687,388	366,325
-22,009	7,503	686,905	366,447
-20,994	7,346	686,212	365,699
-19,979	7,483	685,768	365,766
-18,965	7,385	685,258	365,252
-17,950	7,438	684,915	365,178
-16,936	7,425	684,360	364,837
-15,921	7,405	683,785	364,470
-14,906	7,249	683,090	363,724
-13,892	7,281	682,784	363,622
-12,877	7,276	682,137	363,251
-11,863	7,092	682,033	362,755
-10,848	7,231	681,626	362,846
-9,833	7,314	681,086	362,734
-8,819	7,345	680,239	362,341
-7,804	7,531	679,626	362,426
-6,790	7,351	679,266	361,808
-5,775	7,373	679,139	361,777
-4,760	7,329	678,571	361,358
-3,746	7,272	678,259	361,047
-2,731	7,067	677,878	360,359
-1,717	6,995	677,641	360,056
-0,702	7,094	676,962	359,907
0,313	7,431	672,223	358,694
1,327	11,346	643,064	351,608
2,342	19,578	512,756	294,513
3,356	13,612	281,706	156,151
4,371	-15,202	190,764	87,048
5,386	-18,546	179,799	79,977
6,400	-18,573	176,370	78,429
7,415	-17,621	174,627	78,217
8,429	-18,843	173,660	77,050
9,444	-18,453	172,898	76,936
10,459	-18,381	172,452	76,773
11,473	-18,872	172,205	76,367
12,488	-18,539	171,835	76,391
13,502	-18,717	171,330	76,056
14,517	-18,670	171,071	75,962
15,531	-18,793	170,683	75,711
16,546	-18,492	170,479	75,789
17,561	-18,912	170,181	75,405
18,575	-18,686	170,162	75,522
19,590	-18,977	169,868	75,215
20,604	-18,650	169,662	75,307
21,619	-18,593	169,302	75,174
22,634	-18,985	168,950	74,784
23,648	-18,584	168,833	74,958
24,663	-18,946	168,695	74,681
25,677	-18,389	168,446	74,884
26,692	-18,394	168,157	74,747
27,707	-18,602	168,144	74,615
28,721	-18,634	167,779	74,428
29,736	-18,815	167,724	74,293
30,750	-18,743	167,559	74,254
31,765	-18,776	167,320	74,123
32,780	-18,577	167,189	74,172
33,794	-18,708	167,008	74,010
34,809	-18,806	166,814	73,862
35,823	-18,428	166,522	73,941
36,838	-18,888	166,530	73,676
37,853	-18,857	166,279	73,576
38,867	-18,891	166,141	73,489
39,882	-18,791	165,958	73,458
40,896	-18,574	165,755	73,485
41,911	-18,715	165,638	73,347
42,926	-18,551	165,513	73,378
43,940	-18,608	165,319	73,253
44,955	-18,523	165,107	73,200
45,969	-18,517	165,075	73,183
46,984	-18,573	165,023	73,122
47,999	-18,499	164,842	73,077
49,013	-18,722	164,597	72,836
50,028	-18,507	164,384	72,856
51,042	-18,649	164,210	72,693
52,057	-18,411	164,004	72,729
53,071	-18,568	163,934	72,603
54,086	-18,577	163,766	72,518
55,101	-18,734	163,660	72,376
56,115	-18,615	163,556	72,390
57,130	-18,735	163,431	72,262
58,144	-18,645	163,226	72,214
59,159	-18,516	162,952	72,159
60,174	-18,314	162,830	72,211
61,188	-18,730	162,703	71,917
62,203	-18,714	162,665	71,902
63,217	-18,409	162,440	71,965
64,232	-18,735	162,332	71,731
65,247	-18,747	162,146	71,636
66,261	-18,666	161,961	71,592
67,276	-18,423	161,921	71,702
68,290	-18,468	161,700	71,573
69,305	-18,959	161,744	71,316
70,320	-18,528	161,423	71,405
71,334	-18,645	161,339	71,297
72,349	-18,668	161,180	71,208
73,363	-18,770	161,005	71,068
74,378	-18,651	160,789	71,031
75,393	-18,706	160,679	70,946
76,407	-18,591	160,502	70,925
77,422	-18,675	160,598	70,915
78,436	-18,616	160,253	70,789
79,451	-18,510	160,120	70,781
80,466	-18,478	159,927	70,707
81,480	-19,020	159,972	70,426
82,495	-18,327	159,781	70,712
83,509	-18,524	159,633	70,533
84,524	-18,492	159,536	70,501
85,539	-18,432	159,425	70,479
86,553	-18,523	159,285	70,362
87,568	-18,740	159,081	70,147
88,582	-18,593	158,957	70,166
89,597	-18,834	158,892	70,001
90,611	-18,557	158,742	70,078
91,626	-18,628	158,645	69,991
92,641	-18,608	158,365	69,872
93,655	-18,452	158,268	69,906
94,670	-18,786	158,224	69,701
95,684	-18,613	157,957	69,670
96,699	-18,546	157,912	69,680
97,714	-18,484	157,770	69,645
98,728	-18,547	157,664	69,558
99,743	-18,527	157,570	69,521
100,757	-18,456	157,394	69,475
101,772	-18,635	157,246	69,308
102,787	-18,746	157,210	69,226
103,801	-18,725	156,940	69,112
104,816	-18,502	156,856	69,189
105,830	-18,702	156,669	68,993
106,845	-18,281	156,669	69,211
107,860	-18,628	156,532	68,960
108,874	-18,226	156,236	69,036
109,889	-18,412	156,201	68,917
110,903	-18,542	156,062	68,780
111,918	-18,495	155,923	68,737
112,933	-18,552	155,901	68,691
113,947	-18,734	155,621	68,466
114,962	-18,527	155,543	68,535
115,976	-18,410	155,424	68,538
116,991	-18,624	155,400	68,408
118,006	-18,607	155,377	68,401
119,020	-18,228	154,967	68,414
120,035	-18,237	155,042	68,436
121,049	-18,102	154,806	68,397
122,064	-18,374	154,719	68,210
123,079	-18,386	154,576	68,134
124,093	-18,791	154,517	67,890
125,108	-18,176	154,302	68,111
126,122	-18,359	154,285	68,001
127,137	-18,445	154,235	67,928
128,151	-18,569	154,132	67,813
129,166	-18,345	153,918	67,829
130,181	-18,480	153,758	67,682
131,195	-18,394	153,674	67,684
132,210	-18,590	153,444	67,474
133,224	-18,294	153,362	67,587
134,239	-18,556	153,191	67,369
135,254	-18,625	153,196	67,329
136,268	-18,317	152,782	67,301
137,283	-18,389	152,887	67,304
138,297	-18,496	152,739	67,177
139,312	-18,178	152,532	67,244
140,327	-18,516	152,421	67,015
141,341	-18,967	152,352	66,746
142,356	-18,823	152,269	66,778
143,370	-17,697	152,392	67,407
144,385	-11,437	153,719	71,241
145,400	-4,607	155,068	75,432
146,414	-2,667	155,359	76,581
147,429	-2,701	155,232	76,494
148,443	-2,124	155,231	76,787
149,458	-1,936	155,321	76,923
150,473	-1,833	155,156	76,888
151,487	-1,607	154,966	76,905
152,502	-1,621	155,038	76,926
153,516	-1,437	154,757	76,876
154,531	-1,394	154,698	76,862
155,546	-1,116	154,546	76,924
156,560	-1,254	154,530	76,837
157,575	-1,628	154,536	76,640
158,589	-1,306	154,217	76,642
159,604	-1,044	154,175	76,749
160,619	-1,468	154,166	76,518
161,633	-0,984	153,939	76,649
162,648	-1,155	153,780	76,475
163,662	-1,325	153,885	76,432
164,677	-1,001	153,623	76,463
165,692	-1,147	153,741	76,439
166,706	-1,520	153,534	76,137
167,721	-0,825	153,304	76,374
168,735	-0,768	153,248	76,368
169,750	-1,074	153,259	76,209
170,764	-1,021	153,230	76,216
171,779	-0,856	153,008	76,183
172,794	-1,132	153,062	76,062
173,808	-0,855	152,719	76,026
174,823	-1,109	152,659	75,860
175,837	-0,867	152,550	75,922
176,852	-1,035	152,470	75,790
177,867	-1,060	152,487	75,779
178,881	-0,697	152,266	75,848
179,896	-0,740	152,138	75,755
180,910	-0,864	152,010	75,621
181,925	-0,839	151,848	75,547
182,940	-0,791	151,627	75,454
183,954	-0,824	151,641	75,438
184,969	-0,887	151,608	75,383
185,983	-0,552	151,596	75,540
186,998	-0,707	151,407	75,361
188,013	-0,578	151,166	75,299
189,027	-0,828	151,151	75,159
190,042	-0,719	151,052	75,158
191,056	-0,452	150,882	75,201
192,071	-0,853	150,765	74,934
193,086	-0,442	150,660	75,082
194,100	-0,420	150,507	75,010
195,115	-0,739	150,542	74,861
196,129	-0,735	150,406	74,788
197,144	-0,967	150,180	74,553
198,159	-0,699	150,264	74,722
199,173	-0,722	150,070	74,608
200,188	-0,746	149,949	74,529
201,202	-0,918	149,885	74,405
202,217	-0,383	149,700	74,573
203,232	-0,796	149,762	74,391
204,246	-0,548	149,476	74,366
205,261	-0,966	149,434	74,130
206,275	-0,454	149,390	74,357
207,290	-0,640	149,269	74,198
208,304	-0,454	149,067	74,183
209,319	-0,513	149,010	74,119
210,334	-0,544	148,975	74,080
211,348	-0,554	148,688	73,925
212,363	-0,487	148,597	73,907
213,377	-0,557	148,721	73,927
214,392	-0,672	148,690	73,847
215,407	-0,229	148,441	73,937
216,421	-0,237	148,349	73,881
217,436	-0,506	148,266	73,699
218,450	-0,728	148,196	73,549
219,465	-0,609	148,087	73,547
220,480	-0,460	147,910	73,525
221,494	-0,647	147,884	73,414
222,509	-0,601	147,841	73,408
223,523	-0,390	147,684	73,428
224,538	-0,434	147,498	73,307
225,553	-0,465	147,350	73,212
226,567	-0,433	147,253	73,173
227,582	-0,395	147,277	73,197
228,596	-0,118	147,057	73,217
229,611	0,007	146,861	73,174
230,626	-0,456	146,998	73,009
231,640	-0,416	146,771	72,909
232,655	-0,263	146,711	72,948
233,669	-0,338	146,584	72,842
234,684	-0,447	146,621	72,800
235,699	-0,252	146,452	72,805
236,713	-0,648	146,530	72,644
237,728	-0,209	146,252	72,713
238,742	-0,578	146,180	72,491
239,757	-0,122	146,036	72,635
240,772	-0,182	145,914	72,539
241,786	-0,125	145,860	72,533
242,801	-0,148	145,751	72,462
243,815	-0,236	145,686	72,380
244,830	-0,363	145,649	72,294
245,844	-0,199	145,493	72,289
246,859	-0,193	145,361	72,220
247,874	-0,296	145,237	72,103
248,888	-0,208	145,070	72,056
249,903	-0,224	145,122	72,067
250,917	0,062	145,048	72,162
251,932	-0,002	144,808	72,005
252,947	-0,397	144,933	71,871
253,961	-0,352	144,685	71,763
254,976	-0,205	144,585	71,778
255,990	-0,089	144,519	71,794
257,005	-0,321	144,366	71,601
258,020	-0,007	144,182	71,653
259,034	0,055	144,160	71,666
260,049	0,251	144,138	71,742
261,063	-0,096	144,077	71,540
262,078	-0,177	143,978	71,445
263,093	0,212	143,749	71,511
264,107	-0,133	143,897	71,413
265,122	-0,255	143,788	71,294
266,136	0,077	143,582	71,344
267,151	0,200	143,415	71,314
268,166	-0,046	143,324	71,145
269,180	-0,284	143,256	70,991
270,195	-0,137	143,127	70,991
271,209	-0,119	143,081	70,970
272,224	-0,056	143,019	70,963
273,239	0,129	142,957	71,014
274,253	-0,144	142,826	70,813
275,268	0,034	142,679	70,819
276,282	-0,021	142,526	70,710
277,297	-0,095	142,563	70,687
278,312	0,090	142,493	70,734
279,326	0,036	142,349	70,630
280,341	0,194	142,278	70,663
281,355	0,221	142,047	70,555
282,370	0,176	142,079	70,543
283,384	-0,176	142,060	70,362
284,399	0,055	141,811	70,341
285,414	0,303	141,837	70,464
286,428	0,193	141,837	70,407
287,443	0,285	141,652	70,351
288,457	0,182	141,595	70,268
289,472	0,316	141,378	70,217
290,487	0,299	141,267	70,148
291,501	0,321	141,284	70,160
292,516	0,443	141,102	70,121
293,530	0,085	141,109	69,951
294,545	0,365	140,986	70,014
295,560	-0,031	140,943	69,802
296,574	0,535	140,842	70,009
297,589	0,305	140,632	69,792
298,603	-0,095	140,620	69,593
299,618	-0,031	140,517	69,566
300,633	0,082	140,445	69,576
301,647	0,871	140,326	69,878
302,662	-0,019	140,342	69,466
303,676	0,357	140,094	69,511
304,691	0,530	139,996	69,537
305,706	0,290	139,994	69,419
306,720	0,347	139,806	69,346
307,735	0,236	139,775	69,273
308,749	0,472	139,790	69,383
309,764	0,428	139,573	69,248
310,779	0,504	139,489	69,236
311,793	0,368	139,452	69,149
312,808	0,393	139,329	69,093
313,822	0,340	139,272	69,034
314,837	0,359	139,111	68,957
315,852	0,716	139,220	69,169
316,866	0,748	138,955	69,046
317,881	0,516	138,965	68,938
318,895	0,247	138,759	68,707
319,910	0,568	138,625	68,781
320,925	0,516	138,507	68,693
321,939	0,425	138,467	68,625
322,954	0,421	138,437	68,602
323,968	0,099	138,518	68,489
324,983	0,528	138,278	68,560
325,997	0,549	138,138	68,494
327,012	0,635	138,054	68,486
328,027	0,105	138,128	68,274
329,041	0,175	137,995	68,234
330,056	0,618	137,799	68,333
331,070	0,506	137,708	68,231
332,085	0,726	137,766	68,353
333,100	0,628	137,514	68,178
334,114	0,541	137,483	68,117
335,129	0,652	137,369	68,105
336,143	0,495	137,267	67,977
337,158	0,778	137,201	68,067
338,173	1,118	137,095	68,162
339,187	0,609	136,975	67,866
340,202	0,932	136,809	67,924
341,216	0,583	136,800	67,755
342,231	0,973	136,756	67,904
343,246	0,665	136,706	67,734
344,260	0,641	136,602	67,665
345,275	0,689	136,557	67,659
346,289	0,758	136,470	67,640
347,304	0,393	136,368	67,420
348,319	1,013	136,172	67,596
349,333	0,864	136,076	67,475
350,348	1,125	135,963	67,530
351,362	0,540	136,059	67,309
352,377	0,776	135,799	67,280
353,392	0,775	135,836	67,292
354,406	1,002	135,645	67,293
355,421	195,059	1320,929	1393,670
356,435	153,583	1465,777	1394,139
