DTS Sentinel unit serial number:	SN410029Multiplexer serial number:	ORYXHardware model number:	OX2-SRSoftware version number:	ORYX F/W v4,00 Oryx Data Collector v3.7.2.0data status	okinstallation	B3 Nyhavnadifferential loss correction	single-endedforward channel	channel 1reverse channel	N/Adate	2023/11/28time	14:07:30forward acquisition time	300,00reverse acquisition time	0,00gamma	499,1914k internal	0,3140k external	0,3140temperature offset calibration	1,0000default loss term (dB/km)	0,3820temperature slope calibration	1,0000multiplexer offset coefficient	1,0000multiplexer slope coefficient	1,0000fibre end	0,00T internal ref (°C)	7,57T ext. ref 1 (°C)	-7,66T ext. ref 2 (°C)	-7,84length (m)	temperature (°C)	Stokes	anti-Stokes-744,400	698,577	-0,206	-0,403
-743,385	-200,000	-0,032	0,166
-742,371	670,796	-0,063	-0,121
-741,356	800,000	-0,097	0,237
-740,342	463,870	-0,083	-0,139
-739,327	800,000	-0,143	0,295
-738,312	621,414	-0,195	-0,365
-737,298	800,000	-0,092	0,277
-736,283	-200,000	-0,090	-0,374
-735,269	-200,000	-0,002	0,277
-734,254	-200,000	-0,011	-0,205
-733,239	-50,425	-0,276	0,096
-732,225	-200,000	-0,021	-0,247
-731,210	800,000	0,037	0,086
-730,196	436,271	0,012	0,020
-729,181	800,000	0,008	0,023
-728,167	-49,915	0,073	0,025
-727,152	1,789	-0,093	-0,049
-726,137	132,295	-0,069	0,066
-725,123	624,527	-0,049	-0,092
-724,108	-200,000	-0,038	-0,203
-723,094	-85,115	-0,096	0,022
-722,079	201,169	-0,076	-0,086
-721,064	17,820	0,073	0,043
-720,050	406,443	0,031	0,048
-719,035	305,482	-0,016	-0,021
-718,021	800,000	0,033	-0,079
-717,006	407,222	-0,042	-0,066
-715,991	-23,160	-0,091	-0,040
-714,977	702,344	-0,020	-0,039
-713,962	-31,470	-0,136	0,056
-712,948	106,155	0,108	-0,095
-711,933	21,417	-0,089	-0,053
-710,918	-35,089	0,075	-0,030
-709,904	800,000	0,012	0,032
-708,889	-105,467	-0,135	-0,023
-707,875	211,227	-0,046	-0,053
-706,860	-200,000	-0,003	-0,164
-705,845	316,317	0,062	0,087
-704,831	-200,000	0,029	0,171
-703,816	87,776	-0,035	0,028
-702,802	-56,406	-0,024	-0,008
-701,787	65,983	0,025	-0,019
-700,772	-50,956	-0,092	-0,032
-699,758	164,174	-0,041	0,042
-698,743	-178,354	0,076	-0,001
-697,729	-200,000	-0,016	0,083
-696,714	800,000	-0,040	0,126
-695,699	-200,000	0,023	-0,089
-694,685	303,909	-0,050	-0,068
-693,670	-158,246	-0,107	-0,005
-692,656	80,824	0,089	0,071
-691,641	-4,051	0,097	0,049
-690,627	-200,000	0,018	0,076
-689,612	296,938	-0,016	-0,022
-688,597	160,836	-0,056	-0,058
-687,583	125,863	-0,105	-0,099
-686,568	-81,626	0,104	-0,025
-685,554	-44,376	0,079	-0,029
-684,539	49,606	0,055	-0,038
-683,524	180,139	-0,076	0,083
-682,510	-200,000	-0,010	0,048
-681,495	-117,408	-0,162	-0,021
-680,481	-200,000	0,009	-0,087
-679,466	-37,746	-0,008	0,003
-678,451	-56,238	0,120	-0,039
-677,437	33,236	-0,073	-0,046
-676,422	15,082	0,152	0,088
-675,408	800,000	-0,035	0,078
-674,393	30,971	0,061	-0,039
-673,378	-98,152	-0,125	0,024
-672,364	-47,860	-0,066	-0,023
-671,349	-124,187	-0,029	-0,003
-670,335	-129,490	0,025	-0,003
-669,320	138,101	-0,105	0,102
-668,305	-79,142	0,098	-0,024
-667,291	240,617	-0,075	-0,093
-666,276	33,842	-0,040	-0,026
-665,262	-2,227	0,057	0,029
-664,247	77,585	0,030	-0,024
-663,232	-67,324	-0,116	0,034
-662,218	7,620	-0,020	0,011
-661,203	-200,000	-0,037	0,148
-660,189	-65,620	0,073	0,022
-659,174	800,000	-0,028	-0,075
-658,159	-109,088	0,113	0,018
-657,145	-25,443	-0,049	-0,021
-656,130	-92,864	-0,138	0,028
-655,116	-170,314	0,089	0,002
-654,101	105,224	0,125	0,109
-653,086	181,038	0,033	-0,036
-652,072	-200,000	-0,010	0,051
-651,057	163,312	-0,020	-0,021
-650,043	-26,008	-0,021	-0,009
-649,028	662,063	-0,021	0,041
-648,014	66,705	-0,126	-0,095
-646,999	258,350	0,062	-0,079
-645,984	-200,000	-0,013	-0,088
-644,970	14,648	0,019	0,011
-643,955	-200,000	-0,013	0,102
-642,941	5,919	-0,062	0,034
-641,926	101,093	-0,141	-0,121
-640,911	115,529	-0,035	0,032
-639,897	3,458	-0,109	0,058
-638,882	471,722	-0,021	0,035
-637,868	405,050	-0,023	0,036
-636,853	-136,585	-0,133	-0,011
-635,838	229,965	-0,036	0,044
-634,824	-3,253	0,075	0,039
-633,809	-121,534	0,055	0,007
-632,795	-200,000	0,029	0,229
-631,780	-7,441	-0,062	-0,031
-630,765	-200,000	0,006	0,124
-629,751	-108,181	0,100	-0,016
-628,736	429,835	-0,095	-0,152
-627,722	-71,453	-0,084	-0,023
-626,707	15,043	0,079	-0,045
-625,692	111,650	-0,014	0,012
-624,678	309,307	0,046	-0,063
-623,663	331,196	0,022	-0,031
-622,649	384,099	0,064	-0,098
-621,634	800,000	0,013	0,028
-620,619	-200,000	0,001	-0,030
-619,605	-200,000	0,011	-0,045
-618,590	19,398	0,107	-0,063
-617,576	800,000	-0,017	-0,052
-616,561	510,713	0,028	0,048
-615,546	489,357	-0,044	-0,074
-614,532	-1,113	-0,091	-0,047
-613,517	672,874	0,023	-0,045
-612,503	242,565	-0,071	0,088
-611,488	129,450	0,075	-0,071
-610,474	659,080	0,057	-0,109
-609,459	800,000	0,123	-0,288
-608,444	99,372	-0,088	-0,075
-607,430	-200,000	-0,018	-0,062
-606,415	-200,000	0,010	0,000
-605,401	151,179	0,080	-0,080
-604,386	167,870	0,034	-0,036
-603,371	25,775	0,115	-0,071
-602,357	800,000	-0,006	0,019
-601,342	170,820	0,017	0,018
-600,328	36,516	-0,067	-0,044
-599,313	800,000	0,014	0,040
-598,298	69,141	-0,019	0,015
-597,284	143,178	0,035	-0,034
-596,269	-47,236	0,095	0,034
-595,255	150,295	0,024	0,024
-594,240	-59,247	-0,072	0,023
-593,225	-200,000	-0,028	0,099
-592,211	19,577	-0,141	0,083
-591,196	-106,913	0,126	-0,020
-590,182	-132,571	0,140	0,013
-589,167	-200,000	0,016	0,099
-588,152	396,370	0,052	0,081
-587,138	29,762	-0,074	0,046
-586,123	-68,016	0,067	0,019
-585,109	-168,603	-0,090	-0,002
-584,094	800,000	0,052	0,120
-583,079	-200,000	-0,009	-0,051
-582,065	-200,000	0,004	0,037
-581,050	-72,405	0,077	0,021
-580,036	20,851	-0,074	0,044
-579,021	7,469	0,081	-0,045
-578,006	-95,809	-0,094	0,018
-576,992	-101,041	0,028	-0,005
-575,977	38,146	-0,053	0,034
-574,963	-200,000	-0,021	0,120
-573,948	-156,941	0,078	-0,003
-572,934	-77,857	0,052	-0,013
-571,919	800,000	0,034	-0,097
-570,904	-200,000	0,014	-0,101
-569,890	73,812	-0,077	-0,060
-568,875	41,710	-0,037	0,025
-567,861	474,971	0,008	-0,014
-566,846	470,541	-0,047	0,078
-565,831	502,297	-0,024	-0,041
-564,817	352,928	-0,090	-0,132
-563,802	547,485	-0,062	-0,110
-562,788	800,000	0,032	-0,085
-561,773	-200,000	0,021	-0,074
-560,758	143,164	-0,055	-0,054
-559,744	82,317	0,078	-0,062
-558,729	-200,000	0,002	0,027
-557,715	800,000	-0,034	0,081
-556,700	-46,155	-0,122	0,044
-555,685	800,000	0,003	-0,011
-554,671	-77,089	0,079	0,020
-553,656	-200,000	-0,044	0,149
-552,642	-200,000	0,001	0,134
-551,627	-34,217	0,138	0,055
-550,612	197,232	-0,098	0,111
-549,598	9,685	-0,061	0,034
-548,583	-176,952	-0,162	0,003
-547,569	442,051	-0,028	-0,046
-546,554	-200,000	0,003	0,038
-545,539	-71,183	-0,034	0,009
-544,525	-108,446	-0,141	0,022
-543,510	-200,000	0,012	-0,094
-542,496	-200,000	-0,013	-0,080
-541,481	-61,606	0,141	0,043
-540,466	276,942	0,101	-0,132
-539,452	-72,012	0,169	-0,046
-538,437	-108,634	0,137	-0,021
-537,423	800,000	-0,020	-0,051
-536,408	800,000	-0,043	-0,112
-535,393	756,099	0,070	-0,140
-534,379	138,616	0,051	-0,049
-533,364	29,651	-0,067	0,042
-532,350	-70,025	-0,067	-0,019
-531,335	-95,294	0,129	-0,025
-530,321	-39,535	0,183	-0,070
-529,306	108,667	0,014	0,012
-528,291	43,521	-0,052	0,035
-527,277	196,626	-0,103	-0,116
-526,262	23,955	0,082	0,049
-525,248	55,749	0,055	0,039
-524,233	105,175	-0,063	0,054
-523,218	-24,734	0,057	-0,025
-522,204	137,355	-0,085	0,081
-521,189	444,184	0,051	-0,082
-520,175	61,237	-0,107	0,078
-519,160	-59,621	0,137	-0,043
-518,145	-108,143	-0,077	0,012
-517,131	-200,000	-0,001	-0,102
-516,116	128,180	0,135	0,126
-515,102	-44,799	-0,144	0,052
-514,087	-200,000	-0,027	0,099
-513,072	-35,550	-0,097	0,039
-512,058	800,000	-0,022	0,049
-511,043	-200,000	-0,013	0,044
-510,029	-200,000	0,016	-0,077
-509,014	49,394	0,052	0,036
-507,999	318,466	-0,033	0,046
-506,985	93,044	-0,053	-0,044
-505,970	-88,464	-0,107	0,023
-504,956	800,000	-0,016	-0,046
-503,941	280,272	0,090	-0,119
-502,926	181,858	-0,048	0,052
-501,912	-46,426	0,099	-0,036
-500,897	800,000	0,044	0,122
-499,883	-200,000	0,018	-0,065
-498,868	-112,150	-0,089	-0,013
-497,853	800,000	0,003	-0,011
-496,839	72,209	0,020	0,015
-495,824	65,677	0,057	0,043
-494,810	800,000	0,020	0,064
-493,795	-179,410	-0,076	0,001
-492,781	-68,261	-0,114	0,032
-491,766	-69,856	-0,102	0,028
-490,751	-200,000	-0,002	-0,062
-489,737	-87,164	0,138	0,030
-488,722	364,273	0,048	0,071
-487,708	721,132	-0,043	-0,084
-486,693	30,453	0,096	0,060
-485,678	136,583	-0,096	-0,092
-484,664	800,000	0,017	-0,047
-483,649	-200,000	0,004	-0,143
-482,635	208,553	0,094	-0,109
-481,620	131,132	-0,054	0,051
-480,605	45,983	0,107	0,073
-479,591	299,589	0,020	0,026
-478,576	-86,987	0,117	0,026
-477,562	800,000	0,046	-0,125
-476,547	233,160	-0,103	-0,125
-475,532	439,240	0,049	0,078
-474,518	-200,000	-0,014	-0,071
-473,503	-200,000	-0,014	0,089
-472,489	215,679	-0,051	0,060
-471,474	-68,873	0,048	-0,013
-470,459	94,356	0,114	-0,095
-469,445	-115,700	0,038	-0,005
-468,430	139,093	-0,072	0,070
-467,416	317,840	-0,042	0,059
-466,401	-44,942	0,115	0,042
-465,386	-200,000	-0,006	0,195
-464,372	2,704	-0,024	0,013
-463,357	-94,540	0,104	0,021
-462,343	51,946	0,044	-0,031
-461,328	-145,245	-0,146	0,010
-460,313	90,427	0,110	-0,090
-459,299	12,108	0,050	0,028
-458,284	-30,615	-0,187	0,077
-457,270	800,000	-0,027	0,066
-456,255	209,297	-0,033	-0,037
-455,241	-200,000	0,008	-0,149
-454,226	617,640	0,056	-0,103
-453,211	-32,257	-0,109	0,044
-452,197	-200,000	-0,026	0,108
-451,182	-156,515	-0,026	-0,001
-450,168	-38,801	-0,135	-0,052
-449,153	24,377	-0,113	-0,068
-448,138	-87,356	0,053	0,012
-447,124	32,364	-0,083	0,053
-446,109	-200,000	-0,001	0,003
-445,095	565,287	0,008	-0,014
-444,080	-145,904	0,137	0,009
-443,065	428,637	0,032	-0,050
-442,051	800,000	0,058	-0,164
-441,036	392,230	0,072	-0,110
-440,022	-68,680	-0,206	-0,058
-439,007	40,427	-0,106	-0,070
-437,992	481,655	0,007	0,012
-436,978	-1,403	0,151	0,078
-435,963	244,272	0,038	0,046
-434,949	88,906	-0,049	0,040
-433,934	-57,725	-0,103	-0,033
-432,919	-200,000	-0,001	-0,063
-431,905	474,446	0,059	0,097
-430,890	267,492	0,100	0,128
-429,876	800,000	-0,009	0,025
-428,861	-114,125	-0,066	0,009
-427,846	-200,000	-0,032	-0,117
-426,832	117,276	0,087	-0,078
-425,817	583,346	-0,042	-0,076
-424,803	269,053	0,044	0,057
-423,788	800,000	-0,056	0,164
-422,773	-21,454	0,062	-0,028
-421,759	56,589	-0,011	0,008
-420,744	-18,866	0,075	-0,034
-419,730	182,741	0,077	0,083
-418,715	168,942	-0,075	0,078
-417,701	800,000	0,063	0,136
-416,686	-200,000	0,007	0,197
-415,671	-200,000	-0,000	-0,078
-414,657	182,273	-0,082	-0,089
-413,642	354,562	-0,056	0,082
-412,628	-11,812	0,084	0,040
-411,613	185,451	-0,081	-0,089
-410,598	614,307	-0,052	0,096
-409,584	-200,000	-0,010	0,048
-408,569	572,265	-0,045	0,081
-407,555	496,259	-0,021	0,035
-406,540	312,520	0,061	0,084
-405,525	440,437	-0,051	-0,082
-404,511	-87,891	0,058	-0,013
-403,496	26,362	-0,092	-0,056
-402,482	-56,827	0,052	0,017
-401,467	70,687	0,017	-0,013
-400,452	-45,537	0,023	0,008
-399,438	-200,000	0,002	0,103
-398,423	-85,815	0,141	0,032
-397,409	-159,646	-0,106	0,004
-396,394	82,330	-0,059	0,047
-395,379	-184,847	-0,191	0,002
-394,365	-200,000	-0,014	0,047
-393,350	-29,379	0,089	-0,037
-392,336	800,000	-0,015	0,032
-391,321	-200,000	-0,024	-0,092
-390,306	-200,000	0,013	-0,121
-389,292	-77,343	-0,100	-0,025
-388,277	-76,013	0,146	-0,037
-387,263	800,000	0,018	-0,037
-386,248	-39,304	0,040	-0,015
-385,233	-56,828	0,024	0,008
-384,219	-200,000	0,004	0,131
-383,204	-200,000	0,031	0,109
-382,190	800,000	0,040	-0,113
-381,175	-200,000	0,010	-0,094
-380,160	-162,940	0,007	0,000
-379,146	147,765	0,115	0,113
-378,131	-115,749	0,053	-0,007
-377,117	73,654	0,015	0,011
-376,102	19,627	0,082	-0,048
-375,088	-148,591	-0,116	-0,007
-374,073	800,000	-0,025	-0,066
-373,058	161,983	0,141	0,144
-372,044	-200,000	0,008	-0,086
-371,029	141,649	-0,084	0,081
-370,015	21,459	-0,124	0,073
-369,000	-55,923	-0,057	-0,019
-367,985	76,758	0,022	0,017
-366,971	800,000	-0,029	-0,060
-365,956	800,000	0,038	-0,092
-364,942	-24,541	-0,058	-0,025
-363,927	-200,000	0,016	0,152
-362,912	204,278	0,051	-0,057
-361,898	349,135	0,031	0,045
-360,883	800,000	-0,079	-0,181
-359,869	162,821	-0,016	-0,016
-358,854	-200,000	-0,026	0,229
-357,839	18,086	0,086	-0,050
-356,825	-130,456	0,113	0,011
-355,810	-63,020	0,075	0,023
-354,796	-200,000	-0,014	-0,083
-353,781	45,601	-0,083	0,056
-352,766	360,089	-0,016	-0,023
-351,752	-200,000	0,056	-0,190
-350,737	-84,268	0,103	-0,024
-349,723	538,445	0,032	-0,056
-348,708	52,624	0,043	0,030
-347,693	-200,000	0,004	-0,032
-346,679	800,000	-0,055	-0,159
-345,664	766,509	0,087	-0,174
-344,650	-82,698	-0,082	0,019
-343,635	-200,000	-0,053	-0,177
-342,620	-200,000	0,033	-0,168
-341,606	-200,000	0,024	-0,114
-340,591	800,000	0,035	-0,072
-339,577	-15,950	0,051	-0,024
-338,562	113,906	-0,093	-0,083
-337,548	194,306	0,005	-0,005
-336,533	-37,719	-0,047	-0,018
-335,518	168,909	-0,042	0,044
-334,504	-135,082	0,150	-0,013
-333,489	179,490	0,020	-0,022
-332,475	-44,829	-0,156	-0,056
-331,460	-200,000	0,015	0,100
-330,445	160,136	0,078	0,079
-329,431	169,161	0,135	0,141
-328,416	136,233	0,101	0,096
-327,402	354,780	0,151	0,219
-326,387	-11,637	0,132	-0,063
-325,372	250,452	-0,122	-0,152
-324,358	800,000	-0,041	-0,114
-323,343	-25,597	0,046	-0,020
-322,329	-200,000	-0,015	0,142
-321,314	87,746	0,101	-0,082
-320,299	800,000	0,050	-0,141
-319,285	331,268	0,032	0,046
-318,270	-98,069	0,092	-0,017
-317,256	-200,000	0,043	-0,189
-316,241	370,954	0,028	0,042
-315,226	-82,115	0,076	0,018
-314,212	800,000	0,037	-0,075
-313,197	-200,000	-0,026	-0,102
-312,183	-200,000	-0,000	-0,179
-311,168	-92,312	0,050	-0,010
-310,153	360,262	-0,094	-0,138
-309,139	-144,176	0,132	-0,009
-308,124	50,184	-0,086	0,059
-307,110	-42,222	0,118	0,044
-306,095	182,211	0,113	0,122
-305,080	109,835	0,117	-0,103
-304,066	61,009	0,036	0,026
-303,051	99,053	0,023	0,019
-302,037	-200,000	0,008	0,035
-301,022	800,000	-0,017	0,042
-300,008	-200,000	0,022	0,089
-298,993	504,633	0,030	0,050
-297,978	59,851	-0,093	0,067
-296,964	577,338	0,018	0,032
-295,949	-10,549	0,065	-0,031
-294,935	125,021	-0,040	-0,037
-293,920	-29,272	0,074	-0,031
-292,905	-44,052	-0,112	0,041
-291,891	266,842	0,031	0,039
-290,876	-200,000	-0,007	0,041
-289,862	127,128	-0,124	0,115
-288,847	-51,514	-0,115	0,039
-287,832	2,755	-0,094	-0,049
-286,818	100,954	-0,067	0,057
-285,803	46,188	0,023	-0,015
-284,789	-35,163	-0,044	-0,017
-283,774	800,000	-0,073	0,190
-282,759	27,090	-0,076	-0,046
-281,745	128,846	0,097	0,090
-280,730	-2,100	-0,227	-0,116
-279,716	292,719	0,014	0,019
-278,701	107,964	-0,053	-0,046
-277,686	349,094	-0,091	0,132
-276,672	-200,000	0,004	-0,047
-275,657	-200,000	0,005	-0,019
-274,643	-200,000	-0,007	-0,080
-273,628	122,892	-0,104	-0,095
-272,613	-200,000	0,014	-0,049
-271,599	23,768	-0,115	0,069
-270,584	800,000	0,041	0,105
-269,570	-200,000	-0,008	0,065
-268,555	242,246	-0,118	0,145
-267,540	628,413	-0,039	-0,072
-266,526	-200,000	-0,008	-0,040
-265,511	106,348	-0,136	0,117
-264,497	-121,135	-0,133	-0,016
-263,482	-19,951	0,144	0,064
-262,467	494,190	-0,054	-0,091
-261,453	624,087	0,032	-0,059
-260,438	-134,830	-0,083	0,007
-259,424	112,359	0,041	-0,036
-258,409	-48,344	0,037	0,013
-257,395	800,000	-0,025	-0,075
-256,380	120,404	0,106	0,096
-255,365	-200,000	0,029	0,222
-254,351	283,755	0,033	0,043
-253,336	721,596	-0,020	0,039
-252,322	800,000	0,051	0,134
-251,307	-69,393	-0,123	-0,034
-250,292	163,770	0,055	0,056
-249,278	159,958	0,176	0,178
-248,263	-82,298	0,155	0,036
-247,249	-50,373	0,007	-0,002
-246,234	800,000	-0,031	0,066
-245,219	-200,000	-0,002	0,031
-244,205	83,061	-0,033	0,026
-243,190	-121,661	0,136	0,016
-242,176	-34,643	0,070	-0,028
-241,161	-200,000	0,009	0,040
-240,146	351,405	-0,061	0,088
-239,132	411,033	-0,080	-0,124
-238,117	127,363	-0,055	-0,051
-237,103	282,369	0,069	-0,090
-236,088	800,000	-0,019	0,044
-235,073	-61,979	0,119	-0,036
-234,059	354,056	-0,091	0,131
-233,044	45,057	0,096	0,064
-232,030	151,904	-0,112	0,111
-231,015	103,268	-0,087	-0,074
-230,000	28,816	-0,151	-0,093
-228,986	-200,000	0,015	0,125
-227,971	-145,516	0,054	-0,003
-226,957	158,926	-0,034	-0,035
-225,942	-200,000	0,011	-0,094
-224,927	307,630	0,054	-0,073
-223,913	164,219	0,032	0,033
-222,898	98,136	-0,116	-0,097
-221,884	-200,000	0,017	-0,069
-220,869	385,855	0,108	0,163
-219,855	-148,218	-0,049	-0,003
-218,840	-112,770	-0,033	0,005
-217,825	15,613	0,046	0,026
-216,811	800,000	0,065	-0,169
-215,796	187,457	0,046	-0,050
-214,782	-5,567	-0,113	0,056
-213,767	377,975	0,048	0,072
-212,752	26,389	0,051	0,031
-211,738	2,681	0,074	-0,039
-210,723	-200,000	-0,015	0,178
-209,709	166,831	-0,063	0,065
-208,694	38,632	-0,140	-0,090
-207,679	-121,827	-0,111	0,013
-206,665	-25,525	0,166	0,071
-205,650	509,060	-0,066	-0,111
-204,636	-200,000	-0,015	0,085
-203,621	-200,000	0,008	-0,107
-202,606	-0,691	-0,097	-0,050
-201,592	-200,000	-0,036	0,125
-200,577	515,721	0,047	-0,081
-199,563	-200,000	-0,021	0,134
-198,548	-200,000	-0,012	-0,041
-197,533	-200,000	0,015	-0,068
-196,519	800,000	0,031	-0,091
-195,504	-179,587	-0,127	0,002
-194,490	800,000	0,051	-0,145
-193,475	-200,000	-0,013	0,092
-192,460	21,511	-0,026	0,016
-191,446	800,000	0,060	-0,136
-190,431	101,170	0,024	0,021
-189,417	-200,000	-0,001	-0,008
-188,402	-58,521	-0,016	-0,005
-187,387	-200,000	-0,030	0,129
-186,373	-86,031	-0,058	-0,013
-185,358	-168,759	0,056	-0,001
-184,344	652,921	-0,007	-0,013
-183,329	-40,535	-0,083	0,031
-182,315	38,733	0,110	-0,071
-181,300	577,225	-0,010	0,018
-180,285	107,389	-0,059	0,051
-179,271	138,260	0,089	-0,085
-178,256	800,000	-0,036	0,081
-177,242	-200,000	-0,003	0,127
-176,227	-67,422	0,120	0,034
-175,212	108,384	-0,128	0,111
-174,198	59,586	-0,087	0,062
-173,183	686,959	-0,020	0,038
-172,169	800,000	-0,059	-0,148
-171,154	194,944	-0,039	-0,043
-170,139	-116,492	0,060	0,008
-169,125	-200,000	0,007	0,078
-168,110	-200,000	-0,001	0,095
-167,096	-96,606	0,044	-0,008
-166,081	-200,000	-0,005	-0,085
-165,066	5,934	0,018	0,009
-164,052	-172,375	-0,158	0,004
-163,037	54,796	-0,102	0,071
-162,023	229,727	0,089	0,105
-161,008	-109,520	0,109	0,016
-159,993	-200,000	-0,007	0,062
-158,979	-200,000	0,026	-0,112
-157,964	-12,643	-0,105	0,049
-156,950	86,151	-0,073	-0,058
-155,935	255,153	0,055	0,069
-154,920	-134,660	0,059	-0,005
-153,906	-200,000	0,012	-0,088
-152,891	143,977	-0,106	0,103
-151,877	-200,000	0,004	0,093
-150,862	56,686	0,069	-0,049
-149,847	800,000	0,032	-0,097
-148,833	2,726	0,225	0,118
-147,818	106,790	0,094	0,081
-146,804	41,326	0,051	0,034
-145,789	144,617	-0,070	-0,068
-144,775	-55,055	-0,085	-0,027
-143,760	95,859	0,111	-0,092
-142,745	-97,519	-0,154	0,029
-141,731	6,594	0,091	0,049
-140,716	-71,639	0,105	-0,028
-139,702	69,158	-0,133	-0,099
-138,687	2,399	0,096	-0,050
-137,672	-9,780	-0,136	0,065
-136,658	222,297	0,080	-0,094
-135,643	5,768	0,078	-0,041
-134,629	642,098	-0,037	0,068
-133,614	-200,000	-0,016	0,065
-132,599	-12,205	-0,106	-0,050
-131,585	-200,000	0,015	-0,062
-130,570	-161,310	-0,203	0,007
-129,556	462,663	-0,047	-0,076
-128,541	800,000	-0,061	-0,160
-127,526	-200,000	-0,012	-0,066
-126,512	-34,399	0,093	0,037
-125,497	-92,501	-0,049	0,010
-124,483	30,483	0,107	0,066
-123,468	7,272	-0,101	0,054
-122,453	-2,660	-0,066	-0,033
-121,439	102,920	-0,089	0,075
-120,424	-200,000	0,010	-0,096
-119,410	-72,705	0,151	-0,040
-118,395	152,915	-0,115	0,114
-117,380	670,852	0,029	0,055
-116,366	15,554	-0,096	0,055
-115,351	-104,691	0,069	-0,011
-114,337	32,727	-0,056	0,035
-113,322	-115,354	0,068	-0,009
-112,307	85,777	0,010	-0,008
-111,293	365,763	-0,059	0,087
-110,278	-200,000	-0,036	0,168
-109,264	659,174	0,053	0,098
-108,249	-200,000	0,002	0,147
-107,234	705,430	-0,049	-0,093
-106,220	222,409	0,056	-0,065
-105,205	409,391	0,067	0,103
-104,191	-200,000	-0,020	0,094
-103,176	800,000	0,062	0,177
-102,162	310,746	0,090	0,122
-101,147	-62,258	-0,184	-0,055
-100,132	-200,000	-0,027	-0,121
-99,118	-105,968	-0,068	-0,011
-98,103	-39,131	-0,072	-0,027
-97,089	-200,000	0,010	0,038
-96,074	259,734	0,075	-0,093
-95,059	-34,034	-0,032	-0,013
-94,045	534,764	-0,054	-0,093
-93,030	-200,000	0,018	0,091
-92,016	330,733	-0,059	0,083
-91,001	-104,908	-0,172	-0,028
-89,986	-44,206	0,022	0,008
-88,972	187,008	-0,018	-0,020
-87,957	-116,165	-0,084	-0,011
-86,943	-39,777	0,045	0,017
-85,928	-110,036	0,075	0,011
-84,913	145,301	-0,062	-0,060
-83,899	-54,541	-0,055	-0,018
-82,884	-200,000	0,025	0,126
-81,870	-17,420	0,193	0,087
-80,855	-137,092	-0,173	0,014
-79,840	8,650	-0,127	0,069
-78,826	15,098	0,121	-0,068
-77,811	800,000	-0,020	-0,044
-76,797	-115,092	0,045	-0,006
-75,782	1,565	-0,111	0,057
-74,767	-135,501	-0,083	-0,007
-73,753	800,000	0,045	0,122
-72,738	214,470	-0,064	0,073
-71,724	800,000	0,035	-0,100
-70,709	215,926	0,075	-0,086
-69,694	128,547	-0,122	-0,112
-68,680	-200,000	-0,025	0,140
-67,665	-28,339	0,022	-0,009
-66,651	13,738	0,131	0,073
-65,636	-200,000	-0,010	0,118
-64,622	800,000	0,054	-0,153
-63,607	-200,000	-0,015	-0,151
-62,592	167,762	0,054	0,056
-61,578	166,371	-0,064	0,066
-60,563	580,559	0,048	-0,084
-59,549	-200,000	0,002	0,062
-58,534	44,476	-2,368	-1,567
-57,519	421,821	-1,170	-1,818
-56,505	-200,000	-0,263	-4,323
-55,490	619,721	0,924	1,682
-54,476	800,000	5,265	11,492
-53,461	-200,000	22,704	349,157
-52,446	800,000	756,397	2284,963
-51,432	500,290	1637,393	2735,685
-50,417	65,851	1566,740	1144,670
-49,403	18,236	1153,817	662,674
-48,388	10,729	883,089	484,702
-47,373	26,768	851,814	513,618
-46,359	16,680	837,336	476,449
-45,344	7,639	833,233	448,520
-44,330	7,465	831,655	447,159
-43,315	7,408	830,295	446,247
-42,300	7,536	828,926	445,858
-41,286	7,494	827,899	445,170
-40,271	7,435	826,943	444,471
-39,257	7,493	825,907	444,060
-38,242	7,510	825,054	443,631
-37,227	7,527	824,342	443,279
-36,213	7,492	823,464	442,690
-35,198	7,531	822,674	442,356
-34,184	7,613	822,130	442,276
-33,169	7,485	821,175	441,386
-32,154	7,630	820,652	441,494
-31,140	7,649	819,219	440,758
-30,125	7,642	818,491	440,330
-29,111	7,535	817,992	439,747
-28,096	7,543	817,656	439,569
-27,082	7,623	816,805	439,317
-26,067	7,626	815,949	438,847
-25,052	7,564	815,376	438,350
-24,038	7,562	814,725	437,979
-23,023	7,613	814,100	437,765
-22,009	7,631	813,356	437,398
-20,994	7,631	812,786	437,075
-19,979	7,747	812,026	436,970
-18,965	7,651	811,529	436,418
-17,950	7,680	811,102	436,252
-16,936	7,627	810,369	435,695
-15,921	7,555	809,994	435,277
-14,906	7,434	809,214	434,506
-13,892	7,525	808,838	434,540
-12,877	7,404	808,169	433,828
-11,863	7,463	807,623	433,681
-10,848	7,476	807,008	433,369
-9,833	7,575	806,620	433,415
-8,819	7,633	805,835	433,134
-7,804	7,664	805,128	432,823
-6,790	7,519	805,000	432,338
-5,775	7,521	804,643	432,135
-4,760	7,489	804,123	431,753
-3,746	7,437	803,550	431,284
-2,731	7,314	802,810	430,536
-1,717	7,307	802,505	430,337
-0,702	7,347	801,713	430,002
0,313	7,412	798,906	429,322
1,327	10,975	781,983	429,670
2,342	19,174	635,777	366,949
3,356	13,058	350,145	194,833
4,371	-15,926	236,113	107,930
5,386	-19,046	222,528	99,316
6,400	-19,012	218,082	97,349
7,415	-17,914	216,108	97,278
8,429	-19,176	214,972	95,822
9,444	-19,244	214,036	95,346
10,459	-19,109	213,551	95,221
11,473	-19,387	213,030	94,776
12,488	-19,087	212,685	94,834
13,502	-19,225	212,152	94,487
14,517	-19,163	211,652	94,301
15,531	-19,313	211,298	94,026
16,546	-19,184	211,115	94,029
17,561	-19,083	210,544	93,840
18,575	-18,973	210,522	93,902
19,590	-19,341	210,250	93,506
20,604	-19,015	210,035	93,638
21,619	-19,005	209,457	93,378
22,634	-19,432	209,339	93,010
23,648	-19,308	208,898	92,895
24,663	-19,248	208,698	92,841
25,677	-18,975	208,391	92,892
26,692	-19,121	208,347	92,759
27,707	-19,233	208,164	92,589
28,721	-19,078	207,748	92,507
29,736	-19,252	207,563	92,291
30,750	-19,085	207,355	92,310
31,765	-19,106	207,120	92,182
32,780	-19,095	206,963	92,112
33,794	-19,327	206,983	91,948
34,809	-19,234	206,529	91,804
35,823	-19,135	206,330	91,777
36,838	-19,088	206,129	91,713
37,853	-19,152	205,935	91,573
38,867	-19,201	205,657	91,407
39,882	-19,183	205,605	91,388
40,896	-19,204	205,333	91,244
41,911	-18,963	205,088	91,298
42,926	-19,125	204,969	91,122
43,940	-19,130	204,649	90,969
44,955	-19,405	204,566	90,730
45,969	-19,114	204,224	90,774
46,984	-18,994	204,154	90,820
47,999	-19,081	204,070	90,713
49,013	-18,791	203,796	90,786
50,028	-19,039	203,710	90,566
51,042	-19,163	203,485	90,371
52,057	-19,304	203,193	90,136
53,071	-19,206	203,126	90,166
54,086	-19,438	202,917	89,904
55,101	-19,150	202,794	90,041
56,115	-19,106	202,716	90,029
57,130	-19,232	202,380	89,784
58,144	-19,130	202,114	89,729
59,159	-19,254	201,909	89,545
60,174	-19,320	201,826	89,454
61,188	-19,049	201,475	89,478
62,203	-19,115	201,473	89,423
63,217	-19,182	201,237	89,264
64,232	-19,013	201,086	89,306
65,247	-19,137	200,830	89,099
66,261	-18,965	200,610	89,111
67,276	-19,070	200,438	88,955
68,290	-18,922	200,228	88,956
69,305	-19,075	200,242	88,849
70,320	-19,041	200,020	88,766
71,334	-19,113	199,808	88,614
72,349	-19,220	199,610	88,446
73,363	-19,256	199,292	88,272
74,378	-19,187	199,322	88,324
75,393	-19,142	199,070	88,236
76,407	-19,100	198,936	88,198
77,422	-18,991	198,626	88,126
78,436	-19,215	198,546	87,930
79,451	-19,054	198,156	87,859
80,466	-18,946	198,079	87,891
81,480	-19,224	197,905	87,617
82,495	-19,036	197,821	87,699
83,509	-18,748	197,677	87,823
84,524	-18,936	197,471	87,596
85,539	-18,763	197,220	87,594
86,553	-19,024	197,104	87,359
87,568	-19,118	197,009	87,245
88,582	-19,196	196,721	87,057
89,597	-18,935	196,651	87,194
90,611	-19,079	196,670	87,098
91,626	-19,161	196,391	86,911
92,641	-18,944	196,143	86,940
93,655	-19,070	195,894	86,737
94,670	-18,928	195,896	86,825
95,684	-19,072	195,805	86,680
96,699	-18,879	195,480	86,658
97,714	-19,219	195,428	86,400
98,728	-19,014	195,225	86,439
99,743	-19,020	195,080	86,364
100,757	-18,908	195,043	86,414
101,772	-19,066	194,662	86,133
102,787	-18,971	194,627	86,173
103,801	-19,123	194,443	85,982
104,816	-19,099	194,222	85,893
105,830	-19,095	194,223	85,889
106,845	-18,932	193,953	85,869
107,860	-18,826	193,806	85,867
108,874	-18,914	193,709	85,758
109,889	-19,096	193,387	85,487
110,903	-18,958	193,182	85,481
111,918	-19,197	193,095	85,276
112,933	-18,988	193,005	85,367
113,947	-19,291	192,930	85,126
114,962	-19,059	192,791	85,210
115,976	-19,150	192,679	85,093
116,991	-18,891	192,309	85,092
118,006	-19,039	192,115	84,902
119,020	-18,935	192,263	85,028
120,035	-19,001	192,018	84,869
121,049	-18,836	191,893	84,914
122,064	-18,893	191,621	84,749
123,079	-19,181	191,657	84,569
124,093	-19,071	191,334	84,491
125,108	-18,857	191,188	84,558
126,122	-18,971	191,128	84,450
127,137	-18,800	190,884	84,446
128,151	-18,868	190,810	84,362
129,166	-18,943	190,624	84,223
130,181	-18,681	190,364	84,271
131,195	-18,912	190,256	84,065
132,210	-19,139	190,200	83,886
133,224	-18,983	190,010	83,896
134,239	-18,807	189,771	83,897
135,254	-18,885	189,680	83,798
136,268	-18,972	189,568	83,685
137,283	-18,839	189,237	83,617
138,297	-18,903	189,210	83,557
139,312	-18,766	188,904	83,502
140,327	-19,006	188,814	83,301
141,341	-19,086	188,676	83,181
142,356	-18,988	188,317	83,079
143,370	-18,046	188,832	83,905
144,385	-11,474	190,612	88,954
145,400	-4,723	192,080	94,036
146,414	-3,157	192,357	95,184
147,429	-2,828	192,472	95,448
148,443	-2,471	192,301	95,587
149,458	-2,138	192,234	95,762
150,473	-2,185	192,168	95,689
151,487	-1,957	192,107	95,799
152,502	-2,082	191,838	95,575
153,516	-1,953	191,775	95,618
154,531	-2,020	191,676	95,517
155,546	-1,895	191,456	95,480
156,560	-1,660	191,291	95,542
157,575	-1,679	191,135	95,442
158,589	-1,885	191,005	95,236
159,604	-1,768	190,931	95,267
160,619	-1,841	190,794	95,143
161,633	-1,809	190,711	95,113
162,648	-1,646	190,500	95,104
163,662	-1,774	190,607	95,067
164,677	-1,613	190,422	95,069
165,692	-1,595	190,211	94,968
166,706	-1,705	190,181	94,873
167,721	-1,474	189,959	94,903
168,735	-1,565	190,003	94,858
169,750	-1,480	189,929	94,867
170,764	-1,557	189,848	94,769
171,779	-1,557	189,464	94,568
172,794	-1,633	189,401	94,480
173,808	-1,346	189,244	94,576
174,823	-1,619	188,997	94,270
175,837	-1,437	188,914	94,336
176,852	-1,298	188,823	94,371
177,867	-1,559	188,879	94,225
178,881	-1,607	188,681	94,086
179,896	-1,510	188,534	94,067
180,910	-1,416	188,262	93,982
181,925	-1,304	188,076	93,952
182,940	-1,275	187,884	93,867
183,954	-1,567	188,054	93,758
184,969	-1,629	187,977	93,672
185,983	-1,289	187,760	93,770
186,998	-1,191	187,552	93,720
188,013	-1,275	187,498	93,632
189,027	-1,447	187,290	93,411
190,042	-1,345	187,169	93,407
191,056	-1,264	187,060	93,395
192,071	-1,093	186,838	93,384
193,086	-1,297	186,861	93,258
194,100	-1,167	186,666	93,235
195,115	-1,349	186,580	93,068
196,129	-1,403	186,309	92,891
197,144	-1,334	186,181	92,862
198,159	-1,113	185,990	92,898
199,173	-1,216	185,949	92,804
200,188	-1,469	185,902	92,614
201,202	-1,243	185,748	92,670
202,217	-1,253	185,619	92,592
203,232	-1,225	185,448	92,515
204,246	-1,373	185,417	92,400
205,261	-1,254	184,979	92,247
206,275	-1,318	185,036	92,227
207,290	-1,128	184,981	92,310
208,304	-1,184	184,841	92,197
209,319	-1,329	184,694	92,026
210,334	-1,545	184,567	91,820
211,348	-1,367	184,365	91,822
212,363	-1,402	184,300	91,759
213,377	-1,150	184,103	91,809
214,392	-1,089	184,042	91,808
215,407	-0,909	183,987	91,884
216,421	-0,703	183,665	91,842
217,436	-0,908	183,629	91,690
218,450	-1,083	183,510	91,514
219,465	-0,979	183,362	91,496
220,480	-1,032	183,411	91,479
221,494	-0,803	183,091	91,453
222,509	-0,968	183,017	91,306
223,523	-1,060	182,999	91,233
224,538	-1,011	182,770	91,140
225,553	-1,012	182,742	91,117
226,567	-1,033	182,421	90,937
227,582	-1,059	182,516	90,960
228,596	-0,945	182,311	90,920
229,611	-0,950	182,164	90,835
230,626	-1,019	182,095	90,750
231,640	-0,982	181,879	90,657
232,655	-0,991	181,908	90,658
233,669	-1,075	181,694	90,492
234,684	-1,190	181,607	90,370
235,699	-1,037	181,499	90,402
236,713	-0,809	181,281	90,424
237,728	-0,974	181,307	90,328
238,742	-0,430	181,033	90,515
239,757	-0,954	181,092	90,217
240,772	-1,077	180,787	89,983
241,786	-0,835	180,629	90,043
242,801	-0,744	180,564	90,057
243,815	-1,196	180,628	89,807
244,830	-0,868	180,495	89,932
245,844	-0,683	180,342	89,960
246,859	-0,602	180,023	89,841
247,874	-1,011	180,029	89,589
248,888	-0,739	179,905	89,683
249,903	-0,627	179,761	89,672
250,917	-0,813	179,822	89,582
251,932	-0,429	179,581	89,685
252,947	-0,598	179,536	89,553
253,961	-0,644	179,325	89,412
254,976	-0,567	179,214	89,395
255,990	-0,663	179,091	89,268
257,005	-0,641	179,089	89,272
258,020	-0,880	178,896	89,024
259,034	-0,605	178,755	89,111
260,049	-0,747	178,656	88,969
261,063	-0,657	178,614	88,994
262,078	-0,709	178,365	88,831
263,093	-0,712	178,408	88,843
264,107	-0,619	178,130	88,752
265,122	-0,782	178,106	88,634
266,136	-0,631	178,017	88,672
267,151	-0,541	177,783	88,602
268,166	-0,626	177,592	88,448
269,180	-0,565	177,517	88,439
270,195	-0,684	177,464	88,334
271,209	-0,718	177,460	88,304
272,224	-0,580	177,243	88,270
273,239	-0,442	177,028	88,236
274,253	-0,498	177,065	88,214
275,268	-0,542	176,834	88,065
276,282	-0,283	176,747	88,167
277,297	-0,562	176,625	87,933
278,312	-0,463	176,608	87,976
279,326	-0,506	176,484	87,881
280,341	-0,483	176,447	87,868
281,355	-0,325	176,235	87,848
282,370	-0,434	175,963	87,640
283,384	-0,466	175,979	87,622
284,399	-0,646	175,895	87,466
285,414	-0,611	175,700	87,382
286,428	-0,526	175,624	87,386
287,443	-0,302	175,486	87,441
288,457	-0,377	175,413	87,353
289,472	-0,345	175,365	87,340
290,487	-0,431	175,150	87,175
291,501	-0,268	175,024	87,199
292,516	-0,405	175,032	87,115
293,530	-0,479	174,896	86,997
294,545	-0,249	174,589	86,971
295,560	-0,351	174,671	86,944
296,574	-0,026	174,400	86,991
297,589	-0,192	174,377	86,875
298,603	-0,403	174,237	86,674
299,618	-0,726	174,202	86,462
300,633	0,118	173,944	86,816
301,647	-0,199	173,995	86,650
302,662	-0,430	173,909	86,465
303,676	-0,363	173,709	86,396
304,691	-0,338	173,633	86,366
305,706	-0,041	173,348	86,388
306,720	-0,404	173,373	86,183
307,735	-0,088	173,308	86,326
308,749	-0,275	173,093	86,103
309,764	-0,060	173,075	86,210
310,779	-0,337	172,957	85,984
311,793	-0,157	172,885	86,044
312,808	-0,147	172,694	85,947
313,822	-0,407	172,607	85,747
314,837	-0,157	172,522	85,840
315,852	-0,014	172,377	85,843
316,866	0,107	172,263	85,848
317,881	-0,050	172,024	85,631
318,895	0,058	171,898	85,623
319,910	-0,332	171,922	85,404
320,925	-0,265	171,786	85,367
321,939	-0,314	171,837	85,356
322,954	-0,219	171,670	85,320
323,968	-0,123	171,534	85,300
324,983	-0,182	171,416	85,200
325,997	-0,315	171,251	85,035
327,012	-0,370	171,079	84,910
328,027	0,044	171,002	85,100
329,041	-0,307	171,014	84,898
330,056	-0,241	170,807	84,825
331,070	-0,213	170,735	84,798
332,085	-0,028	170,530	84,794
333,100	-0,022	170,462	84,756
334,114	0,148	170,372	84,800
335,129	-0,186	170,151	84,493
336,143	0,092	170,048	84,592
337,158	-0,091	169,903	84,409
338,173	-0,030	170,093	84,530
339,187	0,250	169,879	84,575
340,202	0,073	169,680	84,368
341,216	0,149	169,531	84,329
342,231	0,064	169,510	84,264
343,246	-0,002	169,367	84,148
344,260	0,081	169,299	84,153
345,275	0,257	169,130	84,161
346,289	0,376	169,024	84,167
347,304	0,224	169,059	84,092
348,319	0,199	168,821	83,952
349,333	0,147	168,715	83,863
350,348	-0,163	168,654	83,651
351,362	0,051	168,384	83,629
352,377	0,141	168,303	83,632
353,392	0,288	168,382	83,746
354,406	0,238	168,148	83,594
355,421	189,555	1325,640	1391,002
356,435	149,959	1467,095	1391,471
