DTS Sentinel unit serial number:	SN410029Multiplexer serial number:	ORYXHardware model number:	OX2-SRSoftware version number:	ORYX F/W v4,00 Oryx Data Collector v3.7.2.0data status	okinstallation	B3 Nyhavnadifferential loss correction	single-endedforward channel	channel 1reverse channel	N/Adate	2023/11/28time	13:42:30forward acquisition time	300,00reverse acquisition time	0,00gamma	499,1914k internal	0,3139k external	0,3139temperature offset calibration	1,0000default loss term (dB/km)	0,3820temperature slope calibration	1,0000multiplexer offset coefficient	1,0000multiplexer slope coefficient	1,0000fibre end	0,00T internal ref (°C)	7,75T ext. ref 1 (°C)	-7,59T ext. ref 2 (°C)	-7,77length (m)	temperature (°C)	Stokes	anti-Stokes-744,400	-14,177	-0,317	-0,151
-743,385	-200,000	0,032	0,247
-742,371	800,000	-0,093	-0,245
-741,356	-200,000	-0,015	0,328
-740,342	800,000	-0,065	-0,165
-739,327	657,258	0,090	0,172
-738,312	800,000	-0,157	-0,363
-737,298	-200,000	0,012	0,256
-736,283	275,084	-0,182	-0,239
-735,269	-200,000	-0,083	0,326
-734,254	800,000	-0,096	-0,288
-733,239	-5,089	-0,169	0,086
-732,225	-200,000	-0,003	-0,236
-731,210	198,235	0,164	0,186
-730,196	-200,000	-0,003	-0,046
-729,181	-200,000	-0,003	-0,103
-728,167	-200,000	-0,013	-0,174
-727,152	800,000	0,001	-0,003
-726,137	-116,931	-0,058	-0,008
-725,123	-200,000	0,006	-0,074
-724,108	-200,000	-0,011	-0,210
-723,094	198,106	-0,035	-0,040
-722,079	800,000	-0,035	-0,107
-721,064	280,077	-0,100	0,132
-720,050	800,000	-0,055	0,134
-719,035	608,912	0,043	0,080
-718,021	-89,662	-0,148	-0,032
-717,006	-200,000	0,006	-0,049
-715,991	-200,000	-0,031	-0,147
-714,977	-137,176	-0,182	-0,015
-713,962	-22,509	-0,053	0,024
-712,948	-58,743	-0,068	0,022
-711,933	25,977	-0,047	-0,029
-710,918	-200,000	-0,048	-0,236
-709,904	-110,691	-0,019	-0,003
-708,889	-169,300	-0,210	-0,006
-707,875	354,253	0,028	-0,041
-706,860	800,000	0,047	0,139
-705,845	-200,000	-0,001	-0,007
-704,831	-200,000	0,037	0,143
-703,816	148,566	-0,023	-0,023
-702,802	-75,558	-0,050	-0,013
-701,787	800,000	-0,024	-0,058
-700,772	-200,000	-0,007	0,029
-699,758	-76,607	-0,027	0,007
-698,743	47,490	-0,107	-0,074
-697,729	0,963	-0,065	0,034
-696,714	-106,620	-0,105	-0,017
-695,699	2,149	0,084	-0,045
-694,685	-49,677	-0,050	-0,017
-693,670	-200,000	-0,006	0,061
-692,656	-41,966	-0,046	-0,017
-691,641	563,789	0,023	0,041
-690,627	800,000	-0,033	-0,095
-689,612	508,975	0,011	-0,019
-688,597	-200,000	0,015	-0,092
-687,583	19,497	-0,101	-0,060
-686,568	-200,000	-0,009	-0,104
-685,554	-17,001	-0,100	-0,046
-684,539	-80,652	0,097	0,024
-683,524	430,661	-0,010	-0,017
-682,510	-106,301	0,063	-0,010
-681,495	800,000	-0,052	-0,152
-680,481	65,275	-0,071	-0,053
-679,466	800,000	-0,026	0,080
-678,451	-75,730	0,053	0,014
-677,437	-33,660	-0,078	-0,032
-676,422	34,066	-0,066	-0,042
-675,408	267,870	0,075	-0,098
-674,393	80,437	-0,124	0,099
-673,378	-114,940	-0,121	0,017
-672,364	800,000	-0,006	-0,014
-671,349	-37,887	0,103	0,040
-670,335	-115,187	-0,110	0,015
-669,320	170,853	0,122	0,129
-668,305	507,700	-0,065	0,112
-667,291	72,941	0,081	-0,063
-666,276	-200,000	-0,027	0,127
-665,262	-200,000	-0,011	-0,120
-664,247	94,367	-0,041	0,035
-663,232	-103,639	0,093	-0,016
-662,218	-53,626	0,115	-0,039
-661,203	-200,000	-0,002	0,091
-660,189	-13,487	0,048	0,023
-659,174	419,261	0,046	-0,073
-658,159	37,412	-0,089	-0,058
-657,145	-79,520	-0,093	-0,023
-656,130	-95,750	0,098	-0,019
-655,116	-200,000	0,003	0,029
-654,101	-141,214	-0,156	-0,012
-653,086	95,953	0,045	0,038
-652,072	592,323	-0,016	-0,030
-651,057	-125,021	-0,139	-0,016
-650,043	76,672	0,141	-0,110
-649,028	-200,000	-0,024	-0,107
-648,014	509,370	0,018	0,030
-646,999	-200,000	-0,040	0,138
-645,984	-90,817	0,096	-0,020
-644,970	-32,050	-0,152	-0,062
-643,955	108,037	0,056	-0,049
-642,941	-200,000	-0,004	-0,015
-641,926	-140,043	-0,025	-0,002
-640,911	16,840	0,017	0,010
-639,897	-200,000	0,002	0,106
-638,882	800,000	-0,029	-0,090
-637,868	-126,710	0,022	0,002
-636,853	292,106	-0,059	-0,079
-635,838	-200,000	-0,017	-0,094
-634,824	-200,000	-0,008	-0,053
-633,809	-200,000	0,011	0,115
-632,795	800,000	0,050	-0,108
-631,780	176,706	0,040	0,043
-630,765	-89,720	-0,086	0,018
-629,751	800,000	0,037	-0,100
-628,736	-200,000	0,018	-0,066
-627,722	-200,000	0,000	0,160
-626,707	-194,404	0,111	0,001
-625,692	-118,687	0,080	0,010
-624,678	-1,275	0,036	-0,018
-623,663	151,137	0,109	-0,109
-622,649	-173,465	0,025	-0,001
-621,634	700,659	-0,036	-0,071
-620,619	-41,554	-0,099	-0,037
-619,605	-122,901	0,041	0,005
-618,590	326,203	0,052	0,074
-617,576	-160,627	0,078	0,003
-616,561	-187,472	-0,068	-0,001
-615,546	800,000	0,074	-0,191
-614,532	538,296	0,034	-0,059
-613,517	-200,000	0,026	-0,088
-612,503	-40,345	0,150	0,057
-611,488	800,000	0,010	0,021
-610,474	800,000	-0,021	0,058
-609,459	-166,360	-0,049	0,002
-608,444	-200,000	-0,016	-0,151
-607,430	42,836	-0,052	0,035
-606,415	511,391	0,028	0,048
-605,401	312,429	0,039	-0,054
-604,386	57,273	-0,140	0,101
-603,371	-200,000	0,017	0,094
-602,357	-200,000	-0,010	0,067
-601,342	739,636	-0,032	-0,063
-600,328	169,523	0,043	0,045
-599,313	-99,397	0,064	0,012
-598,298	-81,851	0,053	0,013
-597,284	-200,000	-0,004	-0,038
-596,269	402,396	0,040	0,063
-595,255	800,000	0,046	0,132
-594,240	89,295	-0,013	-0,011
-593,225	-95,586	-0,130	-0,025
-592,211	73,451	-0,023	0,018
-591,196	317,804	0,039	0,055
-590,182	167,330	0,038	-0,040
-589,167	800,000	-0,017	-0,052
-588,152	-200,000	-0,007	0,141
-587,138	-91,425	-0,080	0,017
-586,123	-124,651	0,014	0,002
-585,109	14,196	0,027	0,016
-584,094	117,129	-0,016	0,014
-583,079	-140,929	-0,064	-0,005
-582,065	280,004	0,009	-0,012
-581,050	-46,907	0,060	0,022
-580,036	-200,000	0,020	0,077
-579,021	-200,000	0,023	-0,088
-578,006	627,839	0,041	-0,076
-576,992	-81,865	0,125	-0,030
-575,977	-200,000	0,004	-0,092
-574,963	28,862	0,024	0,015
-573,948	-48,152	0,060	-0,021
-572,934	296,202	0,012	-0,016
-571,919	73,772	-0,103	0,079
-570,904	800,000	0,026	-0,062
-569,890	-153,531	-0,091	-0,005
-568,875	-105,368	0,125	0,021
-567,861	168,903	0,029	0,030
-566,846	296,711	-0,113	0,153
-565,831	221,452	0,075	-0,089
-564,817	13,681	-0,040	0,023
-563,802	-200,000	0,016	0,092
-562,788	134,557	-0,071	-0,068
-561,773	23,506	-0,151	0,092
-560,758	800,000	0,040	0,092
-559,744	-200,000	0,006	0,115
-558,729	213,492	-0,061	0,071
-557,715	-62,041	0,121	0,037
-556,700	-200,000	-0,020	-0,122
-555,685	-84,882	-0,080	0,018
-554,671	323,723	0,055	0,077
-553,656	-69,711	0,175	-0,049
-552,642	-200,000	0,024	0,083
-551,627	-200,000	0,030	-0,107
-550,612	311,907	0,067	-0,093
-549,598	-69,173	-0,090	-0,025
-548,583	23,164	-0,024	-0,015
-547,569	143,714	0,116	-0,114
-546,554	102,784	0,148	0,128
-545,539	349,828	0,071	0,103
-544,525	199,261	0,020	0,023
-543,510	-200,000	-0,016	0,057
-542,496	-168,539	-0,201	-0,006
-541,481	357,601	-0,133	-0,196
-540,466	-172,966	-0,170	-0,004
-539,452	800,000	0,028	0,074
-538,437	-25,913	-0,099	0,043
-537,423	800,000	-0,036	-0,088
-536,408	-200,000	0,008	0,042
-535,393	474,329	0,026	-0,044
-534,379	-75,797	0,050	0,013
-533,364	131,314	0,034	0,032
-532,350	-40,171	0,110	0,042
-531,335	67,281	0,008	-0,006
-530,321	425,226	0,074	0,117
-529,306	-200,000	-0,014	0,053
-528,291	-22,882	-0,006	-0,003
-527,277	177,298	-0,077	-0,082
-526,262	224,656	0,058	0,069
-525,248	129,039	0,014	0,014
-524,233	-200,000	0,009	0,099
-523,218	77,472	-0,070	0,055
-522,204	-200,000	0,002	-0,006
-521,189	-62,041	0,191	-0,058
-520,175	-22,808	-0,115	-0,051
-519,160	-200,000	-0,020	-0,087
-518,145	67,162	-0,084	-0,063
-517,131	-54,945	0,074	-0,024
-516,116	-116,180	-0,076	0,010
-515,102	800,000	0,029	-0,074
-514,087	800,000	0,043	-0,108
-513,072	404,095	-0,049	-0,077
-512,058	-200,000	-0,004	0,036
-511,043	173,555	0,029	0,031
-510,029	-200,000	0,002	0,087
-509,014	798,815	-0,044	0,090
-507,999	-66,574	-0,060	0,017
-506,985	195,114	-0,051	0,057
-505,970	-200,000	0,014	-0,063
-504,956	320,335	0,096	0,135
-503,941	216,464	0,067	-0,078
-502,926	-108,859	-0,033	0,005
-501,912	-31,535	0,019	0,008
-500,897	226,059	-0,095	0,113
-499,883	148,943	0,052	-0,052
-498,868	8,435	0,041	0,023
-497,853	800,000	-0,030	0,064
-496,839	-118,527	0,121	-0,016
-495,824	581,121	-0,047	0,085
-494,810	-200,000	-0,001	-0,081
-493,795	-47,281	0,112	0,040
-492,781	-82,077	-0,138	0,033
-491,766	34,361	-0,148	-0,094
-490,751	29,530	-0,075	-0,047
-489,737	-200,000	-0,006	0,025
-488,722	68,525	0,163	-0,122
-487,708	-200,000	0,008	-0,142
-486,693	40,975	-0,073	0,048
-485,678	-62,553	0,048	-0,015
-484,664	-200,000	-0,013	-0,130
-483,649	-34,796	-0,049	0,020
-482,635	-200,000	-0,013	-0,112
-481,620	800,000	-0,027	-0,065
-480,605	773,925	-0,063	0,127
-479,591	-109,485	0,029	0,005
-478,576	-200,000	-0,017	0,086
-477,562	800,000	-0,026	-0,073
-476,547	-7,434	-0,166	-0,082
-475,532	-64,272	0,072	0,021
-474,518	800,000	-0,022	-0,047
-473,503	-22,462	0,075	0,033
-472,489	14,901	0,068	-0,039
-471,474	-200,000	-0,005	-0,075
-470,459	238,862	-0,088	-0,107
-469,445	-43,636	-0,122	-0,045
-468,430	-200,000	-0,001	-0,179
-467,416	113,861	0,049	0,044
-466,401	93,509	0,068	-0,056
-465,386	-69,836	0,084	0,023
-464,372	800,000	0,021	-0,066
-463,357	278,664	-0,006	0,008
-462,343	105,305	-0,100	-0,087
-461,328	-8,690	-0,085	-0,042
-460,313	800,000	-0,031	-0,096
-459,299	251,843	0,069	0,086
-458,284	-200,000	0,003	-0,109
-457,270	-188,580	-0,062	-0,001
-456,255	-200,000	-0,000	-0,037
-455,241	-20,405	-0,063	0,028
-454,226	766,218	-0,074	0,149
-453,211	-8,215	0,066	-0,032
-452,197	-200,000	0,019	0,077
-451,182	800,000	-0,101	0,228
-450,168	49,206	0,136	0,094
-449,153	7,348	-0,050	-0,028
-448,138	33,647	-0,050	-0,032
-447,124	63,971	-0,130	0,096
-446,109	-124,116	0,131	-0,015
-445,095	682,426	0,039	-0,074
-444,080	-168,168	0,066	0,002
-443,065	800,000	0,049	0,110
-442,051	-200,000	-0,005	0,026
-441,036	-160,173	-0,058	-0,002
-440,022	-139,796	0,034	0,003
-439,007	231,933	-0,038	0,046
-437,992	-200,000	-0,008	-0,108
-436,978	800,000	-0,016	0,040
-435,963	800,000	-0,035	0,113
-434,949	-58,614	-0,076	-0,024
-433,934	324,170	-0,049	-0,068
-432,919	318,774	0,086	0,119
-431,905	-185,327	0,030	-0,000
-430,890	76,967	0,068	-0,053
-429,876	-48,975	-0,094	0,033
-428,861	177,254	-0,030	-0,032
-427,846	-177,894	-0,081	0,001
-426,832	-200,000	0,016	-0,090
-425,817	800,000	-0,069	-0,155
-424,803	-200,000	0,029	-0,108
-423,788	800,000	0,021	-0,056
-422,773	-142,452	-0,042	0,003
-421,759	-188,311	0,035	0,000
-420,744	442,284	0,038	0,062
-419,730	-57,616	-0,128	-0,041
-418,715	786,356	-0,046	-0,092
-417,701	-108,926	-0,106	0,016
-416,686	317,826	-0,070	0,097
-415,671	-145,499	0,174	-0,011
-414,657	800,000	0,016	-0,051
-413,642	-22,269	0,105	-0,047
-412,628	-110,775	-0,099	0,015
-411,613	-96,167	-0,228	0,044
-410,598	-200,000	0,005	0,025
-409,584	309,717	0,033	0,045
-408,569	-88,109	0,080	-0,017
-407,555	-200,000	-0,012	0,050
-406,540	-200,000	0,013	-0,047
-405,525	-76,248	-0,026	0,007
-404,511	-147,101	-0,207	0,013
-403,496	474,832	0,032	-0,052
-402,482	-66,709	-0,091	0,026
-401,467	-200,000	0,012	-0,060
-400,452	446,964	-0,091	-0,147
-399,438	-200,000	0,041	-0,143
-398,423	19,234	-0,107	-0,063
-397,409	-200,000	-0,017	0,116
-396,394	107,785	-0,066	-0,058
-395,379	259,968	0,100	0,127
-394,365	125,710	0,147	0,136
-393,350	-4,650	-0,135	-0,068
-392,336	-24,580	0,146	0,063
-391,321	-33,140	0,049	0,020
-390,306	-109,985	-0,013	0,002
-389,292	45,573	0,183	-0,123
-388,277	-200,000	0,002	-0,097
-387,263	-200,000	0,005	0,074
-386,248	-48,022	-0,126	-0,044
-385,233	-200,000	0,014	0,196
-384,219	-1,009	-0,099	-0,051
-383,204	320,335	-0,022	-0,030
-382,190	-48,397	-0,246	-0,086
-381,175	145,815	0,006	-0,006
-380,160	-48,200	0,025	-0,009
-379,146	-110,134	0,057	-0,009
-378,131	-47,367	-0,054	0,019
-377,117	95,598	-0,046	0,038
-376,102	-52,271	-0,084	-0,028
-375,088	-200,000	-0,008	-0,049
-374,073	89,335	0,016	-0,013
-373,058	-93,386	0,179	-0,036
-372,044	-120,226	-0,166	0,021
-371,029	-200,000	-0,015	0,098
-370,015	800,000	0,024	-0,076
-369,000	50,229	-0,061	-0,042
-367,985	-200,000	0,033	-0,114
-366,971	19,022	-0,112	-0,065
-365,956	424,010	0,014	0,022
-364,942	1,698	0,054	0,028
-363,927	81,265	-0,074	-0,059
-362,912	34,156	0,032	0,020
-361,898	135,049	0,133	-0,126
-360,883	-35,988	-0,058	-0,023
-359,869	-74,328	0,087	-0,023
-358,854	62,789	0,137	-0,100
-357,839	800,000	0,048	0,106
-356,825	800,000	-0,014	-0,028
-355,810	707,438	0,076	0,147
-354,796	140,714	-0,053	0,051
-353,781	-200,000	-0,010	-0,054
-352,766	800,000	0,052	-0,137
-351,752	-4,627	-0,003	-0,001
-350,737	411,582	0,065	0,101
-349,723	61,927	0,080	-0,058
-348,708	45,783	0,060	0,040
-347,693	800,000	0,056	-0,131
-346,679	-120,650	0,108	0,013
-345,664	-139,511	-0,160	0,012
-344,650	-200,000	0,007	-0,035
-343,635	-7,782	0,011	-0,005
-342,620	306,902	-0,054	0,074
-341,606	800,000	0,033	-0,092
-340,591	-104,219	-0,127	0,021
-339,577	49,645	-0,058	-0,040
-338,562	-187,845	-0,129	-0,001
-337,548	-50,352	-0,094	-0,032
-336,533	644,774	-0,054	-0,101
-335,518	-165,622	0,177	0,005
-334,504	800,000	0,054	-0,134
-333,489	-2,025	-0,162	0,083
-332,475	800,000	0,051	-0,113
-331,460	251,578	-0,030	-0,038
-330,445	-102,731	-0,086	0,015
-329,431	76,480	0,173	0,134
-328,416	216,514	-0,051	0,059
-327,402	83,290	0,090	0,072
-326,387	800,000	-0,040	0,091
-325,372	-200,000	-0,002	-0,066
-324,358	-66,821	-0,128	-0,037
-323,343	-200,000	0,012	0,051
-322,329	-200,000	0,019	0,079
-321,314	-200,000	-0,047	0,172
-320,299	800,000	-0,008	0,026
-319,285	164,102	0,023	-0,024
-318,270	-200,000	-0,029	-0,114
-317,256	-70,584	-0,085	-0,023
-316,241	101,565	0,064	0,054
-315,226	-41,687	-0,054	-0,020
-314,212	-44,963	0,149	-0,054
-313,197	-142,048	0,184	0,013
-312,183	45,574	-0,062	0,042
-311,168	-200,000	-0,001	0,011
-310,153	-200,000	-0,014	0,072
-309,139	517,564	-0,016	0,027
-308,124	-200,000	-0,004	0,107
-307,110	94,445	0,099	0,082
-306,095	38,697	0,087	0,057
-305,080	800,000	-0,037	0,081
-304,066	-200,000	-0,027	-0,175
-303,051	399,218	-0,039	-0,059
-302,037	-200,000	-0,009	0,053
-301,022	-62,371	0,131	0,040
-300,008	90,680	-0,079	0,064
-298,993	-22,827	-0,103	0,045
-297,978	-64,509	0,108	-0,032
-296,964	-200,000	0,011	-0,090
-295,949	-139,330	-0,099	-0,008
-294,935	-163,931	-0,052	0,002
-293,920	-200,000	0,009	0,045
-292,905	-200,000	0,053	0,178
-291,891	-38,657	0,098	0,037
-290,876	202,915	-0,060	0,068
-289,862	-200,000	-0,008	0,069
-288,847	-200,000	0,009	-0,067
-287,832	358,487	-0,058	-0,085
-286,818	-42,417	-0,133	0,049
-285,803	58,855	0,090	0,064
-284,789	800,000	0,013	-0,029
-283,774	375,101	-0,089	0,133
-282,759	800,000	0,034	0,094
-281,745	-200,000	-0,002	-0,049
-280,730	-200,000	0,002	0,036
-279,716	800,000	-0,013	0,028
-278,701	-21,374	0,126	0,056
-277,686	-200,000	0,024	0,121
-276,672	-28,429	0,093	0,039
-275,657	-68,890	-0,048	-0,013
-274,643	-94,043	0,061	-0,012
-273,628	450,041	-0,052	-0,083
-272,613	800,000	-0,024	0,048
-271,599	-88,114	-0,097	-0,021
-270,584	20,995	-0,096	0,057
-269,570	-47,442	0,094	-0,033
-268,555	-200,000	-0,011	0,049
-267,540	-200,000	0,012	0,186
-266,526	-162,714	-0,065	-0,002
-265,511	6,205	-0,125	0,067
-264,497	-157,870	0,018	0,001
-263,482	-18,853	0,070	0,032
-262,467	140,563	0,050	-0,048
-261,453	489,860	-0,018	-0,030
-260,438	-200,000	-0,023	-0,078
-259,424	96,624	0,025	-0,021
-258,409	-200,000	-0,006	-0,059
-257,395	479,892	0,134	-0,222
-256,380	590,022	0,022	0,039
-255,365	-200,000	0,022	-0,074
-254,351	-200,000	-0,014	-0,121
-253,336	-60,339	-0,114	0,035
-252,322	134,614	0,017	-0,016
-251,307	800,000	0,086	0,176
-250,292	193,343	0,153	0,168
-249,278	272,247	0,029	0,037
-248,263	-200,000	0,004	0,160
-247,249	399,679	0,043	-0,066
-246,234	-200,000	0,002	-0,080
-245,219	146,621	0,069	-0,067
-244,205	-200,000	0,038	-0,125
-243,190	800,000	0,014	-0,032
-242,176	-37,525	0,022	-0,009
-241,161	657,534	0,038	0,071
-240,146	800,000	-0,017	-0,053
-239,132	-200,000	-0,018	-0,152
-238,117	-200,000	0,016	-0,133
-237,103	-99,794	-0,050	0,009
-236,088	-200,000	0,020	-0,141
-235,073	27,919	0,110	0,067
-234,059	264,671	-0,027	0,035
-233,044	-120,431	0,128	0,016
-232,030	338,462	0,048	0,068
-231,015	-5,236	-0,048	-0,024
-230,000	-200,000	0,037	-0,189
-228,986	29,747	-0,023	-0,014
-227,971	-200,000	0,013	0,118
-226,957	382,927	0,057	-0,086
-225,942	110,880	-0,046	-0,040
-224,927	-200,000	-0,018	-0,076
-223,913	-200,000	0,014	0,081
-222,898	306,371	-0,089	0,121
-221,884	-50,264	-0,198	-0,068
-220,869	666,822	0,079	0,150
-219,855	208,339	0,077	0,087
-218,840	800,000	-0,045	0,108
-217,825	240,308	-0,075	-0,091
-216,811	-61,777	-0,037	-0,011
-215,796	120,915	0,080	0,072
-214,782	-34,533	-0,028	0,011
-213,767	149,919	0,084	0,083
-212,752	157,607	-0,052	-0,052
-211,738	-99,369	0,113	-0,021
-210,723	-58,680	0,010	-0,003
-209,709	-22,463	-0,021	-0,009
-208,694	248,165	-0,012	0,015
-207,679	-71,894	0,031	-0,008
-206,665	775,235	-0,065	0,130
-205,650	86,351	0,040	-0,032
-204,636	67,973	-0,097	0,072
-203,621	99,920	0,067	0,057
-202,606	9,045	-0,038	0,021
-201,592	323,682	0,032	-0,044
-200,577	750,925	0,071	-0,140
-199,563	-132,660	-0,100	-0,009
-198,548	-75,199	-0,075	0,019
-197,533	140,172	0,018	0,017
-196,519	-200,000	0,003	0,162
-195,504	82,637	-0,070	-0,055
-194,490	-170,522	-0,096	0,002
-193,475	336,378	-0,046	0,065
-192,460	355,975	0,061	-0,089
-191,446	227,667	0,106	-0,126
-190,431	-200,000	-0,005	-0,028
-189,417	-200,000	0,002	-0,048
-188,402	178,981	0,029	-0,031
-187,387	120,663	-0,057	-0,052
-186,373	-138,582	0,134	-0,010
-185,358	481,079	0,057	-0,094
-184,344	599,626	0,066	0,120
-183,329	381,898	-0,024	-0,035
-182,315	571,173	0,056	0,099
-181,300	-118,689	0,047	0,006
-180,285	-200,000	-0,001	-0,004
-179,271	61,151	0,056	0,040
-178,256	-200,000	-0,023	0,190
-177,242	-200,000	0,006	0,140
-176,227	612,980	0,056	0,102
-175,212	-65,257	0,078	-0,023
-174,198	199,023	0,052	-0,057
-173,183	533,436	-0,103	-0,178
-172,169	21,815	-0,081	-0,048
-171,154	294,493	0,038	-0,050
-170,139	78,275	0,095	-0,074
-169,125	44,170	0,045	0,030
-168,110	-200,000	-0,017	0,108
-167,096	-121,250	-0,159	0,019
-166,081	162,039	-0,090	0,092
-165,066	114,903	-0,035	0,031
-164,052	340,285	0,029	-0,041
-163,037	19,727	0,032	0,019
-162,023	200,267	0,040	-0,045
-161,008	537,376	0,041	0,072
-159,993	-158,420	0,037	-0,002
-158,979	-8,831	0,030	-0,014
-157,964	205,739	-0,021	0,024
-156,950	-34,650	-0,084	0,033
-155,935	-200,000	0,009	-0,051
-154,920	-200,000	0,015	-0,108
-153,906	569,538	-0,058	0,103
-152,891	448,971	-0,075	0,120
-151,877	675,015	-0,042	0,080
-150,862	-87,509	-0,108	-0,024
-149,847	-200,000	0,006	0,049
-148,833	-31,630	-0,105	-0,042
-147,818	-200,000	0,004	-0,073
-146,804	800,000	0,015	-0,035
-145,789	17,615	0,144	-0,083
-144,775	800,000	-0,042	-0,114
-143,760	247,889	-0,057	0,069
-142,745	62,014	0,015	-0,011
-141,731	-90,610	-0,134	-0,028
-140,716	267,938	0,046	-0,059
-139,702	291,329	-0,078	0,103
-138,687	232,040	-0,046	-0,055
-137,672	-8,637	-0,104	-0,050
-136,658	800,000	0,015	0,039
-135,643	36,251	0,051	-0,033
-134,629	354,245	0,048	0,070
-133,614	-133,316	0,083	-0,007
-132,599	-46,423	0,014	0,005
-131,585	167,287	0,091	0,094
-130,570	800,000	0,013	0,033
-129,556	98,071	0,087	-0,072
-128,541	85,717	-0,106	-0,084
-127,526	242,466	0,071	-0,086
-126,512	730,939	-0,014	0,028
-125,497	14,108	-0,095	0,054
-124,483	-130,074	0,063	0,006
-123,468	-200,000	0,014	-0,102
-122,453	361,580	-0,057	0,083
-121,439	-72,521	-0,066	0,017
-120,424	82,138	0,086	-0,068
-119,410	135,326	0,111	-0,105
-118,395	800,000	0,007	-0,018
-117,380	237,991	0,035	0,042
-116,366	534,756	0,068	-0,118
-115,351	108,213	-0,109	-0,094
-114,337	-19,651	-0,044	-0,020
-113,322	161,847	0,097	0,098
-112,307	36,302	-0,009	0,006
-111,293	5,985	0,033	0,017
-110,278	-145,643	0,071	-0,005
-109,264	-11,061	-0,061	-0,029
-108,249	443,891	0,046	-0,073
-107,234	94,000	0,075	-0,061
-106,220	-92,777	-0,047	-0,010
-105,205	-74,344	0,030	0,008
-104,191	-114,717	0,156	0,021
-103,176	-62,863	0,069	0,020
-102,162	-54,361	-0,079	-0,026
-101,147	800,000	0,026	0,060
-100,132	438,649	-0,063	-0,100
-99,118	449,197	0,065	0,105
-98,103	26,803	0,092	0,055
-97,089	-17,038	0,060	-0,027
-96,074	-173,383	0,186	0,004
-95,059	482,239	-0,032	-0,054
-94,045	-97,089	0,040	0,008
-93,030	-138,706	-0,151	0,012
-92,016	-80,805	-0,111	0,027
-91,001	266,263	-0,059	0,074
-89,986	147,903	0,088	0,086
-88,972	-200,000	-0,009	0,137
-87,957	94,538	-0,037	-0,030
-86,943	-200,000	0,012	0,068
-85,928	-200,000	0,001	-0,092
-84,913	-45,865	-0,089	-0,032
-83,899	-200,000	-0,022	-0,100
-82,884	-63,163	0,097	0,029
-81,870	800,000	-0,071	0,160
-80,855	-200,000	-0,012	0,132
-79,840	-200,000	-0,007	0,037
-78,826	800,000	-0,011	-0,030
-77,811	-200,000	-0,008	-0,060
-76,797	241,845	0,049	-0,059
-75,782	126,022	0,099	0,090
-74,767	800,000	-0,083	0,217
-73,753	-66,363	0,053	-0,015
-72,738	800,000	0,013	0,029
-71,724	-91,700	-0,113	0,023
-70,709	27,941	-0,067	0,040
-69,694	-132,554	0,077	-0,007
-68,680	-200,000	0,000	-0,014
-67,665	-63,529	0,068	-0,020
-66,651	-200,000	0,004	-0,111
-65,636	-87,392	-0,073	0,016
-64,622	109,938	-0,057	0,049
-63,607	-29,765	0,057	-0,023
-62,592	-141,427	0,091	0,007
-61,578	-159,835	0,072	0,003
-60,563	27,838	0,197	-0,120
-59,549	800,000	-0,072	-0,148
-58,534	71,809	-2,112	-1,585
-57,519	544,510	-1,042	-1,805
-56,505	-200,000	-0,275	-4,207
-55,490	800,000	0,864	1,744
-54,476	800,000	5,190	11,160
-53,461	-200,000	22,665	347,781
-52,446	800,000	755,230	2287,125
-51,432	502,057	1636,947	2740,567
-50,417	66,032	1568,994	1147,886
-49,403	18,271	1161,894	667,838
-48,388	10,866	895,095	491,997
-47,373	26,321	863,707	519,797
-46,359	16,602	849,622	483,497
-45,344	7,839	845,418	455,920
-44,330	7,706	843,717	454,602
-43,315	7,704	842,345	453,841
-42,300	7,626	841,304	453,036
-41,286	7,733	840,083	452,668
-40,271	7,666	838,978	451,864
-39,257	7,679	838,304	451,520
-38,242	7,800	837,296	451,304
-37,227	7,725	836,401	450,591
-36,213	7,806	835,627	450,385
-35,198	7,728	834,698	449,644
-34,184	7,854	834,174	449,704
-33,169	7,601	833,297	448,494
-32,154	7,792	832,469	448,571
-31,140	7,798	831,351	447,969
-30,125	7,878	830,489	447,712
-29,111	7,721	830,047	447,014
-28,096	7,630	829,925	446,672
-27,082	7,818	828,862	446,613
-26,067	7,818	827,822	446,035
-25,052	7,704	827,350	445,443
-24,038	7,777	826,757	445,311
-23,023	7,697	826,043	444,682
-22,009	7,818	825,492	444,709
-20,994	7,823	824,652	444,253
-19,979	7,823	824,079	443,927
-18,965	7,836	823,517	443,643
-17,950	7,803	823,044	443,278
-16,936	7,800	822,422	442,918
-15,921	7,717	821,782	442,324
-14,906	7,722	820,978	441,887
-13,892	7,730	820,570	441,673
-12,877	7,665	820,039	441,186
-11,863	7,607	819,571	440,756
-10,848	7,610	819,017	440,448
-9,833	7,718	818,449	440,428
-8,819	7,760	817,944	440,254
-7,804	7,777	817,199	439,882
-6,790	7,781	816,664	439,589
-5,775	7,733	816,503	439,352
-4,760	7,673	815,904	438,845
-3,746	7,688	815,289	438,538
-2,731	7,443	814,897	437,630
-1,717	7,497	814,326	437,456
-0,702	7,480	813,748	437,080
0,313	7,617	810,855	436,564
1,327	11,063	794,846	437,232
2,342	19,411	647,123	374,233
3,356	13,264	356,688	198,838
4,371	-15,894	240,551	110,050
5,386	-18,825	226,793	101,452
6,400	-18,879	222,411	99,441
7,415	-17,787	220,195	99,272
8,429	-19,201	219,238	97,761
9,444	-19,188	218,222	97,310
10,459	-19,071	217,660	97,138
11,473	-19,216	217,218	96,824
12,488	-18,876	216,801	96,884
13,502	-19,160	216,375	96,472
14,517	-19,086	215,891	96,303
15,531	-19,218	215,466	96,007
16,546	-19,044	215,083	95,957
17,561	-19,172	214,869	95,758
18,575	-18,952	214,647	95,813
19,590	-19,307	214,291	95,383
20,604	-19,099	214,043	95,418
21,619	-19,289	213,743	95,136
22,634	-19,062	213,325	95,108
23,648	-19,117	213,078	94,949
24,663	-19,135	212,985	94,887
25,677	-19,252	212,637	94,636
26,692	-19,117	212,525	94,678
27,707	-19,197	212,426	94,566
28,721	-18,857	211,787	94,522
29,736	-18,906	211,627	94,406
30,750	-18,936	211,459	94,301
31,765	-19,207	211,330	94,037
32,780	-19,169	211,131	93,969
33,794	-19,086	210,941	93,936
34,809	-19,152	210,823	93,827
35,823	-19,042	210,447	93,731
36,838	-19,028	210,249	93,645
37,853	-19,095	209,942	93,451
38,867	-19,081	209,959	93,460
39,882	-18,879	209,592	93,434
40,896	-19,025	209,472	93,267
41,911	-19,000	209,239	93,173
42,926	-19,005	209,001	93,055
43,940	-19,158	208,851	92,870
44,955	-19,077	208,554	92,788
45,969	-19,033	208,459	92,769
46,984	-19,138	208,288	92,610
47,999	-18,972	208,189	92,676
49,013	-19,017	207,892	92,504
50,028	-19,024	207,796	92,448
51,042	-18,866	207,499	92,420
52,057	-18,935	207,297	92,273
53,071	-19,047	207,063	92,081
54,086	-18,830	206,974	92,187
55,101	-18,853	206,787	92,079
56,115	-19,023	206,452	91,801
57,130	-19,149	206,519	91,733
58,144	-19,110	206,183	91,603
59,159	-18,933	205,880	91,586
60,174	-19,034	205,836	91,486
61,188	-18,903	205,553	91,445
62,203	-19,014	205,404	91,292
63,217	-19,126	205,333	91,174
64,232	-18,794	205,049	91,273
65,247	-18,753	204,802	91,184
66,261	-19,182	204,615	90,791
67,276	-19,078	204,465	90,790
68,290	-19,409	204,407	90,523
69,305	-18,854	204,129	90,781
70,320	-18,875	203,978	90,692
71,334	-19,231	203,698	90,310
72,349	-18,934	203,506	90,424
73,363	-18,882	203,245	90,336
74,378	-19,183	203,225	90,110
75,393	-19,028	203,044	90,129
76,407	-18,960	202,868	90,090
77,422	-18,867	202,653	90,052
78,436	-19,106	202,523	89,820
79,451	-18,946	202,309	89,828
80,466	-19,053	202,070	89,639
81,480	-18,943	201,903	89,634
82,495	-18,937	201,760	89,566
83,509	-18,897	201,690	89,555
84,524	-18,756	201,545	89,580
85,539	-18,822	201,187	89,367
86,553	-18,753	201,178	89,404
87,568	-19,017	201,075	89,167
88,582	-18,960	200,765	89,061
89,597	-19,107	200,658	88,905
90,611	-19,212	200,460	88,736
91,626	-18,930	200,304	88,853
92,641	-19,021	200,271	88,769
93,655	-18,951	199,952	88,667
94,670	-19,057	199,867	88,549
95,684	-19,275	199,666	88,303
96,699	-18,935	199,413	88,415
97,714	-18,917	199,301	88,370
98,728	-18,990	199,186	88,262
99,743	-18,827	199,109	88,330
100,757	-18,921	198,804	88,123
101,772	-18,973	198,575	87,979
102,787	-19,042	198,483	87,883
103,801	-19,045	198,429	87,849
104,816	-19,073	198,159	87,703
105,830	-19,203	198,208	87,629
106,845	-18,920	197,921	87,685
107,860	-18,951	197,689	87,554
108,874	-18,848	197,630	87,590
109,889	-19,015	197,363	87,351
110,903	-19,007	197,245	87,296
111,918	-18,776	196,955	87,315
112,933	-19,038	197,006	87,154
113,947	-19,036	196,764	87,040
114,962	-18,807	196,477	87,060
115,976	-18,729	196,291	87,022
116,991	-19,009	196,164	86,770
118,006	-18,830	196,118	86,861
119,020	-18,828	195,913	86,765
120,035	-18,873	195,898	86,720
121,049	-19,111	195,856	86,534
122,064	-18,912	195,620	86,555
123,079	-18,955	195,325	86,389
124,093	-18,723	194,992	86,388
125,108	-18,780	194,964	86,330
126,122	-18,811	194,846	86,249
127,137	-18,855	194,675	86,137
128,151	-18,631	194,631	86,259
129,166	-18,619	194,316	86,119
130,181	-18,837	194,197	85,914
131,195	-18,834	194,011	85,826
132,210	-19,006	193,887	85,650
133,224	-18,781	193,648	85,686
134,239	-18,873	193,457	85,532
135,254	-18,819	193,371	85,523
136,268	-18,896	193,434	85,492
137,283	-18,588	193,053	85,519
138,297	-18,710	192,894	85,361
139,312	-18,725	192,824	85,312
140,327	-19,092	192,438	84,893
141,341	-19,002	192,392	84,924
142,356	-19,167	192,359	84,794
143,370	-18,137	192,511	85,529
144,385	-11,346	194,430	90,873
145,400	-4,417	196,066	96,247
146,414	-2,926	196,289	97,340
147,429	-2,712	196,300	97,479
148,443	-2,457	196,223	97,602
149,458	-2,222	196,034	97,656
150,473	-2,109	195,911	97,660
151,487	-2,058	195,942	97,701
152,502	-1,996	195,770	97,648
153,516	-1,862	195,585	97,636
154,531	-1,847	195,458	97,573
155,546	-1,775	195,264	97,516
156,560	-1,684	195,125	97,498
157,575	-1,775	194,933	97,333
158,589	-1,726	194,822	97,301
159,604	-1,874	194,792	97,180
160,619	-1,710	194,621	97,193
161,633	-1,443	194,434	97,268
162,648	-1,506	194,467	97,234
163,662	-1,600	194,321	97,090
164,677	-1,646	194,221	97,001
165,692	-1,603	194,258	97,040
166,706	-1,500	193,917	96,928
167,721	-1,491	193,880	96,907
168,735	-1,559	193,720	96,774
169,750	-1,392	193,614	96,821
170,764	-1,437	193,570	96,762
171,779	-1,372	193,374	96,698
172,794	-1,400	193,247	96,607
173,808	-1,578	193,116	96,416
174,823	-1,450	192,784	96,326
175,837	-1,243	192,779	96,449
176,852	-1,431	192,642	96,250
177,867	-1,563	192,541	96,105
178,881	-1,502	192,334	96,033
179,896	-1,410	192,133	95,984
180,910	-1,568	192,222	95,917
181,925	-1,326	191,870	95,889
182,940	-1,542	191,865	95,739
183,954	-1,458	191,606	95,655
184,969	-1,358	191,610	95,714
185,983	-1,410	191,537	95,635
186,998	-1,257	191,309	95,611
188,013	-1,276	191,202	95,537
189,027	-1,428	190,849	95,254
190,042	-1,639	190,919	95,144
191,056	-1,164	190,745	95,355
192,071	-1,134	190,597	95,292
193,086	-1,288	190,518	95,145
194,100	-1,231	190,346	95,087
195,115	-1,058	190,221	95,127
196,129	-1,317	190,060	94,872
197,144	-1,110	189,894	94,913
198,159	-1,191	189,752	94,782
199,173	-0,982	189,636	94,849
200,188	-1,221	189,604	94,672
201,202	-1,160	189,485	94,643
202,217	-1,108	189,285	94,568
203,232	-1,259	189,063	94,352
204,246	-1,174	188,976	94,355
205,261	-0,915	188,747	94,396
206,275	-1,226	188,796	94,215
207,290	-1,193	188,629	94,144
208,304	-0,754	188,473	94,336
209,319	-1,115	188,328	94,026
210,334	-1,100	188,088	93,908
211,348	-1,196	188,051	93,821
212,363	-1,079	188,095	93,908
213,377	-1,120	187,733	93,693
214,392	-1,108	187,870	93,760
215,407	-0,983	187,503	93,648
216,421	-0,950	187,361	93,589
217,436	-0,927	187,311	93,571
218,450	-1,017	187,180	93,440
219,465	-1,218	186,987	93,209
220,480	-1,107	186,886	93,220
221,494	-0,771	186,728	93,344
222,509	-1,022	186,737	93,183
223,523	-0,775	186,587	93,254
224,538	-0,723	186,374	93,173
225,553	-0,846	186,374	93,087
226,567	-0,879	186,101	92,922
227,582	-0,715	186,136	93,034
228,596	-0,894	185,905	92,798
229,611	-1,077	185,906	92,676
230,626	-0,638	185,689	92,833
231,640	-0,986	185,490	92,508
232,655	-0,932	185,714	92,645
233,669	-0,975	185,282	92,395
234,684	-0,831	185,175	92,423
235,699	-0,699	185,028	92,424
236,713	-0,729	184,958	92,362
237,728	-1,023	184,969	92,176
238,742	-0,643	184,689	92,264
239,757	-1,010	184,643	92,005
240,772	-0,886	184,539	92,022
241,786	-0,693	184,323	92,026
242,801	-0,718	184,284	91,983
243,815	-0,798	184,186	91,876
244,830	-0,774	184,041	91,810
245,844	-0,804	183,791	91,659
246,859	-0,827	183,706	91,594
247,874	-0,796	183,634	91,569
248,888	-0,741	183,522	91,539
249,903	-0,610	183,491	91,596
250,917	-0,515	183,402	91,602
251,932	-0,858	183,224	91,294
252,947	-0,448	183,035	91,443
253,961	-0,651	182,916	91,251
254,976	-0,718	182,829	91,159
255,990	-0,792	182,647	91,015
257,005	-0,550	182,494	91,078
258,020	-0,694	182,421	90,945
259,034	-0,529	182,304	90,980
260,049	-0,582	182,311	90,943
261,063	-0,609	182,083	90,805
262,078	-0,469	181,992	90,837
263,093	-0,406	181,791	90,766
264,107	-0,544	181,610	90,584
265,122	-0,765	181,543	90,408
266,136	-0,467	181,468	90,544
267,151	-0,562	181,436	90,462
268,166	-0,726	181,315	90,294
269,180	-0,583	181,074	90,253
270,195	-0,389	180,806	90,229
271,209	-0,375	180,813	90,233
272,224	-0,259	180,661	90,219
273,239	-0,509	180,799	90,129
274,253	-0,638	180,544	89,915
275,268	-0,298	180,326	90,004
276,282	-0,328	180,293	89,961
277,297	-0,397	180,153	89,842
278,312	-0,529	180,119	89,737
279,326	-0,530	180,057	89,698
280,341	-0,328	179,981	89,774
281,355	-0,358	179,712	89,614
282,370	-0,251	179,671	89,649
283,384	-0,438	179,448	89,418
284,399	-0,479	179,335	89,329
285,414	-0,516	179,365	89,314
286,428	-0,411	179,130	89,251
287,443	-0,532	179,101	89,156
288,457	0,036	179,054	89,465
289,472	-0,261	178,682	89,094
290,487	-0,553	178,663	88,902
291,501	-0,144	178,509	89,061
292,516	-0,237	178,412	88,950
293,530	-0,141	178,360	88,974
294,545	-0,120	178,206	88,901
295,560	-0,317	178,089	88,718
296,574	-0,213	178,065	88,760
297,589	-0,318	177,786	88,550
298,603	-0,272	177,703	88,528
299,618	-0,206	177,603	88,510
300,633	-0,179	177,466	88,449
301,647	-0,393	177,395	88,279
302,662	-0,307	177,420	88,335
303,676	-0,075	177,188	88,349
304,691	-0,089	176,938	88,208
305,706	-0,469	177,038	88,026
306,720	-0,403	176,880	87,978
307,735	-0,155	176,807	88,080
308,749	-0,287	176,521	87,852
309,764	-0,198	176,443	87,858
310,779	-0,302	176,462	87,798
311,793	0,051	176,388	87,961
312,808	-0,140	176,137	87,716
313,822	-0,142	175,994	87,636
314,837	-0,239	175,995	87,572
315,852	-0,170	175,793	87,504
316,866	-0,125	175,760	87,506
317,881	-0,317	175,607	87,309
318,895	-0,253	175,378	87,225
319,910	-0,192	175,333	87,230
320,925	-0,006	175,159	87,245
321,939	-0,013	175,124	87,216
322,954	0,113	174,973	87,206
323,968	-0,078	174,961	87,081
324,983	-0,123	174,770	86,952
325,997	-0,166	174,622	86,846
327,012	0,170	174,560	87,003
328,027	-0,194	174,420	86,714
329,041	-0,515	174,448	86,533
330,056	0,184	174,236	86,826
331,070	0,084	174,140	86,713
332,085	-0,034	173,983	86,558
333,100	0,190	173,741	86,559
334,114	0,121	173,714	86,498
335,129	0,010	173,605	86,372
336,143	0,061	173,594	86,388
337,158	-0,129	173,561	86,255
338,173	0,169	173,379	86,328
339,187	0,337	173,199	86,328
340,202	0,294	172,967	86,180
341,216	0,241	172,934	86,126
342,231	0,124	172,875	86,021
343,246	0,169	172,755	85,979
344,260	0,135	172,716	85,933
345,275	-0,005	172,712	85,843
346,289	0,163	172,564	85,858
347,304	0,211	172,422	85,807
348,319	0,155	172,227	85,670
349,333	0,177	172,039	85,582
350,348	0,016	171,979	85,452
351,362	0,147	171,812	85,436
352,377	0,348	171,814	85,544
353,392	0,114	171,719	85,356
354,406	0,145	171,523	85,268
355,421	189,658	1325,939	1392,465
356,435	150,143	1467,024	1392,929
