DTS Sentinel unit serial number:	SN410029Multiplexer serial number:	ORYXHardware model number:	OX2-SRSoftware version number:	ORYX F/W v4,00 Oryx Data Collector v3.7.2.0data status	okinstallation	B3 Nyhavnadifferential loss correction	single-endedforward channel	channel 1reverse channel	N/Adate	2023/11/28time	12:32:30forward acquisition time	300,00reverse acquisition time	0,00gamma	499,1914k internal	0,3139k external	0,3139temperature offset calibration	1,0000default loss term (dB/km)	0,3820temperature slope calibration	1,0000multiplexer offset coefficient	1,0000multiplexer slope coefficient	1,0000fibre end	0,00T internal ref (°C)	8,43T ext. ref 1 (°C)	-7,62T ext. ref 2 (°C)	-7,83length (m)	temperature (°C)	Stokes	anti-Stokes-744,400	542,417	-0,113	-0,201
-743,385	-200,000	-0,040	0,307
-742,371	210,746	-0,134	-0,157
-741,356	212,540	0,170	0,200
-740,342	276,076	-0,170	-0,224
-739,327	684,348	0,116	0,225
-738,312	107,551	-0,347	-0,306
-737,298	800,000	-0,081	0,258
-736,283	800,000	-0,128	-0,296
-735,269	-200,000	-0,009	0,358
-734,254	-16,827	-0,473	-0,221
-733,239	98,840	-0,145	0,124
-732,225	-200,000	0,020	-0,223
-731,210	52,332	0,157	0,111
-730,196	800,000	-0,020	0,046
-729,181	293,863	-0,106	0,144
-728,167	-26,041	0,060	-0,026
-727,152	157,675	-0,076	0,078
-726,137	97,674	0,027	-0,023
-725,123	14,608	-0,084	-0,049
-724,108	257,571	-0,136	0,174
-723,094	-200,000	0,013	0,157
-722,079	304,028	0,007	-0,009
-721,064	800,000	-0,010	0,026
-720,050	752,254	-0,051	0,102
-719,035	240,234	-0,049	0,061
-718,021	800,000	-0,019	0,049
-717,006	-65,830	-0,224	-0,066
-715,991	273,242	-0,107	-0,141
-714,977	1,579	-0,103	-0,055
-713,962	233,331	-0,057	0,070
-712,948	800,000	0,026	0,085
-711,933	800,000	-0,032	0,102
-710,918	99,652	-0,018	-0,015
-709,904	-13,297	-0,174	-0,083
-708,889	-130,025	-0,041	0,004
-707,875	27,775	0,110	-0,068
-706,860	800,000	0,024	-0,061
-705,845	75,021	0,009	-0,007
-704,831	-191,058	-0,110	-0,001
-703,816	-167,691	0,079	0,002
-702,802	-72,193	-0,197	0,054
-701,787	-184,705	-0,122	-0,001
-700,772	119,828	-0,038	0,035
-699,758	-37,808	-0,104	-0,041
-698,743	165,685	0,065	-0,068
-697,729	-200,000	0,022	0,106
-696,714	145,757	0,048	-0,047
-695,699	-125,143	-0,118	0,013
-694,685	198,955	-0,058	-0,066
-693,670	30,750	-0,045	-0,028
-692,656	235,747	-0,112	0,138
-691,641	-200,000	0,176	0,000
-690,627	119,009	0,049	0,045
-689,612	-200,000	0,002	0,033
-688,597	800,000	0,042	-0,136
-687,583	234,387	-0,108	-0,131
-686,568	-75,319	-0,097	-0,025
-685,554	800,000	-0,041	-0,087
-684,539	746,555	-0,047	0,094
-683,524	23,331	0,104	0,063
-682,510	-200,000	0,020	-0,081
-681,495	-103,614	0,014	-0,002
-680,481	214,612	-0,026	-0,030
-679,466	3,660	-0,128	-0,069
-678,451	-200,000	-0,025	-0,151
-677,437	-150,808	-0,063	0,003
-676,422	-22,734	-0,042	-0,019
-675,408	48,713	0,024	0,016
-674,393	-125,948	-0,057	0,006
-673,378	800,000	-0,046	-0,112
-672,364	226,248	-0,083	-0,100
-671,349	-135,214	0,106	0,009
-670,335	-78,267	-0,095	-0,024
-669,320	-200,000	0,033	0,118
-668,305	-167,859	-0,089	0,003
-667,291	800,000	0,032	-0,086
-666,276	-200,000	0,023	-0,074
-665,262	-200,000	0,004	-0,089
-664,247	-200,000	0,037	-0,126
-663,232	577,981	-0,060	-0,110
-662,218	-102,551	0,151	0,026
-661,203	-92,095	-0,067	-0,014
-660,189	505,934	-0,098	0,168
-659,174	30,802	-0,090	-0,057
-658,159	-200,000	-0,028	-0,172
-657,145	-129,584	-0,138	0,014
-656,130	-35,489	0,139	0,056
-655,116	194,382	-0,053	0,060
-654,101	55,824	-0,061	0,044
-653,086	258,416	-0,041	0,052
-652,072	71,085	0,078	-0,060
-651,057	96,698	0,037	0,031
-650,043	64,498	-0,040	-0,030
-649,028	89,016	-0,039	0,032
-648,014	770,784	0,038	0,076
-646,999	-200,000	0,034	0,112
-645,984	164,875	0,039	-0,041
-644,970	-54,485	-0,049	-0,016
-643,955	74,857	0,074	0,057
-642,941	35,008	0,126	-0,081
-641,926	-33,445	-0,029	-0,012
-640,911	-42,932	0,052	-0,019
-639,897	800,000	-0,024	0,064
-638,882	800,000	0,060	0,167
-637,868	-200,000	0,008	0,137
-636,853	-52,120	-0,092	-0,031
-635,838	-137,988	-0,054	-0,004
-634,824	42,752	-0,052	0,035
-633,809	415,946	0,036	-0,057
-632,795	72,253	0,108	0,083
-631,780	800,000	-0,018	0,041
-630,765	100,361	0,038	0,033
-629,751	786,654	-0,040	-0,082
-628,736	-200,000	-0,017	-0,158
-627,722	800,000	-0,013	0,028
-626,707	74,037	-0,046	-0,036
-625,692	49,102	0,140	-0,097
-624,678	800,000	-0,052	-0,112
-623,663	97,194	0,133	0,112
-622,649	-66,131	-0,122	-0,036
-621,634	199,685	0,054	-0,061
-620,619	-37,605	-0,068	-0,026
-619,605	46,903	-0,047	0,032
-618,590	-124,987	0,123	0,014
-617,576	101,652	0,061	0,053
-616,561	-112,273	-0,125	-0,018
-615,546	-102,267	-0,029	-0,005
-614,532	800,000	0,018	0,037
-613,517	-24,717	-0,037	-0,016
-612,503	-200,000	0,006	-0,102
-611,488	-11,540	0,045	0,022
-610,474	305,850	-0,019	0,026
-609,459	-145,948	-0,140	0,009
-608,444	125,569	-0,079	-0,073
-607,430	-88,245	-0,124	0,027
-606,415	344,587	-0,074	-0,107
-605,401	-43,913	0,139	0,051
-604,386	-139,472	0,061	-0,005
-603,371	-49,276	0,113	-0,039
-602,357	21,243	0,165	0,099
-601,342	800,000	-0,022	-0,059
-600,328	-200,000	0,012	-0,160
-599,313	8,267	0,111	0,061
-598,298	177,647	0,098	0,106
-597,284	227,029	0,031	0,037
-596,269	69,352	0,077	0,059
-595,255	800,000	0,008	-0,022
-594,240	-88,843	-0,092	0,020
-593,225	4,861	0,103	-0,056
-592,211	-111,970	-0,071	-0,010
-591,196	80,002	-0,079	0,063
-590,182	-100,308	0,158	0,029
-589,167	16,924	0,091	-0,053
-588,152	-10,691	-0,042	0,021
-587,138	310,347	-0,065	-0,091
-586,123	244,257	-0,128	-0,159
-585,109	358,461	0,076	-0,112
-584,094	20,642	0,098	-0,059
-583,079	-22,452	-0,099	-0,044
-582,065	800,000	-0,015	0,032
-581,050	-200,000	0,004	-0,044
-580,036	65,912	0,021	-0,016
-579,021	-87,246	-0,116	-0,026
-578,006	-200,000	0,011	-0,133
-576,992	-200,000	0,002	0,109
-575,977	14,877	-0,083	0,048
-574,963	800,000	-0,005	0,014
-573,948	-200,000	-0,015	-0,134
-572,934	-14,785	-0,172	-0,081
-571,919	-200,000	0,005	0,037
-570,904	84,189	-0,093	-0,074
-569,890	37,439	-0,066	0,043
-568,875	292,074	0,098	0,132
-567,861	-200,000	0,006	0,109
-566,846	-200,000	-0,021	0,103
-565,831	-52,911	-0,068	-0,023
-564,817	800,000	0,072	0,163
-563,802	-70,680	-0,009	-0,003
-562,788	125,373	-0,044	0,041
-561,773	689,516	0,013	0,026
-560,758	90,433	-0,098	-0,081
-559,744	800,000	-0,020	0,043
-558,729	-168,570	-0,057	-0,002
-557,715	800,000	-0,029	-0,079
-556,700	-200,000	-0,009	-0,069
-555,685	389,649	0,104	0,159
-554,671	333,597	0,056	0,080
-553,656	0,434	0,111	0,058
-552,642	-200,000	0,011	-0,044
-551,627	-200,000	-0,014	0,074
-550,612	106,253	-0,078	0,068
-549,598	-109,067	-0,116	-0,018
-548,583	701,799	0,029	-0,056
-547,569	358,909	0,024	-0,035
-546,554	-93,870	-0,057	0,011
-545,539	-200,000	-0,003	0,078
-544,525	328,104	0,032	0,045
-543,510	-200,000	0,002	0,016
-542,496	142,015	-0,044	0,043
-541,481	-200,000	0,017	-0,057
-540,466	800,000	-0,034	-0,073
-539,452	668,652	0,043	0,082
-538,437	800,000	-0,066	0,155
-537,423	800,000	-0,048	-0,149
-536,408	800,000	-0,048	-0,110
-535,393	226,659	0,052	-0,062
-534,379	-79,382	-0,114	0,028
-533,364	-200,000	-0,015	0,117
-532,350	70,895	0,112	-0,085
-531,335	380,609	0,126	0,190
-530,321	-26,797	0,107	0,046
-529,306	258,670	0,036	-0,046
-528,291	125,094	0,055	0,051
-527,277	800,000	-0,015	0,043
-526,262	800,000	0,038	0,083
-525,248	800,000	-0,010	0,024
-524,233	386,336	-0,022	0,033
-523,218	27,178	-0,097	0,060
-522,204	787,638	-0,035	0,071
-521,189	139,131	-0,059	-0,057
-520,175	515,571	0,078	0,135
-519,160	-120,087	-0,127	0,016
-518,145	-43,112	0,074	0,027
-517,131	-200,000	-0,043	0,183
-516,116	800,000	0,041	0,090
-515,102	298,297	-0,082	0,111
-514,087	531,034	0,034	0,060
-513,072	800,000	0,028	0,062
-512,058	102,142	-0,091	0,078
-511,043	-176,016	0,171	-0,003
-510,029	800,000	-0,036	0,101
-509,014	-139,719	0,070	-0,005
-507,999	62,860	0,061	-0,045
-506,985	512,586	-0,028	-0,049
-505,970	-45,448	-0,037	-0,013
-504,956	-200,000	0,017	-0,134
-503,941	83,595	0,032	-0,025
-502,926	-200,000	-0,036	-0,145
-501,912	-86,500	0,051	0,011
-500,897	522,898	0,085	0,148
-499,883	-106,832	-0,132	-0,021
-498,868	-200,000	0,018	-0,134
-497,853	7,445	-0,036	0,020
-496,839	-92,699	0,032	0,006
-495,824	151,033	0,065	-0,065
-494,810	227,372	-0,035	0,041
-493,795	-61,409	0,102	-0,031
-492,781	-20,050	-0,172	-0,078
-491,766	-200,000	0,011	-0,170
-490,751	-34,154	-0,086	-0,035
-489,737	800,000	0,052	-0,136
-488,722	67,444	0,043	0,033
-487,708	131,288	0,157	-0,148
-486,693	253,348	0,057	0,072
-485,678	-28,117	-0,098	-0,041
-484,664	-22,195	-0,082	-0,036
-483,649	-26,612	0,078	-0,033
-482,635	205,187	-0,044	-0,050
-481,620	-200,000	-0,003	0,104
-480,605	-200,000	-0,014	-0,061
-479,591	41,830	-0,040	-0,026
-478,576	23,524	-0,046	-0,028
-477,562	117,906	-0,110	-0,099
-476,547	76,798	-0,063	-0,049
-475,532	-200,000	0,017	-0,075
-474,518	-200,000	0,042	-0,168
-473,503	-200,000	-0,008	0,063
-472,489	800,000	0,029	0,086
-471,474	23,546	-0,041	-0,025
-470,459	-107,210	0,147	-0,024
-469,445	-54,591	0,033	-0,011
-468,430	188,715	-0,060	0,066
-467,416	-200,000	0,028	0,156
-466,401	-34,320	-0,043	-0,017
-465,386	370,669	0,017	0,025
-464,372	-200,000	0,002	-0,044
-463,357	-44,640	-0,129	-0,047
-462,343	153,405	0,066	0,066
-461,328	800,000	-0,044	-0,103
-460,313	-79,645	-0,094	-0,023
-459,299	72,035	-0,028	0,021
-458,284	161,020	0,046	0,048
-457,270	300,853	0,069	-0,094
-456,255	-97,586	0,029	0,005
-455,241	193,636	-0,076	0,084
-454,226	800,000	0,006	0,019
-453,211	-138,312	-0,049	-0,004
-452,197	-149,095	0,127	0,007
-451,182	-56,705	0,093	-0,030
-450,168	-24,414	-0,049	0,021
-449,153	-200,000	-0,008	-0,045
-448,138	222,176	-0,055	-0,065
-447,124	-200,000	-0,020	-0,106
-446,109	602,833	-0,039	-0,071
-445,095	-200,000	0,000	0,126
-444,080	610,475	-0,020	0,036
-443,065	269,509	-0,122	-0,157
-442,051	-200,000	0,002	-0,186
-441,036	8,106	-0,059	-0,032
-440,022	-12,057	-0,052	-0,025
-439,007	39,689	-0,096	0,063
-437,992	-126,253	0,109	-0,012
-436,978	-200,000	0,006	0,058
-435,963	28,830	-0,093	0,058
-434,949	39,523	0,243	-0,159
-433,934	800,000	-0,062	0,162
-432,919	296,812	-0,036	-0,048
-431,905	-126,238	-0,100	0,011
-430,890	-127,765	0,207	0,022
-429,876	65,157	-0,070	-0,052
-428,861	800,000	-0,026	0,056
-427,846	75,300	-0,026	0,020
-426,832	597,315	-0,006	-0,011
-425,817	-200,000	0,006	-0,197
-424,803	-54,124	-0,063	0,021
-423,788	217,366	0,015	0,018
-422,773	571,297	-0,022	-0,039
-421,759	-126,036	0,154	-0,017
-420,744	466,284	0,040	0,066
-419,730	800,000	-0,027	0,079
-418,715	-68,930	0,056	0,016
-417,701	-50,993	0,005	-0,002
-416,686	-57,048	0,089	0,028
-415,671	86,488	0,063	0,051
-414,657	305,647	-0,070	0,095
-413,642	452,525	-0,042	-0,068
-412,628	-128,498	-0,085	-0,009
-411,613	352,865	0,042	0,061
-410,598	244,480	-0,040	-0,050
-409,584	277,273	0,038	-0,049
-408,569	-94,053	0,086	0,017
-407,555	-200,000	0,012	0,070
-406,540	800,000	0,043	0,101
-405,525	207,443	0,044	-0,050
-404,511	76,900	0,092	0,072
-403,496	-200,000	-0,032	0,137
-402,482	-106,946	0,080	-0,013
-401,467	-200,000	0,012	0,063
-400,452	-200,000	0,014	-0,075
-399,438	-50,749	-0,091	0,031
-398,423	800,000	-0,020	-0,058
-397,409	-200,000	-0,011	-0,066
-396,394	245,515	0,043	-0,053
-395,379	800,000	0,020	-0,049
-394,365	368,208	0,095	0,141
-393,350	196,509	0,099	0,110
-392,336	-97,457	-0,090	0,017
-391,321	103,130	0,114	-0,098
-390,306	26,182	-0,042	-0,026
-389,292	-21,119	-0,098	-0,044
-388,277	800,000	-0,014	-0,035
-387,263	-41,094	0,052	0,019
-386,248	-98,788	0,069	-0,013
-385,233	-200,000	-0,006	0,163
-384,219	221,772	-0,068	0,080
-383,204	-5,298	-0,075	-0,038
-382,190	35,179	-0,087	-0,056
-381,175	800,000	-0,030	0,084
-380,160	-25,028	0,143	0,062
-379,146	-90,244	-0,042	0,009
-378,131	-200,000	0,042	0,165
-377,117	-111,729	0,193	0,028
-376,102	-200,000	-0,100	-0,000
-375,088	-22,442	-0,049	0,022
-374,073	-200,000	-0,000	-0,143
-373,058	11,733	-0,061	-0,034
-372,044	-200,000	0,034	0,111
-371,029	-9,084	0,030	0,015
-370,015	-31,146	0,113	-0,047
-369,000	29,456	-0,070	0,044
-367,985	-197,588	-0,064	-0,000
-366,971	236,887	-0,059	-0,072
-365,956	-39,018	0,062	0,024
-364,942	800,000	0,029	0,078
-363,927	29,901	0,113	0,070
-362,912	-200,000	0,025	0,122
-361,898	-139,027	0,052	-0,004
-360,883	-72,200	0,020	-0,005
-359,869	800,000	0,009	0,025
-358,854	-93,883	-0,048	-0,010
-357,839	-200,000	-0,017	0,061
-356,825	131,803	0,060	-0,056
-355,810	800,000	-0,021	-0,046
-354,796	8,607	-0,028	-0,015
-353,781	100,201	0,052	-0,044
-352,766	-200,000	0,016	0,154
-351,752	84,323	0,068	0,054
-350,737	157,369	0,066	0,067
-349,723	800,000	0,078	0,175
-348,708	800,000	0,039	0,102
-347,693	-200,000	-0,003	-0,200
-346,679	-200,000	0,016	0,141
-345,664	-200,000	0,025	-0,209
-344,650	-200,000	-0,022	-0,077
-343,635	-150,582	0,074	-0,004
-342,620	-183,986	-0,036	0,000
-341,606	-138,699	0,061	-0,005
-340,591	-132,221	-0,072	0,007
-339,577	550,397	0,039	-0,069
-338,562	800,000	-0,040	-0,093
-337,548	800,000	-0,032	-0,077
-336,533	620,249	0,021	-0,038
-335,518	-128,873	0,135	-0,014
-334,504	-113,318	0,171	0,024
-333,489	119,522	-0,086	0,078
-332,475	800,000	0,029	-0,073
-331,460	8,672	0,069	-0,038
-330,445	211,647	0,063	0,073
-329,431	131,061	0,116	0,108
-328,416	40,957	-0,019	-0,013
-327,402	-91,321	-0,096	-0,020
-326,387	-17,404	0,052	-0,024
-325,372	800,000	0,046	-0,105
-324,358	-166,705	-0,121	-0,004
-323,343	-57,734	0,016	-0,005
-322,329	45,680	-0,079	0,053
-321,314	100,051	0,029	0,024
-320,299	-200,000	-0,019	-0,088
-319,285	6,776	0,103	0,056
-318,270	-200,000	-0,002	-0,036
-317,256	85,016	-0,091	0,073
-316,241	800,000	-0,040	0,091
-315,226	120,156	0,088	-0,079
-314,212	-12,050	-0,128	0,061
-313,197	-200,000	0,003	-0,064
-312,183	125,363	0,026	0,024
-311,168	-109,358	-0,164	0,025
-310,153	-42,642	0,082	0,030
-309,139	345,936	-0,055	-0,079
-308,124	-176,770	0,036	-0,001
-307,110	-114,752	0,048	0,007
-306,095	-0,601	-0,080	0,041
-305,080	53,320	-0,089	-0,062
-304,066	-18,739	-0,043	0,020
-303,051	-143,188	0,071	-0,005
-302,037	-200,000	0,029	-0,129
-301,022	127,144	-0,061	-0,057
-300,008	273,724	-0,039	-0,050
-298,993	-200,000	-0,002	0,192
-297,978	113,477	0,053	0,047
-296,964	-17,308	-0,092	-0,042
-295,949	-37,416	-0,146	-0,056
-294,935	-200,000	-0,036	-0,120
-293,920	28,602	-0,029	0,018
-292,905	263,803	0,124	0,157
-291,891	-200,000	0,012	0,068
-290,876	74,213	0,165	-0,126
-289,862	300,533	0,056	0,075
-288,847	65,430	-0,188	0,139
-287,832	38,124	-0,077	-0,050
-286,818	800,000	0,061	-0,133
-285,803	-17,971	0,066	-0,030
-284,789	68,280	0,057	0,043
-283,774	149,356	-0,098	-0,096
-282,759	-200,000	-0,008	0,134
-281,745	-200,000	-0,020	-0,071
-280,730	62,723	-0,101	0,073
-279,716	-200,000	-0,009	0,116
-278,701	207,050	-0,046	-0,052
-277,686	-200,000	0,056	0,235
-276,672	299,313	-0,057	0,077
-275,657	307,029	0,065	0,088
-274,643	90,061	0,016	-0,013
-273,628	-39,242	0,055	-0,021
-272,613	110,056	-0,072	-0,063
-271,599	-23,524	-0,036	-0,016
-270,584	-63,894	0,014	0,004
-269,570	-25,633	0,062	0,027
-268,555	-15,991	0,115	0,053
-267,540	154,803	0,104	-0,105
-266,526	69,963	-0,128	0,096
-265,511	681,763	0,079	-0,150
-264,497	599,845	-0,049	0,090
-263,482	800,000	-0,048	0,116
-262,467	319,901	0,105	-0,146
-261,453	237,382	-0,065	-0,079
-260,438	-143,813	-0,039	-0,003
-259,424	-131,849	-0,028	-0,003
-258,409	410,758	-0,050	-0,077
-257,395	130,592	0,039	-0,036
-256,380	-100,287	0,028	-0,005
-255,365	-134,108	0,045	0,004
-254,351	315,145	-0,042	0,058
-253,336	244,144	-0,130	-0,159
-252,322	124,809	-0,114	-0,105
-251,307	-68,849	-0,153	0,043
-250,292	349,790	0,045	0,064
-249,278	800,000	-0,021	0,047
-248,263	-200,000	-0,021	-0,113
-247,249	-90,861	0,132	0,027
-246,234	-37,079	0,013	-0,005
-245,219	-198,828	0,055	0,000
-244,205	-102,986	-0,135	-0,023
-243,190	777,824	0,033	-0,067
-242,176	800,000	0,052	0,116
-241,161	221,606	-0,069	-0,081
-240,146	-4,712	0,035	0,017
-239,132	-200,000	0,004	0,037
-238,117	-200,000	-0,022	-0,105
-237,103	-92,318	0,121	-0,025
-236,088	-200,000	0,003	0,180
-235,073	-200,000	-0,021	0,075
-234,059	350,428	-0,054	-0,078
-233,044	8,396	0,135	0,074
-232,030	-200,000	-0,004	-0,066
-231,015	-200,000	0,008	-0,127
-230,000	-200,000	-0,022	-0,070
-228,986	800,000	0,011	0,035
-227,971	-200,000	0,018	0,082
-226,957	-184,913	0,125	0,001
-225,942	800,000	0,057	-0,123
-224,927	-200,000	-0,014	-0,072
-223,913	-95,951	-0,135	-0,026
-222,898	758,979	0,059	-0,117
-221,884	168,913	-0,094	-0,098
-220,869	-200,000	0,009	0,069
-219,855	800,000	0,051	0,142
-218,840	-97,224	0,093	0,017
-217,825	76,306	-0,024	-0,019
-216,811	-200,000	-0,040	-0,134
-215,796	-200,000	0,009	-0,061
-214,782	340,507	0,089	0,126
-213,767	13,475	-0,017	-0,010
-212,752	-200,000	0,045	0,193
-211,738	-8,601	-0,031	-0,015
-210,723	-200,000	0,016	-0,066
-209,709	800,000	0,018	-0,050
-208,694	-69,399	-0,053	-0,015
-207,679	681,693	0,018	0,034
-206,665	-155,752	-0,021	-0,001
-205,650	-143,938	-0,042	0,003
-204,636	-200,000	0,003	-0,017
-203,621	449,957	-0,027	0,044
-202,606	116,182	-0,163	-0,145
-201,592	800,000	-0,040	-0,096
-200,577	292,403	0,040	0,054
-199,563	800,000	0,029	0,073
-198,548	563,064	-0,024	0,042
-197,533	-163,280	0,087	0,003
-196,519	-200,000	0,009	-0,030
-195,504	800,000	-0,023	0,048
-194,490	-200,000	0,009	-0,072
-193,475	745,442	-0,073	0,144
-192,460	-79,447	0,097	0,024
-191,446	-180,738	-0,072	-0,001
-190,431	800,000	0,054	-0,155
-189,417	-200,000	-0,004	-0,064
-188,402	-108,931	-0,145	-0,022
-187,387	-152,981	-0,140	0,007
-186,373	-164,408	0,040	0,001
-185,358	-80,592	0,091	-0,022
-184,344	444,669	0,021	-0,033
-183,329	-200,000	-0,000	-0,115
-182,315	-148,678	0,045	-0,003
-181,300	8,885	-0,128	-0,070
-180,285	51,603	-0,078	0,054
-179,271	-124,373	-0,111	-0,012
-178,256	-189,754	0,040	0,000
-177,242	-67,853	0,058	0,016
-176,227	-79,105	0,038	-0,009
-175,212	800,000	0,051	-0,122
-174,198	800,000	-0,063	-0,140
-173,183	587,641	0,026	0,046
-172,169	511,753	-0,058	-0,099
-171,154	-27,672	0,022	0,009
-170,139	215,094	-0,038	-0,044
-169,125	-104,357	0,130	0,022
-168,110	-200,000	0,000	0,036
-167,096	339,440	-0,086	0,122
-166,081	800,000	0,037	0,111
-165,066	-145,959	-0,125	0,008
-164,052	-72,699	0,093	0,025
-163,037	-95,431	-0,144	0,028
-162,023	19,288	0,059	-0,034
-161,008	610,646	0,017	0,032
-159,993	-42,282	-0,134	-0,049
-158,979	78,938	-0,092	-0,071
-157,964	268,946	-0,083	-0,106
-156,950	-39,463	0,052	-0,020
-155,935	-200,000	-0,009	0,119
-154,920	-144,534	0,073	0,005
-153,906	800,000	0,028	0,061
-152,891	47,844	-0,062	-0,042
-151,877	206,570	0,047	-0,053
-150,862	-55,108	-0,027	0,009
-149,847	-60,164	-0,056	-0,017
-148,833	-27,646	-0,112	-0,047
-147,818	-79,618	0,196	0,048
-146,804	110,912	-0,055	0,048
-145,789	-200,000	-0,003	0,190
-144,775	252,422	0,055	-0,067
-143,760	94,434	-0,127	-0,104
-142,745	646,509	0,068	-0,126
-141,731	-66,954	0,032	0,009
-140,716	129,345	0,099	-0,091
-139,702	-200,000	-0,017	0,070
-138,687	177,937	-0,062	0,066
-137,672	-4,293	-0,090	-0,045
-136,658	110,590	0,059	-0,052
-135,643	233,760	-0,091	-0,109
-134,629	110,066	-0,025	0,022
-133,614	-200,000	0,013	0,149
-132,599	-14,541	-0,108	0,050
-131,585	800,000	0,006	-0,019
-130,570	39,903	-0,105	-0,068
-129,556	-0,204	-0,113	-0,058
-128,541	-12,603	-0,081	-0,038
-127,526	164,532	0,064	0,066
-126,512	-132,264	0,068	0,006
-125,497	422,923	0,022	-0,034
-124,483	94,901	0,088	0,072
-123,468	-200,000	-0,014	0,105
-122,453	313,359	-0,058	-0,079
-121,439	-200,000	0,010	-0,110
-120,424	48,261	0,141	-0,095
-119,410	-133,378	0,042	-0,004
-118,395	-96,680	0,088	0,017
-117,380	-200,000	-0,015	-0,068
-116,366	279,520	0,045	0,058
-115,351	-200,000	-0,009	0,031
-114,337	143,201	-0,081	-0,078
-113,322	-85,773	-0,084	-0,019
-112,307	-191,561	0,237	0,002
-111,293	800,000	0,016	-0,034
-110,278	47,561	-0,142	-0,096
-109,264	-200,000	-0,004	0,057
-108,249	800,000	0,073	-0,222
-107,234	127,921	-0,037	0,034
-106,220	62,648	-0,031	-0,023
-105,205	-15,227	0,111	-0,051
-104,191	79,171	-0,041	0,032
-103,176	293,435	0,068	0,090
-102,162	265,129	0,020	0,025
-101,147	143,114	-0,038	0,036
-100,132	31,892	-0,028	-0,018
-99,118	-36,654	-0,085	0,033
-98,103	-79,102	0,257	-0,063
-97,089	-200,000	0,025	0,120
-96,074	331,336	-0,057	-0,079
-95,059	-9,090	-0,060	0,029
-94,045	157,029	-0,071	0,071
-93,030	-131,062	-0,222	0,021
-92,016	0,814	0,074	0,038
-91,001	-92,364	0,209	-0,042
-89,986	-200,000	-0,007	0,203
-88,972	122,093	0,081	0,073
-87,957	-200,000	-0,004	0,034
-86,943	800,000	-0,039	0,100
-85,928	393,189	-0,026	0,039
-84,913	-173,535	-0,046	-0,001
-83,899	800,000	0,012	0,024
-82,884	53,304	0,016	0,011
-81,870	-200,000	0,015	-0,092
-80,855	81,883	0,111	0,087
-79,840	-200,000	0,011	0,037
-78,826	140,158	0,072	0,069
-77,811	12,497	-0,115	0,064
-76,797	-76,017	0,176	-0,045
-75,782	-200,000	-0,032	0,156
-74,767	-200,000	0,038	0,276
-73,753	800,000	-0,021	-0,055
-72,738	800,000	0,055	0,130
-71,724	-74,543	0,099	-0,026
-70,709	800,000	-0,037	-0,098
-69,694	92,200	0,137	-0,111
-68,680	51,196	-0,012	0,008
-67,665	800,000	0,028	-0,060
-66,651	-200,000	-0,010	0,152
-65,636	800,000	0,035	-0,071
-64,622	26,118	0,094	-0,056
-63,607	-200,000	-0,007	-0,115
-62,592	-52,601	-0,125	0,042
-61,578	-40,878	-0,054	0,020
-60,563	-115,288	0,144	-0,019
-59,549	800,000	0,044	0,114
-58,534	74,519	-2,034	-1,542
-57,519	439,604	-1,162	-1,839
-56,505	-200,000	-0,261	-4,269
-55,490	800,000	0,894	1,795
-54,476	800,000	5,116	11,336
-53,461	-200,000	22,108	345,247
-52,446	800,000	755,493	2314,663
-51,432	514,916	1642,898	2779,031
-50,417	68,284	1574,076	1162,607
-49,403	19,441	1152,807	667,040
-48,388	11,774	874,892	483,495
-47,373	25,956	841,933	505,565
-46,359	17,364	827,698	473,062
-45,344	8,556	823,719	446,143
-44,330	8,415	821,862	444,724
-43,315	8,312	820,710	443,796
-42,300	8,362	819,328	443,171
-41,286	8,416	818,279	442,735
-40,271	8,328	817,455	442,028
-39,257	8,348	816,661	441,636
-38,242	8,450	815,548	441,301
-37,227	8,459	814,593	440,792
-36,213	8,440	813,714	440,246
-35,198	8,437	812,984	439,823
-34,184	8,549	812,429	439,816
-33,169	8,416	811,467	438,912
-32,154	8,469	810,936	438,754
-31,140	8,502	809,457	438,026
-30,125	8,542	808,718	437,720
-29,111	8,461	808,148	437,169
-28,096	8,452	807,923	437,007
-27,082	8,394	807,217	436,448
-26,067	8,434	806,232	436,008
-25,052	8,444	805,525	435,635
-24,038	8,355	805,169	435,182
-23,023	8,415	804,497	434,967
-22,009	8,533	803,825	434,907
-20,994	8,482	803,105	434,361
-19,979	8,561	802,214	434,078
-18,965	8,541	801,650	433,702
-17,950	8,455	801,447	433,341
-16,936	8,418	800,899	432,924
-15,921	8,434	800,264	432,608
-14,906	8,371	799,344	431,923
-13,892	8,316	798,949	431,542
-12,877	8,386	798,184	431,303
-11,863	8,326	797,981	431,014
-10,848	8,309	797,545	430,714
-9,833	8,384	797,054	430,634
-8,819	8,438	796,268	430,341
-7,804	8,529	795,647	430,232
-6,790	8,448	795,284	429,800
-5,775	8,410	795,004	429,530
-4,760	8,365	794,355	429,040
-3,746	8,374	793,820	428,758
-2,731	8,163	793,513	428,006
-1,717	8,199	792,977	427,796
-0,702	8,154	792,290	427,289
0,313	8,258	789,460	426,684
1,327	12,103	771,873	427,238
2,342	20,805	628,190	366,162
3,356	14,608	346,664	194,791
4,371	-15,701	233,319	106,875
5,386	-18,718	219,773	98,374
6,400	-18,913	215,623	96,362
7,415	-18,051	213,828	96,187
8,429	-18,972	212,411	94,866
9,444	-19,114	211,720	94,446
10,459	-18,892	211,229	94,380
11,473	-18,889	210,623	94,103
12,488	-18,991	210,312	93,882
13,502	-19,069	209,927	93,645
14,517	-19,089	209,526	93,443
15,531	-19,084	208,975	93,193
16,546	-18,906	208,643	93,165
17,561	-19,048	208,358	92,927
18,575	-18,923	208,244	92,957
19,590	-18,999	207,812	92,702
20,604	-18,800	207,635	92,757
21,619	-18,873	207,308	92,551
22,634	-18,886	206,818	92,314
23,648	-19,323	206,773	91,975
24,663	-18,931	206,459	92,106
25,677	-18,978	206,342	92,012
26,692	-19,009	206,011	91,834
27,707	-18,910	205,889	91,841
28,721	-18,775	205,524	91,766
29,736	-18,978	205,327	91,527
30,750	-19,025	205,143	91,403
31,765	-18,905	204,878	91,362
32,780	-18,683	204,604	91,388
33,794	-18,964	204,474	91,124
34,809	-18,705	204,188	91,170
35,823	-18,971	204,058	90,917
36,838	-18,618	203,878	91,077
37,853	-18,777	203,750	90,900
38,867	-18,949	203,624	90,715
39,882	-19,092	203,378	90,497
40,896	-18,860	203,039	90,500
41,911	-18,972	202,829	90,320
42,926	-18,862	202,574	90,276
43,940	-19,225	202,645	90,046
44,955	-18,717	202,185	90,187
45,969	-18,882	202,118	90,035
46,984	-19,018	202,034	89,894
47,999	-18,868	201,935	89,946
49,013	-18,588	201,733	90,043
50,028	-18,267	201,296	90,062
51,042	-18,802	201,222	89,651
52,057	-18,910	201,104	89,515
53,071	-18,661	200,957	89,613
54,086	-18,806	200,727	89,404
55,101	-18,837	200,547	89,294
56,115	-19,011	200,437	89,117
57,130	-18,902	200,048	89,011
58,144	-18,968	199,826	88,859
59,159	-18,879	199,720	88,865
60,174	-18,843	199,609	88,832
61,188	-18,975	199,466	88,670
62,203	-19,151	199,411	88,517
63,217	-18,828	198,966	88,532
64,232	-18,815	199,005	88,551
65,247	-18,847	198,505	88,299
66,261	-19,141	198,488	88,083
67,276	-18,874	198,257	88,154
68,290	-18,858	198,139	88,105
69,305	-18,875	197,979	88,014
70,320	-18,764	197,884	88,040
71,334	-18,741	197,678	87,956
72,349	-18,814	197,433	87,789
73,363	-18,702	197,126	87,721
74,378	-18,978	197,010	87,475
75,393	-18,937	196,871	87,433
76,407	-18,903	196,747	87,393
77,422	-18,828	196,706	87,418
78,436	-18,746	196,336	87,301
79,451	-18,717	196,373	87,329
80,466	-18,775	195,942	87,091
81,480	-18,703	195,849	87,090
82,495	-18,919	195,774	86,904
83,509	-18,675	195,525	86,949
84,524	-18,671	195,484	86,925
85,539	-18,556	195,203	86,870
86,553	-18,649	195,141	86,773
87,568	-18,718	194,813	86,573
88,582	-18,812	194,804	86,498
89,597	-18,608	194,521	86,501
90,611	-18,720	194,429	86,378
91,626	-18,632	194,226	86,339
92,641	-18,805	194,142	86,178
93,655	-18,803	193,970	86,096
94,670	-18,933	193,893	85,967
95,684	-18,632	193,586	86,023
96,699	-18,779	193,547	85,901
97,714	-18,721	193,327	85,834
98,728	-18,558	193,254	85,902
99,743	-18,697	193,045	85,709
100,757	-18,832	192,906	85,550
101,772	-18,758	192,662	85,483
102,787	-18,613	192,512	85,505
103,801	-18,947	192,332	85,198
104,816	-18,815	192,255	85,243
105,830	-18,849	192,154	85,168
106,845	-18,854	191,892	85,041
107,860	-18,619	191,633	85,073
108,874	-18,619	191,591	85,047
109,889	-18,687	191,444	84,929
110,903	-18,625	191,234	84,869
111,918	-18,631	191,051	84,776
112,933	-18,837	190,999	84,611
113,947	-18,968	190,895	84,472
114,962	-18,747	190,636	84,494
115,976	-18,580	190,548	84,556
116,991	-18,611	190,205	84,376
118,006	-18,728	190,131	84,260
119,020	-19,003	190,192	84,100
120,035	-18,985	190,091	84,060
121,049	-18,770	189,885	84,101
122,064	-18,834	189,821	84,023
123,079	-18,599	189,492	84,023
124,093	-18,524	189,242	83,953
125,108	-18,633	189,234	83,871
126,122	-18,807	189,208	83,740
127,137	-18,363	188,946	83,903
128,151	-18,668	188,753	83,613
129,166	-18,699	188,635	83,533
130,181	-18,538	188,383	83,518
131,195	-18,517	188,197	83,442
132,210	-18,821	188,027	83,163
133,224	-18,790	187,910	83,124
134,239	-18,685	187,651	83,069
135,254	-18,851	187,737	82,994
136,268	-18,768	187,490	82,931
137,283	-18,756	187,354	82,871
138,297	-18,758	187,206	82,796
139,312	-18,882	186,897	82,573
140,327	-18,894	186,802	82,516
141,341	-19,346	186,588	82,127
142,356	-18,993	186,250	82,195
143,370	-17,921	186,692	83,065
144,385	-10,825	188,814	88,565
145,400	-4,012	190,150	93,585
146,414	-2,708	190,366	94,525
147,429	-2,679	190,375	94,540
148,443	-2,357	190,269	94,687
149,458	-2,168	190,174	94,753
150,473	-2,155	190,209	94,770
151,487	-1,845	190,053	94,883
152,502	-1,703	189,865	94,872
153,516	-1,707	189,646	94,752
154,531	-1,772	189,556	94,657
155,546	-1,829	189,515	94,591
156,560	-1,503	189,339	94,704
157,575	-1,564	189,280	94,626
158,589	-1,523	189,156	94,583
159,604	-1,523	188,856	94,424
160,619	-1,519	188,693	94,337
161,633	-1,480	188,598	94,306
162,648	-1,627	188,540	94,175
163,662	-1,332	188,443	94,306
164,677	-1,154	188,297	94,338
165,692	-1,408	188,144	94,091
166,706	-1,331	188,186	94,152
167,721	-1,349	187,953	94,016
168,735	-1,314	187,868	93,988
169,750	-1,489	187,719	93,793
170,764	-1,336	187,593	93,819
171,779	-1,134	187,450	93,867
172,794	-1,040	187,347	93,866
173,808	-1,470	187,299	93,562
174,823	-0,999	187,117	93,760
175,837	-1,179	186,891	93,525
176,852	-1,068	186,893	93,588
177,867	-1,332	186,673	93,303
178,881	-0,891	186,479	93,475
179,896	-1,411	186,462	93,131
180,910	-1,194	186,287	93,172
181,925	-1,401	186,103	92,942
182,940	-1,223	186,031	93,009
183,954	-1,144	185,843	92,956
184,969	-1,067	185,735	92,942
185,983	-1,038	185,736	92,953
186,998	-1,326	185,675	92,734
188,013	-1,002	185,367	92,774
189,027	-1,048	185,216	92,661
190,042	-1,037	185,113	92,609
191,056	-0,956	185,107	92,648
192,071	-0,911	184,849	92,539
193,086	-0,910	184,800	92,507
194,100	-0,789	184,561	92,454
195,115	-1,019	184,454	92,249
196,129	-1,105	184,338	92,129
197,144	-1,121	184,243	92,063
198,159	-1,136	184,045	91,947
199,173	-0,773	183,854	92,069
200,188	-0,753	183,796	92,044
201,202	-1,169	183,783	91,771
202,217	-0,847	183,469	91,806
203,232	-0,902	183,279	91,668
204,246	-1,027	183,238	91,562
205,261	-0,948	183,172	91,569
206,275	-0,965	183,019	91,474
207,290	-1,009	183,022	91,441
208,304	-0,828	182,752	91,409
209,319	-1,072	182,656	91,203
210,334	-0,939	182,553	91,225
211,348	-0,840	182,349	91,176
212,363	-0,982	182,286	91,049
213,377	-0,981	182,239	91,018
214,392	-0,776	182,137	91,084
215,407	-0,696	181,963	91,038
216,421	-0,656	181,887	91,017
217,436	-0,959	181,712	90,735
218,450	-0,789	181,548	90,750
219,465	-0,697	181,361	90,704
220,480	-0,798	181,174	90,541
221,494	-0,919	181,256	90,500
222,509	-0,841	181,045	90,434
223,523	-1,153	181,009	90,218
224,538	-0,918	180,733	90,216
225,553	-0,993	180,704	90,148
226,567	-0,735	180,627	90,258
227,582	-0,909	180,491	90,077
228,596	-0,776	180,386	90,097
229,611	-0,699	180,362	90,123
230,626	-0,801	180,109	89,927
231,640	-0,580	179,935	89,965
232,655	-0,688	179,809	89,830
233,669	-0,861	179,770	89,697
234,684	-0,884	179,756	89,669
235,699	-0,654	179,510	89,676
236,713	-0,577	179,440	89,680
237,728	-0,705	179,309	89,529
238,742	-0,675	179,259	89,515
239,757	-0,712	179,032	89,371
240,772	-0,468	178,962	89,475
241,786	-0,782	178,820	89,207
242,801	-0,638	178,654	89,203
243,815	-0,544	178,724	89,286
244,830	-0,324	178,494	89,295
245,844	-0,679	178,385	89,020
246,859	-0,728	178,359	88,969
247,874	-0,337	178,213	89,123
248,888	-0,893	178,002	88,677
249,903	-0,708	177,965	88,762
250,917	-0,537	177,901	88,824
251,932	-0,373	177,676	88,801
252,947	-0,176	177,608	88,876
253,961	-0,556	177,571	88,624
254,976	-0,523	177,326	88,513
255,990	-0,400	177,165	88,498
257,005	-0,417	177,121	88,458
258,020	-0,371	176,919	88,377
259,034	-0,335	176,838	88,349
260,049	-0,455	176,765	88,234
261,063	-0,720	176,600	87,987
262,078	-0,432	176,532	88,116
263,093	-0,421	176,327	88,012
264,107	-0,319	176,075	87,939
265,122	-0,264	176,285	88,068
266,136	-0,356	176,005	87,866
267,151	-0,187	175,982	87,947
268,166	-0,307	175,884	87,819
269,180	-0,317	175,621	87,674
270,195	-0,238	175,477	87,641
271,209	-0,327	175,388	87,536
272,224	0,021	175,387	87,732
273,239	-0,113	175,238	87,571
274,253	-0,410	175,121	87,331
275,268	-0,453	175,052	87,263
276,282	-0,328	174,833	87,220
277,297	-0,226	174,742	87,226
278,312	-0,366	174,687	87,109
279,326	-0,230	174,500	87,088
280,341	-0,039	174,376	87,129
281,355	0,044	174,360	87,161
282,370	-0,135	174,263	87,002
283,384	-0,212	174,132	86,883
284,399	-0,105	173,933	86,839
285,414	-0,324	173,981	86,727
286,428	-0,079	173,810	86,777
287,443	-0,017	173,744	86,772
288,457	-0,051	173,629	86,687
289,472	-0,254	173,411	86,453
290,487	-0,169	173,236	86,407
291,501	-0,101	173,147	86,394
292,516	0,093	172,975	86,413
293,530	0,156	172,980	86,444
294,545	0,031	172,956	86,352
295,560	0,128	172,678	86,261
296,574	0,157	172,560	86,211
297,589	-0,132	172,501	86,008
298,603	-0,224	172,450	85,922
299,618	-0,136	172,361	85,920
300,633	0,192	172,105	85,974
301,647	0,077	172,015	85,855
302,662	0,010	171,942	85,773
303,676	0,083	171,826	85,749
304,691	-0,236	171,757	85,523
305,706	0,055	171,618	85,614
306,720	0,154	171,435	85,571
307,735	-0,037	171,401	85,438
308,749	-0,007	171,260	85,377
309,764	-0,027	171,204	85,330
310,779	0,460	171,058	85,527
311,793	0,142	171,059	85,339
312,808	-0,093	170,836	85,086
313,822	0,120	170,637	85,100
314,837	0,148	170,530	85,055
315,852	-0,050	170,444	84,892
316,866	0,243	170,525	85,092
317,881	0,185	170,310	84,944
318,895	-0,010	170,226	84,784
319,910	0,087	170,063	84,750
320,925	-0,266	170,002	84,512
321,939	0,034	169,939	84,643
322,954	0,208	169,801	84,665
323,968	0,207	169,708	84,611
324,983	0,115	169,482	84,438
325,997	-0,207	169,426	84,221
327,012	-0,018	169,338	84,277
328,027	0,180	169,206	84,315
329,041	0,191	169,101	84,262
330,056	0,125	169,029	84,181
331,070	0,304	168,760	84,140
332,085	0,130	168,754	84,032
333,100	0,287	168,667	84,069
334,114	0,476	168,329	83,999
335,129	0,114	168,389	83,819
336,143	0,139	168,193	83,728
337,158	0,238	168,146	83,752
338,173	0,090	168,131	83,655
339,187	0,479	168,033	83,816
340,202	0,361	167,950	83,701
341,216	0,457	167,782	83,663
342,231	0,430	167,664	83,582
343,246	0,485	167,554	83,550
344,260	0,376	167,512	83,461
345,275	0,508	167,447	83,495
346,289	0,294	167,322	83,306
347,304	0,312	167,204	83,250
348,319	0,445	166,947	83,188
349,333	0,432	166,859	83,130
350,348	0,295	166,778	83,006
351,362	0,679	166,651	83,148
352,377	0,183	166,656	82,869
353,392	0,699	166,313	82,976
354,406	0,171	166,385	82,713
355,421	189,821	1326,329	1393,124
356,435	150,123	1468,089	1393,588
