DTS Sentinel unit serial number:	SN410029Multiplexer serial number:	ORYXHardware model number:	OX2-SRSoftware version number:	ORYX F/W v4,00 Oryx Data Collector v3.7.2.0data status	okinstallation	B3 Nyhavnadifferential loss correction	single-endedforward channel	channel 1reverse channel	N/Adate	2023/11/28time	14:32:30forward acquisition time	300,00reverse acquisition time	0,00gamma	499,1914k internal	0,3147k external	0,3147temperature offset calibration	1,0000default loss term (dB/km)	0,3820temperature slope calibration	1,0000multiplexer offset coefficient	1,0000multiplexer slope coefficient	1,0000fibre end	0,00T internal ref (°C)	7,43T ext. ref 1 (°C)	-7,80T ext. ref 2 (°C)	-7,97length (m)	temperature (°C)	Stokes	anti-Stokes-744,400	706,355	-0,157	-0,307
-743,385	-200,000	-0,042	0,197
-742,371	-200,000	-0,047	-0,302
-741,356	-200,000	-0,030	0,304
-740,342	800,000	-0,088	-0,207
-739,327	800,000	-0,125	0,301
-738,312	232,121	-0,199	-0,242
-737,298	-200,000	0,031	0,217
-736,283	236,035	-0,162	-0,199
-735,269	411,597	0,125	0,197
-734,254	79,207	-0,258	-0,204
-733,239	286,803	-0,157	0,210
-732,225	29,426	-0,210	-0,132
-731,210	220,910	0,115	0,137
-730,196	12,960	0,068	-0,039
-729,181	621,297	0,028	0,052
-728,167	-32,758	-0,025	-0,010
-727,152	-70,856	0,149	-0,041
-726,137	-200,000	-0,005	0,053
-725,123	-200,000	0,030	-0,120
-724,108	-200,000	-0,033	-0,122
-723,094	-123,853	-0,157	0,018
-722,079	147,997	-0,077	-0,077
-721,064	110,036	-0,132	0,117
-720,050	-200,000	0,003	0,043
-719,035	-200,000	-0,002	0,075
-718,021	-124,970	-0,156	-0,018
-717,006	-200,000	0,044	-0,169
-715,991	139,782	-0,095	-0,092
-714,977	303,423	-0,030	0,041
-713,962	800,000	-0,061	-0,138
-712,948	-200,000	0,014	-0,200
-711,933	-200,000	0,023	0,084
-710,918	495,752	-0,082	0,139
-709,904	107,149	-0,032	-0,028
-708,889	-200,000	-0,043	0,141
-707,875	800,000	0,048	-0,103
-706,860	-200,000	0,028	-0,116
-705,845	-33,620	-0,052	0,021
-704,831	-62,392	0,029	0,009
-703,816	99,862	0,031	-0,026
-702,802	56,114	-0,039	0,028
-701,787	144,622	-0,116	-0,115
-700,772	800,000	-0,022	-0,056
-699,758	-139,456	-0,181	-0,014
-698,743	405,365	0,051	0,080
-697,729	-52,350	-0,122	0,041
-696,714	361,871	-0,036	0,053
-695,699	-200,000	-0,004	-0,069
-694,685	-200,000	0,004	-0,053
-693,670	627,005	-0,128	-0,240
-692,656	-90,610	0,082	-0,017
-691,641	-71,057	0,064	-0,018
-690,627	392,313	0,046	0,070
-689,612	153,354	-0,099	0,101
-688,597	-200,000	0,002	0,055
-687,583	249,470	0,070	0,087
-686,568	181,891	0,015	-0,016
-685,554	-66,498	0,091	0,027
-684,539	-129,549	-0,065	-0,007
-683,524	-33,022	0,127	-0,052
-682,510	-115,268	-0,074	0,010
-681,495	-200,000	0,020	0,088
-680,481	201,174	-0,053	-0,060
-679,466	27,000	-0,093	-0,057
-678,451	737,124	-0,067	-0,132
-677,437	-28,428	-0,049	-0,021
-676,422	43,528	0,069	0,047
-675,408	252,136	-0,100	0,126
-674,393	800,000	0,018	-0,050
-673,378	206,851	-0,034	-0,040
-672,364	-200,000	-0,032	-0,107
-671,349	16,376	-0,138	-0,080
-670,335	-200,000	0,015	-0,088
-669,320	490,118	0,063	-0,106
-668,305	-65,231	-0,053	-0,016
-667,291	-93,521	-0,130	0,026
-666,276	-200,000	-0,021	-0,143
-665,262	-200,000	0,004	0,035
-664,247	159,813	0,102	-0,104
-663,232	-153,691	-0,077	-0,004
-662,218	-200,000	0,014	0,062
-661,203	-55,462	-0,090	0,030
-660,189	75,488	-0,071	-0,055
-659,174	-200,000	0,037	-0,137
-658,159	725,026	0,052	-0,103
-657,145	-63,890	-0,150	0,045
-656,130	704,155	-0,045	0,087
-655,116	73,527	0,177	0,137
-654,101	-44,816	-0,065	0,024
-653,086	800,000	-0,054	-0,129
-652,072	531,724	0,085	-0,148
-651,057	-45,003	-0,127	0,046
-650,043	800,000	0,026	-0,074
-649,028	-79,726	0,109	-0,027
-648,014	496,468	0,073	0,125
-646,999	-46,638	-0,049	0,018
-645,984	-200,000	-0,019	0,067
-644,970	57,276	-0,028	0,020
-643,955	800,000	0,045	-0,132
-642,941	-52,097	-0,060	0,020
-641,926	482,577	-0,040	-0,067
-640,911	108,868	0,120	-0,105
-639,897	-200,000	0,001	0,027
-638,882	173,889	-0,079	0,084
-637,868	49,982	0,007	-0,005
-636,853	363,868	0,034	-0,050
-635,838	-48,517	-0,060	0,021
-634,824	-70,351	-0,071	0,020
-633,809	276,400	0,091	0,120
-632,795	56,281	-0,037	-0,027
-631,780	15,193	-0,066	0,038
-630,765	53,714	-0,042	-0,030
-629,751	-200,000	-0,003	0,058
-628,736	-190,708	0,092	0,001
-627,722	-41,617	0,055	0,021
-626,707	4,238	0,170	0,091
-625,692	-97,515	0,056	0,011
-624,678	66,543	-0,047	0,035
-623,663	103,157	-0,068	-0,059
-622,649	-92,403	0,063	-0,013
-621,634	-11,041	-0,071	0,034
-620,619	-57,810	-0,205	-0,066
-619,605	65,112	0,064	0,048
-618,590	99,785	0,049	-0,042
-617,576	-200,000	0,013	-0,052
-616,561	134,434	-0,086	0,082
-615,546	-143,138	-0,079	-0,005
-614,532	-75,539	0,129	-0,034
-613,517	-200,000	0,049	-0,188
-612,503	105,902	0,026	0,023
-611,488	-200,000	-0,009	-0,049
-610,474	800,000	-0,030	-0,078
-609,459	-31,564	0,064	0,026
-608,444	190,342	0,014	-0,015
-607,430	367,811	0,014	-0,020
-606,415	628,980	-0,061	-0,115
-605,401	-200,000	0,011	-0,079
-604,386	185,942	0,024	0,026
-603,371	-22,653	-0,136	0,060
-602,357	51,035	-0,054	0,038
-601,342	-18,314	-0,132	-0,060
-600,328	404,803	0,068	-0,106
-599,313	800,000	-0,040	-0,111
-598,298	266,809	0,098	0,127
-597,284	800,000	-0,034	0,071
-596,269	-148,333	0,142	-0,008
-595,255	123,992	-0,097	0,089
-594,240	228,439	-0,072	0,087
-593,225	-15,652	-0,112	0,052
-592,211	38,358	-0,065	0,042
-591,196	-132,094	0,053	-0,005
-590,182	34,942	-0,089	0,057
-589,167	166,323	0,039	-0,040
-588,152	800,000	0,009	0,023
-587,138	205,770	0,067	-0,076
-586,123	-31,702	-0,134	-0,055
-585,109	-200,000	-0,009	0,073
-584,094	-32,596	0,087	-0,036
-583,079	-108,283	0,098	0,015
-582,065	800,000	-0,015	-0,040
-581,050	-93,134	-0,104	-0,021
-580,036	-148,947	-0,090	-0,005
-579,021	499,093	-0,088	-0,150
-578,006	-70,252	0,101	-0,028
-576,992	333,323	0,058	-0,082
-575,977	-49,333	-0,078	0,027
-574,963	381,477	0,067	-0,102
-573,948	-200,000	-0,051	0,222
-572,934	-200,000	0,005	-0,090
-571,919	498,798	0,007	-0,011
-570,904	-200,000	0,000	0,088
-569,890	-200,000	0,043	0,162
-568,875	618,628	-0,011	-0,020
-567,861	-100,055	0,088	-0,016
-566,846	800,000	0,010	-0,030
-565,831	-86,681	0,112	0,025
-564,817	148,862	-0,075	-0,075
-563,802	-3,337	-0,151	-0,077
-562,788	800,000	-0,026	0,059
-561,773	-200,000	-0,030	0,127
-560,758	800,000	0,046	0,149
-559,744	-42,424	-0,050	0,019
-558,729	-200,000	0,062	0,256
-557,715	-44,064	-0,106	-0,039
-556,700	-200,000	-0,021	0,071
-555,685	246,390	-0,108	-0,134
-554,671	193,710	-0,056	-0,062
-553,656	-200,000	0,007	-0,096
-552,642	-200,000	0,009	-0,096
-551,627	254,330	-0,087	-0,109
-550,612	399,988	-0,065	-0,100
-549,598	90,034	-0,035	-0,028
-548,583	13,674	0,036	-0,021
-547,569	353,578	-0,070	0,102
-546,554	-200,000	0,011	0,047
-545,539	482,877	-0,040	-0,067
-544,525	-200,000	0,007	0,075
-543,510	784,111	0,016	-0,033
-542,496	-23,413	-0,031	-0,014
-541,481	480,639	-0,048	-0,081
-540,466	-200,000	0,018	-0,069
-539,452	-118,523	0,069	-0,009
-538,437	320,250	0,072	0,101
-537,423	-104,303	0,035	0,006
-536,408	-107,967	0,098	-0,015
-535,393	-22,411	-0,107	-0,047
-534,379	800,000	-0,072	-0,215
-533,364	418,115	0,075	-0,118
-532,350	-15,725	0,022	-0,010
-531,335	800,000	0,030	0,072
-530,321	-16,612	0,145	0,067
-529,306	800,000	-0,017	0,040
-528,291	-126,990	0,135	0,014
-527,277	437,711	-0,132	-0,211
-526,262	303,032	-0,076	-0,103
-525,248	84,292	0,069	0,055
-524,233	77,685	0,114	-0,089
-523,218	138,009	-0,042	0,040
-522,204	-187,794	0,080	-0,001
-521,189	41,341	0,092	-0,061
-520,175	362,974	-0,046	0,068
-519,160	-200,000	-0,002	-0,027
-518,145	800,000	-0,055	0,117
-517,131	-14,490	-0,006	-0,003
-516,116	4,454	0,134	0,072
-515,102	120,972	-0,061	-0,056
-514,087	391,988	-0,035	0,054
-513,072	-32,756	0,023	-0,009
-512,058	101,420	-0,080	0,068
-511,043	16,258	0,066	-0,038
-510,029	-200,000	0,006	0,217
-509,014	-167,284	0,140	0,004
-507,999	-200,000	-0,012	0,120
-506,985	-200,000	-0,050	0,000
-505,970	-94,628	0,045	-0,009
-504,956	-148,861	-0,186	0,011
-503,941	800,000	-0,030	-0,088
-502,926	131,514	0,120	0,113
-501,912	-200,000	0,018	0,064
-500,897	-157,033	0,156	-0,007
-499,883	189,192	0,024	0,027
-498,868	274,464	0,063	-0,082
-497,853	-45,036	0,086	-0,031
-496,839	425,291	0,074	-0,117
-495,824	-200,000	0,012	0,039
-494,810	686,813	-0,051	0,097
-493,795	31,200	0,075	0,047
-492,781	800,000	-0,068	-0,171
-491,766	-200,000	-0,006	0,162
-490,751	-200,000	-0,003	-0,089
-489,737	57,096	-0,025	0,018
-488,722	800,000	0,067	0,148
-487,708	-200,000	0,010	-0,099
-486,693	-200,000	0,014	-0,106
-485,678	-129,516	0,038	-0,004
-484,664	-1,173	-0,122	0,063
-483,649	73,227	-0,114	-0,087
-482,635	-94,382	0,150	-0,030
-481,620	6,399	-0,029	-0,016
-480,605	-127,486	0,073	0,008
-479,591	19,659	0,127	-0,075
-478,576	-70,995	-0,079	0,022
-477,562	-23,750	-0,091	0,040
-476,547	-133,287	0,008	0,001
-475,532	-81,070	-0,125	0,030
-474,518	-66,735	-0,041	-0,012
-473,503	-83,068	0,119	-0,028
-472,489	208,340	-0,113	0,129
-471,474	800,000	-0,030	-0,062
-470,459	-200,000	0,000	0,050
-469,445	-200,000	-0,039	-0,164
-468,430	-83,529	-0,100	-0,023
-467,416	90,449	-0,150	-0,123
-466,401	367,368	0,119	0,177
-465,386	-200,000	-0,005	-0,082
-464,372	-84,677	-0,042	0,010
-463,357	-2,946	-0,041	0,021
-462,343	-42,353	-0,065	-0,024
-461,328	438,831	-0,041	0,065
-460,313	23,957	-0,097	-0,058
-459,299	-57,739	0,072	-0,023
-458,284	-35,192	0,195	-0,077
-457,270	800,000	-0,023	-0,071
-456,255	-54,491	-0,071	-0,023
-455,241	-200,000	0,002	-0,030
-454,226	-89,022	-0,031	0,007
-453,211	84,390	0,134	-0,107
-452,197	-200,000	-0,002	-0,058
-451,182	-200,000	0,014	-0,087
-450,168	-200,000	-0,026	-0,199
-449,153	228,194	-0,022	-0,026
-448,138	-10,339	-0,084	0,041
-447,124	-122,154	0,085	0,010
-446,109	800,000	-0,039	0,097
-445,095	379,540	0,049	0,074
-444,080	-86,898	0,133	0,029
-443,065	-200,000	-0,003	-0,098
-442,051	-159,123	-0,057	0,002
-441,036	314,434	0,057	0,078
-440,022	-200,000	-0,011	-0,194
-439,007	-59,906	-0,104	0,032
-437,992	31,031	-0,250	0,156
-436,978	13,394	-0,110	0,062
-435,963	102,151	0,132	-0,113
-434,949	359,012	-0,076	-0,111
-433,934	17,908	0,023	-0,013
-432,919	-39,378	-0,028	-0,011
-431,905	27,174	0,067	0,041
-430,890	708,219	0,015	0,029
-429,876	-62,879	0,159	0,048
-428,861	-149,238	-0,073	-0,004
-427,846	-145,760	0,033	0,002
-426,832	481,793	-0,091	-0,151
-425,817	136,742	0,010	-0,009
-424,803	-31,625	-0,039	0,016
-423,788	800,000	-0,032	0,073
-422,773	-200,000	0,000	0,013
-421,759	186,248	0,141	0,153
-420,744	-46,384	-0,181	0,064
-419,730	-200,000	-0,002	0,065
-418,715	800,000	-0,045	-0,110
-417,701	-200,000	-0,013	0,101
-416,686	-54,141	0,077	-0,025
-415,671	800,000	-0,057	0,183
-414,657	403,023	0,089	0,136
-413,642	-114,012	-0,138	0,019
-412,628	-200,000	0,004	0,033
-411,613	-35,501	-0,095	0,038
-410,598	199,310	-0,024	-0,027
-409,584	150,587	0,045	0,044
-408,569	-170,712	0,057	0,001
-407,555	661,089	0,048	0,092
-406,540	-200,000	-0,012	-0,106
-405,525	-200,000	-0,018	0,068
-404,511	252,261	-0,030	0,037
-403,496	800,000	0,016	0,041
-402,482	-200,000	-0,012	0,055
-401,467	-124,989	-0,062	-0,007
-400,452	-14,910	-0,034	-0,016
-399,438	60,221	0,104	0,075
-398,423	-155,127	-0,106	-0,005
-397,409	800,000	-0,053	-0,122
-396,394	-141,372	-0,072	-0,005
-395,379	120,563	-0,043	0,039
-394,365	0,300	0,016	0,008
-393,350	104,469	0,068	0,059
-392,336	94,551	0,074	0,061
-391,321	800,000	-0,038	0,096
-390,306	-0,047	-0,076	0,039
-389,292	-6,783	-0,129	-0,064
-388,277	-200,000	-0,031	0,000
-387,263	-94,402	0,064	0,013
-386,248	56,018	0,120	-0,085
-385,233	-200,000	0,019	0,075
-384,219	800,000	0,034	-0,086
-383,204	39,781	-0,022	0,014
-382,190	-184,580	-0,095	0,001
-381,175	-133,901	-0,106	-0,009
-380,160	800,000	0,015	0,046
-379,146	-21,143	0,078	0,035
-378,131	22,038	0,117	-0,069
-377,117	-58,862	-0,083	0,026
-376,102	155,131	-0,048	-0,048
-375,088	-200,000	0,004	-0,125
-374,073	59,828	0,148	-0,106
-373,058	48,886	0,108	0,074
-372,044	268,961	0,105	0,134
-371,029	124,690	0,036	-0,033
-370,015	-92,458	0,224	-0,045
-369,000	800,000	0,065	0,132
-367,985	-96,948	-0,115	-0,022
-366,971	674,487	-0,028	0,054
-365,956	-200,000	0,021	0,076
-364,942	113,873	0,027	0,024
-363,927	-43,479	-0,052	0,019
-362,912	-45,662	-0,115	0,041
-361,898	-109,973	0,086	-0,013
-360,883	213,656	-0,042	-0,048
-359,869	800,000	-0,039	-0,101
-358,854	-98,094	0,175	-0,033
-357,839	51,565	0,091	0,063
-356,825	36,125	-0,070	-0,045
-355,810	221,212	-0,082	0,096
-354,796	-93,680	-0,086	-0,017
-353,781	-200,000	-0,043	0,157
-352,766	102,358	-0,035	-0,030
-351,752	145,681	0,063	0,061
-350,737	-84,981	0,081	0,018
-349,723	577,953	0,064	0,114
-348,708	-95,504	-0,044	-0,008
-347,693	-39,145	-0,186	-0,071
-346,679	509,202	0,051	-0,086
-345,664	-200,000	0,002	-0,102
-344,650	-46,291	-0,084	0,030
-343,635	488,924	0,052	0,087
-342,620	-200,000	-0,037	-0,124
-341,606	695,067	-0,021	0,040
-340,591	228,454	-0,079	0,093
-339,577	-70,643	0,087	-0,024
-338,562	760,646	-0,060	-0,119
-337,548	-131,619	0,081	0,008
-336,533	17,967	-0,095	-0,055
-335,518	800,000	-0,038	0,092
-334,504	-200,000	-0,002	0,042
-333,489	-188,562	0,035	-0,000
-332,475	-200,000	0,001	-0,053
-331,460	311,973	0,006	-0,008
-330,445	-52,358	0,062	0,021
-329,431	301,511	-0,044	0,060
-328,416	-200,000	0,015	0,058
-327,402	-200,000	-0,003	-0,091
-326,387	-200,000	0,010	-0,080
-325,372	-47,737	-0,099	-0,035
-324,358	800,000	-0,048	0,098
-323,343	-121,218	0,024	-0,003
-322,329	-17,478	0,082	0,037
-321,314	242,974	-0,027	0,033
-320,299	377,217	0,084	-0,125
-319,285	-19,977	-0,122	-0,055
-318,270	113,624	-0,159	-0,141
-317,256	-200,000	0,023	-0,165
-316,241	-18,979	-0,113	-0,051
-315,226	203,687	-0,080	0,091
-314,212	-26,063	0,142	-0,060
-313,197	-121,453	0,133	-0,016
-312,183	800,000	0,039	0,120
-311,168	-200,000	0,010	-0,113
-310,153	46,043	-0,046	0,031
-309,139	266,963	-0,027	0,034
-308,124	-82,260	-0,120	0,028
-307,110	-200,000	0,125	-0,000
-306,095	1,092	0,025	-0,013
-305,080	-109,683	-0,143	-0,022
-304,066	784,788	0,047	-0,093
-303,051	-33,659	-0,062	0,025
-302,037	24,255	-0,118	-0,071
-301,022	800,000	0,035	-0,072
-300,008	23,174	-0,017	-0,010
-298,993	-200,000	0,017	0,101
-297,978	102,268	0,092	0,078
-296,964	442,862	-0,058	0,093
-295,949	-200,000	-0,020	0,071
-294,935	-200,000	0,046	0,149
-293,920	50,652	0,056	0,038
-292,905	81,929	0,081	0,064
-291,891	73,108	0,036	-0,027
-290,876	800,000	-0,018	-0,056
-289,862	462,862	0,072	0,117
-288,847	-200,000	-0,012	-0,071
-287,832	-85,042	0,027	-0,006
-286,818	-200,000	0,008	0,025
-285,803	89,966	0,101	-0,082
-284,789	-200,000	-0,001	-0,139
-283,774	48,359	-0,011	0,008
-282,759	24,967	-0,110	0,066
-281,745	684,094	0,059	-0,113
-280,730	-70,925	-0,168	0,046
-279,716	800,000	-0,049	-0,153
-278,701	132,951	0,087	-0,082
-277,686	800,000	0,084	0,180
-276,672	-200,000	0,001	-0,075
-275,657	-10,923	0,131	0,062
-274,643	4,043	-0,140	-0,074
-273,628	-197,809	-0,064	0,000
-272,613	17,496	0,041	0,024
-271,599	271,535	-0,028	0,036
-270,584	243,044	-0,052	-0,063
-269,570	338,553	0,074	0,105
-268,555	-81,095	-0,110	-0,026
-267,540	-200,000	0,139	0,000
-266,526	129,459	0,104	-0,097
-265,511	800,000	0,056	-0,120
-264,497	-200,000	-0,003	0,121
-263,482	-200,000	0,024	0,104
-262,467	-200,000	-0,015	0,110
-261,453	561,502	0,041	0,072
-260,438	-108,653	-0,090	-0,014
-259,424	-200,000	0,002	0,108
-258,409	-93,469	-0,096	0,019
-257,395	283,442	-0,009	0,012
-256,380	-200,000	0,002	0,047
-255,365	80,116	0,110	0,086
-254,351	-200,000	-0,017	0,168
-253,336	-200,000	0,011	0,086
-252,322	488,287	0,042	0,071
-251,307	-200,000	0,012	-0,102
-250,292	260,956	0,060	-0,076
-249,278	127,253	-0,061	-0,056
-248,263	0,396	0,046	-0,024
-247,249	728,237	-0,042	0,082
-246,234	384,700	0,050	-0,075
-245,219	67,724	-0,052	-0,038
-244,205	34,999	0,095	0,060
-243,190	800,000	-0,031	-0,070
-242,176	37,754	0,027	0,018
-241,161	29,012	-0,068	-0,042
-240,146	-81,765	0,048	-0,011
-239,132	-71,003	0,044	-0,012
-238,117	-200,000	0,010	-0,060
-237,103	-200,000	-0,011	-0,119
-236,088	-200,000	0,029	-0,154
-235,073	-200,000	-0,008	0,162
-234,059	412,063	0,041	0,063
-233,044	-200,000	0,015	-0,101
-232,030	800,000	0,024	-0,074
-231,015	219,380	-0,083	-0,096
-230,000	454,218	-0,038	-0,061
-228,986	21,875	0,105	-0,062
-227,971	-79,067	0,050	0,012
-226,957	-67,287	0,012	-0,004
-225,942	-31,961	-0,086	-0,035
-224,927	676,147	-0,025	-0,047
-223,913	-25,060	0,116	0,050
-222,898	-200,000	0,008	-0,097
-221,884	800,000	-0,006	-0,016
-220,869	-200,000	-0,001	-0,003
-219,855	-32,294	0,137	0,055
-218,840	800,000	0,025	0,051
-217,825	18,127	-0,049	-0,028
-216,811	-200,000	0,002	-0,108
-215,796	-134,608	0,028	-0,002
-214,782	62,598	-0,058	-0,042
-213,767	-156,825	0,168	0,007
-212,752	-39,848	-0,039	0,015
-211,738	800,000	-0,014	-0,045
-210,723	-200,000	0,007	0,090
-209,709	-62,356	-0,113	0,034
-208,694	483,034	-0,063	-0,104
-207,679	-200,000	-0,008	-0,037
-206,665	-98,094	0,145	0,027
-205,650	800,000	0,014	0,032
-204,636	92,579	0,061	0,050
-203,621	-21,755	-0,139	0,061
-202,606	-200,000	0,016	-0,079
-201,592	574,276	-0,048	-0,085
-200,577	-200,000	0,004	0,078
-199,563	15,949	0,095	0,054
-198,548	-200,000	-0,048	0,200
-197,533	-200,000	0,006	0,113
-196,519	212,337	0,075	-0,086
-195,504	-200,000	-0,027	-0,093
-194,490	344,615	0,098	-0,139
-193,475	10,447	-0,068	-0,037
-192,460	-200,000	-0,007	0,064
-191,446	113,167	0,066	0,058
-190,431	-71,187	0,052	0,014
-189,417	229,550	-0,025	0,029
-188,402	61,935	-0,082	-0,059
-187,387	174,423	-0,084	0,088
-186,373	-168,683	0,115	0,003
-185,358	536,039	-0,058	-0,100
-184,344	800,000	-0,013	0,028
-183,329	491,218	0,030	0,049
-182,315	349,975	0,057	0,082
-181,300	697,468	-0,012	-0,022
-180,285	-200,000	0,002	0,023
-179,271	-126,849	0,043	-0,005
-178,256	557,610	0,025	0,044
-177,242	112,217	0,032	0,028
-176,227	-59,472	0,167	-0,051
-175,212	340,231	0,068	-0,096
-174,198	-200,000	-0,002	-0,125
-173,183	800,000	0,030	0,081
-172,169	800,000	0,024	0,050
-171,154	572,391	0,034	0,060
-170,139	234,339	0,068	0,081
-169,125	800,000	0,020	0,045
-168,110	83,306	-0,043	0,034
-167,096	3,773	-0,048	-0,025
-166,081	-67,335	-0,083	0,023
-165,066	-200,000	-0,019	-0,063
-164,052	382,714	-0,070	-0,104
-163,037	-200,000	-0,006	-0,023
-162,023	90,240	-0,066	-0,053
-161,008	-200,000	-0,009	0,048
-159,993	745,464	0,021	-0,042
-158,979	-200,000	0,014	0,097
-157,964	-128,591	-0,064	0,006
-156,950	800,000	-0,018	0,057
-155,935	-142,975	0,035	0,002
-154,920	-108,034	0,060	0,009
-153,906	-180,461	-0,136	-0,002
-152,891	800,000	0,031	0,079
-151,877	-91,720	0,086	-0,017
-150,862	510,032	0,046	-0,078
-149,847	-64,806	0,053	-0,015
-148,833	508,078	0,042	-0,070
-147,818	-31,868	-0,028	0,011
-146,804	3,326	0,193	0,101
-145,789	-7,234	-0,139	-0,068
-144,775	-30,820	0,049	-0,020
-143,760	-12,167	0,095	0,045
-142,745	-55,651	0,013	0,004
-141,731	-200,000	-0,017	0,166
-140,716	-200,000	0,007	0,135
-139,702	82,577	-0,028	0,022
-138,687	6,269	0,061	-0,033
-137,672	-5,110	-0,072	0,036
-136,658	368,561	-0,111	-0,163
-135,643	398,513	0,035	-0,054
-134,629	-18,556	-0,103	0,046
-133,614	-169,034	-0,026	-0,001
-132,599	111,018	0,074	0,064
-131,585	112,624	0,112	0,098
-130,570	91,123	-0,055	0,045
-129,556	307,591	-0,037	-0,050
-128,541	800,000	-0,053	-0,137
-127,526	-49,529	0,020	-0,007
-126,512	-59,333	0,102	-0,032
-125,497	-27,512	0,100	0,042
-124,483	86,232	0,043	-0,034
-123,468	140,298	0,072	0,068
-122,453	-48,691	-0,070	-0,024
-121,439	298,401	-0,042	-0,056
-120,424	-41,555	0,099	0,037
-119,410	41,057	0,115	0,075
-118,395	709,678	-0,022	-0,042
-117,380	106,448	-0,157	0,134
-116,366	249,722	-0,067	-0,082
-115,351	-200,000	-0,007	-0,118
-114,337	345,204	-0,085	-0,121
-113,322	44,988	0,056	-0,037
-112,307	-89,841	-0,174	0,036
-111,293	-59,076	0,109	-0,034
-110,278	168,054	0,059	-0,061
-109,264	114,151	-0,039	-0,034
-108,249	-200,000	0,012	-0,110
-107,234	767,891	0,030	-0,060
-106,220	238,150	-0,099	0,119
-105,205	-0,667	0,149	0,076
-104,191	15,743	0,041	0,023
-103,176	365,129	0,093	0,135
-102,162	-5,171	-0,024	-0,012
-101,147	-116,541	0,051	0,007
-100,132	-19,991	-0,108	0,048
-99,118	-200,000	0,015	-0,100
-98,103	-200,000	0,005	0,104
-97,089	257,277	-0,024	0,029
-96,074	-200,000	-0,008	0,052
-95,059	-134,521	0,055	-0,005
-94,045	-158,981	-0,139	-0,006
-93,030	-36,689	0,109	0,042
-92,016	-56,914	-0,134	-0,042
-91,001	-200,000	-0,001	-0,044
-89,986	-92,916	0,101	0,020
-88,972	189,190	0,110	0,119
-87,957	-112,176	-0,058	0,008
-86,943	-158,192	-0,066	-0,003
-85,928	-200,000	0,009	-0,091
-84,913	107,484	-0,069	0,059
-83,899	-200,000	-0,005	-0,044
-82,884	-200,000	-0,001	0,136
-81,870	-200,000	0,014	0,049
-80,855	-75,050	0,033	0,008
-79,840	-200,000	-0,038	-0,158
-78,826	120,531	0,041	0,037
-77,811	33,976	-0,159	-0,099
-76,797	-79,848	0,044	0,011
-75,782	619,627	0,038	-0,069
-74,767	-11,791	0,044	-0,021
-73,753	80,847	0,100	0,078
-72,738	-45,576	-0,024	0,008
-71,724	-112,974	0,069	-0,010
-70,709	-92,514	-0,139	-0,028
-69,694	-200,000	-0,007	-0,023
-68,680	-79,770	0,138	-0,033
-67,665	132,105	0,034	0,031
-66,651	-7,012	0,118	0,058
-65,636	-117,729	-0,112	-0,014
-64,622	-44,893	-0,127	0,045
-63,607	77,894	-0,168	-0,129
-62,592	-101,606	0,059	0,010
-61,578	-135,429	-0,075	0,006
-60,563	297,100	0,100	-0,133
-59,549	800,000	0,059	0,124
-58,534	81,819	-2,260	-1,761
-57,519	368,981	-1,219	-1,781
-56,505	-200,000	-0,182	-4,395
-55,490	725,828	0,889	1,715
-54,476	800,000	5,279	11,308
-53,461	-200,000	22,702	350,533
-52,446	800,000	758,106	2283,111
-51,432	500,417	1637,413	2729,859
-50,417	66,308	1559,499	1139,071
-49,403	18,903	1122,378	645,689
-48,388	10,882	835,933	458,223
-47,373	28,228	802,182	486,510
-46,359	17,125	787,890	448,489
-45,344	7,601	783,684	420,797
-44,330	7,383	781,706	419,140
-43,315	7,284	780,603	418,269
-42,300	7,298	779,455	417,675
-41,286	7,385	778,472	417,362
-40,271	7,349	777,542	416,750
-39,257	7,427	776,463	416,362
-38,242	7,436	775,682	415,951
-37,227	7,523	774,781	415,679
-36,213	7,391	774,106	414,954
-35,198	7,360	773,395	414,474
-34,184	7,466	772,922	414,484
-33,169	7,359	771,999	413,690
-32,154	7,493	771,285	413,644
-31,140	7,460	770,270	412,998
-30,125	7,505	769,312	412,584
-29,111	7,451	768,896	412,203
-28,096	7,347	768,766	411,846
-27,082	7,419	767,715	411,455
-26,067	7,507	766,975	411,271
-25,052	7,397	766,367	410,643
-24,038	7,332	765,992	410,254
-23,023	7,410	765,361	410,104
-22,009	7,582	764,726	410,196
-20,994	7,553	764,005	409,715
-19,979	7,513	763,444	409,296
-18,965	7,482	763,004	408,962
-17,950	7,620	762,202	408,875
-16,936	7,489	761,927	408,370
-15,921	7,402	761,479	407,890
-14,906	7,356	760,680	407,326
-13,892	7,346	760,223	407,039
-12,877	7,330	759,563	406,629
-11,863	7,318	759,191	406,384
-10,848	7,304	758,546	405,986
-9,833	7,453	758,415	406,284
-8,819	7,456	757,406	405,734
-7,804	7,535	756,715	405,550
-6,790	7,472	756,369	405,187
-5,775	7,416	756,226	404,952
-4,760	7,355	755,864	404,585
-3,746	7,318	755,414	404,233
-2,731	7,175	754,894	403,571
-1,717	7,109	754,456	403,152
-0,702	7,209	753,655	402,965
0,313	7,345	750,214	402,078
1,327	11,114	729,088	400,049
2,342	19,322	589,599	339,826
3,356	13,418	324,604	180,610
4,371	-15,740	219,727	100,355
5,386	-18,720	207,075	92,444
6,400	-18,722	202,964	90,599
7,415	-17,971	201,225	90,335
8,429	-18,802	200,011	89,210
9,444	-19,053	199,176	88,658
10,459	-19,032	198,951	88,564
11,473	-19,159	198,324	88,190
12,488	-19,104	197,958	88,057
13,502	-19,082	197,481	87,852
14,517	-19,051	197,053	87,675
15,531	-19,170	196,837	87,491
16,546	-18,912	196,405	87,465
17,561	-19,539	196,051	86,877
18,575	-18,910	195,928	87,239
19,590	-19,117	195,513	86,907
20,604	-18,960	195,464	86,983
21,619	-19,197	195,166	86,683
22,634	-18,987	194,709	86,613
23,648	-19,249	194,508	86,341
24,663	-19,221	194,361	86,286
25,677	-18,871	194,059	86,378
26,692	-18,938	193,862	86,238
27,707	-19,019	193,764	86,133
28,721	-18,946	193,353	85,991
29,736	-18,990	193,225	85,897
30,750	-19,184	193,024	85,672
31,765	-19,014	192,725	85,644
32,780	-19,096	192,673	85,559
33,794	-18,897	192,561	85,633
34,809	-18,905	192,173	85,447
35,823	-18,967	192,056	85,347
36,838	-18,998	191,799	85,205
37,853	-19,271	191,745	84,993
38,867	-19,089	191,544	85,017
39,882	-18,944	191,411	85,045
40,896	-19,021	191,204	84,895
41,911	-18,757	190,796	84,879
42,926	-18,865	190,669	84,744
43,940	-19,026	190,526	84,568
44,955	-19,112	190,326	84,416
45,969	-19,212	190,295	84,329
46,984	-19,000	190,229	84,431
47,999	-18,786	189,834	84,387
49,013	-18,913	189,747	84,259
50,028	-18,708	189,533	84,289
51,042	-18,788	189,273	84,114
52,057	-18,973	189,157	83,935
53,071	-19,035	188,891	83,769
54,086	-19,084	188,848	83,711
55,101	-18,831	188,551	83,736
56,115	-18,647	188,367	83,765
57,130	-18,910	188,297	83,557
58,144	-18,989	188,121	83,421
59,159	-18,862	187,796	83,350
60,174	-19,018	187,788	83,239
61,188	-19,000	187,480	83,106
62,203	-18,991	187,319	83,034
63,217	-18,902	187,275	83,064
64,232	-18,884	187,136	83,006
65,247	-18,640	186,735	82,977
66,261	-19,190	186,791	82,643
67,276	-19,077	186,520	82,587
68,290	-18,786	186,411	82,718
69,305	-18,795	186,330	82,669
70,320	-18,998	186,197	82,472
71,334	-18,876	185,819	82,376
72,349	-18,986	185,729	82,259
73,363	-19,015	185,623	82,186
74,378	-19,130	185,318	81,971
75,393	-18,985	185,220	82,012
76,407	-18,941	185,093	81,976
77,422	-18,820	184,932	81,974
78,436	-18,984	184,762	81,788
79,451	-18,950	184,621	81,740
80,466	-19,016	184,484	81,630
81,480	-18,829	184,193	81,612
82,495	-18,718	184,234	81,692
83,509	-18,621	184,001	81,643
84,524	-18,726	183,819	81,489
85,539	-19,030	183,698	81,237
86,553	-18,882	183,560	81,261
87,568	-18,944	183,317	81,108
88,582	-19,043	183,328	81,044
89,597	-18,940	183,039	80,973
90,611	-18,848	182,993	81,003
91,626	-18,806	182,821	80,946
92,641	-18,935	182,651	80,783
93,655	-18,775	182,430	80,778
94,670	-18,768	182,206	80,676
95,684	-18,960	182,029	80,471
96,699	-19,028	181,989	80,404
97,714	-18,993	181,865	80,364
98,728	-18,886	181,740	80,367
99,743	-18,942	181,592	80,260
100,757	-18,771	181,445	80,294
101,772	-18,861	181,161	80,106
102,787	-18,743	181,099	80,144
103,801	-18,720	180,783	80,011
104,816	-18,824	180,850	79,969
105,830	-19,009	180,752	79,805
106,845	-18,688	180,592	79,925
107,860	-18,985	180,512	79,699
108,874	-18,903	180,319	79,657
109,889	-19,135	180,074	79,399
110,903	-18,949	179,856	79,410
111,918	-19,142	179,892	79,301
112,933	-18,573	179,612	79,519
113,947	-18,949	179,469	79,218
114,962	-19,014	179,460	79,168
115,976	-19,044	179,346	79,092
116,991	-18,777	179,019	79,103
118,006	-18,831	178,875	79,000
119,020	-19,126	178,909	78,828
120,035	-19,054	178,751	78,796
121,049	-18,671	178,578	78,945
122,064	-19,006	178,560	78,726
123,079	-18,964	178,219	78,594
124,093	-18,781	178,109	78,650
125,108	-18,681	177,823	78,578
126,122	-18,590	177,596	78,525
127,137	-19,032	177,819	78,348
128,151	-18,629	177,559	78,471
129,166	-18,840	177,511	78,315
130,181	-19,015	177,320	78,118
131,195	-19,316	177,097	77,832
132,210	-19,009	176,812	77,884
133,224	-19,001	176,692	77,830
134,239	-18,865	176,640	77,881
135,254	-18,737	176,524	77,900
136,268	-18,885	176,347	77,726
137,283	-18,846	176,287	77,716
138,297	-18,902	176,032	77,564
139,312	-18,835	175,815	77,501
140,327	-18,987	175,732	77,366
141,341	-18,880	175,577	77,355
142,356	-18,567	175,467	77,487
143,370	-17,861	175,659	77,986
144,385	-11,444	177,332	82,589
145,400	-4,666	178,752	87,348
146,414	-3,068	179,097	88,478
147,429	-2,756	179,079	88,650
148,443	-2,427	178,996	88,800
149,458	-2,408	178,840	88,726
150,473	-2,095	178,935	88,954
151,487	-1,665	178,678	89,078
152,502	-2,060	178,616	88,801
153,516	-1,623	178,406	88,952
154,531	-1,743	178,288	88,813
155,546	-1,892	178,154	88,649
156,560	-1,826	178,001	88,604
157,575	-1,876	178,109	88,620
158,589	-1,968	177,731	88,369
159,604	-1,804	177,776	88,482
160,619	-1,479	177,575	88,569
161,633	-1,697	177,433	88,359
162,648	-1,690	177,427	88,352
163,662	-1,358	177,171	88,416
164,677	-1,220	177,126	88,468
165,692	-1,518	177,171	88,304
166,706	-1,113	176,869	88,387
167,721	-1,561	176,907	88,131
168,735	-1,707	176,709	87,938
169,750	-1,512	176,704	88,043
170,764	-1,350	176,454	88,008
171,779	-1,060	176,423	88,157
172,794	-1,231	176,239	87,955
173,808	-1,308	176,118	87,841
174,823	-1,419	175,943	87,681
175,837	-1,381	175,829	87,638
176,852	-1,106	175,573	87,666
177,867	-1,204	175,605	87,616
178,881	-1,377	175,540	87,473
179,896	-1,225	175,356	87,464
180,910	-1,177	175,336	87,474
181,925	-1,442	175,102	87,194
182,940	-1,351	175,098	87,237
183,954	-1,158	174,743	87,166
184,969	-1,097	174,658	87,152
185,983	-1,273	174,875	87,149
186,998	-1,287	174,498	86,944
188,013	-0,916	174,279	87,045
189,027	-1,548	174,268	86,662
190,042	-1,103	174,163	86,863
191,056	-1,141	174,027	86,765
192,071	-1,334	173,902	86,582
193,086	-1,107	173,761	86,637
194,100	-1,200	173,816	86,602
195,115	-1,143	173,547	86,493
196,129	-1,248	173,437	86,370
197,144	-1,231	173,318	86,312
198,159	-0,891	173,064	86,376
199,173	-1,168	173,027	86,189
200,188	-1,258	172,810	86,021
201,202	-1,132	172,686	86,024
202,217	-0,990	172,717	86,115
203,232	-0,930	172,502	86,034
204,246	-1,088	172,434	85,901
205,261	-0,880	172,111	85,853
206,275	-0,845	172,172	85,896
207,290	-1,241	172,146	85,647
208,304	-0,922	171,890	85,695
209,319	-0,713	171,717	85,723
210,334	-1,012	171,605	85,486
211,348	-1,128	171,565	85,392
212,363	-0,721	171,299	85,486
213,377	-0,671	171,199	85,457
214,392	-0,709	171,163	85,410
215,407	-0,882	171,211	85,326
216,421	-1,179	171,032	85,060
217,436	-1,025	170,862	85,056
218,450	-0,773	170,589	85,056
219,465	-1,092	170,598	84,871
220,480	-0,762	170,451	84,979
221,494	-0,955	170,355	84,813
222,509	-1,162	170,373	84,696
223,523	-0,754	170,187	84,829
224,538	-0,930	169,993	84,624
225,553	-0,859	169,912	84,617
226,567	-1,071	169,882	84,474
227,582	-0,917	169,651	84,439
228,596	-0,867	169,620	84,444
229,611	-0,500	169,403	84,538
230,626	-0,826	169,508	84,397
231,640	-0,883	169,257	84,232
232,655	-0,867	169,260	84,236
233,669	-0,816	169,024	84,139
234,684	-0,684	168,976	84,182
235,699	-0,454	168,789	84,212
236,713	-0,985	168,770	83,894
237,728	-0,739	168,668	83,975
238,742	-0,983	168,445	83,719
239,757	-0,590	168,345	83,884
240,772	-0,809	168,372	83,766
241,786	-0,755	168,118	83,663
242,801	-0,589	168,156	83,768
243,815	-0,962	168,062	83,504
244,830	-0,510	168,000	83,719
245,844	-0,348	167,768	83,687
246,859	-0,580	167,600	83,466
247,874	-0,510	167,517	83,456
248,888	-0,523	167,349	83,358
249,903	-0,580	167,278	83,283
250,917	-0,346	167,047	83,292
251,932	-0,763	167,219	83,136
252,947	-0,365	167,056	83,271
253,961	-0,402	166,879	83,154
254,976	-0,478	166,622	82,977
255,990	-0,930	166,748	82,780
257,005	-0,497	166,561	82,920
258,020	-0,595	166,378	82,768
259,034	-0,426	166,191	82,761
260,049	-0,280	166,098	82,788
261,063	-0,400	166,091	82,711
262,078	-0,413	165,907	82,605
263,093	-0,466	165,775	82,502
264,107	-0,469	165,667	82,439
265,122	-0,732	165,770	82,338
266,136	-0,469	165,568	82,376
267,151	-0,428	165,486	82,350
268,166	-0,427	165,342	82,272
269,180	-0,186	165,163	82,308
270,195	-0,488	165,150	82,128
271,209	-0,745	165,091	81,950
272,224	-0,587	164,951	81,960
273,239	-0,519	164,872	81,951
274,253	-0,477	164,648	81,855
275,268	-0,227	164,642	81,982
276,282	-0,385	164,323	81,729
277,297	-0,403	164,464	81,782
278,312	-0,128	164,203	81,796
279,326	-0,133	164,135	81,752
280,341	-0,396	164,157	81,611
281,355	-0,246	163,907	81,562
282,370	-0,059	163,711	81,560
283,384	-0,313	163,712	81,414
284,399	-0,445	163,535	81,247
285,414	-0,122	163,484	81,390
286,428	-0,487	163,496	81,190
287,443	-0,359	163,254	81,132
288,457	-0,004	163,205	81,294
289,472	-0,309	163,066	81,052
290,487	-0,160	162,904	81,045
291,501	-0,098	162,878	81,058
292,516	-0,052	162,805	81,040
293,530	-0,076	162,682	80,958
294,545	-0,271	162,514	80,761
295,560	-0,134	162,488	80,815
296,574	-0,011	162,364	80,813
297,589	-0,358	162,260	80,567
298,603	-0,135	162,165	80,633
299,618	-0,064	162,103	80,634
300,633	-0,071	162,029	80,586
301,647	0,017	161,866	80,545
302,662	-0,046	161,761	80,451
303,676	0,021	161,641	80,420
304,691	0,004	161,485	80,326
305,706	-0,016	161,463	80,297
306,720	-0,202	161,146	80,033
307,735	-0,012	161,187	80,148
308,749	-0,242	161,067	79,958
309,764	0,127	161,008	80,119
310,779	-0,203	160,922	79,893
311,793	0,016	160,748	79,916
312,808	-0,075	160,646	79,810
313,822	-0,012	160,554	79,791
314,837	-0,102	160,382	79,650
315,852	-0,285	160,333	79,521
316,866	0,019	160,304	79,662
317,881	0,024	160,180	79,595
318,895	0,126	159,929	79,518
319,910	-0,381	159,982	79,267
320,925	0,238	159,727	79,463
321,939	-0,012	159,697	79,308
322,954	-0,170	159,765	79,251
323,968	0,116	159,570	79,299
324,983	0,002	159,450	79,172
325,997	0,301	159,271	79,233
327,012	0,104	159,132	79,054
328,027	0,408	159,019	79,151
329,041	0,101	159,021	78,983
330,056	0,112	158,821	78,882
331,070	0,038	158,842	78,847
332,085	0,203	158,710	78,861
333,100	0,096	158,572	78,729
334,114	0,355	158,387	78,766
335,129	-0,134	158,357	78,487
336,143	0,420	158,223	78,705
337,158	0,495	158,172	78,712
338,173	0,138	158,085	78,474
339,187	0,162	158,103	78,489
340,202	0,280	157,919	78,452
341,216	0,128	157,864	78,339
342,231	0,333	157,709	78,362
343,246	0,351	157,589	78,304
344,260	0,172	157,572	78,196
345,275	0,562	157,318	78,266
346,289	0,511	157,255	78,201
347,304	0,250	157,255	78,058
348,319	0,247	157,179	78,012
349,333	0,243	157,090	77,958
350,348	0,327	156,846	77,874
351,362	0,462	156,736	77,883
352,377	0,308	156,723	77,789
353,392	0,119	156,636	77,641
354,406	0,238	156,561	77,659
355,421	190,390	1324,073	1388,932
356,435	150,317	1466,747	1389,399
