DTS Sentinel unit serial number:	SN410029Multiplexer serial number:	ORYXHardware model number:	OX2-SRSoftware version number:	ORYX F/W v4,00 Oryx Data Collector v3.7.2.0data status	okinstallation	B3 Nyhavnadifferential loss correction	single-endedforward channel	channel 1reverse channel	N/Adate	2023/11/28time	12:47:31forward acquisition time	300,00reverse acquisition time	0,00gamma	499,1914k internal	0,3138k external	0,3138temperature offset calibration	1,0000default loss term (dB/km)	0,3820temperature slope calibration	1,0000multiplexer offset coefficient	1,0000multiplexer slope coefficient	1,0000fibre end	0,00T internal ref (°C)	8,28T ext. ref 1 (°C)	-7,68T ext. ref 2 (°C)	-7,86length (m)	temperature (°C)	Stokes	anti-Stokes-744,400	-200,000	-0,081	-0,325
-743,385	369,297	-0,172	0,259
-742,371	437,169	0,041	-0,066
-741,356	-200,000	0,054	0,253
-740,342	172,597	-0,168	-0,179
-739,327	800,000	-0,091	0,215
-738,312	388,216	-0,143	-0,220
-737,298	440,488	-0,152	0,248
-736,283	364,772	-0,169	-0,253
-735,269	-200,000	0,004	0,142
-734,254	17,559	-0,187	-0,110
-733,239	-44,865	-0,322	0,118
-732,225	-200,000	-0,025	-0,252
-731,210	800,000	0,074	0,241
-730,196	800,000	0,021	-0,058
-729,181	101,701	0,019	0,017
-728,167	-200,000	0,013	0,141
-727,152	-200,000	-0,012	-0,090
-726,137	254,275	-0,179	-0,227
-725,123	27,569	-0,096	-0,060
-724,108	-139,919	-0,078	-0,006
-723,094	190,424	0,044	-0,049
-722,079	268,469	-0,060	-0,079
-721,064	261,926	-0,024	0,031
-720,050	-24,127	-0,092	0,040
-719,035	87,440	-0,074	0,061
-718,021	-160,837	-0,032	0,001
-717,006	-68,780	-0,102	0,029
-715,991	800,000	-0,052	-0,116
-714,977	-200,000	-0,010	-0,112
-713,962	800,000	-0,019	0,044
-712,948	-200,000	-0,004	0,100
-711,933	301,343	0,102	-0,140
-710,918	457,478	-0,111	-0,184
-709,904	-200,000	0,030	-0,125
-708,889	135,179	-0,037	-0,036
-707,875	218,866	-0,042	-0,050
-706,860	358,872	-0,030	0,045
-705,845	86,040	0,052	0,042
-704,831	-127,397	-0,151	-0,016
-703,816	122,215	-0,135	-0,125
-702,802	800,000	0,051	0,107
-701,787	523,133	-0,059	-0,102
-700,772	-30,500	-0,082	0,034
-699,758	800,000	0,031	0,076
-698,743	800,000	-0,049	-0,118
-697,729	205,282	0,065	0,075
-696,714	-34,738	0,034	0,014
-695,699	586,376	-0,057	0,105
-694,685	-71,379	-0,056	-0,016
-693,670	800,000	-0,044	-0,096
-692,656	800,000	-0,047	-0,126
-691,641	-35,109	0,087	0,035
-690,627	-140,806	0,228	0,017
-689,612	66,777	-0,104	0,078
-688,597	800,000	0,031	0,083
-687,583	-154,646	-0,057	-0,003
-686,568	144,727	-0,112	-0,111
-685,554	-55,144	0,061	-0,020
-684,539	544,321	0,036	-0,065
-683,524	-51,978	0,127	0,043
-682,510	-19,366	-0,120	0,055
-681,495	-116,846	-0,123	0,016
-680,481	-200,000	-0,006	0,092
-679,466	271,312	-0,042	-0,054
-678,451	660,916	0,032	-0,061
-677,437	103,163	0,065	0,056
-676,422	-7,025	-0,078	-0,039
-675,408	-42,314	0,125	-0,047
-674,393	800,000	-0,039	0,116
-673,378	-42,734	-0,128	0,048
-672,364	636,786	-0,059	-0,112
-671,349	-200,000	-0,010	-0,066
-670,335	800,000	0,015	0,031
-669,320	183,339	0,068	0,074
-668,305	47,419	-0,114	0,078
-667,291	800,000	-0,012	0,032
-666,276	71,017	-0,032	-0,025
-665,262	800,000	0,053	-0,132
-664,247	333,191	-0,060	-0,085
-663,232	17,119	0,112	0,065
-662,218	61,039	-0,025	-0,018
-661,203	-200,000	0,006	0,027
-660,189	188,113	-0,076	0,085
-659,174	110,589	0,057	-0,051
-658,159	438,679	0,033	0,054
-657,145	571,084	-0,016	0,029
-656,130	-42,756	-0,116	0,043
-655,116	-200,000	0,013	0,076
-654,101	-200,000	-0,017	0,080
-653,086	9,617	0,110	0,061
-652,072	377,193	-0,027	0,041
-651,057	22,252	-0,090	0,054
-650,043	800,000	0,017	0,050
-649,028	17,606	-0,102	-0,060
-648,014	618,331	0,020	0,037
-646,999	-108,340	-0,097	0,015
-645,984	-8,184	-0,057	0,028
-644,970	-200,000	-0,003	-0,046
-643,955	-200,000	-0,031	-0,154
-642,941	-46,483	0,028	-0,010
-641,926	-70,819	-0,155	0,043
-640,911	-164,455	0,092	0,003
-639,897	-200,000	-0,005	0,089
-638,882	-122,761	-0,050	-0,006
-637,868	-132,899	-0,096	0,009
-636,853	-200,000	-0,003	-0,076
-635,838	771,289	-0,063	0,127
-634,824	-74,851	-0,041	-0,011
-633,809	221,182	0,073	0,086
-632,795	180,237	0,127	0,137
-631,780	-200,000	-0,010	0,088
-630,765	-200,000	-0,032	0,181
-629,751	-200,000	-0,014	-0,157
-628,736	461,327	-0,067	-0,111
-627,722	56,960	-0,069	-0,049
-626,707	-26,123	0,033	-0,014
-625,692	39,501	0,082	-0,054
-624,678	800,000	0,040	-0,101
-623,663	-47,281	0,050	0,018
-622,649	54,791	-0,047	0,034
-621,634	136,552	0,070	0,068
-620,619	31,727	-0,084	-0,054
-619,605	-200,000	-0,010	-0,072
-618,590	-200,000	0,014	0,050
-617,576	-200,000	-0,015	0,098
-616,561	800,000	0,034	0,082
-615,546	-8,643	0,103	0,051
-614,532	-133,452	-0,070	0,006
-613,517	144,515	0,082	-0,080
-612,503	-200,000	0,003	0,142
-611,488	-200,000	-0,006	0,189
-610,474	169,044	-0,101	0,107
-609,459	-200,000	0,016	-0,086
-608,444	-11,463	0,141	-0,068
-607,430	-200,000	-0,020	-0,105
-606,415	284,237	-0,080	-0,107
-605,401	193,722	-0,073	0,082
-604,386	139,543	-0,041	0,040
-603,371	800,000	0,028	0,072
-602,357	111,083	-0,043	-0,038
-601,342	146,405	0,054	0,053
-600,328	-92,862	-0,096	0,020
-599,313	387,702	-0,060	-0,091
-598,298	-101,132	-0,125	-0,022
-597,284	-82,084	0,056	0,013
-596,269	-22,406	-0,087	0,039
-595,255	-200,000	0,015	0,133
-594,240	250,931	0,083	0,104
-593,225	-200,000	0,014	-0,057
-592,211	-200,000	0,011	-0,078
-591,196	-51,293	0,017	-0,006
-590,182	-200,000	0,018	-0,071
-589,167	-200,000	-0,005	-0,126
-588,152	87,311	0,093	-0,076
-587,138	414,324	-0,039	-0,061
-586,123	20,527	-0,056	0,033
-585,109	-102,321	0,059	0,010
-584,094	-101,342	0,051	-0,009
-583,079	-120,370	0,031	0,004
-582,065	-77,533	0,006	-0,002
-581,050	196,317	-0,075	0,084
-580,036	287,418	-0,066	-0,088
-579,021	-200,000	-0,029	0,102
-578,006	103,698	0,020	-0,017
-576,992	-44,210	-0,063	-0,023
-575,977	581,664	0,069	-0,125
-574,963	-129,848	0,144	0,014
-573,948	-115,614	-0,058	-0,008
-572,934	-71,107	-0,079	-0,022
-571,919	-3,607	0,063	-0,032
-570,904	47,924	-0,072	-0,050
-569,890	361,987	-0,065	0,097
-568,875	-101,121	0,031	-0,005
-567,861	-98,262	0,074	-0,014
-566,846	105,237	-0,144	-0,125
-565,831	-74,065	-0,015	-0,004
-564,817	-11,742	-0,075	0,036
-563,802	-63,942	-0,029	0,009
-562,788	11,167	-0,118	0,066
-561,773	91,058	-0,071	0,058
-560,758	-10,284	0,086	-0,042
-559,744	141,046	0,046	0,045
-558,729	-87,708	0,042	0,009
-557,715	610,469	0,030	0,055
-556,700	-85,613	-0,061	-0,014
-555,685	800,000	-0,024	-0,072
-554,671	-200,000	-0,011	0,077
-553,656	20,968	-0,083	-0,050
-552,642	800,000	0,020	-0,061
-551,627	11,139	-0,045	0,025
-550,612	431,817	-0,068	-0,110
-549,598	227,504	-0,038	0,046
-548,583	-200,000	-0,017	-0,058
-547,569	382,113	-0,098	-0,149
-546,554	-166,767	0,114	-0,003
-545,539	-200,000	0,017	0,113
-544,525	11,452	0,070	0,039
-543,510	541,861	0,035	-0,062
-542,496	800,000	-0,023	0,073
-541,481	-36,855	-0,090	-0,035
-540,466	-9,511	0,085	0,042
-539,452	495,310	0,105	0,179
-538,437	800,000	-0,032	0,069
-537,423	-200,000	0,005	0,037
-536,408	-81,736	-0,049	-0,012
-535,393	-84,495	0,046	-0,011
-534,379	767,268	0,078	-0,157
-533,364	-51,382	0,052	0,018
-532,350	102,715	0,099	-0,085
-531,335	315,265	0,058	0,080
-530,321	800,000	0,059	0,134
-529,306	-47,717	0,135	0,048
-528,291	-48,147	0,124	0,044
-527,277	-59,850	-0,040	0,013
-526,262	149,560	0,086	-0,086
-525,248	-26,358	0,123	-0,053
-524,233	-96,293	0,138	-0,027
-523,218	-200,000	-0,026	-0,149
-522,204	152,973	0,045	-0,046
-521,189	-200,000	-0,019	0,163
-520,175	324,848	0,072	-0,102
-519,160	256,870	0,101	-0,128
-518,145	-66,400	0,158	-0,046
-517,131	-200,000	-0,008	0,091
-516,116	158,615	0,053	0,054
-515,102	277,814	0,039	-0,052
-514,087	178,081	-0,118	-0,126
-513,072	-133,384	-0,112	0,010
-512,058	488,204	-0,030	0,051
-511,043	23,460	-0,028	-0,017
-510,029	25,309	0,161	0,098
-509,014	405,851	-0,047	0,073
-507,999	568,928	0,009	0,015
-506,985	-200,000	-0,039	-0,153
-505,970	182,797	-0,072	-0,078
-504,956	-44,644	-0,072	0,026
-503,941	166,094	0,098	-0,102
-502,926	-99,567	0,076	0,014
-501,912	467,210	0,059	0,098
-500,897	66,722	0,155	0,116
-499,883	70,656	0,029	0,022
-498,868	-123,872	0,076	-0,009
-497,853	292,063	0,053	0,072
-496,839	-139,969	0,099	0,008
-495,824	-161,959	0,111	-0,004
-494,810	-172,119	-0,183	0,004
-493,795	50,039	0,073	-0,051
-492,781	62,608	0,028	0,021
-491,766	-196,480	-0,057	-0,000
-490,751	-85,173	-0,115	-0,026
-489,737	-37,369	0,079	-0,031
-488,722	15,948	-0,032	0,018
-487,708	-61,395	0,066	0,020
-486,693	109,804	-0,026	0,023
-485,678	-168,644	0,061	0,002
-484,664	-200,000	0,019	-0,215
-483,649	6,339	0,076	-0,041
-482,635	-9,477	0,040	-0,019
-481,620	304,927	0,081	-0,111
-480,605	-37,366	0,115	0,045
-479,591	30,935	0,110	0,069
-478,576	64,524	0,126	0,093
-477,562	-115,479	0,148	-0,020
-476,547	-200,000	0,003	-0,199
-475,532	383,787	0,019	-0,028
-474,518	-200,000	0,005	0,084
-473,503	598,774	0,044	-0,081
-472,489	26,515	0,038	-0,023
-471,474	164,209	-0,106	-0,109
-470,459	-74,768	-0,060	-0,016
-469,445	-200,000	-0,011	0,218
-468,430	-200,000	0,020	0,068
-467,416	-121,766	0,050	0,006
-466,401	276,459	-0,027	0,035
-465,386	148,466	-0,074	0,073
-464,372	-200,000	-0,003	0,017
-463,357	-122,019	0,130	-0,016
-462,343	51,385	-0,134	-0,093
-461,328	-81,842	-0,046	-0,011
-460,313	159,991	0,089	0,091
-459,299	-200,000	0,029	0,184
-458,284	-32,351	0,092	0,038
-457,270	-73,396	0,017	-0,005
-456,255	-119,154	0,162	0,021
-455,241	49,462	0,038	0,026
-454,226	-200,000	-0,015	0,048
-453,211	-33,380	-0,135	0,055
-452,197	715,276	0,047	0,093
-451,182	488,380	0,084	-0,142
-450,168	470,703	-0,032	-0,053
-449,153	-200,000	0,003	0,081
-448,138	48,992	-0,053	-0,036
-447,124	9,972	-0,044	-0,024
-446,109	800,000	-0,011	0,026
-445,095	800,000	0,029	0,082
-444,080	99,849	0,046	0,039
-443,065	800,000	-0,038	-0,088
-442,051	-95,960	-0,004	-0,001
-441,036	-65,487	-0,103	-0,030
-440,022	800,000	0,015	0,032
-439,007	-121,364	0,106	-0,013
-437,992	800,000	0,025	0,066
-436,978	42,124	-0,043	-0,029
-435,963	-110,104	0,078	0,012
-434,949	-82,193	0,050	0,012
-433,934	-36,825	0,032	-0,012
-432,919	-117,417	-0,135	-0,018
-431,905	-200,000	0,060	-0,205
-430,890	-200,000	0,022	0,116
-429,876	30,573	0,105	0,066
-428,861	-61,778	0,026	0,008
-427,846	276,062	0,025	0,033
-426,832	120,282	0,025	-0,023
-425,817	800,000	-0,084	-0,224
-424,803	119,820	-0,018	-0,017
-423,788	442,379	-0,011	0,018
-422,773	-200,000	-0,021	-0,136
-421,759	644,724	0,044	-0,082
-420,744	-3,941	0,093	0,047
-419,730	387,337	-0,020	-0,030
-418,715	336,575	-0,088	-0,126
-417,701	-44,423	-0,077	0,028
-416,686	463,398	-0,034	0,056
-415,671	800,000	-0,027	0,073
-414,657	800,000	0,067	0,169
-413,642	227,665	-0,066	0,079
-412,628	-122,491	-0,089	0,011
-411,613	-139,521	0,022	-0,002
-410,598	450,942	0,051	-0,083
-409,584	76,400	0,090	-0,069
-408,569	163,524	0,034	0,035
-407,555	-200,000	-0,013	0,073
-406,540	-48,657	-0,099	0,034
-405,525	117,219	-0,044	-0,040
-404,511	304,079	-0,053	-0,072
-403,496	-179,371	-0,063	0,001
-402,482	-200,000	-0,007	0,039
-401,467	268,442	0,099	-0,127
-400,452	-103,853	-0,070	0,012
-399,438	31,905	0,136	-0,086
-398,423	-29,442	-0,204	-0,085
-397,409	151,522	0,104	-0,104
-396,394	266,285	-0,085	-0,109
-395,379	-130,586	-0,165	0,016
-394,365	-200,000	-0,016	0,133
-393,350	9,636	0,104	0,058
-392,336	302,893	-0,072	0,098
-391,321	163,886	0,103	-0,106
-390,306	-78,880	-0,113	-0,028
-389,292	3,198	0,066	-0,035
-388,277	115,210	-0,106	-0,095
-387,263	-200,000	0,030	0,212
-386,248	390,750	0,039	0,059
-385,233	29,869	0,123	0,076
-384,219	-179,768	-0,143	0,002
-383,204	-119,586	-0,105	0,013
-382,190	97,292	-0,056	-0,047
-381,175	197,789	-0,031	-0,034
-380,160	99,496	-0,081	0,069
-379,146	450,559	0,032	0,053
-378,131	409,321	0,042	0,066
-377,117	-200,000	-0,011	0,041
-376,102	-200,000	0,007	-0,063
-375,088	111,746	-0,100	-0,089
-374,073	800,000	0,070	-0,158
-373,058	-14,935	0,080	0,037
-372,044	800,000	0,032	-0,071
-371,029	-100,638	0,106	-0,019
-370,015	-38,413	-0,111	-0,043
-369,000	225,862	0,079	-0,094
-367,985	-148,155	0,037	0,002
-366,971	263,910	0,063	-0,080
-365,956	10,697	-0,033	0,018
-364,942	-200,000	0,017	0,127
-363,927	-155,116	0,121	-0,006
-362,912	-139,854	0,063	0,005
-361,898	107,976	-0,056	-0,049
-360,883	610,251	-0,082	-0,150
-359,869	800,000	0,036	-0,082
-358,854	406,997	0,020	-0,031
-357,839	182,503	-0,021	-0,023
-356,825	95,866	0,063	-0,053
-355,810	-200,000	0,020	0,183
-354,796	-120,214	-0,114	-0,014
-353,781	-200,000	-0,005	-0,039
-352,766	-77,814	-0,115	-0,029
-351,752	50,835	0,029	-0,020
-350,737	-125,733	0,188	0,021
-349,723	-39,225	0,078	0,030
-348,708	800,000	0,031	0,069
-347,693	800,000	0,017	0,049
-346,679	-111,803	-0,064	0,009
-345,664	-129,129	-0,091	-0,009
-344,650	108,001	-0,015	-0,013
-343,635	14,464	0,128	0,073
-342,620	473,897	0,017	-0,028
-341,606	800,000	0,072	0,165
-340,591	-118,228	0,060	-0,008
-339,577	-21,497	-0,051	-0,023
-338,562	349,478	0,075	-0,109
-337,548	800,000	-0,010	0,031
-336,533	213,549	0,095	0,110
-335,518	-200,000	-0,039	0,273
-334,504	-200,000	0,033	0,158
-333,489	395,538	-0,076	-0,117
-332,475	-49,347	-0,068	0,024
-331,460	-37,989	-0,063	-0,024
-330,445	-87,225	0,067	0,015
-329,431	-200,000	0,014	-0,049
-328,416	-99,054	0,087	0,016
-327,402	565,254	-0,031	0,055
-326,387	209,303	-0,060	0,068
-325,372	800,000	-0,016	0,036
-324,358	-200,000	0,023	-0,213
-323,343	188,917	-0,027	0,029
-322,329	-200,000	0,005	0,130
-321,314	228,489	-0,014	0,016
-320,299	800,000	0,039	0,082
-319,285	-200,000	-0,019	-0,089
-318,270	66,714	-0,083	0,061
-317,256	-200,000	-0,011	-0,104
-316,241	-101,013	0,233	0,041
-315,226	800,000	0,020	0,050
-314,212	-200,000	-0,025	-0,083
-313,197	-138,079	0,041	0,003
-312,183	85,621	0,081	-0,065
-311,168	109,643	-0,096	-0,084
-310,153	122,933	-0,146	0,134
-309,139	-200,000	-0,018	0,195
-308,124	588,413	-0,036	-0,065
-307,110	-110,370	-0,128	0,019
-306,095	28,185	0,046	0,029
-305,080	-200,000	-0,008	-0,123
-304,066	344,763	-0,046	-0,066
-303,051	800,000	-0,037	-0,105
-302,037	219,383	-0,082	0,095
-301,022	-18,335	0,068	-0,031
-300,008	-200,000	-0,011	0,078
-298,993	194,223	-0,097	0,107
-297,978	-200,000	0,004	-0,107
-296,964	66,722	0,010	-0,008
-295,949	-76,205	-0,078	0,020
-294,935	-42,337	-0,040	-0,015
-293,920	-6,931	0,089	0,044
-292,905	122,541	0,055	0,050
-291,891	-105,108	-0,166	0,027
-290,876	-87,690	0,069	0,015
-289,862	800,000	-0,036	0,090
-288,847	90,094	-0,128	-0,104
-287,832	75,258	0,137	-0,105
-286,818	99,434	-0,180	-0,151
-285,803	320,363	-0,074	-0,102
-284,789	31,953	0,054	-0,034
-283,774	303,698	0,062	-0,084
-282,759	101,750	-0,069	0,058
-281,745	-10,343	-0,088	-0,043
-280,730	121,162	0,055	0,050
-279,716	23,503	0,022	0,013
-278,701	-65,772	-0,033	-0,009
-277,686	-2,934	0,148	0,075
-276,672	-75,455	-0,033	-0,008
-275,657	176,566	-0,063	-0,067
-274,643	-89,145	-0,091	-0,019
-273,628	95,479	-0,087	-0,072
-272,613	-200,000	0,003	-0,118
-271,599	-53,860	0,133	-0,044
-270,584	-64,078	0,156	-0,046
-269,570	800,000	-0,026	0,064
-268,555	-148,877	0,046	-0,003
-267,540	800,000	-0,043	-0,121
-266,526	179,912	-0,039	-0,041
-265,511	-200,000	0,016	-0,061
-264,497	-1,329	0,119	-0,061
-263,482	800,000	-0,064	-0,141
-262,467	-200,000	0,009	0,032
-261,453	-200,000	0,005	-0,023
-260,438	-138,693	0,049	0,004
-259,424	-56,064	-0,137	-0,044
-258,409	92,767	-0,133	0,110
-257,395	-200,000	-0,019	-0,192
-256,380	-200,000	0,021	0,145
-255,365	-200,000	0,009	0,060
-254,351	-200,000	0,022	-0,146
-253,336	173,450	0,033	-0,035
-252,322	-200,000	0,004	0,048
-251,307	800,000	0,047	-0,101
-250,292	209,698	0,053	0,060
-249,278	130,164	0,081	0,075
-248,263	800,000	0,083	0,222
-247,249	800,000	-0,065	0,185
-246,234	424,521	-0,082	0,129
-245,219	-92,492	-0,189	0,038
-244,205	-71,923	-0,079	-0,021
-243,190	800,000	-0,060	0,128
-242,176	-58,527	0,021	0,007
-241,161	-200,000	-0,014	0,145
-240,146	-78,670	0,069	-0,017
-239,132	800,000	0,022	-0,046
-238,117	717,896	0,037	-0,071
-237,103	800,000	-0,021	-0,059
-236,088	-100,086	0,120	-0,022
-235,073	207,789	-0,044	-0,050
-234,059	800,000	-0,037	0,080
-233,044	-110,201	-0,084	0,013
-232,030	26,761	0,094	0,057
-231,015	-200,000	0,008	-0,165
-230,000	312,269	-0,036	0,049
-228,986	-200,000	0,005	0,021
-227,971	-200,000	-0,005	0,032
-226,957	-200,000	0,016	0,054
-225,942	635,236	-0,014	0,026
-224,927	-24,920	-0,037	-0,016
-223,913	-83,933	0,073	-0,017
-222,898	800,000	-0,048	-0,099
-221,884	-200,000	-0,001	-0,046
-220,869	-200,000	-0,022	0,132
-219,855	664,116	0,041	-0,077
-218,840	-200,000	0,010	0,143
-217,825	-200,000	0,019	-0,115
-216,811	-200,000	0,006	0,046
-215,796	-200,000	-0,006	0,130
-214,782	-135,237	-0,212	-0,018
-213,767	-138,138	0,067	0,005
-212,752	-200,000	0,042	0,140
-211,738	-200,000	0,024	-0,119
-210,723	474,724	-0,028	-0,046
-209,709	399,845	0,024	-0,037
-208,694	800,000	-0,024	0,056
-207,679	-64,895	0,001	0,000
-206,665	-200,000	-0,025	0,141
-205,650	-123,106	0,116	-0,013
-204,636	133,717	0,070	0,066
-203,621	-68,142	-0,042	0,012
-202,606	1,238	-0,080	0,042
-201,592	-200,000	0,017	-0,237
-200,577	392,573	0,026	-0,039
-199,563	120,303	-0,059	0,053
-198,548	-200,000	-0,016	0,117
-197,533	147,151	-0,100	0,098
-196,519	372,429	0,058	-0,086
-195,504	96,336	-0,119	0,099
-194,490	800,000	-0,069	-0,186
-193,475	614,566	-0,087	-0,158
-192,460	-103,855	0,111	-0,019
-191,446	434,697	-0,050	0,079
-190,431	161,206	-0,037	0,038
-189,417	-200,000	-0,021	-0,100
-188,402	-200,000	0,012	0,043
-187,387	-83,736	-0,121	0,028
-186,373	757,934	0,048	0,094
-185,358	286,626	-0,026	0,034
-184,344	-200,000	0,000	0,054
-183,329	373,318	0,046	0,068
-182,315	166,276	-0,037	-0,038
-181,300	-148,221	-0,115	-0,007
-180,285	-200,000	-0,002	0,096
-179,271	127,714	-0,022	0,020
-178,256	-116,364	0,064	0,009
-177,242	-124,240	0,035	-0,004
-176,227	1,177	-0,058	0,030
-175,212	36,945	-0,043	0,027
-174,198	-200,000	-0,030	-0,150
-173,183	214,177	-0,141	-0,162
-172,169	-38,105	-0,053	0,020
-171,154	-41,203	0,085	0,031
-170,139	-200,000	0,017	0,147
-169,125	-121,037	-0,043	-0,005
-168,110	-129,033	0,015	0,002
-167,096	-200,000	-0,015	-0,065
-166,081	427,745	-0,049	-0,078
-165,066	-200,000	0,013	-0,091
-164,052	70,344	-0,075	-0,056
-163,037	-200,000	-0,010	0,052
-162,023	800,000	-0,027	0,060
-161,008	141,949	0,078	0,075
-159,993	-200,000	-0,020	-0,131
-158,979	-200,000	0,001	-0,026
-157,964	-17,782	-0,113	-0,051
-156,950	-172,334	0,021	0,000
-155,935	800,000	-0,034	0,076
-154,920	-200,000	-0,013	0,053
-153,906	-200,000	-0,000	-0,042
-152,891	484,423	0,012	-0,020
-151,877	106,920	-0,103	0,088
-150,862	37,199	0,088	0,056
-149,847	36,562	-0,102	-0,065
-148,833	-46,385	0,025	0,009
-147,818	-134,035	0,136	-0,012
-146,804	-200,000	0,040	0,152
-145,789	800,000	0,010	0,025
-144,775	-200,000	0,008	0,094
-143,760	800,000	-0,021	-0,046
-142,745	-140,050	0,048	0,004
-141,731	-31,312	0,057	0,023
-140,716	-141,691	0,105	0,008
-139,702	-200,000	0,004	-0,054
-138,687	-4,015	0,095	0,047
-137,672	800,000	-0,048	-0,106
-136,658	24,070	-0,072	-0,043
-135,643	297,884	0,069	0,092
-134,629	-2,831	-0,091	0,046
-133,614	-200,000	0,030	0,155
-132,599	579,129	0,111	0,198
-131,585	-120,573	-0,055	-0,007
-130,570	-176,299	0,062	-0,001
-129,556	40,392	-0,130	-0,085
-128,541	185,684	-0,055	-0,059
-127,526	-200,000	-0,006	0,022
-126,512	-200,000	0,010	0,157
-125,497	246,200	0,096	0,117
-124,483	-115,409	0,112	0,015
-123,468	3,206	-0,134	-0,071
-122,453	74,955	-0,055	0,042
-121,439	-10,771	0,058	-0,028
-120,424	-200,000	-0,011	0,042
-119,410	104,518	0,015	-0,013
-118,395	376,016	-0,022	-0,032
-117,380	177,941	0,051	0,054
-116,366	-55,242	-0,133	0,043
-115,351	-82,558	-0,118	-0,028
-114,337	-200,000	0,015	-0,100
-113,322	-127,044	-0,030	0,003
-112,307	-129,521	0,024	-0,002
-111,293	293,126	0,076	0,100
-110,278	800,000	-0,080	0,199
-109,264	-45,560	-0,041	-0,015
-108,249	324,796	0,076	-0,105
-107,234	800,000	-0,048	0,125
-106,220	-200,000	-0,022	-0,153
-105,205	147,975	-0,085	0,083
-104,191	800,000	-0,039	0,091
-103,176	370,457	-0,056	0,082
-102,162	514,109	0,025	0,042
-101,147	25,518	-0,179	-0,108
-100,132	190,070	-0,035	-0,038
-99,118	-40,638	0,108	-0,040
-98,103	-29,182	0,087	0,036
-97,089	-200,000	-0,003	0,093
-96,074	-108,760	0,099	-0,015
-95,059	202,364	0,049	-0,055
-94,045	92,162	-0,137	-0,112
-93,030	-200,000	0,015	-0,104
-92,016	39,008	-0,072	-0,046
-91,001	-151,056	0,093	0,005
-89,986	800,000	0,027	0,057
-88,972	-95,528	0,079	0,015
-87,957	37,895	-0,138	0,089
-86,943	15,038	0,079	-0,045
-85,928	-200,000	0,008	0,042
-84,913	-45,676	-0,136	-0,048
-83,899	-175,789	0,083	-0,002
-82,884	7,253	0,091	-0,049
-81,870	459,089	0,029	-0,046
-80,855	76,041	0,064	0,049
-79,840	60,290	0,009	0,006
-78,826	293,351	-0,027	-0,035
-77,811	-200,000	-0,005	-0,022
-76,797	800,000	0,026	-0,076
-75,782	145,529	0,084	0,081
-74,767	-93,718	0,061	0,012
-73,753	77,840	-0,057	0,044
-72,738	-61,469	0,215	-0,065
-71,724	-200,000	0,002	-0,083
-70,709	-130,281	-0,219	0,021
-69,694	-151,587	-0,108	-0,006
-68,680	-200,000	-0,015	0,102
-67,665	-68,523	0,123	-0,034
-66,651	800,000	0,018	-0,036
-65,636	202,652	-0,093	0,104
-64,622	61,682	-0,100	-0,072
-63,607	-200,000	-0,014	-0,072
-62,592	-58,080	-0,072	-0,023
-61,578	92,433	0,023	-0,019
-60,563	-200,000	0,024	0,121
-59,549	178,388	0,075	0,079
-58,534	54,413	-2,263	-1,572
-57,519	523,219	-1,076	-1,834
-56,505	-200,000	-0,261	-4,277
-55,490	800,000	0,820	1,699
-54,476	800,000	5,112	11,210
-53,461	-200,000	22,063	345,858
-52,446	800,000	754,699	2307,925
-51,432	511,720	1640,764	2769,304
-50,417	67,610	1572,532	1158,544
-49,403	19,035	1157,908	668,652
-48,388	11,476	884,890	488,307
-47,373	25,946	852,615	512,140
-46,359	17,153	838,468	478,796
-45,344	8,420	834,234	451,621
-44,330	8,227	832,726	450,239
-43,315	8,254	831,360	449,559
-42,300	8,210	830,209	448,793
-41,286	8,205	829,206	448,220
-40,271	8,156	828,463	447,663
-39,257	8,256	827,306	447,301
-38,242	8,297	826,326	446,868
-37,227	8,303	825,528	446,436
-36,213	8,283	824,463	445,787
-35,198	8,262	823,850	445,378
-34,184	8,358	823,211	445,284
-33,169	8,212	822,227	444,326
-32,154	8,372	821,447	444,334
-31,140	8,396	820,163	443,690
-30,125	8,368	819,602	443,290
-29,111	8,274	818,982	442,673
-28,096	8,271	818,686	442,489
-27,082	8,289	817,805	442,044
-26,067	8,358	816,875	441,715
-25,052	8,216	816,259	440,970
-24,038	8,187	815,718	440,581
-23,023	8,246	815,047	440,365
-22,009	8,304	814,552	440,240
-20,994	8,375	813,529	439,867
-19,979	8,321	813,098	439,468
-18,965	8,352	812,549	439,240
-17,950	8,360	812,075	438,988
-16,936	8,280	811,498	438,437
-15,921	8,278	810,955	438,120
-14,906	8,185	809,932	437,292
-13,892	8,220	809,523	437,153
-12,877	8,146	809,164	436,738
-11,863	8,133	808,593	436,376
-10,848	8,175	808,078	436,195
-9,833	8,275	807,602	436,198
-8,819	8,275	806,885	435,792
-7,804	8,393	805,911	435,572
-6,790	8,321	805,671	435,229
-5,775	8,261	805,438	434,920
-4,760	8,221	804,902	434,505
-3,746	8,170	804,494	434,127
-2,731	8,030	803,918	433,416
-1,717	8,079	803,561	433,342
-0,702	8,044	802,749	432,789
0,313	8,101	800,049	432,141
1,327	11,771	783,245	432,808
2,342	20,415	637,706	371,011
3,356	14,446	351,192	197,217
4,371	-15,609	236,505	108,450
5,386	-18,720	222,505	99,631
6,400	-18,951	218,244	97,541
7,415	-17,926	216,486	97,513
8,429	-18,774	215,076	96,239
9,444	-18,964	214,461	95,815
10,459	-18,967	213,942	95,572
11,473	-18,983	213,483	95,347
12,488	-18,768	212,998	95,280
13,502	-19,035	212,565	94,882
14,517	-19,005	212,150	94,710
15,531	-19,017	211,593	94,445
16,546	-18,979	211,432	94,392
17,561	-18,982	211,077	94,223
18,575	-18,737	210,928	94,326
19,590	-18,971	210,628	94,013
20,604	-18,721	210,337	94,057
21,619	-19,239	210,016	93,529
22,634	-19,141	209,677	93,441
23,648	-19,065	209,372	93,351
24,663	-18,986	209,197	93,322
25,677	-18,965	208,894	93,194
26,692	-19,090	208,718	93,017
27,707	-18,778	208,591	93,176
28,721	-18,967	208,200	92,858
29,736	-19,071	208,060	92,713
30,750	-19,067	207,905	92,639
31,765	-18,951	207,627	92,589
32,780	-18,817	207,308	92,534
33,794	-18,967	207,328	92,428
34,809	-18,882	206,919	92,298
35,823	-18,826	206,715	92,239
36,838	-18,986	206,630	92,079
37,853	-18,983	206,281	91,917
38,867	-18,766	206,100	91,982
39,882	-19,017	206,034	91,766
40,896	-18,838	205,829	91,794
41,911	-18,884	205,589	91,646
42,926	-18,736	205,236	91,585
43,940	-18,967	205,138	91,370
44,955	-18,917	204,981	91,327
45,969	-19,065	204,824	91,144
46,984	-18,882	204,640	91,183
47,999	-18,904	204,388	91,047
49,013	-19,111	204,379	90,890
50,028	-18,960	204,108	90,867
51,042	-18,933	203,996	90,828
52,057	-18,975	203,759	90,685
53,071	-18,832	203,526	90,674
54,086	-18,763	203,337	90,630
55,101	-18,789	203,208	90,546
56,115	-18,653	202,868	90,481
57,130	-18,855	202,570	90,199
58,144	-18,866	202,499	90,152
59,159	-18,942	202,417	90,055
60,174	-18,901	202,041	89,908
61,188	-18,819	201,972	89,926
62,203	-18,775	201,673	89,815
63,217	-18,969	201,567	89,626
64,232	-18,818	201,428	89,661
65,247	-19,070	201,273	89,409
66,261	-18,745	201,033	89,520
67,276	-18,662	200,749	89,442
68,290	-18,978	200,980	89,319
69,305	-18,674	200,631	89,365
70,320	-18,929	200,502	89,124
71,334	-18,819	200,203	89,059
72,349	-18,793	199,940	88,952
73,363	-19,039	199,929	88,770
74,378	-18,876	199,583	88,720
75,393	-19,089	199,607	88,577
76,407	-18,568	199,279	88,780
77,422	-18,597	199,245	88,737
78,436	-18,873	199,005	88,434
79,451	-18,784	198,726	88,363
80,466	-18,930	198,496	88,153
81,480	-18,948	198,473	88,122
82,495	-18,803	198,213	88,098
83,509	-18,820	198,042	88,003
84,524	-18,763	197,970	88,002
85,539	-18,834	197,767	87,855
86,553	-18,674	197,566	87,867
87,568	-18,709	197,434	87,776
88,582	-18,671	197,214	87,697
89,597	-18,826	197,193	87,574
90,611	-18,890	197,011	87,443
91,626	-18,756	196,817	87,439
92,641	-18,973	196,623	87,199
93,655	-18,844	196,549	87,245
94,670	-18,665	196,218	87,211
95,684	-18,800	196,250	87,126
96,699	-18,989	195,998	86,880
97,714	-18,598	195,693	87,000
98,728	-18,762	195,815	86,936
99,743	-18,569	195,455	86,897
100,757	-18,620	195,386	86,824
101,772	-18,768	195,170	86,622
102,787	-18,734	195,076	86,595
103,801	-18,915	194,920	86,398
104,816	-18,652	194,666	86,452
105,830	-18,786	194,536	86,298
106,845	-18,744	194,462	86,285
107,860	-18,867	194,323	86,134
108,874	-18,694	194,069	86,129
109,889	-18,815	193,976	85,999
110,903	-18,580	193,664	86,009
111,918	-18,773	193,621	85,854
112,933	-18,886	193,612	85,768
113,947	-18,907	193,393	85,649
114,962	-18,565	193,044	85,713
115,976	-18,898	193,114	85,516
116,991	-18,516	192,762	85,605
118,006	-18,908	192,766	85,340
119,020	-18,927	192,731	85,305
120,035	-18,659	192,457	85,352
121,049	-18,765	192,314	85,211
122,064	-18,718	192,093	85,137
123,079	-18,789	191,930	85,011
124,093	-18,747	191,793	84,970
125,108	-18,731	191,679	84,922
126,122	-18,782	191,511	84,807
127,137	-18,643	191,319	84,806
128,151	-18,390	191,189	84,906
129,166	-18,729	191,191	84,677
130,181	-18,529	190,869	84,657
131,195	-18,592	190,608	84,493
132,210	-18,675	190,589	84,423
133,224	-18,879	190,321	84,164
134,239	-18,930	190,373	84,147
135,254	-18,935	190,177	84,049
136,268	-18,460	189,989	84,267
137,283	-18,521	189,777	84,126
138,297	-18,546	189,544	83,999
139,312	-18,558	189,449	83,942
140,327	-18,983	189,161	83,532
141,341	-19,214	189,049	83,326
142,356	-19,243	188,790	83,186
143,370	-17,986	189,127	84,138
144,385	-10,864	191,256	89,719
145,400	-3,871	192,751	94,993
146,414	-2,776	192,975	95,812
147,429	-2,709	192,903	95,811
148,443	-2,338	192,759	95,973
149,458	-2,323	192,658	95,924
150,473	-2,047	192,745	96,139
151,487	-1,892	192,663	96,191
152,502	-1,666	192,403	96,201
153,516	-1,779	192,222	96,028
154,531	-1,492	191,981	96,086
155,546	-1,366	191,857	96,096
156,560	-1,543	191,839	95,964
157,575	-1,778	191,735	95,751
158,589	-1,638	191,535	95,733
159,604	-1,392	191,274	95,754
160,619	-1,736	191,280	95,525
161,633	-1,580	191,291	95,624
162,648	-1,424	191,030	95,585
163,662	-1,284	190,782	95,542
164,677	-1,145	190,688	95,577
165,692	-0,997	190,668	95,654
166,706	-1,365	190,542	95,345
167,721	-1,192	190,424	95,388
168,735	-1,288	190,193	95,203
169,750	-1,176	190,219	95,279
170,764	-1,065	190,051	95,258
171,779	-0,979	189,723	95,140
172,794	-1,313	189,724	94,918
173,808	-1,393	189,516	94,754
174,823	-1,179	189,522	94,886
175,837	-1,253	189,339	94,739
176,852	-1,147	189,366	94,811
177,867	-1,136	189,125	94,689
178,881	-1,376	189,126	94,528
179,896	-1,195	188,854	94,499
180,910	-1,031	188,590	94,463
181,925	-1,190	188,530	94,323
182,940	-1,090	188,531	94,379
183,954	-1,208	188,291	94,175
184,969	-1,180	188,237	94,158
185,983	-0,930	188,095	94,237
186,998	-1,174	187,955	94,004
188,013	-1,127	187,855	93,975
189,027	-1,056	187,604	93,886
190,042	-1,123	187,535	93,801
191,056	-0,851	187,413	93,904
192,071	-0,954	187,395	93,821
193,086	-1,243	187,145	93,505
194,100	-1,217	187,188	93,535
195,115	-1,054	187,011	93,541
196,129	-0,980	186,852	93,499
197,144	-1,108	186,690	93,330
198,159	-0,844	186,360	93,322
199,173	-1,108	186,478	93,206
200,188	-0,764	186,369	93,360
201,202	-1,047	185,997	92,988
202,217	-0,642	185,842	93,156
203,232	-0,823	185,686	92,955
204,246	-0,895	185,598	92,859
205,261	-1,175	185,436	92,594
206,275	-1,138	185,421	92,602
207,290	-0,833	185,220	92,683
208,304	-0,908	185,198	92,617
209,319	-0,997	184,961	92,435
210,334	-0,970	184,903	92,415
211,348	-0,963	184,661	92,290
212,363	-1,014	184,665	92,252
213,377	-0,893	184,529	92,251
214,392	-0,664	184,355	92,298
215,407	-0,967	184,415	92,131
216,421	-0,817	184,241	92,130
217,436	-0,620	183,958	92,102
218,450	-0,901	183,860	91,870
219,465	-0,746	183,739	91,897
220,480	-0,975	183,787	91,771
221,494	-0,604	183,508	91,853
222,509	-0,810	183,394	91,661
223,523	-1,257	183,301	91,331
224,538	-0,734	183,154	91,571
225,553	-0,731	183,055	91,516
226,567	-0,768	182,766	91,340
227,582	-0,952	182,710	91,192
228,596	-0,756	182,764	91,330
229,611	-0,426	182,559	91,423
230,626	-0,819	182,446	91,117
231,640	-0,913	182,466	91,061
232,655	-0,562	182,180	91,125
233,669	-0,739	182,043	90,940
234,684	-0,972	182,009	90,772
235,699	-0,679	181,908	90,893
236,713	-0,424	181,607	90,890
237,728	-0,197	181,604	91,019
238,742	-0,695	181,522	90,666
239,757	-0,497	181,351	90,693
240,772	-0,684	181,311	90,551
241,786	-0,594	181,049	90,467
242,801	-0,624	181,045	90,439
243,815	-0,702	180,823	90,273
244,830	-0,617	180,866	90,337
245,844	-0,810	180,683	90,121
246,859	-0,550	180,494	90,176
247,874	-0,696	180,356	90,011
248,888	-0,596	180,356	90,063
249,903	-0,506	180,225	90,044
250,917	-0,461	179,979	89,941
251,932	-0,453	179,961	89,928
252,947	-0,247	179,855	89,991
253,961	-0,432	179,593	89,741
254,976	-0,510	179,642	89,711
255,990	-0,662	179,527	89,554
257,005	-0,262	179,262	89,654
258,020	-0,408	179,199	89,527
259,034	-0,336	179,118	89,521
260,049	-0,468	178,964	89,357
261,063	-0,456	178,851	89,300
262,078	-0,274	178,688	89,320
263,093	-0,454	178,592	89,156
264,107	-0,423	178,531	89,136
265,122	-0,388	178,420	89,093
266,136	-0,225	178,271	89,109
267,151	-0,192	178,035	89,003
268,166	-0,335	177,926	88,855
269,180	-0,449	177,928	88,780
270,195	-0,209	177,824	88,863
271,209	-0,409	177,707	88,678
272,224	-0,340	177,539	88,627
273,239	-0,082	177,465	88,735
274,253	-0,481	177,460	88,488
275,268	-0,302	177,198	88,456
276,282	-0,240	176,979	88,375
277,297	-0,137	176,794	88,336
278,312	-0,259	176,771	88,244
279,326	-0,184	176,769	88,280
280,341	-0,067	176,680	88,297
281,355	0,024	176,573	88,289
282,370	0,020	176,326	88,155
283,384	-0,192	176,383	88,051
284,399	-0,070	176,175	88,011
285,414	0,111	176,024	88,035
286,428	-0,141	175,816	87,775
287,443	-0,148	175,871	87,790
288,457	-0,256	175,796	87,681
289,472	-0,031	175,585	87,700
290,487	-0,321	175,522	87,490
291,501	-0,167	175,474	87,549
292,516	-0,178	175,342	87,469
293,530	-0,086	175,238	87,463
294,545	-0,056	175,009	87,359
295,560	-0,068	175,080	87,380
296,574	0,015	174,881	87,321
297,589	-0,041	174,755	87,217
298,603	-0,128	174,455	87,009
299,618	0,034	174,382	87,059
300,633	-0,276	174,515	86,937
301,647	-0,006	174,378	87,018
302,662	-0,048	174,069	86,832
303,676	-0,125	174,143	86,817
304,691	-0,157	173,964	86,701
305,706	-0,255	173,753	86,531
306,720	0,026	173,533	86,577
307,735	-0,165	173,617	86,500
308,749	0,389	173,448	86,729
309,764	0,024	173,460	86,516
310,779	0,303	173,153	86,516
311,793	0,233	173,056	86,419
312,808	0,122	172,844	86,242
313,822	0,127	172,806	86,218
314,837	0,194	172,818	86,256
315,852	-0,036	172,772	86,092
316,866	0,148	172,599	86,104
317,881	0,281	172,398	86,073
318,895	0,108	172,306	85,920
319,910	0,188	172,282	85,946
320,925	0,311	172,071	85,903
321,939	-0,023	172,021	85,679
322,954	0,137	171,921	85,714
323,968	-0,245	172,014	85,533
324,983	0,060	171,715	85,552
325,997	0,285	171,425	85,528
327,012	0,005	171,536	85,415
328,027	0,254	171,353	85,459
329,041	-0,061	171,274	85,233
330,056	-0,088	171,215	85,180
331,070	0,230	171,071	85,282
332,085	0,197	170,988	85,214
333,100	0,230	170,778	85,121
334,114	0,423	170,662	85,165
335,129	0,096	170,479	84,881
336,143	0,446	170,430	85,047
337,158	0,221	170,384	84,889
338,173	0,385	170,280	84,922
339,187	0,277	170,150	84,789
340,202	0,074	170,193	84,688
341,216	0,305	170,056	84,743
342,231	0,259	169,747	84,555
343,246	0,459	169,641	84,608
344,260	0,597	169,502	84,609
345,275	0,548	169,400	84,523
346,289	0,458	169,292	84,410
347,304	0,299	169,266	84,300
348,319	0,323	169,054	84,201
349,333	0,432	168,958	84,206
350,348	0,464	168,876	84,177
351,362	0,500	168,871	84,187
352,377	0,336	168,704	84,004
353,392	0,177	168,759	83,935
354,406	0,469	168,550	83,987
355,421	189,955	1325,911	1393,638
356,435	150,303	1467,357	1394,111
