DTS Sentinel unit serial number:	SN410029Multiplexer serial number:	ORYXHardware model number:	OX2-SRSoftware version number:	ORYX F/W v4,00 Oryx Data Collector v3.7.2.0data status	okinstallation	B3 Nyhavnadifferential loss correction	single-endedforward channel	channel 1reverse channel	N/Adate	2023/11/28time	10:27:30forward acquisition time	300,00reverse acquisition time	0,00gamma	499,1914k internal	0,3141k external	0,3141temperature offset calibration	1,0000default loss term (dB/km)	0,3820temperature slope calibration	1,0000multiplexer offset coefficient	1,0000multiplexer slope coefficient	1,0000fibre end	0,00T internal ref (°C)	10,02T ext. ref 1 (°C)	-6,79T ext. ref 2 (°C)	-7,04length (m)	temperature (°C)	Stokes	anti-Stokes-744,400	185,575	-0,139	-0,153
-743,385	800,000	-0,092	0,249
-742,371	-200,000	-0,067	-0,252
-741,356	188,372	-0,290	0,321
-740,342	-40,033	-0,199	-0,076
-739,327	-200,000	-0,048	0,285
-738,312	784,419	-0,144	-0,294
-737,298	163,655	-0,198	0,207
-736,283	800,000	-0,054	-0,117
-735,269	140,825	-0,198	0,194
-734,254	-120,680	-0,062	0,008
-733,239	-17,708	-0,225	0,104
-732,225	800,000	-0,029	-0,066
-731,210	-200,000	-0,016	0,198
-730,196	-200,000	0,002	-0,041
-729,181	-63,905	0,090	0,027
-728,167	-11,672	-0,092	-0,045
-727,152	-19,106	-0,132	-0,061
-726,137	69,573	0,067	0,051
-725,123	240,801	-0,058	0,072
-724,108	-126,691	-0,023	0,002
-723,094	772,656	0,042	-0,084
-722,079	308,750	-0,068	-0,094
-721,064	91,749	-0,048	-0,040
-720,050	-144,041	-0,115	-0,008
-719,035	-117,735	-0,025	0,003
-718,021	800,000	-0,039	0,096
-717,006	-187,652	-0,067	0,001
-715,991	-195,801	-0,249	0,001
-714,977	300,476	-0,097	-0,133
-713,962	-200,000	-0,001	-0,029
-712,948	265,832	0,065	0,085
-711,933	378,851	-0,009	0,014
-710,918	-17,963	-0,074	-0,034
-709,904	-139,077	0,033	0,003
-708,889	768,333	0,032	-0,065
-707,875	-109,330	-0,196	-0,030
-706,860	-25,836	0,112	-0,048
-705,845	314,639	0,055	-0,077
-704,831	15,066	0,141	0,082
-703,816	54,656	-0,066	-0,047
-702,802	284,403	-0,049	-0,066
-701,787	-170,851	-0,027	-0,001
-700,772	-120,807	-0,188	-0,023
-699,758	70,943	0,110	-0,084
-698,743	349,864	0,076	0,111
-697,729	463,776	0,054	-0,090
-696,714	264,032	0,067	-0,086
-695,699	-71,944	-0,101	0,028
-694,685	146,175	-0,088	0,087
-693,670	-102,400	0,111	0,020
-692,656	262,562	-0,066	-0,085
-691,641	65,639	0,141	0,105
-690,627	-200,000	0,002	0,014
-689,612	-75,359	0,028	0,007
-688,597	31,363	-0,041	0,026
-687,583	-200,000	-0,004	-0,074
-686,568	-7,772	-0,040	0,020
-685,554	145,521	-0,078	0,078
-684,539	-200,000	0,013	-0,104
-683,524	171,226	0,053	0,056
-682,510	-200,000	0,007	-0,099
-681,495	-43,166	-0,137	0,051
-680,481	338,037	-0,032	-0,046
-679,466	-200,000	-0,014	-0,056
-678,451	-200,000	0,013	-0,111
-677,437	-158,696	0,133	-0,006
-676,422	-9,339	0,042	-0,021
-675,408	0,244	0,132	-0,069
-674,393	25,898	-0,018	0,011
-673,378	-162,893	-0,067	0,002
-672,364	-200,000	-0,012	-0,127
-671,349	70,291	0,055	-0,042
-670,335	193,462	0,019	0,022
-669,320	34,170	-0,043	0,028
-668,305	35,144	-0,102	0,066
-667,291	-25,967	-0,100	0,044
-666,276	107,289	-0,052	-0,045
-665,262	-200,000	-0,022	-0,111
-664,247	206,112	-0,023	0,027
-663,232	225,948	-0,034	0,041
-662,218	-200,000	-0,014	0,093
-661,203	-200,000	0,019	0,120
-660,189	800,000	0,027	0,066
-659,174	-200,000	-0,026	-0,123
-658,159	-31,146	-0,184	-0,076
-657,145	-61,166	0,020	-0,006
-656,130	-200,000	0,001	-0,039
-655,116	-172,722	0,106	-0,002
-654,101	-200,000	0,014	-0,245
-653,086	325,877	0,048	-0,068
-652,072	-200,000	0,008	-0,085
-651,057	251,367	0,027	-0,034
-650,043	21,961	0,023	0,014
-649,028	123,101	-0,040	0,037
-648,014	800,000	0,044	-0,096
-646,999	559,556	0,025	0,044
-645,984	58,896	-0,021	-0,015
-644,970	-200,000	0,008	-0,150
-643,955	-87,544	-0,150	-0,033
-642,941	-200,000	-0,003	-0,099
-641,926	-200,000	-0,006	-0,073
-640,911	-200,000	0,031	0,114
-639,897	-200,000	0,006	0,133
-638,882	-200,000	0,030	-0,156
-637,868	16,324	0,128	-0,074
-636,853	-200,000	-0,029	-0,106
-635,838	676,518	-0,063	-0,121
-634,824	10,679	0,114	0,064
-633,809	496,092	0,033	0,056
-632,795	-184,472	-0,047	-0,001
-631,780	400,436	0,049	-0,076
-630,765	297,521	-0,042	-0,058
-629,751	-200,000	0,019	-0,064
-628,736	284,299	0,059	-0,079
-627,722	413,901	0,045	0,071
-626,707	-200,000	0,009	0,094
-625,692	-48,508	0,057	0,020
-624,678	800,000	0,024	0,075
-623,663	-200,000	0,010	-0,090
-622,649	171,295	-0,041	0,043
-621,634	-200,000	-0,012	-0,063
-620,619	-200,000	0,004	-0,107
-619,605	-123,569	0,139	0,016
-618,590	470,154	0,036	0,060
-617,576	199,654	0,079	0,090
-616,561	645,230	0,038	0,071
-615,546	-75,346	-0,110	0,029
-614,532	39,625	-0,050	0,033
-613,517	54,064	0,094	-0,067
-612,503	-200,000	-0,017	-0,127
-611,488	-1,477	0,045	0,023
-610,474	666,959	-0,011	-0,021
-609,459	100,833	0,103	-0,088
-608,444	800,000	-0,048	-0,107
-607,430	-52,869	-0,144	-0,049
-606,415	-12,143	-0,139	0,067
-605,401	-200,000	-0,016	0,136
-604,386	77,015	0,089	0,069
-603,371	-104,006	0,074	-0,013
-602,357	-200,000	0,022	-0,108
-601,342	318,875	-0,095	-0,134
-600,328	800,000	0,019	-0,060
-599,313	800,000	0,025	-0,052
-598,298	-92,649	0,112	0,023
-597,284	-39,522	-0,120	0,046
-596,269	-200,000	0,021	-0,091
-595,255	-200,000	0,010	0,085
-594,240	-200,000	0,016	-0,090
-593,225	100,825	0,106	-0,091
-592,211	-81,840	-0,107	-0,025
-591,196	-179,070	0,059	0,001
-590,182	417,565	0,053	-0,084
-589,167	56,292	0,073	-0,052
-588,152	-200,000	0,014	-0,077
-587,138	204,914	-0,079	0,090
-586,123	-200,000	-0,008	-0,105
-585,109	800,000	0,030	-0,095
-584,094	140,781	-0,056	0,054
-583,079	75,629	0,055	-0,043
-582,065	800,000	-0,037	-0,103
-581,050	397,481	0,032	0,049
-580,036	-91,556	-0,158	0,033
-579,021	-200,000	-0,004	-0,020
-578,006	228,400	0,017	-0,021
-576,992	292,229	-0,061	0,082
-575,977	320,822	0,119	0,167
-574,963	395,225	-0,050	0,077
-573,948	-32,656	0,128	-0,052
-572,934	-200,000	-0,023	0,098
-571,919	-200,000	-0,017	-0,061
-570,904	-200,000	-0,010	0,058
-569,890	125,346	-0,061	-0,057
-568,875	88,272	0,112	-0,092
-567,861	21,375	-0,145	0,086
-566,846	800,000	0,032	0,073
-565,831	-46,338	0,014	0,005
-564,817	429,519	-0,055	-0,088
-563,802	-123,620	-0,107	0,012
-562,788	-79,919	-0,006	0,001
-561,773	-200,000	0,007	0,051
-560,758	-47,744	0,050	0,018
-559,744	190,140	0,039	0,043
-558,729	800,000	-0,066	-0,157
-557,715	43,247	0,150	0,101
-556,700	800,000	-0,028	-0,077
-555,685	-113,790	-0,047	-0,007
-554,671	-13,857	-0,061	0,029
-553,656	-97,063	0,086	-0,016
-552,642	-200,000	0,007	-0,037
-551,627	108,692	-0,029	0,025
-550,612	448,436	-0,057	-0,092
-549,598	-200,000	0,027	-0,127
-548,583	0,348	-0,069	-0,036
-547,569	-200,000	-0,017	-0,134
-546,554	219,193	0,033	-0,039
-545,539	293,507	-0,019	-0,026
-544,525	800,000	0,030	0,082
-543,510	-94,149	-0,132	0,026
-542,496	-43,047	-0,038	0,014
-541,481	-200,000	-0,015	-0,229
-540,466	120,968	0,050	-0,046
-539,452	219,378	-0,108	0,127
-538,437	134,267	-0,101	0,096
-537,423	100,642	0,023	0,020
-536,408	18,802	-0,095	-0,056
-535,393	-200,000	-0,013	-0,115
-534,379	57,348	-0,127	-0,091
-533,364	800,000	-0,034	0,098
-532,350	-200,000	-0,006	-0,050
-531,335	189,953	0,035	0,038
-530,321	-112,077	0,056	0,008
-529,306	-200,000	0,001	-0,113
-528,291	132,752	-0,053	-0,050
-527,277	-87,813	-0,215	-0,047
-526,262	-84,170	0,141	-0,033
-525,248	215,784	0,085	-0,099
-524,233	-102,761	-0,103	0,018
-523,218	-200,000	0,002	0,129
-522,204	-117,314	0,174	-0,023
-521,189	303,267	0,014	-0,019
-520,175	800,000	-0,042	-0,121
-519,160	362,854	0,013	0,019
-518,145	-84,648	-0,164	-0,038
-517,131	120,524	0,139	0,127
-516,116	-200,000	-0,006	-0,064
-515,102	-75,394	-0,096	0,025
-514,087	393,838	-0,042	-0,065
-513,072	-103,192	-0,013	0,002
-512,058	99,592	0,036	-0,031
-511,043	800,000	-0,037	-0,080
-510,029	183,731	0,028	0,030
-509,014	450,572	-0,049	0,080
-507,999	-200,000	-0,007	-0,030
-506,985	62,347	-0,120	0,088
-505,970	800,000	-0,044	-0,095
-504,956	206,265	0,048	0,055
-503,941	506,723	0,056	0,095
-502,926	355,030	0,042	0,062
-501,912	-38,169	0,069	-0,027
-500,897	-160,998	-0,060	-0,002
-499,883	49,899	0,047	-0,033
-498,868	691,018	0,078	-0,152
-497,853	762,083	-0,025	-0,049
-496,839	635,978	0,046	0,087
-495,824	459,612	-0,051	-0,083
-494,810	800,000	0,038	-0,079
-493,795	-82,552	0,020	0,005
-492,781	-200,000	0,004	-0,061
-491,766	-200,000	-0,029	-0,120
-490,751	800,000	-0,040	-0,105
-489,737	-21,999	-0,015	-0,006
-488,722	239,165	0,109	0,134
-487,708	800,000	-0,021	0,050
-486,693	800,000	0,056	0,149
-485,678	800,000	0,025	0,056
-484,664	153,935	-0,127	-0,128
-483,649	-200,000	0,015	-0,134
-482,635	572,123	-0,099	-0,178
-481,620	-169,811	0,126	-0,003
-480,605	-19,341	-0,096	-0,043
-479,591	43,515	-0,060	0,040
-478,576	551,388	0,044	0,077
-477,562	800,000	0,076	-0,202
-476,547	-9,913	0,092	0,045
-475,532	233,927	-0,025	0,031
-474,518	-32,760	-0,021	-0,008
-473,503	30,923	0,095	0,059
-472,489	-200,000	0,021	0,107
-471,474	800,000	0,055	0,123
-470,459	800,000	0,012	-0,035
-469,445	444,612	-0,078	-0,127
-468,430	-8,855	-0,064	-0,031
-467,416	95,645	-0,016	-0,013
-466,401	-5,523	0,095	0,048
-465,386	-200,000	-0,008	0,156
-464,372	162,181	-0,079	-0,081
-463,357	800,000	-0,007	0,015
-462,343	-200,000	-0,019	-0,181
-461,328	-105,765	-0,038	-0,006
-460,313	334,083	-0,080	0,114
-459,299	214,727	0,153	0,178
-458,284	105,632	0,084	0,073
-457,270	3,463	-0,042	0,022
-456,255	-172,968	-0,043	0,001
-455,241	260,212	-0,047	0,060
-454,226	-10,987	0,098	0,047
-453,211	-67,526	-0,119	0,034
-452,197	800,000	-0,024	0,068
-451,182	-72,323	-0,064	-0,017
-450,168	-115,456	0,032	0,004
-449,153	-200,000	-0,018	-0,077
-448,138	800,000	-0,011	-0,030
-447,124	-138,298	-0,054	0,004
-446,109	-96,235	-0,071	-0,014
-445,095	-159,415	0,051	-0,002
-444,080	-94,436	-0,162	0,032
-443,065	800,000	0,015	-0,048
-442,051	262,113	0,024	-0,030
-441,036	681,286	-0,046	-0,089
-440,022	86,280	0,029	-0,023
-439,007	-34,098	-0,091	-0,036
-437,992	-200,000	-0,023	0,092
-436,978	-200,000	0,003	-0,191
-435,963	-20,736	-0,033	-0,015
-434,949	-122,433	-0,093	-0,011
-433,934	800,000	-0,055	0,116
-432,919	150,607	-0,059	0,059
-431,905	-27,729	-0,125	-0,053
-430,890	489,610	-0,031	0,052
-429,876	-49,350	-0,057	0,020
-428,861	-200,000	0,023	0,151
-427,846	-166,200	-0,135	0,004
-426,832	-200,000	0,000	-0,014
-425,817	195,936	-0,079	-0,088
-424,803	-120,570	-0,076	0,009
-423,788	260,264	-0,051	0,065
-422,773	355,863	0,068	0,100
-421,759	-103,885	0,213	0,036
-420,744	116,235	0,050	-0,044
-419,730	120,732	0,091	0,082
-418,715	104,592	-0,071	-0,061
-417,701	-200,000	-0,043	0,149
-416,686	-200,000	-0,007	0,185
-415,671	-200,000	0,016	0,170
-414,657	-87,218	0,100	-0,022
-413,642	-70,475	0,191	0,053
-412,628	-108,346	-0,129	-0,020
-411,613	800,000	-0,106	-0,232
-410,598	254,816	-0,075	-0,094
-409,584	-87,782	0,053	0,012
-408,569	800,000	-0,067	0,169
-407,555	-200,000	0,002	0,040
-406,540	-200,000	-0,027	0,098
-405,525	-21,584	-0,157	-0,070
-404,511	-106,737	-0,082	-0,013
-403,496	493,549	0,062	-0,105
-402,482	-125,540	0,102	0,011
-401,467	-200,000	-0,006	-0,080
-400,452	800,000	0,021	0,046
-399,438	-0,074	0,016	-0,008
-398,423	619,399	0,006	-0,010
-397,409	-200,000	0,012	-0,163
-396,394	323,024	-0,015	0,020
-395,379	119,805	0,030	0,027
-394,365	-97,368	0,123	-0,023
-393,350	74,108	0,092	0,071
-392,336	155,794	0,116	-0,117
-391,321	-114,510	0,069	0,010
-390,306	800,000	0,037	-0,083
-389,292	-200,000	0,009	0,047
-388,277	54,485	0,069	0,049
-387,263	-140,486	0,117	0,009
-386,248	52,959	0,043	0,030
-385,233	104,181	0,031	-0,027
-384,219	-57,712	0,054	-0,017
-383,204	27,458	0,025	-0,015
-382,190	473,052	0,044	0,073
-381,175	-200,000	0,004	0,037
-380,160	5,271	-0,067	-0,036
-379,146	122,591	0,072	0,066
-378,131	262,583	-0,077	0,098
-377,117	800,000	0,026	0,071
-376,102	-74,866	-0,051	-0,013
-375,088	-84,235	0,037	0,009
-374,073	-200,000	0,054	-0,202
-373,058	-200,000	0,031	-0,153
-372,044	-109,605	0,093	-0,014
-371,029	250,883	0,068	0,084
-370,015	800,000	-0,011	-0,028
-369,000	11,697	-0,031	-0,017
-367,985	800,000	0,033	-0,080
-366,971	217,950	-0,073	-0,085
-365,956	-114,209	0,143	-0,020
-364,942	-200,000	0,032	0,127
-363,927	-200,000	0,029	-0,108
-362,912	103,681	-0,079	-0,068
-361,898	287,542	-0,023	-0,031
-360,883	-200,000	0,008	-0,037
-359,869	-6,632	-0,089	0,044
-358,854	-152,565	0,065	0,003
-357,839	-200,000	0,003	0,043
-356,825	-179,293	-0,040	0,001
-355,810	800,000	-0,060	0,131
-354,796	-200,000	-0,004	0,037
-353,781	37,017	-0,142	0,092
-352,766	186,836	-0,053	-0,058
-351,752	-90,645	0,104	0,022
-350,737	9,797	0,122	0,067
-349,723	168,292	0,090	0,093
-348,708	-11,423	-0,069	0,033
-347,693	-80,268	-0,017	-0,004
-346,679	-200,000	-0,112	-0,000
-345,664	-200,000	-0,022	-0,115
-344,650	-200,000	0,001	-0,095
-343,635	155,431	0,028	0,028
-342,620	-144,136	-0,098	0,007
-341,606	340,932	0,039	0,055
-340,591	220,301	-0,061	-0,071
-339,577	-200,000	0,031	-0,125
-338,562	-200,000	-0,019	0,071
-337,548	555,386	0,067	0,118
-336,533	4,762	0,031	-0,017
-335,518	-200,000	0,026	0,102
-334,504	202,165	0,092	0,104
-333,489	137,221	-0,107	0,102
-332,475	104,664	-0,111	-0,096
-331,460	122,487	0,103	-0,094
-330,445	-200,000	0,012	-0,056
-329,431	-42,368	-0,102	-0,038
-328,416	-200,000	-0,027	0,109
-327,402	800,000	0,056	0,155
-326,387	-200,000	-0,018	-0,060
-325,372	77,397	-0,068	-0,053
-324,358	-200,000	0,002	-0,052
-323,343	-200,000	0,003	-0,064
-322,329	-89,864	-0,071	-0,015
-321,314	138,244	0,044	0,042
-320,299	-200,000	0,007	0,046
-319,285	-200,000	0,012	0,094
-318,270	269,932	-0,036	0,046
-317,256	71,973	-0,079	-0,060
-316,241	-32,959	-0,149	-0,060
-315,226	727,166	0,024	0,047
-314,212	58,041	-0,032	0,023
-313,197	-154,478	0,092	0,004
-312,183	-200,000	-0,026	-0,091
-311,168	44,600	0,063	0,042
-310,153	-108,089	0,142	0,022
-309,139	-200,000	-0,021	0,109
-308,124	-200,000	-0,000	-0,064
-307,110	-200,000	-0,017	-0,058
-306,095	73,971	0,046	0,035
-305,080	-61,870	0,051	-0,015
-304,066	800,000	0,004	-0,010
-303,051	-52,930	0,104	0,035
-302,037	521,807	-0,053	-0,091
-301,022	800,000	-0,008	0,016
-300,008	-120,485	0,130	0,016
-298,993	800,000	-0,027	0,078
-297,978	40,083	-0,039	-0,026
-296,964	-178,847	0,101	-0,002
-295,949	-103,290	-0,083	-0,014
-294,935	218,356	0,038	0,045
-293,920	81,270	0,146	0,115
-292,905	800,000	0,033	0,101
-291,891	-148,549	-0,131	-0,008
-290,876	395,909	0,063	-0,096
-289,862	-200,000	0,041	-0,143
-288,847	251,813	0,110	-0,136
-287,832	203,702	-0,083	-0,094
-286,818	-200,000	-0,031	0,117
-285,803	-171,645	0,065	-0,002
-284,789	409,579	-0,111	0,171
-283,774	-101,579	0,076	0,013
-282,759	800,000	0,023	-0,050
-281,745	-99,610	0,072	-0,013
-280,730	-103,448	-0,033	-0,006
-279,716	800,000	-0,047	0,124
-278,701	-5,480	-0,089	0,044
-277,686	-200,000	0,006	-0,033
-276,672	-159,329	0,062	0,002
-275,657	-200,000	-0,003	0,158
-274,643	241,202	-0,020	0,024
-273,628	-87,001	0,170	-0,037
-272,613	-200,000	0,002	0,108
-271,599	-200,000	0,034	0,133
-270,584	-56,922	-0,120	0,038
-269,570	82,716	0,053	-0,042
-268,555	800,000	-0,037	0,089
-267,540	316,506	-0,006	0,008
-266,526	-200,000	-0,001	-0,226
-265,511	770,589	0,049	0,097
-264,497	-200,000	0,015	-0,154
-263,482	-200,000	0,010	0,111
-262,467	202,977	-0,055	0,061
-261,453	-128,885	-0,160	0,016
-260,438	-200,000	0,031	0,144
-259,424	-144,632	-0,070	0,005
-258,409	15,340	0,013	0,008
-257,395	-94,474	0,061	0,012
-256,380	312,802	0,062	0,085
-255,365	153,546	-0,079	0,079
-254,351	194,405	0,145	0,160
-253,336	-79,975	0,056	0,013
-252,322	-98,714	-0,102	-0,019
-251,307	800,000	0,041	-0,090
-250,292	-3,141	0,089	-0,045
-249,278	9,279	0,020	0,011
-248,263	800,000	0,051	0,119
-247,249	-2,890	0,117	0,059
-246,234	-200,000	-0,007	-0,094
-245,219	-200,000	-0,003	0,065
-244,205	-8,314	0,065	-0,032
-243,190	-200,000	-0,002	0,040
-242,176	262,047	-0,076	0,096
-241,161	130,197	0,082	-0,076
-240,146	113,220	-0,134	0,118
-239,132	-121,708	0,045	-0,005
-238,117	-137,227	-0,139	0,011
-237,103	-199,370	-0,201	0,001
-236,088	-182,531	0,057	0,001
-235,073	573,355	-0,062	0,111
-234,059	-82,402	0,065	-0,015
-233,044	-200,000	0,029	0,138
-232,030	-117,850	-0,085	0,011
-231,015	800,000	0,026	-0,080
-230,000	164,819	-0,082	-0,084
-228,986	36,544	-0,111	-0,071
-227,971	-96,586	0,123	0,023
-226,957	-60,046	-0,070	-0,022
-225,942	325,635	-0,017	-0,024
-224,927	142,678	0,070	-0,067
-223,913	-2,184	-0,099	-0,050
-222,898	-200,000	0,002	0,075
-221,884	155,585	-0,102	-0,102
-220,869	800,000	0,036	0,096
-219,855	-200,000	-0,006	0,031
-218,840	-200,000	-0,000	0,154
-217,825	232,564	0,066	-0,079
-216,811	456,536	-0,026	-0,042
-215,796	-200,000	-0,013	-0,154
-214,782	-200,000	-0,019	-0,121
-213,767	-200,000	0,017	0,158
-212,752	149,760	0,074	0,073
-211,738	-53,410	0,117	-0,039
-210,723	800,000	-0,017	-0,037
-209,709	38,804	-0,100	0,065
-208,694	-3,309	-0,122	-0,061
-207,679	440,364	-0,046	0,072
-206,665	344,449	0,028	0,039
-205,650	157,879	0,057	0,057
-204,636	544,654	-0,029	-0,051
-203,621	397,499	0,015	0,023
-202,606	-200,000	0,037	0,129
-201,592	-109,032	-0,141	0,022
-200,577	-200,000	0,015	-0,090
-199,563	131,203	0,032	-0,030
-198,548	-200,000	-0,017	0,091
-197,533	800,000	-0,008	0,020
-196,519	625,444	0,071	0,130
-195,504	522,851	-0,031	0,054
-194,490	512,678	-0,047	0,080
-193,475	800,000	0,049	-0,140
-192,460	518,598	0,026	0,045
-191,446	-36,472	-0,046	0,018
-190,431	169,828	0,122	0,126
-189,417	8,083	0,070	-0,038
-188,402	584,138	-0,087	0,155
-187,387	469,452	-0,058	-0,096
-186,373	-200,000	-0,015	-0,107
-185,358	-200,000	0,005	0,025
-184,344	-17,124	0,119	-0,054
-183,329	-200,000	0,025	0,082
-182,315	-190,076	0,043	-0,000
-181,300	-200,000	0,006	0,119
-180,285	76,001	-0,047	-0,036
-179,271	138,792	0,067	-0,064
-178,256	-44,837	0,091	0,033
-177,242	148,293	0,069	-0,068
-176,227	-200,000	-0,041	-0,171
-175,212	648,671	0,068	0,127
-174,198	800,000	0,016	0,035
-173,183	-99,134	-0,238	0,043
-172,169	-200,000	0,012	-0,060
-171,154	-136,911	0,014	0,001
-170,139	313,780	0,114	0,156
-169,125	30,400	-0,067	0,041
-168,110	-200,000	0,029	0,119
-167,096	-68,308	-0,113	-0,032
-166,081	180,457	0,075	-0,080
-165,066	-76,808	-0,066	-0,017
-164,052	-156,831	0,067	-0,003
-163,037	165,139	-0,030	-0,031
-162,023	-58,824	-0,115	-0,036
-161,008	73,611	0,059	0,045
-159,993	-87,204	-0,100	0,022
-158,979	779,190	0,036	0,071
-157,964	-200,000	0,031	-0,128
-156,950	384,865	-0,047	-0,071
-155,935	159,323	0,060	-0,060
-154,920	-72,548	0,134	0,036
-153,906	-131,005	0,096	0,009
-152,891	167,362	-0,016	0,017
-151,877	172,744	0,034	-0,035
-150,862	377,640	-0,089	-0,132
-149,847	-163,109	-0,048	-0,002
-148,833	-183,659	0,097	0,001
-147,818	-200,000	0,005	0,021
-146,804	-116,572	-0,038	0,005
-145,789	140,787	0,041	-0,040
-144,775	400,933	-0,048	0,073
-143,760	41,945	0,050	0,033
-142,745	-200,000	-0,019	-0,111
-141,731	-38,108	0,163	0,062
-140,716	-200,000	-0,017	0,080
-139,702	15,016	0,023	0,013
-138,687	-119,037	-0,026	0,003
-137,672	7,225	0,032	-0,017
-136,658	-200,000	0,001	-0,145
-135,643	752,324	0,054	-0,105
-134,629	800,000	0,045	-0,095
-133,614	-200,000	-0,030	-0,098
-132,599	800,000	0,027	0,067
-131,585	800,000	-0,047	-0,117
-130,570	-6,425	0,105	-0,052
-129,556	-4,405	-0,138	0,069
-128,541	-123,342	0,074	0,008
-127,526	-200,000	0,004	0,085
-126,512	131,924	0,067	0,063
-125,497	-104,536	0,047	0,008
-124,483	800,000	0,032	-0,089
-123,468	85,435	0,079	0,063
-122,453	362,301	-0,078	0,113
-121,439	-200,000	0,012	-0,044
-120,424	-130,641	0,048	-0,005
-119,410	-110,596	0,157	-0,023
-118,395	292,891	-0,090	-0,119
-117,380	232,793	0,106	0,126
-116,366	84,151	-0,027	-0,022
-115,351	-48,917	0,070	-0,024
-114,337	-200,000	0,018	-0,114
-113,322	147,464	0,086	-0,084
-112,307	60,066	0,046	-0,033
-111,293	348,086	-0,027	-0,038
-110,278	-200,000	-0,019	0,068
-109,264	352,475	0,067	0,096
-108,249	-200,000	-0,027	-0,141
-107,234	-144,124	0,112	0,007
-106,220	439,082	0,005	-0,008
-105,205	-7,488	-0,068	0,033
-104,191	800,000	-0,030	0,072
-103,176	195,823	0,101	0,111
-102,162	-18,329	0,037	-0,017
-101,147	-57,065	-0,117	-0,037
-100,132	-63,693	-0,107	-0,032
-99,118	800,000	0,015	0,045
-98,103	800,000	0,029	0,091
-97,089	-200,000	0,005	0,060
-96,074	-112,367	0,030	-0,004
-95,059	181,847	-0,039	0,041
-94,045	244,272	-0,037	0,045
-93,030	176,749	-0,118	0,124
-92,016	-33,920	-0,059	-0,023
-91,001	-146,195	-0,145	0,009
-89,986	-200,000	0,002	0,083
-88,972	614,570	-0,025	0,045
-87,957	-126,043	0,013	-0,001
-86,943	-200,000	-0,019	0,083
-85,928	-200,000	-0,013	-0,051
-84,913	75,826	0,050	-0,038
-83,899	59,468	-0,052	0,037
-82,884	-11,546	0,098	0,046
-81,870	800,000	0,020	0,063
-80,855	-200,000	-0,000	-0,011
-79,840	-200,000	-0,009	-0,053
-78,826	475,422	0,076	-0,124
-77,811	-88,098	-0,133	-0,029
-76,797	-65,460	0,030	-0,009
-75,782	-94,462	-0,071	0,014
-74,767	-86,149	-0,107	0,024
-73,753	-36,176	-0,102	0,040
-72,738	426,012	0,019	-0,030
-71,724	-200,000	-0,049	-0,000
-70,709	-200,000	0,004	-0,014
-69,694	800,000	0,039	-0,098
-68,680	-200,000	0,000	0,083
-67,665	-200,000	0,020	0,116
-66,651	800,000	0,081	0,188
-65,636	-200,000	0,021	-0,101
-64,622	373,712	-0,027	0,040
-63,607	800,000	-0,066	-0,141
-62,592	553,362	-0,080	-0,140
-61,578	800,000	0,030	0,070
-60,563	-151,446	-0,058	-0,003
-59,549	127,423	0,071	-0,065
-58,534	57,064	-2,198	-1,544
-57,519	559,107	-0,959	-1,677
-56,505	-200,000	-0,350	-4,267
-55,490	279,190	0,864	1,115
-54,476	800,000	5,478	11,977
-53,461	-200,000	21,281	344,129
-52,446	800,000	763,404	2372,147
-51,432	528,757	1666,594	2848,123
-50,417	72,085	1598,134	1198,694
-49,403	20,988	1181,709	689,446
-48,388	13,114	906,241	504,594
-47,373	24,294	871,887	518,333
-46,359	18,468	858,307	493,415
-45,344	10,182	853,813	466,845
-44,330	9,985	852,247	465,399
-43,315	9,964	851,046	464,665
-42,300	9,961	849,928	464,026
-41,286	9,942	849,025	463,461
-40,271	9,912	848,299	462,959
-39,257	9,980	847,092	462,479
-38,242	9,936	846,501	462,010
-37,227	9,983	845,475	461,567
-36,213	10,006	844,515	461,090
-35,198	9,968	843,839	460,595
-34,184	10,075	843,157	460,510
-33,169	10,002	842,116	459,714
-32,154	10,105	841,474	459,642
-31,140	10,122	840,187	458,967
-30,125	10,136	839,422	458,571
-29,111	10,081	838,833	458,074
-28,096	10,150	838,548	458,097
-27,082	10,032	838,081	457,487
-26,067	10,050	837,198	457,039
-25,052	10,003	836,458	456,484
-24,038	9,972	835,799	456,019
-23,023	9,987	835,184	455,705
-22,009	10,053	834,297	455,391
-20,994	10,046	833,579	454,963
-19,979	10,108	832,869	454,733
-18,965	9,968	832,552	454,145
-17,950	10,054	831,932	454,030
-16,936	10,083	831,223	453,708
-15,921	9,956	830,805	453,104
-14,906	9,883	830,151	452,524
-13,892	9,996	829,412	452,421
-12,877	9,913	828,898	451,890
-11,863	9,970	828,385	451,753
-10,848	9,927	827,877	451,336
-9,833	10,057	827,399	451,422
-8,819	10,020	826,587	450,857
-7,804	10,084	825,793	450,587
-6,790	10,011	825,446	450,176
-5,775	9,965	825,387	449,996
-4,760	10,012	824,655	449,710
-3,746	9,910	824,109	449,109
-2,731	9,791	823,684	448,526
-1,717	9,770	822,979	448,068
-0,702	9,812	822,333	447,815
0,313	9,770	820,162	447,190
1,327	13,367	805,540	449,015
2,342	21,755	660,290	386,715
3,356	15,812	365,590	206,773
4,371	-13,946	245,474	113,850
5,386	-17,122	230,853	104,532
6,400	-18,414	226,414	101,504
7,415	-17,570	224,266	101,185
8,429	-18,487	223,253	100,013
9,444	-18,475	222,316	99,593
10,459	-18,176	221,915	99,634
11,473	-18,287	221,188	99,214
12,488	-18,371	220,934	99,027
13,502	-18,283	220,461	98,873
14,517	-18,205	220,039	98,734
15,531	-18,410	219,620	98,382
16,546	-18,345	219,245	98,255
17,561	-18,354	218,848	98,061
18,575	-18,021	218,613	98,198
19,590	-18,121	218,151	97,907
20,604	-18,244	218,155	97,807
21,619	-18,347	217,737	97,534
22,634	-18,215	217,489	97,512
23,648	-18,479	217,291	97,217
24,663	-18,251	216,848	97,181
25,677	-18,259	216,782	97,137
26,692	-18,165	216,579	97,107
27,707	-18,291	216,373	96,912
28,721	-18,298	216,210	96,825
29,736	-18,287	215,871	96,674
30,750	-18,012	215,680	96,783
31,765	-18,189	215,309	96,477
32,780	-18,146	215,102	96,408
33,794	-18,281	215,011	96,258
34,809	-18,138	214,633	96,186
35,823	-18,123	214,441	96,102
36,838	-18,152	214,256	95,989
37,853	-18,204	214,033	95,843
38,867	-18,375	213,823	95,615
39,882	-18,085	213,602	95,720
40,896	-18,183	213,553	95,618
41,911	-18,036	213,092	95,510
42,926	-17,968	212,984	95,503
43,940	-17,821	212,829	95,533
44,955	-17,960	212,575	95,309
45,969	-18,138	212,442	95,110
46,984	-18,127	212,234	95,017
47,999	-18,040	212,161	95,039
49,013	-17,767	211,939	95,131
50,028	-17,852	211,778	94,988
51,042	-17,771	211,429	94,881
52,057	-17,648	211,143	94,834
53,071	-17,935	211,213	94,649
54,086	-17,777	210,988	94,654
55,101	-17,987	210,801	94,409
56,115	-17,836	210,554	94,399
57,130	-18,161	210,322	94,053
58,144	-18,041	209,896	93,940
59,159	-18,314	209,749	93,669
60,174	-18,395	209,515	93,498
61,188	-18,045	209,616	93,787
62,203	-18,113	209,261	93,570
63,217	-18,184	209,203	93,485
64,232	-18,111	208,688	93,299
65,247	-18,289	208,634	93,139
66,261	-18,367	208,562	93,043
67,276	-18,231	208,338	93,032
68,290	-18,106	208,271	93,083
69,305	-18,089	208,007	92,969
70,320	-18,028	208,049	93,023
71,334	-18,242	207,647	92,683
72,349	-18,139	207,379	92,628
73,363	-18,380	207,289	92,409
74,378	-18,332	207,109	92,354
75,393	-18,127	206,848	92,375
76,407	-17,901	206,739	92,478
77,422	-18,120	206,594	92,250
78,436	-18,070	206,198	92,100
79,451	-18,138	206,161	92,027
80,466	-18,248	205,937	91,841
81,480	-17,885	205,823	92,039
82,495	-18,085	205,695	91,832
83,509	-17,962	205,386	91,772
84,524	-18,192	205,486	91,647
85,539	-17,906	205,102	91,669
86,553	-17,766	205,064	91,742
87,568	-17,963	204,770	91,463
88,582	-17,914	204,611	91,419
89,597	-17,946	204,510	91,343
90,611	-17,917	204,358	91,287
91,626	-17,860	204,077	91,193
92,641	-17,943	204,001	91,094
93,655	-17,885	203,818	91,044
94,670	-18,001	203,657	90,883
95,684	-17,830	203,347	90,856
96,699	-18,157	203,525	90,699
97,714	-17,829	203,058	90,711
98,728	-17,854	203,148	90,726
99,743	-17,900	202,897	90,573
100,757	-17,832	202,621	90,490
101,772	-17,835	202,463	90,409
102,787	-18,064	202,301	90,170
103,801	-17,918	202,087	90,168
104,816	-17,973	202,007	90,086
105,830	-17,830	201,636	90,011
106,845	-18,216	201,682	89,758
107,860	-18,141	201,449	89,698
108,874	-18,056	201,227	89,649
109,889	-17,910	201,084	89,678
110,903	-17,978	200,965	89,570
111,918	-18,184	200,861	89,374
112,933	-18,294	200,725	89,231
113,947	-17,996	200,594	89,368
114,962	-18,068	200,421	89,234
115,976	-18,162	200,323	89,118
116,991	-18,058	200,108	89,085
118,006	-18,088	200,007	89,012
119,020	-18,136	199,798	88,878
120,035	-17,982	199,660	88,914
121,049	-17,955	199,423	88,818
122,064	-17,807	199,220	88,821
123,079	-17,807	199,242	88,823
124,093	-17,888	198,958	88,633
125,108	-18,054	198,786	88,437
126,122	-17,815	198,753	88,576
127,137	-17,857	198,594	88,469
128,151	-17,895	198,399	88,348
129,166	-17,964	198,262	88,233
130,181	-18,031	198,089	88,103
131,195	-18,051	197,910	88,002
132,210	-17,998	197,625	87,903
133,224	-18,115	197,351	87,694
134,239	-17,958	197,154	87,705
135,254	-18,053	197,153	87,633
136,268	-17,897	196,871	87,604
137,283	-17,830	196,939	87,672
138,297	-18,029	196,700	87,424
139,312	-18,058	196,521	87,317
140,327	-18,356	196,125	86,934
141,341	-19,020	195,840	86,357
142,356	-18,834	195,655	86,391
143,370	-17,853	195,944	87,166
144,385	-11,475	197,911	92,331
145,400	-4,307	199,692	98,014
146,414	-2,540	199,918	99,313
147,429	-2,158	199,899	99,553
148,443	-2,139	199,860	99,538
149,458	-1,844	199,783	99,689
150,473	-1,936	199,590	99,523
151,487	-1,659	199,429	99,621
152,502	-1,482	199,340	99,687
153,516	-1,634	199,175	99,492
154,531	-1,494	198,945	99,463
155,546	-1,750	199,011	99,315
156,560	-1,578	198,840	99,336
157,575	-1,409	198,690	99,366
158,589	-1,358	198,397	99,245
159,604	-1,395	198,477	99,251
160,619	-1,641	198,237	98,958
161,633	-1,331	198,044	99,060
162,648	-1,475	198,020	98,943
163,662	-1,338	197,981	99,006
164,677	-1,310	197,715	98,883
165,692	-1,287	197,683	98,873
166,706	-1,272	197,430	98,748
167,721	-1,287	197,428	98,728
168,735	-1,056	197,215	98,766
169,750	-1,064	197,061	98,676
170,764	-1,065	196,943	98,607
171,779	-1,217	196,864	98,457
172,794	-1,271	196,812	98,387
173,808	-1,079	196,528	98,364
174,823	-1,007	196,296	98,286
175,837	-1,233	196,368	98,164
176,852	-1,219	196,063	98,012
177,867	-1,232	196,170	98,048
178,881	-1,055	195,973	98,058
179,896	-0,985	195,594	97,906
180,910	-1,069	195,701	97,895
181,925	-1,386	195,429	97,541
182,940	-1,334	195,280	97,492
183,954	-1,061	195,128	97,588
184,969	-1,219	195,164	97,492
185,983	-0,914	194,991	97,599
186,998	-1,162	194,717	97,289
188,013	-1,157	194,781	97,317
189,027	-0,800	194,415	97,359
190,042	-0,900	194,313	97,233
191,056	-1,118	194,284	97,067
192,071	-1,100	194,083	96,970
193,086	-1,061	193,924	96,908
194,100	-0,953	193,725	96,870
195,115	-1,124	193,690	96,732
196,129	-0,741	193,430	96,844
197,144	-0,998	193,280	96,592
198,159	-0,928	193,205	96,591
199,173	-0,640	193,167	96,751
200,188	-0,678	193,066	96,668
201,202	-0,811	192,787	96,433
202,217	-0,725	192,694	96,433
203,232	-0,825	192,619	96,322
204,246	-0,812	192,398	96,212
205,261	-0,745	192,264	96,180
206,275	-0,873	192,078	95,995
207,290	-0,891	192,053	95,963
208,304	-0,700	191,831	95,966
209,319	-0,977	191,796	95,761
210,334	-0,958	191,579	95,657
211,348	-0,883	191,331	95,573
212,363	-0,925	191,207	95,475
213,377	-0,557	191,215	95,707
214,392	-0,577	191,086	95,622
215,407	-0,620	191,074	95,579
216,421	-0,457	190,729	95,503
217,436	-0,531	190,675	95,420
218,450	-0,752	190,587	95,226
219,465	-0,542	190,422	95,269
220,480	-0,582	190,271	95,159
221,494	-0,720	190,308	95,081
222,509	-0,296	190,124	95,252
223,523	-0,702	190,054	94,949
224,538	-0,766	189,818	94,782
225,553	-0,890	189,763	94,667
226,567	-0,499	189,508	94,780
227,582	-0,737	189,354	94,543
228,596	-0,521	189,318	94,654
229,611	-0,261	189,236	94,770
230,626	-0,606	189,042	94,445
231,640	-0,516	188,824	94,385
232,655	-0,665	188,851	94,296
233,669	-0,536	188,635	94,261
234,684	-0,445	188,529	94,257
235,699	-0,650	188,425	94,068
236,713	-0,532	188,397	94,119
237,728	-0,436	188,238	94,092
238,742	-0,486	188,127	93,997
239,757	-0,480	187,930	93,894
240,772	-0,187	187,796	94,003
241,786	-0,289	187,750	93,907
242,801	-0,379	187,595	93,765
243,815	-0,356	187,551	93,749
244,830	-0,172	187,350	93,756
245,844	-0,160	187,127	93,643
246,859	-0,447	187,043	93,413
247,874	-0,243	186,909	93,465
248,888	-0,449	186,773	93,260
249,903	-0,173	186,726	93,401
250,917	-0,357	186,593	93,211
251,932	-0,508	186,536	93,080
252,947	-0,464	186,452	93,058
253,961	-0,298	186,281	93,067
254,976	-0,181	186,145	93,064
255,990	-0,632	186,118	92,761
257,005	-0,274	185,882	92,858
258,020	-0,265	185,783	92,806
259,034	-0,288	185,657	92,721
260,049	-0,222	185,483	92,666
261,063	-0,422	185,454	92,519
262,078	-0,132	185,302	92,615
263,093	-0,167	185,029	92,449
264,107	-0,463	185,029	92,257
265,122	-0,377	185,030	92,302
266,136	-0,258	184,755	92,231
267,151	-0,424	184,747	92,116
268,166	-0,147	184,524	92,167
269,180	-0,147	184,458	92,126
270,195	-0,118	184,243	92,028
271,209	-0,225	184,198	91,932
272,224	-0,310	184,035	91,790
273,239	-0,229	183,855	91,742
274,253	-0,328	183,834	91,663
275,268	-0,351	183,677	91,562
276,282	-0,073	183,622	91,697
277,297	-0,249	183,529	91,535
278,312	-0,033	183,283	91,536
279,326	-0,044	183,180	91,469
280,341	-0,014	183,094	91,437
281,355	-0,174	182,971	91,269
282,370	-0,073	182,838	91,256
283,384	-0,139	182,669	91,124
284,399	0,069	182,533	91,174
285,414	-0,187	182,476	90,982
286,428	-0,077	182,390	90,998
287,443	0,050	182,245	90,995
288,457	-0,048	182,159	90,884
289,472	0,035	182,077	90,886
290,487	-0,110	181,969	90,735
291,501	-0,302	181,798	90,526
292,516	0,012	181,575	90,597
293,530	-0,008	181,512	90,545
294,545	-0,032	181,494	90,514
295,560	-0,188	181,435	90,382
296,574	-0,158	181,282	90,316
297,589	0,187	181,035	90,393
298,603	-0,141	180,919	90,129
299,618	-0,030	180,839	90,148
300,633	0,016	180,669	90,083
301,647	0,105	180,684	90,136
302,662	-0,038	180,456	89,928
303,676	0,193	180,419	90,041
304,691	0,131	180,296	89,934
305,706	-0,016	180,235	89,808
306,720	0,333	179,975	89,879
307,735	0,208	179,917	89,767
308,749	0,319	179,723	89,729
309,764	0,028	179,743	89,556
310,779	0,405	179,524	89,665
311,793	0,189	179,303	89,417
312,808	-0,066	179,254	89,233
313,822	0,221	179,148	89,343
314,837	0,456	179,003	89,403
315,852	0,254	178,879	89,213
316,866	0,115	178,972	89,168
317,881	0,535	178,697	89,273
318,895	0,373	178,565	89,103
319,910	0,325	178,425	88,997
320,925	0,329	178,341	88,950
321,939	0,297	178,434	88,969
322,954	0,178	178,210	88,779
323,968	0,216	178,096	88,736
324,983	0,351	177,900	88,711
325,997	0,204	177,808	88,570
327,012	0,018	177,664	88,380
328,027	0,347	177,472	88,471
329,041	0,360	177,521	88,496
330,056	0,345	177,252	88,345
331,070	0,357	177,250	88,343
332,085	0,437	177,080	88,297
333,100	0,146	177,063	88,110
334,114	0,205	176,851	88,031
335,129	0,234	176,708	87,969
336,143	0,473	176,599	88,047
337,158	0,130	176,774	87,925
338,173	0,444	176,539	87,985
339,187	0,651	176,305	87,981
340,202	0,467	176,143	87,785
341,216	0,344	176,079	87,674
342,231	0,263	176,099	87,628
343,246	0,415	175,968	87,644
344,260	0,736	175,654	87,667
345,275	0,518	175,628	87,519
346,289	0,883	175,580	87,700
347,304	0,611	175,400	87,444
348,319	0,444	175,427	87,353
349,333	0,701	175,146	87,354
350,348	0,585	175,071	87,242
351,362	0,576	174,961	87,174
352,377	0,712	174,930	87,230
353,392	0,699	174,754	87,126
354,406	0,611	174,744	87,063
355,421	191,146	1325,609	1395,688
356,435	151,487	1466,174	1396,079
