DTS Sentinel unit serial number:	SN410029Multiplexer serial number:	ORYXHardware model number:	OX2-SRSoftware version number:	ORYX F/W v4,00 Oryx Data Collector v3.7.2.0data status	okinstallation	B3 Nyhavnadifferential loss correction	single-endedforward channel	channel 1reverse channel	N/Adate	2023/11/28time	14:42:30forward acquisition time	300,00reverse acquisition time	0,00gamma	499,1914k internal	0,3152k external	0,3152temperature offset calibration	1,0000default loss term (dB/km)	0,3820temperature slope calibration	1,0000multiplexer offset coefficient	1,0000multiplexer slope coefficient	1,0000fibre end	0,00T internal ref (°C)	7,41T ext. ref 1 (°C)	-7,85T ext. ref 2 (°C)	-8,00length (m)	temperature (°C)	Stokes	anti-Stokes-744,400	-61,111	-0,250	-0,077
-743,385	-200,000	0,004	0,182
-742,371	128,901	-0,213	-0,201
-741,356	-200,000	-0,040	0,208
-740,342	800,000	-0,083	-0,232
-739,327	208,749	-0,096	0,111
-738,312	798,407	-0,101	-0,207
-737,298	619,906	-0,090	0,168
-736,283	800,000	-0,078	-0,244
-735,269	-200,000	-0,033	0,271
-734,254	140,566	-0,189	-0,185
-733,239	-91,674	-0,256	0,053
-732,225	183,331	-0,175	-0,191
-731,210	470,241	0,054	0,090
-730,196	-200,000	0,013	-0,071
-729,181	-87,835	-0,046	-0,010
-728,167	-200,000	-0,009	-0,054
-727,152	800,000	-0,037	0,092
-726,137	216,911	-0,120	0,141
-725,123	68,960	0,086	-0,065
-724,108	-55,479	-0,137	-0,045
-723,094	800,000	-0,069	-0,166
-722,079	-162,905	0,134	-0,005
-721,064	-23,439	0,050	0,022
-720,050	-33,385	0,015	0,006
-719,035	-101,434	0,113	-0,020
-718,021	-75,242	-0,196	-0,051
-717,006	-200,000	0,015	-0,123
-715,991	-181,654	-0,244	0,003
-714,977	26,217	-0,135	-0,083
-713,962	420,541	-0,041	0,065
-712,948	-200,000	0,059	0,196
-711,933	113,826	-0,034	0,030
-710,918	389,664	-0,063	-0,096
-709,904	-77,093	-0,067	0,017
-708,889	61,975	-0,083	-0,061
-707,875	121,411	0,124	-0,114
-706,860	-100,574	-0,101	-0,018
-705,845	73,953	0,091	0,070
-704,831	-200,000	-0,013	0,076
-703,816	116,050	-0,057	-0,051
-702,802	-38,203	-0,107	0,042
-701,787	215,780	-0,036	-0,042
-700,772	-115,845	-0,173	-0,024
-699,758	800,000	-0,014	-0,034
-698,743	-200,000	-0,024	0,092
-697,729	-200,000	-0,036	0,119
-696,714	400,205	0,031	-0,048
-695,699	5,021	-0,052	0,028
-694,685	-2,213	-0,080	0,041
-693,670	-94,106	0,051	0,010
-692,656	-50,989	0,116	-0,040
-691,641	297,412	0,054	0,073
-690,627	-200,000	-0,010	-0,063
-689,612	-108,655	0,102	0,016
-688,597	637,179	0,012	-0,022
-687,583	149,926	-0,077	-0,077
-686,568	-200,000	-0,020	0,097
-685,554	455,581	-0,054	0,088
-684,539	-200,000	-0,005	-0,034
-683,524	-200,000	0,010	-0,048
-682,510	9,993	-0,100	0,056
-681,495	-70,794	-0,051	0,014
-680,481	20,041	-0,082	-0,048
-679,466	-200,000	0,027	-0,159
-678,451	-161,666	-0,062	0,002
-677,437	194,431	-0,058	-0,065
-676,422	66,021	0,116	0,087
-675,408	34,644	-0,021	-0,014
-674,393	-200,000	-0,009	0,089
-673,378	800,000	0,005	0,010
-672,364	-200,000	-0,014	0,059
-671,349	800,000	0,028	-0,082
-670,335	-89,165	0,132	0,029
-669,320	-200,000	-0,051	-0,225
-668,305	-129,381	0,150	-0,015
-667,291	384,642	0,028	0,042
-666,276	-46,648	-0,030	0,011
-665,262	-160,596	-0,102	0,004
-664,247	-200,000	-0,004	-0,211
-663,232	9,664	-0,055	0,030
-662,218	636,732	0,066	0,124
-661,203	800,000	-0,039	0,113
-660,189	-168,938	0,061	0,002
-659,174	-27,255	0,048	0,021
-658,159	-74,875	-0,052	0,014
-657,145	-200,000	0,008	-0,088
-656,130	800,000	0,056	0,131
-655,116	800,000	0,023	-0,050
-654,101	324,209	0,085	0,120
-653,086	-138,081	-0,031	0,003
-652,072	798,015	-0,043	-0,087
-651,057	297,849	-0,073	-0,100
-650,043	170,178	-0,075	-0,080
-649,028	-200,000	-0,003	-0,062
-648,014	-114,861	0,032	0,004
-646,999	-87,196	0,183	0,041
-645,984	227,564	-0,057	0,068
-644,970	800,000	0,007	-0,020
-643,955	-72,324	0,051	0,014
-642,941	487,237	-0,120	-0,203
-641,926	800,000	0,059	0,125
-640,911	-200,000	0,006	-0,034
-639,897	-122,143	0,088	0,010
-638,882	-200,000	-0,007	0,049
-637,868	751,740	0,021	-0,042
-636,853	-94,240	-0,129	0,026
-635,838	103,469	-0,031	0,026
-634,824	-200,000	0,000	-0,018
-633,809	199,352	0,036	0,041
-632,795	-200,000	0,037	0,191
-631,780	213,213	0,084	-0,098
-630,765	-200,000	0,016	0,120
-629,751	-200,000	0,000	-0,007
-628,736	-61,931	-0,061	-0,019
-627,722	619,018	-0,063	-0,117
-626,707	27,641	0,103	-0,063
-625,692	-77,441	0,028	-0,007
-624,678	8,587	0,061	0,034
-623,663	-146,537	0,088	0,006
-622,649	-141,873	-0,136	0,010
-621,634	-131,786	-0,033	0,003
-620,619	-56,148	-0,046	0,015
-619,605	-51,669	-0,104	0,035
-618,590	80,132	0,076	-0,060
-617,576	-70,905	0,176	0,048
-616,561	73,508	0,191	-0,147
-615,546	83,113	0,067	-0,054
-614,532	225,005	-0,134	-0,160
-613,517	-37,333	-0,143	0,056
-612,503	800,000	0,067	0,166
-611,488	-63,606	-0,072	0,022
-610,474	55,552	0,050	0,036
-609,459	-87,990	-0,134	-0,029
-608,444	221,800	0,081	-0,096
-607,430	-56,912	0,031	0,010
-606,415	560,354	-0,020	0,036
-605,401	-94,229	0,077	-0,015
-604,386	-130,178	0,080	0,008
-603,371	120,554	0,076	0,070
-602,357	-179,188	-0,193	-0,003
-601,342	335,360	0,029	0,041
-600,328	-168,788	-0,201	0,005
-599,313	-200,000	0,002	-0,109
-598,298	-56,892	0,032	-0,010
-597,284	636,402	-0,027	0,051
-596,269	-143,872	0,139	-0,009
-595,255	198,935	0,040	0,046
-594,240	-200,000	-0,005	-0,209
-593,225	-90,739	-0,051	0,011
-592,211	527,364	-0,030	-0,052
-591,196	-35,156	0,116	0,046
-590,182	-75,184	-0,042	0,011
-589,167	93,224	0,060	-0,050
-588,152	-51,211	-0,026	-0,009
-587,138	-157,663	-0,221	-0,009
-586,123	687,813	0,052	0,100
-585,109	-163,684	-0,060	-0,002
-584,094	-194,893	-0,129	-0,001
-583,079	800,000	-0,064	0,167
-582,065	-200,000	-0,014	0,085
-581,050	800,000	0,029	0,082
-580,036	334,619	0,060	0,085
-579,021	24,520	-0,156	-0,095
-578,006	-134,820	-0,018	0,002
-576,992	-200,000	-0,002	-0,037
-575,977	635,527	0,068	0,127
-574,963	-53,564	-0,050	0,017
-573,948	397,678	0,097	0,149
-572,934	339,296	0,068	-0,097
-571,919	63,651	-0,107	-0,079
-570,904	-14,019	-0,072	-0,034
-569,890	46,375	-0,060	-0,040
-568,875	800,000	0,061	0,132
-567,861	-200,000	0,011	0,059
-566,846	-200,000	0,010	-0,055
-565,831	-100,057	0,055	0,010
-564,817	-133,816	-0,047	0,004
-563,802	-77,946	0,046	-0,012
-562,788	466,157	-0,052	-0,086
-561,773	800,000	-0,020	0,046
-560,758	235,620	-0,076	0,093
-559,744	239,485	-0,043	-0,053
-558,729	-98,528	-0,053	-0,010
-557,715	-26,442	-0,130	0,056
-556,700	106,256	-0,054	-0,047
-555,685	-13,125	0,067	-0,032
-554,671	800,000	-0,047	0,105
-553,656	400,855	0,060	-0,093
-552,642	114,741	0,061	0,054
-551,627	-126,514	-0,080	0,009
-550,612	-39,049	-0,087	-0,033
-549,598	800,000	-0,028	-0,070
-548,583	26,814	0,134	-0,082
-547,569	153,344	-0,051	0,051
-546,554	-0,350	0,013	-0,007
-545,539	-71,721	-0,140	0,038
-544,525	-3,098	0,061	-0,031
-543,510	302,253	-0,075	0,101
-542,496	-200,000	0,002	-0,106
-541,481	788,372	-0,032	-0,065
-540,466	800,000	-0,033	-0,080
-539,452	-18,368	-0,250	-0,114
-538,437	-6,945	0,157	0,078
-537,423	-81,064	0,137	0,033
-536,408	16,171	-0,033	-0,019
-535,393	126,148	0,057	-0,053
-534,379	800,000	0,060	-0,157
-533,364	144,194	0,059	-0,057
-532,350	459,434	0,077	-0,126
-531,335	187,154	-0,136	0,149
-530,321	208,029	0,036	0,041
-529,306	11,333	0,090	0,051
-528,291	-136,259	-0,087	-0,007
-527,277	13,372	-0,101	-0,057
-526,262	-200,000	0,031	0,184
-525,248	-97,647	0,119	0,022
-524,233	-200,000	0,006	0,063
-523,218	-74,628	0,115	0,030
-522,204	-200,000	-0,034	0,146
-521,189	-200,000	-0,059	-0,192
-520,175	800,000	0,076	-0,164
-519,160	709,581	-0,070	-0,136
-518,145	-200,000	-0,003	-0,083
-517,131	79,952	0,028	0,022
-516,116	800,000	0,045	0,095
-515,102	139,022	0,029	0,028
-514,087	289,115	0,044	0,059
-513,072	11,383	-0,101	-0,056
-512,058	612,307	-0,065	-0,120
-511,043	-200,000	0,002	0,101
-510,029	-59,787	-0,086	0,027
-509,014	-149,312	-0,137	-0,008
-507,999	266,037	-0,036	-0,046
-506,985	-200,000	0,011	-0,065
-505,970	36,282	-0,077	0,049
-504,956	-200,000	-0,017	0,133
-503,941	-51,689	0,072	-0,024
-502,926	-200,000	-0,011	-0,098
-501,912	586,732	0,023	0,041
-500,897	-67,288	-0,089	-0,025
-499,883	-200,000	0,008	-0,114
-498,868	94,228	0,039	-0,032
-497,853	-200,000	-0,011	-0,085
-496,839	800,000	0,031	-0,080
-495,824	142,150	0,056	-0,054
-494,810	-200,000	0,007	-0,056
-493,795	-98,619	0,051	0,010
-492,781	-164,636	0,075	0,002
-491,766	286,328	-0,093	-0,123
-490,751	253,627	-0,067	-0,084
-489,737	86,238	0,071	-0,057
-488,722	118,803	0,083	0,075
-487,708	-84,354	0,104	0,024
-486,693	-29,248	0,098	0,041
-485,678	800,000	-0,054	-0,115
-484,664	482,811	0,111	-0,185
-483,649	147,606	-0,115	-0,114
-482,635	-200,000	-0,003	-0,096
-481,620	137,071	0,079	-0,075
-480,605	-111,664	0,038	-0,006
-479,591	-200,000	0,007	0,143
-478,576	-0,997	0,027	-0,014
-477,562	800,000	-0,044	0,111
-476,547	-200,000	-0,019	0,092
-475,532	137,647	-0,030	0,029
-474,518	-200,000	-0,025	0,162
-473,503	800,000	0,032	0,093
-472,489	-200,000	0,013	0,176
-471,474	800,000	0,024	-0,059
-470,459	15,535	-0,069	-0,039
-469,445	-200,000	-0,006	0,077
-468,430	-57,060	0,082	-0,026
-467,416	46,679	0,087	0,059
-466,401	30,062	0,145	0,090
-465,386	19,397	0,059	-0,035
-464,372	800,000	-0,037	0,099
-463,357	-18,533	-0,112	0,051
-462,343	-66,948	0,143	-0,041
-461,328	-200,000	-0,034	0,111
-460,313	-99,416	0,084	0,015
-459,299	134,916	0,048	0,046
-458,284	-62,153	0,092	-0,028
-457,270	-200,000	-0,026	0,142
-456,255	800,000	-0,055	-0,130
-455,241	294,235	-0,007	0,010
-454,226	-200,000	-0,026	0,148
-453,211	179,504	-0,090	-0,096
-452,197	283,438	0,033	0,043
-451,182	-108,991	-0,170	0,026
-450,168	-137,577	0,094	-0,008
-449,153	307,594	0,067	-0,092
-448,138	-69,454	0,044	-0,012
-447,124	321,059	0,051	0,071
-446,109	2,806	-0,128	-0,068
-445,095	800,000	-0,038	0,078
-444,080	-200,000	-0,028	0,101
-443,065	0,875	-0,033	0,017
-442,051	-7,994	-0,100	0,049
-441,036	253,468	0,055	-0,069
-440,022	-116,078	-0,073	0,010
-439,007	758,556	0,028	0,056
-437,992	653,952	0,054	-0,101
-436,978	-200,000	-0,007	-0,026
-435,963	800,000	-0,063	0,170
-434,949	-200,000	0,002	-0,123
-433,934	800,000	0,049	0,099
-432,919	-1,815	-0,133	0,068
-431,905	-49,818	-0,050	0,017
-430,890	69,879	0,134	-0,101
-429,876	-102,561	0,052	0,009
-428,861	140,426	-0,099	-0,095
-427,846	-125,330	-0,093	0,010
-426,832	-71,147	-0,073	-0,020
-425,817	-99,842	-0,027	-0,005
-424,803	-154,368	-0,112	-0,005
-423,788	0,933	0,037	0,019
-422,773	231,332	-0,032	0,039
-421,759	43,512	0,048	-0,032
-420,744	800,000	0,021	-0,065
-419,730	-29,961	-0,071	0,029
-418,715	453,941	-0,080	-0,130
-417,701	250,688	0,083	0,103
-416,686	129,067	-0,041	0,038
-415,671	560,715	-0,044	-0,077
-414,657	538,385	0,083	0,144
-413,642	-200,000	0,033	0,121
-412,628	4,961	0,017	-0,009
-411,613	-200,000	-0,025	-0,126
-410,598	800,000	-0,026	-0,064
-409,584	-108,914	0,147	0,023
-408,569	642,880	0,018	-0,033
-407,555	2,515	0,161	0,085
-406,540	285,763	-0,046	0,060
-405,525	-65,800	0,106	-0,031
-404,511	444,686	-0,038	-0,062
-403,496	615,564	0,071	-0,130
-402,482	-149,084	0,080	-0,005
-401,467	84,088	-0,041	-0,033
-400,452	669,790	0,039	0,073
-399,438	-68,543	0,080	0,022
-398,423	-200,000	-0,012	-0,077
-397,409	407,189	0,025	-0,039
-396,394	96,399	-0,052	-0,043
-395,379	-200,000	0,019	0,109
-394,365	684,104	-0,038	0,073
-393,350	-51,205	0,149	0,050
-392,336	-78,355	-0,033	0,008
-391,321	-46,769	-0,108	0,038
-390,306	33,373	0,095	-0,060
-389,292	-95,003	-0,084	-0,016
-388,277	4,095	-0,093	0,050
-387,263	-0,957	0,114	0,059
-386,248	-200,000	0,002	0,227
-385,233	-182,373	-0,013	-0,000
-384,219	-200,000	0,008	-0,051
-383,204	266,551	0,106	-0,135
-382,190	-68,333	-0,018	-0,005
-381,175	48,718	-0,080	-0,054
-380,160	800,000	-0,021	0,065
-379,146	374,799	0,061	0,091
-378,131	-200,000	0,015	0,130
-377,117	169,135	0,057	0,059
-376,102	434,722	-0,015	-0,024
-375,088	-38,649	-0,023	0,009
-374,073	213,028	-0,048	-0,056
-373,058	-65,193	0,134	-0,039
-372,044	-15,525	0,021	-0,010
-371,029	433,375	-0,037	-0,058
-370,015	697,597	0,023	-0,045
-369,000	-200,000	-0,015	0,086
-367,985	475,848	0,013	0,021
-366,971	-117,914	-0,020	0,003
-365,956	-19,356	0,151	-0,068
-364,942	-200,000	-0,013	0,086
-363,927	126,599	-0,103	0,095
-362,912	456,112	-0,013	-0,021
-361,898	-200,000	-0,014	0,077
-360,883	194,489	0,095	-0,105
-359,869	-146,249	-0,193	0,012
-358,854	359,862	0,021	-0,030
-357,839	-58,367	-0,047	0,015
-356,825	496,981	0,040	0,068
-355,810	-200,000	-0,000	0,131
-354,796	800,000	-0,043	-0,111
-353,781	-200,000	0,012	-0,101
-352,766	1,228	-0,095	0,049
-351,752	-53,735	-0,097	-0,032
-350,737	75,009	-0,018	0,013
-349,723	-200,000	-0,003	-0,045
-348,708	-112,561	-0,015	0,002
-347,693	486,576	0,031	-0,051
-346,679	606,595	-0,079	-0,143
-345,664	-108,748	-0,092	-0,014
-344,650	-200,000	0,017	0,107
-343,635	287,378	0,039	0,051
-342,620	800,000	-0,067	0,181
-341,606	100,141	0,089	-0,075
-340,591	-200,000	-0,027	-0,106
-339,577	-200,000	0,000	-0,074
-338,562	-88,061	-0,101	-0,022
-337,548	-200,000	0,007	0,147
-336,533	132,253	0,060	0,056
-335,518	135,357	0,085	0,080
-334,504	-200,000	0,001	0,107
-333,489	800,000	-0,030	0,088
-332,475	-200,000	-0,012	-0,109
-331,460	246,831	0,061	-0,075
-330,445	601,277	-0,055	0,099
-329,431	800,000	-0,045	-0,130
-328,416	-60,902	0,125	0,038
-327,402	255,841	0,021	-0,027
-326,387	66,105	0,126	-0,093
-325,372	313,224	-0,065	0,088
-324,358	-200,000	-0,020	-0,073
-323,343	250,212	-0,061	-0,075
-322,329	129,112	-0,007	-0,007
-321,314	185,934	0,083	0,089
-320,299	30,158	0,078	-0,048
-319,285	-117,440	-0,058	-0,008
-318,270	191,202	0,042	0,046
-317,256	-200,000	-0,017	-0,116
-316,241	-59,172	0,042	-0,013
-315,226	-67,012	0,077	-0,022
-314,212	42,906	0,136	0,090
-313,197	-172,384	0,042	-0,001
-312,183	-136,901	-0,078	-0,006
-311,168	-200,000	0,021	-0,084
-310,153	443,897	-0,019	-0,031
-309,139	164,120	-0,082	0,084
-308,124	695,638	-0,034	-0,065
-307,110	-200,000	0,061	0,000
-306,095	-200,000	-0,053	0,196
-305,080	148,718	-0,077	0,076
-304,066	-163,628	-0,114	0,004
-303,051	242,326	-0,078	-0,095
-302,037	-200,000	-0,001	0,061
-301,022	800,000	0,068	-0,170
-300,008	-200,000	0,004	0,019
-298,993	3,203	0,089	0,047
-297,978	158,508	0,066	-0,067
-296,964	-80,437	-0,032	0,008
-295,949	-138,533	-0,104	-0,008
-294,935	-55,730	-0,062	0,020
-293,920	202,305	0,128	-0,144
-292,905	502,783	0,011	-0,018
-291,891	91,742	0,096	0,078
-290,876	-200,000	0,002	0,007
-289,862	-200,000	0,001	-0,066
-288,847	178,596	-0,095	-0,101
-287,832	124,076	-0,088	-0,080
-286,818	695,092	-0,039	-0,075
-285,803	-200,000	0,028	-0,236
-284,789	-200,000	0,083	0,000
-283,774	87,521	0,120	0,096
-282,759	702,509	0,016	-0,031
-281,745	130,188	0,170	-0,158
-280,730	-200,000	-0,039	-0,177
-279,716	-169,886	-0,045	-0,001
-278,701	-200,000	-0,008	0,065
-277,686	10,298	0,049	-0,027
-276,672	-200,000	-0,004	-0,056
-275,657	39,881	-0,098	0,064
-274,643	66,524	0,073	-0,053
-273,628	-200,000	-0,011	0,043
-272,613	-200,000	-0,003	-0,083
-271,599	291,414	-0,108	0,143
-270,584	61,294	0,086	0,062
-269,570	-107,863	0,020	0,003
-268,555	-200,000	0,003	0,050
-267,540	-200,000	-0,030	-0,106
-266,526	-200,000	0,012	-0,078
-265,511	384,359	0,037	-0,056
-264,497	-200,000	0,002	0,158
-263,482	-57,743	0,054	-0,017
-262,467	-200,000	-0,005	0,138
-261,453	727,054	-0,037	-0,072
-260,438	173,948	0,055	0,058
-259,424	-82,013	-0,095	-0,022
-258,409	-200,000	-0,012	0,043
-257,395	-200,000	0,003	0,011
-256,380	26,342	0,103	0,062
-255,365	275,719	0,096	0,124
-254,351	-2,178	0,091	-0,046
-253,336	-200,000	0,023	-0,072
-252,322	-200,000	-0,011	-0,079
-251,307	-200,000	0,039	0,000
-250,292	-200,000	0,003	0,059
-249,278	99,736	-0,013	0,011
-248,263	-200,000	-0,042	0,193
-247,249	264,979	-0,067	0,084
-246,234	800,000	0,054	-0,129
-245,219	-200,000	-0,019	-0,094
-244,205	-200,000	0,018	0,118
-243,190	-114,954	-0,060	0,008
-242,176	-200,000	0,034	-0,168
-241,161	800,000	0,019	-0,055
-240,146	-146,047	-0,067	0,004
-239,132	-3,869	0,102	-0,051
-238,117	800,000	0,010	0,025
-237,103	800,000	0,010	-0,033
-236,088	82,505	0,125	-0,098
-235,073	800,000	-0,019	-0,058
-234,059	800,000	-0,042	-0,086
-233,044	-14,950	-0,136	-0,063
-232,030	-37,049	0,144	0,055
-231,015	800,000	-0,015	0,030
-230,000	800,000	-0,019	-0,055
-228,986	-200,000	-0,002	0,049
-227,971	-32,158	0,135	0,054
-226,957	66,633	0,072	0,053
-225,942	-200,000	0,006	0,021
-224,927	17,101	-0,081	-0,046
-223,913	-40,667	0,094	-0,035
-222,898	-146,230	0,042	-0,003
-221,884	658,491	-0,015	-0,029
-220,869	-84,250	-0,067	0,015
-219,855	238,924	0,067	0,081
-218,840	79,213	-0,134	0,104
-217,825	162,281	0,113	-0,115
-216,811	-200,000	-0,050	-0,165
-215,796	-100,903	-0,133	-0,023
-214,782	19,538	-0,110	0,064
-213,767	-200,000	0,012	0,069
-212,752	517,351	-0,022	0,038
-211,738	-90,880	0,123	0,025
-210,723	148,817	-0,061	0,059
-209,709	-137,569	0,135	-0,011
-208,694	-131,592	-0,155	-0,015
-207,679	800,000	-0,054	0,151
-206,665	-200,000	-0,002	0,058
-205,650	-200,000	0,001	0,185
-204,636	1,350	0,114	0,059
-203,621	-200,000	-0,036	0,244
-202,606	-27,615	-0,148	-0,062
-201,592	129,456	-0,141	-0,131
-200,577	-200,000	-0,026	-0,083
-199,563	-149,680	-0,093	0,005
-198,548	75,484	0,074	0,056
-197,533	-200,000	0,025	-0,089
-196,519	97,023	-0,016	0,013
-195,504	247,414	0,067	0,082
-194,490	641,287	-0,005	0,010
-193,475	-38,166	0,025	-0,010
-192,460	104,377	0,107	0,091
-191,446	162,275	0,084	-0,085
-190,431	125,041	0,042	-0,039
-189,417	76,657	-0,094	-0,072
-188,402	9,228	-0,104	0,057
-187,387	-27,765	0,065	-0,027
-186,373	222,403	-0,031	-0,037
-185,358	-121,438	-0,106	0,013
-184,344	-10,696	0,065	-0,031
-183,329	85,932	-0,042	-0,033
-182,315	-76,903	-0,105	-0,026
-181,300	-52,977	0,030	-0,010
-180,285	800,000	-0,005	-0,016
-179,271	73,719	-0,039	0,029
-178,256	265,185	-0,046	-0,058
-177,242	22,230	0,080	-0,047
-176,227	-173,778	-0,018	-0,000
-175,212	98,888	-0,056	-0,047
-174,198	-22,924	0,078	-0,034
-173,183	-35,914	0,060	0,023
-172,169	601,520	-0,042	0,075
-171,154	356,202	-0,045	0,065
-170,139	800,000	-0,011	0,031
-169,125	-73,384	0,040	0,010
-168,110	800,000	0,058	0,152
-167,096	158,516	-0,035	0,035
-166,081	452,414	-0,035	0,056
-165,066	3,642	-0,041	0,022
-164,052	49,858	-0,039	0,027
-163,037	455,586	0,050	-0,080
-162,023	396,831	-0,014	-0,022
-161,008	-200,000	0,017	-0,094
-159,993	109,416	0,067	-0,058
-158,979	256,092	-0,055	0,068
-157,964	-200,000	-0,004	-0,091
-156,950	800,000	0,020	-0,047
-155,935	51,469	-0,095	-0,065
-154,920	291,179	0,014	0,019
-153,906	490,265	0,031	0,051
-152,891	147,683	-0,137	0,133
-151,877	604,335	0,057	0,103
-150,862	480,690	-0,045	0,074
-149,847	63,795	-0,036	-0,026
-148,833	-69,889	0,153	-0,042
-147,818	800,000	-0,067	0,168
-146,804	-153,666	0,109	0,005
-145,789	-21,491	-0,147	0,064
-144,775	-22,322	-0,100	-0,043
-143,760	-85,185	0,070	0,016
-142,745	-200,000	-0,001	-0,083
-141,731	585,119	-0,091	0,162
-140,716	-88,951	0,115	-0,024
-139,702	34,628	-0,065	0,041
-138,687	800,000	-0,016	-0,036
-137,672	34,480	0,038	-0,024
-136,658	-8,742	0,058	-0,028
-135,643	-156,526	-0,053	0,002
-134,629	800,000	0,064	-0,184
-133,614	190,036	0,054	0,059
-132,599	-137,571	0,101	0,008
-131,585	800,000	-0,052	0,126
-130,570	-151,320	-0,047	0,003
-129,556	168,891	0,082	-0,084
-128,541	113,995	-0,024	0,021
-127,526	-38,886	0,045	-0,017
-126,512	-200,000	-0,013	-0,050
-125,497	426,119	0,074	0,115
-124,483	-141,196	0,036	0,003
-123,468	800,000	-0,024	-0,060
-122,453	-200,000	0,017	-0,055
-121,439	200,308	0,015	-0,017
-120,424	-46,064	-0,132	-0,047
-119,410	-200,000	-0,008	-0,103
-118,395	283,803	-0,095	0,123
-117,380	-113,036	-0,049	0,007
-116,366	277,966	0,052	-0,067
-115,351	168,416	-0,071	-0,073
-114,337	-89,045	-0,083	-0,018
-113,322	-4,049	0,014	0,007
-112,307	-200,000	0,037	-0,221
-111,293	-200,000	-0,012	0,138
-110,278	193,377	-0,031	0,034
-109,264	-62,466	0,057	-0,017
-108,249	-159,126	-0,101	0,004
-107,234	-94,930	0,014	0,003
-106,220	-200,000	-0,010	-0,153
-105,205	-57,810	0,157	-0,049
-104,191	800,000	-0,015	0,040
-103,176	-54,618	0,172	-0,056
-102,162	77,388	-0,081	-0,062
-101,147	160,847	-0,080	-0,080
-100,132	800,000	0,017	0,040
-99,118	470,444	0,036	-0,059
-98,103	670,754	-0,035	0,066
-97,089	-200,000	0,026	0,150
-96,074	-101,750	-0,184	-0,032
-95,059	233,145	-0,038	0,045
-94,045	-14,832	-0,117	0,054
-93,030	-183,650	-0,059	-0,001
-92,016	226,537	0,124	-0,145
-91,001	-70,216	0,111	-0,030
-89,986	-99,645	-0,070	0,013
-88,972	-87,854	0,071	0,015
-87,957	86,947	0,067	0,053
-86,943	418,810	-0,040	-0,062
-85,928	-200,000	0,023	0,086
-84,913	105,549	-0,019	-0,017
-83,899	41,403	-0,110	0,072
-82,884	99,370	0,045	-0,037
-81,870	-135,348	0,099	0,008
-80,855	-25,751	0,070	-0,030
-79,840	-49,832	0,058	-0,020
-78,826	-71,499	0,109	-0,029
-77,811	195,117	-0,078	-0,085
-76,797	-200,000	-0,006	0,091
-75,782	-39,487	0,081	-0,030
-74,767	800,000	-0,036	0,102
-73,753	309,015	0,083	0,111
-72,738	-47,311	-0,031	-0,011
-71,724	-40,098	-0,040	-0,015
-70,709	-16,430	-0,074	0,034
-69,694	40,407	0,056	-0,036
-68,680	102,747	0,097	0,082
-67,665	-121,076	-0,060	0,007
-66,651	178,568	0,058	0,061
-65,636	-200,000	-0,010	-0,041
-64,622	-200,000	0,001	0,067
-63,607	800,000	-0,026	-0,082
-62,592	-200,000	-0,015	-0,090
-61,578	-200,000	0,009	0,039
-60,563	-127,636	0,063	-0,006
-59,549	-200,000	-0,034	0,117
-58,534	66,902	-2,192	-1,604
-57,519	521,734	-1,168	-1,980
-56,505	-200,000	-0,411	-4,228
-55,490	719,019	0,897	1,722
-54,476	800,000	5,230	11,316
-53,461	-200,000	22,885	350,301
-52,446	800,000	757,726	2282,026
-51,432	501,934	1637,308	2729,325
-50,417	66,740	1556,615	1137,505
-49,403	19,229	1108,659	638,123
-48,388	11,005	814,409	446,142
-47,373	28,891	780,028	474,135
-46,359	17,468	765,102	435,795
-45,344	7,560	761,167	408,033
-44,330	7,340	759,556	406,584
-43,315	7,291	758,164	405,698
-42,300	7,322	756,951	405,111
-41,286	7,351	756,152	404,743
-40,271	7,292	755,041	403,981
-39,257	7,356	754,193	403,675
-38,242	7,412	753,388	403,371
-37,227	7,377	752,662	402,878
-36,213	7,475	751,634	402,560
-35,198	7,368	751,086	401,979
-34,184	7,477	750,590	401,975
-33,169	7,405	749,496	401,190
-32,154	7,361	749,281	400,948
-31,140	7,546	747,795	400,607
-30,125	7,558	747,254	400,331
-29,111	7,378	746,800	399,617
-28,096	7,405	746,369	399,438
-27,082	7,472	745,544	399,149
-26,067	7,404	744,855	398,592
-25,052	7,390	744,302	398,246
-24,038	7,334	743,882	397,864
-23,023	7,377	743,240	397,613
-22,009	7,472	742,761	397,579
-20,994	7,349	742,157	396,932
-19,979	7,509	741,274	396,844
-18,965	7,520	740,719	396,561
-17,950	7,479	740,560	396,356
-16,936	7,404	739,900	395,799
-15,921	7,428	739,334	395,542
-14,906	7,363	738,448	394,888
-13,892	7,430	738,037	394,821
-12,877	7,291	737,769	394,313
-11,863	7,214	737,458	393,939
-10,848	7,298	736,799	393,783
-9,833	7,460	736,263	393,885
-8,819	7,369	735,568	393,269
-7,804	7,428	735,025	393,112
-6,790	7,474	734,494	392,927
-5,775	7,481	734,325	392,837
-4,760	7,409	733,739	392,328
-3,746	7,351	733,317	391,945
-2,731	7,114	732,893	391,112
-1,717	7,161	732,567	391,039
-0,702	7,236	731,831	390,818
0,313	7,430	728,173	389,931
1,327	11,235	705,013	386,589
2,342	19,686	568,214	327,738
3,356	13,738	312,869	174,176
4,371	-15,754	211,559	96,479
5,386	-18,820	199,409	88,829
6,400	-18,589	195,675	87,313
7,415	-17,850	193,945	87,026
8,429	-18,845	192,614	85,763
9,444	-18,943	191,925	85,384
10,459	-18,743	191,470	85,305
11,473	-19,146	191,092	84,865
12,488	-18,761	190,739	84,953
13,502	-19,117	190,311	84,522
14,517	-18,739	189,852	84,557
15,531	-19,182	189,585	84,142
16,546	-18,807	189,177	84,197
17,561	-18,764	188,708	84,008
18,575	-18,710	188,619	83,996
19,590	-19,066	188,353	83,640
20,604	-18,719	188,332	83,848
21,619	-18,687	187,673	83,568
22,634	-19,176	187,487	83,163
23,648	-18,962	187,315	83,216
24,663	-18,943	187,068	83,112
25,677	-19,069	186,929	82,962
26,692	-18,618	186,659	83,123
27,707	-19,028	186,590	82,823
28,721	-19,016	186,349	82,716
29,736	-19,100	186,000	82,500
30,750	-19,207	185,880	82,371
31,765	-18,830	185,703	82,526
32,780	-18,834	185,481	82,417
33,794	-18,804	185,338	82,365
34,809	-18,905	185,234	82,247
35,823	-18,867	184,885	82,109
36,838	-19,020	184,791	81,963
37,853	-18,949	184,598	81,916
38,867	-19,079	184,349	81,715
39,882	-18,924	184,261	81,767
40,896	-18,974	184,128	81,669
41,911	-18,878	183,832	81,591
42,926	-18,733	183,501	81,528
43,940	-19,006	183,514	81,355
44,955	-18,788	183,108	81,304
45,969	-18,905	183,114	81,226
46,984	-18,815	183,008	81,228
47,999	-18,909	182,822	81,080
49,013	-18,963	182,803	81,031
50,028	-18,685	182,560	81,089
51,042	-18,749	182,411	80,976
52,057	-18,731	182,156	80,867
53,071	-18,938	181,992	80,658
54,086	-18,501	181,853	80,861
55,101	-18,906	181,652	80,513
56,115	-18,792	181,567	80,539
57,130	-18,889	181,371	80,384
58,144	-19,203	181,259	80,132
59,159	-18,865	180,877	80,166
60,174	-18,756	180,669	80,134
61,188	-19,130	180,571	79,852
62,203	-18,982	180,567	79,935
63,217	-18,826	180,240	79,879
64,232	-18,977	180,183	79,753
65,247	-18,861	179,929	79,705
66,261	-18,772	179,791	79,692
67,276	-18,786	179,772	79,668
68,290	-18,919	179,562	79,486
69,305	-18,767	179,364	79,485
70,320	-18,556	179,141	79,508
71,334	-18,543	179,032	79,460
72,349	-18,822	178,841	79,198
73,363	-18,907	178,670	79,064
74,378	-18,892	178,590	79,029
75,393	-18,908	178,264	78,869
76,407	-18,691	178,273	78,998
77,422	-18,756	178,073	78,863
78,436	-18,982	178,081	78,722
79,451	-18,884	177,758	78,632
80,466	-18,813	177,522	78,563
81,480	-18,794	177,303	78,471
82,495	-18,633	177,277	78,549
83,509	-18,719	177,184	78,449
84,524	-18,781	177,043	78,343
85,539	-18,832	176,837	78,213
86,553	-18,775	176,733	78,195
87,568	-18,784	176,498	78,078
88,582	-18,690	176,444	78,104
89,597	-18,736	176,365	78,035
90,611	-19,086	176,203	77,746
91,626	-18,741	176,098	77,900
92,641	-18,939	176,072	77,763
93,655	-18,861	175,713	77,643
94,670	-18,611	175,522	77,702
95,684	-18,818	175,488	77,556
96,699	-18,496	175,223	77,624
97,714	-19,069	175,273	77,297
98,728	-18,771	175,081	77,384
99,743	-18,739	174,852	77,294
100,757	-18,783	174,582	77,143
101,772	-18,804	174,635	77,146
102,787	-18,795	174,325	77,008
103,801	-18,754	174,195	76,968
104,816	-18,645	174,027	76,951
105,830	-18,948	174,007	76,756
106,845	-18,871	173,978	76,782
107,860	-18,637	173,693	76,788
108,874	-18,519	173,462	76,748
109,889	-18,868	173,303	76,466
110,903	-18,858	173,253	76,442
111,918	-18,689	173,064	76,452
112,933	-18,573	172,933	76,455
113,947	-18,517	172,766	76,408
114,962	-18,550	172,701	76,353
115,976	-18,556	172,646	76,318
116,991	-18,924	172,457	76,012
118,006	-18,799	172,306	76,012
119,020	-18,733	172,081	75,944
120,035	-18,745	171,983	75,887
121,049	-18,541	171,883	75,955
122,064	-18,525	171,816	75,928
123,079	-18,660	171,650	75,769
124,093	-18,753	171,478	75,633
125,108	-18,872	171,355	75,503
126,122	-18,671	171,181	75,536
127,137	-18,578	171,246	75,612
128,151	-18,717	170,972	75,404
129,166	-18,601	170,892	75,429
130,181	-18,470	170,611	75,374
131,195	-18,750	170,625	75,211
132,210	-18,805	170,353	75,053
133,224	-18,815	170,288	75,012
134,239	-18,742	170,141	74,983
135,254	-18,575	170,016	75,017
136,268	-18,662	169,775	74,854
137,283	-18,917	169,627	74,635
138,297	-18,702	169,536	74,712
139,312	-18,675	169,464	74,690
140,327	-18,918	169,303	74,472
141,341	-18,474	169,048	74,608
142,356	-18,527	169,010	74,554
143,370	-18,029	169,418	75,014
144,385	-11,086	170,796	79,641
145,400	-4,568	172,294	84,133
146,414	-2,654	172,389	85,286
147,429	-2,475	172,506	85,441
148,443	-2,402	172,328	85,387
149,458	-2,228	172,373	85,503
150,473	-1,914	172,188	85,586
151,487	-1,548	172,049	85,721
152,502	-1,765	172,061	85,594
153,516	-1,501	171,752	85,585
154,531	-1,624	171,753	85,507
155,546	-1,749	171,664	85,383
156,560	-1,680	171,576	85,371
157,575	-1,797	171,499	85,257
158,589	-1,620	171,320	85,263
159,604	-1,810	171,166	85,070
160,619	-1,609	170,956	85,074
161,633	-1,102	170,799	85,280
162,648	-1,331	170,753	85,117
163,662	-1,529	170,773	85,006
164,677	-1,298	170,565	85,027
165,692	-1,397	170,560	84,960
166,706	-1,282	170,547	85,012
167,721	-1,554	170,348	84,749
168,735	-1,205	170,043	84,790
169,750	-1,358	170,057	84,702
170,764	-1,042	169,971	84,832
171,779	-1,191	169,864	84,686
172,794	-1,076	169,737	84,681
173,808	-1,154	169,593	84,557
174,823	-1,070	169,413	84,508
175,837	-1,161	169,382	84,433
176,852	-1,397	169,384	84,292
177,867	-1,146	169,232	84,351
178,881	-0,985	168,998	84,319
179,896	-1,225	168,860	84,106
180,910	-1,355	168,752	83,971
181,925	-1,165	168,625	84,008
182,940	-1,136	168,416	83,913
183,954	-1,388	168,383	83,746
184,969	-1,158	168,294	83,825
185,983	-1,231	168,183	83,721
186,998	-0,977	168,045	83,788
188,013	-0,795	167,780	83,751
189,027	-1,034	167,853	83,646
190,042	-1,030	167,729	83,578
191,056	-1,127	167,599	83,451
192,071	-1,064	167,483	83,422
193,086	-1,263	167,389	83,255
194,100	-0,815	167,141	83,376
195,115	-0,965	167,060	83,244
196,129	-0,689	166,876	83,300
197,144	-0,666	166,816	83,275
198,159	-0,817	166,732	83,141
199,173	-0,903	166,540	82,990
200,188	-0,552	166,388	83,103
201,202	-0,864	166,361	82,908
202,217	-0,989	166,305	82,803
203,232	-1,229	166,167	82,593
204,246	-1,003	165,888	82,573
205,261	-0,927	165,867	82,597
206,275	-0,667	165,589	82,596
207,290	-1,106	165,676	82,388
208,304	-0,456	165,439	82,623
209,319	-0,755	165,510	82,485
210,334	-1,043	165,236	82,182
211,348	-1,033	165,245	82,184
212,363	-0,726	165,054	82,252
213,377	-0,941	165,098	82,147
214,392	-0,954	165,004	82,086
215,407	-0,513	164,783	82,213
216,421	-0,755	164,771	82,066
217,436	-0,962	164,516	81,817
218,450	-0,781	164,426	81,865
219,465	-0,372	164,298	82,019
220,480	-0,905	164,288	81,714
221,494	-0,687	164,145	81,755
222,509	-0,574	164,076	81,776
223,523	-0,844	163,942	81,553
224,538	-0,597	163,858	81,639
225,553	-0,818	163,764	81,464
226,567	-0,635	163,533	81,442
227,582	-0,883	163,428	81,247
228,596	-0,632	163,380	81,353
229,611	-0,612	163,357	81,345
230,626	-0,530	163,082	81,246
231,640	-0,910	163,007	80,994
232,655	-0,908	162,834	80,902
233,669	-0,937	162,836	80,880
234,684	-0,561	162,672	80,996
235,699	-0,540	162,576	80,952
236,713	-0,962	162,702	80,778
237,728	-0,458	162,502	80,945
238,742	-0,115	162,223	80,985
239,757	-0,334	162,139	80,817
240,772	-0,843	162,182	80,556
241,786	-0,596	161,980	80,582
242,801	-0,569	161,855	80,527
243,815	-0,465	161,823	80,560
244,830	-0,266	161,612	80,555
245,844	-0,385	161,555	80,456
246,859	-0,448	161,462	80,368
247,874	-0,250	161,300	80,388
248,888	-0,689	161,193	80,091
249,903	-0,529	161,130	80,138
250,917	-0,412	161,034	80,146
251,932	-0,371	161,032	80,160
252,947	-0,238	160,812	80,115
253,961	-0,267	160,605	79,989
254,976	-0,362	160,623	79,939
255,990	-0,458	160,528	79,834
257,005	-0,501	160,407	79,744
258,020	-0,961	160,376	79,475
259,034	-0,287	160,186	79,734
260,049	-0,097	159,985	79,728
261,063	-0,460	159,996	79,533
262,078	-0,146	159,868	79,630
263,093	-0,251	159,727	79,496
264,107	-0,304	159,591	79,393
265,122	-0,301	159,521	79,353
266,136	-0,296	159,343	79,260
267,151	-0,460	159,409	79,199
268,166	-0,195	159,196	79,226
269,180	-0,149	159,083	79,187
270,195	-0,456	158,859	78,906
271,209	-0,400	158,896	78,947
272,224	-0,367	158,812	78,916
273,239	-0,189	158,823	79,009
274,253	-0,337	158,527	78,776
275,268	-0,321	158,604	78,816
276,282	-0,512	158,208	78,511
277,297	-0,102	158,174	78,704
278,312	-0,083	158,126	78,683
279,326	0,115	157,947	78,691
280,341	-0,090	157,975	78,589
281,355	-0,298	157,913	78,443
282,370	-0,267	157,749	78,370
283,384	-0,207	157,690	78,366
284,399	-0,272	157,534	78,247
285,414	0,045	157,470	78,374
286,428	-0,040	157,396	78,286
287,443	0,182	157,359	78,377
288,457	0,161	156,981	78,171
289,472	-0,011	156,931	78,049
290,487	-0,230	156,890	77,908
291,501	-0,195	156,785	77,866
292,516	-0,123	156,737	77,873
293,530	-0,053	156,716	77,892
294,545	-0,110	156,627	77,811
295,560	-0,044	156,400	77,726
296,574	0,116	156,272	77,739
297,589	-0,181	156,379	77,631
298,603	-0,231	156,135	77,477
299,618	0,081	155,991	77,560
300,633	0,196	155,989	77,611
301,647	-0,066	155,883	77,416
302,662	0,317	155,765	77,549
303,676	0,220	155,459	77,340
304,691	0,256	155,619	77,431
305,706	-0,088	155,436	77,155
306,720	-0,016	155,329	77,133
307,735	-0,083	155,302	77,078
308,749	0,161	155,165	77,129
309,764	0,414	154,823	77,082
310,779	-0,061	154,968	76,903
311,793	0,140	154,797	76,914
312,808	0,342	154,678	76,952
313,822	0,044	154,520	76,714
314,837	-0,002	154,420	76,634
315,852	0,075	154,363	76,638
316,866	0,117	154,413	76,677
317,881	0,592	154,248	76,832
318,895	0,035	154,059	76,446
319,910	0,284	153,953	76,514
320,925	0,116	153,801	76,346
321,939	0,139	153,767	76,334
322,954	0,163	153,664	76,288
323,968	-0,160	153,763	76,166
324,983	0,059	153,691	76,235
325,997	0,132	153,445	76,143
327,012	0,223	153,244	76,083
328,027	0,084	153,281	76,024
329,041	0,121	153,151	75,971
330,056	0,250	153,107	76,008
331,070	0,119	152,888	75,826
332,085	0,339	152,677	75,827
333,100	0,199	152,767	75,793
334,114	0,260	152,631	75,750
335,129	0,263	152,512	75,686
336,143	0,217	152,369	75,585
337,158	0,202	152,322	75,547
338,173	0,245	152,272	75,537
339,187	0,394	152,139	75,540
340,202	0,632	152,141	75,654
341,216	0,120	152,015	75,327
342,231	0,424	151,641	75,287
343,246	0,221	151,727	75,221
344,260	0,462	151,667	75,305
345,275	0,520	151,529	75,260
346,289	0,304	151,461	75,111
347,304	0,486	151,203	75,068
348,319	0,429	151,262	75,062
349,333	0,379	151,110	74,955
350,348	0,410	151,140	74,978
351,362	0,407	150,951	74,876
352,377	0,318	150,953	74,826
353,392	0,403	150,812	74,792
354,406	0,487	150,724	74,783
355,421	192,975	1321,727	1392,832
356,435	152,303	1464,830	1393,295
