DTS Sentinel unit serial number:	SN410029Multiplexer serial number:	ORYXHardware model number:	OX2-SRSoftware version number:	ORYX F/W v4,00 Oryx Data Collector v3.7.2.0data status	okinstallation	B3 Nyhavnadifferential loss correction	single-endedforward channel	channel 1reverse channel	N/Adate	2023/11/28time	11:17:30forward acquisition time	300,00reverse acquisition time	0,00gamma	499,1914k internal	0,3152k external	0,3152temperature offset calibration	1,0000default loss term (dB/km)	0,3820temperature slope calibration	1,0000multiplexer offset coefficient	1,0000multiplexer slope coefficient	1,0000fibre end	0,00T internal ref (°C)	9,33T ext. ref 1 (°C)	-7,48T ext. ref 2 (°C)	-7,70length (m)	temperature (°C)	Stokes	anti-Stokes-744,400	800,000	-0,073	-0,219
-743,385	-200,000	0,001	0,193
-742,371	30,079	-0,147	-0,092
-741,356	-200,000	-0,082	0,399
-740,342	110,420	-0,219	-0,194
-739,327	-200,000	-0,057	0,373
-738,312	133,997	-0,276	-0,264
-737,298	800,000	-0,108	0,226
-736,283	30,263	-0,284	-0,178
-735,269	-200,000	0,075	0,391
-734,254	42,976	-0,213	-0,143
-733,239	-22,436	-0,176	0,078
-732,225	-200,000	-0,027	-0,172
-731,210	546,952	-0,050	0,088
-730,196	121,142	0,082	0,075
-729,181	-200,000	0,034	-0,130
-728,167	-200,000	0,008	-0,079
-727,152	-200,000	-0,009	0,065
-726,137	12,586	0,129	-0,073
-725,123	57,457	0,012	-0,009
-724,108	-200,000	0,005	-0,095
-723,094	-65,773	-0,072	-0,021
-722,079	-200,000	0,005	-0,235
-721,064	-74,917	-0,013	0,003
-720,050	249,722	-0,022	-0,027
-719,035	377,005	0,019	0,029
-718,021	-200,000	-0,047	-0,158
-717,006	69,653	-0,173	-0,131
-715,991	-200,000	-0,000	-0,220
-714,977	45,127	0,077	-0,052
-713,962	65,277	0,035	-0,026
-712,948	-4,808	-0,027	-0,014
-711,933	-139,085	0,128	0,010
-710,918	-137,367	0,040	-0,003
-709,904	70,631	0,062	0,047
-708,889	-200,000	-0,019	-0,157
-707,875	800,000	-0,059	-0,133
-706,860	67,047	-0,058	-0,043
-705,845	468,396	0,010	0,016
-704,831	-42,781	-0,091	-0,034
-703,816	-200,000	0,011	-0,050
-702,802	-89,203	0,043	-0,009
-701,787	68,312	-0,217	-0,164
-700,772	-70,066	-0,081	-0,023
-699,758	800,000	-0,042	-0,103
-698,743	-150,513	0,089	0,005
-697,729	-200,000	0,015	-0,047
-696,714	10,303	-0,080	0,045
-695,699	164,320	-0,080	-0,083
-694,685	106,341	-0,092	-0,080
-693,670	-29,474	-0,093	0,039
-692,656	-200,000	-0,018	-0,080
-691,641	800,000	-0,015	0,042
-690,627	69,879	0,099	0,075
-689,612	-55,622	0,028	0,009
-688,597	-58,815	-0,047	0,015
-687,583	-128,244	-0,109	0,011
-686,568	-200,000	-0,029	-0,101
-685,554	-200,000	-0,008	-0,033
-684,539	40,340	0,073	0,048
-683,524	-195,300	-0,044	0,000
-682,510	11,870	0,183	0,103
-681,495	800,000	-0,055	-0,119
-680,481	-200,000	-0,005	-0,137
-679,466	-14,543	-0,235	-0,111
-678,451	11,840	0,157	-0,089
-677,437	55,787	0,091	0,065
-676,422	800,000	0,064	0,147
-675,408	3,139	-0,071	-0,038
-674,393	-200,000	-0,029	-0,128
-673,378	-122,551	0,042	0,005
-672,364	-200,000	-0,007	0,123
-671,349	-200,000	-0,044	-0,171
-670,335	11,707	-0,064	0,036
-669,320	-200,000	0,001	-0,078
-668,305	-200,000	0,007	-0,046
-667,291	-200,000	-0,012	0,062
-666,276	721,553	-0,103	-0,204
-665,262	564,370	-0,059	-0,106
-664,247	201,732	0,055	0,062
-663,232	160,917	-0,077	0,080
-662,218	375,801	-0,032	-0,049
-661,203	-200,000	0,004	-0,140
-660,189	800,000	0,039	-0,121
-659,174	147,693	-0,108	-0,108
-658,159	206,101	-0,028	0,032
-657,145	-17,034	-0,085	-0,039
-656,130	800,000	-0,030	-0,078
-655,116	-37,070	0,060	0,024
-654,101	-22,778	0,052	0,023
-653,086	800,000	-0,036	0,084
-652,072	-200,000	0,038	-0,154
-651,057	53,710	-0,050	-0,035
-650,043	201,143	-0,116	-0,131
-649,028	-160,462	0,066	-0,003
-648,014	-146,848	0,077	0,005
-646,999	-58,574	-0,057	0,018
-645,984	186,046	-0,080	-0,088
-644,970	208,439	0,076	-0,087
-643,955	564,540	-0,123	-0,219
-642,941	38,852	0,043	0,029
-641,926	169,579	0,060	-0,063
-640,911	800,000	-0,016	0,051
-639,897	800,000	-0,042	0,109
-638,882	-200,000	0,022	0,088
-637,868	-200,000	-0,001	-0,016
-636,853	800,000	0,014	0,044
-635,838	643,219	-0,083	-0,156
-634,824	163,306	-0,041	0,042
-633,809	-98,584	0,108	0,020
-632,795	268,262	0,051	0,066
-631,780	800,000	-0,053	-0,150
-630,765	72,226	-0,103	-0,079
-629,751	-120,996	0,021	-0,003
-628,736	-200,000	-0,013	-0,077
-627,722	-171,429	-0,084	0,002
-626,707	-152,640	0,083	-0,004
-625,692	-193,638	0,096	-0,001
-624,678	-200,000	0,015	0,093
-623,663	800,000	-0,051	-0,121
-622,649	-48,818	0,120	0,042
-621,634	67,497	-0,124	-0,093
-620,619	539,805	-0,051	-0,089
-619,605	-151,641	-0,057	-0,003
-618,590	84,997	-0,108	0,087
-617,576	800,000	0,046	0,114
-616,561	-102,688	-0,092	0,016
-615,546	161,411	-0,125	0,128
-614,532	-126,441	-0,102	0,011
-613,517	800,000	0,044	-0,119
-612,503	-39,290	0,110	-0,042
-611,488	-44,313	0,076	0,028
-610,474	-124,388	-0,137	0,015
-609,459	89,189	-0,046	-0,038
-608,444	800,000	-0,037	-0,113
-607,430	-7,130	-0,091	-0,045
-606,415	746,295	-0,037	0,074
-605,401	-165,475	-0,073	-0,002
-604,386	800,000	0,028	-0,072
-603,371	264,557	0,048	-0,061
-602,357	-33,203	0,092	-0,037
-601,342	10,927	-0,146	-0,081
-600,328	311,931	-0,019	-0,026
-599,313	350,110	0,033	0,048
-598,298	103,235	-0,069	-0,060
-597,284	-20,479	0,094	-0,042
-596,269	-200,000	-0,006	0,142
-595,255	-121,534	0,025	-0,003
-594,240	118,103	0,016	-0,014
-593,225	800,000	-0,037	-0,103
-592,211	24,490	-0,104	-0,063
-591,196	90,695	0,118	0,097
-590,182	-197,964	0,081	0,000
-589,167	-200,000	0,003	0,132
-588,152	800,000	0,052	0,112
-587,138	-190,457	-0,050	0,000
-586,123	800,000	-0,015	-0,038
-585,109	800,000	-0,027	-0,065
-584,094	-39,943	-0,093	0,035
-583,079	96,073	0,036	0,030
-582,065	3,246	0,117	0,063
-581,050	42,384	0,097	0,064
-580,036	75,284	0,042	-0,033
-579,021	582,222	-0,095	-0,172
-578,006	-200,000	0,007	-0,104
-576,992	198,430	-0,051	0,057
-575,977	-200,000	0,004	-0,068
-574,963	312,287	-0,079	0,109
-573,948	372,967	-0,044	0,065
-572,934	81,882	-0,063	-0,050
-571,919	-200,000	0,007	0,080
-570,904	-200,000	-0,004	-0,017
-569,890	-200,000	-0,002	0,177
-568,875	53,689	0,155	0,109
-567,861	209,896	0,104	0,120
-566,846	-38,583	0,083	-0,032
-565,831	464,936	-0,015	0,025
-564,817	-89,083	-0,086	0,018
-563,802	-200,000	-0,000	-0,148
-562,788	352,933	-0,052	-0,075
-561,773	401,667	0,009	-0,013
-560,758	-84,644	-0,031	-0,007
-559,744	-171,846	-0,029	0,001
-558,729	-200,000	-0,010	0,101
-557,715	-94,802	-0,038	0,008
-556,700	319,747	-0,053	-0,073
-555,685	66,148	0,071	-0,053
-554,671	-138,089	0,105	-0,008
-553,656	-93,566	0,103	-0,021
-552,642	138,585	0,096	0,093
-551,627	-101,499	0,102	0,018
-550,612	127,109	-0,012	-0,011
-549,598	-200,000	0,025	-0,139
-548,583	-200,000	0,011	-0,051
-547,569	-51,533	-0,049	0,017
-546,554	177,870	-0,059	0,063
-545,539	4,585	0,102	-0,055
-544,525	-0,631	-0,034	-0,018
-543,510	-200,000	-0,006	-0,191
-542,496	180,148	-0,066	-0,071
-541,481	-200,000	-0,004	-0,096
-540,466	-200,000	0,003	-0,022
-539,452	800,000	-0,037	0,080
-538,437	-200,000	0,002	0,117
-537,423	-200,000	-0,032	0,115
-536,408	-27,277	0,118	-0,050
-535,393	32,744	-0,263	-0,166
-534,379	-62,408	-0,015	-0,005
-533,364	83,692	0,132	-0,105
-532,350	-200,000	-0,007	-0,047
-531,335	156,778	-0,051	0,052
-530,321	154,701	0,045	0,045
-529,306	-133,423	-0,108	0,010
-528,291	155,279	-0,051	-0,052
-527,277	121,018	-0,082	-0,075
-526,262	48,046	-0,007	0,005
-525,248	800,000	0,031	0,067
-524,233	272,252	0,072	-0,093
-523,218	-163,368	0,105	0,004
-522,204	800,000	0,033	-0,080
-521,189	-179,388	-0,095	-0,001
-520,175	247,160	-0,040	-0,050
-519,160	-200,000	-0,011	-0,039
-518,145	-74,658	0,035	-0,009
-517,131	162,730	0,023	-0,023
-516,116	800,000	0,025	0,065
-515,102	46,545	-0,094	0,064
-514,087	11,281	0,048	0,027
-513,072	-28,365	-0,002	-0,001
-512,058	-11,661	-0,142	0,068
-511,043	-90,395	0,126	0,027
-510,029	411,380	0,091	0,141
-509,014	800,000	-0,040	-0,098
-507,999	-83,825	0,031	-0,007
-506,985	-133,867	-0,082	0,007
-505,970	-32,834	-0,137	0,056
-504,956	-63,748	0,048	0,014
-503,941	-13,780	-0,073	-0,034
-502,926	800,000	-0,026	0,075
-501,912	-88,504	-0,110	-0,024
-500,897	18,457	0,080	0,047
-499,883	-200,000	-0,006	-0,072
-498,868	-200,000	0,001	0,018
-497,853	-200,000	0,036	0,132
-496,839	800,000	0,031	-0,094
-495,824	-200,000	-0,027	0,109
-494,810	197,860	-0,014	-0,016
-493,795	-200,000	0,006	0,066
-492,781	351,645	-0,044	-0,064
-491,766	-41,310	-0,062	0,023
-490,751	800,000	-0,030	-0,095
-489,737	800,000	0,029	-0,063
-488,722	39,008	0,092	-0,060
-487,708	-200,000	0,007	0,061
-486,693	800,000	-0,036	0,091
-485,678	800,000	-0,025	-0,077
-484,664	155,454	-0,030	0,030
-483,649	145,452	-0,046	0,045
-482,635	-162,708	0,064	-0,002
-481,620	49,197	0,112	0,077
-480,605	-47,367	0,091	-0,032
-479,591	-117,832	-0,115	0,015
-478,576	536,738	-0,040	-0,070
-477,562	8,549	-0,033	0,018
-476,547	307,764	-0,014	-0,019
-475,532	800,000	-0,029	-0,071
-474,518	-58,377	0,138	0,044
-473,503	-200,000	0,037	0,147
-472,489	19,608	0,077	-0,045
-471,474	144,240	0,113	-0,110
-470,459	-200,000	0,005	0,032
-469,445	-103,300	0,102	0,017
-468,430	-33,923	-0,151	0,060
-467,416	427,754	-0,052	0,082
-466,401	413,893	0,020	0,031
-465,386	800,000	0,042	0,130
-464,372	800,000	0,028	0,062
-463,357	800,000	0,039	0,119
-462,343	268,098	-0,048	-0,061
-461,328	-200,000	0,032	0,104
-460,313	-200,000	-0,001	0,015
-459,299	251,478	-0,101	0,126
-458,284	-200,000	0,012	0,159
-457,270	53,891	-0,100	0,070
-456,255	800,000	-0,062	-0,183
-455,241	-44,903	-0,093	-0,034
-454,226	-34,357	0,090	0,036
-453,211	85,523	0,069	0,055
-452,197	157,390	-0,143	0,145
-451,182	104,161	0,058	-0,050
-450,168	-94,850	0,071	-0,014
-449,153	-68,479	-0,083	-0,023
-448,138	-20,413	-0,072	0,032
-447,124	-144,291	0,076	-0,005
-446,109	-200,000	0,004	0,039
-445,095	40,025	0,009	-0,006
-444,080	323,396	-0,049	-0,069
-443,065	328,407	0,066	0,093
-442,051	292,275	-0,034	-0,045
-441,036	-38,154	-0,121	-0,046
-440,022	-200,000	0,033	-0,127
-439,007	6,260	0,020	-0,011
-437,992	-20,121	-0,067	-0,030
-436,978	-169,266	-0,117	0,003
-435,963	800,000	-0,054	0,127
-434,949	55,018	-0,049	-0,034
-433,934	78,627	-0,114	0,089
-432,919	770,961	0,071	0,142
-431,905	-65,083	-0,045	0,013
-430,890	-58,170	-0,123	0,039
-429,876	137,824	0,046	0,044
-428,861	-17,737	0,087	0,040
-427,846	-200,000	-0,011	0,067
-426,832	484,187	0,042	0,070
-425,817	800,000	-0,034	-0,075
-424,803	-65,636	-0,109	-0,032
-423,788	85,502	0,054	-0,043
-422,773	35,500	0,173	0,110
-421,759	-200,000	0,013	0,091
-420,744	800,000	0,036	0,103
-419,730	511,952	-0,111	-0,189
-418,715	800,000	-0,026	0,057
-417,701	38,906	0,117	0,076
-416,686	0,146	-0,049	-0,025
-415,671	-200,000	0,018	0,099
-414,657	453,509	-0,090	-0,146
-413,642	172,950	0,032	0,034
-412,628	-20,628	0,132	-0,059
-411,613	10,638	-0,088	-0,049
-410,598	61,551	-0,046	-0,033
-409,584	784,598	0,021	0,043
-408,569	-200,000	0,021	0,122
-407,555	800,000	-0,029	-0,082
-406,540	184,185	-0,111	-0,120
-405,525	-173,554	-0,016	0,000
-404,511	-93,159	0,096	-0,019
-403,496	465,552	0,012	-0,019
-402,482	164,730	0,058	-0,060
-401,467	-200,000	0,001	-0,036
-400,452	-200,000	0,009	0,056
-399,438	8,588	0,134	-0,073
-398,423	800,000	-0,030	-0,080
-397,409	-30,334	-0,084	0,034
-396,394	73,021	0,133	-0,101
-395,379	-80,188	-0,092	-0,022
-394,365	800,000	-0,025	0,074
-393,350	-200,000	-0,009	0,109
-392,336	80,691	0,060	-0,047
-391,321	-101,102	0,154	-0,027
-390,306	-69,001	-0,109	0,031
-389,292	-200,000	-0,013	-0,083
-388,277	250,637	0,024	-0,029
-387,263	-200,000	0,001	-0,044
-386,248	-2,695	0,135	0,069
-385,233	318,561	-0,035	-0,049
-384,219	-6,261	0,140	-0,069
-383,204	-126,606	-0,164	0,018
-382,190	800,000	-0,057	0,161
-381,175	61,334	-0,101	0,073
-380,160	-200,000	0,023	0,087
-379,146	-200,000	-0,012	0,186
-378,131	14,290	0,121	0,069
-377,117	-200,000	0,013	-0,078
-376,102	-184,518	0,135	-0,002
-375,088	-200,000	0,014	-0,131
-374,073	239,206	0,099	0,120
-373,058	-200,000	-0,001	0,088
-372,044	321,430	0,065	0,090
-371,029	-200,000	-0,005	0,145
-370,015	696,338	-0,097	-0,186
-369,000	-131,378	-0,035	-0,003
-367,985	800,000	-0,018	0,053
-366,971	800,000	-0,043	0,112
-365,956	-200,000	0,002	0,045
-364,942	-200,000	-0,032	0,119
-363,927	-11,737	0,131	0,063
-362,912	-107,754	-0,034	0,005
-361,898	-151,031	0,057	0,003
-360,883	683,449	-0,034	-0,065
-359,869	33,796	0,075	0,047
-358,854	5,682	-0,095	-0,051
-357,839	89,994	0,028	0,023
-356,825	-182,504	-0,084	0,001
-355,810	120,593	0,056	0,051
-354,796	-200,000	0,000	-0,061
-353,781	480,702	0,029	-0,047
-352,766	800,000	0,032	-0,068
-351,752	-159,379	0,188	0,008
-350,737	148,351	-0,093	0,091
-349,723	-200,000	0,016	-0,117
-348,708	112,513	-0,053	-0,047
-347,693	-4,476	-0,028	-0,014
-346,679	264,908	0,074	-0,094
-345,664	198,714	0,076	-0,085
-344,650	164,118	0,092	0,094
-343,635	215,010	0,031	-0,035
-342,620	-200,000	-0,017	0,108
-341,606	-200,000	-0,008	0,041
-340,591	-75,177	-0,135	0,035
-339,577	42,720	-0,037	0,024
-338,562	616,370	-0,020	-0,036
-337,548	800,000	-0,052	0,166
-336,533	373,347	-0,064	0,095
-335,518	-136,912	0,153	0,013
-334,504	-200,000	0,009	-0,068
-333,489	-79,730	0,089	-0,022
-332,475	385,956	0,081	-0,122
-331,460	-176,864	-0,044	-0,001
-330,445	-71,361	0,173	0,047
-329,431	800,000	-0,039	-0,110
-328,416	-122,186	0,139	-0,016
-327,402	28,180	0,139	0,085
-326,387	383,804	-0,068	0,103
-325,372	-184,523	-0,100	0,001
-324,358	667,097	-0,057	-0,107
-323,343	800,000	0,015	-0,035
-322,329	34,252	0,076	-0,048
-321,314	-143,096	0,046	0,003
-320,299	471,365	0,017	0,028
-319,285	800,000	0,073	-0,184
-318,270	-148,454	0,105	0,006
-317,256	800,000	0,028	-0,058
-316,241	18,466	0,113	-0,065
-315,226	800,000	-0,049	0,110
-314,212	-200,000	0,000	-0,040
-313,197	-200,000	-0,014	0,064
-312,183	800,000	-0,054	0,125
-311,168	475,867	0,019	0,031
-310,153	50,166	-0,050	-0,034
-309,139	-92,354	0,058	-0,012
-308,124	-27,783	0,058	0,024
-307,110	98,652	0,084	0,070
-306,095	470,038	0,111	-0,182
-305,080	-45,021	0,038	-0,014
-304,066	800,000	0,031	-0,071
-303,051	737,755	-0,040	-0,079
-302,037	215,033	0,025	-0,028
-301,022	430,153	-0,085	-0,134
-300,008	-200,000	-0,037	-0,154
-298,993	-200,000	-0,005	0,059
-297,978	32,022	0,128	0,080
-296,964	800,000	0,018	-0,041
-295,949	800,000	-0,039	-0,101
-294,935	98,983	-0,118	-0,099
-293,920	424,064	0,078	0,123
-292,905	-35,450	0,167	0,066
-291,891	800,000	0,019	0,056
-290,876	-200,000	-0,002	0,037
-289,862	-74,036	-0,114	-0,030
-288,847	-119,335	-0,162	0,020
-287,832	-200,000	0,045	-0,188
-286,818	139,302	-0,043	-0,041
-285,803	-200,000	0,009	0,112
-284,789	800,000	-0,043	0,101
-283,774	450,388	0,037	-0,059
-282,759	-200,000	0,014	0,128
-281,745	800,000	-0,024	0,053
-280,730	-138,660	-0,153	0,012
-279,716	-200,000	-0,016	0,072
-278,701	-200,000	-0,014	0,113
-277,686	83,571	0,053	0,042
-276,672	716,274	0,055	0,106
-275,657	-168,876	-0,193	-0,005
-274,643	-41,571	-0,026	-0,010
-273,628	-127,066	-0,077	-0,008
-272,613	-34,122	0,066	0,026
-271,599	94,746	-0,070	-0,057
-270,584	-200,000	0,009	0,103
-269,570	800,000	-0,080	0,172
-268,555	261,853	0,077	-0,097
-267,540	196,947	-0,086	0,095
-266,526	-200,000	0,009	0,049
-265,511	-26,424	0,118	-0,050
-264,497	-106,064	0,153	-0,025
-263,482	23,450	0,043	0,025
-262,467	0,858	0,169	-0,088
-261,453	-200,000	-0,011	-0,171
-260,438	-200,000	0,002	-0,121
-259,424	800,000	-0,026	-0,071
-258,409	-20,177	-0,153	-0,068
-257,395	43,674	0,124	-0,082
-256,380	457,750	0,034	-0,055
-255,365	37,970	0,032	-0,021
-254,351	-200,000	-0,003	-0,025
-253,336	-200,000	0,013	0,096
-252,322	15,629	-0,117	-0,067
-251,307	800,000	-0,038	0,090
-250,292	681,201	0,063	-0,120
-249,278	-111,795	0,047	0,007
-248,263	124,738	0,078	-0,071
-247,249	-25,203	0,055	0,024
-246,234	118,687	-0,062	-0,056
-245,219	62,830	0,036	-0,026
-244,205	-200,000	-0,013	-0,096
-243,190	-2,399	-0,074	0,037
-242,176	87,834	-0,075	0,060
-241,161	-200,000	0,049	0,239
-240,146	-200,000	0,013	0,087
-239,132	111,669	-0,068	-0,059
-238,117	-200,000	-0,006	0,095
-237,103	-31,687	-0,185	-0,075
-236,088	-29,505	-0,031	-0,013
-235,073	254,750	0,066	-0,082
-234,059	-114,423	-0,072	0,010
-233,044	-200,000	-0,022	-0,101
-232,030	-63,246	-0,077	0,023
-231,015	19,788	-0,064	-0,037
-230,000	-17,287	0,027	0,012
-228,986	95,760	0,044	0,036
-227,971	56,306	0,051	-0,036
-226,957	130,757	0,061	-0,056
-225,942	-200,000	-0,001	-0,012
-224,927	800,000	0,055	-0,144
-223,913	-200,000	-0,058	-0,210
-222,898	-200,000	0,022	-0,080
-221,884	46,122	-0,092	0,061
-220,869	-52,823	0,084	0,028
-219,855	265,192	-0,009	-0,012
-218,840	127,933	0,085	0,078
-217,825	-200,000	-0,024	0,080
-216,811	-97,958	0,068	0,013
-215,796	-100,519	-0,072	-0,013
-214,782	-94,621	0,124	-0,024
-213,767	800,000	0,067	-0,161
-212,752	800,000	-0,058	0,157
-211,738	131,619	-0,087	0,081
-210,723	-200,000	-0,037	0,128
-209,709	589,323	-0,072	0,128
-208,694	-120,734	0,048	0,006
-207,679	444,728	0,058	-0,093
-206,665	78,481	-0,073	-0,056
-205,650	-200,000	0,018	-0,072
-204,636	398,520	0,090	-0,137
-203,621	-30,331	-0,043	0,018
-202,606	56,376	-0,033	-0,023
-201,592	-200,000	-0,005	-0,147
-200,577	-200,000	-0,010	0,083
-199,563	163,646	-0,049	0,050
-198,548	350,652	0,038	-0,054
-197,533	343,699	0,030	0,043
-196,519	-10,782	0,058	0,027
-195,504	800,000	-0,050	-0,144
-194,490	236,599	0,034	-0,041
-193,475	-130,457	-0,145	-0,014
-192,460	262,964	-0,031	0,038
-191,446	86,898	0,054	0,043
-190,431	-163,716	0,078	0,003
-189,417	800,000	-0,016	0,033
-188,402	133,395	0,107	0,100
-187,387	306,926	0,058	0,078
-186,373	-200,000	0,008	-0,073
-185,358	-104,964	0,036	-0,006
-184,344	-200,000	0,022	-0,110
-183,329	800,000	-0,047	0,136
-182,315	-200,000	0,033	0,162
-181,300	-88,874	-0,101	0,022
-180,285	257,587	-0,087	-0,108
-179,271	31,653	-0,099	-0,062
-178,256	-20,380	-0,068	0,030
-177,242	-200,000	-0,029	-0,106
-176,227	685,357	-0,063	0,119
-175,212	-200,000	-0,000	0,044
-174,198	-200,000	0,006	0,092
-173,183	-200,000	0,005	0,020
-172,169	202,122	0,041	0,046
-171,154	-200,000	-0,026	-0,111
-170,139	104,400	-0,062	0,053
-169,125	150,883	0,062	0,061
-168,110	-30,050	0,182	-0,074
-167,096	26,470	-0,059	0,035
-166,081	-134,321	-0,072	0,006
-165,066	800,000	0,010	0,029
-164,052	-200,000	-0,025	0,097
-163,037	265,793	-0,127	-0,160
-162,023	294,139	0,111	-0,146
-161,008	762,415	0,037	-0,074
-159,993	800,000	-0,024	0,060
-158,979	351,908	0,083	-0,119
-157,964	75,563	-0,077	0,059
-156,950	-200,000	0,018	-0,072
-155,935	178,298	-0,054	-0,057
-154,920	56,828	0,018	0,012
-153,906	360,404	0,047	0,068
-152,891	170,853	-0,034	0,036
-151,877	35,532	-0,063	-0,040
-150,862	-72,024	-0,046	0,012
-149,847	179,352	-0,085	0,090
-148,833	102,170	0,084	0,071
-147,818	46,393	-0,059	0,039
-146,804	-200,000	0,006	0,078
-145,789	-200,000	-0,028	0,119
-144,775	743,365	0,021	0,041
-143,760	153,139	0,058	0,057
-142,745	-200,000	-0,050	-0,172
-141,731	800,000	0,057	0,169
-140,716	-200,000	0,035	0,224
-139,702	800,000	0,025	0,068
-138,687	-88,023	0,038	-0,008
-137,672	800,000	-0,007	0,018
-136,658	-80,897	-0,072	-0,017
-135,643	107,152	-0,049	-0,042
-134,629	116,374	0,074	0,065
-133,614	14,314	-0,084	0,047
-132,599	-87,330	0,212	0,046
-131,585	-200,000	0,026	0,143
-130,570	63,391	0,054	-0,039
-129,556	-200,000	0,009	-0,158
-128,541	63,545	-0,165	0,120
-127,526	-52,560	0,089	0,029
-126,512	245,244	0,123	0,149
-125,497	-102,552	0,074	0,013
-124,483	391,122	0,048	0,071
-123,468	135,432	0,091	-0,085
-122,453	121,573	-0,087	0,078
-121,439	-200,000	-0,037	-0,181
-120,424	21,527	-0,083	-0,049
-119,410	361,799	0,074	-0,108
-118,395	-200,000	0,005	0,063
-117,380	-102,028	0,073	-0,013
-116,366	-174,492	-0,082	-0,002
-115,351	-200,000	0,016	0,139
-114,337	-79,648	0,053	0,013
-113,322	-78,584	-0,060	-0,015
-112,307	-200,000	0,004	0,042
-111,293	-122,468	-0,094	-0,011
-110,278	79,795	0,106	0,082
-109,264	800,000	-0,031	0,092
-108,249	170,064	-0,066	0,068
-107,234	-200,000	0,002	0,031
-106,220	-200,000	-0,006	-0,157
-105,205	371,522	0,069	-0,101
-104,191	800,000	-0,044	0,100
-103,176	-200,000	0,001	-0,005
-102,162	42,001	-0,091	0,059
-101,147	123,992	-0,034	-0,031
-100,132	137,454	-0,064	0,060
-99,118	-200,000	-0,031	0,238
-98,103	152,979	-0,005	0,005
-97,089	-200,000	0,026	0,193
-96,074	576,157	0,028	-0,049
-95,059	34,819	-0,136	0,086
-94,045	-200,000	-0,003	-0,039
-93,030	144,321	-0,057	-0,055
-92,016	-200,000	-0,028	-0,171
-91,001	543,597	-0,098	0,168
-89,986	66,071	0,093	0,068
-88,972	25,158	0,079	-0,047
-87,957	104,744	-0,037	-0,031
-86,943	-175,583	-0,140	-0,003
-85,928	1,581	-0,058	0,030
-84,913	49,978	-0,108	-0,073
-83,899	238,297	0,086	0,103
-82,884	709,598	-0,122	0,233
-81,870	142,582	0,131	0,126
-80,855	-45,787	0,083	0,029
-79,840	-145,452	-0,111	0,007
-78,826	-111,519	-0,091	-0,013
-77,811	-200,000	-0,003	-0,033
-76,797	-141,134	0,128	-0,009
-75,782	-55,306	-0,109	0,035
-74,767	-135,826	-0,022	0,002
-73,753	92,572	-0,062	0,050
-72,738	28,049	0,110	-0,066
-71,724	218,874	-0,059	0,067
-70,709	101,243	-0,059	-0,049
-69,694	-200,000	-0,007	-0,141
-68,680	401,258	0,043	-0,066
-67,665	-200,000	0,013	0,200
-66,651	-200,000	-0,016	0,090
-65,636	28,204	0,043	-0,026
-64,622	406,565	-0,121	0,184
-63,607	-83,839	0,041	-0,009
-62,592	-24,330	0,091	-0,039
-61,578	-117,983	-0,186	-0,024
-60,563	-41,439	0,130	0,048
-59,549	528,958	0,051	0,086
-58,534	38,861	-2,063	-1,323
-57,519	449,142	-1,252	-1,992
-56,505	-200,000	-0,175	-4,065
-55,490	640,771	0,775	1,426
-54,476	800,000	5,193	11,640
-53,461	-200,000	21,607	341,013
-52,446	800,000	760,022	2333,750
-51,432	522,595	1656,989	2808,596
-50,417	71,727	1575,405	1175,900
-49,403	22,197	1096,761	642,175
-48,388	13,243	778,925	432,584
-47,373	27,164	739,989	445,524
-46,359	19,406	725,262	417,812
-45,344	9,490	720,989	391,201
-44,330	9,331	719,464	389,969
-43,315	9,271	718,138	389,090
-42,300	9,229	716,992	388,352
-41,286	9,273	716,214	388,021
-40,271	9,224	715,681	387,598
-39,257	9,186	714,662	386,939
-38,242	9,292	713,675	386,645
-37,227	9,287	713,069	386,291
-36,213	9,416	712,083	386,051
-35,198	9,299	711,223	385,289
-34,184	9,493	710,561	385,380
-33,169	9,283	710,061	384,588
-32,154	9,394	709,391	384,479
-31,140	9,443	708,006	383,830
-30,125	9,425	707,403	383,445
-29,111	9,382	707,063	383,142
-28,096	9,343	706,967	382,982
-27,082	9,327	706,390	382,615
-26,067	9,377	705,541	382,259
-25,052	9,258	705,044	381,691
-24,038	9,211	704,491	381,265
-23,023	9,217	703,754	380,864
-22,009	9,359	703,210	380,893
-20,994	9,389	702,446	380,537
-19,979	9,447	701,879	380,351
-18,965	9,337	701,495	379,867
-17,950	9,377	701,264	379,822
-16,936	9,380	700,440	379,368
-15,921	9,358	700,086	379,108
-14,906	9,319	699,188	378,514
-13,892	9,382	698,661	378,363
-12,877	9,337	698,233	378,010
-11,863	9,313	698,025	377,825
-10,848	9,246	697,562	377,401
-9,833	9,260	697,381	377,322
-8,819	9,371	696,260	376,963
-7,804	9,372	695,781	376,690
-6,790	9,288	695,612	376,387
-5,775	9,240	695,346	376,115
-4,760	9,283	694,609	375,803
-3,746	9,313	694,259	375,667
-2,731	9,060	694,019	374,929
-1,717	9,086	693,387	374,634
-0,702	9,093	692,994	374,424
0,313	9,204	689,130	373,158
1,327	13,567	662,872	368,694
2,342	22,467	532,826	312,282
3,356	16,353	294,674	166,639
4,371	-14,762	198,117	91,021
5,386	-18,110	186,379	83,477
6,400	-18,225	182,956	81,864
7,415	-17,466	181,339	81,606
8,429	-18,122	180,396	80,768
9,444	-18,442	179,729	80,264
10,459	-18,167	179,261	80,218
11,473	-18,167	178,766	79,988
12,488	-18,167	178,604	79,909
13,502	-18,150	178,065	79,671
14,517	-18,069	177,810	79,599
15,531	-18,282	177,301	79,235
16,546	-18,026	177,221	79,348
17,561	-18,492	176,883	78,907
18,575	-17,900	176,803	79,223
19,590	-18,330	176,393	78,772
20,604	-17,805	176,227	79,008
21,619	-18,022	175,894	78,721
22,634	-18,173	175,600	78,491
23,648	-18,353	175,405	78,289
24,663	-18,152	175,210	78,316
25,677	-18,028	175,055	78,314
26,692	-18,227	174,905	78,120
27,707	-18,049	174,681	78,120
28,721	-18,190	174,385	77,897
29,736	-18,076	174,239	77,892
30,750	-18,469	174,103	77,590
31,765	-18,239	173,872	77,617
32,780	-17,991	173,769	77,712
33,794	-18,327	173,570	77,416
34,809	-18,000	173,390	77,524
35,823	-18,175	173,115	77,290
36,838	-17,996	172,962	77,321
37,853	-18,219	172,767	77,095
38,867	-18,113	172,692	77,117
39,882	-18,136	172,618	77,064
40,896	-17,920	172,427	77,099
41,911	-17,916	172,346	77,058
42,926	-18,151	172,050	76,780
43,940	-18,043	171,590	76,632
44,955	-18,263	171,688	76,539
45,969	-18,002	171,379	76,548
46,984	-18,264	171,512	76,446
47,999	-17,953	171,169	76,470
49,013	-17,755	170,894	76,456
50,028	-18,005	170,876	76,294
51,042	-18,175	170,902	76,200
52,057	-17,731	170,619	76,326
53,071	-17,843	170,489	76,196
54,086	-17,798	170,252	76,109
55,101	-18,078	170,119	75,880
56,115	-18,247	170,070	75,753
57,130	-18,323	169,826	75,593
58,144	-18,469	169,700	75,446
59,159	-18,407	169,531	75,399
60,174	-18,016	169,316	75,524
61,188	-18,055	169,125	75,409
62,203	-18,241	169,060	75,266
63,217	-18,156	168,915	75,244
64,232	-18,176	168,682	75,122
65,247	-18,050	168,413	75,068
66,261	-18,408	168,395	74,847
67,276	-18,072	168,250	74,970
68,290	-18,047	168,165	74,939
69,305	-18,122	168,113	74,866
70,320	-17,741	167,789	74,934
71,334	-18,186	167,653	74,612
72,349	-18,102	167,448	74,562
73,363	-18,283	167,262	74,369
74,378	-18,333	167,148	74,283
75,393	-18,143	166,885	74,268
76,407	-18,128	166,921	74,286
77,422	-18,101	166,691	74,192
78,436	-18,244	166,620	74,072
79,451	-18,374	166,380	73,885
80,466	-18,222	166,264	73,913
81,480	-18,067	166,190	73,962
82,495	-18,256	166,211	73,857
83,509	-18,033	165,975	73,872
84,524	-17,832	165,926	73,958
85,539	-18,310	165,754	73,604
86,553	-18,236	165,595	73,569
87,568	-18,338	165,363	73,401
88,582	-18,245	165,272	73,407
89,597	-18,090	165,072	73,399
90,611	-18,319	165,067	73,261
91,626	-18,034	164,772	73,283
92,641	-18,068	164,659	73,208
93,655	-18,314	164,495	72,991
94,670	-18,013	164,298	73,066
95,684	-18,072	164,303	73,028
96,699	-18,171	164,248	72,942
97,714	-18,159	163,987	72,826
98,728	-18,001	163,821	72,834
99,743	-18,273	163,883	72,703
100,757	-17,957	163,691	72,788
101,772	-18,128	163,281	72,504
102,787	-18,198	163,361	72,494
103,801	-18,137	163,251	72,473
104,816	-18,055	163,013	72,406
105,830	-17,918	162,784	72,374
106,845	-18,177	162,849	72,253
107,860	-17,997	162,563	72,219
108,874	-18,215	162,531	72,078
109,889	-18,038	162,385	72,104
110,903	-18,118	162,232	71,986
111,918	-18,434	162,216	71,797
112,933	-17,928	162,057	72,000
113,947	-18,032	161,904	71,868
114,962	-17,911	161,730	71,851
115,976	-18,235	161,645	71,629
116,991	-18,308	161,547	71,538
118,006	-18,099	161,372	71,569
119,020	-18,120	161,251	71,498
120,035	-18,010	161,084	71,478
121,049	-18,144	161,116	71,413
122,064	-18,217	160,911	71,275
123,079	-18,011	160,753	71,312
124,093	-18,008	160,648	71,260
125,108	-18,084	160,525	71,158
126,122	-18,086	160,405	71,097
127,137	-17,581	160,280	71,311
128,151	-18,002	160,107	70,998
129,166	-17,857	159,997	71,022
130,181	-17,977	159,840	70,881
131,195	-17,922	159,640	70,815
132,210	-18,028	159,580	70,725
133,224	-17,728	159,345	70,777
134,239	-18,096	159,255	70,531
135,254	-18,300	159,360	70,461
136,268	-17,936	158,993	70,489
137,283	-17,889	158,749	70,401
138,297	-17,940	158,832	70,403
139,312	-18,112	158,613	70,207
140,327	-18,532	158,399	69,880
141,341	-18,697	158,065	69,638
142,356	-19,204	158,103	69,377
143,370	-17,938	158,182	70,085
144,385	-10,700	159,884	74,759
145,400	-3,583	161,391	79,343
146,414	-2,095	161,484	80,192
147,429	-2,064	161,488	80,204
148,443	-1,824	161,328	80,248
149,458	-1,649	161,280	80,312
150,473	-1,236	161,273	80,526
151,487	-1,279	161,257	80,488
152,502	-0,985	160,911	80,467
153,516	-1,154	160,939	80,383
154,531	-1,252	160,884	80,294
155,546	-1,006	160,643	80,300
156,560	-1,040	160,549	80,228
157,575	-1,183	160,479	80,109
158,589	-1,320	160,258	79,917
159,604	-1,223	160,248	79,957
160,619	-1,167	160,105	79,909
161,633	-1,304	160,016	79,783
162,648	-1,107	159,842	79,796
163,662	-1,074	159,863	79,817
164,677	-1,042	159,660	79,726
165,692	-1,198	159,708	79,659
166,706	-0,743	159,405	79,745
167,721	-0,998	159,442	79,619
168,735	-0,739	159,120	79,590
169,750	-0,866	159,170	79,540
170,764	-0,921	159,169	79,502
171,779	-0,577	158,850	79,520
172,794	-0,732	158,967	79,489
173,808	-0,854	158,777	79,321
174,823	-0,849	158,746	79,301
175,837	-0,760	158,553	79,245
176,852	-0,774	158,515	79,212
177,867	-0,924	158,388	79,062
178,881	-0,805	158,229	79,038
179,896	-0,702	158,170	79,056
180,910	-0,442	157,835	79,020
181,925	-0,704	157,824	78,868
182,940	-0,660	157,649	78,797
183,954	-0,363	157,558	78,902
184,969	-0,485	157,439	78,770
185,983	-0,334	157,423	78,836
186,998	-0,648	157,313	78,608
188,013	-0,789	157,302	78,521
189,027	-0,649	157,115	78,494
190,042	-0,584	157,049	78,488
191,056	-0,265	156,876	78,563
192,071	-0,423	156,714	78,392
193,086	-0,549	156,672	78,298
194,100	-0,439	156,485	78,255
195,115	-0,325	156,488	78,310
196,129	-0,564	156,263	78,064
197,144	-0,484	156,221	78,079
198,159	-0,577	155,966	77,895
199,173	-0,510	155,916	77,898
200,188	-0,415	155,940	77,953
201,202	-0,424	155,852	77,897
202,217	-0,448	155,452	77,678
203,232	-0,300	155,512	77,778
204,246	-0,394	155,300	77,616
205,261	-0,371	155,162	77,553
206,275	-0,288	155,084	77,550
207,290	-0,379	154,962	77,434
208,304	-0,706	155,192	77,372
209,319	-0,388	154,807	77,338
210,334	-0,680	154,755	77,155
211,348	-0,663	154,669	77,113
212,363	-0,732	154,460	76,966
213,377	-0,867	154,472	76,896
214,392	-0,318	154,354	77,114
215,407	-0,126	154,255	77,157
216,421	-0,208	154,063	77,011
217,436	-0,269	154,005	76,944
218,450	-0,405	153,969	76,849
219,465	-0,059	153,759	76,916
220,480	-0,241	153,599	76,735
221,494	-0,168	153,557	76,745
222,509	-0,176	153,619	76,765
223,523	-0,547	153,517	76,517
224,538	-0,016	153,140	76,594
225,553	0,005	153,175	76,615
226,567	-0,487	153,151	76,344
227,582	-0,340	153,009	76,342
228,596	-0,158	152,796	76,322
229,611	-0,178	152,687	76,250
230,626	-0,501	152,666	76,069
231,640	0,102	152,587	76,330
232,655	0,104	152,609	76,335
233,669	-0,518	152,408	75,911
234,684	-0,003	152,319	76,122
235,699	-0,061	152,187	76,020
236,713	0,057	152,098	76,029
237,728	-0,225	152,106	75,882
238,742	0,106	151,811	75,897
239,757	-0,021	151,742	75,790
240,772	0,111	151,754	75,857
241,786	-0,104	151,626	75,677
242,801	0,050	151,472	75,672
243,815	-0,263	151,486	75,513
244,830	0,199	151,415	75,705
245,844	0,110	151,271	75,581
246,859	-0,045	151,078	75,400
247,874	-0,169	151,024	75,304
248,888	0,258	150,741	75,371
249,903	0,049	150,804	75,290
250,917	0,230	150,606	75,276
251,932	-0,075	150,568	75,097
252,947	0,025	150,378	75,046
253,961	0,117	150,348	75,070
254,976	0,242	150,298	75,101
255,990	0,041	150,242	74,965
257,005	0,353	150,012	75,000
258,020	0,452	150,022	75,049
259,034	-0,336	149,901	74,587
260,049	0,016	149,865	74,738
261,063	0,066	149,634	74,641
262,078	0,427	149,530	74,763
263,093	0,004	149,494	74,527
264,107	0,240	149,456	74,619
265,122	-0,083	149,309	74,379
266,136	0,293	149,132	74,471
267,151	0,207	149,197	74,453
268,166	0,182	148,884	74,279
269,180	0,285	148,859	74,311
270,195	0,021	148,777	74,132
271,209	0,566	148,716	74,365
272,224	0,203	148,495	74,068
273,239	0,350	148,528	74,151
274,253	0,220	148,355	73,994
275,268	0,150	148,258	73,904
276,282	0,355	148,200	73,970
277,297	0,435	148,089	73,947
278,312	0,431	148,011	73,900
279,326	0,420	147,946	73,855
280,341	0,350	147,844	73,764
281,355	0,307	147,773	73,701
282,370	0,659	147,589	73,775
283,384	0,658	147,442	73,694
284,399	0,288	147,422	73,496
285,414	0,570	147,351	73,592
286,428	0,376	147,322	73,476
287,443	0,350	147,189	73,390
288,457	0,460	146,967	73,327
289,472	0,363	146,936	73,258
290,487	0,538	146,880	73,309
291,501	0,252	146,725	73,086
292,516	0,544	146,577	73,148
293,530	0,660	146,596	73,207
294,545	0,379	146,526	73,029
295,560	0,662	146,437	73,116
296,574	0,453	146,406	72,992
297,589	0,378	146,300	72,896
298,603	0,317	146,204	72,812
299,618	0,343	146,079	72,756
300,633	0,357	145,968	72,701
301,647	0,440	145,811	72,657
302,662	0,472	145,753	72,637
303,676	0,614	145,524	72,585
304,691	0,456	145,553	72,516
305,706	0,421	145,490	72,462
306,720	0,613	145,316	72,461
307,735	0,711	145,184	72,436
308,749	0,772	145,165	72,449
309,764	0,650	144,999	72,301
310,779	0,832	144,983	72,374
311,793	0,646	144,968	72,271
312,808	0,590	144,719	72,113
313,822	0,775	144,582	72,128
314,837	0,687	144,478	72,028
315,852	0,974	144,491	72,165
316,866	0,728	144,419	72,005
317,881	0,859	144,303	72,003
318,895	0,822	144,156	71,906
319,910	0,790	144,146	71,879
320,925	0,467	143,983	71,637
321,939	0,540	144,064	71,705
322,954	0,506	143,823	71,563
323,968	0,665	143,834	71,638
324,983	0,648	143,742	71,578
325,997	0,747	143,526	71,511
327,012	0,791	143,431	71,478
328,027	0,644	143,373	71,373
329,041	0,798	143,336	71,422
330,056	0,593	143,110	71,205
331,070	0,397	143,140	71,121
332,085	0,462	143,031	71,091
333,100	0,530	142,949	71,076
334,114	0,906	142,832	71,190
335,129	0,694	142,690	71,012
336,143	0,833	142,635	71,044
337,158	0,811	142,535	70,978
338,173	0,656	142,593	70,927
339,187	1,236	142,410	71,103
340,202	1,088	142,214	70,929
341,216	0,974	142,102	70,814
342,231	1,011	142,089	70,819
343,246	0,999	141,880	70,702
344,260	1,022	141,976	70,755
345,275	0,901	141,914	70,661
346,289	0,985	141,867	70,670
347,304	0,770	141,637	70,448
348,319	1,073	141,548	70,540
349,333	0,753	141,456	70,338
350,348	0,978	141,345	70,382
351,362	0,558	141,245	70,129
352,377	1,060	141,235	70,353
353,392	1,249	141,045	70,340
354,406	0,987	140,982	70,180
355,421	192,273	1322,741	1391,596
356,435	151,421	1467,189	1392,084
