DTS Sentinel unit serial number:	SN410029Multiplexer serial number:	ORYXHardware model number:	OX2-SRSoftware version number:	ORYX F/W v4,00 Oryx Data Collector v3.7.2.0data status	okinstallation	B3 Nyhavnadifferential loss correction	single-endedforward channel	channel 1reverse channel	N/Adate	2023/11/28time	11:52:30forward acquisition time	300,00reverse acquisition time	0,00gamma	499,1914k internal	0,3145k external	0,3145temperature offset calibration	1,0000default loss term (dB/km)	0,3820temperature slope calibration	1,0000multiplexer offset coefficient	1,0000multiplexer slope coefficient	1,0000fibre end	0,00T internal ref (°C)	8,90T ext. ref 1 (°C)	-7,60T ext. ref 2 (°C)	-7,79length (m)	temperature (°C)	Stokes	anti-Stokes-744,400	800,000	-0,171	-0,364
-743,385	-200,000	-0,021	0,094
-742,371	-200,000	0,009	-0,306
-741,356	-200,000	0,042	0,224
-740,342	249,332	-0,161	-0,203
-739,327	-200,000	0,052	0,229
-738,312	138,252	-0,265	-0,258
-737,298	-7,582	0,085	0,042
-736,283	599,156	-0,133	-0,246
-735,269	-200,000	0,069	0,361
-734,254	239,444	-0,226	-0,279
-733,239	490,585	-0,114	0,194
-732,225	-200,000	-0,044	-0,148
-731,210	-11,913	0,275	0,133
-730,196	800,000	0,010	0,031
-729,181	-110,606	-0,133	0,020
-728,167	614,563	0,014	-0,025
-727,152	800,000	0,020	0,041
-726,137	-200,000	-0,007	-0,046
-725,123	81,555	-0,116	-0,093
-724,108	800,000	-0,048	-0,152
-723,094	621,331	-0,023	0,044
-722,079	149,349	-0,047	-0,047
-721,064	-95,190	0,066	-0,013
-720,050	70,914	0,056	0,043
-719,035	480,640	-0,066	0,111
-718,021	-200,000	0,036	-0,130
-717,006	-17,776	-0,104	-0,048
-715,991	800,000	-0,068	-0,175
-714,977	-137,356	-0,122	-0,010
-713,962	-17,482	0,055	-0,026
-712,948	151,592	0,042	0,043
-711,933	435,583	-0,052	0,085
-710,918	150,986	-0,086	0,087
-709,904	3,299	0,128	-0,069
-708,889	172,492	-0,068	-0,073
-707,875	-200,000	-0,016	-0,092
-706,860	-88,714	-0,109	-0,024
-705,845	23,850	0,062	0,038
-704,831	-35,043	-0,029	0,011
-703,816	-101,854	-0,046	-0,008
-702,802	-30,110	0,035	-0,015
-701,787	-125,542	-0,089	0,010
-700,772	800,000	0,027	-0,073
-699,758	800,000	0,038	-0,096
-698,743	-200,000	0,007	-0,114
-697,729	-112,586	-0,079	-0,012
-696,714	800,000	0,020	-0,056
-695,699	-200,000	-0,003	-0,103
-694,685	58,399	-0,047	-0,034
-693,670	6,577	0,052	-0,028
-692,656	-200,000	-0,012	-0,119
-691,641	-200,000	0,005	0,165
-690,627	-200,000	-0,006	0,093
-689,612	-20,290	-0,122	-0,055
-688,597	-122,849	-0,275	0,032
-687,583	-127,920	-0,126	0,013
-686,568	117,547	0,072	-0,065
-685,554	-90,810	0,108	0,023
-684,539	54,080	0,033	-0,023
-683,524	-200,000	-0,006	0,091
-682,510	-200,000	0,015	0,052
-681,495	-137,025	-0,216	0,018
-680,481	-8,998	0,151	-0,074
-679,466	28,300	-0,130	-0,081
-678,451	-1,075	0,109	-0,057
-677,437	-82,731	-0,190	0,045
-676,422	-62,726	0,134	0,041
-675,408	-54,497	-0,120	0,040
-674,393	367,943	0,038	0,057
-673,378	-49,241	0,047	0,017
-672,364	213,235	-0,059	0,069
-671,349	-105,638	-0,023	-0,004
-670,335	95,942	-0,092	-0,078
-669,320	-200,000	0,012	0,105
-668,305	-200,000	0,014	0,048
-667,291	-120,982	-0,060	0,007
-666,276	49,419	-0,070	-0,049
-665,262	-50,987	-0,144	-0,049
-664,247	-200,000	0,008	-0,035
-663,232	-85,124	0,117	-0,027
-662,218	-200,000	0,001	0,086
-661,203	64,059	0,010	-0,007
-660,189	-56,733	0,065	0,021
-659,174	-169,874	-0,047	0,001
-658,159	158,617	-0,039	-0,040
-657,145	0,577	-0,173	-0,091
-656,130	-69,686	0,113	-0,032
-655,116	88,382	0,118	0,096
-654,101	-200,000	-0,003	-0,105
-653,086	136,505	-0,025	0,024
-652,072	-200,000	-0,007	0,071
-651,057	-46,938	0,020	-0,007
-650,043	-142,908	-0,164	-0,012
-649,028	-200,000	0,031	-0,156
-648,014	-200,000	0,073	0,239
-646,999	800,000	0,043	0,137
-645,984	199,199	0,067	0,076
-644,970	-165,550	0,063	0,002
-643,955	-200,000	0,015	0,055
-642,941	185,714	0,040	0,044
-641,926	-85,210	0,056	0,013
-640,911	151,566	0,060	-0,061
-639,897	60,633	0,075	-0,055
-638,882	-64,661	-0,153	-0,045
-637,868	-200,000	0,012	0,133
-636,853	-92,600	0,137	-0,028
-635,838	-200,000	-0,014	-0,101
-634,824	372,140	-0,067	-0,101
-633,809	800,000	-0,058	0,136
-632,795	800,000	0,058	0,124
-631,780	-200,000	0,002	0,054
-630,765	-163,120	-0,119	0,004
-629,751	-200,000	-0,001	-0,072
-628,736	-89,217	-0,079	0,017
-627,722	91,725	-0,138	0,115
-626,707	14,010	0,095	-0,054
-625,692	-77,773	0,057	0,014
-624,678	33,582	0,075	-0,048
-623,663	800,000	-0,053	-0,156
-622,649	-200,000	-0,023	-0,083
-621,634	800,000	-0,024	-0,066
-620,619	-104,441	-0,110	-0,019
-619,605	92,852	0,095	0,079
-618,590	-0,903	-0,072	0,038
-617,576	221,677	-0,064	0,076
-616,561	800,000	0,047	0,104
-615,546	122,213	0,015	0,014
-614,532	259,983	0,007	-0,009
-613,517	41,126	-0,071	-0,047
-612,503	-118,156	0,033	0,004
-611,488	706,656	-0,052	0,101
-610,474	209,494	-0,063	0,072
-609,459	800,000	-0,033	-0,081
-608,444	-200,000	0,018	-0,147
-607,430	-200,000	0,011	-0,116
-606,415	183,161	-0,070	0,076
-605,401	-200,000	0,010	0,091
-604,386	-49,559	0,113	0,039
-603,371	-63,571	0,145	-0,044
-602,357	-76,773	0,079	-0,020
-601,342	18,696	-0,125	-0,073
-600,328	-86,217	-0,041	0,009
-599,313	55,886	-0,093	-0,066
-598,298	-61,744	-0,033	-0,010
-597,284	216,731	-0,071	-0,083
-596,269	85,998	0,036	-0,029
-595,255	708,856	-0,043	-0,084
-594,240	-56,296	0,115	0,037
-593,225	800,000	0,010	-0,030
-592,211	415,375	-0,045	-0,070
-591,196	-200,000	-0,042	-0,142
-590,182	166,468	0,127	0,132
-589,167	-59,851	-0,111	0,035
-588,152	-200,000	-0,004	0,065
-587,138	244,878	-0,093	-0,115
-586,123	-66,922	0,156	0,045
-585,109	-200,000	-0,106	0,000
-584,094	800,000	0,023	-0,064
-583,079	-133,947	-0,097	-0,009
-582,065	-24,594	-0,088	-0,038
-581,050	-200,000	-0,017	-0,064
-580,036	-148,867	-0,101	-0,006
-579,021	552,959	0,065	-0,116
-578,006	769,227	-0,046	-0,093
-576,992	342,263	0,101	-0,146
-575,977	800,000	-0,053	0,127
-574,963	162,108	0,083	0,086
-573,948	-200,000	0,008	0,031
-572,934	-200,000	0,012	-0,132
-571,919	-200,000	0,001	-0,076
-570,904	-108,234	0,049	-0,008
-569,890	432,874	-0,044	-0,070
-568,875	-36,206	0,112	0,044
-567,861	-45,192	0,116	-0,042
-566,846	-200,000	0,003	-0,062
-565,831	800,000	0,024	0,056
-564,817	-200,000	-0,014	-0,192
-563,802	-200,000	-0,005	-0,047
-562,788	800,000	0,032	-0,087
-561,773	800,000	0,046	0,113
-560,758	721,363	0,015	0,029
-559,744	-200,000	0,010	0,063
-558,729	91,065	-0,098	0,081
-557,715	193,041	0,024	0,027
-556,700	108,725	-0,036	0,031
-555,685	-200,000	-0,004	0,044
-554,671	130,409	-0,095	0,089
-553,656	92,723	0,097	0,080
-552,642	87,864	0,130	0,106
-551,627	-39,717	-0,064	0,024
-550,612	212,860	-0,025	-0,029
-549,598	800,000	0,025	0,059
-548,583	387,974	-0,070	0,107
-547,569	412,956	0,079	-0,124
-546,554	-45,633	0,065	0,024
-545,539	87,268	0,085	0,069
-544,525	-200,000	0,011	0,078
-543,510	69,288	-0,121	0,091
-542,496	-200,000	-0,001	-0,009
-541,481	-73,967	-0,080	0,021
-540,466	683,911	-0,046	-0,089
-539,452	-125,896	0,081	-0,009
-538,437	162,620	0,080	0,082
-537,423	-32,843	0,098	-0,040
-536,408	-163,071	-0,093	0,003
-535,393	-200,000	-0,003	-0,029
-534,379	-97,806	0,021	-0,004
-533,364	215,636	0,091	0,106
-532,350	800,000	0,068	0,175
-531,335	-200,000	0,029	0,147
-530,321	-35,162	0,042	0,017
-529,306	800,000	-0,006	-0,015
-528,291	-174,589	-0,026	0,001
-527,277	800,000	0,024	-0,056
-526,262	-102,887	-0,037	0,006
-525,248	101,544	0,033	0,029
-524,233	68,759	0,052	-0,039
-523,218	-69,775	-0,073	0,020
-522,204	-50,337	0,080	-0,028
-521,189	800,000	-0,013	0,033
-520,175	19,448	-0,077	-0,045
-519,160	800,000	-0,040	0,085
-518,145	57,328	-0,077	0,055
-517,131	-72,523	0,093	-0,025
-516,116	106,126	-0,047	-0,041
-515,102	349,809	-0,035	-0,051
-514,087	-72,660	-0,057	0,015
-513,072	63,332	-0,093	-0,068
-512,058	-200,000	0,024	-0,162
-511,043	263,402	0,079	-0,101
-510,029	-164,769	0,027	-0,001
-509,014	-200,000	-0,001	0,027
-507,999	342,739	0,116	-0,167
-506,985	524,186	0,011	-0,018
-505,970	304,133	-0,036	0,049
-504,956	43,121	0,059	-0,040
-503,941	-200,000	-0,050	0,165
-502,926	-116,675	0,083	-0,011
-501,912	-190,489	0,141	-0,001
-500,897	9,886	-0,160	-0,089
-499,883	316,400	0,047	-0,065
-498,868	4,875	-0,100	-0,054
-497,853	-82,336	-0,025	0,006
-496,839	800,000	-0,052	0,120
-495,824	800,000	0,037	0,090
-494,810	-6,046	-0,121	-0,060
-493,795	25,211	0,055	-0,034
-492,781	23,902	-0,178	0,107
-491,766	-200,000	0,006	-0,049
-490,751	-157,274	-0,079	-0,003
-489,737	606,113	0,073	0,135
-488,722	127,043	0,025	-0,023
-487,708	-50,979	0,158	-0,054
-486,693	258,358	-0,037	0,047
-485,678	-200,000	-0,007	0,053
-484,664	88,959	-0,097	0,079
-483,649	-200,000	-0,009	-0,138
-482,635	-100,093	0,147	-0,027
-481,620	-200,000	-0,014	0,153
-480,605	22,830	-0,051	0,031
-479,591	519,876	-0,052	-0,089
-478,576	495,391	0,060	0,101
-477,562	291,613	0,064	0,086
-476,547	190,279	-0,132	-0,145
-475,532	-30,526	-0,020	0,008
-474,518	-200,000	0,025	0,111
-473,503	167,377	-0,002	-0,003
-472,489	135,083	0,110	0,104
-471,474	-200,000	-0,022	0,167
-470,459	21,322	-0,057	-0,034
-469,445	162,355	-0,031	-0,032
-468,430	46,297	-0,077	-0,052
-467,416	-5,227	0,063	0,032
-466,401	-149,176	0,067	-0,004
-465,386	-200,000	0,006	-0,036
-464,372	800,000	-0,046	0,119
-463,357	800,000	-0,025	-0,053
-462,343	286,171	-0,041	-0,054
-461,328	-67,180	0,062	0,018
-460,313	600,259	-0,065	0,118
-459,299	-200,000	0,018	0,189
-458,284	-120,289	0,033	0,004
-457,270	-99,601	-0,066	-0,012
-456,255	673,126	-0,050	-0,095
-455,241	104,244	0,035	-0,030
-454,226	-11,368	0,128	-0,062
-453,211	-200,000	0,020	-0,081
-452,197	-12,382	0,070	0,033
-451,182	35,052	-0,086	0,055
-450,168	800,000	-0,038	0,090
-449,153	446,630	-0,058	0,094
-448,138	-147,180	0,137	-0,008
-447,124	79,080	0,041	-0,032
-446,109	-177,008	0,074	0,001
-445,095	-30,108	0,074	0,031
-444,080	4,150	0,125	0,067
-443,065	-100,342	0,140	0,025
-442,051	361,597	-0,073	-0,108
-441,036	-200,000	0,018	0,222
-440,022	-200,000	-0,013	-0,051
-439,007	800,000	-0,031	-0,072
-437,992	559,886	-0,031	0,056
-436,978	127,001	0,015	-0,014
-435,963	393,388	-0,072	0,109
-434,949	57,982	0,042	0,030
-433,934	-159,346	-0,148	0,006
-432,919	793,360	0,011	0,022
-431,905	302,404	0,020	0,027
-430,890	-200,000	0,004	0,126
-429,876	-62,622	-0,073	-0,022
-428,861	-155,379	0,040	-0,002
-427,846	7,326	0,075	0,041
-426,832	-136,781	0,136	0,011
-425,817	727,269	-0,038	-0,074
-424,803	-23,064	-0,083	-0,036
-423,788	800,000	0,005	-0,011
-422,773	800,000	0,056	0,135
-421,759	-200,000	-0,027	0,097
-420,744	800,000	-0,004	-0,010
-419,730	121,576	0,130	0,118
-418,715	800,000	-0,013	0,027
-417,701	-200,000	-0,039	-0,150
-416,686	-123,566	-0,095	0,011
-415,671	-10,910	-0,162	0,078
-414,657	-200,000	0,015	-0,140
-413,642	122,672	-0,015	-0,014
-412,628	-85,327	-0,064	0,014
-411,613	318,431	-0,036	-0,049
-410,598	169,013	0,023	-0,024
-409,584	-92,366	0,225	-0,046
-408,569	203,308	-0,035	-0,040
-407,555	0,221	0,068	-0,035
-406,540	35,632	0,041	0,026
-405,525	587,576	-0,101	-0,183
-404,511	-200,000	0,011	-0,097
-403,496	-200,000	0,003	0,080
-402,482	-200,000	0,002	0,035
-401,467	-34,079	0,133	-0,053
-400,452	113,847	-0,088	0,078
-399,438	-199,200	-0,036	0,000
-398,423	352,346	0,019	-0,028
-397,409	275,755	0,023	-0,029
-396,394	116,444	0,116	0,104
-395,379	-46,054	-0,050	-0,018
-394,365	-41,017	-0,052	-0,019
-393,350	347,400	0,074	-0,107
-392,336	112,418	0,090	0,079
-391,321	318,410	0,028	0,039
-390,306	183,173	-0,020	0,022
-389,292	40,139	-0,109	0,071
-388,277	33,106	0,121	0,076
-387,263	-200,000	-0,018	0,127
-386,248	800,000	0,027	0,086
-385,233	-1,443	-0,051	-0,026
-384,219	-200,000	-0,036	0,149
-383,204	-200,000	-0,024	-0,121
-382,190	209,085	-0,105	-0,120
-381,175	-93,454	-0,095	0,019
-380,160	-72,497	0,140	0,037
-379,146	226,531	-0,067	0,080
-378,131	464,721	0,009	0,016
-377,117	-200,000	0,000	0,110
-376,102	156,741	0,040	-0,041
-375,088	800,000	-0,060	0,138
-374,073	800,000	0,010	-0,028
-373,058	718,619	-0,012	0,022
-372,044	284,462	0,050	-0,065
-371,029	800,000	-0,050	-0,118
-370,015	-62,471	-0,127	-0,038
-369,000	-5,752	-0,064	-0,032
-367,985	353,491	0,052	-0,076
-366,971	66,957	-0,078	-0,058
-365,956	-120,222	0,046	0,006
-364,942	-143,649	0,142	-0,010
-363,927	595,344	-0,107	0,193
-362,912	45,340	0,034	0,023
-361,898	800,000	-0,066	-0,141
-360,883	-45,613	-0,138	-0,050
-359,869	-200,000	0,013	-0,116
-358,854	800,000	-0,002	0,005
-357,839	-200,000	0,007	0,081
-356,825	-52,969	-0,067	-0,022
-355,810	101,427	-0,122	0,104
-354,796	376,020	0,057	-0,085
-353,781	62,523	0,057	0,042
-352,766	247,827	0,055	-0,067
-351,752	158,089	-0,009	-0,009
-350,737	-42,567	0,091	0,034
-349,723	597,288	0,041	0,074
-348,708	800,000	0,072	0,153
-347,693	-200,000	-0,036	-0,139
-346,679	-101,987	0,068	0,012
-345,664	293,616	-0,035	0,046
-344,650	-67,600	0,029	-0,008
-343,635	107,554	0,028	0,025
-342,620	800,000	0,032	0,073
-341,606	21,125	-0,008	-0,005
-340,591	800,000	0,047	0,095
-339,577	115,298	-0,122	-0,108
-338,562	6,903	-0,139	-0,075
-337,548	-200,000	0,016	-0,099
-336,533	8,048	-0,021	0,011
-335,518	12,195	0,052	0,029
-334,504	47,395	0,066	-0,045
-333,489	800,000	-0,065	-0,141
-332,475	800,000	-0,047	-0,113
-331,460	-22,969	-0,041	-0,018
-330,445	-200,000	-0,007	-0,106
-329,431	144,388	-0,068	0,067
-328,416	360,217	-0,050	-0,073
-327,402	800,000	0,011	0,032
-326,387	-200,000	0,015	0,157
-325,372	4,648	0,069	-0,037
-324,358	227,640	0,052	-0,062
-323,343	300,716	-0,045	0,061
-322,329	-1,378	0,144	-0,074
-321,314	343,784	-0,043	-0,061
-320,299	-200,000	0,004	-0,053
-319,285	598,982	-0,012	-0,021
-318,270	800,000	-0,035	-0,073
-317,256	-25,449	-0,133	-0,057
-316,241	-91,727	-0,142	-0,029
-315,226	-200,000	0,012	-0,073
-314,212	116,686	-0,025	0,022
-313,197	62,215	-0,075	0,055
-312,183	62,107	0,148	-0,107
-311,168	800,000	0,014	-0,043
-310,153	-69,267	0,066	0,018
-309,139	-123,538	0,124	0,014
-308,124	44,127	-0,047	-0,032
-307,110	-108,843	0,152	0,023
-306,095	136,222	-0,061	0,058
-305,080	800,000	-0,038	0,079
-304,066	-200,000	-0,010	0,082
-303,051	-16,742	0,092	0,042
-302,037	77,176	0,011	-0,008
-301,022	800,000	0,023	-0,071
-300,008	139,550	0,029	-0,028
-298,993	-200,000	-0,003	0,116
-297,978	230,915	-0,026	0,031
-296,964	-48,951	0,039	-0,014
-295,949	800,000	-0,073	-0,185
-294,935	4,845	0,082	-0,044
-293,920	-160,930	0,063	-0,002
-292,905	-200,000	0,004	-0,077
-291,891	313,223	-0,038	0,052
-290,876	280,166	-0,018	-0,023
-289,862	32,654	-0,054	0,034
-288,847	55,452	-0,118	0,083
-287,832	-160,232	0,134	-0,005
-286,818	-200,000	-0,026	0,233
-285,803	17,412	0,039	0,023
-284,789	98,215	-0,004	0,003
-283,774	412,272	-0,044	-0,069
-282,759	-200,000	-0,005	-0,118
-281,745	-34,767	-0,024	-0,009
-280,730	128,964	-0,081	0,075
-279,716	-85,346	0,085	0,019
-278,701	-73,159	0,141	-0,037
-277,686	-49,339	-0,094	-0,032
-276,672	-71,385	0,010	0,003
-275,657	-161,391	0,094	0,003
-274,643	-61,579	-0,099	0,030
-273,628	-158,862	-0,050	-0,002
-272,613	-200,000	-0,006	0,078
-271,599	-113,448	0,145	-0,020
-270,584	195,794	0,183	0,202
-269,570	-59,196	0,140	0,044
-268,555	-115,004	-0,178	-0,024
-267,540	346,232	-0,113	-0,162
-266,526	-147,240	0,027	-0,002
-265,511	317,614	-0,094	0,129
-264,497	-166,388	0,087	-0,003
-263,482	-200,000	0,000	0,147
-262,467	-200,000	0,056	0,193
-261,453	487,231	-0,065	0,108
-260,438	458,301	-0,048	0,077
-259,424	-139,896	-0,219	-0,017
-258,409	-200,000	0,030	0,161
-257,395	-72,511	0,148	-0,039
-256,380	220,844	-0,053	0,062
-255,365	-200,000	-0,060	0,234
-254,351	-200,000	0,006	-0,111
-253,336	-187,829	-0,056	-0,001
-252,322	800,000	-0,066	-0,209
-251,307	83,254	0,063	0,049
-250,292	800,000	0,023	-0,064
-249,278	-200,000	0,049	0,198
-248,263	-34,819	-0,047	0,019
-247,249	663,272	0,036	-0,067
-246,234	800,000	-0,022	0,062
-245,219	-190,917	-0,128	-0,001
-244,205	-58,262	-0,026	-0,008
-243,190	-200,000	-0,039	0,139
-242,176	147,801	0,055	-0,054
-241,161	-200,000	0,013	0,098
-240,146	-200,000	-0,003	-0,020
-239,132	-200,000	0,017	-0,062
-238,117	-200,000	0,038	-0,207
-237,103	1,287	0,106	0,055
-236,088	-47,331	0,123	-0,043
-235,073	-146,261	0,075	-0,005
-234,059	-32,898	0,075	0,030
-233,044	520,182	-0,083	-0,143
-232,030	800,000	0,045	-0,116
-231,015	82,913	0,047	-0,037
-230,000	-194,780	-0,116	0,001
-228,986	800,000	-0,019	0,060
-227,971	800,000	0,028	0,059
-226,957	-162,044	0,066	-0,002
-225,942	-200,000	0,004	0,070
-224,927	800,000	0,012	-0,026
-223,913	800,000	-0,068	-0,153
-222,898	480,079	-0,070	-0,116
-221,884	-200,000	-0,002	-0,063
-220,869	45,411	-0,070	0,047
-219,855	211,393	-0,095	-0,109
-218,840	-154,813	0,077	-0,004
-217,825	-200,000	-0,017	-0,064
-216,811	-200,000	0,025	0,089
-215,796	6,171	-0,196	0,105
-214,782	800,000	0,023	-0,069
-213,767	-200,000	0,027	0,145
-212,752	1,121	-0,080	0,041
-211,738	260,880	0,047	-0,059
-210,723	330,402	-0,064	-0,089
-209,709	206,660	-0,130	-0,147
-208,694	-144,210	-0,117	0,008
-207,679	-200,000	0,006	-0,106
-206,665	181,651	0,039	0,041
-205,650	149,864	-0,148	-0,146
-204,636	-64,471	0,043	-0,013
-203,621	14,066	-0,105	0,059
-202,606	-200,000	0,036	-0,143
-201,592	-129,677	-0,192	-0,019
-200,577	800,000	0,012	-0,033
-199,563	-62,872	-0,038	-0,011
-198,548	-200,000	0,002	0,113
-197,533	32,597	0,153	0,096
-196,519	-60,807	0,102	-0,031
-195,504	282,310	-0,124	-0,161
-194,490	634,892	-0,019	0,034
-193,475	259,813	-0,067	0,084
-192,460	-200,000	-0,006	-0,073
-191,446	-109,104	0,113	0,017
-190,431	-200,000	-0,040	-0,133
-189,417	-51,381	0,147	0,049
-188,402	800,000	0,027	-0,084
-187,387	-200,000	-0,002	-0,200
-186,373	800,000	-0,034	0,071
-185,358	-36,381	0,126	-0,049
-184,344	124,799	-0,090	-0,082
-183,329	-200,000	0,010	0,061
-182,315	-200,000	-0,004	0,019
-181,300	227,971	0,118	-0,139
-180,285	-200,000	-0,035	-0,164
-179,271	-200,000	0,004	-0,071
-178,256	146,359	-0,028	-0,028
-177,242	-200,000	0,001	-0,006
-176,227	-200,000	0,005	0,045
-175,212	-200,000	0,013	0,150
-174,198	800,000	0,064	0,137
-173,183	138,427	-0,044	-0,041
-172,169	-200,000	0,041	-0,209
-171,154	800,000	-0,043	-0,090
-170,139	-59,224	0,132	0,041
-169,125	595,227	0,055	0,099
-168,110	665,387	-0,029	0,054
-167,096	233,459	-0,025	0,029
-166,081	24,328	-0,084	-0,050
-165,066	203,387	-0,012	0,014
-164,052	-200,000	-0,009	-0,127
-163,037	-138,048	0,111	0,009
-162,023	-88,327	0,124	0,027
-161,008	-200,000	-0,006	0,116
-159,993	-11,601	0,095	-0,045
-158,979	-200,000	-0,047	-0,156
-157,964	-200,000	0,009	-0,121
-156,950	212,721	0,067	0,077
-155,935	800,000	-0,006	-0,012
-154,920	199,608	-0,051	-0,056
-153,906	-41,876	-0,167	0,062
-152,891	285,334	-0,063	-0,082
-151,877	185,346	-0,123	0,132
-150,862	800,000	-0,009	-0,019
-149,847	800,000	0,011	-0,022
-148,833	-200,000	0,031	-0,170
-147,818	800,000	0,068	-0,156
-146,804	80,260	-0,051	-0,040
-145,789	-75,519	-0,015	0,004
-144,775	-114,504	-0,118	0,016
-143,760	-74,496	0,109	0,028
-142,745	-5,237	-0,211	0,104
-141,731	-132,211	0,098	-0,009
-140,716	164,538	0,048	0,049
-139,702	-62,940	0,020	0,006
-138,687	800,000	-0,083	0,211
-137,672	800,000	-0,080	0,186
-136,658	-200,000	-0,003	-0,081
-135,643	-118,018	-0,107	-0,014
-134,629	191,805	0,044	0,048
-133,614	174,870	0,058	0,060
-132,599	-123,799	0,230	0,026
-131,585	-200,000	0,017	0,074
-130,570	-148,847	-0,164	-0,009
-129,556	-139,275	-0,064	-0,005
-128,541	122,562	0,019	0,017
-127,526	391,170	0,038	-0,057
-126,512	627,097	0,034	-0,062
-125,497	-143,027	0,123	0,008
-124,483	800,000	0,048	-0,103
-123,468	-103,636	0,023	0,004
-122,453	-108,831	-0,010	-0,002
-121,439	-200,000	-0,020	0,143
-120,424	800,000	0,054	-0,172
-119,410	112,207	0,069	0,060
-118,395	-78,204	0,091	0,022
-117,380	-54,961	0,073	-0,024
-116,366	-200,000	-0,025	0,083
-115,351	491,668	0,072	-0,119
-114,337	-200,000	-0,001	-0,027
-113,322	82,266	-0,102	-0,080
-112,307	-140,008	0,065	-0,005
-111,293	800,000	0,034	0,083
-110,278	-107,567	0,099	-0,015
-109,264	341,565	-0,039	0,055
-108,249	800,000	-0,049	-0,137
-107,234	-92,689	0,030	-0,006
-106,220	-200,000	-0,032	-0,152
-105,205	384,326	0,057	0,085
-104,191	-200,000	-0,021	0,153
-103,176	265,526	-0,128	-0,161
-102,162	800,000	0,044	-0,131
-101,147	-77,471	0,095	-0,024
-100,132	-200,000	-0,029	-0,102
-99,118	414,660	0,079	0,121
-98,103	-200,000	-0,008	-0,103
-97,089	39,419	-0,042	0,027
-96,074	-116,157	0,159	-0,021
-95,059	-192,551	0,029	-0,000
-94,045	-200,000	-0,011	-0,105
-93,030	-200,000	0,019	-0,128
-92,016	-157,015	0,100	0,004
-91,001	-10,724	0,085	-0,040
-89,986	58,380	0,030	-0,021
-88,972	186,837	-0,113	0,121
-87,957	440,699	-0,068	-0,107
-86,943	142,734	0,119	-0,115
-85,928	-14,148	-0,077	-0,036
-84,913	134,203	-0,090	-0,084
-83,899	-65,104	-0,052	-0,015
-82,884	-200,000	-0,006	0,097
-81,870	-200,000	0,040	0,226
-80,855	800,000	-0,041	-0,092
-79,840	800,000	-0,040	-0,082
-78,826	-95,939	-0,082	0,016
-77,811	-200,000	-0,009	-0,196
-76,797	12,056	0,049	0,027
-75,782	800,000	0,023	0,057
-74,767	265,597	0,069	0,087
-73,753	-142,871	0,097	-0,007
-72,738	593,582	0,046	0,083
-71,724	-200,000	0,052	-0,214
-70,709	-200,000	-0,020	0,156
-69,694	-111,113	0,078	-0,011
-68,680	-200,000	-0,006	0,080
-67,665	800,000	0,033	0,087
-66,651	-200,000	-0,012	-0,043
-65,636	9,038	0,059	0,032
-64,622	68,601	-0,040	-0,029
-63,607	751,406	-0,091	-0,179
-62,592	136,248	0,108	0,101
-61,578	-200,000	-0,003	-0,061
-60,563	-200,000	-0,009	-0,039
-59,549	-145,106	-0,147	0,009
-58,534	59,393	-1,980	-1,404
-57,519	470,979	-1,264	-2,056
-56,505	-200,000	-0,256	-4,227
-55,490	800,000	0,835	1,741
-54,476	800,000	5,176	11,305
-53,461	-200,000	21,845	340,706
-52,446	800,000	756,022	2311,973
-51,432	515,411	1648,165	2783,556
-50,417	69,497	1575,037	1167,049
-49,403	20,727	1128,684	656,679
-48,388	12,457	833,432	461,608
-47,373	26,433	797,821	479,405
-46,359	18,255	783,295	449,154
-45,344	9,005	779,205	422,392
-44,330	8,895	777,518	421,170
-43,315	8,838	776,203	420,291
-42,300	8,787	775,060	419,521
-41,286	8,838	774,102	419,119
-40,271	8,789	773,222	418,499
-39,257	8,860	772,310	418,175
-38,242	8,917	771,372	417,800
-37,227	8,870	770,707	417,300
-36,213	8,838	769,765	416,689
-35,198	8,872	768,871	416,278
-34,184	9,022	768,301	416,342
-33,169	8,843	767,515	415,434
-32,154	8,937	766,880	415,320
-31,140	9,026	765,440	414,754
-30,125	8,972	764,873	414,290
-29,111	8,917	764,399	413,874
-28,096	8,941	764,064	413,739
-27,082	8,916	763,295	413,241
-26,067	8,862	762,710	412,768
-25,052	8,805	762,005	412,222
-24,038	8,816	761,412	411,915
-23,023	8,909	760,626	411,712
-22,009	8,915	760,285	411,527
-20,994	8,942	759,490	411,149
-19,979	9,055	758,608	410,948
-18,965	9,013	758,161	410,582
-17,950	8,978	757,988	410,382
-16,936	8,931	757,205	409,821
-15,921	8,901	756,634	409,418
-14,906	8,826	755,902	408,813
-13,892	8,865	755,549	408,706
-12,877	8,857	754,775	408,250
-11,863	8,785	754,603	407,955
-10,848	8,774	754,167	407,676
-9,833	8,860	753,751	407,655
-8,819	8,911	752,919	407,320
-7,804	8,938	752,284	407,028
-6,790	8,893	752,001	406,745
-5,775	8,875	751,664	406,499
-4,760	8,803	751,144	406,019
-3,746	8,806	750,732	405,789
-2,731	8,647	750,197	405,078
-1,717	8,606	749,788	404,737
-0,702	8,695	748,976	404,510
0,313	8,785	745,917	403,694
1,327	12,529	725,192	401,656
2,342	20,905	587,487	341,960
3,356	14,667	324,065	181,800
4,371	-15,303	217,499	99,731
5,386	-18,522	204,584	91,532
6,400	-18,825	200,792	89,618
7,415	-17,913	199,020	89,444
8,429	-18,671	197,767	88,357
9,444	-18,867	197,143	87,937
10,459	-18,610	196,647	87,882
11,473	-18,683	196,044	87,556
12,488	-18,475	195,878	87,614
13,502	-18,530	195,320	87,320
14,517	-18,532	195,065	87,197
15,531	-18,682	194,531	86,850
16,546	-18,515	194,244	86,825
17,561	-18,754	193,982	86,541
18,575	-18,429	193,683	86,617
19,590	-18,826	193,492	86,259
20,604	-18,542	193,293	86,351
21,619	-18,534	192,966	86,203
22,634	-18,458	192,515	86,044
23,648	-18,455	192,262	85,926
24,663	-18,723	192,370	85,789
25,677	-18,486	191,835	85,699
26,692	-18,534	191,982	85,725
27,707	-18,522	191,639	85,573
28,721	-18,680	191,400	85,354
29,736	-18,525	191,215	85,366
30,750	-18,605	191,014	85,216
31,765	-18,473	190,709	85,159
32,780	-18,699	190,703	85,001
33,794	-18,511	190,286	84,930
34,809	-18,743	190,243	84,752
35,823	-18,335	189,910	84,862
36,838	-18,682	189,828	84,592
37,853	-18,534	189,609	84,583
38,867	-18,569	189,316	84,422
39,882	-18,670	189,224	84,307
40,896	-18,470	188,981	84,321
41,911	-18,626	188,870	84,163
42,926	-18,260	188,529	84,241
43,940	-18,436	188,461	84,089
44,955	-18,588	188,216	83,874
45,969	-18,520	188,096	83,857
46,984	-18,482	187,947	83,807
47,999	-18,528	187,875	83,738
49,013	-18,271	187,621	83,783
50,028	-18,203	187,417	83,728
51,042	-18,337	187,316	83,590
52,057	-18,147	187,095	83,605
53,071	-18,189	186,926	83,496
54,086	-18,357	186,709	83,284
55,101	-18,483	186,545	83,122
56,115	-18,445	186,500	83,119
57,130	-18,447	186,184	82,970
58,144	-18,687	185,913	82,689
59,159	-18,371	185,754	82,812
60,174	-18,726	185,662	82,538
61,188	-18,648	185,509	82,512
62,203	-18,467	185,409	82,575
63,217	-18,260	185,109	82,565
64,232	-18,352	184,905	82,409
65,247	-18,551	184,797	82,227
66,261	-18,675	184,680	82,089
67,276	-18,788	184,543	81,949
68,290	-18,609	184,392	81,988
69,305	-18,231	184,080	82,081
70,320	-18,351	184,176	82,040
71,334	-18,340	183,858	81,899
72,349	-18,457	183,604	81,704
73,363	-18,474	183,443	81,615
74,378	-18,421	183,324	81,588
75,393	-18,504	183,108	81,432
76,407	-18,497	183,038	81,398
77,422	-18,575	182,954	81,304
78,436	-18,527	182,705	81,217
79,451	-18,659	182,375	80,981
80,466	-18,695	182,244	80,893
81,480	-18,343	182,072	81,028
82,495	-18,315	182,026	81,018
83,509	-18,386	181,921	80,920
84,524	-18,236	181,840	80,970
85,539	-18,320	181,588	80,799
86,553	-18,082	181,414	80,861
87,568	-18,354	181,236	80,607
88,582	-18,476	181,240	80,525
89,597	-18,334	180,885	80,449
90,611	-18,263	180,905	80,494
91,626	-18,278	180,771	80,418
92,641	-18,329	180,503	80,260
93,655	-18,450	180,363	80,116
94,670	-18,318	180,230	80,131
95,684	-18,438	180,036	79,964
96,699	-18,304	179,928	79,992
97,714	-18,331	179,833	79,925
98,728	-18,386	179,619	79,789
99,743	-18,116	179,587	79,933
100,757	-18,296	179,501	79,778
101,772	-18,219	179,143	79,659
102,787	-18,587	179,174	79,440
103,801	-18,388	179,003	79,478
104,816	-18,283	178,767	79,431
105,830	-18,549	178,685	79,225
106,845	-18,442	178,558	79,227
107,860	-18,527	178,440	79,116
108,874	-18,585	178,084	78,916
109,889	-18,501	178,010	78,927
110,903	-18,456	177,895	78,896
111,918	-18,509	177,736	78,786
112,933	-18,594	177,783	78,749
113,947	-18,472	177,470	78,677
114,962	-18,242	177,390	78,774
115,976	-18,440	177,151	78,541
116,991	-18,507	177,107	78,474
118,006	-18,267	176,944	78,540
119,020	-18,656	176,742	78,208
120,035	-18,343	176,629	78,340
121,049	-18,603	176,578	78,154
122,064	-18,175	176,355	78,305
123,079	-18,287	176,266	78,191
124,093	-18,519	176,141	77,990
125,108	-18,218	175,862	78,040
126,122	-18,279	175,921	78,022
127,137	-18,366	175,816	77,917
128,151	-18,091	175,510	77,939
129,166	-18,435	175,493	77,719
130,181	-18,088	175,192	77,786
131,195	-18,127	175,047	77,691
132,210	-18,295	174,773	77,462
133,224	-18,253	174,754	77,472
134,239	-18,482	174,637	77,277
135,254	-18,331	174,543	77,318
136,268	-18,440	174,301	77,139
137,283	-18,108	174,129	77,253
138,297	-18,092	174,078	77,233
139,312	-18,202	173,840	77,056
140,327	-18,591	173,690	76,752
141,341	-18,904	173,387	76,427
142,356	-19,331	173,439	76,191
143,370	-17,892	173,581	77,096
144,385	-10,424	175,357	82,330
145,400	-3,773	176,821	86,997
146,414	-2,612	177,006	87,776
147,429	-2,354	177,032	87,935
148,443	-2,070	176,845	88,004
149,458	-1,674	176,758	88,190
150,473	-1,731	176,839	88,188
151,487	-1,590	176,757	88,224
152,502	-1,799	176,693	88,059
153,516	-1,453	176,440	88,132
154,531	-1,177	176,128	88,132
155,546	-1,295	176,113	88,046
156,560	-1,431	176,047	87,925
157,575	-1,280	175,811	87,889
158,589	-1,410	175,807	87,801
159,604	-1,489	175,655	87,671
160,619	-1,368	175,533	87,674
161,633	-1,231	175,325	87,643
162,648	-1,158	175,182	87,607
163,662	-1,307	175,261	87,551
164,677	-0,951	175,009	87,627
165,692	-1,034	174,993	87,562
166,706	-1,158	174,793	87,382
167,721	-1,143	174,773	87,372
168,735	-1,079	174,501	87,267
169,750	-1,041	174,665	87,363
170,764	-1,201	174,537	87,197
171,779	-0,870	174,342	87,286
172,794	-0,615	174,098	87,306
173,808	-0,911	174,114	87,132
174,823	-1,032	173,981	86,987
175,837	-0,822	173,767	86,996
176,852	-0,902	173,801	86,958
177,867	-1,069	173,537	86,720
178,881	-0,922	173,484	86,772
179,896	-0,742	173,225	86,740
180,910	-0,927	173,204	86,614
181,925	-0,911	173,087	86,557
182,940	-1,164	172,925	86,321
183,954	-1,078	172,874	86,338
184,969	-0,963	172,742	86,331
185,983	-0,620	172,688	86,495
186,998	-0,867	172,484	86,243
188,013	-0,713	172,405	86,285
189,027	-0,675	172,287	86,240
190,042	-0,747	172,091	86,092
191,056	-0,827	172,043	86,014
192,071	-0,604	171,962	86,095
193,086	-1,039	171,965	85,837
194,100	-0,411	171,528	85,974
195,115	-0,872	171,534	85,703
196,129	-0,563	171,374	85,794
197,144	-0,615	171,211	85,674
198,159	-0,824	171,153	85,518
199,173	-0,671	170,897	85,470
200,188	-0,496	170,917	85,573
201,202	-0,423	170,826	85,562
202,217	-0,653	170,587	85,303
203,232	-0,616	170,556	85,300
204,246	-0,898	170,398	85,052
205,261	-0,613	170,231	85,124
206,275	-0,336	170,073	85,196
207,290	-0,633	170,115	85,040
208,304	-0,640	169,929	84,935
209,319	-0,781	169,803	84,784
210,334	-0,583	169,629	84,803
211,348	-0,740	169,568	84,675
212,363	-0,627	169,486	84,691
213,377	-0,561	169,266	84,611
214,392	-0,625	169,240	84,554
215,407	-0,485	169,107	84,560
216,421	-0,346	168,967	84,561
217,436	-0,733	168,874	84,288
218,450	-0,643	168,790	84,289
219,465	-0,583	168,641	84,241
220,480	-0,683	168,663	84,188
221,494	-0,272	168,299	84,231
222,509	-0,292	168,380	84,252
223,523	-0,589	168,217	83,996
224,538	-0,372	168,037	84,021
225,553	-0,648	168,002	83,841
226,567	-0,679	167,939	83,784
227,582	-0,198	167,655	83,905
228,596	-0,221	167,766	83,941
229,611	-0,835	167,689	83,549
230,626	-0,309	167,519	83,753
231,640	-0,478	167,273	83,528
232,655	-0,717	167,333	83,416
233,669	-0,371	166,995	83,433
234,684	-0,376	166,964	83,408
235,699	-0,196	166,943	83,490
236,713	-0,195	166,699	83,361
237,728	-0,085	166,661	83,397
238,742	-0,065	166,479	83,309
239,757	-0,006	166,308	83,249
240,772	-0,327	166,363	83,091
241,786	-0,217	166,272	83,099
242,801	-0,415	166,180	82,935
243,815	-0,171	165,954	82,950
244,830	-0,205	166,008	82,951
245,844	-0,176	165,860	82,886
246,859	-0,090	165,678	82,836
247,874	-0,235	165,543	82,680
248,888	-0,460	165,466	82,510
249,903	-0,148	165,368	82,626
250,917	-0,275	165,183	82,456
251,932	0,074	165,140	82,620
252,947	-0,151	165,012	82,425
253,961	-0,033	164,979	82,466
254,976	-0,226	164,933	82,329
255,990	-0,345	164,768	82,174
257,005	-0,389	164,645	82,081
258,020	-0,009	164,595	82,258
259,034	-0,134	164,421	82,095
260,049	-0,163	164,241	81,981
261,063	-0,100	164,124	81,951
262,078	0,063	163,868	81,905
263,093	-0,163	163,972	81,825
264,107	-0,110	163,798	81,760
265,122	-0,142	163,692	81,683
266,136	0,083	163,623	81,764
267,151	-0,155	163,432	81,531
268,166	-0,200	163,441	81,504
269,180	0,128	163,236	81,574
270,195	0,020	163,204	81,491
271,209	-0,070	163,121	81,394
272,224	0,022	162,889	81,320
273,239	0,207	162,879	81,409
274,253	-0,268	162,764	81,086
275,268	0,187	162,600	81,244
276,282	-0,069	162,541	81,068
277,297	0,146	162,399	81,106
278,312	0,221	162,278	81,080
279,326	0,098	162,282	81,008
280,341	0,230	161,981	80,922
281,355	0,084	162,111	80,901
282,370	0,114	161,909	80,808
283,384	0,152	161,794	80,765
284,399	0,045	161,632	80,619
285,414	0,127	161,606	80,643
286,428	0,088	161,513	80,568
287,443	0,230	161,300	80,531
288,457	0,413	161,144	80,544
289,472	0,209	161,211	80,461
290,487	0,027	160,931	80,217
291,501	0,504	160,723	80,361
292,516	0,051	160,883	80,191
293,530	0,240	160,680	80,184
294,545	0,162	160,560	80,075
295,560	-0,060	160,603	79,971
296,574	0,252	160,443	80,051
297,589	0,296	160,382	80,037
298,603	0,017	160,230	79,805
299,618	0,437	160,104	79,959
300,633	0,399	160,020	79,890
301,647	0,138	160,014	79,740
302,662	0,140	159,841	79,648
303,676	0,460	159,702	79,742
304,691	0,595	159,611	79,761
305,706	0,145	159,396	79,408
306,720	0,175	159,330	79,384
307,735	0,246	159,327	79,413
308,749	0,182	159,127	79,272
309,764	0,311	159,106	79,323
310,779	0,032	159,011	79,121
311,793	0,373	158,864	79,221
312,808	0,233	158,786	79,101
313,822	0,560	158,540	79,144
314,837	0,535	158,483	79,095
315,852	0,409	158,479	79,020
316,866	0,281	158,401	78,906
317,881	0,616	158,322	79,036
318,895	0,293	158,059	78,728
319,910	0,218	158,075	78,690
320,925	0,462	157,918	78,733
321,939	0,410	157,793	78,636
322,954	0,413	157,792	78,630
323,968	0,507	157,732	78,642
324,983	0,483	157,451	78,483
325,997	0,384	157,372	78,385
327,012	0,363	157,335	78,348
328,027	0,608	157,281	78,443
329,041	0,553	157,091	78,312
330,056	0,649	156,895	78,257
331,070	0,501	156,876	78,164
332,085	0,466	156,807	78,104
333,100	0,325	156,733	77,987
334,114	0,254	156,574	77,864
335,129	0,640	156,435	77,988
336,143	0,574	156,308	77,883
337,158	0,573	156,301	77,873
338,173	0,648	156,288	77,898
339,187	0,781	156,088	77,861
340,202	0,791	155,945	77,787
341,216	0,684	155,962	77,734
342,231	0,714	155,827	77,675
343,246	0,712	155,678	77,593
344,260	0,785	155,622	77,595
345,275	0,892	155,387	77,527
346,289	0,775	155,507	77,519
347,304	0,808	155,320	77,436
348,319	0,944	155,203	77,441
349,333	0,843	155,067	77,314
350,348	0,615	155,031	77,172
351,362	0,585	154,871	77,070
352,377	1,050	154,702	77,218
353,392	0,860	154,633	77,079
354,406	0,877	154,722	77,125
355,421	189,988	1324,313	1388,808
356,435	149,922	1467,269	1389,288
