DTS Sentinel unit serial number:	SN410029Multiplexer serial number:	ORYXHardware model number:	OX2-SRSoftware version number:	ORYX F/W v4,00 Oryx Data Collector v3.7.2.0data status	okinstallation	B3 Nyhavnadifferential loss correction	single-endedforward channel	channel 1reverse channel	N/Adate	2023/11/28time	11:07:31forward acquisition time	300,00reverse acquisition time	0,00gamma	499,1914k internal	0,3152k external	0,3152temperature offset calibration	1,0000default loss term (dB/km)	0,3820temperature slope calibration	1,0000multiplexer offset coefficient	1,0000multiplexer slope coefficient	1,0000fibre end	0,00T internal ref (°C)	9,42T ext. ref 1 (°C)	-7,29T ext. ref 2 (°C)	-7,52length (m)	temperature (°C)	Stokes	anti-Stokes-744,400	-200,000	-0,084	-0,274
-743,385	-200,000	0,081	0,375
-742,371	121,121	-0,249	-0,229
-741,356	-200,000	0,037	0,282
-740,342	350,205	-0,182	-0,266
-739,327	-200,000	-0,070	0,292
-738,312	223,649	-0,179	-0,213
-737,298	-200,000	0,055	0,268
-736,283	533,433	-0,122	-0,214
-735,269	-200,000	-0,001	0,314
-734,254	230,337	-0,171	-0,207
-733,239	6,296	-0,192	0,105
-732,225	367,072	-0,186	-0,278
-731,210	183,967	0,237	0,259
-730,196	-102,406	-0,100	0,017
-729,181	111,038	-0,050	0,044
-728,167	-89,559	0,071	-0,015
-727,152	-128,401	-0,194	-0,020
-726,137	729,259	-0,030	-0,060
-725,123	548,963	-0,079	-0,140
-724,108	722,612	-0,072	-0,142
-723,094	-140,749	-0,099	-0,007
-722,079	216,806	-0,112	-0,132
-721,064	-200,000	0,026	0,124
-720,050	-120,680	0,057	0,007
-719,035	148,785	-0,020	0,020
-718,021	445,535	-0,035	0,056
-717,006	21,653	-0,111	-0,066
-715,991	91,559	-0,164	-0,136
-714,977	-152,741	0,037	-0,002
-713,962	-65,765	-0,043	0,013
-712,948	174,235	0,046	-0,049
-711,933	-200,000	-0,005	0,139
-710,918	-84,253	-0,062	-0,014
-709,904	-200,000	-0,009	-0,036
-708,889	-13,097	0,078	0,037
-707,875	-3,865	-0,279	-0,142
-706,860	-59,232	0,052	0,017
-705,845	638,463	0,016	-0,030
-704,831	-35,156	0,041	-0,017
-703,816	156,318	-0,109	0,111
-702,802	413,814	0,059	-0,092
-701,787	800,000	-0,021	-0,055
-700,772	800,000	0,041	-0,117
-699,758	800,000	0,043	-0,107
-698,743	-73,422	0,089	-0,024
-697,729	-200,000	-0,004	-0,057
-696,714	152,076	-0,099	-0,100
-695,699	-43,912	0,065	-0,024
-694,685	287,954	-0,072	-0,097
-693,670	421,434	-0,093	-0,147
-692,656	800,000	0,062	-0,183
-691,641	-140,930	-0,083	-0,006
-690,627	267,786	0,058	0,075
-689,612	-200,000	-0,013	0,102
-688,597	172,558	-0,047	0,050
-687,583	143,024	-0,041	-0,041
-686,568	202,550	0,090	-0,103
-685,554	800,000	-0,090	-0,215
-684,539	26,658	-0,023	0,014
-683,524	314,271	0,098	0,137
-682,510	35,875	0,132	0,085
-681,495	-200,000	0,002	-0,056
-680,481	432,462	0,131	-0,210
-679,466	-27,664	-0,061	-0,026
-678,451	445,653	0,036	-0,059
-677,437	-180,905	0,056	0,001
-676,422	25,993	-0,024	-0,014
-675,408	1,888	-0,029	-0,015
-674,393	800,000	-0,064	-0,135
-673,378	-200,000	-0,038	0,149
-672,364	-43,224	-0,050	-0,018
-671,349	-200,000	0,005	-0,027
-670,335	-200,000	0,006	0,065
-669,320	-16,143	0,067	-0,031
-668,305	-181,218	-0,110	0,002
-667,291	-200,000	0,015	-0,062
-666,276	-35,126	0,026	0,011
-665,262	22,479	0,086	-0,052
-664,247	368,322	0,003	-0,004
-663,232	48,045	-0,110	0,076
-662,218	257,120	0,118	-0,150
-661,203	-25,579	0,173	-0,075
-660,189	-200,000	-0,033	0,111
-659,174	596,976	0,054	-0,099
-658,159	800,000	-0,081	-0,205
-657,145	-34,219	0,093	-0,038
-656,130	800,000	-0,033	0,078
-655,116	-29,651	-0,093	0,039
-654,101	-2,817	0,051	-0,026
-653,086	-21,847	-0,039	0,017
-652,072	800,000	-0,090	0,202
-651,057	-99,096	-0,013	-0,002
-650,043	32,160	0,055	0,035
-649,028	800,000	-0,042	-0,095
-648,014	800,000	-0,013	0,031
-646,999	800,000	-0,041	0,118
-645,984	28,371	0,082	0,051
-644,970	-73,526	-0,074	-0,020
-643,955	15,507	-0,050	-0,029
-642,941	330,989	-0,054	-0,076
-641,926	789,478	-0,021	0,042
-640,911	-200,000	0,010	-0,070
-639,897	-200,000	-0,047	0,170
-638,882	-15,464	-0,133	0,062
-637,868	109,196	0,045	0,039
-636,853	314,634	-0,050	-0,069
-635,838	800,000	-0,024	-0,062
-634,824	-92,500	-0,168	-0,035
-633,809	800,000	-0,041	0,090
-632,795	107,326	0,070	0,061
-631,780	-200,000	0,018	-0,074
-630,765	70,310	-0,100	0,076
-629,751	-100,053	-0,086	0,016
-628,736	-200,000	0,002	-0,010
-627,722	353,817	0,050	0,074
-626,707	-200,000	0,032	0,134
-625,692	-158,325	0,148	0,006
-624,678	98,333	0,149	0,126
-623,663	-192,959	-0,058	0,000
-622,649	-37,428	-0,141	-0,055
-621,634	14,059	-0,055	-0,031
-620,619	540,766	0,019	-0,034
-619,605	61,628	0,152	0,111
-618,590	800,000	0,040	-0,083
-617,576	-49,614	0,080	0,028
-616,561	27,471	-0,178	-0,110
-615,546	-4,199	0,122	-0,062
-614,532	533,868	0,057	-0,099
-613,517	71,204	-0,081	-0,061
-612,503	294,557	-0,097	-0,131
-611,488	53,871	0,012	0,009
-610,474	-172,646	-0,055	-0,001
-609,459	179,383	0,030	-0,033
-608,444	-54,097	0,046	0,015
-607,430	-130,618	0,125	0,012
-606,415	443,143	-0,074	-0,120
-605,401	-80,009	0,065	-0,016
-604,386	5,715	0,089	0,048
-603,371	15,147	0,128	0,074
-602,357	201,896	-0,021	-0,024
-601,342	-2,448	-0,076	-0,039
-600,328	30,430	-0,044	-0,028
-599,313	-35,894	-0,083	0,033
-598,298	17,635	-0,090	0,052
-597,284	-108,422	0,133	0,021
-596,269	114,807	0,059	-0,053
-595,255	-117,082	-0,098	-0,013
-594,240	-91,840	-0,157	-0,032
-593,225	-42,038	-0,069	0,026
-592,211	-200,000	-0,033	-0,127
-591,196	175,200	-0,123	0,131
-590,182	-35,364	0,103	0,041
-589,167	-85,916	0,120	0,027
-588,152	-17,264	0,047	0,022
-587,138	187,247	0,115	0,126
-586,123	800,000	0,030	-0,062
-585,109	210,355	-0,007	0,009
-584,094	34,269	0,117	0,075
-583,079	-173,550	0,027	0,001
-582,065	51,855	-0,057	0,039
-581,050	351,579	-0,016	-0,023
-580,036	-41,422	-0,035	-0,013
-579,021	-200,000	0,034	-0,110
-578,006	-200,000	0,006	0,135
-576,992	-100,099	-0,140	0,025
-575,977	230,609	0,040	-0,048
-574,963	140,969	0,072	0,070
-573,948	-200,000	0,014	0,061
-572,934	800,000	-0,013	-0,028
-571,919	161,341	0,059	0,060
-570,904	-14,437	-0,144	0,068
-569,890	-119,294	-0,041	0,005
-568,875	102,131	0,022	-0,018
-567,861	265,297	0,066	0,085
-566,846	-200,000	-0,019	0,102
-565,831	145,054	-0,056	0,055
-564,817	14,268	-0,163	-0,093
-563,802	-91,627	0,141	-0,029
-562,788	-200,000	-0,017	-0,169
-561,773	-200,000	0,005	-0,029
-560,758	-200,000	-0,016	0,151
-559,744	-200,000	0,001	0,120
-558,729	-200,000	-0,002	0,049
-557,715	-2,503	0,064	-0,033
-556,700	411,953	0,044	-0,069
-555,685	-112,366	-0,131	0,019
-554,671	-200,000	-0,023	0,117
-553,656	96,133	0,099	-0,083
-552,642	14,669	-0,016	0,009
-551,627	-200,000	-0,027	0,135
-550,612	9,074	-0,036	0,020
-549,598	592,901	0,012	-0,021
-548,583	-200,000	-0,015	-0,092
-547,569	497,320	-0,049	0,082
-546,554	-21,730	0,036	0,016
-545,539	3,734	0,138	-0,074
-544,525	533,228	-0,075	-0,130
-543,510	138,808	-0,054	0,052
-542,496	-200,000	-0,004	0,047
-541,481	566,037	-0,069	-0,124
-540,466	104,020	0,071	0,061
-539,452	180,339	0,045	0,048
-538,437	705,629	0,067	-0,130
-537,423	118,203	0,034	-0,031
-536,408	-200,000	0,016	-0,064
-535,393	-25,520	-0,087	-0,037
-534,379	287,977	-0,067	-0,089
-533,364	325,271	-0,056	0,079
-532,350	452,202	0,044	0,072
-531,335	266,106	0,037	0,047
-530,321	-114,488	0,028	0,004
-529,306	800,000	-0,033	-0,077
-528,291	-33,552	-0,085	-0,034
-527,277	44,778	-0,095	-0,064
-526,262	800,000	-0,024	-0,077
-525,248	15,316	0,116	-0,066
-524,233	-153,021	-0,027	0,001
-523,218	-87,550	0,176	0,039
-522,204	-200,000	0,002	-0,093
-521,189	305,903	-0,046	-0,063
-520,175	-200,000	-0,028	0,117
-519,160	-2,782	-0,054	-0,027
-518,145	-134,476	0,092	-0,008
-517,131	252,548	-0,048	0,060
-516,116	-200,000	0,014	0,078
-515,102	427,101	0,021	0,034
-514,087	-44,163	0,067	-0,024
-513,072	-95,628	-0,084	0,016
-512,058	-200,000	-0,010	-0,164
-511,043	338,613	0,036	0,052
-510,029	-174,983	0,029	0,001
-509,014	-22,468	-0,044	-0,019
-507,999	376,222	0,013	0,019
-506,985	-126,843	-0,125	0,013
-505,970	800,000	0,042	-0,092
-504,956	-200,000	-0,017	-0,063
-503,941	-200,000	-0,021	0,096
-502,926	53,506	0,076	0,053
-501,912	-16,401	0,040	0,019
-500,897	275,823	-0,071	0,092
-499,883	220,359	-0,039	-0,046
-498,868	-200,000	-0,002	-0,019
-497,853	279,036	0,108	-0,142
-496,839	-159,741	-0,061	-0,002
-495,824	286,042	-0,040	0,053
-494,810	-9,715	0,052	0,025
-493,795	94,459	0,106	0,088
-492,781	800,000	-0,028	0,064
-491,766	800,000	-0,001	0,002
-490,751	-200,000	-0,011	-0,087
-489,737	800,000	-0,059	-0,153
-488,722	-200,000	-0,017	-0,092
-487,708	-200,000	-0,008	-0,117
-486,693	273,940	0,051	0,066
-485,678	-92,324	-0,066	-0,014
-484,664	251,547	-0,072	-0,089
-483,649	294,396	-0,025	-0,034
-482,635	-105,707	0,031	0,005
-481,620	58,130	-0,066	0,047
-480,605	-118,942	-0,070	-0,009
-479,591	-109,916	0,178	0,027
-478,576	49,505	-0,097	0,066
-477,562	-56,231	0,132	-0,043
-476,547	-158,915	-0,099	-0,004
-475,532	-200,000	0,009	0,083
-474,518	-200,000	-0,007	-0,231
-473,503	36,232	-0,083	-0,053
-472,489	213,911	-0,013	0,015
-471,474	401,419	-0,098	0,151
-470,459	-117,903	0,142	-0,018
-469,445	-200,000	-0,035	-0,156
-468,430	-141,130	-0,140	-0,010
-467,416	35,687	-0,146	-0,093
-466,401	-74,278	-0,076	0,020
-465,386	118,606	0,123	0,111
-464,372	88,865	-0,081	0,066
-463,357	-151,789	-0,120	-0,006
-462,343	409,002	0,033	0,051
-461,328	-200,000	-0,005	0,092
-460,313	-200,000	0,041	-0,222
-459,299	-148,018	0,165	0,010
-458,284	43,471	0,073	0,048
-457,270	188,500	-0,048	0,053
-456,255	355,285	0,025	-0,036
-455,241	-200,000	-0,009	-0,131
-454,226	30,414	-0,132	0,082
-453,211	299,342	-0,034	0,046
-452,197	256,180	0,110	0,138
-451,182	800,000	-0,019	0,044
-450,168	-85,756	-0,044	-0,010
-449,153	123,557	-0,095	0,087
-448,138	800,000	0,012	-0,026
-447,124	-36,807	0,141	0,055
-446,109	70,346	-0,044	0,034
-445,095	-200,000	0,014	0,078
-444,080	-41,574	0,166	0,062
-443,065	277,578	0,068	-0,089
-442,051	10,412	0,140	-0,077
-441,036	84,327	0,070	0,056
-440,022	-200,000	-0,014	0,133
-439,007	-0,937	0,119	-0,062
-437,992	202,927	0,079	0,089
-436,978	-72,772	-0,102	-0,027
-435,963	45,642	0,116	0,078
-434,949	-43,077	-0,079	-0,029
-433,934	-41,779	-0,099	-0,037
-432,919	284,984	-0,077	-0,101
-431,905	-12,694	0,039	-0,019
-430,890	-59,501	-0,128	-0,040
-429,876	-200,000	0,004	0,107
-428,861	143,485	0,022	0,021
-427,846	-28,476	0,201	0,084
-426,832	248,461	-0,034	0,042
-425,817	-200,000	0,010	-0,139
-424,803	164,426	0,142	0,146
-423,788	-200,000	0,007	-0,045
-422,773	-200,000	-0,053	-0,214
-421,759	-150,512	-0,095	0,005
-420,744	800,000	0,057	-0,128
-419,730	-54,465	-0,100	0,033
-418,715	-200,000	-0,005	0,119
-417,701	800,000	-0,060	0,162
-416,686	-9,880	0,020	0,010
-415,671	800,000	0,040	0,113
-414,657	-13,952	-0,038	-0,018
-413,642	337,122	-0,052	0,073
-412,628	-200,000	0,015	-0,050
-411,613	26,753	-0,086	-0,052
-410,598	-200,000	-0,012	0,054
-409,584	-200,000	0,021	0,132
-408,569	571,230	0,062	0,110
-407,555	-123,982	0,188	0,021
-406,540	573,867	-0,029	0,052
-405,525	73,151	-0,153	0,117
-404,511	-200,000	-0,009	0,035
-403,496	90,525	0,052	0,043
-402,482	-200,000	0,037	0,170
-401,467	-200,000	0,012	0,127
-400,452	800,000	-0,012	-0,027
-399,438	8,157	-0,032	0,017
-398,423	-76,930	-0,110	0,028
-397,409	-200,000	0,021	-0,074
-396,394	800,000	-0,067	0,136
-395,379	205,003	-0,062	0,070
-394,365	28,048	0,084	-0,051
-393,350	-200,000	-0,018	0,116
-392,336	-200,000	0,031	0,099
-391,321	366,036	0,041	-0,061
-390,306	-103,489	-0,045	-0,008
-389,292	77,839	-0,064	0,050
-388,277	379,997	-0,094	-0,141
-387,263	-28,288	0,074	-0,031
-386,248	409,486	0,044	-0,068
-385,233	-200,000	0,013	0,118
-384,219	800,000	-0,024	-0,052
-383,204	44,945	-0,102	-0,068
-382,190	-34,068	-0,117	0,047
-381,175	-200,000	0,020	0,086
-380,160	-27,756	-0,106	0,045
-379,146	-123,795	0,022	-0,003
-378,131	71,277	-0,062	0,047
-377,117	800,000	-0,034	-0,080
-376,102	150,833	-0,037	-0,036
-375,088	98,812	-0,099	-0,084
-374,073	356,312	-0,070	-0,102
-373,058	60,833	-0,083	-0,060
-372,044	-200,000	0,041	-0,145
-371,029	-47,824	0,068	0,024
-370,015	-200,000	-0,008	-0,066
-369,000	-141,500	0,025	-0,002
-367,985	-137,894	-0,115	0,009
-366,971	800,000	0,036	-0,102
-365,956	28,954	0,134	0,083
-364,942	-200,000	0,017	-0,123
-363,927	75,345	-0,020	-0,015
-362,912	800,000	-0,029	0,059
-361,898	800,000	0,031	0,065
-360,883	531,635	-0,033	0,057
-359,869	800,000	0,033	-0,097
-358,854	-200,000	0,023	-0,121
-357,839	-200,000	-0,011	0,088
-356,825	-170,419	0,240	0,006
-355,810	22,922	-0,052	0,031
-354,796	22,259	-0,131	-0,078
-353,781	-200,000	0,007	-0,038
-352,766	800,000	0,006	-0,019
-351,752	-85,193	0,086	0,019
-350,737	360,711	-0,076	0,111
-349,723	90,710	0,133	-0,108
-348,708	503,340	-0,019	-0,032
-347,693	-53,504	0,093	-0,031
-346,679	549,951	-0,037	0,064
-345,664	393,889	0,056	-0,085
-344,650	121,749	-0,110	0,099
-343,635	-91,478	0,086	-0,018
-342,620	124,775	0,144	0,132
-341,606	166,389	-0,016	0,017
-340,591	-59,420	0,059	0,018
-339,577	217,725	-0,086	-0,100
-338,562	-18,946	-0,033	0,015
-337,548	-17,802	-0,066	-0,030
-336,533	115,418	0,097	0,086
-335,518	-66,871	-0,126	-0,036
-334,504	-91,771	0,108	0,022
-333,489	57,391	-0,081	-0,058
-332,475	458,154	-0,028	0,045
-331,460	-200,000	0,028	-0,130
-330,445	612,954	-0,021	-0,039
-329,431	-156,736	0,102	0,004
-328,416	-25,579	0,174	-0,074
-327,402	-126,336	0,021	0,002
-326,387	-200,000	0,002	0,159
-325,372	-91,219	0,087	-0,018
-324,358	402,470	0,064	-0,098
-323,343	800,000	-0,029	0,071
-322,329	-0,066	0,233	0,120
-321,314	1,504	0,067	-0,035
-320,299	16,004	-0,073	0,041
-319,285	-200,000	0,010	0,147
-318,270	686,655	0,055	0,104
-317,256	-113,174	-0,066	0,009
-316,241	-28,906	0,159	0,066
-315,226	800,000	0,055	-0,140
-314,212	383,822	-0,025	0,038
-313,197	594,521	-0,012	-0,022
-312,183	-200,000	0,023	-0,080
-311,168	70,283	-0,060	-0,045
-310,153	464,491	-0,082	-0,133
-309,139	207,414	0,116	0,131
-308,124	-62,968	-0,116	-0,035
-307,110	22,612	0,072	0,043
-306,095	-200,000	0,030	0,113
-305,080	11,631	0,103	0,057
-304,066	-181,751	-0,115	-0,002
-303,051	-200,000	-0,011	0,046
-302,037	-200,000	0,024	0,087
-301,022	24,657	0,099	0,059
-300,008	-150,570	0,110	-0,006
-298,993	520,350	-0,094	0,160
-297,978	-200,000	0,006	-0,025
-296,964	28,887	-0,043	-0,026
-295,949	-134,823	-0,109	0,009
-294,935	335,577	-0,072	-0,101
-293,920	-200,000	-0,013	-0,064
-292,905	800,000	-0,055	0,131
-291,891	135,972	0,074	-0,070
-290,876	-200,000	-0,010	-0,108
-289,862	-116,815	0,077	0,010
-288,847	74,771	-0,171	-0,130
-287,832	-122,501	-0,138	0,016
-286,818	402,334	-0,050	-0,077
-285,803	-200,000	-0,004	0,054
-284,789	-61,671	0,173	0,052
-283,774	234,345	0,074	-0,088
-282,759	122,359	-0,097	0,088
-281,745	281,852	-0,072	-0,094
-280,730	199,099	-0,119	0,133
-279,716	-28,454	0,113	0,047
-278,701	-108,306	-0,069	-0,011
-277,686	165,680	0,076	-0,078
-276,672	626,046	-0,039	0,071
-275,657	-96,445	0,033	0,006
-274,643	528,969	-0,012	0,021
-273,628	522,318	0,090	-0,154
-272,613	800,000	0,045	0,127
-271,599	800,000	0,022	0,056
-270,584	511,374	0,042	0,070
-269,570	121,714	0,042	0,038
-268,555	-200,000	-0,022	-0,077
-267,540	-200,000	0,030	-0,103
-266,526	-134,196	0,091	0,008
-265,511	-137,443	0,205	-0,017
-264,497	800,000	-0,005	0,014
-263,482	-200,000	-0,023	0,125
-262,467	150,187	0,052	-0,051
-261,453	-156,721	-0,097	0,004
-260,438	-49,774	0,088	0,030
-259,424	-15,682	0,068	-0,031
-258,409	261,389	-0,109	-0,136
-257,395	800,000	-0,028	-0,078
-256,380	128,124	0,063	0,058
-255,365	-12,873	0,099	0,046
-254,351	204,202	0,091	0,102
-253,336	-88,976	0,108	-0,023
-252,322	150,970	-0,048	-0,047
-251,307	-200,000	0,022	-0,110
-250,292	-200,000	-0,035	0,119
-249,278	199,659	0,110	0,122
-248,263	-47,657	0,146	-0,051
-247,249	-200,000	-0,015	-0,050
-246,234	187,475	-0,068	-0,074
-245,219	-200,000	-0,016	-0,231
-244,205	24,296	0,051	0,031
-243,190	-200,000	0,002	0,037
-242,176	-104,158	0,068	-0,011
-241,161	-116,026	0,090	0,012
-240,146	25,054	0,121	0,073
-239,132	600,513	-0,025	-0,046
-238,117	-200,000	0,066	-0,264
-237,103	800,000	-0,061	-0,154
-236,088	-200,000	-0,001	0,122
-235,073	-200,000	0,004	0,021
-234,059	-22,745	-0,109	-0,048
-233,044	-55,784	0,142	0,046
-232,030	-88,459	-0,155	0,033
-231,015	-200,000	-0,005	-0,017
-230,000	479,723	-0,052	-0,085
-228,986	-200,000	-0,014	-0,047
-227,971	-100,907	0,130	0,023
-226,957	800,000	-0,050	0,125
-225,942	-200,000	0,004	-0,078
-224,927	-155,005	-0,103	0,005
-223,913	-77,634	0,081	-0,020
-222,898	421,279	-0,083	-0,128
-221,884	-54,689	-0,147	0,048
-220,869	694,897	-0,052	0,099
-219,855	554,850	0,032	0,055
-218,840	540,371	0,038	-0,065
-217,825	196,810	-0,048	-0,053
-216,811	-30,487	-0,124	-0,051
-215,796	5,977	-0,082	0,044
-214,782	-125,244	-0,103	0,011
-213,767	256,556	0,033	-0,041
-212,752	265,126	-0,038	-0,048
-211,738	182,759	0,146	0,156
-210,723	74,411	0,049	-0,037
-209,709	800,000	-0,055	-0,119
-208,694	800,000	-0,037	-0,092
-207,679	240,676	-0,132	-0,160
-206,665	-146,555	-0,041	-0,003
-205,650	-68,519	-0,037	0,010
-204,636	-200,000	0,001	0,048
-203,621	251,360	0,074	-0,091
-202,606	-13,819	0,115	-0,054
-201,592	-17,305	-0,101	0,046
-200,577	94,807	0,033	-0,027
-199,563	-200,000	-0,013	-0,072
-198,548	255,444	0,015	-0,019
-197,533	-18,889	0,027	-0,012
-196,519	-147,483	-0,040	0,002
-195,504	-136,985	0,088	-0,007
-194,490	-60,154	0,013	-0,004
-193,475	190,150	0,010	0,011
-192,460	612,906	-0,090	0,163
-191,446	340,427	0,041	0,058
-190,431	-200,000	0,002	-0,079
-189,417	-139,587	0,107	-0,008
-188,402	-200,000	0,027	-0,114
-187,387	-200,000	0,004	-0,102
-186,373	47,162	0,072	-0,049
-185,358	-111,415	-0,068	0,010
-184,344	116,702	0,078	-0,069
-183,329	-134,420	0,044	0,004
-182,315	92,457	-0,102	0,083
-181,300	236,609	-0,063	0,076
-180,285	-200,000	0,026	0,111
-179,271	664,137	0,042	-0,079
-178,256	-200,000	0,007	-0,068
-177,242	-48,246	0,063	0,022
-176,227	54,053	-0,039	0,027
-175,212	-97,866	0,086	-0,016
-174,198	-104,999	-0,075	-0,012
-173,183	-98,181	-0,200	-0,037
-172,169	800,000	0,027	-0,055
-171,154	-200,000	-0,027	0,155
-170,139	-200,000	0,028	0,184
-169,125	-200,000	0,021	0,164
-168,110	-116,503	-0,123	-0,016
-167,096	-5,692	-0,061	-0,030
-166,081	19,781	-0,144	-0,083
-165,066	800,000	0,030	-0,063
-164,052	-140,822	0,208	0,015
-163,037	-29,194	-0,103	0,042
-162,023	73,261	-0,074	-0,056
-161,008	384,374	-0,037	0,055
-159,993	-154,165	-0,012	-0,001
-158,979	70,572	-0,061	-0,045
-157,964	-200,000	-0,003	-0,013
-156,950	-200,000	-0,008	0,062
-155,935	-200,000	0,030	-0,130
-154,920	-200,000	0,007	-0,162
-153,906	-200,000	0,011	-0,104
-152,891	-143,681	0,076	-0,005
-151,877	2,863	-0,053	0,028
-150,862	-200,000	0,006	-0,056
-149,847	800,000	0,017	0,042
-148,833	107,088	0,068	-0,059
-147,818	-101,696	0,065	0,011
-146,804	4,244	-0,091	0,048
-145,789	568,338	0,019	0,034
-144,775	-200,000	-0,006	0,027
-143,760	6,120	-0,098	0,052
-142,745	334,074	0,081	0,113
-141,731	-36,916	0,053	-0,021
-140,716	-26,878	-0,013	-0,006
-139,702	-56,024	0,137	-0,044
-138,687	-200,000	0,002	0,020
-137,672	730,281	-0,060	-0,116
-136,658	-200,000	-0,005	-0,128
-135,643	-200,000	-0,016	-0,099
-134,629	202,982	0,061	-0,068
-133,614	-6,117	0,048	0,024
-132,599	-156,908	0,066	0,003
-131,585	69,800	0,061	-0,046
-130,570	-200,000	0,004	-0,047
-129,556	-200,000	-0,017	-0,090
-128,541	597,821	-0,121	-0,218
-127,526	800,000	0,042	0,092
-126,512	-200,000	0,028	0,115
-125,497	-186,908	0,083	0,001
-124,483	365,210	0,104	0,151
-123,468	-200,000	0,033	-0,178
-122,453	-90,958	-0,097	-0,020
-121,439	52,326	0,105	-0,072
-120,424	-102,132	0,027	0,005
-119,410	-126,641	-0,035	0,004
-118,395	-55,870	0,065	-0,021
-117,380	800,000	0,029	0,060
-116,366	50,001	0,059	0,040
-115,351	800,000	0,049	-0,111
-114,337	82,774	-0,063	-0,049
-113,322	-87,972	0,044	-0,009
-112,307	730,840	0,051	0,099
-111,293	208,643	0,146	0,164
-110,278	-139,047	0,044	-0,003
-109,264	33,727	-0,103	-0,064
-108,249	-21,648	-0,090	-0,039
-107,234	-99,131	0,113	-0,020
-106,220	-59,438	0,096	-0,030
-105,205	-45,241	0,055	-0,020
-104,191	22,091	0,059	0,034
-103,176	-38,497	-0,131	0,050
-102,162	800,000	0,033	0,090
-101,147	219,985	-0,053	-0,061
-100,132	-200,000	0,011	-0,076
-99,118	-54,749	-0,031	-0,010
-98,103	-200,000	-0,007	-0,100
-97,089	312,932	0,107	-0,145
-96,074	274,430	0,061	0,078
-95,059	-200,000	0,005	0,150
-94,045	-200,000	-0,019	0,088
-93,030	-0,619	-0,090	-0,046
-92,016	-200,000	-0,007	-0,070
-91,001	-200,000	0,040	-0,161
-89,986	-61,052	0,074	-0,022
-88,972	-86,032	0,038	-0,008
-87,957	287,296	0,105	0,137
-86,943	800,000	0,030	-0,077
-85,928	-200,000	0,020	-0,143
-84,913	-67,275	0,011	-0,003
-83,899	-50,080	-0,093	-0,032
-82,884	-96,189	0,221	-0,042
-81,870	800,000	-0,025	-0,052
-80,855	81,310	-0,137	0,106
-79,840	-200,000	0,040	0,165
-78,826	800,000	-0,042	-0,132
-77,811	-200,000	-0,011	-0,051
-76,797	-129,459	-0,099	0,010
-75,782	-14,469	0,114	-0,053
-74,767	-200,000	0,007	0,139
-73,753	-200,000	0,004	0,082
-72,738	800,000	-0,011	-0,033
-71,724	161,915	-0,113	-0,114
-70,709	8,541	-0,092	0,050
-69,694	-116,120	0,194	0,026
-68,680	-106,279	-0,112	-0,018
-67,665	230,141	0,038	0,045
-66,651	-200,000	0,002	-0,035
-65,636	-200,000	-0,020	0,150
-64,622	800,000	-0,023	-0,063
-63,607	-200,000	-0,016	-0,071
-62,592	64,104	-0,050	0,036
-61,578	800,000	-0,020	-0,058
-60,563	-78,540	0,055	-0,013
-59,549	-117,240	0,118	0,015
-58,534	53,022	-2,106	-1,447
-57,519	437,242	-1,331	-2,093
-56,505	-200,000	-0,267	-4,193
-55,490	800,000	0,698	1,504
-54,476	800,000	5,165	11,564
-53,461	-200,000	21,563	343,091
-52,446	800,000	761,543	2346,948
-51,432	525,369	1659,816	2819,069
-50,417	72,226	1576,961	1179,332
-49,403	22,404	1094,403	641,450
-48,388	13,368	773,747	429,964
-47,373	27,510	734,365	442,915
-46,359	19,572	719,805	415,003
-45,344	9,596	715,486	388,408
-44,330	9,366	714,013	387,038
-43,315	9,322	712,680	386,194
-42,300	9,315	711,493	385,517
-41,286	9,304	710,741	385,069
-40,271	9,208	710,111	384,481
-39,257	9,276	709,011	384,033
-38,242	9,388	708,270	383,885
-37,227	9,351	707,520	383,374
-36,213	9,334	706,618	382,830
-35,198	9,444	705,714	382,588
-34,184	9,606	705,123	382,639
-33,169	9,406	704,547	381,835
-32,154	9,533	703,722	381,676
-31,140	9,536	702,679	381,100
-30,125	9,653	701,885	380,934
-29,111	9,524	701,413	380,357
-28,096	9,515	701,449	380,339
-27,082	9,336	701,076	379,696
-26,067	9,435	700,136	379,408
-25,052	9,273	699,623	378,731
-24,038	9,328	699,077	378,550
-23,023	9,342	698,393	378,199
-22,009	9,482	697,901	378,247
-20,994	9,425	696,999	377,610
-19,979	9,463	696,449	377,386
-18,965	9,448	696,171	377,185
-17,950	9,499	695,613	376,988
-16,936	9,456	694,996	376,536
-15,921	9,485	694,639	376,396
-14,906	9,430	693,759	375,776
-13,892	9,401	693,355	375,473
-12,877	9,402	692,795	375,158
-11,863	9,377	692,506	374,928
-10,848	9,272	692,220	374,512
-9,833	9,326	692,008	374,508
-8,819	9,382	691,135	374,153
-7,804	9,533	690,242	374,007
-6,790	9,387	689,851	373,439
-5,775	9,337	689,865	373,317
-4,760	9,323	689,220	372,921
-3,746	9,301	689,066	372,771
-2,731	9,086	688,640	372,022
-1,717	9,170	688,120	371,925
-0,702	9,137	687,702	371,605
0,313	9,392	683,765	370,629
1,327	13,743	657,234	365,889
2,342	22,893	527,726	309,995
3,356	16,639	291,814	165,277
4,371	-14,861	196,180	90,050
5,386	-18,291	184,612	82,557
6,400	-18,129	181,128	81,092
7,415	-17,380	179,580	80,854
8,429	-18,539	178,565	79,679
9,444	-18,397	177,783	79,410
10,459	-18,195	177,544	79,419
11,473	-18,353	177,152	79,141
12,488	-18,119	176,768	79,104
13,502	-18,082	176,252	78,888
14,517	-18,128	175,932	78,711
15,531	-18,294	175,431	78,379
16,546	-18,349	175,442	78,344
17,561	-18,252	175,113	78,248
18,575	-18,200	174,947	78,199
19,590	-18,204	174,721	78,088
20,604	-18,232	174,459	77,947
21,619	-18,145	174,107	77,835
22,634	-18,398	173,890	77,580
23,648	-18,121	173,680	77,645
24,663	-18,394	173,601	77,440
25,677	-18,350	173,297	77,324
26,692	-18,088	173,097	77,383
27,707	-18,171	172,938	77,256
28,721	-18,265	172,791	77,127
29,736	-18,129	172,464	77,055
30,750	-18,104	172,252	76,968
31,765	-18,208	172,113	76,838
32,780	-18,472	172,080	76,660
33,794	-18,139	171,813	76,731
34,809	-18,120	171,519	76,604
35,823	-18,136	171,464	76,563
36,838	-18,196	171,296	76,446
37,853	-17,927	170,988	76,460
38,867	-17,957	170,867	76,381
39,882	-17,953	170,806	76,349
40,896	-18,015	170,543	76,189
41,911	-18,311	170,441	75,963
42,926	-18,081	170,198	75,983
43,940	-18,307	170,093	75,797
44,955	-17,876	169,759	75,892
45,969	-18,167	169,926	75,790
46,984	-17,946	169,617	75,775
47,999	-17,951	169,665	75,786
49,013	-17,980	169,394	75,642
50,028	-17,721	169,133	75,669
51,042	-17,931	169,128	75,538
52,057	-17,882	168,966	75,487
53,071	-17,843	168,757	75,410
54,086	-18,104	168,665	75,211
55,101	-17,914	168,345	75,171
56,115	-17,997	168,234	75,067
57,130	-17,983	168,090	75,004
58,144	-18,207	167,969	74,815
59,159	-17,912	167,603	74,814
60,174	-18,269	167,602	74,602
61,188	-18,417	167,518	74,473
62,203	-18,082	167,311	74,567
63,217	-18,343	167,270	74,392
64,232	-18,187	167,028	74,367
65,247	-18,283	166,913	74,255
66,261	-18,390	166,667	74,077
67,276	-18,014	166,634	74,271
68,290	-17,837	166,373	74,248
69,305	-18,072	166,379	74,111
70,320	-18,276	166,238	73,925
71,334	-18,145	166,064	73,915
72,349	-18,179	165,854	73,796
73,363	-18,344	165,631	73,597
74,378	-18,114	165,362	73,601
75,393	-18,062	165,249	73,574
76,407	-18,238	165,226	73,457
77,422	-18,283	165,248	73,435
78,436	-18,251	164,914	73,298
79,451	-18,180	164,684	73,230
80,466	-18,111	164,628	73,237
81,480	-18,219	164,401	73,068
82,495	-18,223	164,369	73,046
83,509	-18,051	164,292	73,101
84,524	-17,656	164,178	73,265
85,539	-17,990	163,995	72,990
86,553	-17,822	163,838	73,008
87,568	-18,483	163,836	72,631
88,582	-17,832	163,479	72,829
89,597	-17,908	163,400	72,745
90,611	-18,112	163,383	72,617
91,626	-18,065	163,115	72,518
92,641	-18,086	163,036	72,465
93,655	-18,132	162,940	72,390
94,670	-18,017	162,756	72,366
95,684	-18,118	162,628	72,246
96,699	-17,977	162,412	72,221
97,714	-17,679	162,281	72,322
98,728	-17,929	162,207	72,144
99,743	-17,779	162,111	72,178
100,757	-18,005	162,101	72,043
101,772	-17,973	161,922	71,974
102,787	-18,145	161,588	71,725
103,801	-18,050	161,520	71,740
104,816	-18,021	161,494	71,738
105,830	-18,073	161,285	71,611
106,845	-18,013	161,140	71,573
107,860	-18,216	161,056	71,418
108,874	-18,238	160,854	71,309
109,889	-18,241	160,735	71,249
110,903	-18,047	160,508	71,248
111,918	-18,161	160,454	71,155
112,933	-18,153	160,405	71,132
113,947	-18,016	160,230	71,122
114,962	-17,947	160,127	71,108
115,976	-17,945	159,904	71,004
116,991	-18,295	159,783	70,753
118,006	-18,186	159,650	70,748
119,020	-17,980	159,635	70,846
120,035	-18,146	159,640	70,752
121,049	-17,937	159,460	70,780
122,064	-17,851	159,207	70,707
123,079	-17,858	159,158	70,675
124,093	-17,896	159,013	70,584
125,108	-17,716	158,798	70,580
126,122	-17,889	158,682	70,429
127,137	-17,754	158,664	70,487
128,151	-17,886	158,459	70,318
129,166	-17,888	158,480	70,320
130,181	-18,133	158,353	70,126
131,195	-18,087	158,024	69,999
132,210	-17,722	157,842	70,108
133,224	-18,116	157,880	69,907
134,239	-17,977	157,654	69,875
135,254	-18,008	157,521	69,793
136,268	-17,787	157,403	69,853
137,283	-17,802	157,361	69,820
138,297	-17,941	157,261	69,695
139,312	-17,961	157,067	69,592
140,327	-18,414	156,807	69,230
141,341	-18,573	156,620	69,057
142,356	-18,980	156,380	68,728
143,370	-17,721	156,602	69,489
144,385	-10,477	158,230	74,093
145,400	-3,657	159,702	78,460
146,414	-2,179	159,748	79,272
147,429	-1,689	159,791	79,550
148,443	-1,750	159,749	79,489
149,458	-1,391	159,766	79,685
150,473	-1,411	159,671	79,619
151,487	-1,357	159,568	79,590
152,502	-1,130	159,359	79,600
153,516	-0,973	159,162	79,579
154,531	-0,915	159,054	79,549
155,546	-1,200	159,004	79,364
156,560	-0,928	158,860	79,431
157,575	-0,911	158,868	79,437
158,589	-1,168	158,655	79,186
159,604	-1,183	158,500	79,093
160,619	-1,222	158,500	79,065
161,633	-0,983	158,306	79,089
162,648	-0,975	158,231	79,049
163,662	-1,032	158,243	79,017
164,677	-0,864	158,157	79,057
165,692	-0,906	158,050	78,974
166,706	-0,698	158,023	79,064
167,721	-0,794	157,896	78,943
168,735	-0,964	157,745	78,770
169,750	-1,028	157,602	78,657
170,764	-0,467	157,515	78,904
171,779	-0,442	157,324	78,815
172,794	-0,774	157,253	78,596
173,808	-0,851	157,150	78,498
174,823	-0,675	156,940	78,478
175,837	-0,901	157,066	78,415
176,852	-1,053	156,867	78,228
177,867	-0,827	156,811	78,313
178,881	-0,428	156,681	78,450
179,896	-0,617	156,454	78,231
180,910	-0,760	156,310	78,077
181,925	-0,766	156,363	78,093
182,940	-0,857	156,096	77,905
183,954	-0,758	156,106	77,955
184,969	-0,580	155,940	77,959
185,983	-0,841	155,926	77,808
186,998	-0,534	155,675	77,836
188,013	-0,535	155,707	77,845
189,027	-0,679	155,590	77,704
190,042	-0,647	155,337	77,588
191,056	-0,608	155,292	77,579
192,071	-0,377	155,138	77,615
193,086	-0,719	155,116	77,419
194,100	-0,452	154,900	77,443
195,115	-0,640	154,891	77,334
196,129	-0,426	154,690	77,338
197,144	-0,574	154,432	77,125
198,159	-0,413	154,471	77,221
199,173	-0,401	154,269	77,120
200,188	-0,420	154,317	77,127
201,202	-0,265	154,137	77,110
202,217	-0,250	154,133	77,108
203,232	-0,372	153,921	76,933
204,246	-0,564	153,888	76,810
205,261	-0,484	153,583	76,692
206,275	-0,198	153,491	76,787
207,290	-0,450	153,546	76,678
208,304	-0,343	153,452	76,679
209,319	-0,285	153,216	76,585
210,334	-0,768	153,227	76,335
211,348	-0,377	152,906	76,369
212,363	-0,221	152,986	76,482
213,377	-0,594	152,994	76,288
214,392	-0,061	152,843	76,479
215,407	-0,297	152,643	76,251
216,421	-0,256	152,659	76,273
217,436	-0,342	152,480	76,133
218,450	-0,382	152,497	76,114
219,465	-0,298	152,333	76,068
220,480	-0,080	152,082	76,047
221,494	-0,055	152,008	76,016
222,509	-0,261	151,986	75,894
223,523	-0,328	151,870	75,795
224,538	-0,324	151,664	75,687
225,553	-0,363	151,665	75,661
226,567	0,000	151,480	75,746
227,582	-0,219	151,443	75,610
228,596	-0,041	151,403	75,673
229,611	-0,230	151,148	75,443
230,626	-0,124	151,177	75,505
231,640	-0,400	150,968	75,254
232,655	-0,429	150,934	75,216
233,669	-0,065	150,774	75,313
234,684	-0,191	150,724	75,218
235,699	-0,049	150,673	75,257
236,713	-0,283	150,604	75,099
237,728	-0,054	150,543	75,176
238,742	0,094	150,272	75,109
239,757	0,025	150,256	75,060
240,772	-0,059	150,085	74,925
241,786	-0,037	150,040	74,907
242,801	0,126	149,970	74,947
243,815	0,065	149,851	74,850
244,830	0,086	149,777	74,818
245,844	-0,039	149,681	74,700
246,859	-0,259	149,645	74,566
247,874	0,091	149,397	74,610
248,888	0,107	149,321	74,573
249,903	-0,071	149,259	74,447
250,917	0,167	149,227	74,543
251,932	-0,061	149,073	74,346
252,947	-0,060	149,016	74,312
253,961	0,413	148,914	74,489
254,976	0,137	148,734	74,255
255,990	0,034	148,585	74,124
257,005	-0,005	148,691	74,150
258,020	0,087	148,438	74,063
259,034	0,336	148,336	74,129
260,049	0,097	148,293	73,983
261,063	0,203	148,220	73,992
262,078	0,169	147,965	73,841
263,093	0,345	148,006	73,942
264,107	0,234	147,850	73,803
265,122	0,378	147,717	73,801
266,136	0,683	147,474	73,823
267,151	0,047	147,537	73,535
268,166	0,410	147,367	73,622
269,180	0,282	147,323	73,530
270,195	0,208	147,270	73,461
271,209	0,459	147,193	73,539
272,224	0,265	147,123	73,402
273,239	0,210	147,055	73,335
274,253	0,106	146,958	73,229
275,268	0,364	146,683	73,212
276,282	0,179	146,642	73,094
277,297	0,501	146,534	73,192
278,312	0,395	146,544	73,138
279,326	0,369	146,368	73,031
280,341	0,743	146,357	73,201
281,355	0,455	146,302	73,027
282,370	0,330	146,149	72,883
283,384	0,292	146,064	72,816
284,399	-0,099	146,035	72,605
285,414	0,521	145,869	72,817
286,428	0,471	145,703	72,703
287,443	0,401	145,634	72,629
288,457	0,755	145,537	72,745
289,472	0,556	145,502	72,625
290,487	0,750	145,252	72,587
291,501	0,281	145,241	72,348
292,516	0,485	145,093	72,367
293,530	0,286	145,194	72,315
294,545	0,561	145,068	72,378
295,560	0,543	144,850	72,254
296,574	0,539	144,749	72,195
297,589	0,680	144,621	72,193
298,603	0,435	144,594	72,055
299,618	0,633	144,507	72,101
300,633	0,879	144,303	72,110
301,647	0,632	144,393	72,030
302,662	0,506	144,206	71,870
303,676	0,453	144,212	71,841
304,691	0,677	143,837	71,755
305,706	0,561	143,824	71,687
306,720	0,427	143,879	71,644
307,735	0,845	143,699	71,747
308,749	0,544	143,695	71,595
309,764	0,821	143,569	71,658
310,779	0,760	143,430	71,554
311,793	0,743	143,393	71,521
312,808	0,591	143,337	71,414
313,822	0,713	143,048	71,321
314,837	0,510	143,002	71,196
315,852	0,639	142,921	71,211
316,866	0,530	142,907	71,146
317,881	0,930	142,822	71,286
318,895	0,470	142,849	71,076
319,910	0,864	142,768	71,215
320,925	0,384	142,571	70,884
321,939	0,721	142,549	71,026
322,954	0,908	142,365	71,016
323,968	0,601	142,310	70,837
324,983	0,650	142,314	70,856
325,997	1,035	142,014	70,882
327,012	0,586	141,953	70,634
328,027	0,340	142,056	70,563
329,041	0,726	141,875	70,649
330,056	0,518	141,851	70,532
331,070	0,770	141,527	70,483
332,085	1,049	141,534	70,611
333,100	0,812	141,501	70,477
334,114	1,008	141,377	70,501
335,129	0,911	141,216	70,369
336,143	0,562	141,097	70,140
337,158	0,548	141,155	70,156
338,173	0,660	141,004	70,127
339,187	1,109	140,880	70,269
340,202	1,344	140,711	70,288
341,216	0,666	140,775	69,998
342,231	0,761	140,644	69,970
343,246	0,999	140,530	70,018
344,260	1,012	140,390	69,948
345,275	0,988	140,332	69,902
346,289	0,989	140,391	69,925
347,304	0,907	140,127	69,750
348,319	1,109	140,127	69,837
349,333	0,599	139,982	69,523
350,348	0,882	139,827	69,570
351,362	1,054	139,770	69,615
352,377	1,146	139,734	69,633
353,392	1,175	139,572	69,560
354,406	0,887	139,460	69,365
355,421	193,321	1321,087	1392,982
356,435	152,251	1465,520	1393,471
