DTS Sentinel unit serial number:	SN410029Multiplexer serial number:	ORYXHardware model number:	OX2-SRSoftware version number:	ORYX F/W v4,00 Oryx Data Collector v3.7.2.0data status	okinstallation	B3 Nyhavnadifferential loss correction	single-endedforward channel	channel 1reverse channel	N/Adate	2023/11/28time	11:32:31forward acquisition time	300,00reverse acquisition time	0,00gamma	499,1914k internal	0,3151k external	0,3151temperature offset calibration	1,0000default loss term (dB/km)	0,3820temperature slope calibration	1,0000multiplexer offset coefficient	1,0000multiplexer slope coefficient	1,0000fibre end	0,00T internal ref (°C)	9,15T ext. ref 1 (°C)	-7,62T ext. ref 2 (°C)	-7,83length (m)	temperature (°C)	Stokes	anti-Stokes-744,400	800,000	-0,151	-0,369
-743,385	-200,000	0,036	0,218
-742,371	93,454	-0,141	-0,118
-741,356	-200,000	0,033	0,342
-740,342	800,000	-0,118	-0,380
-739,327	800,000	0,104	0,263
-738,312	217,413	-0,191	-0,225
-737,298	-200,000	0,001	0,229
-736,283	11,196	-0,330	-0,186
-735,269	-200,000	0,081	0,296
-734,254	311,815	-0,125	-0,174
-733,239	83,705	-0,162	0,130
-732,225	38,394	-0,189	-0,124
-731,210	185,745	0,137	0,151
-730,196	241,051	-0,090	-0,111
-729,181	596,631	-0,031	0,058
-728,167	-200,000	0,005	0,047
-727,152	230,936	0,067	-0,081
-726,137	-51,176	-0,110	0,038
-725,123	-36,404	-0,067	0,026
-724,108	-200,000	0,010	-0,108
-723,094	227,998	0,073	-0,088
-722,079	166,974	-0,072	0,075
-721,064	-200,000	-0,005	0,068
-720,050	-128,428	0,017	0,002
-719,035	86,135	-0,116	0,095
-718,021	199,289	-0,053	-0,060
-717,006	300,849	-0,114	-0,156
-715,991	800,000	0,022	-0,068
-714,977	-200,000	-0,005	-0,021
-713,962	-200,000	0,040	0,189
-712,948	-200,000	0,016	-0,094
-711,933	-134,291	0,047	-0,004
-710,918	-200,000	-0,009	-0,050
-709,904	48,994	0,028	-0,019
-708,889	800,000	0,018	-0,049
-707,875	-200,000	-0,004	-0,087
-706,860	800,000	0,032	-0,076
-705,845	477,044	-0,035	-0,059
-704,831	-200,000	-0,011	0,075
-703,816	132,155	0,055	-0,052
-702,802	-200,000	-0,027	-0,107
-701,787	151,452	0,161	-0,162
-700,772	184,102	-0,004	-0,004
-699,758	102,383	0,091	0,079
-698,743	-130,613	0,129	-0,013
-697,729	28,476	0,111	0,069
-696,714	800,000	0,079	0,202
-695,699	-57,091	0,016	0,005
-694,685	36,760	0,130	-0,085
-693,670	149,356	0,137	-0,137
-692,656	-104,468	0,144	0,024
-691,641	-200,000	-0,016	0,084
-690,627	-128,867	0,184	0,019
-689,612	223,453	0,043	-0,052
-688,597	26,458	0,009	-0,005
-687,583	150,714	-0,204	-0,204
-686,568	-18,573	-0,083	-0,038
-685,554	-84,357	-0,092	0,021
-684,539	68,665	0,100	0,075
-683,524	114,399	0,056	0,050
-682,510	-103,179	0,071	0,012
-681,495	-65,984	-0,049	0,014
-680,481	-47,792	-0,058	0,021
-679,466	87,184	0,039	-0,032
-678,451	-200,000	0,002	-0,101
-677,437	-174,163	-0,205	-0,004
-676,422	222,780	0,076	0,091
-675,408	671,417	-0,051	0,098
-674,393	-24,042	-0,097	0,042
-673,378	-200,000	-0,007	-0,065
-672,364	-200,000	0,000	-0,050
-671,349	109,374	-0,020	0,018
-670,335	-200,000	-0,019	-0,123
-669,320	800,000	-0,032	-0,066
-668,305	232,229	0,103	-0,124
-667,291	100,388	-0,051	-0,044
-666,276	-192,422	-0,046	-0,000
-665,262	774,631	0,033	0,067
-664,247	315,086	-0,078	0,108
-663,232	-200,000	0,010	-0,069
-662,218	-42,912	0,012	0,004
-661,203	-102,410	0,040	-0,007
-660,189	800,000	-0,029	0,062
-659,174	-170,077	-0,050	-0,001
-658,159	-200,000	0,012	-0,132
-657,145	-200,000	-0,023	-0,157
-656,130	-70,051	-0,041	0,011
-655,116	-130,360	0,102	0,010
-654,101	800,000	0,038	-0,089
-653,086	131,562	0,043	-0,041
-652,072	50,427	0,019	0,013
-651,057	-119,808	-0,049	0,006
-650,043	503,366	-0,112	-0,191
-649,028	31,086	-0,038	-0,024
-648,014	800,000	-0,013	-0,039
-646,999	-76,734	0,029	-0,007
-645,984	-200,000	0,001	-0,050
-644,970	140,260	0,062	-0,060
-643,955	11,411	0,013	-0,007
-642,941	-19,256	-0,112	-0,051
-641,926	124,353	0,004	-0,004
-640,911	215,165	-0,041	-0,048
-639,897	-146,694	0,121	0,008
-638,882	-200,000	-0,024	0,100
-637,868	-200,000	-0,001	0,068
-636,853	800,000	0,038	-0,093
-635,838	503,122	0,045	-0,077
-634,824	308,963	-0,059	-0,081
-633,809	800,000	0,031	0,089
-632,795	-200,000	0,014	0,114
-631,780	-200,000	0,039	0,151
-630,765	800,000	0,027	0,082
-629,751	800,000	-0,077	-0,206
-628,736	-83,062	-0,206	0,048
-627,722	-200,000	0,025	0,113
-626,707	196,516	0,023	0,026
-625,692	-156,420	0,131	-0,006
-624,678	-63,776	0,177	-0,053
-623,663	-40,379	0,060	-0,023
-622,649	80,487	-0,073	-0,057
-621,634	-200,000	0,004	-0,129
-620,619	-48,767	0,074	-0,026
-619,605	800,000	-0,005	0,013
-618,590	455,325	-0,034	-0,056
-617,576	-130,887	0,127	-0,012
-616,561	-200,000	-0,009	0,204
-615,546	-75,395	-0,167	0,043
-614,532	41,601	0,116	-0,077
-613,517	800,000	0,047	-0,117
-612,503	393,359	0,030	0,046
-611,488	378,056	-0,045	-0,067
-610,474	438,938	-0,003	0,004
-609,459	-200,000	-0,019	-0,086
-608,444	-192,502	-0,160	-0,001
-607,430	-200,000	0,010	-0,120
-606,415	800,000	-0,024	0,050
-605,401	431,332	0,044	-0,071
-604,386	-21,783	-0,074	0,033
-603,371	-19,860	-0,063	-0,028
-602,357	-31,396	0,028	-0,012
-601,342	-200,000	-0,001	-0,094
-600,328	-104,535	-0,161	-0,027
-599,313	800,000	0,029	0,063
-598,298	800,000	-0,028	-0,059
-597,284	173,222	0,036	-0,038
-596,269	87,568	0,081	0,066
-595,255	-16,953	-0,137	-0,063
-594,240	800,000	-0,030	-0,074
-593,225	-5,503	-0,045	0,023
-592,211	-170,536	-0,103	-0,003
-591,196	-102,714	-0,168	0,029
-590,182	-200,000	-0,008	0,068
-589,167	270,925	-0,054	-0,070
-588,152	340,194	0,048	-0,070
-587,138	-92,507	-0,204	-0,042
-586,123	-200,000	-0,018	-0,094
-585,109	800,000	-0,065	-0,182
-584,094	800,000	-0,021	-0,047
-583,079	104,750	-0,042	0,036
-582,065	300,756	0,073	-0,100
-581,050	6,543	0,044	0,024
-580,036	-86,431	0,107	0,024
-579,021	-14,211	-0,077	-0,036
-578,006	-200,000	0,008	-0,059
-576,992	-200,000	-0,013	-0,087
-575,977	76,761	-0,048	-0,038
-574,963	-65,807	0,108	0,032
-573,948	-43,670	-0,093	0,034
-572,934	538,850	0,045	0,078
-571,919	-123,068	0,039	0,005
-570,904	-1,891	-0,056	0,029
-569,890	210,229	0,059	-0,068
-568,875	-200,000	0,007	-0,065
-567,861	-119,420	0,085	0,011
-566,846	398,040	-0,056	0,086
-565,831	-14,858	-0,086	-0,040
-564,817	27,294	-0,048	0,030
-563,802	-200,000	-0,013	-0,072
-562,788	17,483	-0,065	-0,038
-561,773	82,680	-0,074	0,059
-560,758	545,269	-0,035	0,061
-559,744	399,466	-0,074	0,114
-558,729	800,000	0,037	-0,090
-557,715	-129,074	-0,210	-0,021
-556,700	245,534	-0,036	0,044
-555,685	308,180	-0,028	-0,038
-554,671	800,000	0,001	0,001
-553,656	-86,079	0,022	0,005
-552,642	-194,753	-0,061	0,000
-551,627	-41,601	-0,057	-0,021
-550,612	-200,000	0,029	-0,222
-549,598	-200,000	-0,001	0,084
-548,583	-200,000	-0,001	0,072
-547,569	800,000	-0,040	0,108
-546,554	-200,000	-0,007	0,034
-545,539	800,000	0,011	0,034
-544,525	-96,580	-0,084	0,016
-543,510	-48,728	-0,061	0,022
-542,496	-52,688	-0,266	-0,090
-541,481	0,471	-0,160	-0,084
-540,466	-197,437	0,077	0,000
-539,452	-120,161	0,077	-0,009
-538,437	-52,075	0,141	0,048
-537,423	334,194	-0,092	-0,131
-536,408	-200,000	-0,019	0,131
-535,393	178,756	0,019	-0,021
-534,379	207,710	0,039	-0,045
-533,364	-200,000	-0,041	-0,165
-532,350	800,000	-0,012	-0,028
-531,335	347,556	0,073	0,106
-530,321	-200,000	-0,034	0,172
-529,306	-200,000	-0,003	-0,054
-528,291	-200,000	-0,017	0,077
-527,277	-135,390	-0,069	0,006
-526,262	471,919	-0,099	-0,164
-525,248	-200,000	-0,003	0,034
-524,233	800,000	0,030	-0,062
-523,218	-86,023	0,153	0,034
-522,204	115,137	-0,046	-0,042
-521,189	-200,000	0,012	-0,147
-520,175	-200,000	-0,016	-0,107
-519,160	315,706	0,042	-0,058
-518,145	-125,445	-0,121	-0,013
-517,131	-6,091	0,077	0,038
-516,116	722,143	0,043	-0,083
-515,102	439,035	-0,050	-0,080
-514,087	-113,180	-0,122	0,017
-513,072	61,879	-0,068	-0,049
-512,058	800,000	-0,033	-0,091
-511,043	111,289	-0,017	-0,015
-510,029	45,390	0,061	0,041
-509,014	-20,906	0,063	0,028
-507,999	-64,426	-0,022	-0,006
-506,985	247,900	-0,080	-0,099
-505,970	-200,000	0,013	-0,184
-504,956	800,000	-0,018	-0,049
-503,941	-81,323	-0,071	0,017
-502,926	-200,000	0,030	-0,205
-501,912	233,268	-0,046	0,055
-500,897	39,170	0,054	0,035
-499,883	-81,758	0,204	-0,049
-498,868	83,804	0,068	-0,054
-497,853	194,970	0,038	0,042
-496,839	4,846	0,091	-0,049
-495,824	176,802	0,045	0,048
-494,810	446,378	0,080	0,129
-493,795	25,772	0,053	-0,032
-492,781	-143,473	-0,127	0,009
-491,766	53,117	0,020	0,014
-490,751	800,000	-0,030	-0,078
-489,737	-154,898	0,107	0,005
-488,722	-200,000	-0,004	0,024
-487,708	-200,000	-0,020	0,173
-486,693	-178,728	0,210	-0,003
-485,678	-200,000	-0,019	0,141
-484,664	246,522	-0,083	-0,102
-483,649	-106,377	-0,054	0,009
-482,635	144,459	0,014	0,013
-481,620	161,615	0,024	0,025
-480,605	301,693	-0,068	0,092
-479,591	188,587	0,098	0,107
-478,576	800,000	-0,008	-0,024
-477,562	118,384	0,003	-0,003
-476,547	114,822	0,043	-0,038
-475,532	472,112	0,039	0,065
-474,518	554,722	-0,041	0,072
-473,503	135,958	0,091	-0,087
-472,489	509,003	-0,041	0,070
-471,474	20,823	0,106	0,063
-470,459	699,359	-0,025	0,048
-469,445	-19,524	-0,015	-0,007
-468,430	92,467	-0,121	0,099
-467,416	8,696	0,174	0,096
-466,401	800,000	-0,092	0,208
-465,386	103,865	-0,106	0,091
-464,372	16,685	-0,104	-0,060
-463,357	233,036	0,038	-0,045
-462,343	-200,000	-0,015	-0,138
-461,328	800,000	0,062	-0,165
-460,313	133,387	-0,049	-0,047
-459,299	578,630	-0,088	-0,157
-458,284	35,961	0,053	-0,034
-457,270	101,773	-0,037	-0,031
-456,255	471,582	-0,104	-0,171
-455,241	-200,000	0,013	-0,078
-454,226	42,636	0,177	-0,118
-453,211	800,000	-0,019	-0,055
-452,197	-63,896	-0,015	-0,005
-451,182	800,000	0,006	0,014
-450,168	-200,000	-0,006	0,160
-449,153	-193,576	0,121	-0,001
-448,138	-39,063	-0,145	0,056
-447,124	382,845	0,095	-0,143
-446,109	84,558	0,078	0,063
-445,095	58,420	-0,078	0,056
-444,080	50,969	0,092	-0,063
-443,065	94,814	0,062	0,052
-442,051	-200,000	-0,011	0,162
-441,036	334,552	-0,020	0,028
-440,022	-200,000	0,061	-0,210
-439,007	-185,647	-0,163	0,002
-437,992	-135,340	0,141	0,012
-436,978	-83,857	0,104	0,024
-435,963	27,054	-0,052	0,032
-434,949	-30,665	0,130	0,053
-433,934	43,786	-0,040	0,027
-432,919	800,000	0,017	0,045
-431,905	800,000	-0,010	0,026
-430,890	-77,001	0,062	-0,016
-429,876	77,199	0,098	0,076
-428,861	-50,651	0,058	0,020
-427,846	63,296	0,075	0,055
-426,832	-200,000	0,015	0,066
-425,817	74,464	-0,040	-0,031
-424,803	800,000	0,048	-0,149
-423,788	-200,000	-0,033	0,167
-422,773	800,000	-0,032	0,089
-421,759	-95,704	0,124	0,024
-420,744	305,438	0,062	-0,084
-419,730	12,151	-0,157	0,088
-418,715	-200,000	0,039	-0,164
-417,701	333,246	-0,018	-0,025
-416,686	-162,157	0,120	-0,004
-415,671	800,000	-0,057	0,118
-414,657	-151,679	0,033	0,002
-413,642	94,561	0,047	0,039
-412,628	109,677	-0,144	0,126
-411,613	-70,638	0,020	-0,005
-410,598	529,661	0,011	-0,018
-409,584	112,502	0,034	0,030
-408,569	3,330	-0,204	0,108
-407,555	16,319	0,137	-0,079
-406,540	-119,216	0,122	0,015
-405,525	-200,000	-0,021	0,078
-404,511	5,216	-0,088	0,047
-403,496	588,525	0,027	-0,049
-402,482	800,000	-0,005	0,015
-401,467	66,573	0,206	-0,153
-400,452	9,371	-0,085	-0,047
-399,438	21,637	0,100	0,059
-398,423	-200,000	0,019	0,084
-397,409	107,302	0,020	-0,018
-396,394	-93,259	-0,205	0,041
-395,379	800,000	0,002	-0,004
-394,365	800,000	-0,070	0,156
-393,350	-200,000	0,032	0,199
-392,336	800,000	0,062	0,141
-391,321	800,000	-0,038	-0,083
-390,306	-200,000	0,001	-0,130
-389,292	56,424	-0,225	-0,159
-388,277	-200,000	-0,010	-0,064
-387,263	800,000	-0,018	0,052
-386,248	800,000	-0,024	0,052
-385,233	199,302	-0,059	0,067
-384,219	169,802	-0,066	0,069
-383,204	649,560	0,015	0,029
-382,190	62,097	-0,095	-0,069
-381,175	-11,251	-0,051	0,024
-380,160	48,953	-0,147	-0,100
-379,146	-94,639	0,304	0,060
-378,131	-111,653	-0,064	0,009
-377,117	-56,030	0,093	-0,030
-376,102	392,740	-0,040	-0,061
-375,088	146,262	-0,129	-0,126
-374,073	127,890	0,039	0,036
-373,058	-200,000	-0,004	0,036
-372,044	800,000	-0,048	0,111
-371,029	-173,048	0,073	-0,002
-370,015	197,024	0,043	-0,047
-369,000	-200,000	0,001	-0,071
-367,985	133,498	0,184	-0,173
-366,971	-182,168	-0,147	0,002
-365,956	742,043	0,032	0,063
-364,942	259,401	-0,012	0,015
-363,927	-200,000	0,027	0,088
-362,912	-32,102	0,075	-0,030
-361,898	297,490	0,069	-0,092
-360,883	-200,000	0,019	-0,238
-359,869	-25,041	-0,152	-0,065
-358,854	-200,000	-0,012	0,103
-357,839	708,561	0,024	0,047
-356,825	-200,000	-0,026	-0,100
-355,810	514,593	0,080	0,136
-354,796	-200,000	-0,000	-0,028
-353,781	74,058	-0,028	-0,021
-352,766	-65,026	0,102	0,030
-351,752	-48,363	0,117	0,041
-350,737	565,671	0,031	0,055
-349,723	-44,304	0,161	0,058
-348,708	-11,150	0,073	0,035
-347,693	211,293	-0,053	-0,061
-346,679	-176,165	-0,105	0,002
-345,664	223,969	0,020	0,024
-344,650	-200,000	0,000	-0,096
-343,635	523,935	0,031	0,053
-342,620	171,609	0,114	-0,119
-341,606	571,253	-0,025	-0,044
-340,591	-51,887	-0,146	-0,049
-339,577	-200,000	0,007	-0,046
-338,562	-200,000	0,006	-0,032
-337,548	262,824	0,063	0,080
-336,533	10,975	-0,060	-0,033
-335,518	-200,000	-0,007	0,124
-334,504	-189,549	-0,064	-0,001
-333,489	-157,586	0,129	0,006
-332,475	-134,578	-0,015	0,001
-331,460	-200,000	0,026	-0,094
-330,445	-0,850	0,042	0,021
-329,431	348,602	-0,068	0,098
-328,416	492,834	0,082	0,137
-327,402	113,544	0,011	-0,010
-326,387	-134,844	-0,015	0,001
-325,372	621,158	-0,038	0,070
-324,358	66,885	0,014	0,010
-323,343	-200,000	-0,017	-0,076
-322,329	-200,000	-0,021	-0,098
-321,314	-149,533	0,086	-0,005
-320,299	233,923	-0,082	0,098
-319,285	13,454	-0,066	0,037
-318,270	23,427	0,024	0,014
-317,256	-3,981	-0,057	-0,029
-316,241	800,000	-0,055	-0,162
-315,226	-200,000	-0,010	0,044
-314,212	284,547	-0,051	-0,067
-313,197	800,000	-0,025	0,066
-312,183	76,857	-0,115	0,089
-311,168	235,686	-0,074	-0,089
-310,153	117,243	-0,175	-0,156
-309,139	-37,309	-0,110	0,043
-308,124	-170,170	-0,042	-0,001
-307,110	800,000	0,026	0,058
-306,095	800,000	0,031	0,084
-305,080	-108,641	-0,044	-0,007
-304,066	-200,000	-0,030	-0,147
-303,051	376,889	0,054	-0,081
-302,037	-8,339	-0,108	-0,052
-301,022	-81,017	0,135	0,032
-300,008	133,490	0,061	-0,057
-298,993	800,000	-0,008	0,025
-297,978	800,000	-0,033	0,091
-296,964	-200,000	0,018	0,072
-295,949	-89,702	0,024	-0,005
-294,935	-80,589	-0,064	0,015
-293,920	-200,000	-0,010	0,113
-292,905	-200,000	-0,012	0,110
-291,891	384,032	0,128	0,191
-290,876	510,605	0,061	-0,103
-289,862	262,821	-0,134	0,170
-288,847	-140,059	-0,131	0,010
-287,832	-200,000	-0,005	0,074
-286,818	275,310	0,108	0,140
-285,803	-64,365	0,038	0,011
-284,789	131,332	0,067	-0,063
-283,774	65,540	-0,016	-0,012
-282,759	642,410	-0,053	-0,098
-281,745	-200,000	-0,020	-0,119
-280,730	800,000	0,015	-0,034
-279,716	164,164	0,144	-0,147
-278,701	174,372	-0,060	0,063
-277,686	724,995	-0,052	0,102
-276,672	276,824	-0,032	0,041
-275,657	-200,000	-0,002	-0,026
-274,643	-118,341	-0,165	-0,021
-273,628	-164,230	0,079	-0,003
-272,613	-200,000	-0,024	-0,090
-271,599	-92,203	0,132	-0,027
-270,584	50,375	-0,056	0,038
-269,570	-200,000	-0,008	0,165
-268,555	-73,485	0,038	0,010
-267,540	557,243	0,026	0,046
-266,526	800,000	-0,006	0,018
-265,511	-200,000	-0,014	-0,102
-264,497	-200,000	-0,005	0,040
-263,482	14,913	0,156	0,088
-262,467	-35,128	0,087	0,034
-261,453	-38,676	-0,158	0,060
-260,438	397,108	0,074	-0,113
-259,424	322,918	-0,083	-0,114
-258,409	195,924	-0,129	-0,142
-257,395	-200,000	0,013	0,076
-256,380	83,205	0,033	-0,026
-255,365	473,258	0,036	0,059
-254,351	168,246	0,033	-0,035
-253,336	194,709	0,076	0,084
-252,322	-54,895	0,031	0,010
-251,307	25,039	-0,058	0,035
-250,292	480,306	-0,099	0,163
-249,278	190,660	0,027	-0,030
-248,263	86,796	0,080	0,064
-247,249	-200,000	-0,002	0,013
-246,234	-200,000	-0,002	-0,044
-245,219	10,535	0,022	0,012
-244,205	261,879	-0,062	-0,078
-243,190	-15,513	0,064	0,030
-242,176	239,015	-0,042	0,050
-241,161	-108,330	0,107	-0,017
-240,146	800,000	0,027	0,062
-239,132	347,914	-0,025	-0,036
-238,117	3,438	-0,109	0,057
-237,103	546,076	-0,018	-0,031
-236,088	137,449	0,093	0,088
-235,073	116,096	0,064	-0,057
-234,059	-153,162	-0,115	0,006
-233,044	-200,000	0,020	0,123
-232,030	757,291	0,062	0,121
-231,015	121,062	0,023	-0,021
-230,000	138,910	-0,071	-0,068
-228,986	-98,547	0,051	0,009
-227,971	800,000	0,027	0,085
-226,957	-200,000	0,018	0,132
-225,942	611,074	0,037	0,068
-224,927	-151,975	0,126	-0,007
-223,913	71,946	-0,147	0,111
-222,898	800,000	0,038	-0,106
-221,884	-78,077	0,051	0,013
-220,869	260,336	0,068	-0,086
-219,855	-103,205	0,152	0,026
-218,840	422,391	0,034	0,053
-217,825	-94,665	-0,058	0,011
-216,811	88,894	-0,113	0,091
-215,796	4,251	0,152	-0,080
-214,782	-63,670	-0,209	0,062
-213,767	-200,000	0,011	-0,163
-212,752	135,923	0,059	0,055
-211,738	-200,000	-0,024	0,088
-210,723	-130,466	0,075	0,007
-209,709	159,806	-0,068	-0,069
-208,694	-62,367	-0,016	0,005
-207,679	-39,865	-0,046	0,017
-206,665	101,656	-0,069	0,058
-205,650	-92,795	0,076	0,015
-204,636	-92,222	0,138	-0,028
-203,621	-200,000	0,011	0,056
-202,606	18,742	0,104	-0,060
-201,592	391,880	0,088	-0,133
-200,577	581,919	0,028	0,049
-199,563	65,244	-0,066	0,048
-198,548	-93,706	-0,065	-0,013
-197,533	101,185	0,086	0,073
-196,519	-130,977	-0,115	-0,011
-195,504	-200,000	0,046	-0,150
-194,490	131,753	0,111	-0,103
-193,475	151,361	-0,091	-0,090
-192,460	800,000	-0,014	-0,033
-191,446	440,515	-0,076	0,120
-190,431	800,000	0,063	0,199
-189,417	-200,000	0,008	0,047
-188,402	800,000	-0,037	0,095
-187,387	122,182	0,095	0,086
-186,373	385,567	-0,099	-0,148
-185,358	-7,313	0,133	0,065
-184,344	-200,000	0,011	0,057
-183,329	-87,132	-0,056	0,012
-182,315	154,270	0,101	0,100
-181,300	25,016	0,051	0,031
-180,285	-40,603	0,080	0,030
-179,271	-200,000	-0,029	-0,095
-178,256	-200,000	-0,013	0,069
-177,242	800,000	0,041	0,090
-176,227	128,859	-0,059	0,054
-175,212	-18,353	0,134	0,060
-174,198	276,224	-0,069	-0,089
-173,183	-200,000	-0,008	-0,097
-172,169	99,811	-0,050	-0,042
-171,154	81,842	0,092	-0,072
-170,139	162,797	0,063	-0,064
-169,125	-85,987	0,103	0,023
-168,110	-200,000	0,003	-0,050
-167,096	91,139	-0,043	0,035
-166,081	504,138	0,060	-0,101
-165,066	800,000	-0,075	-0,152
-164,052	-200,000	-0,006	0,069
-163,037	102,517	0,064	0,054
-162,023	-200,000	-0,003	0,176
-161,008	81,897	0,052	-0,041
-159,993	163,877	-0,024	-0,024
-158,979	-29,530	-0,066	-0,027
-157,964	-53,086	0,038	-0,012
-156,950	-200,000	0,003	-0,100
-155,935	-200,000	0,008	0,033
-154,920	-29,278	-0,070	0,029
-153,906	47,858	0,133	0,090
-152,891	-200,000	0,003	0,162
-151,877	800,000	0,034	0,080
-150,862	-200,000	-0,002	0,019
-149,847	-200,000	-0,030	-0,186
-148,833	446,949	-0,091	0,145
-147,818	-200,000	-0,004	0,031
-146,804	375,998	-0,042	0,062
-145,789	30,614	-0,069	-0,042
-144,775	-200,000	0,001	-0,097
-143,760	24,629	-0,219	-0,131
-142,745	-99,121	-0,132	-0,024
-141,731	721,491	0,067	0,129
-140,716	800,000	-0,021	0,047
-139,702	800,000	0,064	0,185
-138,687	-98,135	0,057	-0,010
-137,672	-3,509	-0,131	-0,066
-136,658	-200,000	-0,002	0,109
-135,643	-24,331	-0,105	0,045
-134,629	-200,000	-0,000	0,005
-133,614	616,364	0,071	0,129
-132,599	-200,000	-0,018	0,118
-131,585	-200,000	-0,002	0,052
-130,570	246,249	0,059	0,072
-129,556	800,000	0,033	0,067
-128,541	-30,094	-0,051	0,021
-127,526	-180,509	0,132	-0,002
-126,512	-31,691	0,103	-0,042
-125,497	-88,945	0,103	0,022
-124,483	9,270	-0,051	-0,028
-123,468	-23,912	-0,028	-0,012
-122,453	-200,000	-0,034	-0,212
-121,439	259,589	-0,057	-0,071
-120,424	-200,000	-0,013	-0,098
-119,410	-200,000	-0,005	-0,070
-118,395	683,426	0,087	0,164
-117,380	63,084	0,026	0,019
-116,366	783,325	0,052	-0,104
-115,351	343,553	-0,088	-0,124
-114,337	-93,213	-0,174	-0,035
-113,322	-74,031	0,039	0,010
-112,307	800,000	-0,044	0,105
-111,293	-200,000	0,005	0,104
-110,278	-54,668	0,062	-0,020
-109,264	-153,890	0,054	0,003
-108,249	31,552	0,127	-0,079
-107,234	-200,000	-0,039	-0,149
-106,220	-35,603	-0,152	-0,059
-105,205	113,046	0,097	-0,085
-104,191	454,151	-0,004	-0,006
-103,176	-90,448	0,110	0,023
-102,162	-23,958	-0,076	0,032
-101,147	428,752	0,032	-0,049
-100,132	-200,000	-0,012	-0,053
-99,118	726,969	-0,036	-0,070
-98,103	478,180	0,134	-0,219
-97,089	-32,990	0,046	0,018
-96,074	-200,000	0,047	0,170
-95,059	800,000	-0,019	0,045
-94,045	135,317	-0,084	0,079
-93,030	128,739	0,037	0,034
-92,016	-46,628	-0,126	-0,044
-91,001	49,115	0,193	0,131
-89,986	-200,000	0,032	-0,173
-88,972	800,000	-0,029	0,085
-87,957	266,624	-0,055	0,070
-86,943	74,264	-0,069	-0,052
-85,928	-200,000	0,027	-0,092
-84,913	54,191	-0,122	-0,084
-83,899	135,434	-0,024	0,023
-82,884	91,201	-0,084	-0,068
-81,870	27,270	0,163	-0,099
-80,855	800,000	-0,014	0,034
-79,840	380,788	0,064	0,094
-78,826	92,300	-0,013	-0,010
-77,811	800,000	0,011	-0,032
-76,797	-45,835	0,063	0,022
-75,782	-182,757	0,095	0,001
-74,767	800,000	0,050	0,154
-73,753	49,929	0,149	0,101
-72,738	-34,010	-0,105	-0,041
-71,724	784,573	-0,030	-0,059
-70,709	-200,000	0,015	-0,120
-69,694	-51,765	0,103	-0,034
-68,680	-200,000	-0,004	0,183
-67,665	81,616	0,178	0,139
-66,651	581,598	-0,073	0,130
-65,636	800,000	0,036	0,099
-64,622	-200,000	0,003	-0,126
-63,607	-200,000	0,005	-0,147
-62,592	800,000	0,024	-0,059
-61,578	-33,629	0,014	-0,005
-60,563	-110,954	0,120	0,018
-59,549	-200,000	0,021	0,120
-58,534	55,971	-2,121	-1,478
-57,519	447,777	-1,244	-1,977
-56,505	-200,000	-0,422	-4,219
-55,490	567,015	0,897	1,572
-54,476	800,000	5,124	11,394
-53,461	-200,000	21,772	339,914
-52,446	800,000	758,271	2319,126
-51,432	519,047	1652,751	2794,662
-50,417	70,778	1573,411	1170,194
-49,403	21,743	1103,131	644,481
-48,388	12,888	791,031	438,533
-47,373	27,103	752,961	453,362
-46,359	18,967	738,507	424,520
-45,344	9,319	734,230	398,119
-44,330	9,169	732,384	396,728
-43,315	9,077	731,297	395,894
-42,300	9,035	730,202	395,181
-41,286	9,017	729,356	394,665
-40,271	8,955	728,821	394,206
-39,257	9,076	727,653	393,857
-38,242	9,124	726,815	393,506
-37,227	9,069	726,149	392,994
-36,213	9,195	725,109	392,726
-35,198	9,128	724,456	392,192
-34,184	9,239	723,731	392,056
-33,169	9,049	723,031	391,197
-32,154	9,224	722,213	391,166
-31,140	9,246	721,051	390,576
-30,125	9,317	720,398	390,380
-29,111	9,188	719,979	389,823
-28,096	9,214	719,715	389,728
-27,082	9,152	719,199	389,281
-26,067	9,081	718,692	388,819
-25,052	9,110	717,662	388,316
-24,038	9,052	717,530	388,088
-23,023	9,022	716,840	387,628
-22,009	9,238	716,058	387,713
-20,994	9,238	715,245	387,258
-19,979	9,276	714,679	387,027
-18,965	9,150	714,366	386,538
-17,950	9,280	713,810	386,537
-16,936	9,193	713,290	386,028
-15,921	9,223	712,755	385,796
-14,906	9,094	712,059	385,092
-13,892	9,126	711,649	384,932
-12,877	9,111	711,070	384,569
-11,863	9,062	710,691	384,231
-10,848	9,012	710,324	383,896
-9,833	9,123	710,024	383,985
-8,819	9,168	709,135	383,597
-7,804	9,238	708,514	383,415
-6,790	9,106	708,409	383,025
-5,775	9,128	708,112	382,904
-4,760	9,063	707,559	382,433
-3,746	9,057	706,943	382,070
-2,731	8,831	706,798	381,435
-1,717	8,853	706,338	381,225
-0,702	8,906	705,592	380,933
0,313	9,045	701,845	379,816
1,327	13,147	676,889	375,679
2,342	21,684	545,018	318,126
3,356	15,493	301,030	169,429
4,371	-14,872	202,306	92,906
5,386	-18,127	190,587	85,384
6,400	-18,334	186,893	83,589
7,415	-17,358	185,297	83,489
8,429	-18,377	184,290	82,382
9,444	-18,451	183,655	82,044
10,459	-18,469	183,137	81,794
11,473	-18,426	182,778	81,654
12,488	-18,292	182,408	81,565
13,502	-18,207	181,747	81,315
14,517	-18,145	181,669	81,312
15,531	-18,314	181,314	81,041
16,546	-18,200	181,037	80,981
17,561	-18,568	180,765	80,623
18,575	-18,202	180,490	80,720
19,590	-18,249	180,158	80,535
20,604	-17,898	179,975	80,664
21,619	-18,065	179,771	80,462
22,634	-18,319	179,384	80,124
23,648	-18,662	179,273	79,857
24,663	-18,266	179,064	80,000
25,677	-18,338	178,868	79,861
26,692	-18,336	178,772	79,813
27,707	-18,194	178,560	79,798
28,721	-18,254	178,221	79,603
29,736	-18,417	177,969	79,383
30,750	-18,345	177,822	79,355
31,765	-18,314	177,778	79,347
32,780	-18,015	177,406	79,355
33,794	-18,199	177,426	79,245
34,809	-18,151	177,007	79,080
35,823	-18,000	176,921	79,126
36,838	-18,497	176,860	78,791
37,853	-18,141	176,552	78,862
38,867	-17,958	176,273	78,841
39,882	-18,354	176,268	78,592
40,896	-18,304	176,217	78,592
41,911	-18,386	175,820	78,359
42,926	-18,416	175,735	78,297
43,940	-17,994	175,399	78,394
44,955	-18,273	175,409	78,224
45,969	-18,153	175,209	78,199
46,984	-18,243	175,141	78,108
47,999	-18,060	175,019	78,156
49,013	-18,104	174,921	78,079
50,028	-18,043	174,570	77,952
51,042	-18,040	174,440	77,889
52,057	-17,982	174,377	77,888
53,071	-18,194	174,101	77,632
54,086	-18,086	174,043	77,663
55,101	-17,841	173,858	77,719
56,115	-18,184	173,790	77,478
57,130	-18,210	173,471	77,313
58,144	-18,236	173,143	77,145
59,159	-18,179	173,003	77,110
60,174	-18,061	172,928	77,139
61,188	-18,230	172,739	76,948
62,203	-18,437	172,749	76,823
63,217	-18,268	172,474	76,794
64,232	-18,368	172,438	76,712
65,247	-18,470	172,153	76,518
66,261	-18,180	171,987	76,608
67,276	-18,105	171,830	76,576
68,290	-18,247	171,801	76,473
69,305	-18,146	171,623	76,445
70,320	-17,996	171,554	76,496
71,334	-18,135	171,244	76,270
72,349	-18,366	171,158	76,089
73,363	-18,376	171,062	76,034
74,378	-18,155	170,642	75,970
75,393	-18,241	170,623	75,904
76,407	-18,401	170,542	75,768
77,422	-18,127	170,416	75,865
78,436	-18,226	170,209	75,708
79,451	-18,593	170,080	75,431
80,466	-18,181	169,924	75,595
81,480	-18,206	169,697	75,472
82,495	-17,735	169,503	75,652
83,509	-18,311	169,676	75,389
84,524	-17,972	169,370	75,442
85,539	-18,185	169,310	75,285
86,553	-18,169	169,253	75,262
87,568	-18,281	168,904	75,036
88,582	-17,802	168,702	75,215
89,597	-18,023	168,726	75,092
90,611	-18,016	168,593	75,030
91,626	-17,884	168,249	74,946
92,641	-18,129	168,230	74,790
93,655	-18,079	168,065	74,739
94,670	-18,268	168,046	74,616
95,684	-18,234	167,733	74,490
96,699	-18,375	167,684	74,381
97,714	-18,084	167,628	74,515
98,728	-18,236	167,510	74,369
99,743	-17,749	167,232	74,517
100,757	-18,060	167,125	74,286
101,772	-18,062	167,094	74,264
102,787	-18,257	166,894	74,057
103,801	-18,302	166,791	73,979
104,816	-18,024	166,640	74,064
105,830	-17,917	166,447	74,032
106,845	-18,135	166,326	73,848
107,860	-18,315	166,193	73,680
108,874	-18,354	166,066	73,596
109,889	-18,370	165,928	73,519
110,903	-18,105	165,771	73,592
111,918	-18,190	165,514	73,424
112,933	-18,127	165,433	73,417
113,947	-18,166	165,401	73,374
114,962	-18,092	165,140	73,294
115,976	-18,114	165,140	73,275
116,991	-18,415	165,012	73,042
118,006	-17,991	164,833	73,194
119,020	-18,219	164,761	73,028
120,035	-18,173	164,769	73,051
121,049	-17,998	164,566	73,052
122,064	-18,093	164,270	72,861
123,079	-18,145	164,149	72,772
124,093	-18,303	164,045	72,631
125,108	-18,242	163,803	72,552
126,122	-17,846	163,834	72,779
127,137	-17,989	163,802	72,679
128,151	-18,013	163,554	72,549
129,166	-17,849	163,367	72,551
130,181	-18,092	163,142	72,310
131,195	-18,171	163,088	72,236
132,210	-18,140	162,857	72,144
133,224	-18,055	162,818	72,167
134,239	-18,258	162,684	71,989
135,254	-17,738	162,487	72,183
136,268	-18,051	162,417	71,972
137,283	-18,150	162,256	71,840
138,297	-17,958	162,233	71,929
139,312	-18,117	161,999	71,732
140,327	-18,653	161,696	71,297
141,341	-18,651	161,633	71,264
142,356	-18,875	161,299	70,988
143,370	-17,484	161,584	71,870
144,385	-10,616	163,462	76,508
145,400	-3,910	164,770	80,854
146,414	-2,220	164,847	81,826
147,429	-2,035	164,908	81,951
148,443	-1,850	164,969	82,077
149,458	-1,717	164,765	82,042
150,473	-1,148	164,596	82,267
151,487	-0,988	164,479	82,290
152,502	-0,954	164,346	82,235
153,516	-1,285	164,449	82,095
154,531	-1,558	164,333	81,879
155,546	-1,420	164,157	81,860
156,560	-1,158	164,033	81,936
157,575	-1,354	163,920	81,764
158,589	-1,071	163,780	81,843
159,604	-1,118	163,734	81,787
160,619	-0,762	163,354	81,786
161,633	-1,269	163,511	81,578
162,648	-0,972	163,340	81,648
163,662	-0,933	163,327	81,656
164,677	-1,135	163,139	81,444
165,692	-0,826	162,973	81,523
166,706	-0,551	162,934	81,648
167,721	-1,137	162,959	81,331
168,735	-0,655	162,599	81,408
169,750	-0,757	162,679	81,385
170,764	-0,614	162,495	81,364
171,779	-0,709	162,354	81,234
172,794	-0,946	162,193	81,017
173,808	-0,876	162,200	81,051
174,823	-0,746	162,014	81,022
175,837	-0,969	161,852	80,813
176,852	-0,865	161,869	80,870
177,867	-0,781	161,760	80,854
178,881	-0,834	161,578	80,728
179,896	-0,850	161,540	80,692
180,910	-0,504	161,355	80,780
181,925	-0,779	161,217	80,555
182,940	-0,411	161,081	80,680
183,954	-0,786	161,002	80,430
184,969	-0,564	161,017	80,551
185,983	-0,347	160,830	80,567
186,998	-0,466	160,636	80,398
188,013	-0,494	160,582	80,349
189,027	-0,724	160,563	80,208
190,042	-0,469	160,267	80,191
191,056	-0,659	160,282	80,089
192,071	-0,456	160,166	80,133
193,086	-0,351	160,022	80,110
194,100	-0,333	159,917	80,060
195,115	-0,688	159,827	79,817
196,129	-0,624	159,641	79,752
197,144	-0,475	159,495	79,751
198,159	-0,469	159,430	79,715
199,173	-0,365	159,286	79,691
200,188	-0,197	159,176	79,719
201,202	-0,784	159,181	79,401
202,217	-0,452	158,911	79,436
203,232	-0,645	158,992	79,366
204,246	-0,265	158,680	79,406
205,261	-0,390	158,505	79,245
206,275	-0,649	158,559	79,127
207,290	-0,401	158,547	79,246
208,304	-0,512	158,334	79,073
209,319	-0,229	157,990	79,044
210,334	-0,528	158,108	78,938
211,348	-0,350	157,930	78,936
212,363	-0,467	157,811	78,808
213,377	-0,328	157,740	78,839
214,392	-0,398	157,658	78,754
215,407	-0,403	157,632	78,731
216,421	-0,336	157,546	78,717
217,436	-0,187	157,302	78,666
218,450	-0,223	157,237	78,607
219,465	-0,119	157,184	78,629
220,480	-0,133	157,000	78,523
221,494	-0,408	156,964	78,353
222,509	-0,155	156,999	78,496
223,523	-0,351	156,719	78,246
224,538	-0,282	156,621	78,227
225,553	-0,381	156,340	78,028
226,567	-0,204	156,402	78,144
227,582	-0,100	156,193	78,088
228,596	-0,429	156,281	77,952
229,611	-0,269	156,144	77,961
230,626	-0,283	156,097	77,923
231,640	-0,355	155,905	77,782
232,655	0,174	155,709	77,953
233,669	-0,110	155,655	77,771
234,684	-0,089	155,458	77,677
235,699	-0,313	155,512	77,581
236,713	-0,042	155,416	77,666
237,728	-0,028	155,237	77,578
238,742	-0,046	155,223	77,554
239,757	0,079	154,906	77,454
240,772	-0,105	154,975	77,386
241,786	-0,089	154,800	77,300
242,801	-0,213	154,824	77,241
243,815	0,052	154,626	77,272
244,830	0,208	154,603	77,334
245,844	0,104	154,364	77,155
246,859	-0,055	154,325	77,046
247,874	-0,048	154,179	76,969
248,888	0,015	154,088	76,950
249,903	0,081	154,013	76,939
250,917	0,257	153,889	76,961
251,932	-0,052	154,012	76,857
252,947	0,319	153,816	76,943
253,961	-0,052	153,714	76,694
254,976	-0,142	153,534	76,551
255,990	0,204	153,377	76,644
257,005	-0,265	153,331	76,374
258,020	0,189	153,270	76,569
259,034	0,355	153,146	76,585
260,049	0,126	153,038	76,407
261,063	-0,194	152,998	76,217
262,078	0,304	152,724	76,327
263,093	-0,038	152,647	76,108
264,107	0,139	152,712	76,224
265,122	0,194	152,591	76,185
266,136	0,300	152,506	76,189
267,151	0,349	152,185	76,047
268,166	0,476	152,151	76,088
269,180	0,475	151,922	75,966
270,195	0,028	152,059	75,801
271,209	0,091	151,982	75,788
272,224	0,079	151,850	75,709
273,239	0,354	151,721	75,777
274,253	0,123	151,640	75,613
275,268	0,192	151,572	75,607
276,282	0,334	151,307	75,540
277,297	0,263	151,286	75,487
278,312	0,173	151,180	75,382
279,326	0,360	151,226	75,492
280,341	0,318	151,112	75,408
281,355	0,292	150,895	75,279
282,370	0,456	150,807	75,311
283,384	0,524	150,652	75,262
284,399	0,280	150,621	75,117
285,414	0,299	150,586	75,103
286,428	0,622	150,378	75,153
287,443	0,371	150,505	75,085
288,457	0,581	150,236	75,049
289,472	0,297	150,232	74,898
290,487	0,511	150,066	74,915
291,501	0,449	149,913	74,801
292,516	0,508	149,844	74,790
293,530	0,585	149,642	74,721
294,545	0,562	149,799	74,781
295,560	0,692	149,721	74,800
296,574	0,381	149,532	74,544
297,589	0,495	149,285	74,471
298,603	0,438	149,218	74,403
299,618	0,863	149,097	74,546
300,633	0,352	149,235	74,355
301,647	0,582	149,091	74,391
302,662	0,541	148,823	74,230
303,676	0,589	148,703	74,187
304,691	0,423	148,761	74,128
305,706	0,418	148,610	74,044
306,720	0,388	148,380	73,907
307,735	0,337	148,472	73,921
308,749	0,559	148,350	73,963
309,764	0,846	148,204	74,025
310,779	0,772	148,058	73,909
311,793	0,920	147,929	73,911
312,808	0,539	147,937	73,722
313,822	0,258	147,940	73,578
314,837	1,118	147,685	73,867
315,852	0,869	147,508	73,649
316,866	0,606	147,609	73,564
317,881	0,491	147,487	73,441
318,895	0,669	147,231	73,394
319,910	0,718	147,259	73,425
320,925	0,605	147,172	73,320
321,939	0,624	147,058	73,266
322,954	0,667	146,886	73,194
323,968	0,750	146,765	73,169
324,983	0,470	146,842	73,064
325,997	0,690	146,797	73,142
327,012	0,862	146,538	73,090
328,027	0,740	146,397	72,954
329,041	0,775	146,285	72,909
330,056	0,923	146,194	72,928
331,070	0,608	146,276	72,810
332,085	0,630	146,150	72,752
333,100	0,817	145,904	72,713
334,114	0,565	146,055	72,660
335,129	0,711	145,893	72,643
336,143	0,829	145,679	72,588
337,158	0,808	145,558	72,511
338,173	0,782	145,564	72,494
339,187	0,803	145,474	72,453
340,202	0,953	145,259	72,412
341,216	0,943	145,221	72,382
342,231	1,069	145,183	72,417
343,246	0,790	145,020	72,195
344,260	0,949	144,921	72,216
345,275	0,959	144,788	72,148
346,289	0,997	144,937	72,234
347,304	0,536	144,711	71,894
348,319	0,675	144,606	71,902
349,333	1,032	144,389	71,958
350,348	0,968	144,384	71,919
351,362	0,846	144,352	71,838
352,377	1,008	144,240	71,854
353,392	1,033	144,090	71,784
354,406	1,053	144,028	71,756
355,421	192,150	1324,180	1393,268
356,435	151,406	1468,429	1393,759
