DTS Sentinel unit serial number:	SN410029Multiplexer serial number:	ORYXHardware model number:	OX2-SRSoftware version number:	ORYX F/W v4,00 Oryx Data Collector v3.7.2.0data status	okinstallation	B3 Nyhavnadifferential loss correction	single-endedforward channel	channel 1reverse channel	N/Adate	2023/11/28time	10:22:30forward acquisition time	300,00reverse acquisition time	0,00gamma	499,1914k internal	0,3140k external	0,3140temperature offset calibration	1,0000default loss term (dB/km)	0,3820temperature slope calibration	1,0000multiplexer offset coefficient	1,0000multiplexer slope coefficient	1,0000fibre end	0,00T internal ref (°C)	10,12T ext. ref 1 (°C)	-6,77T ext. ref 2 (°C)	-7,04length (m)	temperature (°C)	Stokes	anti-Stokes-744,400	127,514	-0,220	-0,207
-743,385	93,470	-0,131	0,110
-742,371	800,000	0,040	-0,083
-741,356	-200,000	0,078	0,281
-740,342	255,368	-0,174	-0,222
-739,327	800,000	-0,116	0,334
-738,312	125,321	-0,189	-0,177
-737,298	-200,000	-0,032	0,154
-736,283	-19,584	-0,204	-0,093
-735,269	550,069	-0,135	0,241
-734,254	-14,409	-0,101	-0,048
-733,239	-33,778	-0,252	0,103
-732,225	277,121	-0,107	-0,141
-731,210	-200,000	0,024	0,149
-730,196	-181,460	-0,159	0,002
-729,181	-47,402	-0,075	-0,027
-728,167	800,000	-0,030	-0,075
-727,152	-200,000	-0,002	-0,108
-726,137	-159,527	-0,176	0,007
-725,123	12,985	0,032	0,018
-724,108	7,029	-0,130	-0,071
-723,094	-200,000	-0,013	-0,125
-722,079	501,705	0,038	-0,065
-721,064	750,026	-0,069	0,138
-720,050	82,378	-0,123	-0,099
-719,035	-170,539	0,076	-0,002
-718,021	800,000	-0,058	-0,158
-717,006	800,000	-0,052	-0,165
-715,991	-200,000	0,013	0,089
-714,977	58,552	0,114	-0,082
-713,962	-23,700	0,071	0,031
-712,948	-200,000	-0,016	-0,067
-711,933	800,000	0,023	0,058
-710,918	-20,111	-0,176	0,080
-709,904	348,608	-0,076	-0,111
-708,889	800,000	0,044	-0,109
-707,875	800,000	-0,033	-0,100
-706,860	53,976	0,063	0,045
-705,845	-77,953	-0,190	0,048
-704,831	-200,000	-0,023	0,082
-703,816	-200,000	-0,011	0,070
-702,802	40,219	-0,067	-0,045
-701,787	-200,000	0,021	-0,141
-700,772	-60,428	-0,099	-0,031
-699,758	-200,000	0,011	-0,098
-698,743	347,808	0,054	0,079
-697,729	-200,000	0,014	0,116
-696,714	-200,000	0,015	0,072
-695,699	-154,560	0,042	0,002
-694,685	19,529	0,074	-0,044
-693,670	215,943	-0,089	-0,104
-692,656	510,464	-0,004	0,007
-691,641	97,631	-0,052	0,045
-690,627	-200,000	-0,006	0,054
-689,612	-200,000	0,003	0,104
-688,597	170,719	-0,054	-0,058
-687,583	-200,000	0,004	0,016
-686,568	-200,000	0,002	0,051
-685,554	-200,000	0,014	0,082
-684,539	759,943	-0,075	0,151
-683,524	179,716	-0,084	-0,091
-682,510	-122,960	0,086	0,010
-681,495	-200,000	0,016	0,112
-680,481	-200,000	-0,003	-0,104
-679,466	-200,000	-0,017	-0,076
-678,451	514,889	0,018	0,031
-677,437	800,000	-0,024	-0,052
-676,422	37,305	0,097	0,063
-675,408	-10,937	-0,037	-0,018
-674,393	400,474	0,089	0,139
-673,378	-70,345	0,077	0,022
-672,364	-200,000	-0,009	0,051
-671,349	292,898	0,014	0,018
-670,335	169,939	-0,076	-0,080
-669,320	800,000	-0,035	0,088
-668,305	105,402	-0,027	-0,023
-667,291	-200,000	0,005	0,031
-666,276	45,562	-0,041	-0,028
-665,262	800,000	-0,055	-0,128
-664,247	-200,000	-0,013	-0,072
-663,232	-200,000	-0,032	0,140
-662,218	-200,000	0,005	-0,022
-661,203	800,000	0,050	-0,145
-660,189	-200,000	-0,020	0,085
-659,174	-96,800	-0,113	-0,022
-658,159	-101,690	0,118	0,021
-657,145	-200,000	-0,026	-0,117
-656,130	800,000	-0,022	0,068
-655,116	-119,634	0,096	0,012
-654,101	-164,593	-0,075	-0,002
-653,086	-123,932	0,145	0,017
-652,072	-144,158	0,063	-0,004
-651,057	108,541	-0,029	0,026
-650,043	781,443	-0,090	-0,183
-649,028	58,900	-0,046	0,033
-648,014	15,774	0,176	0,102
-646,999	90,882	-0,146	-0,121
-645,984	242,866	0,025	-0,031
-644,970	-200,000	-0,033	-0,109
-643,955	446,010	-0,058	-0,095
-642,941	800,000	0,038	-0,089
-641,926	257,045	0,069	-0,087
-640,911	-200,000	0,017	-0,062
-639,897	-125,873	0,056	-0,006
-638,882	-200,000	-0,020	0,117
-637,868	-200,000	-0,002	0,086
-636,853	394,784	0,036	-0,055
-635,838	187,108	-0,035	-0,038
-634,824	0,871	-0,073	0,039
-633,809	-68,251	0,162	-0,046
-632,795	31,132	-0,014	0,009
-631,780	-132,335	-0,080	-0,008
-630,765	-200,000	0,034	0,146
-629,751	257,275	-0,087	-0,110
-628,736	-56,744	-0,037	-0,012
-627,722	219,135	-0,053	-0,063
-626,707	-200,000	-0,014	0,107
-625,692	800,000	0,044	0,125
-624,678	-18,119	0,141	0,065
-623,663	103,878	-0,105	-0,091
-622,649	-200,000	0,024	0,099
-621,634	-161,170	-0,205	-0,008
-620,619	-200,000	-0,026	-0,144
-619,605	-97,031	0,044	0,008
-618,590	-200,000	-0,018	0,193
-617,576	-89,945	0,107	0,023
-616,561	-84,190	-0,076	-0,018
-615,546	240,547	-0,081	0,100
-614,532	-200,000	-0,009	-0,095
-613,517	-172,307	-0,100	0,002
-612,503	76,986	-0,043	0,034
-611,488	800,000	0,028	0,079
-610,474	800,000	-0,017	-0,045
-609,459	-30,860	0,147	0,061
-608,444	-17,664	-0,034	-0,016
-607,430	800,000	-0,053	-0,133
-606,415	-200,000	-0,031	-0,122
-605,401	43,355	-0,043	-0,029
-604,386	452,405	-0,055	0,091
-603,371	738,661	0,040	0,080
-602,357	-94,634	0,057	-0,011
-601,342	-200,000	0,004	0,043
-600,328	703,445	-0,069	0,135
-599,313	768,921	0,046	-0,093
-598,298	18,606	-0,040	0,023
-597,284	347,616	-0,033	-0,048
-596,269	-102,196	-0,069	0,012
-595,255	-97,151	-0,202	-0,039
-594,240	-90,944	-0,013	-0,003
-593,225	41,620	-0,133	-0,089
-592,211	126,105	0,026	-0,024
-591,196	66,359	0,049	0,036
-590,182	-126,130	-0,110	0,012
-589,167	677,118	0,054	0,103
-588,152	139,997	0,085	-0,083
-587,138	-32,731	-0,139	-0,057
-586,123	107,893	0,100	-0,088
-585,109	800,000	-0,061	0,132
-584,094	62,960	-0,068	0,050
-583,079	800,000	0,053	0,150
-582,065	-200,000	0,021	0,069
-581,050	-200,000	-0,033	0,176
-580,036	77,754	-0,116	0,091
-579,021	-200,000	0,004	-0,173
-578,006	-200,000	-0,013	0,109
-576,992	-200,000	0,009	-0,050
-575,977	-200,000	-0,006	0,063
-574,963	800,000	0,034	0,095
-573,948	152,602	-0,066	0,067
-572,934	-200,000	0,015	0,107
-571,919	-24,415	-0,017	-0,008
-570,904	492,454	-0,088	-0,149
-569,890	327,682	0,039	-0,056
-568,875	497,511	-0,065	0,111
-567,861	-12,005	0,070	-0,034
-566,846	-66,645	-0,100	-0,029
-565,831	-199,415	-0,081	0,000
-564,817	-82,354	-0,111	-0,026
-563,802	-200,000	-0,012	0,104
-562,788	-200,000	-0,002	-0,047
-561,773	132,334	-0,065	0,062
-560,758	800,000	-0,003	-0,007
-559,744	-141,579	0,011	-0,001
-558,729	800,000	0,019	0,057
-557,715	397,944	-0,100	-0,154
-556,700	21,572	-0,074	0,044
-555,685	800,000	-0,030	-0,082
-554,671	-200,000	-0,014	0,046
-553,656	29,105	0,101	-0,063
-552,642	-200,000	0,036	0,125
-551,627	260,634	-0,129	0,165
-550,612	-102,640	-0,059	0,010
-549,598	-160,556	0,170	0,007
-548,583	2,352	-0,112	0,059
-547,569	-77,553	0,151	-0,038
-546,554	-200,000	-0,011	-0,083
-545,539	493,761	-0,025	-0,043
-544,525	-200,000	0,015	-0,082
-543,510	-190,988	-0,055	0,000
-542,496	-200,000	0,029	0,117
-541,481	-182,621	-0,035	-0,000
-540,466	-200,000	0,013	0,133
-539,452	159,081	-0,054	-0,055
-538,437	427,923	-0,036	-0,057
-537,423	235,418	0,119	0,144
-536,408	-200,000	-0,015	-0,090
-535,393	-200,000	-0,035	0,000
-534,379	-20,524	0,171	0,077
-533,364	-186,405	0,065	-0,001
-532,350	389,702	0,065	-0,099
-531,335	800,000	0,025	-0,071
-530,321	800,000	0,038	-0,080
-529,306	-200,000	0,007	0,076
-528,291	38,119	-0,035	0,023
-527,277	-200,000	0,019	-0,103
-526,262	800,000	-0,033	-0,083
-525,248	-93,662	-0,065	0,013
-524,233	-36,780	0,129	-0,051
-523,218	230,311	-0,075	0,090
-522,204	648,577	-0,038	-0,072
-521,189	-143,801	-0,059	-0,004
-520,175	800,000	-0,027	-0,063
-519,160	-63,607	-0,116	0,035
-518,145	-123,713	0,090	0,010
-517,131	53,083	-0,094	-0,066
-516,116	94,619	-0,067	0,056
-515,102	776,022	-0,024	0,048
-514,087	79,973	0,104	-0,082
-513,072	-200,000	-0,015	-0,146
-512,058	123,032	-0,025	-0,023
-511,043	-200,000	0,010	-0,066
-510,029	800,000	-0,047	0,109
-509,014	226,932	0,110	0,132
-507,999	19,104	-0,107	-0,063
-506,985	51,433	0,023	-0,016
-505,970	-200,000	-0,004	-0,088
-504,956	-200,000	0,021	-0,152
-503,941	205,856	0,057	0,065
-502,926	-200,000	0,005	-0,024
-501,912	148,706	0,105	0,104
-500,897	-107,648	0,051	-0,008
-499,883	445,959	0,013	-0,020
-498,868	-99,833	-0,101	0,018
-497,853	-122,857	0,110	-0,013
-496,839	-117,177	-0,118	-0,016
-495,824	-200,000	0,013	0,048
-494,810	467,031	0,051	0,085
-493,795	800,000	0,042	0,114
-492,781	59,964	0,021	0,015
-491,766	-200,000	0,003	-0,103
-490,751	223,776	-0,084	0,100
-489,737	800,000	-0,022	-0,061
-488,722	-200,000	0,001	-0,046
-487,708	-200,000	0,002	-0,017
-486,693	548,448	0,065	0,114
-485,678	-120,490	-0,046	-0,006
-484,664	800,000	-0,026	-0,068
-483,649	266,608	0,059	-0,076
-482,635	363,861	-0,031	-0,046
-481,620	569,750	-0,042	-0,075
-480,605	-46,676	-0,189	0,067
-479,591	800,000	0,015	0,030
-478,576	-143,682	-0,143	0,010
-477,562	-12,685	0,031	0,015
-476,547	-200,000	-0,007	-0,106
-475,532	-200,000	-0,021	-0,072
-474,518	-49,861	0,186	-0,064
-473,503	284,946	0,074	-0,097
-472,489	63,559	-0,082	-0,060
-471,474	-150,412	0,126	-0,007
-470,459	-106,801	0,036	-0,006
-469,445	-40,941	-0,049	-0,019
-468,430	-200,000	-0,002	0,047
-467,416	235,466	0,100	-0,121
-466,401	-59,640	0,111	0,035
-465,386	13,490	-0,140	0,079
-464,372	567,880	-0,028	-0,049
-463,357	89,577	-0,037	0,030
-462,343	-52,611	0,043	0,015
-461,328	-200,000	-0,005	-0,161
-460,313	-23,199	0,119	-0,052
-459,299	381,601	0,040	-0,061
-458,284	-200,000	-0,004	0,049
-457,270	-200,000	-0,006	0,045
-456,255	-200,000	-0,024	0,082
-455,241	78,572	-0,118	-0,092
-454,226	206,067	-0,055	-0,063
-453,211	-11,024	0,055	-0,027
-452,197	-200,000	0,011	-0,055
-451,182	37,761	0,006	-0,004
-450,168	-62,433	0,167	-0,051
-449,153	-200,000	0,005	-0,021
-448,138	800,000	-0,040	-0,127
-447,124	494,146	-0,053	-0,089
-446,109	382,436	0,021	-0,031
-445,095	144,167	-0,054	0,053
-444,080	148,180	0,067	0,067
-443,065	56,027	-0,046	-0,032
-442,051	73,196	-0,075	0,058
-441,036	159,666	0,035	-0,036
-440,022	148,553	-0,072	-0,071
-439,007	800,000	-0,046	0,130
-437,992	90,275	0,062	0,051
-436,978	36,480	0,058	-0,037
-435,963	800,000	0,022	-0,059
-434,949	-73,700	-0,035	0,009
-433,934	-4,546	-0,023	-0,011
-432,919	-139,389	-0,166	0,013
-431,905	-200,000	0,009	0,100
-430,890	41,242	0,079	-0,052
-429,876	20,171	0,071	0,042
-428,861	-200,000	-0,021	0,079
-427,846	800,000	-0,018	0,044
-426,832	177,590	-0,071	-0,075
-425,817	800,000	-0,037	-0,090
-424,803	81,957	-0,121	0,096
-423,788	-57,975	0,131	0,042
-422,773	582,633	-0,031	-0,056
-421,759	-99,062	-0,023	0,004
-420,744	-16,366	-0,080	-0,037
-419,730	-74,843	-0,132	0,034
-418,715	-200,000	0,033	-0,108
-417,701	74,670	-0,047	-0,036
-416,686	-42,488	-0,124	0,046
-415,671	93,869	-0,020	0,016
-414,657	192,996	-0,055	0,061
-413,642	98,273	0,084	-0,071
-412,628	97,912	-0,059	0,049
-411,613	61,762	0,028	0,020
-410,598	289,309	-0,072	-0,096
-409,584	-62,369	0,080	0,024
-408,569	800,000	-0,043	0,094
-407,555	-200,000	-0,015	-0,087
-406,540	68,176	0,165	0,124
-405,525	633,784	0,030	0,056
-404,511	44,580	-0,054	-0,036
-403,496	-77,597	-0,133	0,033
-402,482	73,955	0,096	0,073
-401,467	-71,254	0,066	0,018
-400,452	-200,000	-0,004	0,069
-399,438	800,000	-0,033	0,074
-398,423	52,667	0,092	-0,064
-397,409	800,000	0,025	0,052
-396,394	129,163	-0,222	-0,208
-395,379	-52,780	0,213	-0,072
-394,365	-47,444	0,225	0,080
-393,350	800,000	0,027	0,077
-392,336	-200,000	-0,014	-0,058
-391,321	800,000	-0,019	-0,060
-390,306	-147,150	-0,047	-0,003
-389,292	800,000	-0,021	-0,061
-388,277	87,115	-0,100	-0,080
-387,263	800,000	-0,045	-0,099
-386,248	-200,000	-0,011	-0,090
-385,233	145,555	0,057	0,056
-384,219	-119,348	-0,111	-0,014
-383,204	379,251	0,044	0,067
-382,190	-100,419	-0,109	-0,020
-381,175	-200,000	0,015	0,067
-380,160	-200,000	0,050	0,166
-379,146	-200,000	0,010	0,287
-378,131	-78,803	-0,031	0,008
-377,117	-60,391	-0,089	0,027
-376,102	-200,000	-0,033	-0,132
-375,088	14,196	-0,075	-0,043
-374,073	-73,998	-0,053	0,014
-373,058	-200,000	-0,022	0,086
-372,044	800,000	-0,022	-0,059
-371,029	203,188	0,047	0,053
-370,015	495,990	-0,031	-0,053
-369,000	75,003	-0,031	-0,024
-367,985	428,677	-0,043	-0,068
-366,971	187,275	-0,055	-0,060
-365,956	7,934	-0,074	0,041
-364,942	372,802	-0,036	0,054
-363,927	-200,000	0,012	0,155
-362,912	-200,000	-0,029	-0,104
-361,898	-48,587	-0,086	-0,030
-360,883	-200,000	0,011	-0,141
-359,869	-133,544	0,061	-0,005
-358,854	-18,342	0,120	-0,055
-357,839	800,000	0,047	0,123
-356,825	225,426	0,037	-0,044
-355,810	800,000	0,019	-0,041
-354,796	-29,364	0,076	0,032
-353,781	800,000	-0,045	-0,141
-352,766	648,211	-0,046	-0,086
-351,752	-34,544	0,156	-0,062
-350,737	-131,433	0,064	-0,006
-349,723	301,589	0,076	-0,103
-348,708	124,557	0,104	0,096
-347,693	-200,000	-0,003	0,014
-346,679	100,130	-0,055	0,047
-345,664	-200,000	0,009	-0,040
-344,650	322,013	0,109	-0,152
-343,635	-200,000	-0,030	0,097
-342,620	99,155	0,041	-0,034
-341,606	-112,667	0,121	-0,017
-340,591	180,577	-0,008	0,008
-339,577	-26,828	0,129	0,055
-338,562	587,107	0,033	-0,060
-337,548	-200,000	-0,001	0,152
-336,533	-63,697	0,128	-0,038
-335,518	800,000	0,025	-0,067
-334,504	19,271	0,060	0,035
-333,489	-88,864	-0,060	0,013
-332,475	-114,838	0,032	-0,004
-331,460	-154,436	-0,038	-0,002
-330,445	7,466	-0,106	0,058
-329,431	-200,000	0,028	0,181
-328,416	800,000	0,021	0,055
-327,402	64,768	0,074	0,054
-326,387	-25,745	0,077	-0,033
-325,372	-200,000	0,012	-0,119
-324,358	-200,000	0,025	-0,096
-323,343	-40,282	0,078	0,030
-322,329	-200,000	0,011	0,136
-321,314	113,203	0,121	0,107
-320,299	-200,000	-0,005	0,080
-319,285	613,933	0,059	0,108
-318,270	-200,000	-0,007	0,049
-317,256	86,836	0,081	-0,065
-316,241	800,000	-0,061	-0,149
-315,226	-200,000	0,016	-0,055
-314,212	51,370	0,102	0,070
-313,197	-49,546	0,081	0,028
-312,183	266,913	-0,019	-0,024
-311,168	-128,769	0,044	0,004
-310,153	-11,042	0,142	0,068
-309,139	-41,854	-0,151	-0,056
-308,124	-200,000	0,011	-0,126
-307,110	-200,000	-0,003	-0,041
-306,095	66,350	-0,064	0,047
-305,080	-146,726	0,084	0,005
-304,066	69,448	0,072	-0,054
-303,051	348,871	0,017	-0,025
-302,037	800,000	-0,012	0,026
-301,022	331,372	-0,084	0,118
-300,008	332,290	0,053	0,075
-298,993	-200,000	-0,028	0,176
-297,978	-200,000	0,003	0,030
-296,964	467,514	-0,010	0,017
-295,949	234,652	-0,103	-0,124
-294,935	52,235	-0,067	-0,046
-293,920	4,577	0,054	0,029
-292,905	171,358	0,106	0,111
-291,891	244,023	0,088	0,108
-290,876	800,000	0,031	0,087
-289,862	-135,690	-0,134	0,011
-288,847	800,000	-0,038	-0,119
-287,832	-103,956	-0,041	-0,007
-286,818	-115,933	0,063	-0,009
-285,803	800,000	-0,033	0,095
-284,789	800,000	0,014	-0,042
-283,774	-88,947	-0,035	0,007
-282,759	-139,329	-0,145	-0,011
-281,745	800,000	0,028	-0,073
-280,730	-21,613	-0,069	0,031
-279,716	78,402	0,025	0,019
-278,701	-51,333	0,103	-0,035
-277,686	800,000	0,050	0,103
-276,672	95,100	0,069	0,057
-275,657	-14,561	0,082	-0,038
-274,643	800,000	-0,040	-0,117
-273,628	-200,000	-0,000	-0,015
-272,613	354,557	-0,113	0,164
-271,599	-117,486	0,109	0,014
-270,584	82,477	-0,138	0,109
-269,570	-127,959	0,059	-0,006
-268,555	42,371	0,180	0,119
-267,540	224,852	-0,096	-0,113
-266,526	-200,000	-0,019	-0,069
-265,511	76,645	0,095	0,073
-264,497	-143,901	-0,065	-0,004
-263,482	61,136	0,125	0,090
-262,467	270,830	0,027	0,035
-261,453	-55,225	-0,058	0,019
-260,438	800,000	0,053	0,113
-259,424	-200,000	0,045	-0,160
-258,409	-85,130	-0,035	-0,008
-257,395	-200,000	0,010	-0,207
-256,380	-200,000	-0,003	-0,059
-255,365	-200,000	0,004	0,061
-254,351	54,626	0,076	0,053
-253,336	-200,000	0,013	0,112
-252,322	256,603	0,044	0,056
-251,307	-35,706	-0,178	-0,070
-250,292	-68,388	0,050	0,014
-249,278	-79,819	0,124	0,030
-248,263	-200,000	-0,014	-0,073
-247,249	-82,678	0,132	-0,031
-246,234	800,000	-0,023	0,070
-245,219	19,877	-0,104	0,061
-244,205	-200,000	0,007	0,026
-243,190	-200,000	-0,014	0,071
-242,176	254,059	0,055	0,069
-241,161	119,015	-0,041	0,037
-240,146	560,645	0,073	0,130
-239,132	-125,743	0,076	0,008
-238,117	-36,931	0,090	0,035
-237,103	-61,604	-0,208	-0,063
-236,088	131,863	0,041	-0,038
-235,073	130,773	-0,014	0,013
-234,059	-22,966	0,088	0,038
-233,044	800,000	-0,054	0,110
-232,030	-41,651	-0,088	-0,033
-231,015	-120,426	-0,061	-0,007
-230,000	-128,943	0,022	-0,002
-228,986	-35,408	-0,047	-0,018
-227,971	88,598	0,081	-0,066
-226,957	428,462	-0,029	-0,046
-225,942	-184,743	0,112	-0,001
-224,927	800,000	-0,051	-0,132
-223,913	213,573	-0,082	0,094
-222,898	800,000	0,027	0,063
-221,884	53,971	-0,078	-0,054
-220,869	141,097	0,073	-0,070
-219,855	16,663	0,110	-0,063
-218,840	93,425	0,055	-0,045
-217,825	-200,000	0,008	-0,105
-216,811	-200,000	-0,019	-0,191
-215,796	63,267	0,030	0,022
-214,782	800,000	0,008	-0,018
-213,767	63,897	0,062	0,045
-212,752	800,000	-0,024	0,056
-211,738	171,699	0,040	0,042
-210,723	-200,000	0,017	-0,058
-209,709	-131,988	0,125	-0,012
-208,694	4,546	-0,168	-0,089
-207,679	800,000	-0,011	-0,030
-206,665	-61,420	0,064	0,019
-205,650	-200,000	-0,010	0,078
-204,636	113,825	0,104	0,092
-203,621	207,945	-0,027	-0,030
-202,606	-32,456	-0,059	-0,024
-201,592	-133,003	0,167	0,015
-200,577	36,058	-0,103	-0,066
-199,563	-50,586	-0,185	-0,063
-198,548	357,517	0,025	-0,036
-197,533	-27,994	0,126	-0,053
-196,519	115,227	-0,105	0,093
-195,504	130,883	-0,034	0,032
-194,490	93,770	0,012	-0,010
-193,475	-39,642	-0,071	-0,027
-192,460	8,769	0,123	0,067
-191,446	23,350	0,009	-0,005
-190,431	-134,404	0,115	0,010
-189,417	52,412	-0,099	0,068
-188,402	92,356	0,194	0,158
-187,387	121,367	-0,033	-0,030
-186,373	556,019	-0,066	-0,116
-185,358	-66,981	0,072	0,021
-184,344	-37,848	-0,106	0,041
-183,329	-23,057	0,071	-0,031
-182,315	-200,000	0,024	0,178
-181,300	800,000	0,017	0,046
-180,285	334,366	0,025	-0,035
-179,271	90,660	-0,056	-0,046
-178,256	800,000	0,038	-0,091
-177,242	-61,479	-0,061	-0,019
-176,227	-200,000	0,003	-0,102
-175,212	800,000	0,078	0,230
-174,198	3,162	-0,117	-0,062
-173,183	-200,000	0,012	-0,107
-172,169	82,688	0,048	0,038
-171,154	327,875	0,061	0,086
-170,139	-200,000	0,005	-0,096
-169,125	-52,966	0,036	-0,012
-168,110	-95,447	-0,178	-0,034
-167,096	571,354	0,074	-0,130
-166,081	-200,000	0,026	-0,097
-165,066	-200,000	-0,003	-0,028
-164,052	-121,270	0,178	0,021
-163,037	72,642	0,096	0,072
-162,023	161,382	0,048	0,049
-161,008	-41,840	-0,072	0,027
-159,993	58,362	-0,082	-0,058
-158,979	239,588	-0,161	-0,195
-157,964	-96,037	-0,165	-0,031
-156,950	59,952	-0,012	0,008
-155,935	-200,000	0,022	0,119
-154,920	505,531	-0,041	-0,068
-153,906	333,586	0,027	0,038
-152,891	65,014	0,037	-0,027
-151,877	-200,000	0,005	0,091
-150,862	413,523	-0,053	-0,082
-149,847	-101,861	0,110	-0,019
-148,833	-60,787	0,067	0,020
-147,818	113,659	0,101	0,089
-146,804	-141,998	0,158	-0,011
-145,789	705,252	-0,045	0,087
-144,775	800,000	-0,053	-0,134
-143,760	3,590	-0,026	0,014
-142,745	103,749	-0,131	-0,111
-141,731	119,014	0,026	0,024
-140,716	800,000	0,031	0,086
-139,702	-200,000	0,017	0,183
-138,687	146,119	-0,040	-0,039
-137,672	-23,582	-0,075	-0,033
-136,658	-22,397	-0,095	-0,042
-135,643	745,131	0,048	-0,093
-134,629	412,389	0,056	-0,086
-133,614	800,000	-0,020	0,044
-132,599	800,000	0,020	0,047
-131,585	-200,000	0,009	0,076
-130,570	23,316	0,105	-0,062
-129,556	-200,000	0,041	-0,204
-128,541	65,525	-0,075	0,055
-127,526	47,764	0,053	0,036
-126,512	117,794	0,128	0,114
-125,497	800,000	0,044	0,120
-124,483	-200,000	0,004	0,069
-123,468	-33,708	0,116	0,046
-122,453	800,000	-0,047	-0,112
-121,439	-200,000	-0,008	-0,124
-120,424	-200,000	0,007	-0,070
-119,410	195,359	0,084	0,093
-118,395	-200,000	-0,022	0,190
-117,380	22,519	-0,139	0,082
-116,366	426,402	0,031	0,048
-115,351	151,286	-0,087	0,086
-114,337	14,587	-0,088	-0,050
-113,322	312,995	0,059	-0,080
-112,307	-46,363	-0,060	0,021
-111,293	-200,000	-0,016	0,090
-110,278	48,199	-0,069	-0,047
-109,264	191,309	0,060	0,066
-108,249	138,202	-0,043	-0,041
-107,234	-81,138	-0,076	-0,018
-106,220	-200,000	0,037	-0,129
-105,205	-200,000	0,028	0,101
-104,191	-116,523	0,042	0,006
-103,176	-200,000	-0,011	-0,168
-102,162	82,992	0,057	0,045
-101,147	-94,665	-0,076	0,015
-100,132	-200,000	0,033	-0,113
-99,118	-200,000	0,012	-0,061
-98,103	-64,879	-0,081	-0,023
-97,089	89,533	-0,060	-0,049
-96,074	-200,000	0,028	0,118
-95,059	-129,270	-0,112	0,011
-94,045	42,527	-0,021	-0,014
-93,030	264,314	-0,009	-0,012
-92,016	-77,137	-0,054	0,013
-91,001	-134,857	0,135	0,012
-89,986	385,070	-0,048	0,072
-88,972	-118,488	-0,060	0,008
-87,957	800,000	0,062	0,198
-86,943	102,164	-0,099	0,084
-85,928	209,586	-0,114	-0,129
-84,913	35,000	-0,020	-0,013
-83,899	-200,000	0,011	-0,061
-82,884	-64,025	0,105	-0,031
-81,870	16,805	0,075	-0,043
-80,855	800,000	0,068	0,151
-79,840	119,698	0,075	-0,067
-78,826	-200,000	-0,025	-0,195
-77,811	-200,000	0,024	-0,172
-76,797	-18,840	-0,101	-0,045
-75,782	-103,221	-0,081	0,014
-74,767	800,000	-0,014	0,034
-73,753	-29,803	0,127	0,052
-72,738	-200,000	0,008	-0,032
-71,724	-33,908	-0,084	-0,033
-70,709	-9,440	0,066	-0,032
-69,694	-110,024	0,115	-0,017
-68,680	153,690	-0,096	0,095
-67,665	-67,442	-0,053	-0,015
-66,651	90,697	-0,077	-0,063
-65,636	-200,000	0,004	-0,033
-64,622	-62,130	-0,059	0,018
-63,607	-200,000	0,030	0,110
-62,592	-124,975	0,036	0,004
-61,578	400,366	-0,043	-0,066
-60,563	-74,732	0,070	-0,018
-59,549	-200,000	-0,024	0,172
-58,534	54,014	-2,167	-1,501
-57,519	714,045	-0,973	-1,870
-56,505	-200,000	-0,406	-4,306
-55,490	439,266	0,747	1,181
-54,476	800,000	5,461	12,023
-53,461	-200,000	21,345	345,819
-52,446	800,000	764,628	2382,144
-51,432	530,554	1668,134	2855,967
-50,417	72,300	1600,524	1202,091
-49,403	20,893	1191,388	695,013
-48,388	13,178	921,038	513,255
-47,373	24,014	887,274	526,875
-46,359	18,384	873,695	502,231
-45,344	10,325	869,222	475,900
-44,330	10,159	867,575	474,490
-43,315	10,048	866,533	473,574
-42,300	9,995	865,543	472,857
-41,286	10,023	864,496	472,348
-40,271	10,032	863,583	471,856
-39,257	10,038	862,471	471,248
-38,242	10,084	861,756	470,975
-37,227	10,068	860,878	470,429
-36,213	10,060	859,867	469,835
-35,198	10,096	859,074	469,489
-34,184	10,254	858,362	469,540
-33,169	10,069	857,475	468,498
-32,154	10,165	856,875	468,430
-31,140	10,230	855,335	467,761
-30,125	10,252	854,803	467,514
-29,111	10,118	854,340	466,852
-28,096	10,140	853,923	466,671
-27,082	10,050	853,445	466,131
-26,067	10,175	852,537	465,978
-25,052	10,063	851,824	465,245
-24,038	10,128	850,985	464,956
-23,023	10,083	850,150	464,351
-22,009	10,172	849,598	464,290
-20,994	10,194	848,929	463,969
-19,979	10,230	848,058	463,577
-18,965	10,204	847,570	463,218
-17,950	10,234	847,122	463,040
-16,936	10,191	846,409	462,510
-15,921	10,145	845,938	462,101
-14,906	10,062	845,194	461,438
-13,892	10,092	844,542	461,151
-12,877	10,040	843,987	460,679
-11,863	10,077	843,278	460,379
-10,848	10,023	843,090	460,105
-9,833	10,127	842,595	460,113
-8,819	10,125	841,881	459,701
-7,804	10,141	841,042	459,269
-6,790	10,119	840,796	459,055
-5,775	10,154	840,243	458,832
-4,760	10,116	839,532	458,319
-3,746	10,013	839,168	457,808
-2,731	9,894	838,704	457,198
-1,717	9,885	838,130	456,842
-0,702	9,961	837,308	456,593
0,313	9,926	835,289	456,079
1,327	13,332	821,661	458,104
2,342	21,814	674,185	395,159
3,356	15,613	373,260	210,952
4,371	-14,786	250,300	115,414
5,386	-17,981	235,416	105,947
6,400	-18,430	230,903	103,549
7,415	-17,803	229,232	103,286
8,429	-18,482	227,874	102,131
9,444	-18,521	226,968	101,685
10,459	-18,266	226,521	101,676
11,473	-18,648	226,132	101,194
12,488	-18,423	225,729	101,180
13,502	-18,276	225,016	100,965
14,517	-18,472	224,918	100,760
15,531	-18,307	224,220	100,566
16,546	-18,405	223,986	100,376
17,561	-18,338	223,417	100,164
18,575	-18,236	223,295	100,178
19,590	-18,454	222,943	99,844
20,604	-18,437	222,750	99,762
21,619	-18,359	222,420	99,665
22,634	-18,463	222,239	99,496
23,648	-18,280	221,740	99,403
24,663	-18,152	221,412	99,345
25,677	-18,142	221,259	99,275
26,692	-18,365	221,240	99,088
27,707	-18,295	220,854	98,959
28,721	-18,248	220,600	98,872
29,736	-18,238	220,460	98,808
30,750	-18,127	220,139	98,740
31,765	-18,183	219,831	98,551
32,780	-18,167	219,657	98,475
33,794	-18,229	219,612	98,400
34,809	-18,162	219,195	98,255
35,823	-17,932	218,848	98,264
36,838	-18,265	218,859	98,009
37,853	-18,019	218,496	98,023
38,867	-18,043	218,299	97,908
39,882	-18,105	218,192	97,805
40,896	-18,118	217,986	97,694
41,911	-17,970	217,719	97,676
42,926	-18,064	217,507	97,502
43,940	-18,261	217,225	97,220
44,955	-18,187	217,056	97,190
45,969	-18,023	216,924	97,245
46,984	-17,861	216,605	97,214
47,999	-17,890	216,591	97,178
49,013	-18,005	216,364	96,982
50,028	-17,952	216,182	96,931
51,042	-17,927	215,993	96,856
52,057	-17,864	215,704	96,764
53,071	-17,628	215,571	96,871
54,086	-18,071	215,601	96,548
55,101	-17,996	215,326	96,472
56,115	-17,981	215,037	96,345
57,130	-18,292	214,774	95,988
58,144	-18,440	214,550	95,771
59,159	-18,312	214,166	95,685
60,174	-18,478	214,141	95,543
61,188	-18,278	213,904	95,576
62,203	-18,168	213,737	95,573
63,217	-18,074	213,480	95,519
64,232	-18,349	213,444	95,293
65,247	-18,401	213,101	95,093
66,261	-18,345	212,912	95,041
67,276	-18,121	212,835	95,162
68,290	-18,117	212,667	95,081
69,305	-17,698	212,409	95,263
70,320	-18,154	212,285	94,867
71,334	-18,031	211,994	94,817
72,349	-18,442	211,784	94,416
73,363	-18,491	211,616	94,298
74,378	-18,338	211,400	94,304
75,393	-18,242	211,148	94,253
76,407	-18,287	211,083	94,183
77,422	-18,293	210,921	94,097
78,436	-18,204	210,746	94,076
79,451	-18,128	210,437	93,984
80,466	-18,213	210,227	93,820
81,480	-18,121	210,300	93,911
82,495	-17,999	210,078	93,891
83,509	-17,908	209,826	93,835
84,524	-17,828	209,664	93,812
85,539	-17,800	209,579	93,786
86,553	-17,974	209,342	93,547
87,568	-18,104	209,281	93,418
88,582	-17,965	208,963	93,368
89,597	-18,121	208,832	93,189
90,611	-18,008	208,556	93,139
91,626	-18,130	208,553	93,042
92,641	-18,032	208,238	92,963
93,655	-18,066	208,031	92,838
94,670	-17,814	207,743	92,880
95,684	-18,071	207,806	92,717
96,699	-17,979	207,557	92,663
97,714	-17,844	207,565	92,754
98,728	-18,031	207,362	92,523
99,743	-17,945	207,194	92,500
100,757	-18,075	207,108	92,362
101,772	-17,818	206,749	92,375
102,787	-18,245	206,558	91,980
103,801	-18,188	206,354	91,921
104,816	-18,285	206,361	91,847
105,830	-18,010	206,020	91,881
106,845	-18,270	205,989	91,676
107,860	-18,398	205,825	91,504
108,874	-17,937	205,483	91,668
109,889	-18,127	205,413	91,495
110,903	-18,165	205,243	91,385
111,918	-18,308	205,146	91,234
112,933	-18,006	204,855	91,307
113,947	-18,195	204,714	91,104
114,962	-18,083	204,534	91,094
115,976	-18,168	204,404	90,969
116,991	-18,001	204,237	91,003
118,006	-18,091	203,953	90,806
119,020	-18,173	204,082	90,798
120,035	-18,239	203,935	90,678
121,049	-18,094	203,658	90,648
122,064	-18,261	203,629	90,511
123,079	-18,134	203,379	90,479
124,093	-18,054	203,240	90,466
125,108	-18,053	203,057	90,376
126,122	-17,853	202,870	90,424
127,137	-17,669	202,692	90,464
128,151	-18,066	202,758	90,210
129,166	-17,936	202,411	90,137
130,181	-17,946	202,089	89,979
131,195	-18,010	201,980	89,879
132,210	-18,012	201,798	89,789
133,224	-18,284	201,727	89,561
134,239	-18,152	201,532	89,557
135,254	-18,061	201,444	89,573
136,268	-18,147	201,070	89,340
137,283	-18,124	200,897	89,271
138,297	-17,858	200,821	89,411
139,312	-18,308	200,566	88,982
140,327	-18,682	200,180	88,547
141,341	-18,866	200,080	88,370
142,356	-18,922	199,911	88,249
143,370	-17,735	200,189	89,174
144,385	-11,551	202,028	94,240
145,400	-4,283	203,788	100,084
146,414	-2,550	204,159	101,457
147,429	-2,647	204,209	101,405
148,443	-2,101	204,058	101,699
149,458	-1,890	204,053	101,833
150,473	-2,062	203,889	101,624
151,487	-2,016	203,834	101,619
152,502	-1,689	203,426	101,631
153,516	-1,839	203,384	101,498
154,531	-1,312	203,322	101,821
155,546	-1,309	203,052	101,679
156,560	-1,412	202,861	101,503
157,575	-1,681	202,895	101,327
158,589	-1,303	202,683	101,470
159,604	-1,763	202,614	101,112
160,619	-1,535	202,452	101,178
161,633	-1,363	202,298	101,210
162,648	-1,394	202,125	101,093
163,662	-1,614	202,125	100,934
164,677	-1,129	201,796	101,091
165,692	-1,386	201,848	100,933
166,706	-1,281	201,718	100,931
167,721	-1,333	201,527	100,790
168,735	-1,284	201,326	100,714
169,750	-1,380	201,245	100,599
170,764	-1,055	201,098	100,738
171,779	-1,380	201,181	100,550
172,794	-1,356	200,970	100,452
173,808	-1,260	200,721	100,383
174,823	-1,425	200,668	100,236
175,837	-1,334	200,505	100,207
176,852	-1,375	200,333	100,084
177,867	-1,112	200,008	100,091
178,881	-1,191	200,049	100,049
179,896	-1,242	199,899	99,931
180,910	-1,004	199,714	99,990
181,925	-1,213	199,447	99,707
182,940	-1,324	199,409	99,604
183,954	-1,170	199,258	99,623
184,969	-1,155	199,099	99,544
185,983	-1,170	198,936	99,445
186,998	-1,265	198,888	99,347
188,013	-1,289	198,735	99,246
189,027	-1,374	198,611	99,118
190,042	-1,069	198,365	99,191
191,056	-0,967	198,277	99,207
192,071	-0,957	198,151	99,141
193,086	-1,111	197,921	98,915
194,100	-0,951	197,747	98,925
195,115	-0,956	197,789	98,934
196,129	-1,089	197,578	98,731
197,144	-0,883	197,319	98,730
198,159	-1,049	197,279	98,591
199,173	-0,923	197,234	98,643
200,188	-0,935	197,036	98,527
201,202	-1,029	197,019	98,448
202,217	-1,033	196,811	98,333
203,232	-0,946	196,589	98,271
204,246	-0,864	196,402	98,222
205,261	-0,775	196,179	98,160
206,275	-1,049	196,192	97,978
207,290	-0,864	196,187	98,089
208,304	-0,685	195,849	98,029
209,319	-0,853	195,644	97,806
210,334	-0,914	195,626	97,749
211,348	-0,965	195,538	97,663
212,363	-0,928	195,207	97,513
213,377	-0,906	195,256	97,543
214,392	-0,764	195,081	97,540
215,407	-0,688	195,027	97,554
216,421	-0,753	194,992	97,486
217,436	-0,784	194,595	97,258
218,450	-0,972	194,593	97,126
219,465	-0,958	194,479	97,069
220,480	-0,641	194,425	97,241
221,494	-0,795	194,279	97,058
222,509	-0,796	194,130	96,974
223,523	-0,762	193,962	96,905
224,538	-0,712	193,716	96,805
225,553	-0,827	193,677	96,702
226,567	-1,028	193,572	96,510
227,582	-0,753	193,379	96,584
228,596	-0,527	193,153	96,610
229,611	-0,614	193,228	96,582
230,626	-0,498	193,151	96,610
231,640	-0,876	192,924	96,243
232,655	-0,912	192,738	96,118
233,669	-0,633	192,572	96,208
234,684	-0,562	192,471	96,195
235,699	-0,494	192,464	96,226
236,713	-0,571	192,378	96,125
237,728	-0,556	192,076	95,975
238,742	-0,430	191,921	95,970
239,757	-0,546	191,975	95,914
240,772	-0,496	191,828	95,864
241,786	-0,438	191,647	95,802
242,801	-0,633	191,632	95,661
243,815	-0,650	191,457	95,554
244,830	-0,666	191,344	95,479
245,844	-0,317	191,189	95,617
246,859	-0,624	190,947	95,291
247,874	-0,402	190,816	95,359
248,888	-0,737	190,818	95,137
249,903	-0,488	190,644	95,201
250,917	-0,507	190,587	95,152
251,932	-0,523	190,541	95,110
252,947	-0,377	190,230	95,040
253,961	-0,322	189,965	94,934
254,976	-0,290	189,951	94,939
255,990	-0,292	189,783	94,845
257,005	-0,424	189,698	94,710
258,020	-0,409	189,649	94,687
259,034	-0,568	189,626	94,566
260,049	-0,368	189,398	94,571
261,063	-0,392	189,266	94,481
262,078	-0,262	189,109	94,477
263,093	-0,345	188,981	94,352
264,107	-0,340	188,867	94,289
265,122	-0,569	188,899	94,152
266,136	-0,306	188,706	94,213
267,151	-0,047	188,451	94,242
268,166	-0,184	188,311	94,077
269,180	-0,340	188,305	93,967
270,195	-0,230	188,103	93,927
271,209	-0,167	187,942	93,878
272,224	-0,379	188,035	93,783
273,239	-0,459	187,895	93,654
274,253	-0,477	187,798	93,586
275,268	-0,275	187,541	93,577
276,282	-0,106	187,455	93,631
277,297	0,007	187,117	93,525
278,312	-0,135	187,149	93,443
279,326	-0,281	187,139	93,339
280,341	0,150	186,830	93,446
281,355	-0,249	186,866	93,206
282,370	0,035	186,731	93,308
283,384	-0,398	186,508	92,918
284,399	-0,042	186,297	93,026
285,414	0,023	186,246	93,033
286,428	-0,051	186,136	92,924
287,443	0,045	186,053	92,934
288,457	0,008	186,001	92,876
289,472	-0,225	185,888	92,667
290,487	-0,164	185,791	92,648
291,501	-0,258	185,592	92,483
292,516	-0,019	185,434	92,544
293,530	-0,276	185,386	92,352
294,545	-0,141	185,350	92,409
295,560	-0,274	185,307	92,297
296,574	-0,211	185,099	92,225
297,589	0,202	184,870	92,357
298,603	-0,136	184,682	92,047
299,618	0,053	184,493	92,060
300,633	-0,214	184,672	91,977
301,647	-0,076	184,616	92,026
302,662	-0,097	184,274	91,835
303,676	0,121	184,115	91,881
304,691	-0,082	184,112	91,747
305,706	-0,002	183,990	91,727
306,720	0,119	183,665	91,631
307,735	-0,135	183,791	91,530
308,749	0,042	183,583	91,526
309,764	0,105	183,540	91,535
310,779	0,318	183,319	91,547
311,793	0,183	183,235	91,414
312,808	-0,314	183,190	91,080
313,822	-0,050	182,910	91,094
314,837	0,083	182,788	91,106
315,852	-0,021	182,798	91,040
316,866	0,028	182,657	90,991
317,881	0,184	182,550	91,024
318,895	0,073	182,396	90,872
319,910	0,213	182,253	90,877
320,925	0,181	181,971	90,710
321,939	0,128	181,949	90,659
322,954	0,460	181,900	90,827
323,968	0,190	181,800	90,606
324,983	0,010	181,816	90,497
325,997	0,100	181,558	90,414
327,012	0,061	181,555	90,381
328,027	0,159	181,277	90,294
329,041	0,345	181,180	90,350
330,056	0,253	181,016	90,204
331,070	0,164	180,995	90,132
332,085	0,288	180,812	90,108
333,100	0,270	180,787	90,077
334,114	0,540	180,502	90,089
335,129	0,373	180,321	89,890
336,143	0,584	180,182	89,939
337,158	0,436	180,131	89,817
338,173	0,238	180,109	89,679
339,187	0,309	179,969	89,644
340,202	0,360	179,886	89,625
341,216	0,082	179,819	89,418
342,231	0,181	179,795	89,457
343,246	0,490	179,646	89,560
344,260	0,734	179,401	89,575
345,275	0,508	179,461	89,462
346,289	0,745	179,181	89,456
347,304	0,605	179,062	89,305
348,319	0,563	178,980	89,231
349,333	0,229	178,857	88,964
350,348	0,483	178,767	89,061
351,362	0,590	178,563	89,015
352,377	0,580	178,547	88,993
353,392	0,601	178,364	88,907
354,406	0,391	178,380	88,783
355,421	190,459	1326,560	1395,072
356,435	151,015	1466,811	1395,467
