DTS Sentinel unit serial number:	SN410029Multiplexer serial number:	ORYXHardware model number:	OX2-SRSoftware version number:	ORYX F/W v4,00 Oryx Data Collector v3.7.2.0data status	okinstallation	B3 Nyhavnadifferential loss correction	single-endedforward channel	channel 1reverse channel	N/Adate	2023/11/28time	14:12:30forward acquisition time	300,00reverse acquisition time	0,00gamma	499,1914k internal	0,3142k external	0,3142temperature offset calibration	1,0000default loss term (dB/km)	0,3820temperature slope calibration	1,0000multiplexer offset coefficient	1,0000multiplexer slope coefficient	1,0000fibre end	0,00T internal ref (°C)	7,55T ext. ref 1 (°C)	-7,67T ext. ref 2 (°C)	-7,84length (m)	temperature (°C)	Stokes	anti-Stokes-744,400	800,000	-0,119	-0,286
-743,385	-200,000	-0,061	0,203
-742,371	161,399	-0,160	-0,165
-741,356	-200,000	0,053	0,373
-740,342	-140,565	-0,132	-0,010
-739,327	-200,000	0,015	0,281
-738,312	384,873	-0,298	-0,456
-737,298	800,000	-0,118	0,270
-736,283	284,440	-0,174	-0,233
-735,269	-200,000	-0,024	0,198
-734,254	426,111	-0,092	-0,147
-733,239	164,569	-0,145	0,151
-732,225	418,330	-0,157	-0,249
-731,210	-68,602	0,229	0,065
-730,196	5,936	-0,064	-0,035
-729,181	-94,875	-0,040	0,008
-728,167	-73,673	-0,104	0,028
-727,152	-44,182	-0,157	-0,058
-726,137	800,000	-0,027	0,067
-725,123	32,346	-0,067	0,043
-724,108	-200,000	-0,021	-0,132
-723,094	-200,000	0,023	-0,084
-722,079	800,000	-0,053	-0,135
-721,064	-200,000	0,017	-0,135
-720,050	715,106	-0,018	-0,035
-719,035	-200,000	-0,007	-0,079
-718,021	103,123	0,073	-0,064
-717,006	24,795	-0,061	0,037
-715,991	207,013	-0,031	-0,036
-714,977	-200,000	0,015	-0,181
-713,962	-45,283	-0,042	-0,015
-712,948	-200,000	0,007	0,041
-711,933	800,000	0,017	-0,053
-710,918	-200,000	-0,091	0,000
-709,904	-200,000	-0,012	0,060
-708,889	427,359	0,027	-0,044
-707,875	123,438	-0,117	-0,109
-706,860	138,563	0,061	-0,059
-705,845	10,711	-0,092	0,052
-704,831	369,286	0,111	0,166
-703,816	124,798	0,092	-0,086
-702,802	75,889	-0,071	-0,056
-701,787	286,547	0,079	-0,106
-700,772	7,539	-0,045	0,025
-699,758	48,282	-0,059	0,041
-698,743	-200,000	0,013	0,130
-697,729	2,525	0,124	0,066
-696,714	-8,232	-0,092	-0,046
-695,699	-200,000	-0,004	-0,055
-694,685	-25,138	-0,015	0,007
-693,670	-7,202	-0,152	-0,076
-692,656	99,751	0,098	0,084
-691,641	-200,000	-0,006	0,045
-690,627	-77,713	0,089	-0,023
-689,612	-176,839	-0,075	0,001
-688,597	-92,250	0,113	-0,023
-687,583	-100,984	-0,169	-0,030
-686,568	399,730	-0,052	0,080
-685,554	-90,504	-0,186	-0,039
-684,539	385,989	0,078	0,119
-683,524	800,000	-0,007	-0,014
-682,510	-28,375	-0,084	-0,035
-681,495	-38,418	0,078	-0,030
-680,481	-102,302	0,035	-0,006
-679,466	-12,592	0,075	0,036
-678,451	650,736	-0,032	-0,062
-677,437	800,000	-0,034	-0,099
-676,422	411,225	0,034	0,054
-675,408	-60,740	-0,049	-0,015
-674,393	47,399	0,154	-0,106
-673,378	41,213	-0,077	0,051
-672,364	-200,000	-0,010	0,047
-671,349	-93,666	0,052	-0,011
-670,335	38,766	-0,047	0,031
-669,320	-132,475	0,103	0,010
-668,305	-49,997	0,031	0,011
-667,291	75,781	0,064	0,050
-666,276	-39,941	0,090	0,034
-665,262	393,962	-0,060	-0,093
-664,247	-90,027	0,074	-0,016
-663,232	575,849	0,086	-0,156
-662,218	50,424	-0,099	0,069
-661,203	-200,000	0,029	0,138
-660,189	-200,000	-0,024	-0,128
-659,174	202,777	0,018	0,020
-658,159	380,431	-0,051	-0,078
-657,145	-131,748	-0,019	0,002
-656,130	80,819	0,108	0,086
-655,116	-150,342	0,022	-0,001
-654,101	116,577	0,106	0,096
-653,086	-200,000	0,002	0,019
-652,072	800,000	0,039	-0,102
-651,057	-108,250	-0,036	0,006
-650,043	-94,792	-0,073	0,014
-649,028	468,371	0,041	-0,068
-648,014	196,634	-0,036	-0,040
-646,999	28,997	0,044	0,027
-645,984	-25,271	0,196	-0,085
-644,970	49,916	-0,085	-0,059
-643,955	180,964	-0,084	-0,092
-642,941	-200,000	0,004	-0,148
-641,926	214,444	-0,058	-0,068
-640,911	283,912	-0,052	0,069
-639,897	-200,000	-0,020	0,080
-638,882	281,362	-0,028	-0,037
-637,868	-200,000	-0,029	0,162
-636,853	-200,000	0,025	-0,125
-635,838	-200,000	0,006	-0,032
-634,824	-13,738	0,097	-0,046
-633,809	800,000	0,030	0,067
-632,795	-144,390	0,120	0,008
-631,780	-98,446	-0,089	0,017
-630,765	158,856	-0,058	-0,060
-629,751	8,086	-0,192	0,106
-628,736	-200,000	0,005	-0,087
-627,722	-200,000	0,014	-0,149
-626,707	-200,000	0,003	0,064
-625,692	-114,018	-0,055	0,008
-624,678	-44,221	-0,084	0,031
-623,663	80,485	-0,052	0,041
-622,649	-104,764	-0,021	-0,004
-621,634	-55,217	-0,153	0,050
-620,619	326,909	-0,079	-0,112
-619,605	-105,691	0,065	-0,011
-618,590	121,216	0,150	0,138
-617,576	-177,335	-0,112	0,002
-616,561	76,756	-0,030	0,024
-615,546	-135,407	-0,053	-0,005
-614,532	800,000	0,057	-0,141
-613,517	-7,530	-0,030	0,015
-612,503	41,193	-0,109	0,073
-611,488	-9,221	0,200	-0,098
-610,474	295,980	-0,011	0,015
-609,459	-107,797	-0,067	-0,011
-608,444	81,167	-0,034	-0,027
-607,430	-200,000	-0,043	-0,219
-606,415	-200,000	-0,023	-0,103
-605,401	-200,000	-0,023	-0,077
-604,386	68,053	0,081	0,061
-603,371	379,243	-0,040	-0,060
-602,357	-5,944	0,087	0,044
-601,342	151,086	0,040	0,040
-600,328	136,873	-0,072	0,070
-599,313	-92,977	-0,098	-0,020
-598,298	487,419	-0,015	0,025
-597,284	-85,114	0,140	-0,032
-596,269	800,000	0,047	0,135
-595,255	529,968	0,068	0,120
-594,240	447,844	0,061	0,100
-593,225	-83,871	-0,173	0,040
-592,211	800,000	-0,023	-0,060
-591,196	31,914	-0,012	-0,007
-590,182	648,737	0,075	0,141
-589,167	-200,000	-0,010	0,074
-588,152	56,207	-0,056	-0,040
-587,138	377,441	0,123	-0,186
-586,123	172,636	-0,138	-0,146
-585,109	19,910	0,063	-0,037
-584,094	120,228	0,079	-0,073
-583,079	292,691	-0,068	0,091
-582,065	-200,000	-0,003	0,085
-581,050	-200,000	-0,019	-0,082
-580,036	800,000	0,044	0,106
-579,021	-67,280	-0,153	-0,044
-578,006	800,000	-0,024	-0,062
-576,992	-130,904	-0,061	-0,006
-575,977	-102,048	0,062	0,011
-574,963	111,975	-0,028	-0,025
-573,948	359,180	-0,056	0,082
-572,934	255,749	0,039	-0,050
-571,919	-39,965	0,055	0,021
-570,904	-28,641	-0,079	0,033
-569,890	156,536	0,056	-0,057
-568,875	800,000	0,024	-0,049
-567,861	-111,275	-0,060	-0,009
-566,846	-58,456	-0,067	-0,021
-565,831	55,789	0,077	0,055
-564,817	-113,043	-0,064	0,009
-563,802	-200,000	-0,008	-0,139
-562,788	17,376	0,021	-0,012
-561,773	-65,214	0,029	0,009
-560,758	97,338	-0,041	-0,035
-559,744	69,734	0,116	0,088
-558,729	327,122	-0,036	-0,050
-557,715	-200,000	0,013	-0,183
-556,700	-93,487	-0,130	0,026
-555,685	-69,032	-0,030	0,008
-554,671	-85,986	0,126	-0,028
-553,656	-111,500	-0,182	0,027
-552,642	-146,019	0,141	0,009
-551,627	-67,653	0,065	0,019
-550,612	800,000	0,049	-0,115
-549,598	39,846	-0,088	0,058
-548,583	800,000	-0,039	-0,127
-547,569	800,000	0,052	-0,118
-546,554	14,885	0,052	0,030
-545,539	364,747	0,056	0,083
-544,525	383,976	0,034	0,052
-543,510	-200,000	-0,003	-0,046
-542,496	88,776	-0,090	-0,074
-541,481	800,000	-0,035	-0,079
-540,466	-200,000	-0,016	-0,130
-539,452	-200,000	0,003	-0,035
-538,437	-101,376	0,048	-0,008
-537,423	64,083	0,104	0,077
-536,408	-154,837	-0,069	0,003
-535,393	-40,806	-0,049	0,019
-534,379	800,000	0,015	0,037
-533,364	339,715	-0,066	-0,094
-532,350	327,633	-0,074	-0,104
-531,335	492,959	-0,067	-0,114
-530,321	97,923	0,081	0,069
-529,306	800,000	-0,033	0,095
-528,291	-108,039	-0,034	0,005
-527,277	-132,411	-0,049	0,005
-526,262	-200,000	0,014	0,054
-525,248	116,131	0,052	0,046
-524,233	732,332	-0,033	0,065
-523,218	-62,730	0,008	-0,002
-522,204	-74,828	-0,033	-0,009
-521,189	-39,635	0,016	-0,006
-520,175	2,880	-0,108	0,058
-519,160	-106,775	-0,145	0,023
-518,145	-126,757	0,111	-0,012
-517,131	800,000	-0,016	0,048
-516,116	49,974	0,030	0,021
-515,102	456,333	0,068	0,111
-514,087	33,433	-0,136	-0,087
-513,072	506,675	-0,034	0,059
-512,058	-78,781	0,139	0,035
-511,043	-3,005	-0,069	0,035
-510,029	31,621	0,182	-0,114
-509,014	49,821	-0,024	0,016
-507,999	247,675	0,081	0,101
-506,985	221,061	0,026	0,031
-505,970	800,000	0,067	-0,213
-504,956	-78,465	0,165	0,041
-503,941	460,762	0,011	0,017
-502,926	-19,982	0,091	0,041
-501,912	-57,597	0,104	0,033
-500,897	247,206	-0,039	-0,048
-499,883	413,892	-0,033	0,052
-498,868	-160,246	-0,045	-0,002
-497,853	119,913	-0,004	-0,003
-496,839	533,208	0,091	0,158
-495,824	800,000	0,071	0,176
-494,810	640,410	0,034	0,064
-493,795	-86,768	-0,091	0,020
-492,781	-200,000	0,021	0,094
-491,766	495,624	-0,062	-0,106
-490,751	-200,000	0,007	-0,155
-489,737	-69,331	-0,131	-0,037
-488,722	-200,000	0,001	-0,053
-487,708	-200,000	-0,002	0,017
-486,693	99,155	-0,042	-0,035
-485,678	25,089	-0,084	0,051
-484,664	-200,000	-0,009	-0,054
-483,649	-200,000	0,008	-0,138
-482,635	-158,505	-0,042	-0,002
-481,620	-72,373	0,167	-0,045
-480,605	-200,000	-0,003	-0,093
-479,591	242,776	-0,061	-0,075
-478,576	-112,366	0,088	0,013
-477,562	245,699	-0,023	-0,029
-476,547	82,067	0,009	-0,007
-475,532	523,208	-0,023	-0,040
-474,518	-163,140	0,054	-0,002
-473,503	800,000	0,058	0,146
-472,489	800,000	-0,031	0,073
-471,474	-44,219	-0,062	-0,023
-470,459	800,000	0,045	0,135
-469,445	-72,305	-0,219	-0,059
-468,430	-200,000	0,021	-0,100
-467,416	212,314	0,108	-0,125
-466,401	-163,471	-0,143	-0,005
-465,386	695,707	-0,022	-0,043
-464,372	800,000	0,053	-0,126
-463,357	123,462	-0,051	0,047
-462,343	43,818	-0,090	-0,060
-461,328	800,000	-0,061	-0,174
-460,313	-102,381	0,177	0,031
-459,299	800,000	0,024	-0,062
-458,284	-77,541	-0,062	-0,016
-457,270	-177,751	-0,091	0,002
-456,255	-60,695	0,040	0,012
-455,241	-93,742	0,022	-0,004
-454,226	-200,000	0,010	-0,038
-453,211	292,226	-0,032	0,043
-452,197	-58,564	-0,061	0,019
-451,182	-200,000	-0,006	0,043
-450,168	237,797	0,091	-0,111
-449,153	129,667	0,102	0,096
-448,138	-115,937	0,080	-0,011
-447,124	-66,153	-0,058	0,017
-446,109	-198,347	0,035	-0,000
-445,095	-75,106	-0,093	-0,024
-444,080	30,290	0,060	0,037
-443,065	580,655	0,081	0,147
-442,051	161,107	0,094	0,097
-441,036	152,802	-0,137	-0,137
-440,022	-79,635	-0,061	-0,015
-439,007	229,774	0,042	-0,050
-437,992	-37,820	0,172	-0,067
-436,978	-100,024	-0,046	-0,008
-435,963	5,960	0,106	0,058
-434,949	19,765	-0,042	-0,025
-433,934	45,694	-0,062	-0,042
-432,919	511,403	0,037	-0,063
-431,905	197,182	-0,033	-0,037
-430,890	-64,779	-0,031	-0,009
-429,876	121,890	0,102	0,093
-428,861	366,226	0,079	-0,118
-427,846	735,556	0,064	-0,126
-426,832	-79,056	0,045	-0,011
-425,817	49,934	-0,170	-0,117
-424,803	638,089	0,007	-0,013
-423,788	31,881	-0,055	0,035
-422,773	-117,656	0,060	-0,008
-421,759	-200,000	-0,014	-0,079
-420,744	-200,000	0,012	0,119
-419,730	-58,737	-0,032	0,010
-418,715	20,071	-0,131	0,077
-417,701	-33,568	-0,049	-0,020
-416,686	-200,000	0,005	0,053
-415,671	784,420	0,019	0,039
-414,657	793,631	-0,030	0,060
-413,642	-200,000	0,026	0,099
-412,628	570,131	-0,052	-0,093
-411,613	-200,000	-0,006	-0,061
-410,598	-200,000	-0,022	0,220
-409,584	181,804	0,072	-0,077
-408,569	49,680	-0,104	0,071
-407,555	-44,531	0,153	0,056
-406,540	-200,000	-0,022	0,080
-405,525	138,405	-0,035	0,033
-404,511	372,662	-0,056	0,083
-403,496	-122,013	-0,091	0,011
-402,482	84,992	-0,045	-0,036
-401,467	124,426	0,051	0,047
-400,452	-200,000	-0,027	0,212
-399,438	263,298	0,082	0,104
-398,423	-134,343	0,095	0,008
-397,409	279,064	-0,044	-0,057
-396,394	129,370	0,101	-0,094
-395,379	-190,973	0,078	-0,001
-394,365	275,726	0,021	-0,028
-393,350	43,955	0,152	0,102
-392,336	-108,780	0,022	0,003
-391,321	-19,699	0,192	0,086
-390,306	-200,000	-0,046	-0,186
-389,292	355,762	-0,064	-0,093
-388,277	373,478	-0,041	-0,061
-387,263	199,960	0,099	-0,111
-386,248	94,059	0,070	-0,058
-385,233	257,373	0,057	0,072
-384,219	800,000	-0,028	0,062
-383,204	-200,000	-0,001	-0,125
-382,190	29,065	0,038	-0,024
-381,175	-200,000	-0,015	0,074
-380,160	59,557	0,111	-0,080
-379,146	-99,794	0,053	0,010
-378,131	-200,000	0,011	-0,058
-377,117	-99,990	0,116	-0,021
-376,102	-121,376	-0,107	0,013
-375,088	-53,097	-0,061	-0,020
-374,073	-200,000	-0,007	-0,046
-373,058	15,204	-0,052	-0,030
-372,044	-43,053	0,090	0,033
-371,029	558,925	-0,036	-0,064
-370,015	309,784	-0,076	0,104
-369,000	-200,000	-0,032	-0,131
-367,985	211,443	0,027	-0,031
-366,971	41,300	-0,099	0,065
-365,956	-62,741	-0,041	-0,012
-364,942	-75,166	-0,082	0,021
-363,927	84,248	0,144	0,115
-362,912	68,956	0,062	0,046
-361,898	-59,629	-0,073	-0,023
-360,883	83,053	-0,046	0,036
-359,869	510,240	0,042	-0,072
-358,854	604,138	0,077	-0,141
-357,839	-200,000	0,000	-0,021
-356,825	96,543	0,123	0,103
-355,810	30,858	0,133	0,083
-354,796	-78,284	-0,117	0,029
-353,781	-93,120	-0,127	0,026
-352,766	-14,219	-0,010	-0,005
-351,752	319,098	0,043	0,060
-350,737	-9,025	0,054	0,026
-349,723	-200,000	0,013	0,083
-348,708	46,682	-0,048	0,033
-347,693	120,313	-0,051	0,046
-346,679	-72,851	-0,069	0,018
-345,664	89,392	0,101	0,082
-344,650	800,000	0,039	-0,112
-343,635	-200,000	0,047	0,179
-342,620	15,515	0,100	0,057
-341,606	54,305	-0,110	0,077
-340,591	182,496	0,075	0,081
-339,577	-49,929	0,054	-0,019
-338,562	32,697	0,050	-0,032
-337,548	800,000	0,015	0,042
-336,533	-19,043	-0,065	0,029
-335,518	-118,380	0,031	-0,004
-334,504	-157,622	-0,095	0,004
-333,489	800,000	0,047	-0,116
-332,475	547,102	0,057	-0,100
-331,460	-200,000	0,003	-0,035
-330,445	800,000	0,036	-0,115
-329,431	-200,000	0,027	0,115
-328,416	-136,749	-0,120	-0,010
-327,402	800,000	0,012	-0,026
-326,387	800,000	-0,026	-0,053
-325,372	231,401	-0,085	-0,102
-324,358	-200,000	-0,007	-0,031
-323,343	-120,685	-0,096	0,012
-322,329	-128,091	-0,057	0,006
-321,314	-200,000	0,047	0,172
-320,299	183,229	0,029	-0,031
-319,285	-53,650	0,014	0,005
-318,270	-98,495	-0,058	0,011
-317,256	-100,896	-0,117	-0,021
-316,241	-85,781	0,108	0,024
-315,226	-180,654	0,041	0,001
-314,212	252,295	0,027	0,034
-313,197	-141,430	0,096	-0,007
-312,183	31,652	-0,068	0,043
-311,168	-200,000	-0,008	-0,128
-310,153	518,726	-0,027	-0,047
-309,139	800,000	-0,062	-0,159
-308,124	-78,621	-0,095	-0,023
-307,110	-186,738	0,179	0,002
-306,095	118,289	-0,078	0,070
-305,080	800,000	0,020	-0,051
-304,066	45,565	-0,067	-0,045
-303,051	140,648	0,060	-0,058
-302,037	23,893	-0,064	0,039
-301,022	113,903	0,087	0,077
-300,008	-34,922	0,105	0,042
-298,993	-200,000	0,004	0,098
-297,978	-84,865	-0,067	0,015
-296,964	390,492	0,021	0,031
-295,949	-2,562	-0,186	0,094
-294,935	-127,393	-0,075	0,008
-293,920	-76,857	-0,101	0,025
-292,905	800,000	-0,063	0,135
-291,891	-200,000	-0,015	0,135
-290,876	-200,000	-0,008	0,086
-289,862	172,324	-0,119	-0,125
-288,847	111,846	0,022	0,019
-287,832	800,000	-0,049	0,144
-286,818	-200,000	0,018	0,067
-285,803	800,000	-0,016	0,048
-284,789	-53,932	0,085	-0,028
-283,774	-11,157	-0,057	0,027
-282,759	217,154	0,023	-0,027
-281,745	-200,000	0,002	-0,090
-280,730	96,225	0,030	-0,025
-279,716	498,728	0,046	0,077
-278,701	-200,000	-0,036	0,171
-277,686	108,620	-0,084	0,073
-276,672	60,778	0,115	-0,083
-275,657	-86,437	0,087	0,019
-274,643	190,151	-0,066	0,072
-273,628	-134,949	-0,175	-0,015
-272,613	-200,000	0,007	-0,044
-271,599	-200,000	-0,017	-0,145
-270,584	800,000	0,009	-0,029
-269,570	800,000	0,083	0,223
-268,555	107,970	0,019	-0,016
-267,540	-5,202	0,074	0,037
-266,526	32,736	-0,037	-0,023
-265,511	-65,193	0,112	0,033
-264,497	728,224	-0,047	0,092
-263,482	40,604	-0,026	0,017
-262,467	-200,000	0,001	0,152
-261,453	800,000	0,013	-0,036
-260,438	-27,367	0,012	0,005
-259,424	-200,000	-0,003	-0,064
-258,409	10,747	-0,085	0,047
-257,395	27,966	-0,128	0,078
-256,380	-80,250	0,154	0,037
-255,365	62,912	-0,068	-0,050
-254,351	-200,000	-0,001	0,030
-253,336	-112,884	0,034	0,005
-252,322	-200,000	0,014	-0,182
-251,307	74,933	-0,149	-0,114
-250,292	800,000	0,048	-0,145
-249,278	-200,000	0,023	0,122
-248,263	800,000	0,002	-0,007
-247,249	188,250	-0,023	-0,025
-246,234	133,270	-0,086	-0,081
-245,219	12,800	-0,112	-0,063
-244,205	-46,754	0,081	0,029
-243,190	-107,245	-0,141	0,022
-242,176	198,435	0,068	-0,076
-241,161	173,185	0,070	0,073
-240,146	-200,000	0,014	-0,092
-239,132	-200,000	0,041	0,134
-238,117	800,000	0,009	0,018
-237,103	696,526	-0,020	-0,039
-236,088	-200,000	0,015	0,128
-235,073	517,767	0,028	0,047
-234,059	97,206	0,088	0,073
-233,044	800,000	0,017	-0,040
-232,030	136,632	-0,053	0,050
-231,015	-14,985	-0,097	0,045
-230,000	294,675	0,033	0,044
-228,986	280,329	0,037	0,048
-227,971	-200,000	0,036	0,213
-226,957	800,000	0,079	-0,186
-225,942	-200,000	-0,001	-0,114
-224,927	-58,345	-0,084	0,026
-223,913	800,000	-0,032	0,073
-222,898	81,203	0,095	-0,075
-221,884	-36,516	0,053	0,020
-220,869	142,088	0,070	0,068
-219,855	312,958	0,079	0,108
-218,840	16,041	-0,052	-0,030
-217,825	-167,544	0,006	-0,000
-216,811	161,204	0,103	-0,105
-215,796	-200,000	-0,013	0,118
-214,782	290,718	0,162	-0,214
-213,767	-200,000	0,008	-0,030
-212,752	343,067	-0,024	0,034
-211,738	-200,000	-0,020	0,094
-210,723	-14,507	0,162	0,076
-209,709	-200,000	-0,029	-0,129
-208,694	-94,506	-0,123	0,024
-207,679	-76,355	0,082	-0,021
-206,665	84,580	0,143	-0,113
-205,650	-191,138	0,037	-0,000
-204,636	95,444	-0,015	0,012
-203,621	7,320	0,045	0,024
-202,606	-200,000	-0,048	-0,186
-201,592	-155,821	0,072	0,003
-200,577	62,395	-0,091	-0,066
-199,563	-130,554	0,132	-0,013
-198,548	-14,940	-0,153	0,071
-197,533	-49,736	0,088	-0,030
-196,519	347,237	-0,077	0,110
-195,504	138,363	0,065	-0,062
-194,490	800,000	-0,040	-0,082
-193,475	210,808	0,038	0,043
-192,460	586,531	-0,045	0,081
-191,446	-134,420	0,150	0,013
-190,431	800,000	-0,084	0,171
-189,417	800,000	0,038	-0,100
-188,402	800,000	-0,044	0,129
-187,387	403,859	-0,019	0,029
-186,373	579,713	0,079	-0,141
-185,358	62,041	-0,047	0,034
-184,344	-200,000	-0,021	0,148
-183,329	-27,612	-0,090	-0,038
-182,315	800,000	0,045	0,097
-181,300	-51,004	-0,014	-0,005
-180,285	-200,000	-0,007	-0,054
-179,271	0,007	-0,086	-0,044
-178,256	800,000	-0,015	0,043
-177,242	100,443	-0,130	0,109
-176,227	37,036	-0,054	0,035
-175,212	-200,000	0,021	0,095
-174,198	-200,000	0,017	-0,073
-173,183	185,797	-0,073	-0,079
-172,169	58,006	-0,121	-0,086
-171,154	800,000	0,022	-0,069
-170,139	-200,000	0,117	0,000
-169,125	-200,000	-0,013	0,102
-168,110	-5,081	0,084	-0,042
-167,096	800,000	0,072	0,189
-166,081	-146,010	-0,059	-0,004
-165,066	14,369	-0,138	-0,078
-164,052	-14,079	0,027	0,013
-163,037	80,529	-0,046	-0,036
-162,023	2,459	0,135	0,071
-161,008	-148,191	0,115	0,007
-159,993	95,385	-0,109	-0,090
-158,979	12,759	-0,083	0,046
-157,964	-16,161	0,030	0,014
-156,950	21,459	0,109	-0,064
-155,935	-115,075	-0,075	0,010
-154,920	159,007	0,062	0,063
-153,906	-64,270	0,035	0,010
-152,891	237,730	-0,085	-0,102
-151,877	-200,000	0,012	-0,103
-150,862	-200,000	0,008	-0,032
-149,847	800,000	0,022	-0,045
-148,833	328,692	-0,039	0,055
-147,818	-200,000	-0,040	0,142
-146,804	34,025	0,026	-0,016
-145,789	-120,621	0,126	0,015
-144,775	-123,458	-0,087	0,010
-143,760	-200,000	0,061	-0,212
-142,745	800,000	-0,060	-0,135
-141,731	170,445	0,044	0,046
-140,716	504,185	-0,080	0,135
-139,702	96,361	0,079	0,066
-138,687	-200,000	0,006	0,061
-137,672	154,025	0,095	-0,095
-136,658	87,969	-0,057	0,046
-135,643	126,163	-0,061	0,056
-134,629	-200,000	0,003	0,053
-133,614	43,909	0,065	0,043
-132,599	369,730	-0,030	0,044
-131,585	-200,000	0,008	-0,026
-130,570	398,013	0,044	0,067
-129,556	93,860	-0,031	-0,025
-128,541	800,000	0,036	-0,112
-127,526	-104,754	0,090	0,015
-126,512	225,124	0,053	-0,062
-125,497	800,000	0,028	0,078
-124,483	42,117	0,127	0,083
-123,468	127,893	-0,146	0,135
-122,453	-56,007	0,109	-0,035
-121,439	-152,411	-0,086	0,004
-120,424	3,738	0,116	0,061
-119,410	-200,000	0,016	-0,105
-118,395	68,122	0,087	-0,064
-117,380	-115,834	0,130	-0,017
-116,366	800,000	0,034	0,086
-115,351	-86,078	-0,146	-0,032
-114,337	-200,000	-0,014	-0,062
-113,322	-39,770	0,054	0,020
-112,307	194,108	-0,031	-0,034
-111,293	800,000	0,067	0,135
-110,278	-200,000	0,002	0,179
-109,264	-100,762	-0,036	-0,006
-108,249	-0,591	-0,021	0,011
-107,234	-200,000	-0,034	0,140
-106,220	800,000	0,052	0,138
-105,205	-71,605	-0,073	-0,020
-104,191	118,153	-0,107	0,095
-103,176	371,423	0,054	0,079
-102,162	-66,186	0,038	0,011
-101,147	281,440	-0,040	0,052
-100,132	800,000	-0,040	-0,103
-99,118	437,363	-0,063	-0,099
-98,103	183,043	0,061	-0,065
-97,089	151,397	-0,060	0,059
-96,074	-200,000	-0,016	0,074
-95,059	-59,803	0,158	0,049
-94,045	-200,000	-0,016	-0,063
-93,030	-200,000	0,015	-0,084
-92,016	800,000	0,042	-0,092
-91,001	-62,522	-0,040	-0,012
-89,986	91,651	0,178	0,145
-88,972	-200,000	0,025	0,128
-87,957	-200,000	0,001	0,031
-86,943	-87,121	-0,091	-0,020
-85,928	86,320	0,031	-0,025
-84,913	193,970	-0,057	-0,062
-83,899	-200,000	0,007	0,060
-82,884	380,785	-0,034	-0,050
-81,870	473,649	0,063	0,103
-80,855	44,700	0,019	0,013
-79,840	570,214	0,040	0,071
-78,826	-86,290	-0,106	-0,023
-77,811	800,000	-0,058	-0,126
-76,797	160,316	-0,060	0,060
-75,782	-69,059	0,104	0,029
-74,767	-149,760	0,070	-0,004
-73,753	-64,828	-0,073	0,021
-72,738	66,497	-0,054	-0,039
-71,724	-200,000	0,016	-0,081
-70,709	-68,155	-0,085	-0,024
-69,694	2,239	0,128	-0,067
-68,680	439,501	0,035	0,055
-67,665	754,008	0,049	0,096
-66,651	55,812	-0,045	-0,032
-65,636	-200,000	0,017	-0,088
-64,622	-2,362	-0,178	0,090
-63,607	-7,293	-0,058	-0,028
-62,592	231,024	0,031	0,037
-61,578	-200,000	0,026	0,083
-60,563	212,947	0,074	0,084
-59,549	183,610	-0,116	0,124
-58,534	72,724	-2,164	-1,628
-57,519	654,691	-1,047	-1,948
-56,505	-200,000	-0,246	-4,328
-55,490	800,000	0,864	1,734
-54,476	800,000	5,221	11,351
-53,461	-200,000	22,744	349,464
-52,446	800,000	757,128	2284,876
-51,432	500,066	1637,637	2734,158
-50,417	65,879	1565,505	1143,310
-49,403	18,316	1148,476	659,575
-48,388	10,794	875,244	480,340
-47,373	27,052	843,513	509,147
-46,359	16,737	829,165	471,715
-45,344	7,666	824,972	443,918
-44,330	7,528	823,207	442,563
-43,315	7,414	821,973	441,563
-42,300	7,386	820,740	440,804
-41,286	7,492	819,807	440,581
-40,271	7,428	818,941	439,922
-39,257	7,618	817,646	439,737
-38,242	7,592	816,892	439,240
-37,227	7,568	815,995	438,676
-36,213	7,488	815,364	438,095
-35,198	7,466	814,691	437,657
-34,184	7,572	813,919	437,519
-33,169	7,465	813,073	436,750
-32,154	7,539	812,449	436,601
-31,140	7,614	811,275	436,160
-30,125	7,595	810,486	435,667
-29,111	7,491	809,918	435,057
-28,096	7,526	809,574	434,951
-27,082	7,580	808,673	434,601
-26,067	7,614	807,784	434,198
-25,052	7,493	807,216	433,543
-24,038	7,498	806,647	433,235
-23,023	7,524	806,037	432,960
-22,009	7,613	805,306	432,794
-20,994	7,649	804,553	432,470
-19,979	7,634	804,122	432,181
-18,965	7,613	803,533	431,791
-17,950	7,641	803,143	431,639
-16,936	7,570	802,390	431,023
-15,921	7,499	802,002	430,604
-14,906	7,584	801,114	430,342
-13,892	7,531	800,679	429,946
-12,877	7,500	799,947	429,454
-11,863	7,354	799,692	428,902
-10,848	7,489	799,003	428,882
-9,833	7,607	798,508	428,920
-8,819	7,579	797,824	428,458
-7,804	7,614	797,262	428,235
-6,790	7,509	796,755	427,662
-5,775	7,509	796,583	427,553
-4,760	7,475	796,028	427,145
-3,746	7,485	795,502	426,874
-2,731	7,282	794,961	426,018
-1,717	7,256	794,452	425,658
-0,702	7,250	793,940	425,350
0,313	7,413	790,809	424,751
1,327	11,014	773,268	424,765
2,342	19,237	628,196	362,519
3,356	13,301	345,518	192,443
4,371	-15,823	233,395	106,715
5,386	-18,818	219,791	98,216
6,400	-19,069	215,473	96,092
7,415	-18,218	213,661	95,903
8,429	-19,037	212,321	94,693
9,444	-19,147	211,488	94,233
10,459	-19,005	211,107	94,158
11,473	-19,071	210,359	93,768
12,488	-19,225	210,323	93,632
13,502	-19,231	209,742	93,360
14,517	-19,194	209,363	93,210
15,531	-19,242	208,762	92,900
16,546	-19,193	208,563	92,838
17,561	-19,038	208,096	92,733
18,575	-19,040	207,995	92,679
19,590	-19,229	207,544	92,334
20,604	-18,958	207,401	92,456
21,619	-19,097	207,013	92,176
22,634	-19,178	206,802	92,016
23,648	-19,499	206,599	91,689
24,663	-19,052	206,272	91,853
25,677	-19,079	206,009	91,708
26,692	-19,031	205,826	91,653
27,707	-19,144	205,684	91,502
28,721	-19,207	205,516	91,375
29,736	-19,111	205,006	91,207
30,750	-19,194	204,969	91,124
31,765	-19,275	204,733	90,953
32,780	-19,210	204,435	90,859
33,794	-19,138	204,227	90,809
34,809	-19,044	204,048	90,787
35,823	-19,091	203,848	90,657
36,838	-19,205	203,680	90,495
37,853	-19,100	203,405	90,438
38,867	-19,285	203,371	90,285
39,882	-19,025	203,085	90,332
40,896	-19,017	202,885	90,240
41,911	-19,133	202,684	90,062
42,926	-19,138	202,451	89,947
43,940	-19,251	202,279	89,784
44,955	-19,289	202,139	89,687
45,969	-19,191	201,937	89,658
46,984	-19,125	201,791	89,631
47,999	-18,921	201,553	89,658
49,013	-19,047	201,398	89,494
50,028	-18,967	201,170	89,441
51,042	-19,092	201,098	89,314
52,057	-18,965	200,791	89,258
53,071	-19,112	200,782	89,143
54,086	-19,033	200,549	89,087
55,101	-19,140	200,260	88,877
56,115	-19,092	199,974	88,775
57,130	-19,021	199,877	88,773
58,144	-19,252	199,707	88,531
59,159	-19,121	199,335	88,448
60,174	-19,276	199,427	88,375
61,188	-19,336	199,106	88,184
62,203	-19,079	199,003	88,306
63,217	-19,060	198,859	88,247
64,232	-19,098	198,583	88,091
65,247	-18,941	198,413	88,114
66,261	-19,055	198,276	87,967
67,276	-19,066	198,031	87,844
68,290	-19,047	197,965	87,820
69,305	-18,983	197,718	87,746
70,320	-19,067	197,584	87,621
71,334	-19,068	197,391	87,527
72,349	-19,065	197,197	87,436
73,363	-19,177	196,969	87,251
74,378	-19,064	196,690	87,196
75,393	-19,188	196,654	87,089
76,407	-19,012	196,459	87,113
77,422	-19,086	196,411	87,034
78,436	-19,011	196,112	86,944
79,451	-19,130	195,996	86,805
80,466	-18,993	195,749	86,780
81,480	-19,034	195,612	86,684
82,495	-18,993	195,452	86,633
83,509	-18,965	195,460	86,647
84,524	-19,079	195,088	86,399
85,539	-18,915	194,987	86,456
86,553	-19,261	194,987	86,217
87,568	-18,919	194,695	86,308
88,582	-19,149	194,537	86,077
89,597	-19,129	194,354	86,002
90,611	-19,165	194,217	85,910
91,626	-19,023	194,265	86,017
92,641	-18,863	193,868	85,940
93,655	-18,940	193,660	85,790
94,670	-18,913	193,442	85,703
95,684	-19,110	193,356	85,527
96,699	-18,842	193,260	85,654
97,714	-19,157	193,177	85,401
98,728	-19,097	192,903	85,313
99,743	-18,822	192,753	85,419
100,757	-19,145	192,661	85,158
101,772	-18,913	192,415	85,195
102,787	-18,985	192,409	85,137
103,801	-19,060	191,971	84,887
104,816	-19,114	191,999	84,856
105,830	-19,167	191,878	84,760
106,845	-18,800	191,556	84,851
107,860	-19,204	191,578	84,588
108,874	-18,868	191,291	84,674
109,889	-19,071	191,182	84,486
110,903	-19,123	191,054	84,387
111,918	-18,939	190,807	84,390
112,933	-19,278	190,858	84,184
113,947	-18,927	190,491	84,243
114,962	-19,041	190,425	84,132
115,976	-18,888	190,377	84,203
116,991	-19,021	190,132	84,001
118,006	-19,172	189,930	83,807
119,020	-18,814	189,799	83,973
120,035	-18,996	189,859	83,874
121,049	-18,880	189,624	83,838
122,064	-18,880	189,313	83,693
123,079	-19,087	189,297	83,545
124,093	-18,955	189,004	83,494
125,108	-18,958	188,969	83,469
126,122	-18,780	188,673	83,445
127,137	-18,823	188,755	83,446
128,151	-19,047	188,513	83,188
129,166	-18,894	188,270	83,171
130,181	-18,896	188,194	83,129
131,195	-18,589	187,946	83,209
132,210	-18,983	187,924	82,939
133,224	-18,849	187,696	82,917
134,239	-19,090	187,624	82,723
135,254	-18,890	187,370	82,731
136,268	-18,892	187,314	82,699
137,283	-18,986	186,992	82,489
138,297	-18,643	186,902	82,660
139,312	-18,724	186,781	82,548
140,327	-19,204	186,536	82,127
141,341	-19,241	186,388	82,031
142,356	-19,178	186,371	82,057
143,370	-18,106	186,529	82,800
144,385	-11,466	188,350	87,858
145,400	-4,667	189,940	92,976
146,414	-3,257	190,154	93,981
147,429	-2,688	190,079	94,302
148,443	-2,608	190,013	94,312
149,458	-2,373	189,932	94,414
150,473	-1,890	189,790	94,645
151,487	-2,106	189,849	94,528
152,502	-2,064	189,640	94,443
153,516	-2,002	189,548	94,428
154,531	-1,906	189,330	94,372
155,546	-1,996	189,235	94,259
156,560	-1,825	189,115	94,300
157,575	-1,931	188,953	94,143
158,589	-1,778	188,724	94,118
159,604	-2,015	188,783	93,988
160,619	-1,727	188,611	94,078
161,633	-1,456	188,297	94,085
162,648	-1,907	188,303	93,793
163,662	-1,717	188,278	93,893
164,677	-1,565	188,151	93,918
165,692	-1,153	187,991	94,091
166,706	-1,674	187,961	93,737
167,721	-1,512	187,797	93,750
168,735	-1,560	187,547	93,586
169,750	-1,600	187,481	93,520
170,764	-1,572	187,345	93,461
171,779	-1,454	187,273	93,491
172,794	-1,380	187,150	93,468
173,808	-1,544	187,119	93,341
174,823	-1,273	186,888	93,388
175,837	-1,633	186,850	93,134
176,852	-1,615	186,696	93,060
177,867	-1,170	186,472	93,220
178,881	-1,460	186,506	93,047
179,896	-1,228	186,213	93,038
180,910	-1,335	185,990	92,851
181,925	-1,418	185,985	92,788
182,940	-1,358	185,757	92,704
183,954	-1,701	185,773	92,488
184,969	-1,407	185,689	92,622
185,983	-1,265	185,477	92,598
186,998	-1,260	185,328	92,517
188,013	-1,429	185,209	92,344
189,027	-0,995	185,009	92,507
190,042	-1,221	184,909	92,308
191,056	-1,236	184,689	92,180
192,071	-1,174	184,626	92,180
193,086	-1,324	184,529	92,030
194,100	-1,512	184,500	91,890
195,115	-1,404	184,324	91,862
196,129	-1,420	184,146	91,755
197,144	-1,384	184,000	91,696
198,159	-1,237	183,747	91,653
199,173	-1,436	183,790	91,543
200,188	-1,151	183,588	91,610
201,202	-1,310	183,490	91,455
202,217	-1,362	183,615	91,477
203,232	-1,073	183,218	91,449
204,246	-1,146	183,093	91,334
205,261	-1,089	182,949	91,289
206,275	-1,297	182,822	91,089
207,290	-0,790	182,554	91,259
208,304	-1,092	182,645	91,111
209,319	-1,106	182,531	91,037
210,334	-1,526	182,343	90,678
211,348	-1,180	182,105	90,763
212,363	-1,165	182,080	90,752
213,377	-1,328	182,058	90,633
214,392	-0,938	181,867	90,768
215,407	-0,981	181,742	90,671
216,421	-1,145	181,642	90,514
217,436	-1,026	181,545	90,529
218,450	-1,116	181,463	90,426
219,465	-1,267	181,119	90,155
220,480	-0,756	181,027	90,411
221,494	-1,066	181,039	90,221
222,509	-0,984	180,891	90,189
223,523	-0,789	180,680	90,194
224,538	-1,142	180,680	89,972
225,553	-1,025	180,407	89,899
226,567	-1,331	180,387	89,695
227,582	-0,899	180,214	89,863
228,596	-0,808	180,166	89,886
229,611	-0,908	179,968	89,719
230,626	-0,914	179,837	89,641
231,640	-1,094	179,734	89,473
232,655	-1,138	179,747	89,445
233,669	-1,071	179,481	89,345
234,684	-0,945	179,462	89,404
235,699	-0,975	179,378	89,336
236,713	-0,936	179,152	89,239
237,728	-1,046	179,149	89,164
238,742	-1,039	179,057	89,114
239,757	-1,121	178,835	88,947
240,772	-1,057	178,715	88,917
241,786	-0,638	178,543	89,075
242,801	-1,011	178,559	88,851
243,815	-0,780	178,309	88,857
244,830	-0,833	178,409	88,867
245,844	-0,509	178,057	88,877
246,859	-0,840	178,082	88,684
247,874	-1,055	177,911	88,463
248,888	-0,856	177,805	88,521
249,903	-0,670	177,644	88,544
250,917	-0,779	177,697	88,498
251,932	-0,623	177,555	88,512
252,947	-0,684	177,277	88,329
253,961	-0,619	177,182	88,312
254,976	-0,781	177,009	88,122
255,990	-0,669	176,926	88,139
257,005	-0,662	176,840	88,093
258,020	-0,638	176,766	88,063
259,034	-0,634	176,627	87,988
260,049	-0,652	176,434	87,873
261,063	-0,707	176,303	87,767
262,078	-0,773	176,123	87,631
263,093	-0,611	176,135	87,724
264,107	-0,665	176,010	87,623
265,122	-0,667	175,892	87,555
266,136	-0,472	175,767	87,599
267,151	-0,566	175,668	87,487
268,166	-0,330	175,447	87,508
269,180	-0,428	175,474	87,456
270,195	-0,726	175,325	87,199
271,209	-0,488	175,393	87,364
272,224	-0,733	175,167	87,101
273,239	-0,684	175,128	87,102
274,253	-0,467	174,807	87,062
275,268	-0,801	174,719	86,815
276,282	-0,630	174,711	86,903
277,297	-0,675	174,612	86,820
278,312	-0,489	174,507	86,869
279,326	-0,321	174,283	86,847
280,341	-0,408	174,230	86,762
281,355	-0,248	174,075	86,771
282,370	-0,359	173,926	86,624
283,384	-0,527	173,926	86,519
284,399	-0,424	173,623	86,420
285,414	-0,452	173,716	86,442
286,428	-0,113	173,574	86,560
287,443	-0,360	173,432	86,339
288,457	-0,356	173,310	86,273
289,472	-0,471	173,258	86,173
290,487	-0,074	172,953	86,243
291,501	-0,593	172,958	85,938
292,516	-0,270	172,824	86,049
293,530	-0,433	172,812	85,942
294,545	-0,461	172,681	85,853
295,560	-0,263	172,496	85,867
296,574	-0,310	172,432	85,801
297,589	-0,283	172,369	85,777
298,603	-0,283	172,199	85,685
299,618	-0,332	172,150	85,625
300,633	-0,573	171,994	85,402
301,647	-0,161	171,778	85,523
302,662	-0,038	171,646	85,520
303,676	-0,148	171,694	85,473
304,691	-0,274	171,498	85,296
305,706	-0,415	171,442	85,180
306,720	-0,045	171,251	85,289
307,735	-0,186	171,184	85,167
308,749	-0,173	171,117	85,134
309,764	-0,292	171,002	85,001
310,779	0,138	170,729	85,102
311,793	0,113	170,794	85,113
312,808	-0,032	170,535	84,894
313,822	-0,358	170,610	84,738
314,837	-0,349	170,468	84,665
315,852	-0,119	170,382	84,746
316,866	0,005	170,213	84,724
317,881	-0,170	170,003	84,513
318,895	-0,212	169,905	84,433
319,910	-0,306	169,849	84,345
320,925	-0,275	169,727	84,294
321,939	0,072	169,536	84,387
322,954	-0,137	169,540	84,264
323,968	-0,000	169,415	84,271
324,983	0,007	169,340	84,231
325,997	-0,352	169,120	83,912
327,012	-0,353	168,988	83,838
328,027	-0,039	168,874	83,951
329,041	-0,084	168,788	83,875
330,056	0,027	168,798	83,935
331,070	-0,085	168,615	83,774
332,085	-0,045	168,540	83,752
333,100	-0,129	168,467	83,660
334,114	0,065	168,307	83,682
335,129	-0,206	168,231	83,485
336,143	-0,068	168,221	83,550
337,158	0,140	167,932	83,515
338,173	-0,007	167,834	83,377
339,187	0,049	167,901	83,434
340,202	0,224	167,602	83,375
341,216	-0,018	167,537	83,201
342,231	-0,047	167,480	83,149
343,246	-0,044	167,360	83,084
344,260	0,204	167,185	83,127
345,275	0,174	167,079	83,051
346,289	0,234	167,070	83,072
347,304	0,093	166,988	82,946
348,319	0,142	166,883	82,913
349,333	-0,199	166,723	82,638
350,348	0,293	166,616	82,849
351,362	0,195	166,455	82,707
352,377	0,236	166,483	82,737
353,392	0,215	166,327	82,641
354,406	0,424	166,192	82,681
355,421	190,118	1325,248	1391,690
356,435	150,369	1466,905	1392,156
