DTS Sentinel unit serial number:	SN410029Multiplexer serial number:	ORYXHardware model number:	OX2-SRSoftware version number:	ORYX F/W v4,00 Oryx Data Collector v3.7.2.0data status	okinstallation	B3 Nyhavnadifferential loss correction	single-endedforward channel	channel 1reverse channel	N/Adate	2023/11/28time	12:22:31forward acquisition time	300,00reverse acquisition time	0,00gamma	499,1914k internal	0,3141k external	0,3141temperature offset calibration	1,0000default loss term (dB/km)	0,3820temperature slope calibration	1,0000multiplexer offset coefficient	1,0000multiplexer slope coefficient	1,0000fibre end	0,00T internal ref (°C)	8,55T ext. ref 1 (°C)	-7,67T ext. ref 2 (°C)	-7,85length (m)	temperature (°C)	Stokes	anti-Stokes-744,400	77,217	-0,274	-0,216
-743,385	-200,000	-0,029	0,309
-742,371	74,234	-0,254	-0,198
-741,356	-200,000	-0,022	0,397
-740,342	301,653	-0,242	-0,332
-739,327	-200,000	-0,063	0,305
-738,312	640,181	-0,122	-0,231
-737,298	800,000	-0,111	0,274
-736,283	41,769	-0,186	-0,125
-735,269	800,000	0,094	0,245
-734,254	800,000	-0,136	-0,292
-733,239	-15,112	-0,300	0,142
-732,225	-200,000	0,014	-0,083
-731,210	-183,270	0,228	0,003
-730,196	206,562	-0,059	-0,069
-729,181	-30,184	-0,089	0,037
-728,167	212,728	-0,083	-0,097
-727,152	185,859	0,096	-0,106
-726,137	-33,680	0,070	0,028
-725,123	202,441	-0,088	-0,101
-724,108	771,716	0,028	-0,057
-723,094	-85,403	-0,059	0,014
-722,079	-66,158	-0,125	0,037
-721,064	268,153	-0,066	0,086
-720,050	-76,437	0,070	-0,018
-719,035	-200,000	-0,021	0,097
-718,021	-200,000	-0,037	-0,128
-717,006	36,135	-0,076	-0,049
-715,991	70,218	-0,136	-0,104
-714,977	800,000	-0,028	-0,077
-713,962	-114,870	0,029	0,004
-712,948	28,135	-0,073	-0,045
-711,933	3,323	0,041	0,022
-710,918	-151,854	0,160	-0,009
-709,904	136,522	-0,056	-0,054
-708,889	-200,000	0,010	-0,195
-707,875	551,167	-0,068	-0,121
-706,860	800,000	-0,017	-0,035
-705,845	0,613	-0,082	0,043
-704,831	235,105	-0,022	0,027
-703,816	-158,076	0,128	0,005
-702,802	-200,000	-0,018	0,179
-701,787	-77,435	-0,094	-0,024
-700,772	-76,337	-0,030	-0,008
-699,758	-29,577	0,033	-0,014
-698,743	-16,588	0,141	-0,066
-697,729	-59,129	-0,029	-0,009
-696,714	800,000	-0,026	-0,054
-695,699	143,537	0,021	0,021
-694,685	-148,233	-0,109	0,007
-693,670	-64,441	-0,119	0,036
-692,656	-200,000	-0,005	0,032
-691,641	-200,000	0,028	0,170
-690,627	-200,000	-0,001	0,034
-689,612	427,815	-0,073	-0,116
-688,597	-45,353	-0,061	0,022
-687,583	24,068	-0,196	-0,119
-686,568	-104,870	-0,048	-0,008
-685,554	420,891	0,064	-0,101
-684,539	-128,925	0,199	0,020
-683,524	-95,484	0,148	0,029
-682,510	800,000	-0,021	0,063
-681,495	-23,545	-0,054	-0,024
-680,481	33,736	0,033	0,021
-679,466	322,441	-0,073	-0,103
-678,451	-88,254	-0,090	-0,020
-677,437	-156,207	-0,037	-0,002
-676,422	-15,458	0,065	-0,030
-675,408	-11,499	0,143	0,069
-674,393	800,000	0,016	0,045
-673,378	-148,849	-0,135	0,008
-672,364	175,806	-0,138	-0,148
-671,349	800,000	-0,061	-0,151
-670,335	460,019	0,030	0,050
-669,320	-200,000	-0,046	0,170
-668,305	-103,180	-0,118	-0,020
-667,291	-200,000	-0,015	-0,126
-666,276	420,006	-0,060	-0,096
-665,262	-200,000	-0,048	-0,163
-664,247	-67,974	0,093	0,027
-663,232	220,473	-0,088	-0,104
-662,218	800,000	-0,031	0,097
-661,203	-137,028	-0,096	0,008
-660,189	439,584	0,048	-0,078
-659,174	-200,000	0,001	0,049
-658,159	-200,000	-0,004	-0,049
-657,145	217,583	0,022	0,026
-656,130	17,346	0,051	0,030
-655,116	-200,000	0,002	0,073
-654,101	114,478	0,083	0,075
-653,086	-74,935	-0,041	-0,011
-652,072	-53,617	-0,064	0,022
-651,057	9,524	-0,128	0,071
-650,043	47,380	-0,094	-0,064
-649,028	12,474	-0,074	0,042
-648,014	-32,221	0,074	-0,030
-646,999	-200,000	0,029	0,124
-645,984	278,481	0,084	-0,111
-644,970	-200,000	0,008	-0,131
-643,955	-14,596	-0,129	-0,061
-642,941	694,715	-0,067	0,131
-641,926	156,445	0,030	-0,030
-640,911	63,347	-0,123	0,091
-639,897	800,000	0,026	0,083
-638,882	22,866	-0,084	-0,051
-637,868	-92,875	-0,008	0,002
-636,853	-200,000	0,009	-0,030
-635,838	167,948	-0,080	-0,084
-634,824	329,602	-0,012	-0,017
-633,809	72,854	-0,118	-0,091
-632,795	479,036	-0,037	0,062
-631,780	40,969	0,070	0,047
-630,765	299,283	-0,071	-0,096
-629,751	700,609	0,034	-0,066
-628,736	509,920	-0,080	-0,138
-627,722	295,714	0,113	-0,154
-626,707	-0,044	0,068	-0,036
-625,692	-200,000	0,006	-0,038
-624,678	284,787	0,088	0,118
-623,663	-200,000	-0,024	-0,094
-622,649	800,000	0,034	-0,097
-621,634	-50,062	-0,149	0,052
-620,619	-82,049	0,040	0,010
-619,605	800,000	0,050	-0,155
-618,590	235,937	-0,034	-0,042
-617,576	-49,565	0,076	0,027
-616,561	33,699	-0,048	0,031
-615,546	800,000	0,060	-0,125
-614,532	-154,040	-0,106	-0,005
-613,517	-51,310	-0,038	-0,013
-612,503	-144,906	0,097	-0,006
-611,488	379,978	0,091	0,138
-610,474	192,371	0,108	0,120
-609,459	-23,584	-0,007	-0,003
-608,444	643,477	0,048	-0,091
-607,430	800,000	0,003	0,008
-606,415	800,000	-0,057	-0,131
-605,401	800,000	0,024	-0,052
-604,386	42,798	0,070	-0,047
-603,371	48,966	-0,118	0,081
-602,357	81,244	0,097	-0,077
-601,342	-200,000	0,011	-0,062
-600,328	-200,000	-0,003	-0,123
-599,313	732,763	-0,049	-0,097
-598,298	-200,000	0,008	0,048
-597,284	77,927	0,121	0,095
-596,269	-200,000	0,001	0,174
-595,255	157,566	0,067	0,068
-594,240	-32,245	0,066	-0,027
-593,225	800,000	0,029	-0,064
-592,211	90,943	0,088	0,073
-591,196	-26,261	-0,115	-0,050
-590,182	-101,958	-0,149	-0,026
-589,167	156,020	0,023	-0,023
-588,152	190,593	0,061	-0,068
-587,138	246,415	-0,071	0,089
-586,123	800,000	0,049	-0,115
-585,109	-107,773	-0,085	0,014
-584,094	51,535	0,044	0,031
-583,079	14,827	0,075	0,043
-582,065	800,000	0,083	0,196
-581,050	-195,558	0,087	-0,000
-580,036	-200,000	0,013	-0,082
-579,021	128,686	-0,141	0,132
-578,006	-32,773	-0,080	-0,033
-576,992	248,105	0,106	-0,132
-575,977	-35,031	-0,108	-0,043
-574,963	-55,589	0,093	0,031
-573,948	20,714	0,051	0,030
-572,934	-2,474	-0,061	-0,032
-571,919	-109,455	-0,116	-0,018
-570,904	-21,753	-0,182	-0,081
-569,890	342,766	0,063	-0,091
-568,875	800,000	0,018	-0,041
-567,861	16,820	0,105	0,061
-566,846	553,463	0,035	0,063
-565,831	-72,006	-0,068	0,019
-564,817	-200,000	-0,010	0,049
-563,802	-200,000	-0,005	-0,071
-562,788	496,237	-0,023	-0,039
-561,773	-18,940	0,049	-0,022
-560,758	-200,000	-0,005	-0,026
-559,744	451,917	-0,101	-0,164
-558,729	-75,794	0,042	-0,011
-557,715	285,149	0,026	0,035
-556,700	619,812	-0,110	-0,204
-555,685	74,905	-0,105	-0,082
-554,671	51,689	-0,045	-0,031
-553,656	427,626	-0,014	-0,022
-552,642	-84,168	-0,145	0,033
-551,627	-200,000	0,015	0,102
-550,612	68,128	-0,027	0,020
-549,598	339,072	-0,096	-0,138
-548,583	-131,207	-0,007	-0,001
-547,569	-135,611	0,016	0,001
-546,554	264,418	0,043	0,056
-545,539	74,540	0,040	-0,031
-544,525	-110,879	-0,085	0,013
-543,510	426,748	0,018	-0,029
-542,496	28,449	-0,038	-0,024
-541,481	153,997	0,052	-0,053
-540,466	-115,361	-0,074	-0,010
-539,452	-175,926	-0,094	-0,002
-538,437	197,764	0,108	0,122
-537,423	-200,000	0,009	0,152
-536,408	137,151	0,047	-0,045
-535,393	-104,345	-0,129	-0,022
-534,379	399,862	-0,063	0,097
-533,364	38,266	-0,031	0,020
-532,350	-200,000	0,004	0,096
-531,335	520,340	0,038	-0,066
-530,321	-200,000	0,007	-0,114
-529,306	-30,217	-0,121	0,050
-528,291	549,232	-0,081	0,143
-527,277	-23,588	-0,093	-0,041
-526,262	800,000	-0,003	-0,011
-525,248	-124,156	-0,128	0,015
-524,233	-130,011	0,066	0,007
-523,218	220,537	-0,043	0,051
-522,204	113,764	0,088	0,078
-521,189	-30,546	-0,052	-0,022
-520,175	-200,000	-0,123	0,000
-519,160	-142,300	-0,131	-0,009
-518,145	-195,336	0,065	-0,000
-517,131	33,216	-0,079	-0,050
-516,116	-200,000	-0,019	-0,091
-515,102	-92,784	-0,047	0,010
-514,087	308,221	-0,078	0,107
-513,072	55,254	-0,052	0,037
-512,058	179,921	0,115	-0,123
-511,043	-25,986	-0,139	-0,060
-510,029	148,023	0,032	-0,031
-509,014	-200,000	0,019	0,063
-507,999	417,728	-0,072	0,113
-506,985	63,284	-0,057	0,042
-505,970	800,000	-0,028	0,074
-504,956	-200,000	-0,024	0,115
-503,941	-67,144	-0,071	-0,020
-502,926	-102,420	-0,068	0,012
-501,912	-200,000	-0,012	0,099
-500,897	800,000	-0,055	0,116
-499,883	-200,000	-0,004	0,061
-498,868	315,055	-0,086	0,120
-497,853	800,000	-0,059	-0,124
-496,839	-200,000	0,021	-0,094
-495,824	-142,128	0,170	-0,012
-494,810	-36,572	0,102	-0,040
-493,795	-200,000	-0,005	0,077
-492,781	-124,569	0,029	0,003
-491,766	38,421	-0,052	-0,034
-490,751	76,284	0,040	-0,031
-489,737	148,396	0,077	0,076
-488,722	-200,000	-0,010	-0,055
-487,708	335,720	0,103	-0,147
-486,693	-200,000	-0,030	-0,122
-485,678	-18,304	-0,148	0,067
-484,664	-200,000	0,022	-0,096
-483,649	-49,657	-0,026	0,009
-482,635	73,400	0,071	0,054
-481,620	-200,000	0,035	0,137
-480,605	800,000	-0,046	0,111
-479,591	3,636	-0,185	0,099
-478,576	-200,000	-0,014	0,144
-477,562	59,415	0,051	-0,037
-476,547	800,000	-0,033	-0,072
-475,532	73,715	-0,017	0,013
-474,518	-200,000	0,023	0,100
-473,503	423,532	0,027	-0,043
-472,489	8,173	0,060	0,033
-471,474	58,092	-0,133	-0,095
-470,459	800,000	-0,065	-0,161
-469,445	800,000	0,056	-0,156
-468,430	-65,776	-0,032	-0,009
-467,416	-9,895	0,067	0,032
-466,401	-200,000	0,057	0,197
-465,386	146,097	0,061	0,060
-464,372	51,084	0,124	0,086
-463,357	42,053	-0,155	-0,103
-462,343	10,775	-0,027	0,015
-461,328	96,919	-0,042	-0,035
-460,313	800,000	-0,003	0,007
-459,299	289,015	0,089	0,119
-458,284	191,065	0,077	0,085
-457,270	107,203	0,073	0,063
-456,255	800,000	0,024	-0,056
-455,241	-19,741	0,033	0,015
-454,226	789,995	0,079	-0,160
-453,211	173,945	0,099	-0,105
-452,197	-86,870	0,098	0,022
-451,182	432,817	0,052	0,082
-450,168	-109,019	-0,056	-0,009
-449,153	-55,259	0,110	0,036
-448,138	315,256	0,051	-0,070
-447,124	267,598	0,076	-0,098
-446,109	800,000	0,027	-0,074
-445,095	-91,227	0,113	-0,024
-444,080	138,600	0,019	-0,018
-443,065	96,960	-0,058	0,049
-442,051	800,000	-0,045	0,111
-441,036	-200,000	0,017	-0,094
-440,022	-35,783	-0,079	-0,031
-439,007	-37,621	-0,100	0,039
-437,992	404,316	-0,077	-0,119
-436,978	-163,109	-0,161	0,006
-435,963	800,000	0,069	0,167
-434,949	800,000	0,033	-0,073
-433,934	-21,703	-0,101	0,045
-432,919	-150,504	-0,169	-0,009
-431,905	-53,280	0,037	-0,012
-430,890	9,548	0,085	-0,047
-429,876	-31,611	0,023	0,009
-428,861	-200,000	-0,022	0,110
-427,846	-200,000	-0,004	0,092
-426,832	-67,199	-0,091	-0,026
-425,817	-53,705	-0,061	0,020
-424,803	-25,172	-0,027	0,012
-423,788	-200,000	-0,026	0,121
-422,773	800,000	0,026	0,074
-421,759	88,148	-0,067	-0,054
-420,744	76,673	0,164	-0,127
-419,730	47,842	-0,113	0,077
-418,715	-200,000	-0,011	-0,064
-417,701	-200,000	-0,023	-0,075
-416,686	-47,934	0,118	0,041
-415,671	800,000	0,025	0,055
-414,657	-70,891	0,186	-0,051
-413,642	-200,000	0,006	-0,055
-412,628	-158,318	0,043	0,002
-411,613	100,310	0,113	0,096
-410,598	-200,000	0,018	0,073
-409,584	-89,273	-0,138	-0,030
-408,569	77,685	-0,132	0,103
-407,555	800,000	-0,021	-0,055
-406,540	-29,923	0,184	0,076
-405,525	-118,270	-0,136	-0,017
-404,511	18,709	-0,106	-0,062
-403,496	-105,157	0,069	-0,011
-402,482	800,000	0,012	0,035
-401,467	-32,568	0,066	0,027
-400,452	21,241	0,052	0,031
-399,438	263,378	-0,038	0,049
-398,423	800,000	-0,017	-0,035
-397,409	-200,000	-0,012	-0,186
-396,394	17,064	-0,063	0,036
-395,379	-46,113	0,167	0,060
-394,365	800,000	0,060	0,133
-393,350	-200,000	-0,016	-0,092
-392,336	636,817	0,021	0,040
-391,321	-28,123	0,041	-0,017
-390,306	85,049	-0,035	0,028
-389,292	-200,000	-0,028	-0,144
-388,277	-55,872	0,094	-0,030
-387,263	77,197	0,054	0,042
-386,248	157,452	0,082	-0,083
-385,233	128,045	0,039	-0,037
-384,219	800,000	0,036	-0,103
-383,204	-200,000	-0,010	-0,192
-382,190	-59,917	-0,145	-0,045
-381,175	800,000	0,034	-0,087
-380,160	800,000	-0,044	0,110
-379,146	270,107	0,111	0,142
-378,131	-200,000	-0,005	-0,077
-377,117	800,000	-0,027	0,083
-376,102	-200,000	-0,008	-0,101
-375,088	-62,363	0,124	-0,037
-374,073	-109,404	-0,090	0,014
-373,058	800,000	0,029	-0,061
-372,044	788,829	0,050	0,100
-371,029	800,000	-0,034	-0,102
-370,015	128,352	-0,048	-0,045
-369,000	148,650	-0,030	0,030
-367,985	800,000	0,033	-0,086
-366,971	-5,833	-0,057	-0,028
-365,956	-39,356	0,048	0,018
-364,942	-200,000	-0,000	0,069
-363,927	-51,579	0,063	0,021
-362,912	-200,000	-0,027	-0,110
-361,898	-116,061	0,051	0,007
-360,883	800,000	-0,044	0,108
-359,869	-36,130	-0,113	-0,044
-358,854	-144,035	0,134	-0,009
-357,839	800,000	-0,032	-0,090
-356,825	-200,000	-0,000	0,055
-355,810	447,992	-0,022	-0,036
-354,796	-200,000	0,020	0,089
-353,781	-200,000	0,020	0,101
-352,766	-200,000	-0,049	0,000
-351,752	-109,516	0,070	-0,011
-350,737	-145,269	-0,037	0,002
-349,723	639,522	0,094	-0,175
-348,708	549,364	0,052	0,092
-347,693	360,364	-0,111	-0,162
-346,679	3,751	-0,028	-0,015
-345,664	-33,090	-0,088	-0,035
-344,650	337,091	0,150	0,213
-343,635	-200,000	0,004	0,114
-342,620	-200,000	0,005	0,034
-341,606	-94,226	-0,075	0,015
-340,591	-148,462	0,084	-0,005
-339,577	800,000	-0,038	-0,118
-338,562	203,407	0,034	0,039
-337,548	336,900	0,103	-0,147
-336,533	-103,605	0,114	-0,019
-335,518	-84,870	-0,099	0,022
-334,504	-200,000	-0,014	0,059
-333,489	114,362	-0,027	-0,024
-332,475	800,000	-0,034	-0,086
-331,460	55,589	-0,107	-0,075
-330,445	51,288	-0,128	-0,089
-329,431	140,019	0,054	0,052
-328,416	-61,088	0,102	0,031
-327,402	-21,349	0,176	0,078
-326,387	9,479	-0,127	-0,070
-325,372	191,058	-0,054	-0,059
-324,358	128,155	-0,107	-0,099
-323,343	503,978	0,038	0,065
-322,329	-200,000	0,002	0,078
-321,314	-10,240	-0,072	0,035
-320,299	-7,045	0,170	0,084
-319,285	0,821	-0,119	0,062
-318,270	-200,000	0,011	-0,106
-317,256	-200,000	0,008	-0,161
-316,241	4,052	0,056	-0,030
-315,226	-130,912	0,106	0,010
-314,212	-67,691	-0,059	-0,017
-313,197	659,989	0,006	0,012
-312,183	-200,000	0,022	0,134
-311,168	-121,090	-0,145	-0,018
-310,153	800,000	-0,016	-0,035
-309,139	-119,046	0,059	-0,007
-308,124	-80,059	0,057	-0,014
-307,110	-71,552	0,111	0,030
-306,095	-5,030	-0,055	0,027
-305,080	-33,221	0,070	0,028
-304,066	643,667	-0,102	-0,190
-303,051	201,006	0,045	-0,051
-302,037	126,006	0,056	0,051
-301,022	-31,311	-0,069	0,028
-300,008	800,000	0,040	0,106
-298,993	-200,000	0,006	0,066
-297,978	-200,000	0,004	-0,081
-296,964	26,936	0,087	-0,053
-295,949	-200,000	0,004	-0,028
-294,935	800,000	0,018	-0,040
-293,920	800,000	0,009	0,029
-292,905	15,613	-0,073	-0,042
-291,891	-46,827	-0,121	0,043
-290,876	-200,000	-0,021	0,145
-289,862	148,327	-0,122	0,120
-288,847	-200,000	-0,043	-0,204
-287,832	800,000	-0,031	-0,081
-286,818	451,600	-0,045	-0,073
-285,803	-139,788	0,049	0,004
-284,789	-200,000	0,037	0,199
-283,774	371,078	0,030	0,045
-282,759	-200,000	0,003	0,051
-281,745	-200,000	-0,005	-0,027
-280,730	-200,000	0,014	-0,180
-279,716	-43,204	0,029	-0,011
-278,701	-200,000	0,003	-0,052
-277,686	-167,972	0,060	-0,002
-276,672	-200,000	0,005	-0,042
-275,657	-200,000	0,015	-0,160
-274,643	-200,000	0,016	0,168
-273,628	479,378	0,023	0,039
-272,613	20,285	-0,068	-0,040
-271,599	-90,179	-0,109	-0,023
-270,584	446,671	-0,061	0,097
-269,570	800,000	-0,035	0,083
-268,555	800,000	0,041	0,108
-267,540	-43,322	-0,133	0,049
-266,526	-200,000	-0,029	-0,156
-265,511	-151,229	0,049	0,003
-264,497	56,493	0,094	0,066
-263,482	294,949	0,083	0,111
-262,467	800,000	-0,005	-0,010
-261,453	1,649	0,152	0,080
-260,438	-151,888	-0,002	0,000
-259,424	800,000	0,024	-0,061
-258,409	308,028	0,034	0,046
-257,395	-200,000	0,009	0,063
-256,380	222,650	-0,055	-0,064
-255,365	89,755	0,078	0,064
-254,351	800,000	0,016	-0,051
-253,336	23,908	-0,090	-0,054
-252,322	-16,109	-0,153	-0,070
-251,307	40,459	-0,151	-0,099
-250,292	202,333	0,028	-0,032
-249,278	23,645	0,118	-0,071
-248,263	632,244	0,041	0,075
-247,249	-187,613	0,133	-0,001
-246,234	800,000	0,017	-0,038
-245,219	-200,000	-0,034	-0,110
-244,205	-146,981	-0,050	-0,003
-243,190	-200,000	-0,011	-0,103
-242,176	-175,264	0,115	0,002
-241,161	-123,118	-0,098	-0,011
-240,146	-53,700	0,057	0,019
-239,132	78,946	-0,077	0,060
-238,117	-128,448	-0,113	-0,011
-237,103	-110,116	0,126	0,019
-236,088	517,951	0,098	0,168
-235,073	649,346	0,033	0,061
-234,059	275,642	-0,049	0,064
-233,044	122,935	0,105	0,096
-232,030	302,554	0,031	0,041
-231,015	-47,082	0,135	0,048
-230,000	36,660	-0,089	0,057
-228,986	-200,000	0,003	-0,023
-227,971	800,000	0,051	-0,128
-226,957	-25,850	0,135	0,057
-225,942	-144,529	0,111	0,007
-224,927	-5,547	-0,091	-0,045
-223,913	-111,423	-0,109	-0,016
-222,898	782,802	0,070	-0,139
-221,884	-200,000	0,024	-0,081
-220,869	-65,932	0,028	0,008
-219,855	-75,649	0,183	-0,047
-218,840	83,349	-0,021	0,017
-217,825	-94,385	-0,099	0,020
-216,811	-135,739	0,086	-0,007
-215,796	-200,000	-0,009	-0,035
-214,782	230,124	-0,036	0,042
-213,767	-38,312	-0,063	0,024
-212,752	800,000	-0,028	-0,068
-211,738	59,633	-0,019	0,014
-210,723	-200,000	-0,008	0,115
-209,709	289,236	0,068	-0,090
-208,694	222,284	0,088	0,103
-207,679	-102,800	-0,059	0,010
-206,665	800,000	-0,044	0,124
-205,650	-53,324	-0,056	0,018
-204,636	66,952	-0,091	0,068
-203,621	540,008	-0,073	0,126
-202,606	402,611	0,028	-0,042
-201,592	188,564	-0,077	-0,084
-200,577	692,217	-0,050	0,095
-199,563	-200,000	-0,012	0,091
-198,548	233,703	0,069	0,082
-197,533	-200,000	0,062	0,200
-196,519	30,647	-0,056	-0,035
-195,504	-200,000	-0,018	0,097
-194,490	-200,000	0,017	-0,132
-193,475	-45,794	0,057	-0,020
-192,460	-189,408	0,099	-0,001
-191,446	-81,733	-0,004	0,001
-190,431	-109,446	0,181	0,027
-189,417	-93,824	0,093	0,018
-188,402	-188,633	-0,104	0,001
-187,387	325,382	0,050	-0,069
-186,373	-145,495	-0,073	0,005
-185,358	408,655	0,034	0,053
-184,344	-200,000	-0,033	0,181
-183,329	168,901	0,092	0,096
-182,315	147,124	0,122	0,119
-181,300	800,000	-0,058	0,135
-180,285	-105,122	-0,144	-0,024
-179,271	-174,549	-0,172	-0,003
-178,256	164,038	0,026	0,027
-177,242	687,900	0,078	0,148
-176,227	50,967	-0,106	0,073
-175,212	800,000	0,064	0,153
-174,198	-200,000	0,014	-0,141
-173,183	-200,000	0,022	-0,117
-172,169	800,000	-0,025	-0,056
-171,154	335,724	0,015	0,022
-170,139	-82,352	0,046	0,011
-169,125	-90,208	0,133	0,028
-168,110	-200,000	-0,018	-0,091
-167,096	31,044	0,130	-0,080
-166,081	800,000	-0,008	0,018
-165,066	-200,000	-0,002	0,107
-164,052	89,648	0,093	-0,075
-163,037	-36,966	-0,075	-0,029
-162,023	-103,389	0,109	0,018
-161,008	134,809	-0,089	0,084
-159,993	-35,342	-0,035	0,014
-158,979	88,295	-0,049	0,039
-157,964	-200,000	0,014	-0,107
-156,950	89,393	-0,083	0,067
-155,935	-152,635	0,120	0,006
-154,920	241,714	0,028	-0,033
-153,906	105,459	0,072	-0,062
-152,891	-200,000	-0,008	0,087
-151,877	-200,000	0,007	-0,052
-150,862	-200,000	0,017	-0,109
-149,847	85,677	0,091	-0,073
-148,833	-200,000	-0,015	0,201
-147,818	118,994	0,017	-0,015
-146,804	-129,988	0,028	0,003
-145,789	274,130	0,133	0,171
-144,775	-200,000	-0,004	-0,031
-143,760	-200,000	-0,009	-0,262
-142,745	800,000	0,043	-0,109
-141,731	-64,944	0,104	-0,030
-140,716	-98,552	-0,080	-0,015
-139,702	402,284	0,046	0,070
-138,687	88,337	0,020	0,016
-137,672	-3,170	-0,127	-0,064
-136,658	12,887	-0,089	0,049
-135,643	592,952	-0,080	0,144
-134,629	-200,000	0,025	-0,101
-133,614	800,000	0,033	-0,070
-132,599	8,671	0,049	-0,027
-131,585	800,000	0,022	0,064
-130,570	6,021	-0,071	0,038
-129,556	143,620	-0,017	0,016
-128,541	800,000	-0,013	-0,026
-127,526	462,033	-0,051	-0,083
-126,512	-200,000	-0,025	0,132
-125,497	-200,000	0,009	-0,039
-124,483	176,108	-0,020	0,021
-123,468	778,607	-0,036	-0,071
-122,453	-14,591	-0,085	0,039
-121,439	368,782	-0,047	0,068
-120,424	-38,112	0,053	0,020
-119,410	122,116	0,054	0,049
-118,395	-200,000	-0,010	-0,048
-117,380	-14,009	0,066	0,031
-116,366	36,314	-0,038	-0,024
-115,351	-166,338	0,132	0,004
-114,337	-200,000	-0,025	-0,098
-113,322	800,000	0,016	-0,039
-112,307	800,000	-0,053	-0,129
-111,293	-71,468	0,124	-0,033
-110,278	203,497	0,093	0,105
-109,264	20,979	-0,078	-0,046
-108,249	-200,000	-0,011	-0,058
-107,234	-30,127	0,088	0,036
-106,220	783,446	-0,060	-0,120
-105,205	-71,456	0,119	-0,032
-104,191	596,068	0,048	0,086
-103,176	800,000	0,023	-0,067
-102,162	-64,160	0,058	-0,017
-101,147	-67,524	-0,139	-0,039
-100,132	-112,396	-0,124	0,018
-99,118	800,000	-0,022	-0,058
-98,103	-80,623	-0,054	-0,013
-97,089	317,068	0,073	0,100
-96,074	127,426	-0,108	0,099
-95,059	-67,861	0,180	0,051
-94,045	800,000	0,008	0,024
-93,030	-92,256	-0,215	0,043
-92,016	-200,000	0,039	0,150
-91,001	800,000	0,025	0,058
-89,986	800,000	-0,061	0,179
-88,972	-200,000	0,015	0,159
-87,957	-200,000	-0,023	0,094
-86,943	-200,000	0,020	-0,133
-85,928	800,000	-0,035	-0,081
-84,913	780,637	-0,048	-0,096
-83,899	388,302	-0,037	0,056
-82,884	68,602	0,157	0,116
-81,870	-20,809	0,046	0,020
-80,855	-200,000	-0,046	0,149
-79,840	800,000	0,021	-0,064
-78,826	476,785	-0,051	-0,084
-77,811	32,800	-0,076	-0,048
-76,797	-31,277	-0,051	0,020
-75,782	-200,000	0,014	0,078
-74,767	-200,000	-0,021	0,070
-73,753	-198,562	-0,049	0,000
-72,738	-200,000	-0,004	0,086
-71,724	-107,138	-0,120	0,019
-70,709	264,723	-0,035	0,044
-69,694	800,000	0,035	-0,072
-68,680	-200,000	-0,017	-0,112
-67,665	-200,000	-0,006	0,149
-66,651	345,400	0,066	0,094
-65,636	192,646	-0,033	-0,036
-64,622	-73,652	-0,084	-0,022
-63,607	-200,000	0,016	0,058
-62,592	-200,000	-0,007	-0,110
-61,578	43,382	0,073	-0,048
-60,563	640,793	-0,020	-0,038
-59,549	-70,185	-0,019	-0,005
-58,534	69,734	-2,115	-1,572
-57,519	558,784	-1,111	-1,942
-56,505	-200,000	-0,307	-4,268
-55,490	692,165	0,902	1,713
-54,476	800,000	5,161	11,299
-53,461	-200,000	21,950	344,922
-52,446	800,000	755,870	2315,457
-51,432	514,643	1644,709	2780,287
-50,417	68,514	1574,675	1163,692
-49,403	19,690	1148,512	665,233
-48,388	11,876	867,507	479,509
-47,373	25,958	833,953	500,564
-46,359	17,424	819,680	468,443
-45,344	8,716	815,533	441,963
-44,330	8,521	813,839	440,489
-43,315	8,458	812,487	439,564
-42,300	8,558	811,261	439,161
-41,286	8,569	810,179	438,586
-40,271	8,454	809,491	437,880
-39,257	8,493	808,613	437,496
-38,242	8,552	807,335	436,948
-37,227	8,571	806,726	436,653
-36,213	8,580	805,797	436,158
-35,198	8,533	804,950	435,554
-34,184	8,634	804,345	435,487
-33,169	8,478	803,653	434,666
-32,154	8,536	802,867	434,383
-31,140	8,653	801,486	433,940
-30,125	8,675	800,818	433,620
-29,111	8,533	800,513	433,050
-28,096	8,483	800,136	432,692
-27,082	8,531	799,162	432,280
-26,067	8,565	798,471	431,980
-25,052	8,566	797,676	431,537
-24,038	8,529	797,353	431,245
-23,023	8,554	796,460	430,812
-22,009	8,575	795,897	430,546
-20,994	8,693	794,960	430,341
-19,979	8,602	794,480	429,820
-18,965	8,525	793,988	429,329
-17,950	8,632	793,546	429,362
-16,936	8,564	792,921	428,822
-15,921	8,533	792,152	428,306
-14,906	8,490	791,606	427,878
-13,892	8,528	791,035	427,654
-12,877	8,516	790,448	427,286
-11,863	8,417	790,007	426,765
-10,848	8,471	789,528	426,635
-9,833	8,512	789,239	426,574
-8,819	8,555	788,231	426,126
-7,804	8,591	787,673	425,903
-6,790	8,544	787,312	425,566
-5,775	8,523	786,966	425,307
-4,760	8,541	786,480	425,075
-3,746	8,461	786,023	424,597
-2,731	8,273	785,456	423,772
-1,717	8,265	785,167	423,577
-0,702	8,392	784,194	423,373
0,313	8,325	781,527	422,396
1,327	12,297	763,457	422,899
2,342	20,903	620,874	361,948
3,356	14,641	342,955	192,662
4,371	-15,546	230,995	105,889
5,386	-18,654	217,555	97,386
6,400	-18,727	213,409	95,469
7,415	-17,821	211,656	95,337
8,429	-18,851	210,474	94,049
9,444	-19,025	209,669	93,554
10,459	-18,936	209,214	93,407
11,473	-18,769	208,667	93,275
12,488	-18,809	208,264	93,058
13,502	-19,161	207,749	92,567
14,517	-19,070	207,521	92,523
15,531	-18,873	207,049	92,445
16,546	-18,958	206,907	92,312
17,561	-19,108	206,418	91,979
18,575	-18,868	206,257	92,070
19,590	-19,092	205,862	91,727
20,604	-18,661	205,657	91,932
21,619	-18,777	205,162	91,621
22,634	-18,947	204,854	91,356
23,648	-19,041	204,919	91,310
24,663	-18,707	204,345	91,281
25,677	-18,824	204,198	91,125
26,692	-18,965	204,056	90,955
27,707	-18,829	203,857	90,953
28,721	-18,588	203,596	90,997
29,736	-18,950	203,563	90,721
30,750	-19,117	203,242	90,453
31,765	-18,922	202,966	90,459
32,780	-18,996	202,870	90,356
33,794	-18,985	202,705	90,282
34,809	-18,821	202,301	90,208
35,823	-18,837	202,139	90,116
36,838	-18,883	201,958	89,996
37,853	-18,944	201,829	89,888
38,867	-18,910	201,547	89,778
39,882	-18,724	201,218	89,752
40,896	-18,720	201,149	89,716
41,911	-18,661	200,895	89,635
42,926	-19,028	200,865	89,361
43,940	-18,819	200,449	89,312
44,955	-18,740	200,299	89,291
45,969	-18,779	200,308	89,261
46,984	-18,726	200,028	89,164
47,999	-18,928	199,874	88,949
49,013	-18,666	199,859	89,115
50,028	-18,588	199,539	89,017
51,042	-18,543	199,268	88,920
52,057	-18,549	199,217	88,884
53,071	-18,777	198,958	88,605
54,086	-18,628	198,783	88,621
55,101	-18,780	198,632	88,442
56,115	-18,657	198,365	88,399
57,130	-18,932	198,258	88,156
58,144	-18,959	198,023	88,025
59,159	-18,909	197,725	87,919
60,174	-18,908	197,626	87,868
61,188	-18,909	197,487	87,798
62,203	-18,965	197,277	87,659
63,217	-18,636	197,231	87,853
64,232	-18,760	197,007	87,662
65,247	-18,894	196,798	87,470
66,261	-18,704	196,599	87,502
67,276	-18,782	196,329	87,322
68,290	-18,434	196,269	87,521
69,305	-18,570	196,127	87,359
70,320	-18,887	196,125	87,137
71,334	-18,785	195,776	87,042
72,349	-18,952	195,527	86,812
73,363	-18,670	195,375	86,926
74,378	-18,821	195,244	86,759
75,393	-18,779	195,120	86,724
76,407	-18,640	194,862	86,695
77,422	-18,724	194,589	86,509
78,436	-18,742	194,506	86,453
79,451	-18,597	194,253	86,429
80,466	-18,894	194,176	86,189
81,480	-18,712	194,010	86,229
82,495	-18,712	193,824	86,139
83,509	-18,516	193,649	86,183
84,524	-18,810	193,582	85,951
85,539	-18,700	193,425	85,946
86,553	-18,760	193,215	85,806
87,568	-18,727	193,102	85,769
88,582	-18,649	192,894	85,721
89,597	-18,674	192,669	85,597
90,611	-18,893	192,615	85,421
91,626	-18,956	192,412	85,282
92,641	-18,741	192,370	85,397
93,655	-18,577	192,102	85,379
94,670	-18,673	191,932	85,232
95,684	-18,848	191,875	85,084
96,699	-18,889	191,570	84,915
97,714	-18,747	191,558	84,995
98,728	-18,445	191,280	85,061
99,743	-18,503	191,238	84,997
100,757	-18,737	191,042	84,750
101,772	-18,511	190,785	84,776
102,787	-18,599	190,649	84,650
103,801	-18,704	190,561	84,535
104,816	-18,669	190,476	84,513
105,830	-18,687	190,204	84,373
106,845	-18,574	190,016	84,355
107,860	-18,528	189,858	84,308
108,874	-18,776	189,711	84,074
109,889	-18,583	189,582	84,134
110,903	-18,593	189,416	84,046
111,918	-18,545	189,301	84,019
112,933	-18,512	189,100	83,944
113,947	-18,473	188,909	83,877
114,962	-18,572	188,840	83,775
115,976	-18,519	188,664	83,723
116,991	-18,747	188,553	83,520
118,006	-18,679	188,390	83,484
119,020	-18,418	188,332	83,619
120,035	-18,579	188,186	83,443
121,049	-18,677	188,081	83,326
122,064	-18,703	187,867	83,207
123,079	-18,610	187,884	83,267
124,093	-18,531	187,357	83,076
125,108	-18,757	187,409	82,947
126,122	-18,875	187,267	82,802
127,137	-18,197	187,117	83,161
128,151	-18,826	187,099	82,744
129,166	-18,797	186,908	82,671
130,181	-18,650	186,663	82,649
131,195	-18,665	186,543	82,579
132,210	-18,962	186,284	82,268
133,224	-18,548	186,143	82,461
134,239	-18,596	186,015	82,367
135,254	-18,438	185,680	82,311
136,268	-18,642	185,632	82,153
137,283	-18,447	185,563	82,238
138,297	-18,499	185,325	82,093
139,312	-18,652	185,062	81,872
140,327	-18,635	184,785	81,753
141,341	-19,272	184,837	81,368
142,356	-19,605	184,733	81,105
143,370	-18,047	184,972	82,185
144,385	-10,956	187,027	87,606
145,400	-4,190	188,435	92,588
146,414	-2,810	188,531	93,508
147,429	-2,399	188,548	93,771
148,443	-2,432	188,536	93,736
149,458	-2,221	188,435	93,812
150,473	-1,889	188,304	93,950
151,487	-1,818	188,132	93,901
152,502	-1,641	188,024	93,951
153,516	-1,657	187,946	93,894
154,531	-1,752	187,799	93,752
155,546	-1,719	187,597	93,663
156,560	-1,714	187,539	93,630
157,575	-1,376	187,221	93,676
158,589	-1,415	187,157	93,611
159,604	-1,585	187,060	93,446
160,619	-1,549	186,815	93,338
161,633	-1,665	186,840	93,269
162,648	-1,345	186,803	93,445
163,662	-1,257	186,766	93,473
164,677	-1,504	186,571	93,212
165,692	-1,371	186,536	93,270
166,706	-1,296	186,340	93,211
167,721	-1,276	186,233	93,162
168,735	-1,439	185,983	92,926
169,750	-1,323	185,934	92,966
170,764	-1,210	185,761	92,942
171,779	-1,343	185,871	92,906
172,794	-1,215	185,591	92,837
173,808	-1,148	185,534	92,842
174,823	-1,244	185,201	92,607
175,837	-1,410	185,187	92,489
176,852	-1,375	185,098	92,457
177,867	-1,197	184,948	92,486
178,881	-1,310	184,917	92,391
179,896	-1,244	184,723	92,327
180,910	-1,244	184,606	92,260
181,925	-1,212	184,462	92,200
182,940	-1,425	184,275	91,966
183,954	-1,327	184,189	91,976
184,969	-1,035	184,086	92,098
185,983	-1,412	183,957	91,790
186,998	-1,208	183,737	91,800
188,013	-0,997	183,726	91,916
189,027	-0,987	183,485	91,794
190,042	-1,022	183,320	91,681
191,056	-1,206	183,262	91,530
192,071	-1,013	183,142	91,582
193,086	-0,962	183,019	91,543
194,100	-0,965	183,020	91,534
195,115	-0,717	182,605	91,471
196,129	-1,038	182,622	91,273
197,144	-1,045	182,439	91,170
198,159	-0,837	182,300	91,220
199,173	-1,129	182,377	91,071
200,188	-0,974	181,965	90,952
201,202	-1,049	182,103	90,966
202,217	-1,139	181,771	90,738
203,232	-0,809	181,546	90,819
204,246	-0,869	181,556	90,779
205,261	-1,225	181,399	90,475
206,275	-1,237	181,294	90,407
207,290	-1,098	181,209	90,442
208,304	-0,780	181,035	90,541
209,319	-1,048	180,932	90,318
210,334	-1,101	180,778	90,201
211,348	-0,957	180,540	90,162
212,363	-1,052	180,551	90,101
213,377	-0,829	180,445	90,176
214,392	-0,772	180,378	90,169
215,407	-0,915	180,342	90,056
216,421	-0,755	180,036	89,992
217,436	-1,000	179,875	89,755
218,450	-0,911	179,761	89,744
219,465	-0,837	179,728	89,764
220,480	-0,750	179,525	89,707
221,494	-0,693	179,410	89,676
222,509	-1,014	179,531	89,535
223,523	-0,662	179,154	89,551
224,538	-0,559	179,106	89,581
225,553	-0,656	178,900	89,412
226,567	-0,709	178,815	89,330
227,582	-0,640	178,811	89,361
228,596	-0,859	178,621	89,127
229,611	-0,630	178,638	89,264
230,626	-0,884	178,497	89,034
231,640	-0,538	178,193	89,081
232,655	-0,487	178,125	89,070
233,669	-0,504	178,071	89,025
234,684	-0,907	178,013	88,747
235,699	-0,554	177,684	88,786
236,713	-0,476	177,614	88,789
237,728	-0,884	177,620	88,541
238,742	-0,620	177,382	88,572
239,757	-0,597	177,267	88,521
240,772	-0,287	177,156	88,641
241,786	-0,495	177,038	88,451
242,801	-0,397	176,984	88,474
243,815	-0,681	176,996	88,303
244,830	-0,530	176,725	88,250
245,844	-0,477	176,567	88,194
246,859	-0,630	176,552	88,088
247,874	-0,813	176,519	87,956
248,888	-0,549	176,260	87,975
249,903	-0,533	176,133	87,913
250,917	-0,294	176,139	88,049
251,932	-0,454	175,985	87,870
252,947	-0,274	175,792	87,872
253,961	-0,443	175,685	87,711
254,976	-0,507	175,556	87,601
255,990	-0,464	175,435	87,559
257,005	-0,588	175,394	87,458
258,020	-0,568	175,330	87,429
259,034	-0,465	175,165	87,399
260,049	-0,421	175,165	87,418
261,063	-0,350	174,745	87,242
262,078	-0,567	174,879	87,174
263,093	-0,374	174,684	87,182
264,107	-0,363	174,633	87,155
265,122	-0,308	174,414	87,070
266,136	-0,149	174,352	87,124
267,151	-0,255	174,215	86,986
268,166	-0,452	174,152	86,832
269,180	-0,254	173,899	86,813
270,195	-0,175	173,703	86,754
271,209	-0,200	173,667	86,714
272,224	-0,136	173,599	86,709
273,239	0,023	173,558	86,773
274,253	-0,333	173,484	86,522
275,268	-0,538	173,449	86,377
276,282	-0,281	173,172	86,381
277,297	-0,329	173,007	86,263
278,312	-0,314	172,848	86,185
279,326	-0,187	172,840	86,246
280,341	-0,266	172,801	86,174
281,355	0,177	172,532	86,287
282,370	-0,076	172,497	86,117
283,384	-0,021	172,333	86,058
284,399	-0,141	172,154	85,893
285,414	-0,085	172,148	85,914
286,428	-0,016	172,170	85,957
287,443	-0,172	171,999	85,774
288,457	-0,107	171,847	85,728
289,472	-0,188	171,732	85,617
290,487	-0,198	171,675	85,575
291,501	-0,363	171,636	85,453
292,516	-0,135	171,283	85,400
293,530	-0,371	171,354	85,293
294,545	0,064	171,130	85,423
295,560	0,022	171,061	85,356
296,574	-0,196	171,037	85,213
297,589	-0,211	170,934	85,145
298,603	-0,171	170,636	85,012
299,618	-0,222	170,558	84,937
300,633	-0,172	170,617	84,986
301,647	0,094	170,261	84,953
302,662	-0,057	170,280	84,869
303,676	0,095	170,358	84,987
304,691	-0,245	170,132	84,673
305,706	-0,115	169,895	84,621
306,720	0,295	169,740	84,769
307,735	-0,037	169,736	84,571
308,749	0,199	169,589	84,624
309,764	0,068	169,427	84,461
310,779	-0,146	169,516	84,377
311,793	-0,102	169,424	84,349
312,808	0,075	169,199	84,329
313,822	0,019	169,040	84,211
314,837	0,374	168,970	84,368
315,852	0,076	168,795	84,106
316,866	0,278	168,784	84,206
317,881	0,170	168,565	84,029
318,895	0,204	168,517	84,017
319,910	0,185	168,346	83,913
320,925	0,270	168,243	83,902
321,939	0,083	168,184	83,761
322,954	-0,131	168,187	83,635
323,968	0,156	168,033	83,711
324,983	0,490	167,799	83,774
325,997	0,088	167,847	83,566
327,012	0,215	167,544	83,478
328,027	0,268	167,487	83,472
329,041	0,440	167,334	83,484
330,056	-0,019	167,296	83,202
331,070	0,412	167,271	83,422
332,085	0,437	167,073	83,330
333,100	0,294	166,982	83,197
334,114	0,095	166,980	83,078
335,129	0,383	166,863	83,173
336,143	0,141	166,639	82,920
337,158	0,334	166,584	82,992
338,173	0,023	166,461	82,751
339,187	0,467	166,279	82,899
340,202	0,352	166,163	82,770
341,216	0,382	166,164	82,780
342,231	0,064	166,150	82,590
343,246	0,438	165,881	82,655
344,260	0,362	165,794	82,562
345,275	0,396	165,570	82,462
346,289	0,252	165,727	82,453
347,304	0,480	165,561	82,489
348,319	0,588	165,441	82,481
349,333	0,283	165,260	82,216
350,348	0,086	165,266	82,104
351,362	0,390	165,003	82,132
352,377	0,291	165,009	82,073
353,392	0,534	164,893	82,141
354,406	0,177	164,836	81,911
355,421	189,921	1325,332	1391,801
356,435	150,167	1467,162	1392,280
