DTS Sentinel unit serial number:	SN410029Multiplexer serial number:	ORYXHardware model number:	OX2-SRSoftware version number:	ORYX F/W v4,00 Oryx Data Collector v3.7.2.0data status	okinstallation	B3 Nyhavnadifferential loss correction	single-endedforward channel	channel 1reverse channel	N/Adate	2023/11/28time	15:27:30forward acquisition time	300,00reverse acquisition time	0,00gamma	499,1914k internal	0,3181k external	0,3181temperature offset calibration	1,0000default loss term (dB/km)	0,3820temperature slope calibration	1,0000multiplexer offset coefficient	1,0000multiplexer slope coefficient	1,0000fibre end	0,00T internal ref (°C)	7,31T ext. ref 1 (°C)	-7,54T ext. ref 2 (°C)	-7,72length (m)	temperature (°C)	Stokes	anti-Stokes-744,400	301,141	-0,155	-0,210
-743,385	-200,000	0,013	0,193
-742,371	25,460	-0,097	-0,059
-741,356	800,000	-0,095	0,280
-740,342	-200,000	-0,045	-0,200
-739,327	-200,000	-0,039	0,325
-738,312	105,684	-0,281	-0,243
-737,298	-200,000	0,035	0,193
-736,283	234,946	-0,282	-0,341
-735,269	554,218	0,108	0,190
-734,254	-24,017	-0,246	-0,107
-733,239	47,739	-0,297	0,202
-732,225	-200,000	-0,058	-0,251
-731,210	-200,000	0,026	0,165
-730,196	285,271	0,068	-0,090
-729,181	-40,154	0,066	-0,025
-728,167	-117,421	-0,218	-0,028
-727,152	-200,000	-0,012	-0,084
-726,137	132,829	0,048	-0,046
-725,123	208,879	-0,033	-0,038
-724,108	-200,000	-0,006	-0,057
-723,094	800,000	-0,025	-0,056
-722,079	642,565	-0,058	-0,109
-721,064	183,070	-0,040	-0,043
-720,050	329,223	-0,034	-0,048
-719,035	-200,000	-0,011	0,103
-718,021	800,000	-0,056	-0,135
-717,006	-106,782	-0,157	-0,025
-715,991	800,000	-0,071	-0,159
-714,977	-200,000	0,004	0,045
-713,962	636,989	-0,070	-0,130
-712,948	-147,854	0,078	-0,005
-711,933	800,000	-0,061	-0,139
-710,918	-127,124	-0,139	0,015
-709,904	-20,614	-0,172	-0,077
-708,889	166,040	0,044	-0,046
-707,875	473,385	0,014	-0,022
-706,860	267,883	0,131	0,168
-705,845	-101,338	-0,075	0,013
-704,831	-144,615	0,059	-0,004
-703,816	-200,000	0,037	-0,169
-702,802	416,779	-0,102	-0,160
-701,787	800,000	-0,046	-0,105
-700,772	31,184	-0,140	0,088
-699,758	644,701	0,047	-0,088
-698,743	80,683	-0,094	0,074
-697,729	-200,000	0,003	0,061
-696,714	67,550	0,056	0,042
-695,699	152,951	-0,013	0,013
-694,685	30,026	-0,144	0,089
-693,670	-106,566	-0,205	0,033
-692,656	377,623	-0,030	-0,044
-691,641	800,000	-0,040	0,103
-690,627	-200,000	-0,006	0,091
-689,612	-39,974	-0,028	-0,011
-688,597	-131,721	-0,109	0,010
-687,583	-200,000	0,008	-0,055
-686,568	-28,048	-0,101	-0,043
-685,554	800,000	0,020	0,054
-684,539	59,645	-0,166	0,119
-683,524	-8,675	0,088	-0,043
-682,510	-200,000	0,028	0,104
-681,495	83,831	0,079	-0,063
-680,481	-200,000	0,009	-0,060
-679,466	22,309	-0,119	0,071
-678,451	39,581	-0,096	-0,062
-677,437	-200,000	0,002	0,015
-676,422	65,213	0,098	0,072
-675,408	706,785	-0,058	-0,112
-674,393	-57,341	0,035	-0,011
-673,378	279,316	-0,060	-0,078
-672,364	800,000	-0,063	-0,186
-671,349	-70,900	-0,114	-0,031
-670,335	128,055	0,087	0,081
-669,320	72,251	0,079	0,060
-668,305	644,825	-0,027	-0,050
-667,291	-43,631	-0,129	-0,047
-666,276	23,314	-0,110	-0,066
-665,262	91,362	-0,087	0,071
-664,247	160,701	-0,159	0,162
-663,232	205,744	0,011	-0,013
-662,218	7,982	0,016	-0,009
-661,203	257,804	-0,044	-0,055
-660,189	23,461	-0,041	0,025
-659,174	-65,229	0,119	-0,035
-658,159	-157,427	-0,188	-0,008
-657,145	25,261	-0,045	-0,027
-656,130	78,028	-0,061	-0,047
-655,116	9,912	0,110	0,061
-654,101	-115,612	0,011	0,001
-653,086	76,961	-0,067	-0,052
-652,072	-200,000	0,026	0,124
-651,057	758,276	-0,110	-0,218
-650,043	800,000	0,031	-0,080
-649,028	-45,691	-0,180	0,065
-648,014	800,000	0,040	0,127
-646,999	-80,084	-0,131	0,032
-645,984	-200,000	0,006	0,097
-644,970	-83,818	-0,061	0,014
-643,955	-144,835	-0,056	-0,004
-642,941	-5,060	-0,069	-0,034
-641,926	96,731	0,082	0,069
-640,911	-200,000	0,010	0,054
-639,897	370,856	0,045	-0,067
-638,882	-187,945	-0,020	-0,000
-637,868	393,628	-0,051	0,077
-636,853	67,796	-0,076	-0,056
-635,838	-35,940	0,094	0,037
-634,824	100,944	-0,078	-0,066
-633,809	-79,710	0,101	-0,025
-632,795	29,764	0,022	0,014
-631,780	800,000	-0,082	0,179
-630,765	-71,234	-0,117	0,032
-629,751	-47,264	-0,186	-0,066
-628,736	-106,222	0,092	-0,015
-627,722	64,482	-0,155	-0,114
-626,707	49,082	0,108	0,074
-625,692	381,056	0,078	0,116
-624,678	-200,000	0,017	0,094
-623,663	-200,000	-0,012	0,159
-622,649	313,748	-0,082	-0,113
-621,634	225,681	-0,053	-0,062
-620,619	64,563	-0,085	-0,062
-619,605	-48,075	-0,094	-0,033
-618,590	-200,000	0,040	0,149
-617,576	21,132	0,120	0,071
-616,561	-39,578	-0,113	0,043
-615,546	187,019	-0,083	-0,091
-614,532	-130,313	0,114	0,011
-613,517	-200,000	0,004	0,029
-612,503	135,059	0,073	0,069
-611,488	-133,997	-0,079	-0,007
-610,474	-1,344	-0,032	0,016
-609,459	208,912	0,066	-0,076
-608,444	86,323	0,040	0,032
-607,430	96,928	-0,142	0,118
-606,415	-200,000	-0,001	-0,112
-605,401	102,153	0,076	-0,064
-604,386	256,433	0,009	-0,011
-603,371	-174,395	0,057	0,001
-602,357	-200,000	0,022	0,076
-601,342	-40,016	0,092	-0,035
-600,328	-32,205	-0,067	-0,027
-599,313	114,047	0,022	0,019
-598,298	8,043	-0,036	0,019
-597,284	246,666	0,117	-0,144
-596,269	164,061	0,024	0,025
-595,255	-200,000	-0,005	0,066
-594,240	800,000	-0,044	-0,111
-593,225	-200,000	-0,018	-0,079
-592,211	-200,000	0,019	-0,079
-591,196	-200,000	0,012	-0,060
-590,182	-200,000	0,008	-0,103
-589,167	-82,967	0,025	-0,006
-588,152	302,914	-0,080	0,108
-587,138	-200,000	0,003	0,034
-586,123	-200,000	0,004	-0,121
-585,109	279,153	0,073	-0,095
-584,094	397,614	0,039	-0,060
-583,079	-200,000	0,020	0,094
-582,065	-95,228	-0,066	0,013
-581,050	-143,328	0,094	0,006
-580,036	-200,000	-0,005	-0,059
-579,021	800,000	0,023	-0,055
-578,006	-169,540	-0,132	-0,003
-576,992	-200,000	0,037	-0,221
-575,977	800,000	0,024	0,052
-574,963	-177,685	0,124	0,002
-573,948	800,000	0,021	0,043
-572,934	-200,000	-0,002	-0,109
-571,919	-0,489	0,093	0,048
-570,904	-200,000	-0,008	-0,168
-569,890	26,269	-0,079	-0,048
-568,875	-195,668	-0,132	-0,001
-567,861	-166,158	-0,076	0,002
-566,846	800,000	0,020	-0,053
-565,831	464,718	-0,062	-0,101
-564,817	26,024	0,039	0,023
-563,802	800,000	-0,068	0,142
-562,788	-117,378	-0,073	0,009
-561,773	-84,588	-0,093	0,021
-560,758	-99,361	0,080	0,015
-559,744	800,000	0,029	0,087
-558,729	557,018	0,039	-0,068
-557,715	-135,013	0,077	-0,007
-556,700	19,560	-0,116	0,067
-555,685	800,000	0,035	-0,078
-554,671	-200,000	0,014	-0,094
-553,656	-200,000	0,026	-0,114
-552,642	-115,611	0,051	-0,007
-551,627	353,511	-0,036	-0,052
-550,612	-7,135	0,032	-0,016
-549,598	-105,569	-0,046	-0,008
-548,583	800,000	0,024	-0,063
-547,569	-44,620	-0,199	-0,072
-546,554	-200,000	0,015	-0,067
-545,539	-200,000	-0,003	0,072
-544,525	-200,000	-0,009	-0,168
-543,510	1,925	0,058	-0,030
-542,496	-122,574	0,039	0,005
-541,481	-200,000	-0,002	-0,057
-540,466	-194,359	0,091	0,001
-539,452	265,448	0,030	0,039
-538,437	-200,000	0,029	0,143
-537,423	800,000	0,022	0,059
-536,408	110,492	-0,048	-0,042
-535,393	180,113	-0,147	-0,157
-534,379	292,748	-0,050	-0,066
-533,364	38,075	-0,050	-0,032
-532,350	46,458	0,078	0,053
-531,335	-63,484	-0,076	0,023
-530,321	300,285	0,058	0,077
-529,306	8,900	-0,127	0,070
-528,291	25,340	-0,092	-0,055
-527,277	-200,000	-0,003	-0,050
-526,262	-200,000	0,005	0,049
-525,248	-200,000	0,031	-0,119
-524,233	105,144	0,152	0,130
-523,218	-56,630	-0,089	0,028
-522,204	-21,185	-0,014	-0,006
-521,189	-136,535	0,086	0,007
-520,175	131,594	-0,127	0,118
-519,160	-200,000	0,008	-0,032
-518,145	425,834	0,048	-0,075
-517,131	-81,545	0,151	-0,036
-516,116	-200,000	0,021	0,087
-515,102	15,558	0,106	-0,060
-514,087	212,421	-0,037	0,042
-513,072	204,063	0,047	-0,053
-512,058	-200,000	-0,018	0,061
-511,043	-127,916	-0,101	0,010
-510,029	216,426	0,114	0,132
-509,014	800,000	0,020	0,056
-507,999	-59,376	-0,075	-0,023
-506,985	8,731	0,017	-0,009
-505,970	-114,902	-0,223	0,030
-504,956	110,294	0,063	-0,055
-503,941	546,044	0,053	0,092
-502,926	-200,000	-0,007	0,075
-501,912	-200,000	-0,016	0,132
-500,897	-118,032	0,130	-0,017
-499,883	205,781	-0,109	-0,123
-498,868	209,805	-0,087	0,099
-497,853	-200,000	-0,018	-0,078
-496,839	-200,000	0,007	0,079
-495,824	-155,951	0,079	-0,004
-494,810	107,301	0,050	0,043
-493,795	-200,000	0,013	0,069
-492,781	-200,000	-0,004	-0,078
-491,766	-200,000	-0,001	-0,073
-490,751	-200,000	0,035	-0,116
-489,737	-39,230	-0,243	-0,092
-488,722	800,000	0,050	0,105
-487,708	1,912	0,177	0,092
-486,693	-146,879	0,083	0,005
-485,678	68,337	-0,044	0,032
-484,664	482,322	-0,043	-0,072
-483,649	-111,624	-0,155	-0,023
-482,635	196,582	-0,112	-0,124
-481,620	-175,121	-0,111	-0,002
-480,605	-141,257	0,036	0,003
-479,591	326,166	0,052	0,072
-478,576	-200,000	-0,017	-0,147
-477,562	202,130	0,041	0,046
-476,547	-132,408	-0,090	-0,008
-475,532	149,473	-0,136	0,134
-474,518	191,314	0,053	-0,058
-473,503	-200,000	-0,003	0,009
-472,489	103,786	0,085	0,073
-471,474	-22,049	-0,048	-0,021
-470,459	-52,183	-0,112	-0,037
-469,445	25,010	-0,110	0,066
-468,430	6,215	0,143	-0,077
-467,416	276,242	0,029	-0,037
-466,401	-178,041	0,066	0,001
-465,386	265,876	0,033	0,042
-464,372	-100,666	-0,152	0,027
-463,357	800,000	-0,053	-0,148
-462,343	34,351	0,095	-0,060
-461,328	113,760	0,021	0,019
-460,313	-200,000	-0,043	0,184
-459,299	-76,427	-0,008	0,002
-458,284	20,308	0,027	0,016
-457,270	800,000	0,030	0,083
-456,255	-200,000	0,009	0,085
-455,241	371,924	-0,097	-0,143
-454,226	304,987	-0,071	-0,096
-453,211	800,000	0,041	-0,117
-452,197	330,459	0,037	-0,052
-451,182	325,504	-0,031	0,043
-450,168	-146,691	0,117	-0,007
-449,153	-11,326	-0,029	-0,014
-448,138	-124,943	0,133	0,015
-447,124	-63,358	0,020	-0,006
-446,109	343,953	0,059	0,084
-445,095	-200,000	-0,002	-0,013
-444,080	-200,000	-0,001	-0,014
-443,065	197,378	-0,029	-0,032
-442,051	-115,312	0,195	-0,026
-441,036	-44,279	-0,079	-0,028
-440,022	800,000	0,009	-0,021
-439,007	254,947	0,040	-0,049
-437,992	600,230	-0,048	-0,086
-436,978	-200,000	0,040	0,141
-435,963	36,625	0,093	0,059
-434,949	-195,872	-0,070	-0,000
-433,934	800,000	-0,020	-0,043
-432,919	117,428	-0,028	-0,025
-431,905	800,000	0,028	-0,074
-430,890	550,512	0,070	0,122
-429,876	164,357	0,042	0,043
-428,861	253,783	0,077	0,096
-427,846	169,900	-0,086	-0,089
-426,832	-200,000	-0,018	-0,070
-425,817	32,330	-0,066	-0,041
-424,803	-200,000	-0,018	-0,076
-423,788	62,641	0,073	-0,053
-422,773	-200,000	0,001	-0,029
-421,759	-97,452	-0,145	-0,027
-420,744	-8,314	0,036	-0,017
-419,730	175,877	0,094	-0,098
-418,715	-20,833	-0,188	0,083
-417,701	800,000	0,028	0,070
-416,686	49,441	0,077	0,052
-415,671	800,000	0,072	0,202
-414,657	-9,262	-0,088	0,042
-413,642	-200,000	0,008	-0,027
-412,628	800,000	0,044	-0,097
-411,613	136,250	-0,057	-0,054
-410,598	-3,063	0,063	-0,031
-409,584	54,144	-0,035	-0,024
-408,569	-200,000	0,001	0,044
-407,555	772,259	0,024	0,048
-406,540	43,029	0,052	0,034
-405,525	-93,335	-0,105	0,021
-404,511	-82,430	0,071	0,017
-403,496	-35,803	-0,096	0,038
-402,482	-112,939	0,117	0,017
-401,467	-187,799	-0,051	0,000
-400,452	-21,231	0,039	0,017
-399,438	333,018	0,071	0,099
-398,423	562,176	0,057	-0,100
-397,409	81,223	-0,096	0,075
-396,394	-29,668	0,136	-0,056
-395,379	800,000	-0,062	-0,129
-394,365	800,000	-0,028	0,072
-393,350	-200,000	-0,017	0,219
-392,336	141,858	0,044	-0,042
-391,321	232,844	0,070	0,084
-390,306	358,990	-0,069	-0,100
-389,292	-200,000	0,016	-0,070
-388,277	-165,494	-0,164	0,005
-387,263	194,889	0,066	0,072
-386,248	-200,000	0,014	0,100
-385,233	-76,435	0,089	-0,022
-384,219	57,677	-0,030	0,021
-383,204	800,000	-0,035	-0,079
-382,190	44,426	-0,252	-0,167
-381,175	7,545	-0,057	0,031
-380,160	-200,000	-0,004	0,078
-379,146	-200,000	0,025	0,133
-378,131	-200,000	0,011	0,042
-377,117	-56,920	-0,042	-0,013
-376,102	704,609	-0,079	-0,150
-375,088	800,000	-0,051	-0,119
-374,073	-200,000	-0,006	-0,058
-373,058	800,000	0,019	0,048
-372,044	-79,864	-0,070	0,017
-371,029	24,816	0,066	0,039
-370,015	95,503	0,082	-0,068
-369,000	-113,563	-0,092	0,013
-367,985	-200,000	0,008	-0,030
-366,971	-76,832	-0,093	-0,023
-365,956	44,565	0,154	-0,102
-364,942	-90,314	0,148	0,031
-363,927	-26,620	-0,071	-0,030
-362,912	82,500	-0,053	-0,042
-361,898	-84,524	0,064	0,014
-360,883	529,943	-0,029	-0,049
-359,869	-200,000	-0,012	0,142
-358,854	-21,654	0,053	0,023
-357,839	-17,008	0,146	-0,066
-356,825	-14,926	-0,073	0,034
-355,810	-151,304	0,115	-0,006
-354,796	172,409	-0,042	0,044
-353,781	142,952	-0,102	-0,098
-352,766	199,939	-0,081	-0,090
-351,752	203,640	-0,036	-0,040
-350,737	800,000	-0,014	0,036
-349,723	-84,974	0,102	-0,023
-348,708	468,732	-0,079	0,128
-347,693	334,128	0,067	-0,093
-346,679	-190,231	0,074	0,001
-345,664	-123,540	-0,166	0,019
-344,650	-100,819	0,057	0,010
-343,635	-200,000	-0,010	0,036
-342,620	-29,324	0,152	0,062
-341,606	91,414	0,029	0,024
-340,591	-69,300	0,098	0,027
-339,577	554,745	-0,056	-0,097
-338,562	81,668	-0,061	-0,048
-337,548	151,593	0,065	0,064
-336,533	797,864	-0,057	0,113
-335,518	510,442	0,081	0,136
-334,504	-200,000	0,002	0,127
-333,489	430,093	-0,062	0,097
-332,475	-29,701	0,105	-0,043
-331,460	201,563	0,112	-0,124
-330,445	-91,207	0,052	0,011
-329,431	-200,000	-0,004	0,049
-328,416	-3,153	-0,030	0,015
-327,402	-36,412	0,083	-0,032
-326,387	135,601	0,112	-0,105
-325,372	-200,000	0,027	0,092
-324,358	44,433	0,099	-0,065
-323,343	105,327	-0,043	-0,037
-322,329	34,050	0,069	-0,043
-321,314	167,391	-0,053	0,054
-320,299	-200,000	0,021	0,123
-319,285	-200,000	0,007	0,100
-318,270	93,754	-0,061	-0,050
-317,256	-200,000	-0,012	0,123
-316,241	-54,187	0,120	-0,039
-315,226	-113,659	0,130	-0,018
-314,212	4,931	-0,051	0,027
-313,197	183,453	-0,014	0,015
-312,183	-168,110	0,131	0,004
-311,168	-200,000	-0,059	0,000
-310,153	-200,000	0,009	-0,066
-309,139	216,745	0,023	0,026
-308,124	-200,000	0,001	0,114
-307,110	800,000	0,028	0,063
-306,095	800,000	0,031	-0,066
-305,080	-80,215	-0,135	-0,032
-304,066	46,563	0,066	0,044
-303,051	357,452	-0,066	-0,095
-302,037	-170,419	-0,045	0,001
-301,022	800,000	-0,021	0,045
-300,008	215,544	-0,082	-0,094
-298,993	-200,000	0,014	0,069
-297,978	33,859	0,025	0,016
-296,964	41,215	-0,047	0,030
-295,949	-200,000	-0,001	0,126
-294,935	800,000	0,033	0,103
-293,920	-200,000	0,003	0,020
-292,905	-200,000	0,002	0,026
-291,891	268,023	-0,052	0,066
-290,876	520,550	0,067	0,113
-289,862	-200,000	-0,018	0,088
-288,847	17,760	-0,138	0,079
-287,832	25,258	0,084	-0,050
-286,818	296,004	0,071	0,093
-285,803	-37,397	0,096	0,037
-284,789	776,828	-0,033	-0,065
-283,774	-41,642	0,151	-0,055
-282,759	-24,870	-0,036	0,015
-281,745	800,000	-0,022	-0,060
-280,730	-65,621	-0,074	0,021
-279,716	-186,093	-0,108	0,001
-278,701	308,232	0,108	0,145
-277,686	800,000	0,014	-0,039
-276,672	94,416	0,059	0,048
-275,657	706,070	0,053	-0,101
-274,643	2,455	-0,036	0,019
-273,628	48,449	-0,107	-0,072
-272,613	280,982	-0,026	0,034
-271,599	669,388	0,046	0,087
-270,584	-159,085	0,045	0,002
-269,570	136,921	0,055	0,052
-268,555	-152,820	0,131	0,007
-267,540	94,454	0,017	0,014
-266,526	-48,977	-0,112	-0,038
-265,511	78,723	-0,059	0,045
-264,497	-200,000	0,001	0,017
-263,482	138,654	0,077	0,073
-262,467	-146,313	-0,115	-0,007
-261,453	87,349	0,043	0,034
-260,438	-200,000	0,010	0,090
-259,424	-200,000	0,008	-0,054
-258,409	333,405	0,088	-0,122
-257,395	-77,331	0,046	-0,011
-256,380	-200,000	-0,003	-0,033
-255,365	-200,000	-0,045	0,175
-254,351	-200,000	-0,041	0,150
-253,336	-200,000	0,035	0,146
-252,322	800,000	-0,027	0,067
-251,307	485,223	-0,004	-0,006
-250,292	-200,000	0,004	-0,232
-249,278	-200,000	0,042	0,152
-248,263	800,000	-0,048	0,116
-247,249	-168,053	0,123	0,003
-246,234	66,167	0,117	0,085
-245,219	286,658	-0,111	-0,144
-244,205	-200,000	0,011	-0,185
-243,190	282,052	-0,088	0,114
-242,176	-18,664	0,158	0,070
-241,161	-195,388	-0,069	0,000
-240,146	173,582	0,089	0,093
-239,132	800,000	-0,044	-0,112
-238,117	80,410	-0,129	0,100
-237,103	-46,447	0,083	0,029
-236,088	800,000	0,095	-0,206
-235,073	-200,000	0,011	0,134
-234,059	237,846	0,046	-0,055
-233,044	110,412	0,017	0,015
-232,030	68,022	-0,035	-0,026
-231,015	-200,000	-0,024	-0,097
-230,000	462,466	-0,028	0,045
-228,986	-200,000	-0,015	-0,094
-227,971	154,748	0,082	-0,081
-226,957	183,743	0,150	0,159
-225,942	-98,868	-0,086	0,016
-224,927	196,617	-0,053	-0,058
-223,913	-200,000	0,006	-0,077
-222,898	144,558	-0,090	-0,086
-221,884	338,655	0,056	-0,078
-220,869	96,332	-0,068	-0,055
-219,855	76,953	-0,051	-0,038
-218,840	-4,129	0,013	-0,007
-217,825	-60,123	0,114	-0,035
-216,811	800,000	0,037	-0,084
-215,796	124,774	-0,124	-0,112
-214,782	-82,181	-0,023	-0,005
-213,767	19,498	0,143	0,082
-212,752	800,000	-0,009	-0,021
-211,738	-200,000	-0,025	0,101
-210,723	-180,809	-0,036	-0,001
-209,709	-200,000	-0,003	-0,147
-208,694	230,006	0,057	-0,067
-207,679	155,197	-0,020	0,020
-206,665	34,995	0,169	-0,106
-205,650	-56,165	-0,118	-0,037
-204,636	105,886	-0,043	-0,036
-203,621	-16,973	0,090	0,041
-202,606	-9,986	0,085	0,040
-201,592	201,531	-0,062	0,069
-200,577	-200,000	0,004	-0,031
-199,563	-2,919	-0,077	-0,038
-198,548	-200,000	-0,017	0,088
-197,533	-27,290	-0,044	0,018
-196,519	188,311	-0,028	0,030
-195,504	-200,000	0,025	-0,121
-194,490	800,000	0,006	-0,013
-193,475	-200,000	-0,013	-0,088
-192,460	-135,222	0,127	0,011
-191,446	-18,982	0,115	0,051
-190,431	800,000	-0,025	0,060
-189,417	282,367	-0,097	0,125
-188,402	800,000	0,023	0,048
-187,387	800,000	-0,036	0,071
-186,373	684,670	-0,080	-0,150
-185,358	-200,000	-0,015	-0,102
-184,344	-77,092	0,169	-0,042
-183,329	315,696	0,066	0,090
-182,315	655,291	-0,042	0,078
-181,300	-86,736	-0,101	0,022
-180,285	524,488	-0,100	-0,170
-179,271	-200,000	0,024	-0,110
-178,256	-200,000	0,006	-0,083
-177,242	-162,218	0,070	0,002
-176,227	83,200	-0,051	-0,039
-175,212	-200,000	0,032	-0,129
-174,198	128,028	0,043	0,039
-173,183	-200,000	0,016	0,086
-172,169	-85,788	-0,153	-0,034
-171,154	800,000	0,017	0,037
-170,139	-147,096	-0,031	0,002
-169,125	2,799	0,150	0,078
-168,110	120,060	0,069	0,061
-167,096	89,818	-0,046	0,037
-166,081	-97,789	-0,122	-0,022
-165,066	-57,785	-0,075	-0,023
-164,052	-200,000	-0,007	0,057
-163,037	-118,818	0,020	-0,003
-162,023	251,328	0,065	-0,079
-161,008	687,665	-0,008	0,015
-159,993	800,000	-0,024	0,048
-158,979	423,287	-0,084	-0,130
-157,964	-200,000	-0,011	0,071
-156,950	401,924	-0,113	-0,171
-155,935	-200,000	-0,009	-0,041
-154,920	258,947	0,056	-0,069
-153,906	748,832	-0,066	0,128
-152,891	21,772	0,033	-0,019
-151,877	-84,740	-0,132	-0,030
-150,862	46,477	-0,091	0,060
-149,847	-200,000	0,025	-0,173
-148,833	-200,000	-0,004	0,041
-147,818	-200,000	0,020	0,147
-146,804	-200,000	-0,006	0,082
-145,789	300,022	0,082	0,108
-144,775	10,706	-0,060	0,032
-143,760	-30,119	-0,225	-0,091
-142,745	-200,000	0,027	-0,109
-141,731	800,000	0,039	-0,111
-140,716	800,000	0,047	0,097
-139,702	-200,000	-0,014	0,158
-138,687	800,000	-0,045	0,112
-137,672	76,675	0,070	0,053
-136,658	-4,261	-0,067	-0,033
-135,643	402,780	0,062	0,094
-134,629	198,526	0,036	0,040
-133,614	-86,335	0,207	0,045
-132,599	800,000	-0,062	0,136
-131,585	-1,549	0,053	0,026
-130,570	168,131	-0,076	0,077
-129,556	91,262	-0,051	-0,041
-128,541	15,081	-0,068	-0,038
-127,526	7,220	-0,080	-0,043
-126,512	-39,724	-0,064	-0,024
-125,497	42,933	0,115	-0,075
-124,483	20,949	-0,048	-0,028
-123,468	800,000	0,022	0,051
-122,453	43,684	-0,064	0,042
-121,439	-200,000	-0,005	-0,067
-120,424	-200,000	-0,009	0,126
-119,410	-159,134	0,069	0,003
-118,395	-200,000	-0,024	0,115
-117,380	-31,389	-0,080	-0,032
-116,366	42,981	0,130	0,084
-115,351	478,747	-0,081	-0,131
-114,337	-138,811	0,071	-0,005
-113,322	-67,124	0,057	0,016
-112,307	127,188	-0,066	0,060
-111,293	-12,183	-0,089	0,041
-110,278	-200,000	0,007	0,090
-109,264	-104,374	-0,141	-0,023
-108,249	385,382	0,139	0,206
-107,234	211,587	-0,079	-0,089
-106,220	-200,000	0,016	-0,066
-105,205	-200,000	-0,014	-0,063
-104,191	240,041	0,089	0,106
-103,176	98,779	-0,034	0,028
-102,162	63,779	0,016	-0,012
-101,147	800,000	-0,046	-0,101
-100,132	-55,061	-0,116	0,037
-99,118	-200,000	-0,002	0,193
-98,103	-150,395	-0,082	0,004
-97,089	468,172	0,060	0,097
-96,074	764,840	-0,014	0,027
-95,059	105,834	0,092	0,077
-94,045	-200,000	0,014	-0,068
-93,030	-200,000	-0,003	-0,083
-92,016	48,344	-0,080	-0,054
-91,001	800,000	-0,055	-0,147
-89,986	-2,711	0,043	0,021
-88,972	98,295	0,072	0,059
-87,957	241,025	-0,102	0,121
-86,943	-200,000	-0,000	-0,090
-85,928	300,838	-0,067	-0,089
-84,913	64,019	-0,067	0,048
-83,899	-200,000	-0,012	0,044
-82,884	677,844	0,022	0,041
-81,870	-200,000	0,004	0,013
-80,855	-200,000	-0,011	-0,059
-79,840	-200,000	0,004	-0,122
-78,826	-200,000	0,026	0,116
-77,811	-105,388	0,069	-0,011
-76,797	-123,650	0,058	-0,006
-75,782	-200,000	-0,030	0,098
-74,767	-200,000	-0,012	-0,062
-73,753	-21,569	-0,058	0,025
-72,738	-60,358	-0,076	-0,023
-71,724	800,000	-0,032	-0,078
-70,709	274,951	-0,040	0,050
-69,694	337,497	-0,064	-0,089
-68,680	-91,807	0,031	0,006
-67,665	227,075	0,167	0,193
-66,651	-200,000	0,000	0,157
-65,636	326,003	-0,109	0,149
-64,622	800,000	-0,084	-0,183
-63,607	-57,103	-0,123	-0,038
-62,592	-86,566	-0,080	0,017
-61,578	-146,846	0,020	-0,001
-60,563	-200,000	0,001	0,026
-59,549	205,925	-0,125	0,138
-58,534	88,719	-2,243	-1,776
-57,519	642,100	-1,105	-2,015
-56,505	-200,000	-0,332	-4,381
-55,490	800,000	0,801	1,877
-54,476	800,000	5,240	11,185
-53,461	-200,000	22,967	349,848
-52,446	800,000	758,515	2278,583
-51,432	511,327	1637,177	2724,779
-50,417	69,393	1541,375	1128,711
-49,403	21,733	1031,445	596,775
-48,388	11,900	695,740	379,694
-47,373	33,243	656,285	404,614
-46,359	19,162	640,836	365,253
-45,344	7,365	636,932	337,856
-44,330	7,204	634,837	336,389
-43,315	7,233	633,525	335,742
-42,300	7,287	632,436	335,265
-41,286	7,214	631,835	334,779
-40,271	7,092	631,062	334,096
-39,257	7,272	630,162	333,989
-38,242	7,392	629,201	333,720
-37,227	7,371	628,593	333,339
-36,213	7,335	627,851	332,857
-35,198	7,319	627,164	332,446
-34,184	7,360	626,830	332,342
-33,169	7,195	626,093	331,590
-32,154	7,306	625,630	331,565
-31,140	7,317	624,543	331,000
-30,125	7,454	623,718	330,837
-29,111	7,246	623,588	330,318
-28,096	7,267	623,213	330,152
-27,082	7,344	622,423	329,880
-26,067	7,377	622,039	329,732
-25,052	7,208	621,461	329,060
-24,038	7,194	621,382	328,976
-23,023	7,306	620,553	328,758
-22,009	7,338	620,023	328,531
-20,994	7,431	619,451	328,408
-19,979	7,391	618,946	328,045
-18,965	7,371	618,483	327,745
-17,950	7,341	618,130	327,481
-16,936	7,286	617,619	327,085
-15,921	7,391	617,159	327,045
-14,906	7,327	616,450	326,524
-13,892	7,336	616,151	326,372
-12,877	7,274	615,578	325,926
-11,863	7,263	615,492	325,845
-10,848	7,154	615,129	325,414
-9,833	7,272	614,779	325,460
-8,819	7,293	614,079	325,121
-7,804	7,369	613,319	324,862
-6,790	7,269	613,065	324,507
-5,775	7,288	612,968	324,483
-4,760	7,312	612,367	324,201
-3,746	7,279	612,052	323,954
-2,731	7,120	611,597	323,373
-1,717	7,061	611,506	323,191
-0,702	6,972	611,033	322,745
0,313	7,605	604,472	321,050
1,327	11,785	564,478	307,705
2,342	19,562	439,930	251,215
3,356	13,541	241,048	132,792
4,371	-15,168	163,528	74,211
5,386	-17,865	154,052	68,490
6,400	-18,237	150,902	66,892
7,415	-17,194	149,667	66,871
8,429	-18,034	148,666	65,993
9,444	-18,178	147,961	65,601
10,459	-18,132	147,754	65,526
11,473	-18,381	147,380	65,230
12,488	-17,824	147,138	65,396
13,502	-18,061	146,630	65,046
14,517	-18,352	146,461	64,820
15,531	-18,598	146,198	64,576
16,546	-18,256	145,983	64,645
17,561	-18,371	145,597	64,411
18,575	-18,358	145,612	64,419
19,590	-18,096	145,268	64,390
20,604	-18,099	145,289	64,392
21,619	-18,281	144,973	64,157
22,634	-18,583	144,702	63,882
23,648	-18,662	144,544	63,768
24,663	-18,575	144,338	63,714
25,677	-17,984	144,241	63,955
26,692	-18,435	144,134	63,682
27,707	-18,427	144,006	63,623
28,721	-18,446	143,764	63,501
29,736	-18,151	143,552	63,546
30,750	-17,854	143,196	63,527
31,765	-18,331	143,328	63,348
32,780	-18,235	143,102	63,289
33,794	-18,191	143,017	63,267
34,809	-18,647	142,787	62,938
35,823	-18,271	142,684	63,070
36,838	-18,524	142,554	62,884
37,853	-18,383	142,426	62,890
38,867	-18,583	142,188	62,683
39,882	-18,368	142,133	62,757
40,896	-18,249	141,980	62,741
41,911	-18,351	141,770	62,593
42,926	-18,330	141,563	62,507
43,940	-18,249	141,531	62,526
44,955	-18,331	141,383	62,416
45,969	-18,428	141,357	62,352
46,984	-18,531	141,168	62,214
47,999	-17,813	140,857	62,415
49,013	-18,252	140,969	62,249
50,028	-18,460	140,902	62,114
51,042	-18,350	140,593	62,025
52,057	-18,221	140,431	62,009
53,071	-17,929	140,220	62,050
54,086	-18,252	140,299	61,925
55,101	-18,580	140,134	61,691
56,115	-18,065	139,966	61,856
57,130	-18,155	139,824	61,745
58,144	-18,255	139,687	61,631
59,159	-18,494	139,436	61,402
60,174	-18,377	139,328	61,404
61,188	-18,463	139,215	61,309
62,203	-18,460	139,316	61,349
63,217	-18,302	139,022	61,289
64,232	-18,082	138,835	61,305
65,247	-18,536	138,893	61,111
66,261	-18,285	138,641	61,112
67,276	-18,349	138,580	61,050
68,290	-18,683	138,579	60,887
69,305	-18,469	138,368	60,890
70,320	-18,011	138,153	61,004
71,334	-18,044	137,991	60,911
72,349	-18,438	138,086	60,763
73,363	-18,079	137,768	60,786
74,378	-18,273	137,596	60,614
75,393	-18,329	137,568	60,570
76,407	-18,440	137,578	60,517
77,422	-18,188	137,245	60,482
78,436	-18,122	137,220	60,497
79,451	-18,226	136,963	60,330
80,466	-18,148	136,805	60,291
81,480	-18,050	136,790	60,324
82,495	-18,416	136,711	60,115
83,509	-18,443	136,515	60,011
84,524	-18,208	136,497	60,106
85,539	-18,001	136,387	60,147
86,553	-18,258	136,196	59,940
87,568	-18,088	135,877	59,872
88,582	-18,364	135,922	59,760
89,597	-18,147	135,787	59,795
90,611	-18,373	135,853	59,715
91,626	-18,072	135,576	59,725
92,641	-18,176	135,576	59,673
93,655	-18,018	135,474	59,695
94,670	-18,231	135,210	59,476
95,684	-18,254	135,208	59,459
96,699	-18,023	135,121	59,521
97,714	-18,369	135,016	59,312
98,728	-18,022	134,896	59,412
99,743	-18,167	134,906	59,345
100,757	-18,166	134,782	59,286
101,772	-18,338	134,627	59,134
102,787	-18,477	134,364	58,950
103,801	-18,358	134,240	58,944
104,816	-18,149	134,259	59,042
105,830	-18,041	134,140	59,033
106,845	-18,176	134,104	58,951
107,860	-18,299	133,873	58,788
108,874	-18,141	133,865	58,852
109,889	-18,190	133,609	58,711
110,903	-17,900	133,528	58,801
111,918	-18,489	133,490	58,514
112,933	-18,093	133,398	58,647
113,947	-18,532	133,304	58,403
114,962	-18,319	133,175	58,436
115,976	-18,248	132,996	58,385
116,991	-18,204	132,860	58,340
118,006	-18,450	132,867	58,227
119,020	-18,084	132,862	58,384
120,035	-17,930	132,648	58,353
121,049	-17,856	132,528	58,329
122,064	-17,787	132,286	58,247
123,079	-18,185	132,342	58,090
124,093	-17,897	132,311	58,199
125,108	-18,030	132,000	57,998
126,122	-18,267	132,000	57,887
127,137	-17,958	131,887	57,970
128,151	-18,380	131,759	57,721
129,166	-18,040	131,652	57,820
130,181	-18,035	131,511	57,755
131,195	-18,320	131,476	57,608
132,210	-17,954	131,207	57,647
133,224	-18,454	131,132	57,388
134,239	-18,120	131,160	57,543
135,254	-18,097	131,030	57,491
136,268	-17,881	130,785	57,473
137,283	-17,823	130,719	57,465
138,297	-18,090	130,682	57,326
139,312	-17,888	130,464	57,314
140,327	-18,194	130,423	57,156
141,341	-18,176	130,432	57,163
142,356	-17,992	130,301	57,182
143,370	-16,776	130,480	57,789
144,385	-10,753	131,600	60,943
145,400	-4,309	132,699	64,313
146,414	-2,339	132,945	65,303
147,429	-1,610	132,783	65,541
148,443	-1,852	132,874	65,473
149,458	-1,395	132,734	65,601
150,473	-1,869	132,806	65,420
151,487	-1,274	132,709	65,630
152,502	-1,149	132,628	65,640
153,516	-1,321	132,472	65,481
154,531	-1,046	132,310	65,516
155,546	-1,178	132,198	65,397
156,560	-1,189	132,179	65,376
157,575	-1,006	132,063	65,394
158,589	-0,702	131,784	65,384
159,604	-1,041	131,881	65,277
160,619	-1,063	131,692	65,167
161,633	-1,173	131,622	65,079
162,648	-1,081	131,588	65,097
163,662	-0,951	131,638	65,173
164,677	-0,998	131,516	65,086
165,692	-0,728	131,413	65,147
166,706	-0,612	131,276	65,125
167,721	-0,858	131,182	64,964
168,735	-0,557	131,081	65,040
169,750	-0,876	131,004	64,857
170,764	-0,408	130,881	64,994
171,779	-0,659	130,896	64,886
172,794	-0,268	130,777	64,993
173,808	-0,731	130,521	64,658
174,823	-0,489	130,645	64,818
175,837	-0,420	130,426	64,735
176,852	-0,594	130,437	64,659
177,867	-1,133	130,352	64,377
178,881	-0,328	130,328	64,708
179,896	-0,628	130,187	64,502
180,910	-0,441	129,909	64,440
181,925	-0,414	129,852	64,418
182,940	-0,993	129,754	64,113
183,954	-0,323	129,610	64,325
184,969	-0,447	129,699	64,310
185,983	-0,225	129,528	64,315
186,998	-0,325	129,528	64,266
188,013	-0,874	129,475	63,998
189,027	-0,623	129,339	64,033
190,042	-0,301	129,138	64,066
191,056	-0,662	129,155	63,914
192,071	-0,519	129,088	63,937
193,086	-0,649	128,986	63,825
194,100	-0,475	128,856	63,829
195,115	-0,544	128,705	63,719
196,129	-0,447	128,794	63,798
197,144	-0,321	128,535	63,719
198,159	-0,064	128,363	63,738
199,173	-0,182	128,369	63,684
200,188	0,057	128,260	63,727
201,202	-0,645	128,286	63,434
202,217	0,168	128,046	63,656
203,232	-0,184	128,009	63,482
204,246	-0,464	127,966	63,336
205,261	-0,016	127,759	63,418
206,275	-0,371	127,746	63,256
207,290	-0,170	127,596	63,260
208,304	-0,074	127,537	63,267
209,319	-0,331	127,500	63,134
210,334	-0,244	127,316	63,074
211,348	-0,425	127,334	63,001
212,363	-0,614	127,320	62,908
213,377	-0,193	127,133	62,988
214,392	-0,027	126,972	62,972
215,407	0,099	126,950	63,009
216,421	0,292	126,791	63,005
217,436	-0,229	126,714	62,742
218,450	-0,220	126,582	62,675
219,465	-0,315	126,586	62,632
220,480	-0,165	126,577	62,685
221,494	-0,409	126,392	62,486
222,509	-0,275	126,458	62,569
223,523	0,062	126,173	62,563
224,538	-0,266	126,253	62,460
225,553	-0,244	125,935	62,306
226,567	-0,120	125,928	62,349
227,582	-0,257	125,938	62,291
228,596	0,362	125,826	62,488
229,611	0,104	125,823	62,373
230,626	-0,272	125,670	62,135
231,640	-0,064	125,470	62,118
232,655	-0,282	125,602	62,087
233,669	-0,217	125,373	61,995
234,684	-0,297	125,280	61,910
235,699	-0,332	125,246	61,873
236,713	0,310	125,215	62,119
237,728	0,113	125,226	62,037
238,742	0,184	124,907	61,903
239,757	-0,056	124,968	61,829
240,772	-0,124	124,906	61,764
241,786	0,028	124,830	61,783
242,801	-0,146	124,744	61,664
243,815	0,322	124,712	61,835
244,830	0,420	124,515	61,773
245,844	0,376	124,393	61,688
246,859	0,319	124,353	61,640
247,874	-0,052	124,340	61,475
248,888	0,107	124,191	61,462
249,903	0,258	124,070	61,458
250,917	0,497	123,938	61,485
251,932	0,264	124,008	61,419
252,947	0,219	123,835	61,309
253,961	0,282	123,776	61,300
254,976	0,178	123,619	61,174
255,990	0,292	123,615	61,214
257,005	0,292	123,485	61,144
258,020	0,278	123,484	61,132
259,034	0,502	123,359	61,156
260,049	0,209	123,284	60,994
261,063	0,520	123,149	61,049
262,078	0,397	122,995	60,917
263,093	0,503	122,937	60,926
264,107	0,028	123,093	60,804
265,122	0,314	122,936	60,838
266,136	0,325	122,813	60,776
267,151	0,435	122,748	60,783
268,166	0,365	122,683	60,717
269,180	0,419	122,593	60,689
270,195	0,461	122,318	60,564
271,209	0,369	122,449	60,587
272,224	0,461	122,344	60,566
273,239	0,318	122,357	60,510
274,253	0,529	122,111	60,468
275,268	0,457	122,100	60,428
276,282	0,218	122,091	60,321
277,297	0,060	121,930	60,173
278,312	-0,100	121,853	60,065
279,326	0,646	121,808	60,337
280,341	0,430	121,694	60,189
281,355	0,381	121,648	60,141
282,370	0,077	121,512	59,947
283,384	0,399	121,343	59,987
284,399	0,383	121,313	59,960
285,414	0,649	121,237	60,024
286,428	0,655	121,269	60,037
287,443	0,621	121,035	59,902
288,457	0,516	121,025	59,850
289,472	0,743	120,809	59,828
290,487	0,276	121,014	59,738
291,501	0,910	120,725	59,842
292,516	0,907	120,648	59,798
293,530	0,608	120,721	59,709
294,545	0,498	120,653	59,627
295,560	0,716	120,490	59,627
296,574	0,233	120,461	59,416
297,589	0,554	120,336	59,476
298,603	0,419	120,246	59,373
299,618	0,890	120,180	59,521
300,633	0,888	119,925	59,389
301,647	1,341	120,035	59,617
302,662	0,983	119,959	59,433
303,676	0,646	119,889	59,260
304,691	0,525	119,692	59,110
305,706	0,373	119,784	59,090
306,720	0,338	119,652	59,006
307,735	0,707	119,652	59,146
308,749	1,037	119,413	59,152
309,764	1,091	119,398	59,161
310,779	0,663	119,316	58,946
311,793	0,617	119,225	58,878
312,808	0,612	119,072	58,796
313,822	0,540	119,015	58,734
314,837	0,319	119,064	58,666
315,852	1,119	118,935	58,911
316,866	0,554	118,885	58,660
317,881	0,662	118,767	58,638
318,895	0,709	118,795	58,665
319,910	1,174	118,532	58,711
320,925	0,723	118,480	58,505
321,939	0,855	118,576	58,598
322,954	0,655	118,456	58,456
323,968	0,930	118,363	58,512
324,983	1,012	118,225	58,470
325,997	0,560	118,168	58,261
327,012	0,638	118,147	58,276
328,027	0,976	117,919	58,290
329,041	0,896	117,954	58,270
330,056	0,957	117,871	58,248
331,070	0,761	117,889	58,176
332,085	0,822	117,647	58,075
333,100	0,894	117,536	58,043
334,114	1,360	117,450	58,175
335,129	0,466	117,452	57,826
336,143	0,777	117,397	57,913
337,158	1,302	117,390	58,107
338,173	0,866	117,265	57,872
339,187	0,674	117,198	57,760
340,202	1,099	117,076	57,858
341,216	1,017	116,951	57,759
342,231	1,140	116,862	57,757
343,246	1,113	116,746	57,685
344,260	0,732	116,820	57,570
345,275	0,894	116,792	57,613
346,289	1,100	116,654	57,619
347,304	0,836	116,603	57,488
348,319	1,037	116,520	57,519
349,333	1,083	116,375	57,459
350,348	1,138	116,268	57,422
351,362	1,064	116,209	57,360
352,377	1,718	116,083	57,541
353,392	1,534	115,999	57,424
354,406	1,222	116,010	57,306
355,421	198,372	1316,062	1390,972
356,435	155,747	1462,710	1391,450
