DTS Sentinel unit serial number:	SN410029Multiplexer serial number:	ORYXHardware model number:	OX2-SRSoftware version number:	ORYX F/W v4,00 Oryx Data Collector v3.7.2.0data status	okinstallation	B3 Nyhavnadifferential loss correction	single-endedforward channel	channel 1reverse channel	N/Adate	2023/11/28time	18:52:30forward acquisition time	300,00reverse acquisition time	0,00gamma	499,1914k internal	0,3133k external	0,3133temperature offset calibration	1,0000default loss term (dB/km)	0,3820temperature slope calibration	1,0000multiplexer offset coefficient	1,0000multiplexer slope coefficient	1,0000fibre end	0,00T internal ref (°C)	7,51T ext. ref 1 (°C)	-7,32T ext. ref 2 (°C)	-7,47length (m)	temperature (°C)	Stokes	anti-Stokes-744,400	-200,000	-0,069	-0,259
-743,385	-200,000	-0,007	0,199
-742,371	221,223	-0,073	-0,088
-741,356	-200,000	-0,020	0,299
-740,342	121,719	-0,151	-0,140
-739,327	800,000	-0,094	0,302
-738,312	-200,000	0,033	-0,499
-737,298	170,872	-0,087	0,092
-736,283	-49,968	-0,260	-0,091
-735,269	-200,000	0,023	0,315
-734,254	95,345	-0,219	-0,185
-733,239	-45,042	-0,304	0,112
-732,225	-200,000	0,001	-0,215
-731,210	-110,687	0,148	0,023
-730,196	217,550	-0,054	-0,064
-729,181	-132,753	-0,197	0,018
-728,167	682,745	0,035	-0,068
-727,152	666,727	0,007	0,014
-726,137	498,474	-0,080	-0,137
-725,123	-39,676	-0,085	0,033
-724,108	-4,883	-0,145	-0,074
-723,094	565,171	0,083	-0,150
-722,079	35,689	-0,077	0,050
-721,064	-40,616	-0,077	-0,029
-720,050	41,567	-0,043	-0,029
-719,035	269,514	-0,031	0,041
-718,021	-200,000	-0,011	-0,093
-717,006	228,795	-0,062	-0,075
-715,991	-200,000	0,028	-0,243
-714,977	359,860	-0,108	-0,161
-713,962	-200,000	0,051	-0,194
-712,948	6,125	0,127	-0,070
-711,933	185,313	0,026	0,028
-710,918	3,839	0,021	-0,011
-709,904	-200,000	-0,009	-0,056
-708,889	750,076	-0,061	-0,123
-707,875	-7,683	-0,042	-0,021
-706,860	324,218	0,024	-0,035
-705,845	-24,425	0,127	0,056
-704,831	403,413	0,058	0,091
-703,816	-91,320	-0,120	-0,025
-702,802	-90,727	0,092	-0,020
-701,787	-26,033	0,092	-0,040
-700,772	-60,162	0,027	-0,008
-699,758	554,024	0,050	-0,089
-698,743	-200,000	-0,007	-0,053
-697,729	312,316	-0,073	-0,103
-696,714	-200,000	0,007	-0,165
-695,699	-200,000	-0,008	0,048
-694,685	156,299	-0,080	0,081
-693,670	465,302	0,045	-0,076
-692,656	0,194	0,090	-0,047
-691,641	-3,176	-0,024	-0,012
-690,627	37,815	0,049	-0,032
-689,612	-163,053	-0,063	-0,002
-688,597	385,291	-0,048	-0,073
-687,583	-47,914	0,029	-0,010
-686,568	-200,000	0,035	-0,189
-685,554	2,354	-0,084	0,045
-684,539	-4,341	-0,019	-0,010
-683,524	-200,000	-0,003	-0,037
-682,510	-39,779	0,236	-0,091
-681,495	-200,000	0,006	-0,072
-680,481	-51,248	-0,116	-0,040
-679,466	-200,000	0,010	0,040
-678,451	-100,996	-0,152	-0,027
-677,437	-200,000	0,014	0,080
-676,422	-200,000	0,030	0,099
-675,408	276,333	-0,089	-0,117
-674,393	800,000	0,022	-0,062
-673,378	66,038	-0,092	-0,069
-672,364	-200,000	0,063	-0,231
-671,349	650,967	-0,072	-0,137
-670,335	-1,915	-0,132	0,069
-669,320	11,703	0,056	-0,032
-668,305	-200,000	-0,016	0,139
-667,291	44,894	-0,069	-0,047
-666,276	-158,808	-0,080	0,003
-665,262	-200,000	-0,025	-0,084
-664,247	58,855	-0,061	-0,044
-663,232	-200,000	0,002	-0,048
-662,218	-200,000	-0,010	-0,129
-661,203	-92,798	-0,153	0,031
-660,189	-58,850	-0,057	-0,018
-659,174	800,000	0,031	-0,079
-658,159	681,351	-0,067	-0,130
-657,145	800,000	0,041	-0,097
-656,130	78,833	-0,012	-0,010
-655,116	800,000	-0,028	0,075
-654,101	106,797	0,129	0,113
-653,086	-67,893	-0,063	0,018
-652,072	53,116	-0,087	0,061
-651,057	-152,246	-0,210	-0,011
-650,043	-50,032	-0,097	0,034
-649,028	301,340	0,095	-0,131
-648,014	17,501	-0,095	0,056
-646,999	16,978	0,091	0,053
-645,984	449,292	-0,049	-0,080
-644,970	95,727	0,110	-0,093
-643,955	-104,751	-0,166	-0,028
-642,941	-200,000	0,016	-0,110
-641,926	-78,813	0,086	0,021
-640,911	331,852	-0,105	0,151
-639,897	613,415	0,065	0,121
-638,882	-89,705	0,088	-0,019
-637,868	-146,858	-0,014	-0,001
-636,853	800,000	0,019	0,048
-635,838	-48,943	-0,228	0,081
-634,824	43,843	0,051	-0,035
-633,809	-200,000	-0,047	0,202
-632,795	306,803	0,072	-0,099
-631,780	178,061	-0,039	0,042
-630,765	202,167	-0,150	0,172
-629,751	-200,000	-0,020	0,068
-628,736	76,499	-0,092	-0,072
-627,722	143,604	-0,071	0,070
-626,707	11,728	-0,056	0,031
-625,692	-112,762	0,090	0,013
-624,678	-200,000	-0,008	-0,028
-623,663	169,231	0,062	0,065
-622,649	33,560	-0,135	-0,087
-621,634	209,904	-0,056	-0,065
-620,619	-200,000	-0,006	0,227
-619,605	-6,865	-0,049	-0,024
-618,590	641,240	-0,033	0,063
-617,576	800,000	0,047	0,121
-616,561	-200,000	-0,030	0,101
-615,546	239,678	-0,078	-0,096
-614,532	200,826	0,060	-0,068
-613,517	-127,111	0,047	0,005
-612,503	-115,212	0,039	-0,005
-611,488	160,896	0,079	0,081
-610,474	202,736	-0,106	-0,122
-609,459	86,315	-0,086	0,070
-608,444	-200,000	0,010	0,047
-607,430	-38,176	-0,059	0,023
-606,415	-45,746	-0,134	-0,049
-605,401	46,466	0,088	-0,060
-604,386	800,000	0,048	0,108
-603,371	-91,807	0,060	-0,013
-602,357	-132,988	0,082	0,008
-601,342	-200,000	-0,013	0,098
-600,328	208,120	-0,075	-0,087
-599,313	208,898	-0,095	-0,110
-598,298	243,584	0,114	0,141
-597,284	-121,107	-0,098	-0,012
-596,269	-200,000	0,003	0,050
-595,255	263,523	0,025	0,033
-594,240	-200,000	0,017	-0,066
-593,225	107,030	-0,075	-0,066
-592,211	470,780	0,025	0,042
-591,196	-43,951	-0,169	0,062
-590,182	-200,000	-0,013	0,108
-589,167	-14,250	-0,077	0,036
-588,152	800,000	-0,034	-0,109
-587,138	408,289	0,009	0,015
-586,123	-200,000	0,018	-0,102
-585,109	-152,963	-0,037	0,002
-584,094	158,797	-0,092	0,094
-583,079	88,631	-0,034	0,028
-582,065	800,000	0,010	0,023
-581,050	296,066	0,044	-0,060
-580,036	104,981	0,063	0,055
-579,021	-128,247	0,044	0,005
-578,006	-200,000	-0,024	-0,090
-576,992	151,917	0,061	-0,061
-575,977	0,083	-0,116	-0,061
-574,963	135,180	0,078	-0,075
-573,948	-124,305	0,023	-0,003
-572,934	58,997	0,120	-0,087
-571,919	738,167	-0,067	-0,134
-570,904	800,000	0,024	-0,077
-569,890	-200,000	-0,007	0,035
-568,875	-155,098	0,131	0,006
-567,861	-200,000	-0,001	-0,026
-566,846	3,803	-0,100	-0,053
-565,831	-120,941	0,070	0,009
-564,817	95,736	-0,023	0,019
-563,802	800,000	0,048	-0,146
-562,788	279,170	-0,032	-0,043
-561,773	800,000	0,015	-0,042
-560,758	-108,169	0,065	0,010
-559,744	424,256	-0,076	0,120
-558,729	-200,000	-0,018	0,076
-557,715	182,987	-0,084	-0,092
-556,700	800,000	-0,005	-0,011
-555,685	499,757	-0,029	-0,049
-554,671	800,000	0,016	0,046
-553,656	24,158	-0,049	-0,030
-552,642	-93,968	0,063	-0,013
-551,627	-84,769	-0,048	-0,011
-550,612	132,334	-0,161	-0,153
-549,598	-200,000	-0,041	-0,156
-548,583	-119,722	-0,081	-0,010
-547,569	-108,647	0,105	0,016
-546,554	-200,000	-0,007	-0,056
-545,539	-198,637	0,124	0,000
-544,525	800,000	-0,028	-0,074
-543,510	-200,000	0,018	-0,124
-542,496	251,573	-0,068	0,085
-541,481	-200,000	-0,016	-0,122
-540,466	317,601	-0,105	-0,146
-539,452	-200,000	0,010	0,057
-538,437	234,916	0,108	0,132
-537,423	800,000	0,067	0,150
-536,408	65,244	-0,107	0,080
-535,393	112,863	-0,141	-0,126
-534,379	324,375	-0,021	-0,029
-533,364	-200,000	0,010	-0,070
-532,350	34,000	-0,049	0,032
-531,335	-119,467	0,181	0,023
-530,321	-69,894	-0,075	0,021
-529,306	410,141	0,054	-0,085
-528,291	39,905	-0,103	-0,068
-527,277	800,000	-0,035	-0,091
-526,262	-200,000	0,019	-0,162
-525,248	209,021	0,073	0,084
-524,233	557,207	0,072	0,128
-523,218	-82,299	-0,068	0,016
-522,204	207,071	-0,052	0,059
-521,189	105,469	-0,065	0,057
-520,175	800,000	-0,059	-0,124
-519,160	-17,358	0,092	0,043
-518,145	183,795	-0,032	-0,034
-517,131	-200,000	0,027	-0,146
-516,116	59,586	-0,072	0,053
-515,102	589,409	0,124	0,225
-514,087	415,161	0,093	-0,147
-513,072	800,000	-0,065	-0,166
-512,058	-94,264	0,028	-0,006
-511,043	15,078	0,049	-0,028
-510,029	800,000	-0,030	-0,074
-509,014	-200,000	0,002	0,071
-507,999	-97,743	-0,092	0,017
-506,985	344,833	-0,079	-0,115
-505,970	133,003	0,075	-0,071
-504,956	800,000	0,063	-0,138
-503,941	800,000	-0,022	0,061
-502,926	371,914	0,028	-0,042
-501,912	-29,682	-0,109	0,046
-500,897	-114,477	0,104	-0,015
-499,883	800,000	-0,037	0,093
-498,868	-200,000	-0,015	-0,063
-497,853	-63,053	0,050	0,015
-496,839	800,000	-0,084	-0,215
-495,824	451,054	0,069	0,112
-494,810	-96,757	0,094	0,018
-493,795	-25,253	0,063	0,027
-492,781	80,208	-0,053	0,042
-491,766	-200,000	-0,004	-0,044
-490,751	-200,000	-0,040	0,178
-489,737	51,449	0,051	0,036
-488,722	-128,533	0,099	0,010
-487,708	-200,000	-0,032	-0,157
-486,693	469,416	-0,053	0,087
-485,678	324,097	0,084	0,119
-484,664	-71,775	-0,037	-0,010
-483,649	-200,000	0,007	-0,084
-482,635	-27,316	-0,017	0,007
-481,620	-200,000	-0,030	0,138
-480,605	310,720	0,081	-0,112
-479,591	-200,000	-0,009	-0,083
-478,576	-109,106	-0,049	0,008
-477,562	320,668	0,096	-0,134
-476,547	800,000	-0,022	-0,057
-475,532	-47,168	0,069	-0,025
-474,518	741,190	0,047	0,092
-473,503	65,212	0,119	0,089
-472,489	-200,000	-0,009	0,053
-471,474	488,434	0,055	-0,093
-470,459	594,137	-0,085	-0,156
-469,445	-199,424	0,068	-0,000
-468,430	-63,970	-0,050	-0,015
-467,416	-200,000	-0,006	-0,040
-466,401	-200,000	0,012	-0,081
-465,386	800,000	0,050	0,134
-464,372	800,000	0,035	0,104
-463,357	101,471	-0,124	-0,106
-462,343	-124,345	-0,192	0,022
-461,328	-200,000	-0,012	-0,058
-460,313	267,686	-0,054	0,070
-459,299	-88,065	-0,047	0,010
-458,284	-122,296	-0,105	-0,012
-457,270	352,885	0,069	-0,101
-456,255	620,421	0,060	-0,112
-455,241	-131,993	-0,118	-0,011
-454,226	-200,000	-0,006	0,044
-453,211	-200,000	0,024	-0,116
-452,197	-172,507	0,093	0,002
-451,182	323,758	0,036	-0,051
-450,168	126,443	-0,068	0,064
-449,153	-132,852	-0,083	-0,008
-448,138	247,909	-0,015	-0,019
-447,124	49,195	0,042	0,029
-446,109	-59,985	-0,104	0,032
-445,095	-50,169	-0,006	-0,002
-444,080	-200,000	-0,005	0,023
-443,065	280,518	-0,011	0,015
-442,051	-200,000	-0,036	-0,132
-441,036	253,118	0,058	0,073
-440,022	-200,000	0,010	0,084
-439,007	158,976	-0,030	0,030
-437,992	-105,189	0,064	0,011
-436,978	448,451	0,029	-0,047
-435,963	-200,000	0,002	-0,084
-434,949	-200,000	0,019	-0,139
-433,934	-133,328	-0,037	-0,003
-432,919	-42,984	0,048	-0,018
-431,905	59,254	-0,092	-0,066
-430,890	345,168	0,041	0,059
-429,876	800,000	-0,038	0,109
-428,861	800,000	0,070	0,145
-427,846	18,559	0,123	0,072
-426,832	-200,000	0,021	0,090
-425,817	-65,075	-0,120	0,035
-424,803	645,061	0,028	0,053
-423,788	800,000	0,031	-0,076
-422,773	198,178	0,072	0,081
-421,759	446,889	0,025	-0,041
-420,744	-200,000	0,029	-0,122
-419,730	-136,257	-0,199	-0,017
-418,715	531,713	-0,149	-0,259
-417,701	-200,000	0,021	0,082
-416,686	-200,000	-0,001	-0,013
-415,671	24,756	0,084	0,051
-414,657	-200,000	-0,016	0,084
-413,642	-20,584	0,108	-0,048
-412,628	800,000	-0,020	-0,055
-411,613	218,927	-0,086	0,101
-410,598	371,506	-0,056	0,083
-409,584	0,705	-0,024	0,012
-408,569	-110,623	0,077	0,012
-407,555	-106,368	-0,168	0,027
-406,540	-112,291	0,080	-0,012
-405,525	87,033	-0,119	-0,096
-404,511	219,910	-0,099	-0,117
-403,496	-200,000	0,005	-0,021
-402,482	-24,960	0,144	-0,063
-401,467	654,924	-0,029	0,055
-400,452	-121,044	0,190	0,023
-399,438	110,038	0,099	-0,087
-398,423	-200,000	-0,015	0,096
-397,409	87,943	-0,150	-0,122
-396,394	106,093	-0,064	0,055
-395,379	-200,000	0,032	0,109
-394,365	711,719	-0,031	-0,060
-393,350	134,577	-0,081	0,077
-392,336	-72,222	0,062	0,017
-391,321	87,808	-0,125	-0,101
-390,306	333,718	0,034	0,048
-389,292	-200,000	-0,008	0,028
-388,277	-200,000	-0,017	0,136
-387,263	800,000	0,020	0,043
-386,248	-33,759	0,173	0,069
-385,233	800,000	0,005	0,011
-384,219	-10,368	-0,062	-0,030
-383,204	-200,000	-0,033	-0,151
-382,190	12,903	-0,071	-0,040
-381,175	800,000	-0,031	-0,102
-380,160	-49,429	0,181	-0,063
-379,146	-200,000	0,028	0,109
-378,131	-72,289	-0,064	0,017
-377,117	-71,132	-0,107	-0,029
-376,102	244,989	0,047	-0,058
-375,088	-200,000	0,023	-0,129
-374,073	-200,000	0,014	-0,110
-373,058	-36,765	0,131	0,051
-372,044	116,273	0,055	0,050
-371,029	-194,853	0,027	-0,000
-370,015	325,985	-0,096	0,134
-369,000	256,926	-0,049	-0,062
-367,985	-115,370	0,086	0,012
-366,971	-200,000	-0,028	-0,115
-365,956	-200,000	-0,011	0,090
-364,942	-200,000	-0,002	0,037
-363,927	-200,000	-0,013	0,092
-362,912	-127,529	-0,136	-0,014
-361,898	747,735	-0,045	-0,089
-360,883	364,527	-0,089	-0,132
-359,869	252,998	0,024	-0,030
-358,854	-20,225	0,047	-0,021
-357,839	-200,000	0,035	0,112
-356,825	269,807	0,099	0,127
-355,810	-173,113	-0,134	-0,003
-354,796	-58,245	0,013	-0,004
-353,781	368,776	0,110	-0,164
-352,766	-28,454	-0,059	-0,025
-351,752	389,891	0,073	0,111
-350,737	-200,000	-0,018	0,073
-349,723	24,044	0,043	0,026
-348,708	-200,000	-0,010	0,094
-347,693	800,000	-0,043	0,099
-346,679	299,445	-0,079	0,107
-345,664	-200,000	0,007	0,056
-344,650	74,261	0,049	0,038
-343,635	-200,000	0,010	0,080
-342,620	800,000	0,024	0,061
-341,606	24,278	-0,050	0,030
-340,591	31,424	0,048	-0,030
-339,577	-200,000	0,038	-0,128
-338,562	493,653	-0,046	-0,077
-337,548	-38,778	-0,092	-0,035
-336,533	-145,595	0,146	-0,009
-335,518	319,015	-0,042	0,058
-334,504	155,927	0,129	0,130
-333,489	153,449	-0,098	0,099
-332,475	81,407	-0,077	0,061
-331,460	153,469	-0,082	-0,082
-330,445	376,108	0,063	0,094
-329,431	170,457	0,025	-0,026
-328,416	512,640	0,049	0,084
-327,402	187,140	-0,094	0,103
-326,387	169,361	0,141	0,147
-325,372	-200,000	-0,005	-0,083
-324,358	-200,000	0,026	-0,101
-323,343	-47,185	0,150	0,053
-322,329	75,386	-0,020	0,016
-321,314	77,912	0,054	-0,042
-320,299	-100,761	-0,077	0,014
-319,285	-200,000	0,023	0,089
-318,270	375,029	-0,086	0,129
-317,256	-88,171	-0,156	-0,034
-316,241	-200,000	0,003	0,070
-315,226	54,250	0,060	0,042
-314,212	-98,415	0,115	0,021
-313,197	-166,020	0,090	-0,003
-312,183	68,160	0,130	0,097
-311,168	-84,286	0,125	0,029
-310,153	800,000	0,011	0,027
-309,139	-65,801	0,042	-0,012
-308,124	-81,923	0,058	-0,014
-307,110	45,707	0,056	0,038
-306,095	-55,923	0,183	0,059
-305,080	800,000	-0,067	0,143
-304,066	800,000	0,015	-0,034
-303,051	299,242	0,099	-0,133
-302,037	114,422	-0,072	0,064
-301,022	-124,670	0,137	-0,015
-300,008	209,819	0,030	-0,034
-298,993	-200,000	0,014	0,101
-297,978	-200,000	-0,023	0,106
-296,964	20,741	-0,055	-0,033
-295,949	32,912	-0,094	-0,059
-294,935	800,000	-0,051	-0,131
-293,920	-84,631	0,047	-0,011
-292,905	-115,631	0,142	0,019
-291,891	205,647	0,036	-0,041
-290,876	-200,000	0,017	-0,060
-289,862	-200,000	0,029	0,105
-288,847	-67,119	-0,123	-0,035
-287,832	-200,000	0,006	0,045
-286,818	-71,476	0,167	-0,045
-285,803	-91,502	-0,091	-0,019
-284,789	-200,000	-0,032	-0,175
-283,774	-31,400	0,128	0,052
-282,759	-137,981	-0,052	-0,004
-281,745	-83,538	0,160	-0,037
-280,730	800,000	0,035	0,097
-279,716	-200,000	0,033	0,110
-278,701	-144,010	-0,087	-0,006
-277,686	-97,180	0,035	-0,007
-276,672	-10,505	-0,088	-0,043
-275,657	12,051	0,097	-0,054
-274,643	800,000	-0,052	0,166
-273,628	-114,179	-0,041	-0,006
-272,613	19,787	-0,020	0,012
-271,599	-200,000	-0,016	0,125
-270,584	233,061	0,074	0,089
-269,570	-200,000	-0,004	0,094
-268,555	800,000	-0,038	0,098
-267,540	179,437	0,093	-0,099
-266,526	-200,000	0,004	-0,092
-265,511	-91,989	-0,164	0,034
-264,497	-53,762	0,152	-0,050
-263,482	158,516	-0,055	0,056
-262,467	157,982	0,076	-0,077
-261,453	197,829	-0,121	-0,135
-260,438	171,586	0,068	-0,071
-259,424	-18,452	0,085	0,038
-258,409	-32,393	-0,115	-0,047
-257,395	-200,000	-0,024	0,115
-256,380	51,309	0,117	0,081
-255,365	-47,787	0,169	0,059
-254,351	-200,000	-0,012	-0,110
-253,336	36,198	-0,047	-0,030
-252,322	-200,000	-0,026	-0,120
-251,307	216,707	0,070	-0,081
-250,292	-16,283	0,010	-0,005
-249,278	66,345	0,115	0,085
-248,263	800,000	-0,010	-0,024
-247,249	-14,355	-0,035	0,016
-246,234	-53,992	-0,113	-0,037
-245,219	1,462	0,090	-0,047
-244,205	-200,000	0,012	-0,056
-243,190	3,934	-0,145	0,077
-242,176	-200,000	0,024	0,166
-241,161	240,882	0,034	0,041
-240,146	-55,189	-0,117	0,038
-239,132	256,386	0,051	-0,064
-238,117	800,000	0,039	-0,112
-237,103	94,278	-0,040	-0,033
-236,088	195,605	0,067	-0,074
-235,073	169,004	0,063	0,066
-234,059	-46,412	-0,116	0,041
-233,044	136,371	0,108	0,103
-232,030	8,819	-0,024	0,013
-231,015	55,933	-0,061	0,043
-230,000	29,338	-0,047	-0,029
-228,986	800,000	-0,042	0,097
-227,971	-179,678	0,061	0,001
-226,957	-85,104	0,038	-0,009
-225,942	-200,000	0,006	-0,052
-224,927	-96,548	-0,166	0,032
-223,913	58,038	-0,041	0,029
-222,898	-200,000	-0,006	-0,026
-221,884	-200,000	0,010	-0,081
-220,869	173,187	0,050	-0,052
-219,855	454,804	-0,083	-0,134
-218,840	527,064	-0,037	0,063
-217,825	384,999	0,037	0,055
-216,811	-200,000	-0,038	-0,126
-215,796	-200,000	-0,024	-0,103
-214,782	-200,000	-0,001	0,054
-213,767	85,366	0,193	0,154
-212,752	-48,187	-0,112	0,039
-211,738	-108,522	-0,121	-0,019
-210,723	-43,487	-0,077	-0,028
-209,709	699,869	-0,054	-0,104
-208,694	43,483	-0,044	0,029
-207,679	136,840	-0,073	0,069
-206,665	-122,645	-0,094	0,011
-205,650	-200,000	-0,024	0,100
-204,636	10,455	0,061	-0,034
-203,621	800,000	0,034	0,070
-202,606	213,943	-0,068	0,078
-201,592	-5,327	-0,150	-0,075
-200,577	613,695	-0,063	-0,115
-199,563	-200,000	0,050	0,167
-198,548	-200,000	0,005	0,035
-197,533	73,106	-0,089	0,068
-196,519	-110,312	-0,146	0,022
-195,504	37,170	-0,066	0,042
-194,490	-103,819	-0,069	0,012
-193,475	-200,000	-0,002	-0,083
-192,460	-200,000	-0,004	0,043
-191,446	-69,314	0,074	-0,021
-190,431	17,695	0,105	-0,061
-189,417	-61,328	0,088	0,027
-188,402	-200,000	-0,003	-0,021
-187,387	-104,271	0,084	0,014
-186,373	316,135	-0,020	-0,027
-185,358	-59,170	-0,087	0,027
-184,344	-108,839	-0,059	0,009
-183,329	-80,804	0,053	0,013
-182,315	261,456	0,065	0,081
-181,300	-116,090	0,109	-0,015
-180,285	-200,000	0,009	-0,105
-179,271	255,240	0,090	0,113
-178,256	-200,000	-0,008	0,036
-177,242	242,348	0,040	0,048
-176,227	-22,958	0,106	-0,046
-175,212	-6,480	-0,069	-0,034
-174,198	76,068	0,186	-0,143
-173,183	-200,000	-0,016	0,066
-172,169	-158,926	-0,084	0,003
-171,154	-151,604	0,072	-0,004
-170,139	72,301	0,086	0,065
-169,125	208,956	0,016	0,018
-168,110	377,247	0,064	0,096
-167,096	-81,939	-0,099	0,023
-166,081	6,012	0,160	-0,086
-165,066	800,000	0,023	-0,048
-164,052	244,899	-0,085	-0,104
-163,037	96,365	0,111	-0,092
-162,023	-200,000	-0,017	-0,094
-161,008	-3,572	0,023	-0,012
-159,993	-140,020	-0,034	0,003
-158,979	-200,000	0,006	-0,093
-157,964	182,935	-0,045	-0,048
-156,950	-132,334	-0,140	-0,013
-155,935	111,080	0,119	-0,104
-154,920	-200,000	0,004	0,104
-153,906	-18,151	0,197	0,089
-152,891	125,593	0,047	-0,043
-151,877	57,607	0,050	-0,035
-150,862	131,545	-0,123	-0,115
-149,847	-200,000	0,013	-0,165
-148,833	-22,220	0,102	-0,045
-147,818	-200,000	0,016	-0,073
-146,804	-114,266	0,074	-0,010
-145,789	800,000	0,057	0,117
-144,775	71,793	0,066	-0,050
-143,760	486,905	-0,067	0,112
-142,745	54,225	-0,110	-0,077
-141,731	617,077	-0,025	0,047
-140,716	467,310	-0,033	-0,054
-139,702	-94,013	-0,094	0,019
-138,687	-72,370	0,124	0,033
-137,672	117,785	-0,095	0,085
-136,658	447,456	0,041	-0,065
-135,643	-200,000	-0,012	-0,062
-134,629	13,973	0,062	0,035
-133,614	800,000	-0,041	0,103
-132,599	800,000	0,028	0,076
-131,585	800,000	-0,029	0,090
-130,570	-130,621	0,051	0,005
-129,556	-102,128	0,050	0,009
-128,541	245,184	-0,045	0,055
-127,526	-200,000	0,026	-0,103
-126,512	232,824	0,010	0,012
-125,497	250,047	-0,038	-0,047
-124,483	-200,000	0,010	-0,060
-123,468	-97,577	0,055	-0,010
-122,453	66,391	-0,106	-0,078
-121,439	-129,828	-0,040	-0,004
-120,424	-67,233	0,085	-0,024
-119,410	-200,000	0,035	0,216
-118,395	-200,000	0,022	0,071
-117,380	800,000	0,057	0,138
-116,366	-2,366	-0,063	-0,032
-115,351	163,305	0,029	-0,029
-114,337	-173,138	-0,066	-0,001
-113,322	9,326	0,071	-0,039
-112,307	19,440	0,036	-0,021
-111,293	-110,194	0,117	0,018
-110,278	-200,000	0,032	0,182
-109,264	-46,270	0,075	-0,026
-108,249	-77,999	-0,085	-0,021
-107,234	257,013	0,120	-0,150
-106,220	-200,000	0,023	-0,115
-105,205	124,566	-0,072	-0,066
-104,191	-200,000	0,019	0,147
-103,176	-200,000	-0,036	0,117
-102,162	176,343	-0,052	0,054
-101,147	99,034	-0,065	-0,055
-100,132	-8,986	0,185	-0,090
-99,118	69,081	0,053	0,040
-98,103	-200,000	0,000	-0,086
-97,089	-200,000	-0,000	0,101
-96,074	125,863	0,102	0,093
-95,059	800,000	-0,024	0,059
-94,045	87,467	0,042	0,033
-93,030	-200,000	-0,050	-0,188
-92,016	-33,556	-0,064	0,026
-91,001	-79,179	0,038	0,009
-89,986	2,494	-0,011	-0,006
-88,972	-67,188	-0,034	-0,010
-87,957	-14,808	0,125	-0,058
-86,943	-200,000	0,007	0,135
-85,928	-139,163	-0,112	0,009
-84,913	331,023	0,090	-0,125
-83,899	-160,313	-0,047	0,002
-82,884	271,113	0,048	0,061
-81,870	-141,742	0,062	-0,004
-80,855	800,000	-0,010	-0,031
-79,840	-0,172	0,132	0,068
-78,826	-13,307	0,073	-0,034
-77,811	-39,572	-0,134	0,050
-76,797	-144,513	-0,105	-0,007
-75,782	-200,000	0,001	-0,032
-74,767	-85,904	0,121	0,027
-73,753	-125,564	0,025	0,003
-72,738	-179,149	-0,071	-0,001
-71,724	64,226	-0,020	-0,014
-70,709	800,000	0,008	-0,025
-69,694	-200,000	-0,039	-0,169
-68,680	-177,346	-0,097	0,002
-67,665	108,958	0,034	-0,030
-66,651	800,000	0,062	0,144
-65,636	-145,651	0,059	0,004
-64,622	-58,910	-0,077	-0,024
-63,607	26,129	-0,071	0,043
-62,592	800,000	0,069	0,165
-61,578	-112,146	-0,132	-0,019
-60,563	-200,000	0,003	0,046
-59,549	-200,000	0,001	0,119
-58,534	70,268	-2,164	-1,616
-57,519	563,388	-1,065	-1,873
-56,505	-200,000	-0,307	-4,423
-55,490	617,372	0,963	1,755
-54,476	800,000	5,174	11,312
-53,461	-200,000	22,692	348,495
-52,446	800,000	757,148	2281,342
-51,432	495,537	1638,876	2733,963
-50,417	63,656	1592,325	1155,083
-49,403	15,823	1281,957	727,594
-48,388	9,754	1080,596	590,973
-47,373	22,935	1056,840	625,189
-46,359	14,728	1042,914	587,975
-45,344	7,716	1038,273	560,538
-44,330	7,648	1036,346	559,235
-43,315	7,552	1035,149	558,226
-42,300	7,567	1033,784	557,521
-41,286	7,652	1032,967	557,358
-40,271	7,591	1032,015	556,607
-39,257	7,590	1031,329	556,212
-38,242	7,603	1030,549	555,816
-37,227	7,582	1029,485	555,145
-36,213	7,612	1028,387	554,638
-35,198	7,595	1027,670	554,169
-34,184	7,643	1027,168	554,042
-33,169	7,503	1025,930	552,863
-32,154	7,616	1025,346	552,922
-31,140	7,589	1024,286	552,234
-30,125	7,552	1023,730	551,783
-29,111	7,559	1022,635	551,196
-28,096	7,551	1021,740	550,663
-27,082	7,543	1020,860	550,139
-26,067	7,555	1020,047	549,722
-25,052	7,576	1019,412	549,431
-24,038	7,586	1018,997	549,221
-23,023	7,584	1018,013	548,661
-22,009	7,550	1017,244	548,106
-20,994	7,484	1016,423	547,413
-19,979	7,515	1016,111	547,332
-18,965	7,417	1015,544	546,662
-17,950	7,502	1014,562	546,408
-16,936	7,461	1014,117	546,005
-15,921	7,426	1013,261	545,400
-14,906	7,429	1012,452	544,956
-13,892	7,490	1011,650	544,712
-12,877	7,470	1011,126	544,339
-11,863	7,396	1010,686	543,827
-10,848	7,442	1009,859	543,519
-9,833	7,440	1009,398	543,240
-8,819	7,336	1008,851	542,567
-7,804	7,361	1007,988	542,168
-6,790	7,387	1007,131	541,775
-5,775	7,411	1006,358	541,418
-4,760	7,379	1005,602	540,879
-3,746	7,412	1004,999	540,649
-2,731	7,361	1004,416	540,137
-1,717	7,355	1003,905	539,823
-0,702	7,324	1002,953	539,182
0,313	10,967	937,692	516,513
1,327	25,534	497,137	298,315
2,342	37,083	91,336	58,320
3,356	-4,318	16,444	8,194
4,371	-20,083	6,049	2,685
5,386	-16,148	3,961	1,812
6,400	-9,959	3,095	1,482
7,415	-44,740	2,779	0,997
8,429	-46,529	2,634	0,928
9,444	-51,742	2,527	0,846
10,459	-42,153	2,603	0,956
11,473	-44,779	2,550	0,914
12,488	-31,953	2,485	1,000
13,502	-42,393	2,481	0,909
14,517	-23,554	2,548	1,099
15,531	-58,315	2,529	0,789
16,546	-48,918	2,537	0,873
17,561	-39,953	2,266	0,849
18,575	-19,485	2,512	1,119
19,590	-25,247	2,512	1,069
20,604	-39,612	2,489	0,935
21,619	-51,864	2,343	0,782
22,634	-52,699	2,360	0,781
23,648	-51,474	2,383	0,799
24,663	-51,209	2,401	0,807
25,677	-46,602	2,281	0,802
26,692	-39,025	2,236	0,845
27,707	-35,370	2,341	0,913
28,721	-43,708	2,291	0,828
29,736	-59,934	2,469	0,756
30,750	-39,271	2,227	0,839
31,765	-35,650	2,175	0,846
32,780	-60,721	2,450	0,744
33,794	-51,336	2,253	0,755
34,809	-39,788	2,306	0,864
35,823	-58,394	2,382	0,742
36,838	-35,690	2,332	0,907
37,853	-55,174	2,274	0,733
38,867	-49,589	2,318	0,791
39,882	-31,428	2,331	0,940
40,896	-23,815	2,209	0,949
41,911	-53,194	2,295	0,754
42,926	-31,729	2,240	0,901
43,940	-59,464	2,336	0,718
44,955	-65,013	2,286	0,660
45,969	-31,209	2,201	0,889
46,984	-51,848	2,373	0,790
47,999	-40,412	2,252	0,838
49,013	-64,042	2,302	0,672
50,028	-54,027	2,323	0,757
51,042	-64,867	2,336	0,676
52,057	-65,276	2,404	0,692
53,071	-26,993	2,246	0,939
54,086	-38,195	2,354	0,893
55,101	-40,506	2,231	0,829
56,115	-23,755	2,321	0,996
57,130	-34,742	2,119	0,829
58,144	-48,885	2,157	0,740
59,159	-52,026	2,292	0,761
60,174	-49,061	2,278	0,780
61,188	-37,224	2,254	0,862
62,203	-51,485	2,320	0,775
63,217	-39,690	2,308	0,864
64,232	-48,113	2,327	0,804
65,247	-40,337	2,247	0,835
66,261	-48,573	2,289	0,787
67,276	-55,429	2,150	0,689
68,290	-54,271	2,215	0,718
69,305	-49,412	2,241	0,764
70,320	-39,906	2,274	0,849
71,334	-41,580	2,339	0,859
72,349	-52,109	2,081	0,690
73,363	-51,820	2,244	0,746
74,378	-50,958	2,223	0,745
75,393	-41,814	2,325	0,852
76,407	-47,987	2,333	0,806
77,422	-37,531	2,413	0,920
78,436	-42,959	2,272	0,823
79,451	-39,341	2,183	0,818
80,466	-52,989	2,325	0,763
81,480	-55,195	2,167	0,695
82,495	-50,525	2,089	0,703
83,509	-55,547	2,298	0,735
84,524	-37,670	2,274	0,865
85,539	-36,800	2,221	0,851
86,553	-32,782	2,164	0,859
87,568	-52,312	2,171	0,717
88,582	-63,886	2,230	0,650
89,597	-36,788	2,161	0,828
90,611	-44,664	2,177	0,776
91,626	-30,206	2,162	0,877
92,641	-47,907	2,335	0,806
93,655	-33,863	2,184	0,858
94,670	-41,572	2,148	0,788
95,684	-43,148	2,265	0,818
96,699	-45,906	2,265	0,797
97,714	-31,900	2,055	0,821
98,728	-30,890	2,320	0,935
99,743	-33,935	2,288	0,898
100,757	-16,721	2,264	1,023
101,772	-47,680	2,216	0,766
102,787	-49,696	2,166	0,734
103,801	-50,496	2,120	0,713
104,816	-51,545	2,272	0,755
105,830	-46,477	2,341	0,819
106,845	-58,506	2,155	0,666
107,860	-33,417	2,231	0,879
108,874	-41,996	2,225	0,812
109,889	-42,657	2,139	0,776
110,903	-70,885	2,263	0,606
111,918	-36,144	2,231	0,858
112,933	-54,540	2,148	0,692
113,947	-52,256	2,154	0,711
114,962	-57,950	2,203	0,684
115,976	-51,509	2,225	0,739
116,991	-65,384	2,160	0,617
118,006	-38,085	2,185	0,825
119,020	-55,024	2,140	0,686
120,035	-50,035	2,208	0,744
121,049	-48,379	2,265	0,776
122,064	-36,479	2,258	0,865
123,079	-22,554	2,081	0,896
124,093	-40,326	2,118	0,784
125,108	-45,138	2,137	0,756
126,122	-46,989	2,143	0,744
127,137	-26,771	2,179	0,907
128,151	-29,552	2,277	0,926
129,166	-38,526	2,259	0,849
130,181	-39,916	2,133	0,792
131,195	-28,212	2,128	0,875
132,210	-58,056	2,199	0,681
133,224	-46,837	2,074	0,721
134,239	-36,934	2,132	0,813
135,254	-52,401	2,063	0,678
136,268	-30,145	2,034	0,822
137,283	-46,954	2,166	0,752
138,297	-45,029	2,256	0,798
139,312	-31,796	2,044	0,815
140,327	-49,975	2,173	0,732
141,341	-47,782	2,264	0,779
142,356	-21,104	2,162	0,940
143,370	-16,697	2,056	0,925
144,385	-44,607	2,151	0,763
145,400	-29,523	2,169	0,881
146,414	-41,165	2,159	0,791
147,429	-28,684	2,156	0,881
148,443	-29,088	2,090	0,852
149,458	-33,653	2,108	0,826
150,473	-37,390	2,436	0,924
151,487	-21,696	2,136	0,924
152,502	-25,311	2,211	0,929
153,516	-17,036	2,106	0,945
154,531	-39,730	2,088	0,775
155,546	-33,767	2,146	0,840
156,560	-25,848	2,119	0,886
157,575	-33,442	2,144	0,841
158,589	-45,036	2,145	0,757
159,604	-29,498	2,227	0,904
160,619	-28,858	2,127	0,868
161,633	-41,313	2,173	0,794
162,648	-48,724	2,232	0,760
163,662	-29,925	2,208	0,892
164,677	-28,958	2,220	0,904
165,692	-33,576	2,190	0,858
166,706	-27,867	2,116	0,870
167,721	-18,318	2,074	0,920
168,735	-29,290	2,177	0,884
169,750	-24,615	2,156	0,910
170,764	-7,604	2,168	1,041
171,779	-15,362	2,000	0,907
172,794	-29,318	2,190	0,889
173,808	-28,218	2,107	0,863
174,823	-19,616	2,067	0,907
175,837	-11,554	2,172	1,013
176,852	-32,460	2,070	0,818
177,867	-16,655	2,124	0,953
178,881	-15,215	2,165	0,982
179,896	-14,752	2,094	0,953
180,910	-25,383	2,178	0,912
181,925	-38,406	2,112	0,791
182,940	-15,951	2,009	0,906
183,954	-11,565	2,071	0,965
184,969	-36,901	2,232	0,847
185,983	-23,496	2,124	0,903
186,998	-51,432	2,203	0,728
188,013	-17,244	2,038	0,910
189,027	-38,273	2,145	0,804
190,042	-13,063	2,033	0,936
191,056	-21,376	2,228	0,963
192,071	-25,785	2,148	0,896
193,086	-23,466	2,197	0,934
194,100	-17,935	2,147	0,953
195,115	-37,766	2,212	0,832
196,129	-26,150	2,055	0,855
197,144	-31,784	2,051	0,814
198,159	-28,677	2,260	0,920
199,173	-32,579	2,117	0,834
200,188	-10,708	2,223	1,041
201,202	-23,201	2,053	0,874
202,217	-15,254	2,015	0,912
203,232	-34,018	1,987	0,772
204,246	-2,419	2,208	1,095
205,261	-23,984	2,075	0,877
206,275	-37,728	2,171	0,817
207,290	-31,176	2,152	0,857
208,304	-33,837	2,128	0,828
209,319	-44,963	2,173	0,764
210,334	-30,371	2,017	0,808
211,348	-27,102	2,066	0,851
212,363	-44,704	2,111	0,744
213,377	-9,137	2,140	1,012
214,392	-39,360	2,216	0,820
215,407	-25,939	2,103	0,874
216,421	-39,682	2,037	0,752
217,436	-42,541	2,051	0,737
218,450	-41,685	1,956	0,709
219,465	-43,969	2,110	0,748
220,480	-27,961	2,187	0,894
221,494	-28,766	2,078	0,844
222,509	-17,160	2,073	0,923
223,523	-33,253	2,076	0,811
224,538	-37,510	2,079	0,782
225,553	-20,054	2,126	0,926
226,567	-33,091	2,170	0,849
227,582	-31,560	2,107	0,835
228,596	-37,155	2,066	0,779
229,611	-23,824	2,165	0,915
230,626	-39,111	2,028	0,752
231,640	-65,581	2,062	0,582
232,655	-44,467	2,057	0,725
233,669	-21,120	1,921	0,829
234,684	-31,093	2,096	0,834
235,699	-20,455	2,096	0,909
236,713	-19,726	2,070	0,903
237,728	-32,513	2,145	0,842
238,742	-5,665	2,024	0,979
239,757	-46,100	2,092	0,725
240,772	-12,480	2,051	0,944
241,786	-29,049	2,045	0,827
242,801	-41,386	2,076	0,753
243,815	-11,960	1,992	0,920
244,830	-37,562	2,188	0,821
245,844	-33,196	2,019	0,788
246,859	-38,285	2,007	0,748
247,874	-28,534	1,979	0,803
248,888	-35,919	2,015	0,767
249,903	-8,745	2,126	1,005
250,917	-15,436	2,119	0,954
251,932	-31,409	2,029	0,803
252,947	-59,230	2,076	0,629
253,961	-25,645	2,155	0,895
254,976	-20,948	2,072	0,894
255,990	-17,793	2,071	0,915
257,005	-8,354	1,980	0,938
258,020	-38,106	2,076	0,775
259,034	-35,448	2,083	0,796
260,049	-14,412	2,137	0,968
261,063	-16,377	2,031	0,907
262,078	-28,110	1,892	0,770
263,093	-35,930	2,140	0,814
264,107	-24,494	2,166	0,907
265,122	-31,172	2,089	0,828
266,136	-38,525	2,088	0,776
267,151	-18,387	1,988	0,874
268,166	-21,299	2,020	0,868
269,180	-44,138	2,072	0,730
270,195	-41,536	1,997	0,721
271,209	5,201	1,859	0,964
272,224	-31,028	2,082	0,826
273,239	-28,049	2,122	0,863
274,253	-2,875	1,990	0,978
275,268	-13,733	2,092	0,951
276,282	-16,334	1,870	0,834
277,297	-41,546	2,040	0,736
278,312	-12,609	1,895	0,869
279,326	-26,992	1,996	0,818
280,341	-25,338	2,070	0,860
281,355	-33,818	1,984	0,767
282,370	-34,146	2,029	0,783
283,384	-34,451	2,093	0,805
284,399	-15,150	2,045	0,920
285,414	-25,876	2,078	0,859
286,428	-30,037	2,016	0,805
287,443	-23,985	1,947	0,817
288,457	-9,162	1,909	0,897
289,472	-20,582	1,953	0,842
290,487	-32,753	2,029	0,791
291,501	-32,092	1,971	0,773
292,516	-15,263	1,938	0,870
293,530	-24,596	2,150	0,898
294,545	-33,733	2,078	0,803
295,560	-15,661	2,028	0,908
296,574	1,209	2,051	1,034
297,589	-20,876	1,938	0,833
298,603	-10,761	2,007	0,931
299,618	-11,488	2,035	0,939
300,633	-10,137	2,053	0,957
301,647	-10,453	1,970	0,916
302,662	-17,657	2,118	0,933
303,676	-37,129	2,051	0,769
304,691	-15,602	2,003	0,896
305,706	-26,103	1,892	0,780
306,720	-38,762	1,993	0,736
307,735	-14,136	2,089	0,945
308,749	-21,382	2,002	0,856
309,764	-30,471	2,027	0,805
310,779	-26,058	1,973	0,813
311,793	-27,785	1,988	0,807
312,808	-14,481	2,041	0,920
313,822	-10,203	1,931	0,898
314,837	-48,368	1,980	0,667
315,852	-23,681	2,074	0,871
316,866	-11,917	2,037	0,935
317,881	-37,640	1,915	0,714
318,895	-48,047	2,003	0,677
319,910	-35,545	2,076	0,788
320,925	-43,951	1,996	0,701
321,939	-2,458	1,920	0,942
322,954	-0,676	1,917	0,952
323,968	-18,755	1,932	0,842
324,983	-37,761	1,991	0,741
325,997	-28,125	2,061	0,833
327,012	-7,986	1,905	0,899
328,027	-35,598	1,959	0,743
329,041	-38,023	2,061	0,765
330,056	-34,255	2,040	0,783
331,070	-21,409	1,997	0,853
332,085	-13,581	1,915	0,868
333,100	-6,876	1,868	0,888
334,114	-51,974	2,028	0,658
335,129	-41,889	2,018	0,722
336,143	-26,433	1,910	0,783
337,158	-40,360	1,945	0,706
338,173	-33,086	1,966	0,762
339,187	-19,603	2,081	0,900
340,202	15,644	1,827	1,005
341,216	-19,937	1,957	0,844
342,231	-43,904	1,897	0,666
343,246	-20,147	1,932	0,832
344,260	-7,600	1,914	0,905
345,275	-40,729	2,095	0,757
346,289	-44,773	1,992	0,693
347,304	-1,877	1,935	0,951
348,319	-19,817	1,796	0,775
349,333	-47,173	1,917	0,651
350,348	-35,119	1,849	0,703
351,362	-11,616	1,787	0,820
352,377	-23,579	1,907	0,799
353,392	-21,638	1,927	0,819
354,406	-14,950	1,865	0,835
355,421	195,809	1305,093	1392,704
356,435	150,186	1464,345	1393,158
