DTS Sentinel unit serial number:	SN410029Multiplexer serial number:	ORYXHardware model number:	OX2-SRSoftware version number:	ORYX F/W v4,00 Oryx Data Collector v3.7.2.0data status	okinstallation	B3 Nyhavnadifferential loss correction	single-endedforward channel	channel 1reverse channel	N/Adate	2023/11/28time	11:42:30forward acquisition time	300,00reverse acquisition time	0,00gamma	499,1914k internal	0,3147k external	0,3147temperature offset calibration	1,0000default loss term (dB/km)	0,3820temperature slope calibration	1,0000multiplexer offset coefficient	1,0000multiplexer slope coefficient	1,0000fibre end	0,00T internal ref (°C)	9,03T ext. ref 1 (°C)	-7,56T ext. ref 2 (°C)	-7,77length (m)	temperature (°C)	Stokes	anti-Stokes-744,400	71,049	-0,205	-0,157
-743,385	85,791	-0,190	0,155
-742,371	507,908	-0,084	-0,146
-741,356	-200,000	-0,073	0,369
-740,342	-200,000	-0,063	-0,244
-739,327	290,746	-0,212	0,286
-738,312	54,894	-0,191	-0,136
-737,298	-200,000	-0,046	0,379
-736,283	800,000	-0,078	-0,166
-735,269	-200,000	-0,012	0,168
-734,254	212,176	-0,184	-0,215
-733,239	83,440	-0,133	0,107
-732,225	800,000	-0,118	-0,261
-731,210	-200,000	-0,002	0,045
-730,196	800,000	-0,035	-0,080
-729,181	-200,000	-0,003	-0,028
-728,167	-200,000	-0,002	-0,104
-727,152	-67,464	-0,059	-0,017
-726,137	237,548	-0,061	-0,075
-725,123	-76,077	-0,071	0,018
-724,108	-200,000	0,017	-0,229
-723,094	84,894	-0,114	-0,093
-722,079	-127,762	-0,171	-0,018
-721,064	-30,605	0,085	-0,036
-720,050	232,130	-0,030	-0,036
-719,035	800,000	0,007	0,016
-718,021	-104,889	0,028	0,005
-717,006	-20,779	-0,023	0,010
-715,991	63,125	-0,081	-0,060
-714,977	-200,000	-0,010	-0,157
-713,962	-200,000	-0,050	-0,169
-712,948	43,338	0,109	-0,073
-711,933	800,000	-0,059	-0,189
-710,918	171,481	-0,114	0,121
-709,904	57,703	-0,134	0,096
-708,889	311,277	-0,113	-0,157
-707,875	-200,000	0,018	-0,062
-706,860	800,000	0,026	-0,080
-705,845	800,000	0,049	0,120
-704,831	-200,000	-0,003	0,026
-703,816	-16,518	-0,081	0,038
-702,802	800,000	-0,024	-0,069
-701,787	233,107	-0,077	0,094
-700,772	-94,582	-0,186	0,037
-699,758	-200,000	0,013	0,058
-698,743	358,299	-0,039	0,058
-697,729	24,683	0,076	0,046
-696,714	800,000	-0,019	0,042
-695,699	-43,012	-0,065	-0,024
-694,685	-200,000	0,001	0,072
-693,670	774,287	-0,071	-0,144
-692,656	36,574	0,068	-0,044
-691,641	-5,696	-0,046	0,023
-690,627	219,610	-0,039	0,047
-689,612	-55,673	-0,057	0,019
-688,597	-200,000	0,003	-0,130
-687,583	277,413	-0,088	-0,116
-686,568	-58,558	-0,187	-0,060
-685,554	-181,760	0,050	0,001
-684,539	318,858	-0,022	-0,031
-683,524	274,039	-0,070	-0,091
-682,510	60,582	-0,174	0,127
-681,495	-29,728	-0,040	-0,017
-680,481	130,323	-0,032	0,030
-679,466	-147,326	-0,115	-0,007
-678,451	-59,249	-0,014	0,004
-677,437	44,216	0,106	0,072
-676,422	-162,464	-0,040	-0,001
-675,408	218,680	-0,070	0,083
-674,393	800,000	-0,043	-0,104
-673,378	-200,000	-0,012	-0,182
-672,364	-19,989	-0,123	0,056
-671,349	366,529	-0,057	-0,085
-670,335	-18,327	-0,089	0,041
-669,320	198,040	-0,039	0,044
-668,305	73,127	-0,134	0,103
-667,291	-200,000	-0,011	-0,158
-666,276	-200,000	-0,011	-0,125
-665,262	-26,161	0,106	0,046
-664,247	636,728	-0,102	-0,193
-663,232	217,725	0,042	0,050
-662,218	47,484	0,063	0,043
-661,203	-118,337	-0,010	0,001
-660,189	-200,000	-0,003	-0,014
-659,174	-200,000	0,013	-0,057
-658,159	237,324	0,037	0,045
-657,145	-129,892	-0,124	0,012
-656,130	35,418	-0,048	-0,031
-655,116	-24,139	-0,075	0,033
-654,101	800,000	0,042	0,124
-653,086	-160,254	0,071	-0,003
-652,072	753,364	-0,072	0,144
-651,057	52,876	-0,086	-0,061
-650,043	48,459	-0,015	0,010
-649,028	5,276	-0,056	0,031
-648,014	29,770	-0,075	-0,047
-646,999	-70,742	0,260	0,072
-645,984	0,352	0,061	0,032
-644,970	268,336	-0,054	-0,070
-643,955	-55,875	-0,249	0,081
-642,941	244,578	-0,020	0,025
-641,926	132,009	-0,035	-0,034
-640,911	-16,781	-0,026	-0,012
-639,897	-92,387	-0,124	0,025
-638,882	533,505	-0,033	0,057
-637,868	-200,000	0,012	0,082
-636,853	800,000	-0,012	-0,037
-635,838	249,977	0,052	0,065
-634,824	180,687	-0,017	0,019
-633,809	-200,000	0,025	-0,103
-632,795	-200,000	0,026	0,115
-631,780	123,047	0,153	-0,141
-630,765	-2,035	-0,091	-0,047
-629,751	178,072	-0,010	-0,011
-628,736	-87,741	-0,099	0,022
-627,722	-200,000	-0,136	0,000
-626,707	289,313	0,108	0,145
-625,692	216,813	-0,099	0,116
-624,678	172,637	-0,062	0,066
-623,663	491,200	-0,054	-0,091
-622,649	52,004	-0,093	-0,065
-621,634	-119,190	-0,022	0,003
-620,619	-66,861	0,067	-0,019
-619,605	33,280	0,029	0,019
-618,590	-56,073	-0,136	-0,044
-617,576	-0,087	-0,040	0,021
-616,561	-56,967	0,041	-0,013
-615,546	-87,993	-0,077	0,017
-614,532	-135,605	-0,056	0,005
-613,517	-115,288	0,078	0,011
-612,503	482,267	0,023	-0,039
-611,488	-11,229	-0,108	-0,052
-610,474	-75,581	-0,105	-0,027
-609,459	-200,000	0,008	0,072
-608,444	-97,774	0,169	-0,032
-607,430	104,846	0,070	-0,061
-606,415	-46,734	-0,130	-0,047
-605,401	535,293	0,025	0,043
-604,386	800,000	0,053	0,132
-603,371	54,235	0,115	0,081
-602,357	29,816	-0,038	0,024
-601,342	510,764	-0,074	-0,127
-600,328	109,147	0,061	0,053
-599,313	208,015	0,039	-0,045
-598,298	26,276	0,127	0,078
-597,284	-200,000	-0,001	-0,031
-596,269	-64,099	0,092	-0,027
-595,255	232,997	-0,043	-0,052
-594,240	143,188	-0,087	0,085
-593,225	-87,051	-0,091	0,020
-592,211	609,083	0,066	-0,122
-591,196	15,611	0,017	0,010
-590,182	387,066	0,051	0,077
-589,167	800,000	-0,048	-0,106
-588,152	-158,761	-0,025	-0,001
-587,138	-200,000	-0,026	0,116
-586,123	66,390	-0,063	-0,047
-585,109	800,000	-0,019	-0,058
-584,094	50,822	-0,044	0,030
-583,079	-32,308	0,076	-0,031
-582,065	-200,000	0,003	0,309
-581,050	-200,000	-0,011	0,113
-580,036	-50,912	-0,116	-0,040
-579,021	475,331	0,021	-0,035
-578,006	-200,000	-0,011	-0,105
-576,992	-67,068	-0,096	0,028
-575,977	58,087	-0,051	0,036
-574,963	101,072	0,150	0,129
-573,948	-3,171	-0,039	-0,020
-572,934	800,000	0,040	0,113
-571,919	438,306	-0,037	0,059
-570,904	-200,000	0,001	-0,072
-569,890	339,917	0,068	-0,097
-568,875	441,631	-0,037	0,060
-567,861	630,421	-0,023	0,043
-566,846	-200,000	-0,012	0,101
-565,831	-24,656	0,033	-0,014
-564,817	124,162	0,105	-0,097
-563,802	-200,000	0,018	-0,118
-562,788	-200,000	-0,041	0,000
-561,773	27,006	0,064	-0,039
-560,758	108,665	0,100	0,087
-559,744	-200,000	0,013	-0,105
-558,729	635,447	0,058	-0,109
-557,715	-13,906	0,045	-0,021
-556,700	125,753	-0,118	-0,109
-555,685	-200,000	-0,035	-0,171
-554,671	-52,544	0,029	0,010
-553,656	-200,000	0,007	-0,139
-552,642	-200,000	0,011	0,094
-551,627	95,967	-0,031	-0,026
-550,612	-200,000	0,017	0,058
-549,598	470,016	-0,065	0,108
-548,583	44,631	0,059	-0,039
-547,569	141,069	-0,123	-0,120
-546,554	-200,000	-0,023	0,086
-545,539	-177,836	-0,084	0,001
-544,525	-200,000	-0,012	-0,102
-543,510	-178,355	0,049	-0,001
-542,496	33,657	-0,060	0,038
-541,481	-200,000	0,020	-0,086
-540,466	164,682	0,068	0,070
-539,452	282,492	0,024	0,032
-538,437	330,740	-0,011	-0,016
-537,423	-126,327	-0,034	-0,004
-536,408	-5,657	0,065	0,033
-535,393	22,955	0,017	0,010
-534,379	-200,000	-0,022	-0,095
-533,364	31,820	-0,012	-0,008
-532,350	-200,000	0,009	-0,072
-531,335	-143,812	0,017	-0,001
-530,321	800,000	-0,050	-0,104
-529,306	123,026	0,028	-0,026
-528,291	800,000	-0,008	-0,020
-527,277	-18,284	-0,157	-0,072
-526,262	-200,000	0,014	-0,131
-525,248	744,642	0,005	-0,010
-524,233	-200,000	0,002	-0,094
-523,218	800,000	-0,030	-0,074
-522,204	67,223	0,055	0,041
-521,189	74,933	0,043	-0,033
-520,175	18,940	0,003	0,002
-519,160	800,000	-0,049	-0,125
-518,145	-23,353	0,046	-0,020
-517,131	800,000	0,034	-0,088
-516,116	134,917	0,063	-0,060
-515,102	362,352	-0,027	-0,039
-514,087	428,209	-0,099	-0,157
-513,072	0,293	0,123	0,064
-512,058	-144,213	-0,075	0,005
-511,043	263,169	0,050	-0,063
-510,029	-44,082	-0,057	0,021
-509,014	800,000	-0,032	0,068
-507,999	-39,604	-0,037	0,014
-506,985	678,217	-0,030	0,057
-505,970	394,584	0,039	-0,060
-504,956	-200,000	0,000	-0,175
-503,941	800,000	0,010	0,019
-502,926	47,220	0,094	0,064
-501,912	57,241	-0,126	0,090
-500,897	219,842	0,097	0,114
-499,883	-200,000	-0,001	-0,026
-498,868	-200,000	0,033	-0,152
-497,853	494,101	0,057	-0,096
-496,839	-129,308	0,051	-0,005
-495,824	800,000	-0,043	-0,091
-494,810	-158,559	0,228	0,009
-493,795	800,000	-0,020	0,056
-492,781	-200,000	0,018	0,094
-491,766	385,969	-0,044	-0,067
-490,751	-88,346	-0,093	-0,020
-489,737	-77,798	-0,113	-0,028
-488,722	61,467	0,067	0,049
-487,708	592,084	-0,051	0,093
-486,693	-21,151	0,040	0,018
-485,678	-14,232	0,043	0,020
-484,664	732,226	-0,092	-0,180
-483,649	-200,000	-0,009	0,075
-482,635	79,651	-0,079	0,062
-481,620	411,045	0,092	0,143
-480,605	-162,194	-0,016	0,001
-479,591	-200,000	0,004	0,224
-478,576	-12,491	-0,074	0,035
-477,562	800,000	-0,036	-0,112
-476,547	373,287	0,033	0,049
-475,532	800,000	-0,055	-0,159
-474,518	70,327	-0,054	-0,041
-473,503	-31,498	-0,056	0,023
-472,489	-200,000	-0,017	0,080
-471,474	140,840	0,175	0,169
-470,459	-200,000	-0,004	0,092
-469,445	214,206	0,039	-0,045
-468,430	210,160	-0,056	-0,065
-467,416	342,603	0,040	-0,057
-466,401	-73,262	0,107	0,028
-465,386	48,947	0,121	-0,083
-464,372	-141,057	-0,171	-0,013
-463,357	-123,852	-0,008	0,001
-462,343	-78,293	-0,154	-0,039
-461,328	-49,994	0,030	-0,010
-460,313	237,202	0,065	0,079
-459,299	-28,191	-0,124	0,052
-458,284	-200,000	-0,017	0,108
-457,270	-1,460	0,077	-0,040
-456,255	-56,493	0,084	0,027
-455,241	-17,221	0,052	-0,024
-454,226	-200,000	-0,016	0,102
-453,211	800,000	-0,033	-0,072
-452,197	181,382	0,115	0,124
-451,182	208,551	-0,095	0,109
-450,168	-1,078	0,120	-0,062
-449,153	186,840	-0,013	-0,015
-448,138	289,374	0,057	0,076
-447,124	-67,203	-0,093	-0,027
-446,109	-200,000	0,031	0,106
-445,095	800,000	0,053	0,157
-444,080	69,762	0,155	0,117
-443,065	84,581	-0,066	0,053
-442,051	436,496	-0,034	-0,054
-441,036	1,161	-0,102	-0,053
-440,022	-179,783	0,088	-0,001
-439,007	251,419	-0,050	-0,062
-437,992	328,462	-0,015	-0,021
-436,978	0,433	0,062	-0,032
-435,963	-15,607	-0,068	0,031
-434,949	39,295	-0,089	0,058
-433,934	800,000	-0,034	-0,096
-432,919	357,215	-0,081	-0,118
-431,905	-200,000	0,021	-0,081
-430,890	-134,428	-0,032	-0,003
-429,876	-200,000	-0,009	0,079
-428,861	-50,610	0,169	-0,058
-427,846	-200,000	-0,002	-0,081
-426,832	-132,322	-0,120	-0,011
-425,817	800,000	-0,042	-0,085
-424,803	-77,718	-0,039	0,010
-423,788	-42,443	0,091	-0,034
-422,773	68,294	-0,023	-0,017
-421,759	160,272	0,015	0,016
-420,744	-200,000	-0,016	-0,091
-419,730	-200,000	-0,038	-0,156
-418,715	-38,253	0,032	0,012
-417,701	-200,000	0,020	-0,105
-416,686	444,677	0,074	-0,118
-415,671	-52,369	0,064	-0,022
-414,657	4,747	-0,087	0,047
-413,642	-200,000	0,005	0,083
-412,628	-200,000	-0,011	0,064
-411,613	800,000	0,021	-0,054
-410,598	782,055	0,033	0,066
-409,584	800,000	0,047	0,111
-408,569	10,174	0,074	-0,041
-407,555	98,528	0,075	-0,063
-406,540	-200,000	0,018	0,209
-405,525	571,616	-0,006	0,010
-404,511	-200,000	0,006	-0,093
-403,496	-200,000	-0,001	-0,009
-402,482	250,130	0,054	0,068
-401,467	-81,418	0,073	0,017
-400,452	251,675	0,070	0,087
-399,438	800,000	0,030	0,064
-398,423	-76,013	-0,093	0,024
-397,409	150,565	-0,065	-0,064
-396,394	-200,000	-0,037	-0,159
-395,379	-22,690	0,096	0,042
-394,365	800,000	0,083	-0,216
-393,350	-200,000	-0,001	-0,054
-392,336	313,499	-0,084	0,115
-391,321	287,906	0,054	-0,071
-390,306	800,000	0,006	0,015
-389,292	169,820	0,029	-0,031
-388,277	-124,206	0,215	-0,024
-387,263	-200,000	-0,011	0,085
-386,248	168,949	0,065	0,067
-385,233	39,459	0,103	0,067
-384,219	162,523	-0,057	0,059
-383,204	133,731	-0,114	-0,108
-382,190	-104,437	0,056	-0,009
-381,175	800,000	-0,020	0,065
-380,160	800,000	0,014	0,042
-379,146	-18,988	0,131	0,059
-378,131	433,938	-0,112	0,178
-377,117	-200,000	0,002	0,030
-376,102	-25,357	-0,045	0,020
-375,088	526,656	-0,092	-0,159
-374,073	-200,000	-0,029	0,124
-373,058	411,244	0,016	-0,024
-372,044	800,000	0,054	0,136
-371,029	-200,000	0,023	0,114
-370,015	100,134	-0,012	0,010
-369,000	-67,301	0,070	0,020
-367,985	-19,014	-0,055	-0,025
-366,971	60,259	-0,056	-0,040
-365,956	-200,000	0,012	-0,063
-364,942	-85,806	-0,066	0,015
-363,927	315,971	-0,041	0,057
-362,912	-33,955	-0,155	0,062
-361,898	387,480	0,016	0,024
-360,883	394,815	0,029	0,044
-359,869	163,714	-0,044	0,046
-358,854	-200,000	0,037	0,136
-357,839	24,239	0,044	-0,026
-356,825	-85,541	-0,124	0,028
-355,810	800,000	0,048	0,114
-354,796	-161,891	-0,085	0,003
-353,781	-155,092	-0,024	-0,001
-352,766	-200,000	-0,009	-0,269
-351,752	-63,446	-0,171	-0,051
-350,737	800,000	0,048	0,106
-349,723	-200,000	0,036	0,177
-348,708	-54,067	-0,065	0,021
-347,693	-200,000	0,001	0,014
-346,679	-200,000	-0,021	0,083
-345,664	170,539	0,145	-0,152
-344,650	120,347	0,119	-0,107
-343,635	-38,667	0,032	0,012
-342,620	-200,000	-0,001	0,024
-341,606	81,142	0,216	0,170
-340,591	-7,730	-0,156	-0,077
-339,577	-200,000	0,006	-0,048
-338,562	-102,024	-0,068	0,012
-337,548	587,990	0,110	-0,199
-336,533	-119,133	-0,039	0,005
-335,518	-200,000	-0,006	0,045
-334,504	-61,517	0,096	0,029
-333,489	41,836	-0,066	-0,044
-332,475	1,551	-0,057	0,030
-331,460	89,969	0,039	-0,031
-330,445	-200,000	0,028	-0,142
-329,431	-28,567	0,125	0,052
-328,416	800,000	0,113	0,255
-327,402	800,000	0,036	0,081
-326,387	-79,860	-0,163	-0,040
-325,372	232,501	0,057	-0,068
-324,358	29,799	0,157	-0,097
-323,343	-122,260	-0,088	0,010
-322,329	123,762	0,115	0,105
-321,314	-20,127	0,005	0,002
-320,299	49,958	0,081	0,056
-319,285	4,238	0,122	0,065
-318,270	-49,958	-0,163	-0,056
-317,256	203,353	0,049	-0,055
-316,241	-98,487	0,070	-0,013
-315,226	-185,173	0,086	0,001
-314,212	-12,638	-0,072	0,034
-313,197	232,778	0,050	-0,060
-312,183	800,000	0,011	0,028
-311,168	-111,613	-0,145	0,021
-310,153	530,159	0,029	-0,049
-309,139	55,118	0,145	-0,102
-308,124	469,092	-0,051	0,084
-307,110	-200,000	-0,012	0,113
-306,095	-179,762	0,032	-0,000
-305,080	127,733	0,039	0,036
-304,066	298,402	0,040	-0,054
-303,051	800,000	-0,021	-0,064
-302,037	63,857	0,047	0,034
-301,022	543,914	-0,032	0,055
-300,008	59,740	0,058	-0,042
-298,993	800,000	0,085	-0,186
-297,978	10,751	-0,134	-0,074
-296,964	-2,726	0,067	-0,034
-295,949	-200,000	-0,003	0,016
-294,935	-200,000	-0,001	-0,092
-293,920	124,965	-0,061	-0,056
-292,905	-200,000	0,013	-0,076
-291,891	-200,000	0,011	0,038
-290,876	-200,000	0,007	-0,036
-289,862	204,721	0,060	0,068
-288,847	-71,999	-0,121	0,033
-287,832	335,798	-0,049	-0,069
-286,818	-200,000	-0,004	0,065
-285,803	-20,433	0,066	-0,030
-284,789	222,063	0,013	-0,016
-283,774	-33,625	0,064	-0,026
-282,759	-200,000	0,010	-0,062
-281,745	-146,185	-0,094	-0,006
-280,730	-88,870	-0,125	0,027
-279,716	354,635	-0,018	-0,026
-278,701	-72,693	-0,049	-0,013
-277,686	104,593	0,036	0,031
-276,672	-97,809	0,093	0,017
-275,657	43,831	-0,086	0,057
-274,643	-116,122	-0,106	-0,014
-273,628	-23,046	-0,122	-0,053
-272,613	-138,340	-0,097	-0,008
-271,599	-200,000	-0,024	0,095
-270,584	-200,000	-0,025	-0,081
-269,570	29,712	0,063	-0,039
-268,555	281,144	-0,038	-0,049
-267,540	-200,000	-0,021	-0,082
-266,526	35,778	-0,066	-0,042
-265,511	197,933	-0,059	-0,065
-264,497	-200,000	-0,005	0,057
-263,482	151,377	0,119	-0,118
-262,467	-124,679	0,013	0,001
-261,453	-200,000	-0,004	0,021
-260,438	-200,000	-0,004	0,021
-259,424	800,000	-0,054	0,147
-258,409	160,925	0,108	0,109
-257,395	100,054	0,081	0,068
-256,380	223,973	0,088	-0,104
-255,365	800,000	-0,058	0,152
-254,351	116,940	-0,074	0,066
-253,336	-4,479	-0,064	-0,032
-252,322	564,128	-0,027	-0,048
-251,307	188,905	-0,042	-0,046
-250,292	-72,664	0,117	0,031
-249,278	211,475	-0,003	-0,004
-248,263	-200,000	-0,024	0,167
-247,249	84,169	-0,043	0,034
-246,234	575,651	-0,052	0,093
-245,219	6,828	0,074	0,040
-244,205	-200,000	0,001	0,089
-243,190	129,559	-0,093	-0,086
-242,176	430,242	-0,021	-0,032
-241,161	176,771	0,073	0,077
-240,146	346,872	0,050	0,072
-239,132	-200,000	-0,038	0,156
-238,117	-77,787	0,171	0,042
-237,103	61,082	-0,096	-0,069
-236,088	-55,227	0,100	0,032
-235,073	689,950	0,035	0,066
-234,059	429,944	0,079	0,124
-233,044	800,000	0,051	0,118
-232,030	38,017	0,066	-0,043
-231,015	-155,040	-0,107	0,005
-230,000	307,992	-0,058	-0,079
-228,986	-200,000	-0,007	0,025
-227,971	-121,127	0,171	-0,021
-226,957	267,876	-0,013	-0,016
-225,942	-84,586	0,143	-0,032
-224,927	-48,641	0,041	-0,014
-223,913	-74,140	-0,161	-0,042
-222,898	35,560	0,083	-0,053
-221,884	-189,983	-0,126	-0,001
-220,869	-200,000	0,029	-0,131
-219,855	-102,014	0,055	0,009
-218,840	-72,083	0,136	0,036
-217,825	339,513	-0,016	0,022
-216,811	-200,000	-0,026	-0,117
-215,796	-20,519	0,082	-0,036
-214,782	-170,401	0,055	-0,001
-213,767	-200,000	-0,008	-0,033
-212,752	800,000	0,003	-0,009
-211,738	361,738	-0,043	0,063
-210,723	131,275	0,069	0,064
-209,709	-115,927	0,013	0,002
-208,694	63,547	0,086	-0,062
-207,679	-200,000	0,015	-0,055
-206,665	-29,037	-0,083	-0,034
-205,650	-200,000	-0,020	0,117
-204,636	46,049	0,065	0,044
-203,621	-74,436	0,035	0,009
-202,606	-200,000	-0,008	-0,118
-201,592	36,510	-0,095	-0,061
-200,577	800,000	-0,070	0,179
-199,563	-85,300	0,041	-0,009
-198,548	-200,000	-0,010	-0,130
-197,533	40,988	-0,060	0,039
-196,519	174,978	0,010	0,011
-195,504	-99,832	-0,108	0,019
-194,490	428,411	0,031	-0,049
-193,475	154,028	-0,046	-0,046
-192,460	-82,192	0,096	-0,022
-191,446	357,224	0,049	-0,072
-190,431	283,271	0,033	0,043
-189,417	-200,000	-0,010	-0,134
-188,402	-115,152	-0,031	0,004
-187,387	194,778	-0,148	-0,162
-186,373	-42,076	-0,049	-0,018
-185,358	800,000	-0,013	-0,037
-184,344	-200,000	-0,007	0,025
-183,329	163,643	-0,056	0,057
-182,315	-87,963	0,116	0,025
-181,300	800,000	-0,023	-0,053
-180,285	-200,000	-0,007	-0,038
-179,271	-200,000	-0,028	0,173
-178,256	-175,095	-0,140	-0,003
-177,242	800,000	0,045	0,108
-176,227	-200,000	-0,012	-0,060
-175,212	220,275	0,013	0,015
-174,198	22,886	-0,036	0,021
-173,183	779,430	0,025	-0,051
-172,169	243,339	-0,080	-0,097
-171,154	312,948	-0,071	-0,096
-170,139	-123,380	0,119	0,014
-169,125	-96,394	-0,178	0,034
-168,110	-200,000	-0,026	0,090
-167,096	800,000	-0,016	0,043
-166,081	-200,000	0,019	0,077
-165,066	-176,450	0,125	-0,002
-164,052	-31,273	-0,046	0,019
-163,037	141,420	-0,095	0,091
-162,023	-200,000	-0,036	0,171
-161,008	-7,262	0,100	0,049
-159,993	-57,206	-0,182	-0,058
-158,979	-200,000	0,039	-0,164
-157,964	-180,221	0,106	-0,002
-156,950	-200,000	-0,016	0,000
-155,935	-64,656	-0,084	-0,025
-154,920	-101,666	0,070	-0,012
-153,906	-200,000	-0,012	-0,042
-152,891	384,790	0,026	-0,040
-151,877	-200,000	-0,020	-0,144
-150,862	-0,120	0,141	-0,072
-149,847	-200,000	-0,007	0,118
-148,833	-66,313	-0,070	-0,020
-147,818	284,702	0,082	0,106
-146,804	-200,000	0,037	0,128
-145,789	800,000	-0,024	-0,054
-144,775	-200,000	0,001	-0,008
-143,760	47,954	-0,130	0,087
-142,745	48,435	-0,087	-0,059
-141,731	235,694	-0,033	0,039
-140,716	233,459	-0,064	0,076
-139,702	800,000	0,042	0,094
-138,687	-200,000	-0,003	-0,012
-137,672	-53,888	-0,124	-0,041
-136,658	116,782	-0,009	-0,008
-135,643	173,957	-0,049	0,051
-134,629	-200,000	-0,048	0,177
-133,614	231,135	-0,030	0,036
-132,599	-8,875	-0,060	-0,029
-131,585	27,849	-0,144	-0,088
-130,570	800,000	0,026	-0,065
-129,556	-99,738	-0,097	-0,017
-128,541	4,981	0,091	0,048
-127,526	-67,929	-0,148	-0,042
-126,512	50,661	0,037	0,025
-125,497	-200,000	-0,004	0,099
-124,483	387,993	-0,045	0,067
-123,468	-9,897	0,103	0,049
-122,453	292,115	-0,036	-0,048
-121,439	-66,744	-0,142	-0,040
-120,424	418,347	-0,013	0,020
-119,410	4,175	0,061	-0,032
-118,395	9,618	-0,082	0,044
-117,380	-178,553	0,043	0,001
-116,366	294,004	-0,081	-0,107
-115,351	-77,629	-0,043	-0,011
-114,337	239,631	0,055	-0,066
-113,322	800,000	0,092	-0,230
-112,307	800,000	0,077	0,163
-111,293	54,950	-0,044	-0,031
-110,278	-200,000	0,017	0,115
-109,264	-200,000	0,004	-0,019
-108,249	626,706	0,024	-0,044
-107,234	-13,159	-0,129	0,060
-106,220	-129,891	-0,114	0,011
-105,205	800,000	0,058	0,143
-104,191	-106,399	-0,094	-0,015
-103,176	-43,853	-0,030	0,011
-102,162	364,360	-0,017	0,025
-101,147	-200,000	0,004	0,075
-100,132	-200,000	-0,102	0,000
-99,118	-109,809	-0,054	-0,008
-98,103	-96,047	-0,056	-0,011
-97,089	98,711	0,058	0,048
-96,074	191,623	0,039	0,042
-95,059	-79,561	-0,079	0,019
-94,045	-200,000	-0,013	-0,055
-93,030	800,000	0,070	-0,155
-92,016	35,224	0,030	0,019
-91,001	369,631	0,086	-0,127
-89,986	-200,000	-0,002	0,031
-88,972	93,678	0,023	0,019
-87,957	342,239	0,087	0,123
-86,943	800,000	0,027	-0,072
-85,928	212,454	-0,106	0,121
-84,913	-57,431	0,080	0,025
-83,899	244,718	0,044	0,054
-82,884	426,644	0,058	0,090
-81,870	800,000	0,037	0,078
-80,855	439,077	-0,049	0,077
-79,840	800,000	0,078	0,181
-78,826	461,914	-0,114	-0,183
-77,811	-77,904	-0,109	0,027
-76,797	-200,000	-0,013	-0,085
-75,782	-174,212	0,173	0,004
-74,767	800,000	-0,062	-0,177
-73,753	3,900	-0,133	0,070
-72,738	193,743	0,074	0,080
-71,724	314,519	-0,049	-0,066
-70,709	-66,325	-0,087	0,025
-69,694	617,213	-0,071	-0,129
-68,680	-200,000	0,004	-0,025
-67,665	635,700	-0,017	0,031
-66,651	-7,661	-0,041	-0,020
-65,636	-200,000	-0,003	0,057
-64,622	-175,001	0,068	0,001
-63,607	712,387	0,043	0,083
-62,592	-87,240	-0,072	-0,016
-61,578	-200,000	-0,001	0,045
-60,563	-200,000	-0,034	0,197
-59,549	800,000	-0,084	0,220
-58,534	46,732	-2,104	-1,405
-57,519	586,416	-1,142	-2,033
-56,505	-200,000	-0,179	-4,266
-55,490	626,410	0,817	1,492
-54,476	800,000	5,167	11,337
-53,461	-200,000	21,765	340,744
-52,446	800,000	757,124	2315,196
-51,432	516,788	1649,998	2788,241
-50,417	69,997	1574,904	1168,809
-49,403	21,073	1119,399	652,230
-48,388	12,662	817,693	453,216
-47,373	26,578	781,038	469,448
-46,359	18,462	766,664	439,919
-45,344	9,181	762,347	413,488
-44,330	9,018	760,873	412,251
-43,315	8,981	759,578	411,438
-42,300	8,962	758,293	410,676
-41,286	8,999	757,338	410,238
-40,271	8,977	756,606	409,770
-39,257	8,962	755,694	409,221
-38,242	8,995	754,756	408,780
-37,227	9,057	754,060	408,548
-36,213	8,998	753,118	407,869
-35,198	9,028	752,230	407,448
-34,184	9,087	751,733	407,314
-33,169	8,947	751,109	406,604
-32,154	9,125	750,269	406,586
-31,140	9,103	748,839	405,737
-30,125	9,203	748,195	405,628
-29,111	9,044	747,913	405,054
-28,096	9,017	747,613	404,806
-27,082	8,998	746,902	404,358
-26,067	9,059	746,356	404,201
-25,052	8,945	745,518	403,442
-24,038	8,968	745,118	403,270
-23,023	8,985	744,452	402,934
-22,009	9,103	743,815	402,872
-20,994	9,078	742,956	402,328
-19,979	9,151	742,276	402,127
-18,965	9,027	741,849	401,570
-17,950	9,111	741,636	401,647
-16,936	9,055	740,754	401,014
-15,921	9,105	740,237	400,845
-14,906	8,963	739,681	400,169
-13,892	9,020	739,082	399,973
-12,877	9,010	738,546	399,642
-11,863	8,903	738,262	399,205
-10,848	8,905	737,969	399,037
-9,833	8,948	737,506	398,878
-8,819	9,044	736,551	398,584
-7,804	9,045	735,969	398,256
-6,790	9,088	735,403	398,041
-5,775	9,031	735,410	397,887
-4,760	8,991	734,686	397,381
-3,746	8,904	734,433	397,010
-2,731	8,746	733,982	396,359
-1,717	8,860	733,584	396,410
-0,702	8,762	732,934	395,801
0,313	8,912	729,412	394,866
1,327	12,738	707,408	392,098
2,342	21,305	572,089	333,588
3,356	15,153	316,005	177,702
4,371	-14,970	212,254	97,517
5,386	-18,463	199,911	89,435
6,400	-18,574	196,030	87,616
7,415	-17,610	194,410	87,529
8,429	-18,482	193,354	86,465
9,444	-18,573	192,521	86,025
10,459	-18,586	192,212	85,871
11,473	-18,502	191,620	85,654
12,488	-18,371	191,289	85,585
13,502	-18,562	190,827	85,245
14,517	-18,447	190,620	85,220
15,531	-18,560	190,031	84,875
16,546	-18,731	189,824	84,664
17,561	-18,643	189,450	84,546
18,575	-18,622	189,350	84,508
19,590	-18,492	188,887	84,378
20,604	-18,139	188,777	84,551
21,619	-18,523	188,539	84,188
22,634	-18,625	188,288	84,002
23,648	-18,606	187,988	83,873
24,663	-18,468	187,831	83,885
25,677	-18,339	187,602	83,858
26,692	-18,572	187,478	83,645
27,707	-18,353	187,149	83,632
28,721	-18,596	186,859	83,339
29,736	-18,685	186,729	83,216
30,750	-18,309	186,477	83,338
31,765	-18,660	186,451	83,094
32,780	-18,625	186,126	82,964
33,794	-18,578	185,825	82,852
34,809	-18,360	185,656	82,908
35,823	-18,351	185,506	82,840
36,838	-18,323	185,409	82,807
37,853	-18,357	185,088	82,635
38,867	-18,601	185,044	82,453
39,882	-18,513	184,764	82,376
40,896	-18,033	184,520	82,564
41,911	-18,323	184,502	82,365
42,926	-18,481	184,249	82,145
43,940	-18,389	184,174	82,162
44,955	-18,540	183,898	81,936
45,969	-18,507	183,850	81,928
46,984	-18,389	183,553	81,863
47,999	-18,233	183,538	81,947
49,013	-18,061	183,150	81,875
50,028	-18,188	183,188	81,805
51,042	-17,973	182,896	81,802
52,057	-18,133	182,724	81,617
53,071	-18,450	182,574	81,345
54,086	-18,425	182,509	81,324
55,101	-18,086	182,263	81,419
56,115	-18,282	182,224	81,272
57,130	-18,312	181,998	81,145
58,144	-18,679	181,838	80,838
59,159	-18,486	181,520	80,810
60,174	-18,358	181,303	80,785
61,188	-18,523	181,250	80,652
62,203	-18,532	181,177	80,606
63,217	-18,445	181,020	80,583
64,232	-18,433	180,727	80,453
65,247	-18,573	180,466	80,243
66,261	-18,456	180,337	80,251
67,276	-18,258	180,180	80,297
68,290	-18,268	180,174	80,280
69,305	-18,263	180,045	80,219
70,320	-18,379	179,813	80,037
71,334	-18,239	179,624	80,032
72,349	-18,372	179,440	79,861
73,363	-18,583	179,284	79,655
74,378	-18,439	179,133	79,669
75,393	-18,280	178,893	79,652
76,407	-18,259	178,703	79,574
77,422	-18,535	178,660	79,379
78,436	-18,374	178,523	79,409
79,451	-18,404	178,346	79,305
80,466	-18,238	178,112	79,295
81,480	-18,250	178,011	79,235
82,495	-18,441	177,868	79,048
83,509	-17,967	177,640	79,228
84,524	-18,188	177,587	79,063
85,539	-18,173	177,374	78,971
86,553	-18,151	177,220	78,908
87,568	-18,304	177,199	78,799
88,582	-18,389	177,105	78,698
89,597	-18,362	176,964	78,646
90,611	-18,355	176,609	78,485
91,626	-18,474	176,560	78,385
92,641	-18,050	176,432	78,576
93,655	-18,305	176,249	78,334
94,670	-18,364	176,160	78,252
95,684	-18,667	176,085	78,030
96,699	-18,370	175,951	78,142
97,714	-18,211	175,674	78,107
98,728	-18,323	175,600	78,000
99,743	-18,202	175,351	77,955
100,757	-18,149	175,276	77,946
101,772	-18,291	175,097	77,775
102,787	-18,291	174,891	77,677
103,801	-18,476	174,680	77,466
104,816	-18,086	174,645	77,676
105,830	-18,421	174,600	77,449
106,845	-18,311	174,441	77,437
107,860	-18,264	174,262	77,379
108,874	-17,962	174,073	77,467
109,889	-18,461	173,906	77,090
110,903	-18,373	173,868	77,119
111,918	-18,347	173,637	77,025
112,933	-18,383	173,757	77,049
113,947	-18,279	173,341	76,920
114,962	-18,237	173,301	76,920
115,976	-18,065	173,038	76,898
116,991	-18,134	172,841	76,763
118,006	-18,433	172,876	76,595
119,020	-18,293	172,687	76,587
120,035	-18,513	172,782	76,493
121,049	-18,124	172,610	76,638
122,064	-18,599	172,447	76,280
123,079	-18,257	172,110	76,325
124,093	-18,353	172,058	76,239
125,108	-18,253	171,883	76,213
126,122	-18,324	171,750	76,106
127,137	-18,165	171,592	76,122
128,151	-18,163	171,396	76,029
129,166	-17,956	171,383	76,137
130,181	-18,122	171,266	75,982
131,195	-18,318	171,045	75,763
132,210	-18,241	170,902	75,738
133,224	-18,570	170,751	75,473
134,239	-18,331	170,668	75,568
135,254	-18,156	170,460	75,571
136,268	-18,204	170,351	75,488
137,283	-17,949	170,217	75,569
138,297	-17,885	169,931	75,473
139,312	-18,151	169,889	75,293
140,327	-18,854	169,606	74,756
141,341	-18,975	169,491	74,629
142,356	-19,249	169,346	74,401
143,370	-17,796	169,550	75,321
144,385	-10,585	171,450	80,359
145,400	-4,065	172,892	84,848
146,414	-2,528	172,903	85,744
147,429	-2,280	172,792	85,827
148,443	-2,012	172,815	85,987
149,458	-1,796	172,841	86,118
150,473	-1,359	172,691	86,291
151,487	-1,262	172,653	86,321
152,502	-1,315	172,459	86,185
153,516	-1,313	172,334	86,116
154,531	-1,294	172,221	86,063
155,546	-1,170	172,133	86,084
156,560	-1,172	172,002	86,009
157,575	-1,334	171,930	85,871
158,589	-1,103	171,727	85,896
159,604	-1,071	171,597	85,842
160,619	-1,218	171,443	85,672
161,633	-1,105	171,383	85,700
162,648	-1,060	171,258	85,656
163,662	-1,318	171,269	85,505
164,677	-1,060	170,963	85,493
165,692	-0,911	171,020	85,600
166,706	-0,853	170,798	85,514
167,721	-0,561	170,725	85,638
168,735	-1,072	170,593	85,271
169,750	-0,762	170,462	85,376
170,764	-0,670	170,439	85,410
171,779	-0,895	170,448	85,277
172,794	-0,838	170,178	85,167
173,808	-0,988	170,088	85,029
174,823	-0,781	169,856	85,023
175,837	-0,741	169,721	84,971
176,852	-0,636	169,654	84,990
177,867	-0,767	169,563	84,862
178,881	-0,745	169,425	84,798
179,896	-0,826	169,373	84,718
180,910	-0,693	169,051	84,625
181,925	-0,748	169,161	84,641
182,940	-0,857	168,864	84,423
183,954	-0,747	168,750	84,421
184,969	-0,619	168,619	84,421
185,983	-0,373	168,574	84,530
186,998	-0,694	168,688	84,398
188,013	-0,783	168,491	84,241
189,027	-0,854	168,247	84,071
190,042	-0,961	168,113	83,936
191,056	-0,788	168,034	83,987
192,071	-0,704	167,889	83,955
193,086	-0,749	167,841	83,898
194,100	-0,727	167,778	83,871
195,115	-0,799	167,551	83,710
196,129	-0,721	167,387	83,664
197,144	-0,637	167,290	83,655
198,159	-0,359	167,072	83,696
199,173	-0,352	166,960	83,636
200,188	-0,310	166,894	83,619
201,202	-0,449	166,808	83,490
202,217	-0,454	166,656	83,404
203,232	-0,591	166,607	83,295
204,246	-0,555	166,381	83,195
205,261	-0,536	166,291	83,153
206,275	-0,585	166,178	83,062
207,290	-0,556	166,096	83,030
208,304	-0,587	166,169	83,042
209,319	-0,401	165,869	82,988
210,334	-0,487	165,816	82,906
211,348	-0,595	165,538	82,699
212,363	-0,535	165,546	82,729
213,377	-0,283	165,444	82,811
214,392	-0,553	165,479	82,671
215,407	-0,458	165,282	82,618
216,421	-0,414	165,177	82,583
217,436	-0,353	164,918	82,480
218,450	-0,282	164,605	82,355
219,465	-0,782	164,796	82,167
220,480	-0,360	164,750	82,370
221,494	-0,357	164,514	82,246
222,509	-0,214	164,403	82,261
223,523	-0,385	164,184	82,051
224,538	-0,578	164,337	82,014
225,553	-0,341	164,070	82,004
226,567	-0,174	164,085	82,095
227,582	-0,697	163,893	81,705
228,596	-0,445	163,855	81,817
229,611	-0,349	163,616	81,743
230,626	-0,291	163,485	81,702
231,640	-0,282	163,383	81,649
232,655	-0,333	163,290	81,567
233,669	-0,376	163,279	81,531
234,684	-0,506	163,122	81,374
235,699	-0,398	162,973	81,352
236,713	-0,187	162,900	81,423
237,728	-0,450	162,786	81,215
238,742	-0,344	162,715	81,230
239,757	-0,301	162,657	81,217
240,772	-0,074	162,434	81,222
241,786	-0,297	162,390	81,072
242,801	-0,469	162,409	80,981
243,815	-0,079	162,153	81,057
244,830	0,029	162,093	81,079
245,844	-0,028	161,987	80,987
246,859	-0,133	161,790	80,825
247,874	-0,219	161,624	80,688
248,888	-0,347	161,661	80,631
249,903	-0,088	161,521	80,693
250,917	-0,267	161,448	80,553
251,932	-0,199	161,283	80,500
252,947	0,132	161,208	80,634
253,961	0,365	160,956	80,626
254,976	-0,195	160,971	80,325
255,990	0,088	160,720	80,345
257,005	-0,213	160,869	80,250
258,020	-0,114	160,705	80,214
259,034	-0,113	160,619	80,165
260,049	-0,123	160,481	80,084
261,063	-0,172	160,265	79,942
262,078	-0,025	160,222	79,992
263,093	-0,039	160,194	79,963
264,107	-0,205	160,030	79,786
265,122	-0,057	159,905	79,796
266,136	0,039	159,721	79,748
267,151	-0,176	159,873	79,702
268,166	-0,250	159,612	79,525
269,180	0,254	159,366	79,664
270,195	0,094	159,266	79,522
271,209	0,080	159,278	79,513
272,224	0,039	159,235	79,463
273,239	0,179	158,983	79,404
274,253	0,205	158,834	79,336
275,268	0,062	158,914	79,293
276,282	0,148	158,755	79,253
277,297	-0,154	158,494	78,956
278,312	0,077	158,431	79,040
279,326	0,296	158,411	79,138
280,341	-0,221	158,472	78,888
281,355	0,356	158,153	79,027
282,370	0,386	158,109	79,013
283,384	0,124	158,020	78,824
284,399	0,254	157,869	78,810
285,414	0,205	157,909	78,797
286,428	0,481	157,628	78,795
287,443	0,341	157,732	78,766
288,457	0,396	157,538	78,691
289,472	0,313	157,340	78,542
290,487	-0,088	157,429	78,369
291,501	0,228	157,276	78,451
292,516	0,213	157,066	78,332
293,530	0,317	156,985	78,339
294,545	0,397	156,988	78,375
295,560	0,409	156,868	78,314
296,574	0,060	156,792	78,088
297,589	0,340	156,567	78,114
298,603	0,146	156,509	77,977
299,618	0,551	156,487	78,170
300,633	0,256	156,303	77,918
301,647	0,444	156,170	77,942
302,662	0,386	156,193	77,917
303,676	0,398	155,997	77,818
304,691	0,238	155,930	77,695
305,706	0,019	155,841	77,530
306,720	0,155	155,637	77,492
307,735	0,454	155,511	77,577
308,749	0,498	155,588	77,631
309,764	0,358	155,360	77,438
310,779	0,557	155,191	77,450
311,793	0,434	155,138	77,353
312,808	0,383	155,132	77,317
313,822	0,441	155,060	77,304
314,837	0,707	154,801	77,305
315,852	0,582	154,820	77,243
316,866	0,500	154,736	77,152
317,881	0,401	154,652	77,053
318,895	0,400	154,537	76,988
319,910	0,527	154,491	77,024
320,925	0,412	154,255	76,840
321,939	0,569	154,236	76,904
322,954	0,351	154,213	76,774
323,968	0,508	154,080	76,781
324,983	0,639	153,923	76,763
325,997	0,485	153,713	76,573
327,012	0,394	153,778	76,552
328,027	0,373	153,633	76,462
329,041	0,577	153,585	76,536
330,056	0,652	153,386	76,468
331,070	0,230	153,423	76,265
332,085	0,577	153,249	76,348
333,100	0,389	153,050	76,146
334,114	0,578	152,964	76,193
335,129	0,711	152,871	76,207
336,143	0,289	152,825	75,963
337,158	0,679	152,725	76,105
338,173	0,867	152,616	76,139
339,187	0,956	152,361	76,050
340,202	0,815	152,411	75,996
341,216	0,487	152,367	75,802
342,231	0,772	152,137	75,824
343,246	0,649	152,174	75,774
344,260	1,042	151,918	75,838
345,275	0,727	152,086	75,756
346,289	1,202	151,861	75,876
347,304	1,107	151,696	75,739
348,319	1,005	151,467	75,567
349,333	0,652	151,548	75,424
350,348	0,823	151,387	75,422
351,362	0,697	151,391	75,355
352,377	0,779	151,288	75,337
353,392	1,036	150,985	75,308
354,406	0,931	150,992	75,253
355,421	191,494	1324,427	1393,046
356,435	151,066	1467,865	1393,536
