DTS Sentinel unit serial number:	SN410029Multiplexer serial number:	ORYXHardware model number:	OX2-SRSoftware version number:	ORYX F/W v4,00 Oryx Data Collector v3.7.2.0data status	okinstallation	B3 Nyhavnadifferential loss correction	single-endedforward channel	channel 1reverse channel	N/Adate	2023/11/28time	13:32:30forward acquisition time	300,00reverse acquisition time	0,00gamma	499,1914k internal	0,3138k external	0,3138temperature offset calibration	1,0000default loss term (dB/km)	0,3820temperature slope calibration	1,0000multiplexer offset coefficient	1,0000multiplexer slope coefficient	1,0000fibre end	0,00T internal ref (°C)	7,82T ext. ref 1 (°C)	-7,61T ext. ref 2 (°C)	-7,80length (m)	temperature (°C)	Stokes	anti-Stokes-744,400	188,737	-0,225	-0,250
-743,385	751,715	0,080	0,161
-742,371	197,678	-0,076	-0,086
-741,356	-200,000	-0,046	0,190
-740,342	19,237	-0,252	-0,150
-739,327	-200,000	-0,020	0,334
-738,312	50,255	-0,308	-0,215
-737,298	-200,000	0,035	0,239
-736,283	22,712	-0,262	-0,159
-735,269	-200,000	-0,063	0,281
-734,254	135,722	-0,169	-0,164
-733,239	-68,803	-0,302	0,086
-732,225	800,000	-0,097	-0,236
-731,210	595,566	0,137	0,253
-730,196	-52,846	-0,094	-0,032
-729,181	-200,000	-0,024	-0,098
-728,167	106,225	-0,135	-0,119
-727,152	71,338	0,059	0,045
-726,137	5,653	-0,081	-0,044
-725,123	800,000	-0,054	0,118
-724,108	-153,951	-0,044	-0,002
-723,094	-118,637	-0,104	0,014
-722,079	800,000	0,036	-0,079
-721,064	205,192	-0,097	-0,111
-720,050	-9,826	-0,051	-0,025
-719,035	-50,255	-0,151	0,052
-718,021	144,574	-0,050	-0,050
-717,006	93,260	-0,067	-0,056
-715,991	-200,000	0,008	-0,154
-714,977	-200,000	0,042	-0,202
-713,962	-200,000	0,035	-0,166
-712,948	-200,000	-0,013	-0,079
-711,933	-168,955	-0,065	-0,002
-710,918	173,947	0,017	-0,018
-709,904	402,496	-0,071	-0,111
-708,889	2,807	-0,062	-0,033
-707,875	102,109	-0,192	-0,166
-706,860	103,402	0,097	-0,084
-705,845	-200,000	-0,005	0,167
-704,831	-200,000	-0,006	0,029
-703,816	297,052	-0,022	-0,030
-702,802	800,000	0,043	-0,127
-701,787	210,363	-0,088	-0,102
-700,772	800,000	-0,063	-0,130
-699,758	8,054	0,027	-0,015
-698,743	-18,202	-0,118	0,055
-697,729	571,597	0,075	0,136
-696,714	800,000	-0,045	-0,141
-695,699	-43,572	-0,081	-0,030
-694,685	-102,375	0,015	0,003
-693,670	-169,241	-0,163	-0,004
-692,656	-36,262	-0,055	0,022
-691,641	-200,000	-0,029	0,101
-690,627	490,916	0,051	0,086
-689,612	-100,156	-0,138	-0,025
-688,597	-21,705	0,014	0,006
-687,583	-200,000	-0,014	-0,050
-686,568	150,987	-0,139	-0,140
-685,554	-63,326	0,064	0,019
-684,539	574,118	-0,031	-0,056
-683,524	800,000	0,084	0,197
-682,510	613,271	0,031	0,058
-681,495	63,493	0,046	-0,034
-680,481	-200,000	0,002	-0,007
-679,466	60,307	0,046	-0,034
-678,451	-200,000	0,012	-0,058
-677,437	-200,000	-0,006	-0,042
-676,422	-200,000	-0,028	0,097
-675,408	343,366	-0,063	0,091
-674,393	-16,135	-0,086	0,040
-673,378	-110,784	0,077	0,012
-672,364	-32,733	-0,164	-0,067
-671,349	-200,000	-0,008	-0,052
-670,335	-122,088	-0,075	0,009
-669,320	-67,774	0,048	0,014
-668,305	-200,000	0,026	0,115
-667,291	-164,482	-0,093	0,003
-666,276	-77,722	-0,182	-0,046
-665,262	-82,752	-0,126	-0,030
-664,247	-119,728	-0,092	0,012
-663,232	785,568	-0,051	0,104
-662,218	145,448	0,020	0,020
-661,203	129,898	0,124	0,118
-660,189	17,656	-0,104	0,061
-659,174	800,000	0,018	-0,041
-658,159	-16,425	-0,127	-0,059
-657,145	-200,000	-0,010	-0,141
-656,130	144,119	0,089	0,088
-655,116	-200,000	-0,007	-0,051
-654,101	-84,051	0,112	0,026
-653,086	-14,356	0,059	0,028
-652,072	-144,398	-0,177	-0,012
-651,057	-48,766	-0,042	0,015
-650,043	32,270	-0,097	-0,062
-649,028	90,654	0,046	-0,038
-648,014	-103,802	0,146	-0,025
-646,999	273,595	0,071	0,093
-645,984	125,754	0,094	0,088
-644,970	-200,000	-0,014	-0,114
-643,955	-183,451	-0,095	0,001
-642,941	800,000	0,052	-0,137
-641,926	753,227	0,027	0,054
-640,911	800,000	0,069	0,149
-639,897	34,592	0,138	0,089
-638,882	-13,381	0,113	0,054
-637,868	800,000	0,047	0,130
-636,853	800,000	-0,020	-0,045
-635,838	-200,000	-0,056	-0,185
-634,824	-126,238	0,044	0,005
-633,809	-200,000	-0,012	-0,087
-632,795	-13,606	0,102	0,049
-631,780	-29,826	-0,118	-0,049
-630,765	-21,018	-0,130	0,059
-629,751	800,000	0,032	-0,072
-628,736	-146,206	-0,080	0,005
-627,722	-140,965	-0,093	0,007
-626,707	78,784	0,071	0,056
-625,692	-200,000	0,005	0,078
-624,678	800,000	0,023	0,058
-623,663	567,603	-0,006	-0,011
-622,649	645,826	-0,092	-0,174
-621,634	216,783	-0,085	0,100
-620,619	24,811	-0,106	0,065
-619,605	-110,313	-0,087	-0,013
-618,590	20,918	-0,122	0,073
-617,576	-87,923	-0,019	0,004
-616,561	-34,566	0,012	0,005
-615,546	488,677	0,042	-0,071
-614,532	-113,828	-0,220	-0,031
-613,517	771,711	-0,052	-0,106
-612,503	179,749	0,125	-0,135
-611,488	86,862	0,186	0,151
-610,474	146,239	0,058	0,057
-609,459	-161,060	0,037	0,001
-608,444	100,320	-0,107	-0,092
-607,430	800,000	-0,027	-0,074
-606,415	24,217	0,072	0,044
-605,401	-12,845	0,101	0,048
-604,386	-200,000	0,032	-0,204
-603,371	-200,000	0,022	-0,086
-602,357	-101,281	-0,069	0,012
-601,342	-200,000	-0,014	-0,054
-600,328	-119,783	-0,189	-0,024
-599,313	334,264	0,041	-0,058
-598,298	560,650	0,045	0,080
-597,284	363,308	0,107	0,159
-596,269	800,000	-0,015	-0,040
-595,255	-200,000	-0,013	0,114
-594,240	-47,828	-0,045	-0,016
-593,225	611,240	-0,022	-0,040
-592,211	-200,000	-0,013	-0,056
-591,196	-200,000	-0,004	-0,057
-590,182	-174,817	0,157	0,003
-589,167	800,000	-0,009	0,028
-588,152	538,277	-0,097	-0,170
-587,138	63,211	-0,128	0,094
-586,123	-200,000	-0,028	-0,106
-585,109	-200,000	0,015	-0,134
-584,094	-175,651	0,080	-0,002
-583,079	389,058	0,032	0,049
-582,065	167,102	-0,120	0,125
-581,050	-158,264	0,131	0,006
-580,036	156,649	-0,066	-0,068
-579,021	289,598	-0,121	-0,162
-578,006	-200,000	-0,008	-0,110
-576,992	800,000	-0,059	-0,125
-575,977	-200,000	-0,007	-0,076
-574,963	22,607	0,082	0,050
-573,948	-13,227	-0,116	0,055
-572,934	-200,000	-0,033	-0,108
-571,919	153,453	-0,095	-0,096
-570,904	-89,952	-0,059	-0,013
-569,890	331,025	0,072	-0,102
-568,875	-86,419	0,106	0,024
-567,861	-72,465	0,055	0,015
-566,846	-149,635	0,112	0,006
-565,831	741,230	-0,020	-0,041
-564,817	20,696	0,030	0,018
-563,802	422,973	-0,037	0,059
-562,788	-76,541	-0,093	-0,024
-561,773	-200,000	-0,002	0,024
-560,758	478,188	-0,013	0,022
-559,744	97,476	-0,014	-0,012
-558,729	-102,313	0,057	0,010
-557,715	-200,000	-0,004	-0,025
-556,700	579,511	0,030	-0,054
-555,685	-28,386	-0,093	-0,039
-554,671	369,036	-0,049	0,074
-553,656	369,954	0,083	0,124
-552,642	-21,561	-0,050	0,022
-551,627	28,236	-0,062	0,039
-550,612	-200,000	-0,004	-0,026
-549,598	-47,265	-0,043	-0,015
-548,583	677,663	0,023	0,044
-547,569	766,958	-0,072	-0,145
-546,554	-200,000	-0,011	-0,176
-545,539	337,748	0,063	-0,090
-544,525	223,036	-0,093	0,110
-543,510	737,703	0,060	-0,119
-542,496	176,059	-0,114	0,122
-541,481	60,630	-0,201	0,146
-540,466	-200,000	0,025	-0,086
-539,452	800,000	-0,019	0,042
-538,437	5,697	0,089	-0,048
-537,423	-42,957	0,093	0,034
-536,408	557,665	0,011	0,020
-535,393	300,494	-0,046	0,063
-534,379	553,547	-0,041	0,073
-533,364	-56,273	0,044	-0,014
-532,350	-134,987	0,052	0,005
-531,335	800,000	0,046	0,114
-530,321	-200,000	-0,005	0,093
-529,306	379,526	0,038	0,057
-528,291	178,003	-0,008	-0,009
-527,277	-200,000	-0,021	0,074
-526,262	54,401	0,073	0,051
-525,248	291,414	0,015	-0,020
-524,233	66,217	-0,047	0,035
-523,218	-78,903	0,027	-0,007
-522,204	49,768	-0,005	-0,003
-521,189	-122,183	0,130	0,016
-520,175	-200,000	-0,011	-0,082
-519,160	429,564	0,019	-0,031
-518,145	800,000	-0,030	-0,070
-517,131	344,781	0,066	0,095
-516,116	-200,000	-0,004	0,127
-515,102	156,941	0,033	0,034
-514,087	-200,000	-0,001	0,029
-513,072	-200,000	-0,015	-0,087
-512,058	65,653	-0,130	-0,096
-511,043	-200,000	0,009	0,061
-510,029	-200,000	0,016	-0,073
-509,014	800,000	0,082	0,190
-507,999	-200,000	-0,003	-0,055
-506,985	107,395	-0,108	-0,094
-505,970	767,784	0,064	-0,128
-504,956	-57,373	-0,074	-0,024
-503,941	147,889	0,113	0,112
-502,926	-87,841	-0,058	-0,013
-501,912	17,055	0,062	0,036
-500,897	800,000	-0,033	0,107
-499,883	-137,872	-0,136	0,011
-498,868	721,683	0,043	-0,084
-497,853	222,799	0,070	-0,083
-496,839	49,926	-0,064	0,044
-495,824	145,873	-0,071	-0,070
-494,810	-133,072	0,037	-0,003
-493,795	60,403	-0,030	-0,022
-492,781	231,369	-0,048	-0,058
-491,766	21,474	-0,125	-0,074
-490,751	800,000	0,038	-0,113
-489,737	800,000	-0,035	-0,074
-488,722	-27,086	0,068	0,029
-487,708	65,835	0,054	-0,040
-486,693	800,000	-0,012	-0,034
-485,678	-17,148	-0,127	-0,058
-484,664	-200,000	0,014	0,049
-483,649	800,000	0,024	-0,056
-482,635	-36,037	-0,169	0,067
-481,620	-121,466	0,113	-0,014
-480,605	7,757	0,179	0,098
-479,591	-193,205	-0,155	0,001
-478,576	800,000	-0,040	0,083
-477,562	-38,406	-0,119	-0,046
-476,547	69,349	-0,098	-0,074
-475,532	-160,532	0,079	0,003
-474,518	-150,390	0,055	-0,003
-473,503	800,000	-0,076	0,179
-472,489	800,000	-0,023	0,052
-471,474	800,000	-0,071	-0,193
-470,459	414,685	0,030	-0,047
-469,445	14,676	-0,157	0,090
-468,430	-200,000	0,011	-0,039
-467,416	800,000	0,011	-0,023
-466,401	-67,452	-0,158	0,045
-465,386	74,252	-0,093	0,071
-464,372	-200,000	-0,001	0,091
-463,357	-13,620	-0,092	0,044
-462,343	228,660	-0,012	0,014
-461,328	-72,112	-0,077	0,021
-460,313	768,906	-0,078	-0,156
-459,299	-96,053	0,179	-0,035
-458,284	800,000	0,061	0,161
-457,270	270,856	-0,049	0,063
-456,255	800,000	0,022	-0,070
-455,241	310,215	-0,009	0,013
-454,226	213,634	0,036	-0,041
-453,211	7,980	-0,120	0,066
-452,197	-200,000	-0,024	0,152
-451,182	-3,255	0,053	0,027
-450,168	-28,316	-0,145	0,061
-449,153	-200,000	-0,019	0,067
-448,138	83,351	-0,046	0,037
-447,124	-119,695	0,071	-0,009
-446,109	75,416	0,130	-0,100
-445,095	800,000	-0,062	0,145
-444,080	-9,628	0,088	0,043
-443,065	-77,358	-0,073	0,018
-442,051	343,775	0,062	-0,089
-441,036	-94,149	-0,108	-0,021
-440,022	340,340	-0,061	0,087
-439,007	-200,000	0,001	0,023
-437,992	540,468	-0,027	0,047
-436,978	-200,000	0,002	0,045
-435,963	800,000	0,035	0,111
-434,949	800,000	0,014	0,038
-433,934	-200,000	0,005	-0,179
-432,919	800,000	-0,057	-0,125
-431,905	-200,000	-0,004	0,091
-430,890	205,995	0,080	0,092
-429,876	-108,886	-0,011	-0,002
-428,861	51,264	-0,025	-0,017
-427,846	-178,166	0,118	-0,002
-426,832	-41,803	-0,043	-0,016
-425,817	32,185	0,056	-0,036
-424,803	36,304	-0,053	0,034
-423,788	-200,000	-0,016	0,070
-422,773	591,573	0,120	0,217
-421,759	-175,474	0,108	0,002
-420,744	546,664	-0,053	0,094
-419,730	219,725	-0,027	-0,032
-418,715	25,540	0,070	-0,043
-417,701	-200,000	-0,008	-0,047
-416,686	500,278	0,057	-0,097
-415,671	-51,085	0,088	-0,030
-414,657	133,442	0,036	0,034
-413,642	27,865	-0,085	-0,053
-412,628	41,460	0,033	-0,022
-411,613	-200,000	-0,001	-0,089
-410,598	394,912	-0,094	-0,143
-409,584	284,376	0,053	0,069
-408,569	341,878	-0,124	0,178
-407,555	81,495	0,045	0,036
-406,540	227,652	-0,060	0,071
-405,525	-95,124	-0,147	-0,029
-404,511	-34,580	-0,055	-0,022
-403,496	-111,882	0,116	-0,017
-402,482	-39,368	0,155	0,059
-401,467	120,989	-0,079	0,072
-400,452	-200,000	-0,011	0,090
-399,438	583,907	-0,047	0,085
-398,423	-154,901	0,155	-0,007
-397,409	114,744	-0,098	-0,087
-396,394	-40,020	-0,062	-0,023
-395,379	-83,604	0,064	-0,015
-394,365	180,791	-0,015	0,016
-393,350	264,258	0,018	-0,023
-392,336	303,630	0,052	0,070
-391,321	-200,000	-0,016	-0,235
-390,306	-120,436	-0,040	0,005
-389,292	-200,000	-0,002	-0,092
-388,277	800,000	0,026	-0,056
-387,263	-200,000	-0,020	0,068
-386,248	-200,000	0,014	-0,083
-385,233	-130,206	-0,020	-0,002
-384,219	-154,333	0,071	-0,003
-383,204	78,748	-0,024	0,019
-382,190	-200,000	-0,008	-0,142
-381,175	-107,936	0,165	0,026
-380,160	-139,381	0,034	0,003
-379,146	251,692	0,035	0,044
-378,131	63,663	0,127	0,093
-377,117	441,685	-0,021	-0,033
-376,102	184,027	-0,108	0,117
-375,088	800,000	-0,017	0,052
-374,073	-1,322	0,115	-0,059
-373,058	-125,456	-0,082	0,009
-372,044	800,000	-0,032	0,095
-371,029	-200,000	-0,022	0,076
-370,015	346,218	0,054	-0,078
-369,000	-152,333	0,053	-0,003
-367,985	269,901	0,111	-0,143
-366,971	-200,000	-0,022	0,109
-365,956	309,254	-0,016	0,021
-364,942	-46,551	0,067	0,024
-363,927	629,317	0,024	0,045
-362,912	99,138	-0,031	0,027
-361,898	800,000	0,050	-0,129
-360,883	-56,783	0,188	-0,060
-359,869	77,180	-0,059	-0,045
-358,854	800,000	-0,021	0,063
-357,839	612,307	0,025	0,047
-356,825	-35,854	0,123	0,048
-355,810	-62,399	0,064	0,019
-354,796	800,000	-0,038	-0,102
-353,781	-200,000	-0,023	-0,171
-352,766	111,831	0,039	-0,035
-351,752	588,216	0,055	-0,099
-350,737	-108,269	0,074	0,012
-349,723	-200,000	-0,002	0,094
-348,708	355,209	0,043	-0,063
-347,693	-200,000	0,016	-0,058
-346,679	151,972	-0,152	-0,151
-345,664	-200,000	-0,001	-0,006
-344,650	800,000	-0,015	-0,035
-343,635	-64,107	0,091	-0,027
-342,620	800,000	-0,026	0,054
-341,606	-200,000	-0,002	0,008
-340,591	541,346	0,131	0,229
-339,577	333,752	-0,080	0,114
-338,562	-110,516	-0,126	-0,019
-337,548	-200,000	-0,004	0,086
-336,533	-37,088	0,168	0,065
-335,518	2,748	-0,109	0,058
-334,504	762,786	-0,013	-0,027
-333,489	-200,000	-0,004	-0,072
-332,475	-200,000	-0,041	-0,141
-331,460	170,341	0,080	-0,084
-330,445	233,146	-0,094	-0,113
-329,431	606,973	0,014	-0,026
-328,416	-64,346	0,099	0,029
-327,402	-150,416	0,084	0,005
-326,387	800,000	0,035	-0,111
-325,372	460,897	0,069	-0,112
-324,358	-200,000	-0,003	0,025
-323,343	226,595	-0,114	-0,135
-322,329	800,000	0,016	0,043
-321,314	643,721	0,066	0,123
-320,299	-75,488	-0,031	-0,008
-319,285	-200,000	0,045	-0,209
-318,270	-200,000	-0,006	-0,085
-317,256	301,368	-0,016	0,021
-316,241	-127,092	-0,050	-0,005
-315,226	71,118	-0,086	0,065
-314,212	176,040	-0,014	0,015
-313,197	-8,943	0,107	-0,052
-312,183	-87,017	0,065	0,014
-311,168	-200,000	0,001	-0,160
-310,153	11,648	0,040	0,022
-309,139	519,018	-0,048	0,082
-308,124	-58,967	0,076	0,024
-307,110	364,911	-0,099	0,146
-306,095	64,236	0,029	-0,021
-305,080	360,063	-0,024	0,035
-304,066	338,038	-0,018	-0,025
-303,051	511,308	0,058	-0,099
-302,037	-200,000	-0,009	0,046
-301,022	339,537	-0,040	0,057
-300,008	89,123	0,056	-0,046
-298,993	-28,634	0,094	-0,039
-297,978	131,599	-0,065	0,061
-296,964	597,506	-0,053	0,096
-295,949	-51,991	-0,026	-0,009
-294,935	-165,110	0,031	-0,001
-293,920	129,276	0,105	0,097
-292,905	245,640	-0,084	-0,103
-291,891	447,884	0,076	0,123
-290,876	800,000	0,005	-0,010
-289,862	800,000	-0,024	-0,052
-288,847	-55,682	-0,060	-0,020
-287,832	-200,000	0,026	-0,126
-286,818	-158,524	0,092	0,004
-285,803	220,276	0,124	0,145
-284,789	379,126	-0,138	0,206
-283,774	-200,000	-0,010	0,059
-282,759	322,269	-0,099	0,138
-281,745	-200,000	-0,008	-0,044
-280,730	149,438	-0,028	-0,028
-279,716	-140,652	-0,190	-0,014
-278,701	-129,775	0,055	0,005
-277,686	773,113	0,087	0,174
-276,672	-200,000	-0,007	0,125
-275,657	244,172	0,112	0,137
-274,643	-59,636	-0,070	0,022
-273,628	-163,650	-0,091	-0,003
-272,613	350,012	-0,063	-0,091
-271,599	568,810	0,085	-0,151
-270,584	-7,332	0,129	0,063
-269,570	46,952	-0,084	0,057
-268,555	800,000	0,081	-0,239
-267,540	237,254	-0,032	-0,038
-266,526	-200,000	0,004	-0,041
-265,511	-107,560	-0,156	-0,025
-264,497	376,744	-0,032	-0,047
-263,482	-6,357	0,077	0,038
-262,467	800,000	0,035	0,110
-261,453	800,000	-0,034	0,077
-260,438	14,742	0,031	0,018
-259,424	-200,000	-0,001	0,067
-258,409	190,690	-0,102	0,112
-257,395	133,038	0,094	0,088
-256,380	258,066	0,066	0,083
-255,365	651,181	0,031	-0,059
-254,351	21,069	0,030	-0,018
-253,336	475,604	-0,035	0,058
-252,322	465,294	-0,021	-0,034
-251,307	-200,000	0,026	-0,119
-250,292	88,877	-0,089	-0,072
-249,278	277,781	0,102	0,132
-248,263	800,000	-0,038	0,096
-247,249	11,027	-0,110	0,061
-246,234	365,052	0,045	-0,066
-245,219	86,851	-0,140	-0,113
-244,205	-73,136	-0,065	0,017
-243,190	85,861	-0,049	0,039
-242,176	-2,713	0,033	0,017
-241,161	96,657	0,057	-0,047
-240,146	-27,720	-0,117	-0,049
-239,132	-68,370	0,146	-0,041
-238,117	105,200	-0,065	-0,056
-237,103	-3,762	-0,067	0,034
-236,088	-177,719	-0,132	-0,002
-235,073	-82,684	0,059	0,014
-234,059	-134,933	-0,030	-0,003
-233,044	357,486	-0,041	-0,060
-232,030	483,716	-0,049	0,081
-231,015	92,268	-0,041	-0,033
-230,000	-41,012	-0,135	-0,050
-228,986	-85,523	-0,110	-0,025
-227,971	-134,701	0,073	0,006
-226,957	800,000	0,021	0,050
-225,942	-90,360	0,107	0,022
-224,927	261,794	0,031	-0,040
-223,913	393,992	-0,031	-0,048
-222,898	-200,000	0,003	0,025
-221,884	-200,000	0,015	0,126
-220,869	800,000	-0,035	-0,070
-219,855	11,378	0,131	-0,073
-218,840	800,000	-0,074	0,154
-217,825	-152,677	0,068	-0,003
-216,811	15,747	-0,022	-0,013
-215,796	-8,914	-0,041	0,020
-214,782	-112,986	-0,089	0,013
-213,767	417,089	0,062	0,097
-212,752	-51,309	-0,081	0,027
-211,738	800,000	-0,011	0,028
-210,723	145,051	-0,013	0,012
-209,709	-55,231	0,048	0,016
-208,694	-94,844	0,069	0,014
-207,679	524,839	0,029	0,049
-206,665	-200,000	-0,002	0,087
-205,650	-94,249	0,075	0,015
-204,636	800,000	0,061	0,176
-203,621	-178,355	0,098	0,002
-202,606	-200,000	0,009	0,117
-201,592	294,790	-0,169	-0,225
-200,577	-200,000	0,006	-0,090
-199,563	456,453	-0,052	-0,084
-198,548	40,619	0,097	0,063
-197,533	334,410	0,038	-0,054
-196,519	-200,000	-0,014	-0,145
-195,504	-200,000	-0,003	-0,027
-194,490	-170,639	-0,107	-0,003
-193,475	15,638	-0,149	0,085
-192,460	-200,000	0,016	-0,056
-191,446	-173,435	0,131	0,003
-190,431	-200,000	-0,006	0,065
-189,417	595,091	0,041	0,074
-188,402	-85,311	-0,045	-0,010
-187,387	36,920	-0,049	0,032
-186,373	244,834	-0,074	-0,090
-185,358	-200,000	0,004	0,029
-184,344	20,459	0,051	-0,030
-183,329	-189,489	0,157	-0,001
-182,315	13,398	0,070	-0,039
-181,300	-200,000	0,006	0,050
-180,285	800,000	0,085	-0,219
-179,271	31,030	0,030	-0,018
-178,256	1,977	-0,062	0,032
-177,242	-95,875	0,163	-0,031
-176,227	-51,914	0,070	0,024
-175,212	385,158	0,049	0,074
-174,198	530,279	-0,014	0,025
-173,183	-200,000	0,011	-0,168
-172,169	133,774	0,075	-0,070
-171,154	-200,000	0,018	0,135
-170,139	28,906	0,153	-0,094
-169,125	-181,691	0,095	0,001
-168,110	-200,000	0,026	-0,113
-167,096	423,802	-0,069	0,108
-166,081	228,539	-0,033	-0,039
-165,066	-95,393	0,129	-0,025
-164,052	-200,000	0,039	-0,148
-163,037	604,847	0,058	0,105
-162,023	-200,000	0,023	0,161
-161,008	-200,000	-0,022	-0,101
-159,993	-200,000	-0,007	0,057
-158,979	57,253	-0,042	-0,030
-157,964	122,804	-0,089	-0,081
-156,950	373,923	-0,043	0,064
-155,935	-200,000	-0,043	0,146
-154,920	-139,894	0,107	0,008
-153,906	-79,683	-0,032	-0,008
-152,891	355,630	-0,098	-0,142
-151,877	-54,986	-0,128	-0,042
-150,862	227,515	-0,068	-0,081
-149,847	-36,660	-0,106	-0,041
-148,833	123,482	-0,041	0,037
-147,818	-200,000	-0,023	0,093
-146,804	-200,000	0,003	0,032
-145,789	-200,000	-0,021	0,072
-144,775	-196,342	-0,091	0,000
-143,760	-116,772	-0,161	-0,021
-142,745	255,606	0,089	-0,111
-141,731	-200,000	0,027	-0,130
-140,716	165,100	-0,021	-0,021
-139,702	18,833	-0,041	0,023
-138,687	-200,000	0,016	0,167
-137,672	-73,819	-0,136	-0,036
-136,658	-115,324	-0,075	-0,010
-135,643	-50,093	0,115	0,039
-134,629	-200,000	0,007	0,046
-133,614	-181,467	0,144	-0,002
-132,599	-200,000	0,012	0,139
-131,585	62,020	0,084	0,061
-130,570	-196,205	0,067	0,000
-129,556	48,986	-0,109	-0,074
-128,541	-114,053	-0,040	-0,006
-127,526	81,696	0,016	-0,013
-126,512	800,000	-0,031	-0,075
-125,497	-200,000	-0,007	0,023
-124,483	311,540	-0,019	0,026
-123,468	-200,000	-0,024	-0,098
-122,453	-200,000	-0,039	-0,162
-121,439	-122,640	-0,082	0,009
-120,424	800,000	-0,036	-0,112
-119,410	194,510	0,060	-0,066
-118,395	-200,000	0,139	-0,000
-117,380	85,989	-0,037	0,030
-116,366	-13,109	-0,085	0,040
-115,351	-200,000	-0,001	-0,156
-114,337	-200,000	-0,041	-0,138
-113,322	-3,663	-0,128	0,064
-112,307	1,468	0,046	0,024
-111,293	800,000	0,038	-0,092
-110,278	443,403	-0,049	0,077
-109,264	800,000	-0,024	0,051
-108,249	382,835	-0,038	-0,057
-107,234	436,024	-0,076	-0,120
-106,220	533,152	0,052	-0,090
-105,205	358,348	-0,034	-0,049
-104,191	705,692	-0,055	0,106
-103,176	68,450	0,081	-0,060
-102,162	-66,297	-0,034	0,010
-101,147	800,000	0,013	0,032
-100,132	-82,779	-0,163	-0,038
-99,118	-200,000	-0,008	-0,038
-98,103	-11,119	-0,023	-0,011
-97,089	18,523	0,070	0,040
-96,074	-200,000	0,007	0,043
-95,059	800,000	-0,020	-0,049
-94,045	44,706	-0,107	0,071
-93,030	-133,240	0,088	-0,008
-92,016	77,596	-0,188	-0,145
-91,001	-67,222	-0,020	0,006
-89,986	158,857	0,122	0,122
-88,972	-200,000	0,018	0,082
-87,957	39,778	0,033	0,021
-86,943	-144,523	-0,035	-0,002
-85,928	-200,000	-0,003	0,009
-84,913	-200,000	0,014	-0,081
-83,899	-200,000	-0,034	-0,194
-82,884	101,141	0,089	0,075
-81,870	747,339	-0,032	0,062
-80,855	694,801	-0,046	0,088
-79,840	-33,045	-0,037	0,015
-78,826	32,119	-0,091	-0,056
-77,811	-200,000	0,003	-0,051
-76,797	-200,000	0,007	0,037
-75,782	89,082	0,088	0,071
-74,767	-200,000	0,021	0,102
-73,753	790,876	-0,016	0,032
-72,738	-200,000	-0,027	0,143
-71,724	-4,897	0,024	0,012
-70,709	-200,000	0,021	-0,093
-69,694	14,876	-0,089	-0,050
-68,680	486,467	0,056	-0,092
-67,665	-67,104	0,048	-0,014
-66,651	314,037	0,035	0,048
-65,636	72,270	0,171	-0,129
-64,622	-200,000	0,001	0,013
-63,607	800,000	0,053	-0,144
-62,592	-200,000	0,014	-0,083
-61,578	91,034	-0,138	0,112
-60,563	-86,658	0,112	-0,025
-59,549	800,000	0,023	0,058
-58,534	111,058	-2,059	-1,791
-57,519	418,244	-1,288	-1,996
-56,505	-200,000	-0,182	-4,336
-55,490	742,789	0,902	1,760
-54,476	800,000	5,346	11,419
-53,461	-200,000	22,568	349,182
-52,446	800,000	754,821	2290,708
-51,432	502,949	1637,584	2744,541
-50,417	66,139	1570,067	1149,573
-49,403	18,348	1162,564	668,742
-48,388	10,962	894,889	492,333
-47,373	26,417	863,729	520,256
-46,359	16,655	849,622	483,805
-45,344	7,881	845,405	456,180
-44,330	7,794	843,575	454,925
-43,315	7,758	842,321	454,127
-42,300	7,753	841,056	453,412
-41,286	7,779	840,051	452,927
-40,271	7,768	838,981	452,303
-39,257	7,792	837,864	451,749
-38,242	7,868	836,992	451,479
-37,227	7,837	836,435	451,071
-36,213	7,813	835,497	450,480
-35,198	7,776	834,706	449,930
-34,184	7,861	834,084	449,818
-33,169	7,708	833,163	448,869
-32,154	7,820	832,647	448,891
-31,140	7,861	831,279	448,253
-30,125	7,928	830,415	447,958
-29,111	7,838	829,948	447,433
-28,096	7,853	829,541	447,240
-27,082	7,812	828,649	446,626
-26,067	7,895	827,753	446,358
-25,052	7,735	827,224	445,605
-24,038	7,780	826,427	445,284
-23,023	7,802	825,695	444,933
-22,009	7,886	825,405	444,996
-20,994	7,844	824,607	444,430
-19,979	7,979	823,804	444,358
-18,965	7,892	823,290	443,820
-17,950	7,897	822,849	443,580
-16,936	7,854	822,333	443,163
-15,921	7,813	821,768	442,725
-14,906	7,755	820,929	442,094
-13,892	7,781	820,389	441,858
-12,877	7,692	819,917	441,338
-11,863	7,674	819,479	441,035
-10,848	7,727	818,801	440,800
-9,833	7,834	818,386	440,856
-8,819	7,759	817,726	440,275
-7,804	7,872	817,043	440,204
-6,790	7,785	816,530	439,669
-5,775	7,846	816,329	439,713
-4,760	7,820	815,707	439,289
-3,746	7,687	815,322	438,695
-2,731	7,547	814,633	437,917
-1,717	7,521	814,162	437,574
-0,702	7,548	813,411	437,228
0,313	7,630	810,716	436,665
1,327	11,098	794,614	437,337
2,342	19,423	647,249	374,452
3,356	13,307	356,807	199,021
4,371	-15,500	240,492	110,385
5,386	-18,776	226,619	101,445
6,400	-18,738	222,187	99,481
7,415	-18,223	220,396	99,062
8,429	-19,100	218,981	97,755
9,444	-19,202	218,118	97,284
10,459	-19,106	217,806	97,208
11,473	-19,344	217,187	96,745
12,488	-18,795	216,667	96,915
13,502	-19,265	216,089	96,297
14,517	-18,927	215,894	96,453
15,531	-19,049	215,432	96,148
16,546	-18,939	215,043	96,048
17,561	-19,026	214,681	95,813
18,575	-19,019	214,634	95,789
19,590	-19,130	214,071	95,447
20,604	-19,156	214,073	95,420
21,619	-18,999	213,578	95,307
22,634	-19,340	213,456	94,992
23,648	-19,099	212,957	94,939
24,663	-19,011	212,778	94,915
25,677	-19,169	212,634	94,727
26,692	-19,253	212,481	94,589
27,707	-19,026	212,125	94,587
28,721	-19,115	211,761	94,352
29,736	-19,230	211,761	94,260
30,750	-19,115	211,362	94,157
31,765	-19,386	211,301	93,924
32,780	-18,971	210,939	94,057
33,794	-19,108	210,755	93,867
34,809	-19,036	210,521	93,806
35,823	-18,943	210,366	93,796
36,838	-19,064	210,144	93,602
37,853	-19,195	209,887	93,384
38,867	-19,202	209,757	93,313
39,882	-19,050	209,473	93,288
40,896	-19,116	209,351	93,177
41,911	-18,839	209,064	93,241
42,926	-19,163	208,818	92,890
43,940	-19,068	208,528	92,821
44,955	-19,079	208,537	92,809
45,969	-19,185	208,284	92,612
46,984	-19,158	208,215	92,592
47,999	-19,009	207,912	92,556
49,013	-19,082	207,708	92,405
50,028	-18,974	207,639	92,442
51,042	-18,952	207,372	92,332
52,057	-18,950	207,148	92,225
53,071	-18,989	206,940	92,096
54,086	-18,886	206,787	92,093
55,101	-18,882	206,756	92,074
56,115	-18,903	206,517	91,945
57,130	-18,902	206,169	91,782
58,144	-19,213	206,050	91,500
59,159	-19,111	205,880	91,490
60,174	-19,055	205,622	91,406
61,188	-19,160	205,364	91,209
62,203	-18,847	205,231	91,362
63,217	-19,005	205,143	91,204
64,232	-18,976	204,857	91,089
65,247	-19,026	204,745	90,996
66,261	-19,178	204,604	90,819
67,276	-19,103	204,319	90,736
68,290	-19,239	204,332	90,639
69,305	-18,799	204,000	90,791
70,320	-18,960	203,869	90,613
71,334	-19,002	203,515	90,417
72,349	-18,809	203,443	90,512
73,363	-19,045	203,223	90,242
74,378	-18,895	202,995	90,237
75,393	-18,912	202,934	90,190
76,407	-19,146	202,722	89,925
77,422	-19,051	202,496	89,883
78,436	-18,859	202,318	89,929
79,451	-19,007	202,282	89,802
80,466	-18,935	201,962	89,702
81,480	-19,045	201,731	89,515
82,495	-18,808	201,482	89,561
83,509	-18,984	201,400	89,395
84,524	-19,022	201,494	89,402
85,539	-18,845	201,035	89,313
86,553	-18,914	201,020	89,250
87,568	-18,794	200,760	89,210
88,582	-19,053	200,707	88,999
89,597	-19,101	200,459	88,849
90,611	-19,208	200,339	88,714
91,626	-18,918	200,242	88,863
92,641	-18,920	200,035	88,761
93,655	-18,943	199,666	88,574
94,670	-18,874	199,623	88,594
95,684	-18,883	199,478	88,516
96,699	-19,081	199,369	88,324
97,714	-19,124	199,327	88,268
98,728	-18,960	199,067	88,257
99,743	-18,598	198,912	88,427
100,757	-19,026	198,890	88,118
101,772	-18,894	198,495	88,025
102,787	-19,023	198,281	87,835
103,801	-19,131	198,196	87,716
104,816	-18,961	198,013	87,742
105,830	-18,848	197,940	87,779
106,845	-19,017	197,761	87,577
107,860	-18,953	197,587	87,535
108,874	-18,965	197,421	87,446
109,889	-18,779	197,148	87,443
110,903	-18,886	197,008	87,301
111,918	-18,857	196,846	87,241
112,933	-18,857	196,680	87,159
113,947	-18,869	196,592	87,105
114,962	-18,827	196,432	87,054
115,976	-19,062	196,256	86,811
116,991	-19,013	196,052	86,746
118,006	-18,786	195,928	86,835
119,020	-18,969	195,770	86,635
120,035	-18,982	195,681	86,579
121,049	-19,042	195,680	86,531
122,064	-18,822	195,329	86,514
123,079	-18,888	195,199	86,405
124,093	-19,123	195,011	86,158
125,108	-18,974	195,010	86,249
126,122	-18,826	194,847	86,268
127,137	-19,115	194,677	85,992
128,151	-18,785	194,519	86,135
129,166	-18,867	194,123	85,897
130,181	-18,754	194,132	85,968
131,195	-18,823	193,940	85,830
132,210	-19,000	193,665	85,584
133,224	-18,622	193,602	85,798
134,239	-18,688	193,393	85,654
135,254	-19,041	193,408	85,420
136,268	-18,840	193,159	85,435
137,283	-18,821	193,075	85,403
138,297	-18,789	192,888	85,333
139,312	-19,031	192,647	85,060
140,327	-19,062	192,541	84,985
141,341	-19,493	192,329	84,601
142,356	-19,234	192,016	84,626
143,370	-17,782	192,467	85,770
144,385	-10,974	194,447	91,156
145,400	-4,341	196,023	96,307
146,414	-2,781	196,054	97,351
147,429	-2,827	196,179	97,374
148,443	-2,642	196,014	97,407
149,458	-2,405	195,911	97,504
150,473	-1,998	195,958	97,790
151,487	-1,847	195,700	97,752
152,502	-1,829	195,596	97,703
153,516	-1,814	195,449	97,630
154,531	-1,765	195,327	97,594
155,546	-1,740	195,243	97,559
156,560	-1,723	194,968	97,425
157,575	-1,822	195,063	97,398
158,589	-1,792	194,842	97,299
159,604	-1,701	194,599	97,228
160,619	-1,691	194,536	97,195
161,633	-1,638	194,318	97,113
162,648	-1,597	194,231	97,087
163,662	-1,452	194,209	97,163
164,677	-1,527	194,130	97,065
165,692	-1,582	193,968	96,939
166,706	-1,667	193,936	96,859
167,721	-1,345	193,632	96,910
168,735	-1,500	193,564	96,765
169,750	-1,506	193,425	96,683
170,764	-1,193	193,254	96,794
171,779	-1,582	193,101	96,455
172,794	-1,436	193,133	96,557
173,808	-1,418	192,855	96,421
174,823	-1,495	192,771	96,321
175,837	-1,577	192,750	96,248
176,852	-1,222	192,498	96,345
177,867	-1,342	192,403	96,211
178,881	-1,366	192,255	96,112
179,896	-1,412	192,110	96,002
180,910	-1,513	191,909	95,827
181,925	-1,259	191,615	95,836
182,940	-1,589	191,532	95,573
183,954	-1,315	191,507	95,729
184,969	-1,394	191,401	95,616
185,983	-1,137	191,309	95,728
186,998	-1,139	191,050	95,588
188,013	-1,268	190,978	95,461
189,027	-1,512	190,963	95,287
190,042	-1,316	190,635	95,241
191,056	-1,157	190,584	95,309
192,071	-1,244	190,511	95,208
193,086	-1,105	190,406	95,237
194,100	-1,318	190,198	94,988
195,115	-0,903	189,942	95,117
196,129	-1,223	189,940	94,903
197,144	-1,248	189,731	94,773
198,159	-1,035	189,736	94,904
199,173	-1,297	189,500	94,610
200,188	-1,206	189,455	94,637
201,202	-0,970	189,173	94,639
202,217	-0,984	189,086	94,577
203,232	-1,195	188,805	94,294
204,246	-1,002	188,752	94,382
205,261	-1,226	188,717	94,214
206,275	-0,997	188,507	94,246
207,290	-0,978	188,353	94,172
208,304	-0,969	188,387	94,187
209,319	-1,109	188,164	93,978
210,334	-1,131	187,973	93,861
211,348	-1,027	187,867	93,865
212,363	-1,146	187,743	93,720
213,377	-0,756	187,649	93,911
214,392	-1,086	187,564	93,652
215,407	-0,850	187,308	93,664
216,421	-0,861	187,207	93,599
217,436	-1,143	187,109	93,364
218,450	-1,019	187,060	93,409
219,465	-1,236	186,811	93,140
220,480	-0,893	186,838	93,361
221,494	-1,059	186,629	93,144
222,509	-0,750	186,447	93,238
223,523	-0,863	186,281	93,076
224,538	-1,009	186,282	92,977
225,553	-0,984	186,022	92,855
226,567	-1,011	186,051	92,844
227,582	-0,903	185,844	92,800
228,596	-0,805	185,869	92,865
229,611	-1,207	185,621	92,482
230,626	-0,728	185,454	92,689
231,640	-1,104	185,306	92,373
232,655	-0,840	185,290	92,521
233,669	-1,122	185,142	92,263
234,684	-1,041	185,169	92,319
235,699	-1,003	184,963	92,231
236,713	-0,855	184,821	92,244
237,728	-0,768	184,714	92,237
238,742	-0,752	184,613	92,188
239,757	-0,951	184,386	91,944
240,772	-0,990	184,361	91,899
241,786	-0,718	184,168	91,962
242,801	-0,883	184,035	91,785
243,815	-0,975	184,119	91,763
244,830	-0,713	183,848	91,781
245,844	-0,577	183,742	91,804
246,859	-0,623	183,578	91,685
247,874	-0,605	183,400	91,599
248,888	-0,828	183,378	91,443
249,903	-0,774	183,310	91,434
250,917	-0,734	183,177	91,384
251,932	-0,575	182,993	91,382
252,947	-0,760	182,852	91,190
253,961	-0,403	182,801	91,375
254,976	-0,439	182,562	91,225
255,990	-0,711	182,586	91,063
257,005	-0,900	182,424	90,858
258,020	-0,673	182,416	90,985
259,034	-0,547	182,202	90,947
260,049	-0,875	182,177	90,727
261,063	-0,496	181,990	90,856
262,078	-0,553	181,812	90,725
263,093	-0,705	181,732	90,584
264,107	-0,579	181,506	90,540
265,122	-0,455	181,455	90,582
266,136	-0,409	181,308	90,528
267,151	-0,619	181,137	90,307
268,166	-0,529	180,968	90,269
269,180	-0,710	180,938	90,137
270,195	-0,636	180,802	90,106
271,209	-0,625	180,746	90,077
272,224	-0,322	180,505	90,131
273,239	-0,620	180,579	89,980
274,253	-0,018	180,181	90,137
275,268	-0,309	180,252	89,989
276,282	-0,178	180,066	89,967
277,297	-0,281	179,950	89,839
278,312	-0,309	179,835	89,757
279,326	-0,355	179,729	89,668
280,341	-0,318	179,738	89,687
281,355	-0,541	179,717	89,535
282,370	-0,551	179,500	89,412
283,384	-0,300	179,199	89,405
284,399	-0,382	179,205	89,350
285,414	-0,432	179,044	89,232
286,428	-0,481	178,904	89,126
287,443	-0,255	179,018	89,310
288,457	-0,095	178,772	89,275
289,472	-0,189	178,495	89,072
290,487	-0,071	178,496	89,135
291,501	-0,249	178,315	88,931
292,516	-0,307	178,324	88,893
293,530	-0,123	178,165	88,916
294,545	-0,194	177,999	88,782
295,560	-0,056	177,919	88,816
296,574	-0,309	177,829	88,613
297,589	-0,236	177,731	88,600
298,603	-0,103	177,425	88,518
299,618	-0,491	177,488	88,312
300,633	-0,132	177,395	88,471
301,647	-0,218	177,289	88,359
302,662	0,054	177,132	88,433
303,676	-0,053	176,986	88,289
304,691	-0,250	176,884	88,114
305,706	-0,014	176,683	88,145
306,720	-0,158	176,656	88,039
307,735	-0,192	176,653	88,010
308,749	-0,173	176,410	87,892
309,764	-0,288	176,450	87,837
310,779	-0,260	176,204	87,723
311,793	-0,225	176,031	87,649
312,808	-0,300	175,874	87,519
313,822	-0,294	175,961	87,558
314,837	-0,381	175,808	87,423
315,852	-0,060	175,591	87,496
316,866	-0,021	175,536	87,483
317,881	-0,174	175,479	87,357
318,895	0,010	175,406	87,421
319,910	0,121	175,198	87,374
320,925	-0,088	174,997	87,144
321,939	-0,274	174,976	87,017
322,954	-0,428	174,987	86,926
323,968	-0,047	174,711	87,003
324,983	0,023	174,679	87,020
325,997	0,026	174,489	86,919
327,012	-0,203	174,489	86,778
328,027	-0,061	174,271	86,744
329,041	-0,107	174,134	86,642
330,056	0,084	174,150	86,753
331,070	0,038	173,927	86,607
332,085	0,058	173,882	86,588
333,100	-0,279	173,731	86,311
334,114	0,356	173,624	86,617
335,129	0,298	173,322	86,425
336,143	-0,015	173,541	86,346
337,158	0,076	173,380	86,310
338,173	0,390	173,231	86,410
339,187	0,261	173,035	86,230
340,202	0,296	172,847	86,149
341,216	0,153	172,875	86,072
342,231	0,135	172,813	86,024
343,246	0,041	172,643	85,877
344,260	0,198	172,563	85,921
345,275	0,100	172,548	85,849
346,289	0,309	172,259	85,817
347,304	0,187	172,194	85,707
348,319	0,430	172,114	85,799
349,333	0,269	171,971	85,628
350,348	0,024	171,770	85,380
351,362	0,384	171,573	85,480
352,377	0,315	171,682	85,487
353,392	0,419	171,488	85,443
354,406	0,041	171,532	85,241
355,421	189,970	1325,939	1393,922
356,435	150,404	1467,030	1394,393
