DTS Sentinel unit serial number:	SN410029Multiplexer serial number:	ORYXHardware model number:	OX2-SRSoftware version number:	ORYX F/W v4,00 Oryx Data Collector v3.7.2.0data status	okinstallation	B3 Nyhavnadifferential loss correction	single-endedforward channel	channel 1reverse channel	N/Adate	2023/11/28time	13:02:30forward acquisition time	300,00reverse acquisition time	0,00gamma	499,1914k internal	0,3138k external	0,3138temperature offset calibration	1,0000default loss term (dB/km)	0,3820temperature slope calibration	1,0000multiplexer offset coefficient	1,0000multiplexer slope coefficient	1,0000fibre end	0,00T internal ref (°C)	8,13T ext. ref 1 (°C)	-7,73T ext. ref 2 (°C)	-7,90length (m)	temperature (°C)	Stokes	anti-Stokes-744,400	201,988	-0,201	-0,230
-743,385	-200,000	0,005	0,312
-742,371	-200,000	-0,095	-0,327
-741,356	621,738	-0,134	0,250
-740,342	-200,000	-0,071	-0,236
-739,327	-200,000	-0,074	0,319
-738,312	17,520	-0,298	-0,175
-737,298	-200,000	0,028	0,231
-736,283	127,590	-0,302	-0,285
-735,269	800,000	0,080	0,228
-734,254	110,437	-0,211	-0,188
-733,239	10,076	-0,222	-0,125
-732,225	-200,000	0,061	-0,262
-731,210	-200,000	-0,001	0,165
-730,196	-200,000	-0,014	-0,057
-729,181	127,345	0,080	-0,076
-728,167	85,571	0,034	0,028
-727,152	629,366	-0,040	-0,075
-726,137	-200,000	0,017	-0,092
-725,123	-112,912	-0,081	0,012
-724,108	179,424	-0,052	-0,057
-723,094	46,242	-0,159	-0,109
-722,079	-17,783	-0,097	-0,045
-721,064	-107,930	-0,002	-0,000
-720,050	11,459	0,065	-0,037
-719,035	28,998	-0,069	0,043
-718,021	475,482	-0,048	0,080
-717,006	210,091	-0,036	-0,042
-715,991	145,212	-0,060	-0,060
-714,977	-200,000	-0,002	0,109
-713,962	610,079	-0,032	0,060
-712,948	-147,206	-0,096	0,006
-711,933	344,995	0,096	-0,140
-710,918	-83,926	-0,149	-0,035
-709,904	-38,687	-0,140	-0,054
-708,889	800,000	-0,059	-0,177
-707,875	89,495	0,078	0,064
-706,860	145,109	-0,045	0,045
-705,845	-126,398	0,082	0,009
-704,831	166,213	-0,038	-0,040
-703,816	-64,101	-0,086	0,026
-702,802	13,124	-0,144	-0,082
-701,787	-22,032	-0,119	-0,053
-700,772	66,297	0,087	0,065
-699,758	-95,786	-0,083	-0,016
-698,743	-200,000	-0,008	0,124
-697,729	50,546	0,074	0,052
-696,714	13,492	0,041	-0,023
-695,699	695,759	-0,006	0,012
-694,685	486,845	0,043	-0,073
-693,670	76,550	0,063	-0,049
-692,656	197,825	-0,052	0,059
-691,641	-74,512	-0,056	0,015
-690,627	248,605	0,027	0,034
-689,612	-1,002	0,026	0,013
-688,597	30,667	-0,136	0,086
-687,583	-36,153	-0,113	0,045
-686,568	86,967	-0,085	-0,069
-685,554	-159,400	-0,111	-0,005
-684,539	551,004	-0,088	-0,157
-683,524	358,321	-0,011	0,016
-682,510	-14,047	0,045	-0,021
-681,495	113,781	0,024	0,022
-680,481	318,968	-0,080	-0,112
-679,466	800,000	0,008	-0,026
-678,451	87,398	-0,054	0,044
-677,437	427,744	0,033	0,053
-676,422	800,000	-0,046	0,126
-675,408	209,141	0,028	-0,033
-674,393	-187,192	0,126	0,001
-673,378	377,626	-0,080	-0,122
-672,364	-200,000	-0,017	-0,128
-671,349	42,448	-0,101	-0,068
-670,335	-200,000	-0,008	0,094
-669,320	46,759	0,030	-0,021
-668,305	96,143	0,019	0,016
-667,291	-110,963	0,096	-0,014
-666,276	-115,551	-0,068	-0,009
-665,262	480,694	-0,031	-0,052
-664,247	95,221	-0,129	-0,109
-663,232	-20,950	-0,021	-0,009
-662,218	-97,428	0,075	-0,014
-661,203	766,817	0,033	0,067
-660,189	-167,657	0,024	-0,001
-659,174	-13,943	-0,086	-0,041
-658,159	708,975	-0,049	-0,097
-657,145	-33,018	-0,197	0,080
-656,130	800,000	-0,024	-0,049
-655,116	-76,151	-0,075	-0,019
-654,101	29,817	0,102	-0,064
-653,086	426,161	0,057	-0,091
-652,072	800,000	-0,049	-0,147
-651,057	737,774	0,044	-0,088
-650,043	130,689	0,124	0,118
-649,028	-200,000	0,004	-0,033
-648,014	-54,925	0,117	-0,039
-646,999	79,096	-0,077	0,061
-645,984	-60,231	0,133	-0,042
-644,970	-200,000	-0,031	-0,164
-643,955	-114,272	-0,158	-0,022
-642,941	238,548	-0,086	-0,105
-641,926	-67,498	-0,124	0,036
-640,911	73,591	0,068	0,053
-639,897	2,623	0,056	-0,030
-638,882	178,380	-0,066	-0,071
-637,868	-200,000	0,013	0,087
-636,853	46,796	-0,034	0,023
-635,838	70,860	-0,055	-0,042
-634,824	-117,098	0,201	-0,027
-633,809	54,000	-0,099	-0,070
-632,795	8,044	0,031	0,017
-631,780	-51,451	-0,053	0,018
-630,765	-39,073	0,104	-0,040
-629,751	-100,031	0,055	-0,010
-628,736	749,412	-0,116	-0,233
-627,722	171,510	0,036	-0,038
-626,707	-81,478	0,168	-0,040
-625,692	-77,325	0,028	-0,007
-624,678	179,273	-0,119	0,129
-623,663	-70,975	0,146	-0,040
-622,649	-92,707	-0,046	-0,009
-621,634	435,634	-0,080	-0,129
-620,619	-200,000	0,001	-0,021
-619,605	506,823	0,046	0,078
-618,590	-26,545	0,024	-0,010
-617,576	469,829	-0,006	0,010
-616,561	-120,938	0,083	-0,010
-615,546	139,748	-0,042	0,041
-614,532	800,000	0,074	0,208
-613,517	96,473	-0,070	-0,059
-612,503	-91,239	-0,041	0,009
-611,488	-200,000	-0,013	-0,057
-610,474	-45,727	-0,082	0,030
-609,459	539,602	-0,027	0,048
-608,444	13,234	-0,128	0,073
-607,430	-200,000	-0,106	0,000
-606,415	8,068	-0,112	-0,062
-605,401	754,096	-0,041	-0,082
-604,386	-19,068	0,083	0,038
-603,371	-53,870	-0,085	0,028
-602,357	47,077	-0,063	0,043
-601,342	-195,421	-0,031	0,000
-600,328	-79,004	-0,085	-0,021
-599,313	24,829	0,025	0,015
-598,298	-200,000	-0,020	-0,206
-597,284	56,110	0,039	0,028
-596,269	-59,139	-0,167	0,053
-595,255	-152,697	0,049	0,003
-594,240	-60,740	-0,114	0,035
-593,225	128,849	0,083	-0,078
-592,211	-60,448	-0,087	-0,027
-591,196	85,303	0,078	-0,063
-590,182	-95,225	0,093	-0,018
-589,167	-200,000	0,032	0,150
-588,152	-200,000	0,048	-0,285
-587,138	28,974	-0,167	-0,104
-586,123	-124,615	0,167	0,019
-585,109	800,000	0,049	-0,137
-584,094	145,224	-0,015	0,015
-583,079	-200,000	0,016	0,166
-582,065	-162,095	-0,022	0,001
-581,050	-200,000	-0,005	0,058
-580,036	769,091	0,015	0,031
-579,021	-200,000	0,060	-0,238
-578,006	-200,000	0,008	-0,067
-576,992	136,176	-0,015	-0,015
-575,977	-39,798	0,138	0,053
-574,963	-200,000	-0,039	0,170
-573,948	-200,000	-0,008	-0,051
-572,934	16,487	-0,056	-0,033
-571,919	-106,975	0,120	0,019
-570,904	-200,000	0,007	-0,077
-569,890	800,000	-0,073	-0,154
-568,875	-200,000	0,006	-0,114
-567,861	62,024	0,093	-0,068
-566,846	-98,936	0,071	-0,013
-565,831	-200,000	-0,003	0,122
-564,817	-152,782	0,083	0,004
-563,802	81,782	-0,068	-0,054
-562,788	143,027	-0,002	-0,002
-561,773	-200,000	-0,009	0,085
-560,758	-135,967	-0,071	-0,006
-559,744	-200,000	0,002	-0,095
-558,729	-52,069	-0,051	-0,017
-557,715	336,376	0,053	-0,077
-556,700	-200,000	-0,007	-0,101
-555,685	-200,000	-0,025	-0,107
-554,671	-200,000	0,001	-0,016
-553,656	375,457	-0,101	0,153
-552,642	-69,881	-0,072	0,020
-551,627	800,000	0,014	0,042
-550,612	800,000	0,055	-0,114
-549,598	-108,487	-0,060	-0,009
-548,583	685,491	0,040	-0,078
-547,569	432,721	0,029	-0,047
-546,554	-122,841	0,041	0,005
-545,539	242,042	-0,054	0,067
-544,525	-200,000	-0,003	-0,029
-543,510	-119,197	-0,053	-0,007
-542,496	215,232	-0,071	-0,083
-541,481	-40,180	0,108	-0,041
-540,466	-154,454	-0,070	0,003
-539,452	-25,090	0,098	0,042
-538,437	800,000	-0,026	0,071
-537,423	-200,000	0,015	-0,052
-536,408	317,375	-0,090	0,125
-535,393	-200,000	-0,046	-0,161
-534,379	358,807	-0,030	0,044
-533,364	-137,752	-0,103	-0,008
-532,350	800,000	0,020	-0,050
-531,335	-14,918	0,069	0,033
-530,321	512,463	-0,007	-0,012
-529,306	121,249	0,098	0,089
-528,291	239,360	0,059	-0,072
-527,277	-66,621	0,042	0,012
-526,262	-200,000	0,000	0,030
-525,248	-200,000	0,003	0,049
-524,233	-143,729	0,204	0,014
-523,218	87,379	-0,116	0,094
-522,204	-200,000	-0,021	-0,103
-521,189	-200,000	0,024	-0,121
-520,175	109,135	-0,070	0,061
-519,160	800,000	0,024	0,052
-518,145	64,097	-0,039	0,029
-517,131	115,584	0,025	0,023
-516,116	28,481	0,039	-0,024
-515,102	85,180	0,093	-0,075
-514,087	304,143	-0,058	-0,079
-513,072	-200,000	-0,047	-0,155
-512,058	-117,326	0,199	0,026
-511,043	-37,105	0,054	0,021
-510,029	-135,417	0,270	-0,023
-509,014	135,238	0,058	0,056
-507,999	67,987	-0,126	0,094
-506,985	800,000	-0,042	0,118
-505,970	-72,322	-0,061	0,017
-504,956	-35,089	0,038	-0,015
-503,941	183,198	0,084	0,091
-502,926	86,707	-0,056	0,045
-501,912	-154,872	0,128	0,006
-500,897	54,892	-0,125	-0,089
-499,883	-40,829	-0,044	-0,016
-498,868	-200,000	0,004	-0,207
-497,853	-29,709	-0,128	-0,054
-496,839	210,009	0,040	-0,046
-495,824	28,314	-0,084	0,052
-494,810	445,738	-0,064	-0,104
-493,795	-73,706	0,061	0,016
-492,781	800,000	0,042	0,125
-491,766	-200,000	0,009	-0,140
-490,751	221,708	-0,035	0,041
-489,737	-57,053	0,027	-0,009
-488,722	-85,605	-0,063	0,014
-487,708	-200,000	0,021	-0,104
-486,693	710,258	0,069	0,135
-485,678	448,658	0,037	-0,060
-484,664	351,466	0,021	0,031
-483,649	-200,000	-0,020	-0,134
-482,635	-200,000	0,011	-0,079
-481,620	800,000	0,066	0,142
-480,605	-200,000	0,032	0,194
-479,591	80,953	-0,101	0,080
-478,576	581,390	-0,043	-0,078
-477,562	163,630	-0,158	-0,163
-476,547	100,304	0,025	-0,021
-475,532	628,726	-0,058	-0,108
-474,518	122,225	0,017	-0,016
-473,503	223,881	0,032	0,038
-472,489	800,000	0,052	0,127
-471,474	-200,000	-0,011	0,056
-470,459	779,238	0,049	-0,100
-469,445	-200,000	-0,017	0,080
-468,430	-200,000	0,037	-0,214
-467,416	16,213	0,105	-0,061
-466,401	217,796	-0,007	-0,009
-465,386	-200,000	-0,004	0,025
-464,372	-157,905	-0,031	0,001
-463,357	-200,000	0,009	-0,037
-462,343	-200,000	0,039	-0,133
-461,328	58,692	-0,019	0,013
-460,313	-200,000	0,004	0,016
-459,299	708,814	0,058	0,113
-458,284	168,872	-0,078	0,082
-457,270	119,628	-0,106	0,096
-456,255	-43,023	-0,081	-0,030
-455,241	-200,000	0,010	-0,077
-454,226	-92,948	0,079	-0,016
-453,211	-35,517	-0,085	-0,034
-452,197	-200,000	0,020	0,087
-451,182	-200,000	-0,013	-0,081
-450,168	106,962	-0,030	0,026
-449,153	800,000	-0,022	-0,055
-448,138	111,503	0,067	-0,059
-447,124	-200,000	-0,030	-0,106
-446,109	-48,156	0,060	-0,021
-445,095	800,000	-0,026	-0,068
-444,080	-50,593	-0,174	0,060
-443,065	800,000	0,031	-0,066
-442,051	-200,000	0,000	0,029
-441,036	800,000	-0,028	-0,076
-440,022	372,432	-0,041	-0,062
-439,007	-200,000	-0,017	0,086
-437,992	-200,000	-0,009	0,037
-436,978	-200,000	0,006	-0,037
-435,963	-200,000	-0,008	-0,089
-434,949	-138,636	0,088	-0,007
-433,934	-200,000	-0,035	-0,119
-432,919	-200,000	0,006	-0,052
-431,905	800,000	-0,043	-0,094
-430,890	-48,747	0,151	-0,053
-429,876	-200,000	0,033	0,133
-428,861	24,886	0,065	0,039
-427,846	432,991	-0,048	-0,076
-426,832	54,302	-0,147	-0,104
-425,817	635,793	0,049	0,091
-424,803	-109,463	-0,078	-0,012
-423,788	-200,000	-0,003	0,061
-422,773	523,879	-0,035	0,060
-421,759	65,730	0,156	0,115
-420,744	569,416	-0,069	0,124
-419,730	-176,720	-0,090	0,002
-418,715	-200,000	0,005	-0,018
-417,701	285,094	-0,107	-0,142
-416,686	-107,893	0,020	-0,003
-415,671	-200,000	0,017	0,102
-414,657	89,184	0,051	0,041
-413,642	-200,000	-0,001	0,038
-412,628	-200,000	-0,009	0,034
-411,613	41,802	0,066	0,044
-410,598	789,931	0,047	-0,094
-409,584	280,843	-0,040	0,052
-408,569	259,242	0,089	-0,113
-407,555	-88,887	0,145	-0,031
-406,540	-200,000	-0,015	0,102
-405,525	-200,000	-0,036	0,119
-404,511	123,941	-0,087	-0,080
-403,496	656,072	-0,014	0,027
-402,482	-35,222	0,074	-0,029
-401,467	-200,000	0,005	0,054
-400,452	129,323	0,066	-0,061
-399,438	-56,530	-0,031	0,010
-398,423	47,063	-0,029	0,020
-397,409	66,205	-0,071	-0,053
-396,394	-70,324	-0,140	0,039
-395,379	-200,000	0,009	-0,060
-394,365	51,991	0,061	-0,042
-393,350	-200,000	-0,011	0,075
-392,336	-193,616	0,098	0,001
-391,321	515,208	0,033	-0,056
-390,306	98,508	-0,015	-0,012
-389,292	-200,000	0,028	-0,107
-388,277	-27,753	0,078	-0,033
-387,263	10,124	0,041	-0,023
-386,248	18,230	0,033	0,019
-385,233	-168,980	-0,013	0,000
-384,219	32,880	0,221	0,139
-383,204	46,133	-0,051	0,034
-382,190	-113,541	-0,041	0,006
-381,175	800,000	-0,038	-0,090
-380,160	-62,476	0,088	0,027
-379,146	80,420	-0,111	0,087
-378,131	46,150	0,106	-0,072
-377,117	678,180	0,024	0,046
-376,102	-181,534	0,082	-0,001
-375,088	419,734	-0,117	-0,184
-374,073	800,000	-0,041	0,127
-373,058	42,930	0,086	-0,057
-372,044	27,281	-0,075	-0,046
-371,029	78,375	-0,087	-0,068
-370,015	316,442	0,075	0,104
-369,000	135,224	-0,054	0,052
-367,985	525,389	-0,058	-0,100
-366,971	40,080	-0,109	-0,072
-365,956	101,122	0,046	0,039
-364,942	-174,105	0,040	-0,001
-363,927	475,411	-0,052	0,086
-362,912	800,000	0,039	0,114
-361,898	-49,524	-0,185	0,064
-360,883	-112,744	-0,115	0,017
-359,869	142,947	-0,025	0,024
-358,854	702,394	0,027	-0,052
-357,839	800,000	-0,016	0,048
-356,825	-200,000	0,023	0,098
-355,810	-64,114	-0,068	0,020
-354,796	82,509	0,125	0,099
-353,781	-12,074	-0,095	0,045
-352,766	800,000	0,061	0,141
-351,752	6,403	-0,099	0,054
-350,737	560,831	0,026	0,046
-349,723	153,982	-0,110	0,111
-348,708	297,183	0,013	0,017
-347,693	6,782	-0,127	-0,069
-346,679	-200,000	-0,005	-0,131
-345,664	-200,000	-0,026	-0,160
-344,650	188,475	0,045	0,049
-343,635	14,867	0,079	-0,045
-342,620	-200,000	0,000	0,143
-341,606	88,110	0,012	0,009
-340,591	-28,937	0,086	-0,036
-339,577	187,454	-0,053	-0,058
-338,562	444,063	-0,067	-0,108
-337,548	607,948	0,047	0,087
-336,533	53,613	0,103	0,072
-335,518	107,431	0,135	0,117
-334,504	-132,777	-0,113	0,010
-333,489	-200,000	0,002	0,066
-332,475	-98,039	-0,106	-0,020
-331,460	-200,000	0,004	-0,074
-330,445	-200,000	0,014	-0,058
-329,431	424,989	0,096	0,151
-328,416	-86,380	0,116	-0,026
-327,402	-200,000	-0,020	-0,070
-326,387	-200,000	0,012	0,071
-325,372	-17,350	-0,184	-0,084
-324,358	209,122	0,138	-0,158
-323,343	-200,000	0,023	0,097
-322,329	-200,000	-0,001	0,069
-321,314	-200,000	0,009	0,048
-320,299	-39,816	-0,122	0,046
-319,285	304,131	-0,059	-0,080
-318,270	-200,000	0,021	-0,110
-317,256	800,000	0,027	0,077
-316,241	800,000	0,051	-0,118
-315,226	-200,000	-0,012	0,077
-314,212	447,890	-0,017	0,027
-313,197	98,315	-0,045	0,038
-312,183	539,876	0,027	0,047
-311,168	-6,076	-0,034	0,017
-310,153	307,816	0,065	-0,089
-309,139	-94,911	-0,017	-0,003
-308,124	105,309	0,108	-0,093
-307,110	-200,000	-0,012	0,161
-306,095	425,356	0,039	-0,061
-305,080	209,005	-0,090	-0,103
-304,066	-200,000	-0,001	-0,114
-303,051	48,637	0,098	-0,067
-302,037	-43,117	-0,034	0,013
-301,022	145,287	-0,025	0,025
-300,008	322,529	-0,020	0,028
-298,993	-52,768	0,018	0,006
-297,978	576,822	-0,086	-0,154
-296,964	-97,824	0,115	-0,021
-295,949	-110,968	-0,109	-0,016
-294,935	-95,764	0,156	0,030
-293,920	800,000	-0,034	-0,101
-292,905	-200,000	0,016	0,099
-291,891	-161,284	-0,078	-0,003
-290,876	-144,602	0,094	-0,006
-289,862	-200,000	-0,016	0,056
-288,847	2,921	-0,074	-0,039
-287,832	-73,719	-0,056	-0,015
-286,818	-67,224	-0,070	0,020
-285,803	144,867	-0,066	-0,064
-284,789	156,702	0,080	0,080
-283,774	800,000	-0,018	-0,049
-282,759	-126,323	0,108	-0,012
-281,745	235,781	-0,042	-0,051
-280,730	-40,054	0,046	0,017
-279,716	800,000	-0,030	0,064
-278,701	36,743	-0,051	-0,033
-277,686	-200,000	-0,015	-0,069
-276,672	-200,000	-0,004	0,054
-275,657	-200,000	-0,009	-0,034
-274,643	250,999	-0,041	-0,051
-273,628	-200,000	-0,012	0,063
-272,613	138,098	-0,115	-0,110
-271,599	-27,630	-0,043	-0,018
-270,584	-200,000	-0,025	0,196
-269,570	227,868	0,095	0,112
-268,555	-140,336	0,156	0,012
-267,540	-22,984	-0,067	-0,029
-266,526	254,730	0,056	0,070
-265,511	-200,000	0,002	0,079
-264,497	-200,000	0,012	0,070
-263,482	446,924	0,090	0,144
-262,467	-200,000	-0,021	0,165
-261,453	405,153	0,041	0,064
-260,438	-110,061	-0,119	0,018
-259,424	-200,000	-0,006	0,062
-258,409	-55,349	0,092	-0,030
-257,395	87,472	0,111	-0,089
-256,380	190,105	0,073	0,080
-255,365	215,789	-0,078	0,091
-254,351	800,000	0,049	0,123
-253,336	-200,000	-0,015	0,063
-252,322	21,194	-0,089	-0,052
-251,307	800,000	-0,033	0,093
-250,292	22,965	-0,030	0,018
-249,278	-200,000	-0,003	0,099
-248,263	118,087	0,045	0,040
-247,249	-96,684	0,074	0,014
-246,234	74,947	-0,155	-0,118
-245,219	-16,576	0,134	-0,062
-244,205	13,066	0,110	0,062
-243,190	-200,000	0,003	-0,035
-242,176	-200,000	-0,031	0,133
-241,161	7,182	0,054	0,029
-240,146	800,000	0,008	-0,022
-239,132	94,547	0,019	-0,016
-238,117	613,421	0,048	0,087
-237,103	-200,000	-0,008	0,048
-236,088	413,429	-0,075	-0,116
-235,073	2,364	0,010	-0,005
-234,059	-200,000	0,013	0,087
-233,044	-34,801	0,126	0,050
-232,030	706,294	-0,063	0,121
-231,015	-124,044	0,078	-0,009
-230,000	800,000	0,056	-0,124
-228,986	800,000	0,062	0,125
-227,971	372,490	-0,041	0,061
-226,957	-200,000	0,013	-0,077
-225,942	-49,592	0,028	-0,010
-224,927	559,018	0,052	-0,091
-223,913	-200,000	0,005	-0,087
-222,898	-164,229	-0,091	-0,003
-221,884	34,002	0,035	0,022
-220,869	800,000	-0,024	0,055
-219,855	-14,799	0,046	0,021
-218,840	800,000	-0,031	0,067
-217,825	800,000	-0,032	0,099
-216,811	47,591	-0,082	-0,056
-215,796	-37,206	-0,130	-0,050
-214,782	-22,548	0,094	-0,041
-213,767	94,242	0,035	-0,029
-212,752	150,319	0,090	0,089
-211,738	-108,690	0,082	-0,013
-210,723	654,142	0,046	0,087
-209,709	-43,617	-0,104	-0,038
-208,694	-35,339	0,074	-0,029
-207,679	49,928	-0,085	-0,058
-206,665	134,466	-0,127	-0,119
-205,650	-200,000	0,023	0,136
-204,636	-200,000	-0,043	0,193
-203,621	-200,000	-0,018	0,113
-202,606	-15,581	-0,081	-0,038
-201,592	-200,000	-0,045	-0,162
-200,577	-200,000	-0,023	0,171
-199,563	-200,000	0,002	-0,145
-198,548	10,475	-0,045	0,025
-197,533	800,000	-0,045	0,099
-196,519	395,514	-0,077	0,118
-195,504	180,601	-0,075	-0,080
-194,490	54,912	-0,121	-0,085
-193,475	-32,046	-0,190	-0,077
-192,460	-200,000	0,001	0,103
-191,446	472,783	0,079	0,130
-190,431	-200,000	-0,022	0,093
-189,417	-56,125	0,068	0,022
-188,402	220,285	-0,041	0,047
-187,387	73,959	-0,182	-0,138
-186,373	800,000	0,002	-0,005
-185,358	-84,677	0,117	-0,027
-184,344	-200,000	-0,009	0,070
-183,329	113,353	0,013	-0,012
-182,315	-119,507	0,113	-0,014
-181,300	-200,000	-0,028	0,159
-180,285	-200,000	-0,003	-0,040
-179,271	800,000	-0,054	-0,123
-178,256	-128,799	-0,032	0,003
-177,242	800,000	0,037	-0,098
-176,227	202,964	0,070	0,078
-175,212	-200,000	0,030	0,000
-174,198	-140,647	-0,042	-0,003
-173,183	800,000	-0,027	-0,061
-172,169	-23,028	0,071	-0,031
-171,154	-200,000	0,005	-0,044
-170,139	27,357	0,069	-0,042
-169,125	773,043	0,075	0,150
-168,110	402,729	0,086	0,132
-167,096	17,725	0,123	-0,071
-166,081	800,000	-0,030	-0,072
-165,066	13,486	-0,090	0,050
-164,052	217,641	0,075	-0,087
-163,037	-10,738	0,083	0,040
-162,023	36,316	-0,078	-0,050
-161,008	800,000	0,061	0,135
-159,993	119,538	0,064	0,058
-158,979	95,294	-0,049	0,040
-157,964	-11,395	0,038	0,018
-156,950	-113,468	0,050	0,007
-155,935	-200,000	-0,018	0,108
-154,920	-59,029	0,095	0,029
-153,906	-200,000	-0,044	0,186
-152,891	-115,010	0,109	0,015
-151,877	93,118	-0,039	-0,032
-150,862	1,396	-0,072	-0,037
-149,847	-47,521	0,072	0,025
-148,833	0,535	0,121	0,062
-147,818	269,696	0,076	0,097
-146,804	206,937	0,064	0,073
-145,789	62,035	-0,062	-0,045
-144,775	-200,000	0,046	-0,158
-143,760	419,435	-0,049	-0,077
-142,745	-18,577	0,062	-0,028
-141,731	-49,854	0,123	-0,042
-140,716	-161,457	-0,046	-0,002
-139,702	-22,487	0,120	-0,052
-138,687	25,390	0,073	0,044
-137,672	100,147	0,010	0,008
-136,658	-109,097	-0,148	0,023
-135,643	3,698	-0,035	0,018
-134,629	155,278	-0,066	-0,065
-133,614	229,879	0,081	-0,096
-132,599	274,624	0,019	-0,024
-131,585	-200,000	0,029	0,193
-130,570	-35,209	-0,156	-0,061
-129,556	-101,325	0,141	0,025
-128,541	-67,407	-0,195	-0,055
-127,526	6,965	-0,016	-0,009
-126,512	800,000	0,027	-0,058
-125,497	-92,571	0,168	-0,034
-124,483	211,492	-0,048	0,054
-123,468	220,981	0,017	0,020
-122,453	-200,000	-0,010	-0,115
-121,439	-200,000	-0,002	0,082
-120,424	586,151	0,041	0,073
-119,410	-200,000	0,075	0,000
-118,395	533,889	-0,096	0,165
-117,380	386,119	0,028	0,041
-116,366	-52,996	0,120	-0,040
-115,351	161,535	-0,037	-0,038
-114,337	345,118	-0,083	-0,118
-113,322	-65,874	0,137	-0,039
-112,307	-38,469	0,091	-0,035
-111,293	-106,396	0,104	-0,017
-110,278	20,447	0,101	0,059
-109,264	94,105	-0,067	-0,055
-108,249	-200,000	0,009	-0,132
-107,234	-200,000	-0,002	0,017
-106,220	77,991	-0,135	-0,104
-105,205	-200,000	0,001	-0,049
-104,191	282,187	-0,016	-0,020
-103,176	81,229	0,061	-0,047
-102,162	460,158	-0,080	-0,129
-101,147	256,683	-0,062	0,077
-100,132	-42,130	-0,147	-0,054
-99,118	-200,000	-0,016	-0,101
-98,103	-200,000	0,015	-0,078
-97,089	311,462	0,089	0,121
-96,074	569,077	-0,067	0,119
-95,059	212,074	0,059	-0,068
-94,045	31,554	0,047	0,029
-93,030	800,000	0,026	0,066
-92,016	-200,000	-0,013	-0,084
-91,001	-200,000	0,008	0,029
-89,986	800,000	0,036	0,113
-88,972	389,174	0,089	-0,133
-87,957	-112,313	-0,052	0,008
-86,943	-119,461	-0,101	-0,012
-85,928	800,000	0,013	-0,026
-84,913	-96,436	0,174	0,033
-83,899	-133,002	-0,151	0,014
-82,884	800,000	-0,035	0,081
-81,870	90,370	-0,057	0,046
-80,855	-62,318	-0,039	0,012
-79,840	-200,000	-0,018	-0,120
-78,826	-49,169	-0,052	0,018
-77,811	336,529	0,090	0,127
-76,797	66,255	-0,015	-0,011
-75,782	-200,000	0,016	-0,057
-74,767	98,065	0,068	0,057
-73,753	-200,000	0,003	0,072
-72,738	-62,241	-0,067	-0,020
-71,724	-46,878	0,069	-0,024
-70,709	21,180	-0,179	-0,105
-69,694	305,396	0,053	-0,072
-68,680	246,825	0,105	0,129
-67,665	-131,219	0,074	0,007
-66,651	-97,357	-0,093	-0,017
-65,636	-138,366	0,222	0,017
-64,622	595,176	-0,034	-0,061
-63,607	-200,000	-0,024	-0,124
-62,592	-31,994	-0,066	-0,026
-61,578	800,000	-0,017	-0,037
-60,563	270,249	0,016	0,020
-59,549	-200,000	-0,028	0,171
-58,534	59,322	-2,238	-1,590
-57,519	546,769	-1,174	-2,037
-56,505	-200,000	-0,348	-4,343
-55,490	800,000	0,858	1,737
-54,476	800,000	5,198	11,336
-53,461	-200,000	22,240	345,417
-52,446	800,000	753,318	2297,548
-51,432	508,585	1638,235	2758,172
-50,417	67,019	1571,368	1154,818
-49,403	18,795	1160,794	669,421
-48,388	11,290	890,472	490,856
-47,373	25,966	858,723	515,901
-46,359	17,011	844,391	481,805
-45,344	8,245	840,243	454,401
-44,330	8,092	838,730	453,127
-43,315	8,027	837,536	452,281
-42,300	8,037	836,193	451,566
-41,286	8,086	835,113	451,104
-40,271	8,037	834,230	450,468
-39,257	8,114	833,080	450,048
-38,242	8,169	832,179	449,700
-37,227	8,080	831,541	449,085
-36,213	8,150	830,650	448,785
-35,198	8,160	829,596	448,225
-34,184	8,203	828,972	447,991
-33,169	8,054	828,295	447,188
-32,154	8,177	827,422	447,045
-31,140	8,188	826,224	446,412
-30,125	8,202	825,352	445,961
-29,111	8,149	824,988	445,600
-28,096	8,116	824,731	445,348
-27,082	8,102	823,983	444,888
-26,067	8,174	822,630	444,342
-25,052	8,128	822,125	443,923
-24,038	8,153	821,311	443,535
-23,023	8,096	821,010	443,196
-22,009	8,146	820,520	443,053
-20,994	8,225	819,535	442,726
-19,979	8,264	818,936	442,492
-18,965	8,183	818,297	441,902
-17,950	8,242	817,802	441,784
-16,936	8,142	817,369	441,252
-15,921	8,122	816,828	440,888
-14,906	8,048	815,929	440,181
-13,892	8,073	815,506	440,003
-12,877	8,034	814,901	439,551
-11,863	8,027	814,501	439,301
-10,848	8,048	813,918	439,025
-9,833	8,100	813,500	438,926
-8,819	8,099	812,766	438,510
-7,804	8,133	811,977	438,160
-6,790	8,134	811,578	437,931
-5,775	8,078	811,505	437,719
-4,760	8,090	810,734	437,319
-3,746	8,057	810,242	436,946
-2,731	7,901	809,706	436,209
-1,717	7,876	809,307	435,908
-0,702	7,921	808,564	435,615
0,313	7,978	805,945	435,017
1,327	11,527	789,486	435,632
2,342	20,084	642,865	373,318
3,356	13,969	354,142	198,314
4,371	-15,566	238,249	109,292
5,386	-18,784	224,525	100,493
6,400	-18,935	220,184	98,426
7,415	-18,059	218,250	98,214
8,429	-18,860	216,870	96,984
9,444	-19,110	216,090	96,440
10,459	-18,825	215,673	96,458
11,473	-18,959	215,079	96,084
12,488	-19,066	214,753	95,851
13,502	-18,964	214,079	95,616
14,517	-19,182	213,777	95,312
15,531	-19,058	213,388	95,221
16,546	-18,980	213,169	95,173
17,561	-19,229	212,715	94,779
18,575	-18,804	212,466	94,971
19,590	-19,023	212,007	94,597
20,604	-18,721	211,838	94,734
21,619	-18,925	211,568	94,456
22,634	-18,926	211,174	94,271
23,648	-18,959	210,927	94,128
24,663	-18,993	210,757	94,019
25,677	-19,236	210,557	93,745
26,692	-19,168	210,342	93,691
27,707	-18,843	210,107	93,813
28,721	-19,057	209,840	93,530
29,736	-18,930	209,714	93,558
30,750	-18,899	209,337	93,403
31,765	-18,747	209,021	93,363
32,780	-18,930	209,204	93,305
33,794	-18,902	208,636	93,064
34,809	-18,961	208,608	93,000
35,823	-18,771	208,304	92,993
36,838	-18,805	208,013	92,831
37,853	-19,043	207,776	92,546
38,867	-18,879	207,674	92,610
39,882	-18,996	207,508	92,444
40,896	-19,034	207,221	92,281
41,911	-18,823	207,068	92,354
42,926	-18,899	206,944	92,237
43,940	-18,826	206,800	92,217
44,955	-18,994	206,507	91,958
45,969	-18,991	206,433	91,920
46,984	-18,617	206,139	92,045
47,999	-18,904	205,954	91,751
49,013	-18,933	205,846	91,674
50,028	-18,945	205,619	91,557
51,042	-18,785	205,411	91,569
52,057	-18,664	205,205	91,554
53,071	-18,815	204,967	91,334
54,086	-18,934	205,044	91,276
55,101	-18,694	204,609	91,243
56,115	-18,909	204,500	91,036
57,130	-18,668	204,241	91,081
58,144	-18,908	204,015	90,804
59,159	-19,026	203,816	90,625
60,174	-18,796	203,492	90,633
61,188	-19,109	203,544	90,429
62,203	-18,797	203,308	90,534
63,217	-18,911	203,028	90,322
64,232	-18,860	202,893	90,289
65,247	-18,946	202,639	90,108
66,261	-19,049	202,549	89,989
67,276	-18,941	202,339	89,962
68,290	-18,847	202,199	89,957
69,305	-18,848	201,908	89,820
70,320	-18,775	201,851	89,837
71,334	-18,770	201,639	89,738
72,349	-18,991	201,564	89,543
73,363	-18,860	201,297	89,507
74,378	-18,920	201,230	89,428
75,393	-18,979	200,993	89,274
76,407	-18,958	200,755	89,174
77,422	-18,867	200,590	89,156
78,436	-18,950	200,376	88,996
79,451	-18,867	200,151	88,945
80,466	-18,955	200,063	88,838
81,480	-19,053	199,858	88,672
82,495	-18,901	199,646	88,674
83,509	-18,804	199,602	88,712
84,524	-18,796	199,399	88,620
85,539	-18,897	199,280	88,490
86,553	-18,761	198,956	88,431
87,568	-18,933	198,835	88,252
88,582	-18,936	198,615	88,145
89,597	-18,652	198,524	88,290
90,611	-19,000	198,542	88,053
91,626	-18,839	198,242	88,022
92,641	-18,927	198,083	87,883
93,655	-18,885	197,983	87,860
94,670	-18,849	197,885	87,833
95,684	-18,772	197,593	87,748
96,699	-18,772	197,335	87,625
97,714	-18,875	197,378	87,567
98,728	-18,717	197,162	87,570
99,743	-18,947	197,069	87,365
100,757	-18,859	196,727	87,265
101,772	-18,982	196,705	87,165
102,787	-19,088	196,643	87,058
103,801	-18,834	196,348	87,091
104,816	-18,645	196,262	87,172
105,830	-18,687	195,959	87,001
106,845	-19,050	195,950	86,746
107,860	-18,846	195,522	86,685
108,874	-18,841	195,364	86,611
109,889	-18,899	195,430	86,593
110,903	-18,729	195,159	86,579
111,918	-18,955	195,073	86,383
112,933	-18,484	194,796	86,566
113,947	-18,859	194,775	86,299
114,962	-18,843	194,504	86,182
115,976	-18,692	194,251	86,163
116,991	-18,793	194,346	86,130
118,006	-18,840	194,096	85,980
119,020	-19,061	194,018	85,792
120,035	-18,642	193,770	85,951
121,049	-18,600	193,659	85,923
122,064	-18,818	193,507	85,703
123,079	-18,939	193,445	85,588
124,093	-18,687	193,176	85,628
125,108	-18,783	192,953	85,458
126,122	-18,692	192,978	85,521
127,137	-18,464	192,744	85,560
128,151	-18,691	192,631	85,353
129,166	-18,833	192,422	85,159
130,181	-18,782	192,318	85,140
131,195	-18,871	192,076	84,967
132,210	-18,753	191,974	84,991
133,224	-18,909	191,681	84,752
134,239	-18,673	191,538	84,835
135,254	-18,700	191,345	84,725
136,268	-18,582	191,407	84,822
137,283	-18,635	191,081	84,635
138,297	-18,839	190,972	84,446
139,312	-18,701	190,846	84,473
140,327	-19,019	190,643	84,169
141,341	-19,082	190,472	84,045
142,356	-18,720	190,179	84,143
143,370	-17,821	190,671	84,938
144,385	-10,708	192,513	90,417
145,400	-4,126	194,038	95,466
146,414	-2,990	194,297	96,333
147,429	-2,768	194,216	96,431
148,443	-2,528	194,163	96,554
149,458	-2,121	194,023	96,744
150,473	-2,198	194,102	96,724
151,487	-1,736	193,775	96,855
152,502	-1,831	193,737	96,765
153,516	-1,641	193,607	96,816
154,531	-1,727	193,441	96,668
155,546	-1,714	193,237	96,567
156,560	-1,496	193,060	96,612
157,575	-1,495	192,958	96,553
158,589	-1,683	192,903	96,394
159,604	-1,600	192,721	96,348
160,619	-1,521	192,536	96,299
161,633	-1,523	192,579	96,310
162,648	-1,463	192,500	96,301
163,662	-1,475	192,367	96,219
164,677	-1,586	192,322	96,115
165,692	-1,476	192,033	96,034
166,706	-1,384	191,991	96,063
167,721	-1,335	191,692	95,937
168,735	-1,392	191,747	95,919
169,750	-1,240	191,537	95,904
170,764	-1,348	191,345	95,729
171,779	-1,329	191,335	95,728
172,794	-1,298	191,102	95,623
173,808	-1,187	190,965	95,618
174,823	-1,328	190,914	95,493
175,837	-1,305	190,775	95,429
176,852	-1,307	190,583	95,324
177,867	-1,207	190,604	95,390
178,881	-1,279	190,458	95,262
179,896	-1,191	190,275	95,219
180,910	-1,262	190,245	95,150
181,925	-1,218	189,933	95,014
182,940	-1,273	189,925	94,966
183,954	-1,189	189,631	94,864
184,969	-1,022	189,619	94,956
185,983	-1,138	189,418	94,773
186,998	-1,109	189,225	94,687
188,013	-0,942	189,127	94,736
189,027	-1,155	188,995	94,525
190,042	-1,065	189,014	94,584
191,056	-0,994	188,726	94,477
192,071	-0,966	188,610	94,428
193,086	-1,046	188,712	94,420
194,100	-0,763	188,308	94,389
195,115	-1,046	188,378	94,235
196,129	-1,266	188,171	93,984
197,144	-1,202	187,968	93,915
198,159	-0,971	187,863	94,000
199,173	-0,849	187,656	93,966
200,188	-1,022	187,577	93,808
201,202	-1,093	187,500	93,716
202,217	-0,926	187,234	93,681
203,232	-1,169	187,243	93,524
204,246	-1,023	187,095	93,533
205,261	-1,154	186,922	93,356
206,275	-1,181	186,812	93,275
207,290	-1,050	186,632	93,260
208,304	-0,964	186,563	93,271
209,319	-0,893	186,317	93,184
210,334	-0,840	186,169	93,135
211,348	-0,714	185,928	93,085
212,363	-0,730	185,951	93,078
213,377	-0,747	185,850	93,009
214,392	-0,677	185,746	92,992
215,407	-0,904	185,804	92,871
216,421	-0,611	185,585	92,936
217,436	-0,778	185,314	92,688
218,450	-0,726	185,266	92,689
219,465	-0,689	184,933	92,536
220,480	-0,658	185,040	92,601
221,494	-0,913	184,992	92,410
222,509	-0,716	184,620	92,338
223,523	-0,841	184,734	92,309
224,538	-0,646	184,486	92,298
225,553	-1,192	184,295	91,856
226,567	-0,686	184,208	92,118
227,582	-0,715	184,223	92,099
228,596	-0,559	184,010	92,081
229,611	-0,752	183,944	91,921
230,626	-1,078	183,701	91,590
231,640	-0,809	183,662	91,728
232,655	-0,970	183,476	91,527
233,669	-0,598	183,317	91,669
234,684	-0,837	183,211	91,461
235,699	-0,585	183,206	91,605
236,713	-0,613	183,095	91,525
237,728	-0,606	182,944	91,445
238,742	-0,501	182,877	91,468
239,757	-0,732	182,807	91,283
240,772	-0,638	182,460	91,159
241,786	-0,578	182,403	91,159
242,801	-0,781	182,351	91,001
243,815	-0,742	182,251	90,967
244,830	-0,524	182,132	91,033
245,844	-0,583	182,014	90,929
246,859	-0,539	181,833	90,858
247,874	-0,588	181,680	90,743
248,888	-0,481	181,564	90,743
249,903	-0,524	181,510	90,681
250,917	-0,517	181,313	90,579
251,932	-0,351	181,215	90,623
252,947	-0,125	181,072	90,681
253,961	-0,514	180,924	90,362
254,976	-0,588	180,839	90,267
255,990	-0,465	180,783	90,305
257,005	-0,367	180,643	90,287
258,020	-0,621	180,548	90,077
259,034	-0,214	180,397	90,240
260,049	-0,564	180,324	89,984
261,063	-0,559	180,217	89,926
262,078	-0,505	180,004	89,844
263,093	-0,271	179,963	89,957
264,107	-0,148	179,834	89,958
265,122	-0,227	179,731	89,851
266,136	-0,481	179,644	89,647
267,151	-0,464	179,473	89,564
268,166	-0,246	179,328	89,615
269,180	-0,288	179,283	89,559
270,195	-0,391	178,978	89,337
271,209	-0,233	178,887	89,378
272,224	-0,375	178,848	89,265
273,239	-0,434	178,726	89,161
274,253	-0,316	178,704	89,213
275,268	-0,502	178,514	88,999
276,282	-0,283	178,400	89,065
277,297	-0,218	178,178	88,985
278,312	-0,381	178,161	88,871
279,326	-0,294	178,206	88,938
280,341	-0,165	178,001	88,904
281,355	-0,153	177,788	88,797
282,370	-0,265	177,649	88,653
283,384	-0,253	177,601	88,629
284,399	-0,240	177,495	88,576
285,414	-0,469	177,357	88,363
286,428	-0,326	177,441	88,481
287,443	-0,213	177,160	88,400
288,457	0,011	177,079	88,485
289,472	-0,374	176,931	88,175
290,487	-0,114	176,634	88,173
291,501	-0,248	176,731	88,134
292,516	-0,070	176,540	88,136
293,530	-0,119	176,313	87,986
294,545	-0,205	176,468	88,005
295,560	-0,054	176,302	88,003
296,574	0,028	176,052	87,919
297,589	0,044	175,938	87,864
298,603	-0,056	175,890	87,773
299,618	-0,225	175,904	87,673
300,633	-0,017	175,632	87,651
301,647	0,178	175,593	87,738
302,662	0,021	175,517	87,600
303,676	-0,057	175,411	87,495
304,691	-0,223	175,371	87,369
305,706	-0,164	175,030	87,226
306,720	-0,134	175,045	87,244
307,735	0,032	174,798	87,209
308,749	0,412	174,744	87,396
309,764	-0,065	174,652	87,064
310,779	-0,288	174,605	86,903
311,793	-0,193	174,311	86,805
312,808	-0,049	174,248	86,849
313,822	0,034	174,126	86,829
314,837	0,056	173,986	86,764
315,852	0,123	174,069	86,836
316,866	0,194	173,824	86,748
317,881	-0,106	173,704	86,506
318,895	0,111	173,589	86,567
319,910	0,034	173,377	86,409
320,925	0,283	173,230	86,472
321,939	0,053	173,284	86,358
322,954	0,115	173,106	86,298
323,968	0,258	173,013	86,326
324,983	0,372	173,038	86,396
325,997	0,086	172,783	86,097
327,012	0,143	172,689	86,075
328,027	0,090	172,649	86,017
329,041	0,073	172,521	85,935
330,056	0,217	172,306	85,903
331,070	0,124	172,302	85,841
332,085	0,449	172,123	85,930
333,100	0,295	171,969	85,757
334,114	0,291	171,717	85,622
335,129	0,216	171,613	85,519
336,143	0,155	171,856	85,598
337,158	0,069	171,579	85,403
338,173	0,054	171,522	85,358
339,187	0,472	171,390	85,524
340,202	0,450	171,242	85,430
341,216	0,409	171,081	85,318
342,231	0,315	171,028	85,231
343,246	0,352	170,957	85,209
344,260	0,253	170,909	85,121
345,275	0,239	170,838	85,070
346,289	0,393	170,581	85,022
347,304	0,576	170,492	85,074
348,319	0,070	170,405	84,736
349,333	0,350	170,202	84,786
350,348	0,591	170,011	84,819
351,362	0,628	169,997	84,826
352,377	0,643	169,772	84,714
353,392	0,371	169,918	84,626
354,406	0,461	169,684	84,553
355,421	190,452	1325,744	1395,168
356,435	150,755	1467,026	1395,641
