DTS Sentinel unit serial number:	SN410029Multiplexer serial number:	ORYXHardware model number:	OX2-SRSoftware version number:	ORYX F/W v4,00 Oryx Data Collector v3.7.2.0data status	okinstallation	B3 Nyhavnadifferential loss correction	single-endedforward channel	channel 1reverse channel	N/Adate	2023/11/28time	10:32:30forward acquisition time	300,00reverse acquisition time	0,00gamma	499,1914k internal	0,3141k external	0,3141temperature offset calibration	1,0000default loss term (dB/km)	0,3820temperature slope calibration	1,0000multiplexer offset coefficient	1,0000multiplexer slope coefficient	1,0000fibre end	0,00T internal ref (°C)	9,92T ext. ref 1 (°C)	-6,80T ext. ref 2 (°C)	-7,05length (m)	temperature (°C)	Stokes	anti-Stokes-744,400	-200,000	-0,026	-0,243
-743,385	339,209	-0,172	0,250
-742,371	67,714	-0,094	-0,071
-741,356	-200,000	-0,092	0,304
-740,342	405,498	-0,091	-0,142
-739,327	800,000	-0,089	0,218
-738,312	151,068	-0,208	-0,209
-737,298	136,873	-0,094	0,091
-736,283	-200,000	0,003	-0,225
-735,269	439,310	-0,113	0,183
-734,254	-38,107	-0,227	-0,089
-733,239	-200,000	-0,257	-0,001
-732,225	-200,000	-0,012	-0,237
-731,210	262,236	0,087	0,111
-730,196	-132,444	0,041	0,004
-729,181	-200,000	-0,019	-0,107
-728,167	317,747	0,105	0,148
-727,152	-37,140	-0,104	0,041
-726,137	-36,416	-0,215	-0,085
-725,123	-200,000	-0,005	-0,094
-724,108	800,000	-0,059	-0,157
-723,094	-39,809	0,096	-0,037
-722,079	-200,000	0,023	-0,092
-721,064	-114,801	-0,141	-0,020
-720,050	800,000	0,042	-0,091
-719,035	-14,761	-0,032	0,015
-718,021	57,315	-0,035	-0,026
-717,006	-55,407	-0,050	-0,017
-715,991	-64,175	-0,135	-0,040
-714,977	98,945	-0,136	-0,116
-713,962	-200,000	0,024	-0,140
-712,948	56,640	-0,109	-0,079
-711,933	800,000	-0,041	-0,095
-710,918	88,500	-0,042	0,034
-709,904	85,656	-0,041	-0,033
-708,889	-150,629	-0,095	0,005
-707,875	800,000	-0,037	0,084
-706,860	-200,000	0,047	0,204
-705,845	17,165	-0,017	-0,010
-704,831	-200,000	0,028	-0,096
-703,816	29,732	0,053	-0,034
-702,802	-200,000	-0,024	-0,237
-701,787	89,227	-0,066	-0,055
-700,772	-120,570	0,170	-0,021
-699,758	-103,472	-0,086	-0,015
-698,743	-200,000	0,018	-0,122
-697,729	-36,179	0,107	0,042
-696,714	-159,765	-0,159	-0,006
-695,699	-126,354	0,084	-0,009
-694,685	800,000	-0,037	-0,113
-693,670	-56,332	0,082	-0,027
-692,656	-44,756	0,015	0,006
-691,641	157,821	-0,019	0,019
-690,627	-108,022	-0,088	-0,014
-689,612	800,000	0,049	-0,113
-688,597	608,708	-0,013	-0,025
-687,583	-200,000	-0,036	-0,245
-686,568	-200,000	-0,014	-0,151
-685,554	702,130	-0,063	-0,124
-684,539	116,471	0,093	0,085
-683,524	384,939	0,057	-0,088
-682,510	-200,000	0,033	0,172
-681,495	-6,811	-0,128	-0,064
-680,481	-165,462	-0,163	0,005
-679,466	800,000	-0,046	-0,096
-678,451	-200,000	0,013	-0,091
-677,437	-200,000	-0,008	0,071
-676,422	-200,000	-0,001	0,136
-675,408	539,397	0,054	-0,096
-674,393	-200,000	-0,043	-0,166
-673,378	800,000	0,046	-0,112
-672,364	-73,886	-0,150	-0,040
-671,349	-200,000	0,009	-0,093
-670,335	-200,000	-0,031	0,142
-669,320	-83,613	0,152	-0,036
-668,305	800,000	0,011	0,025
-667,291	228,268	-0,083	-0,100
-666,276	-200,000	0,001	-0,219
-665,262	-84,562	-0,124	0,029
-664,247	800,000	0,041	-0,091
-663,232	-200,000	-0,004	-0,117
-662,218	-20,588	-0,021	0,009
-661,203	36,908	0,080	-0,052
-660,189	269,325	-0,100	-0,129
-659,174	-200,000	-0,013	-0,044
-658,159	-200,000	-0,042	-0,230
-657,145	-5,219	-0,118	-0,060
-656,130	800,000	0,017	-0,044
-655,116	42,329	0,109	0,073
-654,101	-43,642	-0,120	0,045
-653,086	-200,000	0,015	-0,078
-652,072	-61,791	-0,032	-0,010
-651,057	-200,000	-0,006	-0,104
-650,043	1,021	-0,126	0,067
-649,028	-39,910	0,100	-0,038
-648,014	800,000	0,060	-0,168
-646,999	128,475	0,023	0,022
-645,984	12,115	0,043	-0,024
-644,970	152,809	-0,107	-0,108
-643,955	-200,000	-0,007	0,047
-642,941	-200,000	-0,004	-0,047
-641,926	38,119	-0,099	0,065
-640,911	-141,934	0,088	0,006
-639,897	-122,288	0,060	-0,007
-638,882	168,828	-0,039	0,041
-637,868	-200,000	-0,007	0,037
-636,853	166,583	-0,125	-0,131
-635,838	675,711	-0,038	-0,073
-634,824	311,835	-0,071	-0,099
-633,809	-151,893	0,099	0,005
-632,795	-122,867	-0,033	0,004
-631,780	773,741	-0,033	-0,067
-630,765	800,000	-0,022	0,053
-629,751	253,335	-0,078	0,099
-628,736	25,089	0,018	-0,011
-627,722	253,128	-0,042	-0,053
-626,707	-19,394	-0,077	0,035
-625,692	-109,087	0,070	0,011
-624,678	81,314	-0,103	0,082
-623,663	-200,000	0,010	-0,036
-622,649	-200,000	0,034	-0,145
-621,634	-200,000	0,030	-0,110
-620,619	52,427	-0,151	-0,106
-619,605	-92,859	0,139	-0,028
-618,590	685,336	-0,048	-0,093
-617,576	542,709	0,059	0,104
-616,561	-200,000	0,014	0,079
-615,546	-151,154	-0,103	0,006
-614,532	-200,000	0,017	0,093
-613,517	-79,758	0,054	-0,013
-612,503	-2,969	-0,085	0,044
-611,488	494,249	0,059	-0,100
-610,474	210,555	-0,025	0,029
-609,459	6,239	-0,048	-0,026
-608,444	-61,968	-0,089	-0,027
-607,430	-200,000	-0,003	0,079
-606,415	-29,255	-0,071	0,030
-605,401	86,999	-0,050	0,041
-604,386	-89,850	0,079	-0,017
-603,371	735,105	0,046	-0,091
-602,357	240,988	0,092	0,114
-601,342	-21,800	-0,170	0,076
-600,328	-55,482	0,031	0,010
-599,313	262,305	-0,092	-0,117
-598,298	-200,000	-0,053	0,183
-597,284	681,523	0,046	0,088
-596,269	270,209	0,100	0,129
-595,255	-0,054	-0,018	-0,009
-594,240	800,000	0,016	-0,041
-593,225	636,004	0,016	0,030
-592,211	-200,000	0,043	-0,168
-591,196	15,695	0,089	0,051
-590,182	-200,000	0,001	-0,027
-589,167	800,000	-0,011	0,031
-588,152	-120,075	0,078	0,010
-587,138	7,278	-0,027	-0,015
-586,123	800,000	-0,013	-0,040
-585,109	197,090	0,051	0,058
-584,094	9,216	-0,070	-0,039
-583,079	800,000	-0,046	0,095
-582,065	85,646	-0,075	0,061
-581,050	-72,635	0,012	-0,003
-580,036	-63,313	0,083	0,025
-579,021	-200,000	0,030	-0,123
-578,006	-55,641	-0,068	-0,022
-576,992	184,702	0,090	-0,099
-575,977	-200,000	-0,002	0,018
-574,963	125,885	-0,100	0,093
-573,948	-200,000	-0,031	0,102
-572,934	-200,000	-0,037	-0,143
-571,919	63,863	-0,089	-0,066
-570,904	800,000	-0,045	0,095
-569,890	59,125	0,044	0,032
-568,875	-200,000	-0,013	-0,102
-567,861	-16,991	0,053	0,025
-566,846	-92,879	0,050	-0,010
-565,831	-72,391	-0,115	-0,031
-564,817	519,168	-0,018	-0,031
-563,802	100,121	-0,088	-0,075
-562,788	22,389	-0,084	-0,050
-561,773	800,000	0,054	0,131
-560,758	26,281	0,046	-0,029
-559,744	334,035	-0,070	0,100
-558,729	-200,000	-0,004	0,043
-557,715	800,000	-0,038	0,093
-556,700	35,966	-0,100	-0,065
-555,685	56,400	-0,115	0,082
-554,671	800,000	-0,028	-0,059
-553,656	-142,732	0,154	-0,011
-552,642	180,100	0,025	0,027
-551,627	-200,000	-0,001	0,021
-550,612	-200,000	0,005	-0,117
-549,598	-101,896	-0,146	-0,026
-548,583	-127,563	-0,077	0,008
-547,569	-200,000	-0,014	0,184
-546,554	-200,000	0,024	0,129
-545,539	800,000	-0,016	-0,042
-544,525	189,568	0,094	-0,104
-543,510	-200,000	0,015	-0,060
-542,496	800,000	-0,012	0,027
-541,481	800,000	0,027	-0,075
-540,466	123,021	-0,069	-0,063
-539,452	-92,063	-0,061	-0,013
-538,437	195,734	0,066	-0,074
-537,423	-0,492	-0,057	-0,030
-536,408	473,814	0,034	0,056
-535,393	20,657	0,108	-0,064
-534,379	273,797	-0,064	-0,084
-533,364	-95,494	-0,078	-0,015
-532,350	-200,000	-0,029	0,158
-531,335	55,297	-0,104	0,074
-530,321	369,105	0,070	0,104
-529,306	-200,000	0,006	0,024
-528,291	-61,059	-0,098	0,030
-527,277	800,000	-0,042	-0,100
-526,262	-56,019	-0,083	0,027
-525,248	-60,855	0,039	-0,012
-524,233	-160,519	-0,076	-0,003
-523,218	-200,000	0,022	-0,150
-522,204	-117,001	-0,120	0,016
-521,189	64,250	-0,027	-0,020
-520,175	199,225	0,017	-0,020
-519,160	800,000	-0,055	-0,115
-518,145	155,318	0,178	0,180
-517,131	442,856	0,005	-0,008
-516,116	-200,000	0,015	-0,067
-515,102	49,133	-0,080	-0,055
-514,087	-97,705	-0,116	0,022
-513,072	369,761	0,096	-0,143
-512,058	800,000	0,024	-0,077
-511,043	467,223	0,078	0,129
-510,029	-200,000	-0,006	0,101
-509,014	-200,000	0,050	0,177
-507,999	450,359	0,023	-0,037
-506,985	443,464	0,050	-0,081
-505,970	-200,000	-0,037	-0,131
-504,956	104,274	0,097	0,084
-503,941	461,767	0,044	-0,073
-502,926	-108,501	0,094	-0,015
-501,912	122,559	0,176	0,162
-500,897	-200,000	-0,023	-0,087
-499,883	-19,748	-0,082	0,037
-498,868	37,217	-0,101	-0,066
-497,853	103,306	-0,114	-0,098
-496,839	-200,000	0,007	0,110
-495,824	121,296	0,109	0,100
-494,810	273,264	0,089	0,116
-493,795	800,000	0,016	0,038
-492,781	-200,000	0,001	0,169
-491,766	-99,489	0,021	0,004
-490,751	232,300	-0,090	-0,109
-489,737	256,849	-0,025	-0,032
-488,722	-61,485	0,105	-0,032
-487,708	-200,000	0,043	0,165
-486,693	-200,000	-0,003	-0,114
-485,678	11,438	-0,018	-0,010
-484,664	-200,000	-0,039	-0,145
-483,649	-139,559	-0,105	0,008
-482,635	300,540	0,052	0,071
-481,620	-94,093	0,063	0,013
-480,605	196,531	-0,026	-0,029
-479,591	-200,000	-0,042	0,216
-478,576	-200,000	0,030	0,310
-477,562	380,129	-0,040	0,060
-476,547	-200,000	0,009	-0,030
-475,532	87,543	0,027	-0,022
-474,518	800,000	0,063	0,168
-473,503	144,097	-0,065	0,063
-472,489	-200,000	-0,010	-0,138
-471,474	800,000	-0,047	-0,102
-470,459	-200,000	-0,004	-0,094
-469,445	6,807	0,070	-0,038
-468,430	-200,000	-0,003	0,108
-467,416	374,939	0,061	0,091
-466,401	-122,147	-0,059	0,007
-465,386	-92,768	0,078	0,016
-464,372	-183,268	-0,075	-0,001
-463,357	-25,547	-0,158	-0,068
-462,343	800,000	-0,088	-0,183
-461,328	92,314	0,004	0,003
-460,313	627,364	-0,102	-0,190
-459,299	-151,535	0,081	-0,004
-458,284	-40,499	0,142	0,054
-457,270	-9,886	-0,032	-0,016
-456,255	-101,161	-0,131	0,023
-455,241	-13,461	-0,199	-0,094
-454,226	-127,003	0,100	-0,011
-453,211	-200,000	-0,010	-0,084
-452,197	-5,913	0,143	-0,071
-451,182	225,079	-0,105	0,125
-450,168	-200,000	-0,002	0,045
-449,153	-146,128	0,029	0,002
-448,138	-149,552	-0,172	-0,010
-447,124	-10,723	0,064	-0,031
-446,109	-155,355	0,086	0,004
-445,095	800,000	-0,011	-0,031
-444,080	151,062	-0,084	-0,084
-443,065	-200,000	0,006	-0,022
-442,051	254,217	-0,057	0,072
-441,036	-200,000	0,000	-0,004
-440,022	-200,000	0,003	0,040
-439,007	-120,389	-0,038	0,005
-437,992	-200,000	-0,012	-0,062
-436,978	159,164	0,031	0,032
-435,963	13,682	0,067	-0,038
-434,949	100,228	-0,043	-0,036
-433,934	105,686	0,066	-0,057
-432,919	800,000	0,038	-0,080
-431,905	-7,468	-0,075	-0,037
-430,890	800,000	0,030	0,066
-429,876	-200,000	-0,015	0,062
-428,861	65,522	0,053	-0,040
-427,846	-200,000	-0,015	0,156
-426,832	-134,160	-0,063	-0,006
-425,817	-200,000	-0,024	0,110
-424,803	-200,000	0,035	-0,130
-423,788	-113,737	0,060	0,008
-422,773	82,155	-0,089	-0,071
-421,759	-200,000	-0,010	-0,033
-420,744	90,450	0,097	0,080
-419,730	389,983	-0,140	-0,213
-418,715	-34,536	-0,129	-0,051
-417,701	-48,736	0,094	-0,033
-416,686	-200,000	0,002	0,038
-415,671	337,401	-0,018	0,025
-414,657	-95,936	0,045	-0,009
-413,642	20,686	0,070	0,042
-412,628	366,046	0,041	0,060
-411,613	-24,057	-0,112	-0,049
-410,598	572,120	0,048	-0,085
-409,584	-200,000	-0,026	0,084
-408,569	-200,000	0,026	0,158
-407,555	-200,000	0,003	0,013
-406,540	-67,252	0,045	0,013
-405,525	-200,000	0,007	0,080
-404,511	-39,166	-0,054	-0,021
-403,496	-121,791	0,061	0,007
-402,482	9,840	-0,046	0,025
-401,467	366,733	0,089	0,132
-400,452	800,000	0,041	0,086
-399,438	-42,533	-0,172	0,064
-398,423	800,000	-0,058	-0,159
-397,409	-200,000	0,004	0,061
-396,394	2,339	0,073	-0,038
-395,379	-89,775	-0,030	0,006
-394,365	-107,377	0,090	0,014
-393,350	66,005	0,104	0,077
-392,336	493,669	-0,035	-0,059
-391,321	-200,000	-0,009	-0,044
-390,306	98,268	-0,084	-0,071
-389,292	-64,452	-0,078	-0,023
-388,277	-34,146	0,141	-0,056
-387,263	-48,644	-0,059	-0,021
-386,248	27,674	0,039	0,024
-385,233	122,663	-0,056	-0,051
-384,219	-75,292	0,130	-0,034
-383,204	-129,082	0,072	0,007
-382,190	-114,987	-0,156	-0,021
-381,175	221,320	-0,113	0,133
-380,160	95,490	0,036	0,030
-379,146	142,083	0,028	0,027
-378,131	800,000	0,034	-0,098
-377,117	-200,000	-0,008	0,122
-376,102	50,658	-0,046	-0,031
-375,088	299,867	0,079	-0,107
-374,073	7,115	-0,099	0,054
-373,058	-200,000	0,011	-0,072
-372,044	160,854	0,043	0,044
-371,029	-1,828	0,072	0,037
-370,015	68,429	-0,097	-0,073
-369,000	8,115	0,036	-0,020
-367,985	390,276	-0,056	0,084
-366,971	120,574	-0,067	-0,061
-365,956	-200,000	0,013	-0,087
-364,942	262,495	0,001	-0,002
-363,927	800,000	-0,016	0,046
-362,912	162,515	0,041	-0,042
-361,898	156,268	-0,020	-0,020
-360,883	-134,095	0,137	-0,012
-359,869	-200,000	-0,019	-0,150
-358,854	-200,000	0,008	0,129
-357,839	740,658	0,065	-0,128
-356,825	70,333	0,036	0,027
-355,810	488,380	-0,070	-0,118
-354,796	698,687	0,024	-0,045
-353,781	800,000	-0,027	0,075
-352,766	-200,000	-0,002	0,039
-351,752	-200,000	-0,007	0,026
-350,737	800,000	0,010	-0,027
-349,723	163,728	0,053	-0,054
-348,708	539,541	0,028	0,048
-347,693	80,188	-0,099	0,077
-346,679	-200,000	-0,021	-0,163
-345,664	-150,764	-0,044	-0,002
-344,650	-67,376	-0,163	0,046
-343,635	800,000	-0,031	0,089
-342,620	-200,000	0,008	-0,046
-341,606	-161,211	-0,090	-0,003
-340,591	400,093	0,095	-0,145
-339,577	-108,348	-0,132	0,021
-338,562	-200,000	-0,039	-0,151
-337,548	11,183	-0,135	0,075
-336,533	153,291	-0,066	0,066
-335,518	17,301	0,101	0,058
-334,504	-134,504	-0,032	-0,003
-333,489	800,000	0,039	0,101
-332,475	-200,000	0,023	-0,148
-331,460	800,000	-0,034	-0,108
-330,445	-83,695	0,110	0,026
-329,431	78,085	0,024	0,019
-328,416	277,499	0,053	-0,069
-327,402	172,859	-0,087	0,091
-326,387	-76,387	0,110	0,028
-325,372	137,849	-0,060	-0,057
-324,358	203,436	-0,032	-0,036
-323,343	-200,000	-0,027	-0,141
-322,329	-146,278	-0,126	0,008
-321,314	-36,472	0,119	-0,046
-320,299	5,459	0,131	0,070
-319,285	214,485	-0,074	0,086
-318,270	217,050	0,031	0,036
-317,256	-200,000	0,015	-0,148
-316,241	800,000	-0,036	-0,076
-315,226	-58,740	0,066	-0,021
-314,212	-100,422	0,118	0,021
-313,197	-0,723	0,019	0,010
-312,183	-10,610	-0,059	0,028
-311,168	-16,901	-0,069	-0,031
-310,153	-200,000	0,020	0,121
-309,139	-100,357	-0,048	0,009
-308,124	-47,894	-0,103	0,036
-307,110	-84,368	0,114	-0,026
-306,095	-137,677	0,094	-0,008
-305,080	386,504	0,022	-0,033
-304,066	-176,645	-0,144	0,003
-303,051	-6,639	-0,192	-0,095
-302,037	-81,225	0,107	0,026
-301,022	-200,000	0,041	0,197
-300,008	12,413	-0,061	0,034
-298,993	100,014	0,084	0,071
-297,978	-151,187	0,080	-0,004
-296,964	800,000	-0,037	0,078
-295,949	279,412	-0,168	-0,219
-294,935	246,635	-0,019	-0,023
-293,920	800,000	0,043	-0,131
-292,905	-81,788	-0,064	-0,015
-291,891	160,763	-0,003	0,003
-290,876	156,654	0,108	0,108
-289,862	800,000	-0,032	-0,096
-288,847	88,108	0,127	-0,103
-287,832	-200,000	0,022	-0,082
-286,818	-200,000	-0,011	0,046
-285,803	263,080	0,062	0,079
-284,789	-200,000	-0,007	0,031
-283,774	-200,000	0,001	0,024
-282,759	-71,948	0,104	-0,028
-281,745	800,000	0,025	0,052
-280,730	-200,000	0,018	0,128
-279,716	84,865	0,145	0,116
-278,701	-200,000	0,019	-0,069
-277,686	368,923	0,013	0,020
-276,672	-38,295	0,126	-0,048
-275,657	264,279	0,064	-0,082
-274,643	800,000	0,040	-0,094
-273,628	-46,202	0,072	0,026
-272,613	53,745	-0,051	0,035
-271,599	-200,000	-0,005	0,082
-270,584	-200,000	0,017	0,107
-269,570	193,108	-0,062	-0,068
-268,555	-200,000	0,018	0,067
-267,540	238,501	-0,028	-0,034
-266,526	87,059	-0,079	0,063
-265,511	601,676	-0,056	0,101
-264,497	-86,535	-0,063	0,014
-263,482	-38,854	0,140	0,054
-262,467	331,471	-0,052	0,073
-261,453	202,822	-0,107	0,121
-260,438	-200,000	0,007	0,027
-259,424	142,289	0,083	-0,080
-258,409	-200,000	-0,001	-0,055
-257,395	-60,104	-0,079	-0,024
-256,380	747,827	0,024	-0,047
-255,365	-83,917	0,065	0,015
-254,351	-79,706	0,056	-0,014
-253,336	-138,937	-0,169	-0,013
-252,322	17,106	-0,110	-0,063
-251,307	448,397	-0,032	0,051
-250,292	-53,197	0,147	-0,049
-249,278	-200,000	-0,017	0,056
-248,263	74,467	0,054	-0,041
-247,249	800,000	0,048	0,122
-246,234	682,033	0,013	-0,025
-245,219	98,770	-0,133	-0,112
-244,205	-159,860	-0,097	-0,004
-243,190	140,494	-0,074	-0,071
-242,176	800,000	0,027	-0,087
-241,161	-200,000	0,034	0,120
-240,146	388,810	0,093	0,141
-239,132	346,226	-0,058	0,083
-238,117	-92,553	-0,113	-0,023
-237,103	-107,182	0,069	-0,011
-236,088	-4,947	-0,031	0,016
-235,073	-92,531	0,155	0,031
-234,059	790,384	0,034	0,069
-233,044	800,000	-0,037	-0,100
-232,030	-33,233	0,107	-0,043
-231,015	111,753	-0,039	0,034
-230,000	-20,840	0,030	-0,013
-228,986	639,254	-0,058	-0,107
-227,971	-69,711	-0,072	-0,020
-226,957	7,516	0,175	-0,095
-225,942	213,306	0,040	0,046
-224,927	57,450	0,046	0,033
-223,913	-200,000	0,007	0,051
-222,898	-200,000	0,005	0,022
-221,884	183,771	-0,085	0,091
-220,869	17,610	0,033	0,019
-219,855	3,838	0,102	0,054
-218,840	191,270	-0,045	0,049
-217,825	800,000	0,045	0,139
-216,811	-200,000	0,034	0,146
-215,796	800,000	0,027	-0,077
-214,782	28,055	0,136	0,083
-213,767	-167,398	-0,167	-0,005
-212,752	-73,767	0,178	0,047
-211,738	352,919	0,052	0,075
-210,723	-67,723	0,165	0,047
-209,709	301,321	0,073	0,098
-208,694	705,128	-0,039	0,075
-207,679	-200,000	0,026	-0,095
-206,665	-130,392	0,083	-0,008
-205,650	-31,686	0,126	0,051
-204,636	-200,000	-0,008	-0,037
-203,621	-200,000	-0,005	-0,031
-202,606	-113,011	-0,223	-0,032
-201,592	137,018	-0,041	0,039
-200,577	258,601	-0,055	-0,069
-199,563	-1,804	0,058	-0,030
-198,548	40,498	0,101	-0,066
-197,533	511,367	0,061	0,103
-196,519	177,920	0,048	-0,051
-195,504	17,774	0,033	0,019
-194,490	-200,000	-0,011	0,080
-193,475	800,000	0,056	-0,115
-192,460	139,888	-0,046	0,044
-191,446	367,702	0,019	0,028
-190,431	371,274	0,101	0,149
-189,417	699,849	-0,041	0,078
-188,402	242,902	0,064	0,078
-187,387	-200,000	0,012	-0,056
-186,373	143,061	0,103	-0,100
-185,358	-200,000	-0,002	0,087
-184,344	-151,541	0,087	-0,005
-183,329	128,060	0,065	0,060
-182,315	249,302	0,081	-0,100
-181,300	443,354	0,015	-0,023
-180,285	-200,000	0,001	0,059
-179,271	-2,738	-0,094	0,048
-178,256	16,243	-0,091	0,052
-177,242	-200,000	-0,033	-0,107
-176,227	-200,000	-0,008	-0,043
-175,212	179,960	-0,082	-0,088
-174,198	165,307	0,011	-0,011
-173,183	-82,226	0,011	-0,002
-172,169	-200,000	-0,049	-0,164
-171,154	37,231	0,064	-0,041
-170,139	23,935	0,068	0,040
-169,125	531,580	0,044	-0,076
-168,110	87,650	0,059	-0,047
-167,096	-200,000	0,016	0,075
-166,081	-44,089	-0,203	0,073
-165,066	509,178	0,026	-0,044
-164,052	-200,000	0,008	-0,065
-163,037	-106,212	-0,075	-0,012
-162,023	-200,000	-0,015	0,068
-161,008	179,199	0,132	0,140
-159,993	-200,000	-0,013	-0,051
-158,979	-84,206	0,038	-0,009
-157,964	86,364	-0,042	-0,033
-156,950	-200,000	-0,032	-0,110
-155,935	19,548	0,027	-0,016
-154,920	-33,803	0,141	-0,056
-153,906	800,000	0,061	-0,140
-152,891	-200,000	-0,002	0,148
-151,877	-48,654	-0,105	-0,036
-150,862	442,299	0,011	-0,018
-149,847	312,374	-0,103	0,140
-148,833	237,228	0,027	0,032
-147,818	1,119	0,032	0,016
-146,804	9,422	-0,040	0,022
-145,789	372,033	0,037	-0,054
-144,775	-64,364	-0,030	0,009
-143,760	71,763	-0,038	0,029
-142,745	-200,000	-0,033	-0,128
-141,731	-3,100	-0,029	0,014
-140,716	202,054	-0,043	0,048
-139,702	-104,172	0,044	0,007
-138,687	11,362	-0,110	0,061
-137,672	-89,793	-0,036	0,008
-136,658	-200,000	-0,023	0,074
-135,643	-159,460	-0,086	-0,003
-134,629	-33,342	0,080	0,032
-133,614	-132,057	0,090	-0,008
-132,599	-200,000	-0,006	0,057
-131,585	119,586	-0,048	-0,043
-130,570	142,872	-0,096	-0,093
-129,556	800,000	-0,038	-0,076
-128,541	-20,440	0,098	0,044
-127,526	371,230	0,056	0,083
-126,512	106,207	-0,051	0,044
-125,497	-4,790	0,087	0,043
-124,483	800,000	0,022	0,062
-123,468	790,068	0,066	-0,133
-122,453	-144,235	-0,170	0,011
-121,439	446,646	-0,044	0,071
-120,424	-1,854	0,080	-0,040
-119,410	417,181	-0,072	-0,112
-118,395	216,408	0,066	0,076
-117,380	19,329	0,058	-0,034
-116,366	42,046	-0,076	-0,050
-115,351	179,023	0,058	-0,061
-114,337	-200,000	-0,034	-0,120
-113,322	247,455	-0,064	0,079
-112,307	-200,000	0,017	0,059
-111,293	51,040	0,104	-0,071
-110,278	-146,747	-0,100	-0,006
-109,264	5,225	0,021	-0,011
-108,249	-200,000	-0,035	-0,133
-107,234	261,220	-0,103	-0,129
-106,220	800,000	-0,066	-0,154
-105,205	22,203	-0,065	-0,038
-104,191	81,498	0,068	0,053
-103,176	-48,181	0,073	0,025
-102,162	-131,241	-0,110	-0,010
-101,147	144,680	-0,090	-0,087
-100,132	-181,923	0,048	0,001
-99,118	-185,620	-0,078	-0,001
-98,103	800,000	-0,016	0,033
-97,089	-200,000	0,010	-0,057
-96,074	-200,000	0,004	-0,081
-95,059	-200,000	-0,009	0,076
-94,045	-32,097	-0,197	0,079
-93,030	800,000	0,037	-0,097
-92,016	152,093	-0,130	-0,128
-91,001	-49,516	-0,065	-0,022
-89,986	-35,025	0,099	0,039
-88,972	-92,670	0,107	0,021
-87,957	-159,392	-0,142	0,006
-86,943	-51,635	0,105	-0,035
-85,928	127,780	-0,101	-0,093
-84,913	83,137	0,130	-0,102
-83,899	395,579	-0,065	0,098
-82,884	-111,679	0,130	0,019
-81,870	20,228	-0,100	-0,058
-80,855	-200,000	-0,013	0,050
-79,840	-82,827	-0,117	-0,027
-78,826	169,882	0,008	-0,008
-77,811	-75,235	-0,152	-0,039
-76,797	728,411	-0,009	0,018
-75,782	22,293	-0,059	-0,035
-74,767	-62,076	0,220	-0,066
-73,753	-127,018	-0,110	-0,012
-72,738	41,233	0,039	-0,025
-71,724	-106,420	0,067	-0,011
-70,709	50,392	-0,194	-0,132
-69,694	-158,631	-0,141	-0,006
-68,680	1,037	-0,072	-0,037
-67,665	257,004	-0,023	0,029
-66,651	167,480	0,045	0,047
-65,636	-200,000	-0,009	-0,111
-64,622	-200,000	0,001	-0,073
-63,607	800,000	0,008	0,022
-62,592	-29,091	-0,025	0,010
-61,578	54,621	0,129	-0,090
-60,563	-140,282	0,066	0,005
-59,549	-64,030	-0,129	-0,038
-58,534	40,375	-2,248	-1,458
-57,519	699,057	-0,846	-1,613
-56,505	-200,000	-0,507	-4,466
-55,490	511,248	0,764	1,288
-54,476	800,000	5,433	11,919
-53,461	-200,000	21,177	343,018
-52,446	800,000	762,737	2367,007
-51,432	527,281	1665,292	2843,095
-50,417	71,806	1596,114	1195,975
-49,403	20,865	1176,661	686,126
-48,388	13,032	898,874	500,324
-47,373	24,495	864,223	514,440
-46,359	18,470	850,420	488,966
-45,344	10,088	846,260	462,520
-44,330	10,009	844,380	461,247
-43,315	9,901	843,260	460,306
-42,300	9,831	842,359	459,597
-41,286	9,831	841,342	459,022
-40,271	9,790	840,571	458,469
-39,257	9,835	839,519	458,005
-38,242	9,843	838,707	457,565
-37,227	9,931	837,724	457,262
-36,213	9,926	836,726	456,684
-35,198	9,907	835,868	456,145
-34,184	9,949	835,417	455,998
-33,169	9,936	834,168	455,262
-32,154	9,981	833,755	455,145
-31,140	9,971	832,464	454,397
-30,125	10,120	831,690	454,377
-29,111	9,991	831,342	453,805
-28,096	9,941	831,078	453,500
-27,082	9,982	830,267	453,157
-26,067	9,965	829,521	452,682
-25,052	9,931	828,623	452,079
-24,038	9,923	828,056	451,730
-23,023	9,910	827,267	451,243
-22,009	9,976	826,610	451,052
-20,994	9,926	826,006	450,564
-19,979	9,991	825,306	450,348
-18,965	9,944	824,705	449,870
-17,950	9,936	824,343	449,631
-16,936	9,912	823,768	449,233
-15,921	9,890	823,174	448,829
-14,906	9,860	822,317	448,262
-13,892	9,903	821,809	448,087
-12,877	9,849	821,310	447,648
-11,863	9,850	820,831	447,371
-10,848	9,747	820,462	446,865
-9,833	9,899	820,043	447,042
-8,819	9,940	819,019	446,581
-7,804	9,940	818,294	446,166
-6,790	9,870	817,964	445,776
-5,775	9,909	817,622	445,680
-4,760	9,861	817,240	445,319
-3,746	9,767	816,602	444,694
-2,731	9,654	816,079	444,077
-1,717	9,610	815,473	443,610
-0,702	9,682	814,855	443,456
0,313	9,671	812,676	442,908
1,327	13,083	797,596	443,891
2,342	21,447	653,289	382,001
3,356	15,118	362,022	203,938
4,371	-15,012	242,682	111,681
5,386	-18,263	228,618	102,637
6,400	-18,371	224,195	100,559
7,415	-17,542	222,525	100,437
8,429	-18,223	221,089	99,261
9,444	-18,213	220,452	98,973
10,459	-18,261	220,134	98,785
11,473	-18,346	219,452	98,406
12,488	-18,278	219,033	98,260
13,502	-18,395	218,650	97,992
14,517	-18,504	218,037	97,627
15,531	-18,539	217,703	97,442
16,546	-18,192	217,304	97,515
17,561	-18,248	216,917	97,290
18,575	-18,008	216,646	97,340
19,590	-18,263	216,361	97,013
20,604	-17,873	216,081	97,169
21,619	-18,316	215,777	96,694
22,634	-18,380	215,610	96,563
23,648	-18,262	215,308	96,506
24,663	-18,293	215,073	96,370
25,677	-18,502	215,071	96,206
26,692	-18,158	214,722	96,296
27,707	-18,084	214,412	96,203
28,721	-18,277	214,068	95,897
29,736	-18,253	213,772	95,774
30,750	-18,149	213,593	95,762
31,765	-18,083	213,462	95,743
32,780	-18,172	213,240	95,570
33,794	-18,179	212,908	95,407
34,809	-18,230	212,735	95,284
35,823	-18,201	212,381	95,137
36,838	-18,260	212,345	95,070
37,853	-18,180	212,145	95,030
38,867	-18,298	211,880	94,817
39,882	-17,892	211,653	95,003
40,896	-17,994	211,430	94,820
41,911	-17,989	211,261	94,739
42,926	-17,925	210,995	94,658
43,940	-18,228	210,816	94,350
44,955	-18,244	210,696	94,276
45,969	-17,950	210,550	94,415
46,984	-17,830	210,397	94,425
47,999	-17,970	210,139	94,200
49,013	-17,916	210,112	94,218
50,028	-17,742	209,853	94,219
51,042	-17,979	209,688	93,966
52,057	-17,850	209,337	93,893
53,071	-17,757	209,294	93,932
54,086	-17,821	208,983	93,738
55,101	-18,298	209,115	93,446
56,115	-18,016	208,710	93,459
57,130	-18,082	208,372	93,252
58,144	-18,411	208,190	92,928
59,159	-18,303	207,892	92,863
60,174	-18,654	207,678	92,509
61,188	-18,405	207,476	92,588
62,203	-18,242	207,380	92,653
63,217	-18,266	207,343	92,611
64,232	-18,321	206,957	92,391
65,247	-18,445	206,821	92,235
66,261	-18,296	206,606	92,236
67,276	-18,043	206,335	92,286
68,290	-18,116	206,395	92,252
69,305	-18,192	206,251	92,127
70,320	-18,109	206,058	92,090
71,334	-18,168	205,863	91,953
72,349	-18,245	205,469	91,715
73,363	-18,307	205,240	91,561
74,378	-18,347	205,070	91,449
75,393	-18,297	204,943	91,419
76,407	-18,014	204,727	91,513
77,422	-18,083	204,555	91,380
78,436	-18,346	204,374	91,107
79,451	-18,513	204,285	90,942
80,466	-18,082	204,078	91,143
81,480	-18,061	204,055	91,140
82,495	-18,056	203,674	90,964
83,509	-17,935	203,594	91,005
84,524	-17,868	203,671	91,078
85,539	-17,921	203,429	90,925
86,553	-17,837	203,296	90,916
87,568	-17,979	202,815	90,594
88,582	-18,137	202,670	90,412
89,597	-18,086	202,652	90,431
90,611	-17,937	202,384	90,406
91,626	-18,003	202,202	90,271
92,641	-18,245	202,229	90,108
93,655	-17,892	201,966	90,227
94,670	-17,756	201,708	90,197
95,684	-18,073	201,752	89,990
96,699	-17,960	201,394	89,900
97,714	-18,084	201,415	89,816
98,728	-17,821	201,128	89,861
99,743	-17,944	201,043	89,731
100,757	-17,846	200,872	89,714
101,772	-17,858	200,611	89,581
102,787	-17,840	200,424	89,501
103,801	-18,107	200,286	89,249
104,816	-18,092	200,224	89,224
105,830	-18,132	199,994	89,086
106,845	-18,126	199,850	89,018
107,860	-17,952	199,628	89,030
108,874	-17,728	199,389	89,068
109,889	-18,129	199,214	88,709
110,903	-18,175	198,986	88,568
111,918	-18,170	198,891	88,521
112,933	-18,034	199,024	88,665
113,947	-18,167	198,758	88,448
114,962	-17,945	198,415	88,438
115,976	-18,054	198,331	88,320
116,991	-18,087	198,168	88,216
118,006	-18,089	198,027	88,144
119,020	-18,155	197,957	88,061
120,035	-18,243	197,811	87,929
121,049	-18,077	197,671	87,970
122,064	-17,965	197,315	87,880
123,079	-18,231	197,307	87,689
124,093	-18,023	197,142	87,748
125,108	-17,873	196,912	87,739
126,122	-17,863	196,871	87,719
127,137	-17,974	196,775	87,594
128,151	-17,954	196,651	87,545
129,166	-17,883	196,336	87,444
130,181	-17,778	196,105	87,404
131,195	-18,077	196,022	87,159
132,210	-17,759	195,726	87,232
133,224	-18,025	195,606	86,993
134,239	-17,972	195,453	86,953
135,254	-17,949	195,365	86,921
136,268	-17,983	195,114	86,779
137,283	-18,150	195,169	86,685
138,297	-17,824	194,772	86,717
139,312	-18,285	194,712	86,376
140,327	-18,594	194,213	85,943
141,341	-19,135	194,051	85,506
142,356	-19,082	194,019	85,519
143,370	-17,992	194,285	86,350
144,385	-11,283	196,233	91,691
145,400	-4,373	197,976	97,143
146,414	-2,379	198,180	98,574
147,429	-2,502	198,176	98,480
148,443	-1,785	198,003	98,866
149,458	-2,011	197,898	98,654
150,473	-1,672	197,818	98,831
151,487	-1,788	197,733	98,703
152,502	-1,317	197,397	98,841
153,516	-1,623	197,423	98,641
154,531	-1,669	197,259	98,520
155,546	-1,371	196,972	98,566
156,560	-1,504	197,058	98,511
157,575	-1,365	196,867	98,500
158,589	-1,441	196,725	98,369
159,604	-1,465	196,558	98,261
160,619	-1,611	196,508	98,130
161,633	-1,285	196,241	98,204
162,648	-1,370	196,284	98,161
163,662	-1,328	196,127	98,101
164,677	-1,121	195,948	98,140
165,692	-0,926	195,758	98,165
166,706	-1,380	195,716	97,835
167,721	-0,986	195,444	97,951
168,735	-1,111	195,421	97,848
169,750	-0,981	195,293	97,860
170,764	-1,110	195,199	97,720
171,779	-0,918	194,943	97,709
172,794	-1,120	194,871	97,531
173,808	-0,822	194,594	97,580
174,823	-1,253	194,697	97,340
175,837	-1,038	194,445	97,346
176,852	-0,807	194,374	97,453
177,867	-1,072	194,341	97,255
178,881	-1,013	194,046	97,136
179,896	-1,023	193,977	97,087
180,910	-0,927	193,799	97,052
181,925	-1,193	193,679	96,809
182,940	-1,027	193,478	96,809
183,954	-1,148	193,285	96,625
184,969	-0,956	193,210	96,703
185,983	-0,926	193,125	96,672
186,998	-0,996	192,937	96,524
188,013	-1,086	192,833	96,405
189,027	-1,096	192,751	96,349
190,042	-1,168	192,668	96,252
191,056	-1,032	192,461	96,228
192,071	-0,947	192,330	96,209
193,086	-0,795	192,187	96,227
194,100	-0,991	192,011	96,004
195,115	-1,062	191,922	95,905
196,129	-0,955	191,608	95,809
197,144	-0,958	191,602	95,795
198,159	-0,716	191,500	95,891
199,173	-0,896	191,288	95,661
200,188	-0,731	191,304	95,767
201,202	-0,758	191,117	95,647
202,217	-0,839	190,982	95,519
203,232	-0,907	190,913	95,432
204,246	-0,585	190,688	95,518
205,261	-0,943	190,640	95,256
206,275	-0,675	190,345	95,271
207,290	-1,047	190,387	95,045
208,304	-0,719	190,167	95,137
209,319	-0,654	190,006	95,090
210,334	-0,958	189,701	94,734
211,348	-1,087	189,788	94,687
212,363	-0,630	189,548	94,850
213,377	-0,969	189,505	94,604
214,392	-0,669	189,413	94,741
215,407	-0,501	189,164	94,715
216,421	-0,374	189,032	94,722
217,436	-0,813	189,112	94,473
218,450	-0,706	188,786	94,370
219,465	-0,872	188,747	94,237
220,480	-0,664	188,516	94,245
221,494	-0,743	188,502	94,180
222,509	-0,598	188,375	94,199
223,523	-0,506	188,267	94,196
224,538	-0,470	188,175	94,164
225,553	-0,475	187,929	94,029
226,567	-0,705	187,923	93,873
227,582	-0,800	187,651	93,669
228,596	-0,772	187,626	93,665
229,611	-0,621	187,463	93,670
230,626	-0,543	187,338	93,649
231,640	-0,404	187,216	93,667
232,655	-0,446	186,986	93,517
233,669	-0,644	186,961	93,372
234,684	-0,609	186,795	93,302
235,699	-0,316	186,611	93,386
236,713	-0,510	186,596	93,248
237,728	-0,493	186,530	93,218
238,742	-0,537	186,372	93,104
239,757	-0,243	186,041	93,113
240,772	-0,646	186,115	92,890
241,786	-0,542	186,049	92,914
242,801	-0,142	185,901	93,081
243,815	-0,223	185,864	93,004
244,830	-0,223	185,533	92,830
245,844	-0,174	185,438	92,804
246,859	-0,307	185,392	92,691
247,874	-0,501	185,355	92,544
248,888	-0,337	185,072	92,496
249,903	-0,439	184,971	92,374
250,917	-0,354	184,751	92,308
251,932	-0,109	184,736	92,444
252,947	-0,457	184,697	92,201
253,961	-0,304	184,576	92,226
254,976	-0,154	184,343	92,195
255,990	-0,502	184,350	91,975
257,005	-0,246	184,185	92,042
258,020	-0,435	184,173	91,912
259,034	-0,202	183,917	91,919
260,049	-0,123	183,767	91,885
261,063	-0,414	183,616	91,622
262,078	-0,433	183,520	91,554
263,093	-0,372	183,456	91,552
264,107	-0,197	183,267	91,557
265,122	-0,230	183,196	91,493
266,136	-0,124	183,049	91,476
267,151	-0,205	183,072	91,430
268,166	-0,143	182,851	91,349
269,180	-0,174	182,705	91,249
270,195	-0,324	182,529	91,062
271,209	0,025	182,369	91,186
272,224	-0,337	182,480	91,013
273,239	-0,219	182,236	90,955
274,253	-0,119	182,043	90,911
275,268	-0,084	182,034	90,920
276,282	0,185	181,882	91,000
277,297	-0,303	181,688	90,598
278,312	-0,235	181,632	90,604
279,326	0,056	181,571	90,742
280,341	0,022	181,512	90,683
281,355	0,156	181,291	90,646
282,370	0,016	181,225	90,520
283,384	-0,163	181,123	90,353
284,399	0,125	180,916	90,415
285,414	-0,080	180,795	90,223
286,428	0,142	180,701	90,302
287,443	0,409	180,631	90,420
288,457	-0,025	180,491	90,081
289,472	0,185	180,361	90,134
290,487	0,248	180,215	90,091
291,501	0,027	180,088	89,886
292,516	-0,062	180,109	89,835
293,530	0,385	179,894	89,988
294,545	0,158	179,696	89,746
295,560	-0,030	179,604	89,579
296,574	0,036	179,470	89,544
297,589	0,156	179,348	89,547
298,603	0,146	179,154	89,435
299,618	0,216	179,151	89,468
300,633	0,085	179,046	89,330
301,647	0,135	178,925	89,291
302,662	0,108	178,993	89,301
303,676	0,016	178,670	89,077
304,691	0,092	178,569	89,064
305,706	0,241	178,463	89,091
306,720	0,058	178,383	88,935
307,735	0,210	178,216	88,934
308,749	0,075	178,175	88,826
309,764	0,203	177,959	88,786
310,779	0,021	178,004	88,692
311,793	0,310	177,752	88,730
312,808	-0,008	177,658	88,487
313,822	-0,112	177,709	88,443
314,837	0,183	177,473	88,492
315,852	-0,014	177,362	88,312
316,866	0,300	177,178	88,398
317,881	0,311	177,160	88,388
318,895	0,304	176,939	88,265
319,910	0,338	176,994	88,305
320,925	0,155	176,766	88,075
321,939	0,177	176,727	88,061
322,954	0,529	176,582	88,188
323,968	0,162	176,474	87,911
324,983	0,198	176,417	87,896
325,997	0,175	176,240	87,787
327,012	0,232	176,050	87,717
328,027	0,307	175,982	87,719
329,041	0,366	175,800	87,655
330,056	0,459	175,789	87,697
331,070	0,362	175,645	87,560
332,085	0,420	175,471	87,499
333,100	0,397	175,495	87,490
334,114	0,470	175,168	87,362
335,129	0,463	175,079	87,306
336,143	0,455	175,165	87,336
337,158	0,439	175,009	87,241
338,173	0,772	174,813	87,329
339,187	0,541	174,694	87,128
340,202	0,448	174,673	87,056
341,216	0,685	174,476	87,087
342,231	0,464	174,446	86,936
343,246	0,467	174,277	86,846
344,260	0,695	174,241	86,952
345,275	0,521	174,150	86,799
346,289	0,645	174,009	86,792
347,304	0,615	173,841	86,683
348,319	0,649	173,725	86,638
349,333	0,610	173,631	86,561
350,348	0,653	173,499	86,511
351,362	0,393	173,436	86,322
352,377	0,724	173,236	86,405
353,392	0,829	173,105	86,393
354,406	0,656	173,069	86,268
355,421	192,050	1324,281	1397,433
356,435	152,199	1464,841	1397,783
