DTS Sentinel unit serial number:	SN410029Multiplexer serial number:	ORYXHardware model number:	OX2-SRSoftware version number:	ORYX F/W v4,00 Oryx Data Collector v3.7.2.0data status	okinstallation	B3 Nyhavnadifferential loss correction	single-endedforward channel	channel 1reverse channel	N/Adate	2023/11/28time	13:52:30forward acquisition time	300,00reverse acquisition time	0,00gamma	499,1914k internal	0,3139k external	0,3139temperature offset calibration	1,0000default loss term (dB/km)	0,3820temperature slope calibration	1,0000multiplexer offset coefficient	1,0000multiplexer slope coefficient	1,0000fibre end	0,00T internal ref (°C)	7,67T ext. ref 1 (°C)	-7,61T ext. ref 2 (°C)	-7,78length (m)	temperature (°C)	Stokes	anti-Stokes-744,400	-200,000	0,010	-0,107
-743,385	-200,000	0,004	0,164
-742,371	800,000	-0,120	-0,343
-741,356	-200,000	0,004	0,403
-740,342	-200,000	-0,020	-0,101
-739,327	-200,000	-0,002	0,305
-738,312	109,190	-0,242	-0,215
-737,298	422,393	-0,141	0,225
-736,283	141,026	-0,174	-0,171
-735,269	-200,000	-0,071	0,349
-734,254	-113,927	-0,235	-0,033
-733,239	-60,060	-0,272	0,086
-732,225	800,000	-0,096	-0,253
-731,210	-183,251	-0,124	0,002
-730,196	22,984	-0,081	-0,049
-729,181	225,149	0,053	0,063
-728,167	-31,098	0,022	-0,009
-727,152	89,336	-0,093	-0,077
-726,137	-51,664	-0,034	0,012
-725,123	119,451	-0,185	-0,170
-724,108	-200,000	0,002	-0,084
-723,094	15,319	0,033	0,019
-722,079	-77,474	-0,075	-0,019
-721,064	-200,000	-0,020	-0,086
-720,050	-0,980	-0,052	0,027
-719,035	-200,000	0,015	0,066
-718,021	800,000	0,064	-0,139
-717,006	10,204	-0,092	0,052
-715,991	-112,416	0,049	-0,007
-714,977	458,763	-0,067	-0,111
-713,962	322,639	-0,058	-0,083
-712,948	383,985	-0,022	-0,034
-711,933	108,702	-0,029	-0,026
-710,918	-69,299	-0,066	-0,019
-709,904	-44,977	-0,077	0,028
-708,889	99,880	-0,067	-0,058
-707,875	-87,483	-0,168	-0,037
-706,860	-135,557	0,160	0,014
-705,845	800,000	0,062	-0,170
-704,831	-200,000	0,029	0,105
-703,816	171,456	0,044	0,046
-702,802	-51,660	-0,125	-0,043
-701,787	-200,000	0,012	-0,070
-700,772	272,401	-0,047	-0,061
-699,758	-200,000	-0,013	-0,116
-698,743	359,172	-0,009	-0,013
-697,729	-200,000	0,028	0,162
-696,714	-200,000	0,004	-0,130
-695,699	-32,942	-0,084	0,035
-694,685	30,986	-0,126	-0,080
-693,670	643,931	-0,008	-0,015
-692,656	-184,825	0,061	-0,001
-691,641	142,682	-0,014	0,013
-690,627	47,195	-0,061	0,042
-689,612	36,199	0,040	0,026
-688,597	491,050	0,016	0,027
-687,583	487,055	0,080	0,136
-686,568	-200,000	-0,002	-0,029
-685,554	52,071	-0,079	0,055
-684,539	-200,000	-0,011	-0,067
-683,524	735,284	0,052	-0,103
-682,510	97,165	-0,043	-0,037
-681,495	410,101	-0,024	0,038
-680,481	-200,000	0,002	-0,015
-679,466	-61,687	0,106	-0,033
-678,451	-200,000	0,006	-0,044
-677,437	-79,737	-0,102	0,025
-676,422	800,000	0,073	0,181
-675,408	-23,444	0,078	0,035
-674,393	-11,590	-0,058	0,028
-673,378	185,339	0,051	-0,056
-672,364	170,078	-0,063	-0,067
-671,349	580,174	-0,055	0,100
-670,335	9,880	-0,075	-0,042
-669,320	-134,703	0,095	0,008
-668,305	-23,029	0,052	0,023
-667,291	-65,041	-0,094	0,028
-666,276	-63,497	-0,100	-0,030
-665,262	22,334	-0,090	-0,055
-664,247	-111,674	-0,097	-0,014
-663,232	-200,000	-0,001	0,092
-662,218	-200,000	0,032	0,118
-661,203	800,000	-0,042	0,112
-660,189	11,946	-0,127	-0,072
-659,174	77,124	-0,038	-0,029
-658,159	123,465	-0,060	-0,055
-657,145	496,606	0,018	-0,031
-656,130	-200,000	0,027	0,139
-655,116	8,676	-0,179	0,099
-654,101	272,369	0,031	0,041
-653,086	-2,105	-0,090	0,046
-652,072	104,671	-0,127	-0,111
-651,057	-100,063	0,175	-0,032
-650,043	-200,000	-0,002	0,044
-649,028	-7,603	-0,045	-0,023
-648,014	-110,962	0,097	0,015
-646,999	22,657	0,052	0,031
-645,984	-200,000	0,012	0,148
-644,970	119,135	0,028	-0,025
-643,955	154,795	-0,051	-0,052
-642,941	516,947	-0,104	-0,181
-641,926	-200,000	-0,023	-0,086
-640,911	336,800	0,039	-0,056
-639,897	171,834	0,020	-0,021
-638,882	800,000	0,025	0,079
-637,868	800,000	0,012	-0,036
-636,853	-20,132	-0,088	0,040
-635,838	-200,000	0,002	-0,035
-634,824	210,318	-0,043	-0,050
-633,809	-200,000	-0,023	0,083
-632,795	-29,932	-0,080	-0,034
-631,780	800,000	-0,035	0,088
-630,765	232,629	0,087	-0,106
-629,751	189,437	-0,049	0,054
-628,736	423,727	-0,092	-0,147
-627,722	184,585	-0,099	-0,109
-626,707	36,714	-0,049	-0,032
-625,692	-200,000	-0,001	0,049
-624,678	40,713	0,071	0,047
-623,663	148,867	0,053	0,053
-622,649	-156,975	0,171	-0,008
-621,634	-48,021	-0,144	-0,051
-620,619	-200,000	-0,001	-0,117
-619,605	-200,000	0,003	-0,087
-618,590	-200,000	0,013	0,104
-617,576	27,650	0,131	0,081
-616,561	-200,000	0,015	0,127
-615,546	-13,311	0,135	-0,065
-614,532	-17,688	0,165	0,076
-613,517	229,976	-0,103	-0,124
-612,503	-42,036	-0,165	0,062
-611,488	-62,175	0,093	0,029
-610,474	-55,691	0,071	0,023
-609,459	-200,000	0,005	-0,065
-608,444	-116,846	-0,288	-0,038
-607,430	-200,000	0,047	-0,223
-606,415	-50,769	-0,073	0,025
-605,401	3,666	-0,015	0,008
-604,386	-102,565	0,142	0,025
-603,371	491,378	-0,057	-0,096
-602,357	91,727	-0,035	0,029
-601,342	188,926	-0,078	0,087
-600,328	-200,000	0,019	-0,110
-599,313	297,252	-0,107	0,145
-598,298	758,447	0,030	-0,059
-597,284	-200,000	0,028	0,095
-596,269	-106,200	0,058	-0,010
-595,255	67,601	0,052	0,039
-594,240	-200,000	0,012	-0,092
-593,225	69,707	0,034	0,026
-592,211	690,432	0,047	0,090
-591,196	-109,775	-0,135	-0,021
-590,182	-200,000	-0,011	-0,050
-589,167	-107,410	-0,050	-0,008
-588,152	113,621	0,063	-0,056
-587,138	800,000	0,024	-0,071
-586,123	65,937	0,030	0,022
-585,109	101,285	0,095	-0,081
-584,094	5,040	0,115	-0,062
-583,079	210,195	0,100	0,116
-582,065	-200,000	0,042	0,184
-581,050	-18,216	0,150	-0,069
-580,036	-102,194	-0,036	0,006
-579,021	183,091	-0,101	0,110
-578,006	800,000	-0,013	-0,032
-576,992	-46,928	0,111	-0,040
-575,977	22,301	0,085	-0,051
-574,963	147,625	-0,055	-0,054
-573,948	288,119	-0,042	0,056
-572,934	-12,899	-0,158	0,075
-571,919	-200,000	-0,049	-0,164
-570,904	279,659	-0,053	-0,070
-569,890	-200,000	0,026	-0,085
-568,875	315,560	0,070	0,097
-567,861	-200,000	0,004	0,258
-566,846	750,468	-0,009	-0,017
-565,831	-48,828	-0,147	0,052
-564,817	800,000	0,019	-0,056
-563,802	525,594	-0,092	0,161
-562,788	90,912	0,085	-0,070
-561,773	-200,000	0,002	0,071
-560,758	-150,367	0,059	0,003
-559,744	99,856	0,040	0,034
-558,729	150,460	0,064	0,064
-557,715	-59,946	0,061	-0,019
-556,700	800,000	-0,060	-0,193
-555,685	-34,481	0,167	-0,067
-554,671	800,000	-0,031	0,094
-553,656	157,672	0,043	-0,043
-552,642	-200,000	-0,008	-0,057
-551,627	-75,269	-0,082	0,021
-550,612	6,438	-0,077	0,042
-549,598	731,271	-0,066	0,131
-548,583	191,374	0,033	-0,036
-547,569	800,000	0,032	-0,094
-546,554	104,197	0,045	-0,039
-545,539	69,891	0,151	0,114
-544,525	800,000	0,008	0,024
-543,510	-50,385	-0,121	-0,042
-542,496	-39,825	-0,077	0,029
-541,481	134,984	-0,064	0,061
-540,466	-126,525	0,112	0,012
-539,452	-157,793	0,083	0,004
-538,437	-37,111	0,064	-0,025
-537,423	11,585	0,023	0,013
-536,408	-200,000	0,002	-0,145
-535,393	-42,448	-0,037	-0,014
-534,379	-200,000	0,003	-0,067
-533,364	-200,000	0,012	-0,042
-532,350	35,407	-0,119	-0,076
-531,335	-200,000	0,011	-0,064
-530,321	-200,000	0,014	0,086
-529,306	202,454	-0,070	0,080
-528,291	-136,754	-0,073	-0,006
-527,277	-200,000	0,001	-0,139
-526,262	416,423	0,051	-0,081
-525,248	-200,000	-0,038	-0,165
-524,233	-200,000	0,016	0,203
-523,218	505,784	0,029	-0,050
-522,204	-73,669	-0,222	-0,059
-521,189	-200,000	-0,043	-0,223
-520,175	352,253	-0,040	-0,058
-519,160	-200,000	0,004	-0,050
-518,145	624,197	0,022	-0,040
-517,131	800,000	0,048	0,117
-516,116	59,197	0,141	0,102
-515,102	-200,000	0,020	-0,093
-514,087	-0,408	-0,129	-0,067
-513,072	563,819	0,025	0,044
-512,058	19,531	-0,093	-0,055
-511,043	-141,330	0,122	0,009
-510,029	80,909	-0,023	-0,018
-509,014	4,622	0,083	-0,044
-507,999	-174,348	-0,169	-0,004
-506,985	25,764	-0,065	-0,040
-505,970	51,833	-0,109	0,076
-504,956	-200,000	0,027	-0,172
-503,941	15,121	-0,079	0,045
-502,926	-44,357	0,051	0,019
-501,912	-200,000	-0,031	0,111
-500,897	103,680	-0,049	-0,043
-499,883	-200,000	-0,023	-0,082
-498,868	800,000	-0,040	-0,084
-497,853	-200,000	0,005	-0,054
-496,839	-200,000	0,020	-0,114
-495,824	368,671	-0,030	0,045
-494,810	147,258	0,122	0,120
-493,795	-80,865	0,044	-0,011
-492,781	-8,101	-0,096	0,047
-491,766	800,000	-0,049	-0,105
-490,751	270,720	-0,048	0,062
-489,737	-3,377	0,095	0,048
-488,722	-75,236	0,066	-0,017
-487,708	224,710	0,073	0,087
-486,693	-61,313	-0,033	0,010
-485,678	800,000	-0,029	-0,060
-484,664	-200,000	-0,034	-0,159
-483,649	322,891	-0,061	-0,086
-482,635	115,808	-0,045	0,040
-481,620	256,643	0,045	-0,057
-480,605	101,564	-0,025	-0,022
-479,591	264,218	-0,059	0,075
-478,576	-112,761	0,109	-0,016
-477,562	18,906	0,074	0,043
-476,547	-55,814	0,126	-0,041
-475,532	-200,000	0,006	0,069
-474,518	63,045	-0,057	-0,042
-473,503	-200,000	-0,005	0,140
-472,489	-111,509	0,106	0,016
-471,474	33,021	0,106	0,067
-470,459	-155,205	-0,062	0,003
-469,445	732,316	-0,101	-0,200
-468,430	-16,971	-0,120	-0,056
-467,416	157,882	-0,060	0,061
-466,401	-200,000	-0,004	-0,085
-465,386	-61,134	0,114	0,035
-464,372	800,000	0,048	-0,124
-463,357	-97,956	0,096	0,018
-462,343	-152,668	-0,096	0,005
-461,328	-78,914	0,028	-0,007
-460,313	70,076	0,081	-0,061
-459,299	-200,000	0,016	0,059
-458,284	-200,000	-0,011	-0,043
-457,270	258,959	-0,082	-0,104
-456,255	-133,735	-0,083	-0,007
-455,241	-200,000	-0,013	0,074
-454,226	-200,000	-0,027	-0,099
-453,211	800,000	0,020	-0,050
-452,197	-24,241	0,114	0,050
-451,182	-50,878	0,152	0,052
-450,168	-123,742	-0,017	-0,002
-449,153	-200,000	0,002	0,090
-448,138	187,230	-0,063	0,069
-447,124	-200,000	0,031	0,169
-446,109	800,000	0,020	-0,061
-445,095	800,000	0,050	-0,123
-444,080	-31,235	0,106	0,044
-443,065	-44,786	0,118	-0,043
-442,051	800,000	0,011	-0,030
-441,036	64,908	-0,121	-0,090
-440,022	155,734	-0,104	-0,105
-439,007	800,000	-0,040	-0,099
-437,992	-65,278	0,225	-0,066
-436,978	137,568	0,034	-0,033
-435,963	-200,000	-0,010	-0,075
-434,949	71,037	-0,097	-0,074
-433,934	-200,000	0,037	-0,172
-432,919	-64,983	0,078	-0,023
-431,905	596,151	0,029	-0,052
-430,890	124,772	-0,058	0,053
-429,876	27,209	0,056	-0,035
-428,861	-162,780	0,134	-0,005
-427,846	800,000	0,036	-0,077
-426,832	-200,000	0,002	0,074
-425,817	629,951	0,010	0,018
-424,803	58,387	0,089	0,064
-423,788	261,483	-0,055	-0,070
-422,773	-200,000	-0,000	0,010
-421,759	95,848	0,088	0,074
-420,744	-33,723	0,014	0,006
-419,730	-28,382	-0,021	0,009
-418,715	-180,590	0,165	-0,002
-417,701	269,893	-0,058	-0,075
-416,686	800,000	-0,050	0,151
-415,671	800,000	0,018	0,044
-414,657	-59,655	0,092	-0,029
-413,642	132,057	-0,059	-0,055
-412,628	146,696	-0,016	0,016
-411,613	-200,000	0,009	-0,117
-410,598	98,979	0,088	-0,075
-409,584	800,000	0,060	0,156
-408,569	-200,000	0,000	0,161
-407,555	-119,172	0,194	0,024
-406,540	-200,000	-0,030	-0,103
-405,525	417,415	-0,079	-0,124
-404,511	-200,000	0,003	-0,041
-403,496	800,000	0,087	-0,179
-402,482	-44,842	0,156	-0,057
-401,467	191,147	0,049	0,054
-400,452	-200,000	-0,007	0,090
-399,438	800,000	0,052	0,107
-398,423	800,000	-0,041	0,108
-397,409	800,000	-0,038	-0,108
-396,394	161,037	0,150	-0,154
-395,379	-86,518	0,107	0,024
-394,365	585,657	-0,016	0,029
-393,350	-85,811	-0,126	0,028
-392,336	-130,316	0,073	-0,007
-391,321	-31,911	-0,103	0,042
-390,306	69,700	-0,125	-0,094
-389,292	221,840	0,024	-0,028
-388,277	-200,000	-0,008	-0,136
-387,263	76,343	0,058	-0,045
-386,248	800,000	0,007	0,021
-385,233	177,819	0,080	0,085
-384,219	162,630	-0,098	0,101
-383,204	403,454	-0,033	0,051
-382,190	-102,876	-0,106	0,018
-381,175	-200,000	-0,001	0,012
-380,160	492,985	0,029	0,048
-379,146	-200,000	0,012	0,159
-378,131	41,458	-0,130	0,086
-377,117	57,936	-0,117	0,084
-376,102	-200,000	0,001	-0,072
-375,088	-89,011	-0,075	0,016
-374,073	800,000	-0,014	0,038
-373,058	-200,000	0,010	0,157
-372,044	800,000	-0,022	-0,067
-371,029	-200,000	-0,020	0,135
-370,015	213,752	-0,030	0,035
-369,000	800,000	0,026	-0,054
-367,985	-145,904	-0,116	-0,007
-366,971	-200,000	-0,027	-0,092
-365,956	86,355	-0,110	-0,089
-364,942	220,035	-0,138	0,161
-363,927	-200,000	-0,015	0,102
-362,912	-41,351	-0,054	-0,020
-361,898	80,588	-0,050	0,040
-360,883	-41,907	-0,102	0,038
-359,869	-17,847	0,087	0,040
-358,854	49,479	0,024	-0,016
-357,839	692,787	0,093	0,180
-356,825	-14,564	0,098	0,046
-355,810	-200,000	0,016	-0,111
-354,796	-103,183	-0,155	-0,027
-353,781	-47,780	-0,086	-0,030
-352,766	-33,484	-0,117	-0,047
-351,752	800,000	0,037	0,082
-350,737	739,448	0,065	0,128
-349,723	242,493	-0,074	-0,091
-348,708	-101,985	-0,090	0,016
-347,693	-116,078	-0,142	0,019
-346,679	226,114	0,035	-0,041
-345,664	-160,450	-0,094	0,004
-344,650	-174,512	0,111	-0,002
-343,635	-200,000	-0,014	-0,066
-342,620	-200,000	0,017	0,130
-341,606	800,000	0,003	-0,009
-340,591	-165,807	-0,115	0,004
-339,577	-115,677	-0,274	-0,037
-338,562	44,344	-0,021	-0,014
-337,548	-46,611	0,058	0,021
-336,533	-200,000	-0,014	0,093
-335,518	-144,067	0,063	0,004
-334,504	-200,000	-0,032	0,196
-333,489	50,373	0,013	0,009
-332,475	220,779	-0,129	-0,151
-331,460	-200,000	-0,023	-0,080
-330,445	-200,000	0,026	0,125
-329,431	-92,159	-0,038	-0,008
-328,416	229,053	0,077	0,092
-327,402	-200,000	0,009	0,182
-326,387	-197,907	-0,155	-0,001
-325,372	-132,675	-0,147	-0,014
-324,358	70,545	0,085	-0,064
-323,343	76,168	-0,064	-0,049
-322,329	680,837	-0,028	0,054
-321,314	-94,984	0,090	-0,018
-320,299	14,783	0,068	0,039
-319,285	27,219	0,094	-0,057
-318,270	-120,711	-0,154	-0,019
-317,256	-200,000	0,010	0,106
-316,241	484,891	0,035	0,059
-315,226	-135,674	0,063	-0,005
-314,212	99,441	-0,110	0,093
-313,197	800,000	-0,013	0,028
-312,183	-200,000	0,003	-0,015
-311,168	154,853	-0,058	-0,058
-310,153	-120,016	-0,149	-0,018
-309,139	-17,211	-0,189	0,087
-308,124	-108,955	0,074	-0,011
-307,110	341,239	0,068	0,097
-306,095	162,712	0,090	-0,092
-305,080	800,000	0,037	-0,096
-304,066	427,955	-0,083	0,131
-303,051	648,527	-0,098	-0,183
-302,037	53,096	0,075	-0,052
-301,022	-8,548	0,099	0,048
-300,008	-174,018	0,149	0,003
-298,993	-200,000	-0,008	-0,030
-297,978	-119,143	-0,113	0,014
-296,964	800,000	-0,041	-0,084
-295,949	-67,497	-0,020	-0,006
-294,935	800,000	-0,045	-0,117
-293,920	800,000	0,040	0,113
-292,905	-32,583	-0,140	-0,057
-291,891	440,590	0,019	-0,030
-290,876	-10,504	0,071	0,034
-289,862	-200,000	0,004	0,076
-288,847	117,710	0,033	0,030
-287,832	127,570	-0,077	0,071
-286,818	-200,000	0,003	0,076
-285,803	-93,796	0,071	0,014
-284,789	-200,000	0,003	0,019
-283,774	-200,000	-0,008	0,042
-282,759	22,312	-0,070	-0,041
-281,745	205,001	-0,042	-0,047
-280,730	797,820	0,043	-0,088
-279,716	534,162	-0,076	-0,132
-278,701	452,640	0,080	-0,129
-277,686	94,243	0,114	0,094
-276,672	212,564	0,103	0,118
-275,657	-200,000	0,018	0,089
-274,643	-79,865	-0,111	-0,027
-273,628	-200,000	0,032	-0,142
-272,613	-144,926	0,085	0,006
-271,599	-200,000	-0,010	-0,093
-270,584	800,000	-0,020	0,044
-269,570	-116,516	0,082	0,011
-268,555	198,883	0,075	0,083
-267,540	53,080	-0,186	-0,130
-266,526	-69,645	0,108	-0,030
-265,511	800,000	-0,023	0,072
-264,497	162,977	0,053	0,054
-263,482	-200,000	-0,011	0,086
-262,467	-200,000	0,004	0,126
-261,453	245,710	-0,016	-0,020
-260,438	247,896	-0,024	0,030
-259,424	61,890	-0,054	0,039
-258,409	-200,000	0,013	-0,183
-257,395	195,775	-0,062	0,069
-256,380	-200,000	0,004	0,069
-255,365	-200,000	0,002	-0,025
-254,351	-200,000	-0,061	0,204
-253,336	38,337	-0,044	0,028
-252,322	800,000	-0,022	-0,064
-251,307	192,507	0,059	-0,064
-250,292	384,053	-0,045	0,068
-249,278	-200,000	-0,029	-0,110
-248,263	-169,290	-0,080	-0,002
-247,249	27,716	-0,067	0,041
-246,234	170,358	-0,012	-0,012
-245,219	-200,000	0,008	-0,068
-244,205	-8,979	-0,102	0,050
-243,190	-78,626	-0,111	-0,027
-242,176	383,471	0,060	0,091
-241,161	280,232	0,068	-0,089
-240,146	-200,000	0,002	-0,094
-239,132	110,547	0,112	-0,098
-238,117	-200,000	-0,014	0,086
-237,103	453,214	0,026	0,042
-236,088	-200,000	0,005	0,123
-235,073	-39,364	0,099	0,037
-234,059	320,642	-0,022	-0,031
-233,044	-200,000	0,022	0,235
-232,030	-200,000	-0,036	-0,139
-231,015	-46,054	-0,084	0,030
-230,000	796,845	0,035	0,070
-228,986	169,308	-0,075	0,078
-227,971	-96,347	-0,162	0,031
-226,957	-200,000	-0,008	0,118
-225,942	228,015	0,017	0,020
-224,927	5,846	-0,023	-0,012
-223,913	-200,000	0,018	-0,063
-222,898	-59,395	-0,111	0,034
-221,884	561,699	0,063	-0,111
-220,869	-47,192	0,054	-0,019
-219,855	800,000	-0,043	-0,089
-218,840	800,000	-0,061	-0,125
-217,825	750,124	0,060	0,118
-216,811	255,318	0,031	-0,039
-215,796	463,888	0,024	-0,038
-214,782	800,000	0,006	-0,014
-213,767	-158,836	0,229	0,009
-212,752	-56,433	-0,090	0,029
-211,738	-72,990	0,228	0,061
-210,723	-117,234	0,058	-0,008
-209,709	800,000	0,034	0,080
-208,694	800,000	-0,043	-0,097
-207,679	-22,635	0,133	0,058
-206,665	528,928	-0,095	0,163
-205,650	-143,399	-0,100	-0,007
-204,636	-200,000	0,044	0,168
-203,621	-191,861	0,164	0,001
-202,606	433,456	0,034	-0,053
-201,592	-92,662	-0,132	0,027
-200,577	201,900	-0,046	-0,051
-199,563	278,891	0,071	-0,092
-198,548	-200,000	0,002	0,018
-197,533	111,774	-0,057	-0,050
-196,519	-200,000	-0,010	0,074
-195,504	-79,103	0,103	-0,025
-194,490	-108,400	-0,097	0,015
-193,475	-156,056	-0,047	-0,002
-192,460	-200,000	-0,032	0,123
-191,446	800,000	0,073	0,148
-190,431	147,311	0,121	-0,118
-189,417	55,985	0,063	-0,044
-188,402	47,337	0,070	-0,047
-187,387	3,732	0,121	-0,064
-186,373	46,682	0,115	0,077
-185,358	-93,151	-0,108	-0,022
-184,344	1,926	0,050	-0,026
-183,329	-200,000	0,038	0,147
-182,315	-3,809	-0,129	0,065
-181,300	800,000	-0,018	-0,053
-180,285	-51,893	-0,135	-0,045
-179,271	-200,000	0,020	-0,109
-178,256	-62,556	0,083	-0,025
-177,242	390,770	0,109	-0,164
-176,227	-200,000	-0,002	0,070
-175,212	246,661	-0,013	-0,016
-174,198	-200,000	-0,003	0,071
-173,183	-151,071	0,017	-0,001
-172,169	375,501	-0,064	-0,094
-171,154	237,301	0,028	-0,033
-170,139	-141,661	-0,028	0,002
-169,125	800,000	0,031	0,080
-168,110	-109,684	0,059	-0,009
-167,096	-120,071	-0,072	0,009
-166,081	800,000	-0,036	0,100
-165,066	-47,534	0,064	-0,023
-164,052	-85,208	0,184	-0,041
-163,037	-70,533	0,073	0,020
-162,023	176,348	0,089	0,094
-161,008	109,968	0,039	0,034
-159,993	-200,000	-0,019	0,128
-158,979	136,903	-0,023	0,022
-157,964	-51,079	0,101	-0,034
-156,950	76,551	-0,072	0,055
-155,935	800,000	0,037	0,096
-154,920	-200,000	-0,002	0,089
-153,906	-116,193	0,084	0,011
-152,891	-34,864	-0,128	-0,050
-151,877	130,052	-0,057	-0,052
-150,862	800,000	0,039	-0,123
-149,847	-200,000	-0,013	-0,069
-148,833	69,973	0,126	-0,094
-147,818	-89,804	0,141	0,030
-146,804	800,000	0,052	-0,140
-145,789	-200,000	0,028	0,135
-144,775	243,112	-0,062	-0,076
-143,760	540,656	-0,062	-0,108
-142,745	-91,574	0,071	-0,015
-141,731	-44,015	0,072	0,026
-140,716	-200,000	-0,003	0,045
-139,702	-48,423	-0,055	0,019
-138,687	-200,000	0,011	-0,132
-137,672	248,222	0,073	0,090
-136,658	-200,000	-0,003	0,034
-135,643	-200,000	0,031	-0,114
-134,629	66,347	-0,125	0,092
-133,614	108,679	0,060	0,052
-132,599	373,323	-0,092	0,135
-131,585	456,706	0,072	0,116
-130,570	-21,147	-0,109	0,048
-129,556	-37,315	-0,123	0,047
-128,541	120,226	-0,030	0,027
-127,526	207,463	0,076	0,086
-126,512	800,000	0,055	0,117
-125,497	56,739	-0,096	0,067
-124,483	800,000	0,005	0,013
-123,468	-0,238	0,132	-0,067
-122,453	-92,626	-0,045	-0,009
-121,439	114,250	0,028	0,025
-120,424	794,038	-0,044	0,088
-119,410	-200,000	-0,007	0,093
-118,395	-125,643	0,041	0,004
-117,380	-200,000	-0,001	0,078
-116,366	216,499	0,038	0,043
-115,351	-200,000	-0,003	-0,014
-114,337	104,941	0,029	0,025
-113,322	549,415	-0,096	-0,166
-112,307	538,112	0,085	-0,147
-111,293	-159,376	-0,081	0,003
-110,278	298,802	-0,079	-0,106
-109,264	-29,500	0,065	0,027
-108,249	-89,849	-0,123	-0,026
-107,234	143,877	-0,070	-0,068
-106,220	161,183	0,119	-0,121
-105,205	136,303	0,040	-0,038
-104,191	104,338	-0,097	-0,083
-103,176	-25,584	-0,121	0,052
-102,162	-18,604	-0,139	0,063
-101,147	-55,720	-0,141	0,045
-100,132	386,780	-0,025	0,037
-99,118	-200,000	-0,008	-0,053
-98,103	-123,851	-0,128	-0,014
-97,089	113,875	-0,019	0,017
-96,074	-200,000	0,015	-0,052
-95,059	-200,000	0,012	-0,070
-94,045	-14,099	-0,018	-0,008
-93,030	-160,083	-0,017	-0,001
-92,016	800,000	-0,044	-0,136
-91,001	82,142	0,159	0,124
-89,986	-88,298	0,150	0,032
-88,972	-110,676	-0,126	0,019
-87,957	-132,533	0,006	0,001
-86,943	-15,696	-0,090	0,041
-85,928	-13,699	0,065	-0,031
-84,913	-16,854	0,082	-0,037
-83,899	39,411	0,044	0,028
-82,884	5,428	0,103	0,055
-81,870	-7,982	0,106	-0,052
-80,855	-57,965	0,118	0,037
-79,840	422,940	-0,027	0,042
-78,826	-200,000	-0,020	-0,081
-77,811	-9,349	0,077	0,037
-76,797	-113,192	-0,116	0,016
-75,782	574,564	0,051	-0,091
-74,767	-200,000	0,003	-0,098
-73,753	-120,904	-0,153	0,018
-72,738	-105,851	0,074	0,012
-71,724	-4,804	-0,166	-0,082
-70,709	24,514	-0,007	-0,004
-69,694	-4,556	-0,076	0,038
-68,680	-78,535	0,078	0,019
-67,665	-200,000	0,019	0,107
-66,651	773,088	-0,025	-0,049
-65,636	203,740	-0,047	0,052
-64,622	677,404	0,024	-0,045
-63,607	-78,560	0,102	-0,025
-62,592	277,745	0,042	0,054
-61,578	88,175	0,069	0,055
-60,563	-113,787	0,144	-0,020
-59,549	122,711	-0,085	0,077
-58,534	52,919	-2,291	-1,580
-57,519	546,858	-1,100	-1,908
-56,505	-200,000	-0,268	-4,331
-55,490	800,000	0,744	1,670
-54,476	800,000	5,206	11,324
-53,461	-200,000	22,834	349,340
-52,446	800,000	756,373	2287,219
-51,432	500,488	1637,384	2737,494
-50,417	65,789	1568,539	1146,247
-49,403	18,201	1161,182	667,101
-48,388	10,813	894,472	491,452
-47,373	26,404	863,596	519,930
-46,359	16,603	849,154	483,195
-45,344	7,812	845,249	455,713
-44,330	7,608	843,618	454,231
-43,315	7,599	841,872	453,245
-42,300	7,609	840,852	452,707
-41,286	7,582	839,956	452,129
-40,271	7,598	838,784	451,526
-39,257	7,615	837,858	451,058
-38,242	7,724	836,881	450,826
-37,227	7,703	836,015	450,281
-36,213	7,632	835,549	449,810
-35,198	7,630	834,546	449,248
-34,184	7,703	833,961	449,121
-33,169	7,602	832,988	448,293
-32,154	7,734	832,247	448,251
-31,140	7,730	830,944	447,521
-30,125	7,762	830,279	447,235
-29,111	7,629	829,900	446,638
-28,096	7,609	829,555	446,378
-27,082	7,690	828,749	446,155
-26,067	7,711	827,650	445,606
-25,052	7,601	827,014	444,936
-24,038	7,645	826,430	444,727
-23,023	7,667	825,688	444,370
-22,009	7,745	825,356	444,395
-20,994	7,732	824,554	443,909
-19,979	7,812	823,876	443,750
-18,965	7,756	823,183	443,204
-17,950	7,742	822,800	442,939
-16,936	7,657	822,174	442,346
-15,921	7,714	821,651	442,206
-14,906	7,572	820,962	441,422
-13,892	7,658	820,246	441,260
-12,877	7,541	819,965	440,765
-11,863	7,563	819,460	440,536
-10,848	7,611	818,728	440,261
-9,833	7,700	818,423	440,326
-8,819	7,730	817,396	439,839
-7,804	7,658	816,962	439,388
-6,790	7,750	816,413	439,330
-5,775	7,658	816,267	438,980
-4,760	7,632	815,576	438,517
-3,746	7,536	815,254	438,062
-2,731	7,413	814,594	437,350
-1,717	7,367	814,075	436,925
-0,702	7,475	813,359	436,821
0,313	7,482	810,535	435,982
1,327	10,952	794,574	436,746
2,342	19,134	646,563	373,275
3,356	13,044	355,949	198,144
4,371	-15,904	240,104	109,828
5,386	-18,772	226,174	101,208
6,400	-19,087	221,878	99,036
7,415	-17,983	219,979	99,018
8,429	-19,061	218,617	97,582
9,444	-19,284	217,932	97,100
10,459	-19,017	217,287	97,004
11,473	-19,089	216,871	96,756
12,488	-18,733	216,376	96,793
13,502	-19,262	216,016	96,229
14,517	-19,235	215,632	96,069
15,531	-19,218	214,968	95,777
16,546	-19,186	214,796	95,716
17,561	-19,300	214,514	95,497
18,575	-19,149	214,241	95,478
19,590	-19,248	213,858	95,226
20,604	-18,936	213,717	95,385
21,619	-19,115	213,188	95,009
22,634	-18,965	213,003	95,028
23,648	-19,092	212,730	94,805
24,663	-19,315	212,635	94,590
25,677	-18,925	212,221	94,683
26,692	-19,232	212,095	94,394
27,707	-19,117	211,793	94,335
28,721	-19,130	211,745	94,296
29,736	-19,359	211,388	93,962
30,750	-19,263	211,015	93,857
31,765	-19,315	210,908	93,763
32,780	-19,072	210,715	93,846
33,794	-18,922	210,489	93,845
34,809	-19,128	210,373	93,636
35,823	-19,052	210,194	93,603
36,838	-19,242	209,839	93,300
37,853	-19,014	209,589	93,345
38,867	-19,083	209,338	93,175
39,882	-19,126	209,310	93,123
40,896	-19,174	209,068	92,973
41,911	-19,059	208,900	92,973
42,926	-19,244	208,609	92,701
43,940	-19,260	208,460	92,615
44,955	-19,218	208,231	92,536
45,969	-19,074	208,138	92,589
46,984	-19,098	207,914	92,464
47,999	-19,178	207,831	92,362
49,013	-19,059	207,592	92,332
50,028	-19,204	207,538	92,197
51,042	-19,012	207,094	92,128
52,057	-18,946	206,990	92,120
53,071	-18,874	206,832	92,093
54,086	-19,079	206,486	91,785
55,101	-18,942	206,335	91,807
56,115	-18,846	206,172	91,795
57,130	-19,262	205,993	91,412
58,144	-19,094	205,662	91,376
59,159	-19,101	205,503	91,292
60,174	-19,194	205,453	91,196
61,188	-19,139	205,288	91,154
62,203	-19,052	205,052	91,102
63,217	-18,913	204,809	91,083
64,232	-19,194	204,636	90,801
65,247	-19,196	204,460	90,714
66,261	-19,243	204,318	90,609
67,276	-19,036	203,975	90,594
68,290	-19,092	204,077	90,592
69,305	-18,880	203,867	90,639
70,320	-18,830	203,458	90,484
71,334	-18,792	203,308	90,436
72,349	-18,935	203,060	90,218
73,363	-19,056	203,016	90,106
74,378	-19,108	202,728	89,934
75,393	-19,059	202,608	89,907
76,407	-19,099	202,413	89,784
77,422	-18,983	202,327	89,819
78,436	-18,958	202,074	89,716
79,451	-18,832	201,732	89,643
80,466	-19,127	201,698	89,416
81,480	-18,915	201,487	89,461
82,495	-19,073	201,436	89,321
83,509	-18,990	201,281	89,302
84,524	-19,244	201,113	89,044
85,539	-18,961	200,960	89,164
86,553	-19,001	200,851	89,079
87,568	-19,018	200,547	88,925
88,582	-19,208	200,390	88,717
89,597	-19,072	200,273	88,751
90,611	-18,825	200,008	88,794
91,626	-19,047	200,113	88,681
92,641	-19,083	199,740	88,483
93,655	-18,873	199,561	88,539
94,670	-18,932	199,309	88,380
95,684	-19,333	199,315	88,101
96,699	-18,921	199,074	88,267
97,714	-19,147	198,927	88,040
98,728	-18,974	198,833	88,108
99,743	-18,935	198,689	88,063
100,757	-18,761	198,411	88,050
101,772	-18,799	198,226	87,934
102,787	-19,092	198,210	87,721
103,801	-19,141	198,044	87,607
104,816	-19,241	197,874	87,456
105,830	-19,076	197,704	87,485
106,845	-18,917	197,530	87,507
107,860	-18,882	197,380	87,457
108,874	-18,975	197,182	87,298
109,889	-19,055	197,104	87,202
110,903	-19,223	196,735	86,918
111,918	-19,040	196,812	87,068
112,933	-18,977	196,434	86,935
113,947	-18,945	196,456	86,959
114,962	-19,057	196,203	86,763
115,976	-18,860	196,070	86,829
116,991	-18,902	195,967	86,747
118,006	-19,036	195,706	86,534
119,020	-18,729	195,603	86,686
120,035	-19,046	195,536	86,437
121,049	-18,988	195,397	86,407
122,064	-19,120	195,128	86,192
123,079	-18,872	195,014	86,299
124,093	-18,886	194,847	86,209
125,108	-18,835	194,747	86,190
126,122	-19,075	194,663	85,986
127,137	-18,975	194,470	85,960
128,151	-18,796	194,196	85,949
129,166	-18,703	194,052	85,940
130,181	-18,768	193,861	85,804
131,195	-18,937	193,730	85,627
132,210	-18,926	193,450	85,502
133,224	-19,145	193,604	85,418
134,239	-18,678	193,326	85,596
135,254	-19,047	193,103	85,247
136,268	-19,249	193,076	85,094
137,283	-18,781	192,785	85,266
138,297	-18,709	192,560	85,206
139,312	-19,132	192,507	84,897
140,327	-19,075	192,295	84,834
141,341	-18,859	192,049	84,859
142,356	-18,882	191,960	84,797
143,370	-17,870	192,301	85,604
144,385	-11,355	194,214	90,759
145,400	-4,525	195,716	95,995
146,414	-3,157	196,059	97,065
147,429	-2,795	195,922	97,229
148,443	-2,650	195,810	97,261
149,458	-2,383	195,694	97,372
150,473	-2,409	195,727	97,362
151,487	-2,023	195,568	97,530
152,502	-1,797	195,364	97,569
153,516	-2,100	195,243	97,299
154,531	-2,035	195,184	97,305
155,546	-2,128	194,967	97,126
156,560	-1,738	194,795	97,289
157,575	-1,942	194,736	97,117
158,589	-1,660	194,525	97,188
159,604	-1,802	194,431	97,039
160,619	-1,962	194,259	96,839
161,633	-1,826	194,144	96,863
162,648	-1,766	194,061	96,852
163,662	-1,562	194,016	96,955
164,677	-1,580	193,853	96,853
165,692	-1,387	193,658	96,873
166,706	-1,530	193,562	96,723
167,721	-1,371	193,381	96,728
168,735	-1,495	193,395	96,645
169,750	-1,616	193,295	96,508
170,764	-1,533	193,129	96,470
171,779	-1,357	193,094	96,559
172,794	-1,407	192,914	96,428
173,808	-1,451	192,650	96,258
174,823	-1,467	192,641	96,235
175,837	-1,607	192,432	96,031
176,852	-1,356	192,230	96,085
177,867	-1,542	192,268	95,974
178,881	-1,528	192,231	95,956
179,896	-1,282	191,884	95,935
180,910	-1,528	191,765	95,707
181,925	-1,086	191,550	95,877
182,940	-1,265	191,380	95,668
183,954	-1,471	191,416	95,544
184,969	-1,318	191,129	95,491
185,983	-1,277	191,125	95,507
186,998	-1,353	191,000	95,387
188,013	-1,283	190,902	95,375
189,027	-1,336	190,786	95,274
190,042	-1,567	190,687	95,068
191,056	-1,338	190,433	95,080
192,071	-1,224	190,296	95,076
193,086	-1,196	190,166	95,020
194,100	-0,987	190,008	95,067
195,115	-1,342	189,773	94,713
196,129	-1,141	189,672	94,783
197,144	-1,066	189,604	94,789
198,159	-1,308	189,474	94,561
199,173	-1,210	189,453	94,604
200,188	-0,858	189,042	94,615
201,202	-0,958	189,064	94,554
202,217	-1,077	188,880	94,377
203,232	-1,226	188,768	94,219
204,246	-1,211	188,599	94,135
205,261	-1,350	188,561	94,019
206,275	-1,154	188,514	94,112
207,290	-1,094	188,158	93,964
208,304	-1,057	187,996	93,898
209,319	-1,287	188,086	93,789
210,334	-1,040	187,797	93,793
211,348	-0,930	187,583	93,747
212,363	-1,140	187,571	93,600
213,377	-0,865	187,493	93,726
214,392	-1,057	187,451	93,576
215,407	-1,062	187,303	93,491
216,421	-0,982	187,112	93,437
217,436	-1,060	186,892	93,270
218,450	-1,112	186,858	93,212
219,465	-1,239	186,733	93,061
220,480	-0,925	186,610	93,189
221,494	-0,554	186,474	93,346
222,509	-0,786	186,478	93,194
223,523	-1,060	186,343	92,946
224,538	-1,015	186,074	92,832
225,553	-1,059	185,894	92,706
226,567	-0,977	185,922	92,763
227,582	-0,979	185,736	92,661
228,596	-0,903	185,638	92,651
229,611	-1,056	185,561	92,509
230,626	-1,270	185,394	92,284
231,640	-1,128	185,210	92,273
232,655	-0,833	185,106	92,396
233,669	-0,846	184,997	92,326
234,684	-0,797	184,786	92,242
235,699	-0,704	184,794	92,296
236,713	-0,866	184,634	92,107
237,728	-0,583	184,501	92,208
238,742	-0,794	184,436	92,037
239,757	-0,789	184,179	91,903
240,772	-0,676	184,050	91,900
241,786	-0,947	184,106	91,753
242,801	-0,713	183,999	91,836
243,815	-0,512	183,819	91,862
244,830	-0,884	183,713	91,571
245,844	-0,681	183,609	91,636
246,859	-0,552	183,333	91,570
247,874	-0,812	183,329	91,400
248,888	-0,779	183,148	91,321
249,903	-0,705	183,020	91,295
250,917	-0,497	182,952	91,380
251,932	-0,374	182,705	91,324
252,947	-0,660	182,685	91,131
253,961	-0,426	182,561	91,204
254,976	-0,585	182,379	91,008
255,990	-0,596	182,338	90,973
257,005	-0,535	182,232	90,949
258,020	-0,467	182,149	90,941
259,034	-0,504	182,076	90,874
260,049	-0,860	181,957	90,589
261,063	-0,663	181,694	90,571
262,078	-0,661	181,637	90,535
263,093	-0,252	181,386	90,651
264,107	-0,593	181,304	90,394
265,122	-0,597	181,315	90,389
266,136	-0,655	181,263	90,320
267,151	-0,626	181,115	90,256
268,166	-0,406	180,899	90,273
269,180	-0,315	180,746	90,244
270,195	-0,594	180,579	89,984
271,209	-0,202	180,503	90,175
272,224	-0,231	180,578	90,187
273,239	-0,557	180,281	89,833
274,253	-0,633	180,298	89,788
275,268	-0,511	180,100	89,756
276,282	-0,623	179,927	89,594
277,297	-0,375	179,895	89,719
278,312	-0,477	179,732	89,568
279,326	-0,669	179,835	89,496
280,341	-0,319	179,487	89,525
281,355	-0,138	179,453	89,609
282,370	-0,330	179,320	89,419
283,384	-0,421	179,206	89,300
284,399	-0,259	179,045	89,309
285,414	-0,203	178,980	89,302
286,428	-0,447	178,864	89,090
287,443	-0,215	178,681	89,130
288,457	-0,252	178,587	89,053
289,472	-0,262	178,641	89,066
290,487	-0,232	178,356	88,933
291,501	-0,284	178,248	88,841
292,516	-0,256	178,036	88,744
293,530	-0,231	178,021	88,743
294,545	-0,255	178,005	88,713
295,560	-0,220	177,836	88,642
296,574	-0,313	177,689	88,505
297,589	-0,381	177,486	88,356
298,603	-0,092	177,461	88,507
299,618	-0,470	177,322	88,206
300,633	-0,151	177,194	88,323
301,647	-0,113	177,031	88,256
302,662	-0,266	177,111	88,198
303,676	-0,102	176,795	88,130
304,691	-0,049	176,777	88,144
305,706	-0,288	176,699	87,956
306,720	-0,236	176,490	87,875
307,735	-0,230	176,396	87,824
308,749	0,060	176,278	87,928
309,764	-0,011	176,236	87,857
310,779	0,047	176,117	87,825
311,793	-0,111	175,998	87,664
312,808	-0,248	175,826	87,491
313,822	-0,368	175,641	87,320
314,837	0,019	175,585	87,511
315,852	-0,053	175,462	87,400
316,866	-0,143	175,456	87,337
317,881	-0,167	175,330	87,252
318,895	-0,102	174,959	87,098
319,910	-0,038	174,938	87,117
320,925	-0,077	174,856	87,046
321,939	-0,176	174,826	86,965
322,954	-0,173	174,703	86,898
323,968	0,011	174,683	86,988
324,983	-0,339	174,591	86,730
325,997	-0,266	174,467	86,703
327,012	0,115	174,202	86,785
328,027	-0,159	174,182	86,608
329,041	-0,071	173,908	86,515
330,056	0,170	174,064	86,725
331,070	0,077	173,821	86,542
332,085	-0,154	173,772	86,377
333,100	0,014	173,572	86,366
334,114	0,423	173,358	86,488
335,129	-0,050	173,357	86,207
336,143	0,011	173,213	86,163
337,158	0,333	173,105	86,287
338,173	0,162	172,925	86,092
339,187	-0,136	172,962	85,930
340,202	0,073	172,744	85,935
341,216	0,076	172,692	85,903
342,231	-0,014	172,672	85,833
343,246	-0,122	172,509	85,683
344,260	0,241	172,307	85,783
345,275	0,313	172,196	85,761
346,289	0,168	172,160	85,653
347,304	0,192	171,995	85,576
348,319	-0,073	171,879	85,360
349,333	0,252	171,718	85,458
350,348	-0,004	171,654	85,272
351,362	0,014	171,546	85,221
352,377	0,237	171,440	85,288
353,392	0,419	171,382	85,355
354,406	0,140	171,406	85,201
355,421	190,101	1324,972	1392,769
356,435	150,513	1465,944	1393,226
