DTS Sentinel unit serial number:	SN410029Multiplexer serial number:	ORYXHardware model number:	OX2-SRSoftware version number:	ORYX F/W v4,00 Oryx Data Collector v3.7.2.0data status	okinstallation	B3 Nyhavnadifferential loss correction	single-endedforward channel	channel 1reverse channel	N/Adate	2023/11/28time	14:57:30forward acquisition time	300,00reverse acquisition time	0,00gamma	499,1914k internal	0,3160k external	0,3160temperature offset calibration	1,0000default loss term (dB/km)	0,3820temperature slope calibration	1,0000multiplexer offset coefficient	1,0000multiplexer slope coefficient	1,0000fibre end	0,00T internal ref (°C)	7,37T ext. ref 1 (°C)	-7,72T ext. ref 2 (°C)	-7,89length (m)	temperature (°C)	Stokes	anti-Stokes-744,400	76,496	-0,220	-0,172
-743,385	-200,000	-0,048	0,323
-742,371	800,000	-0,105	-0,224
-741,356	-200,000	-0,008	0,271
-740,342	-88,319	-0,141	-0,031
-739,327	456,243	-0,142	0,232
-738,312	-200,000	-0,035	-0,184
-737,298	800,000	-0,105	0,248
-736,283	-200,000	-0,094	-0,352
-735,269	-200,000	0,003	0,247
-734,254	154,952	-0,257	-0,261
-733,239	-40,232	-0,267	-0,102
-732,225	348,177	-0,115	-0,168
-731,210	-79,730	0,117	0,029
-730,196	195,487	-0,101	-0,113
-729,181	16,446	0,047	0,027
-728,167	-200,000	-0,017	0,141
-727,152	117,799	0,078	0,071
-726,137	190,438	-0,068	-0,075
-725,123	392,989	-0,050	-0,077
-724,108	-200,000	-0,001	-0,113
-723,094	-17,235	-0,064	-0,030
-722,079	-200,000	0,011	0,053
-721,064	-200,000	0,017	-0,074
-720,050	473,792	0,053	0,089
-719,035	-131,144	-0,080	-0,008
-718,021	-200,000	-0,003	0,080
-717,006	758,072	-0,029	0,059
-715,991	-11,460	-0,195	-0,094
-714,977	72,888	0,043	-0,033
-713,962	800,000	-0,018	-0,043
-712,948	800,000	-0,047	-0,143
-711,933	226,463	0,075	-0,090
-710,918	-42,566	-0,157	0,058
-709,904	-16,417	-0,123	0,057
-708,889	-200,000	0,012	-0,096
-707,875	800,000	0,021	-0,054
-706,860	70,791	-0,022	-0,017
-705,845	-111,892	0,088	-0,013
-704,831	-200,000	0,007	0,033
-703,816	65,204	-0,026	0,019
-702,802	47,865	-0,171	-0,118
-701,787	77,755	-0,159	-0,124
-700,772	153,004	-0,041	-0,041
-699,758	362,665	-0,053	0,078
-698,743	44,818	0,075	0,051
-697,729	800,000	0,017	0,047
-696,714	-140,044	0,094	-0,007
-695,699	-200,000	0,010	0,104
-694,685	800,000	-0,009	-0,020
-693,670	-200,000	-0,009	-0,034
-692,656	-200,000	0,002	-0,082
-691,641	-39,732	-0,037	-0,014
-690,627	-200,000	0,021	0,231
-689,612	142,851	0,040	-0,039
-688,597	19,877	-0,045	0,026
-687,583	18,058	-0,083	-0,049
-686,568	800,000	-0,033	0,099
-685,554	64,289	0,096	-0,071
-684,539	-200,000	0,005	0,043
-683,524	800,000	0,032	0,079
-682,510	800,000	0,050	0,108
-681,495	-200,000	-0,028	0,157
-680,481	-200,000	0,015	0,075
-679,466	-48,070	-0,130	-0,046
-678,451	-56,980	-0,146	-0,047
-677,437	37,876	0,126	-0,082
-676,422	19,416	0,069	0,041
-675,408	46,238	0,067	0,046
-674,393	-85,865	0,078	-0,018
-673,378	-71,336	-0,153	0,042
-672,364	286,793	0,117	0,156
-671,349	89,482	-0,143	-0,117
-670,335	-157,544	0,141	0,006
-669,320	205,683	-0,039	0,045
-668,305	411,715	0,093	0,146
-667,291	20,806	0,106	-0,063
-666,276	-200,000	0,003	-0,162
-665,262	-141,582	-0,028	-0,002
-664,247	17,513	-0,091	-0,053
-663,232	67,307	0,052	0,039
-662,218	-161,043	-0,082	0,003
-661,203	60,231	-0,116	-0,084
-660,189	74,657	-0,029	0,022
-659,174	800,000	-0,033	-0,100
-658,159	-146,768	-0,062	0,004
-657,145	800,000	-0,029	-0,072
-656,130	800,000	-0,008	-0,021
-655,116	-1,766	0,196	0,101
-654,101	-200,000	-0,016	0,126
-653,086	-200,000	0,006	0,096
-652,072	-200,000	0,029	-0,123
-651,057	50,559	-0,184	0,128
-650,043	800,000	-0,023	0,059
-649,028	800,000	0,026	0,065
-648,014	94,435	0,046	0,038
-646,999	-200,000	0,008	0,066
-645,984	-200,000	0,003	0,102
-644,970	59,736	-0,090	-0,065
-643,955	-47,478	0,055	0,020
-642,941	-85,714	-0,083	-0,019
-641,926	697,511	0,047	0,092
-640,911	63,204	-0,062	-0,046
-639,897	458,157	0,020	0,033
-638,882	49,484	-0,012	-0,008
-637,868	-168,398	0,100	0,003
-636,853	-200,000	-0,000	-0,118
-635,838	92,268	-0,049	-0,041
-634,824	189,747	0,057	0,063
-633,809	800,000	0,059	0,129
-632,795	-68,005	-0,066	0,019
-631,780	-76,804	0,082	-0,021
-630,765	617,279	-0,048	-0,089
-629,751	51,249	0,120	0,083
-628,736	-200,000	0,026	-0,118
-627,722	-18,048	-0,288	-0,132
-626,707	-29,279	0,086	-0,036
-625,692	-200,000	0,019	0,063
-624,678	-200,000	0,000	-0,133
-623,663	-40,434	-0,113	-0,043
-622,649	-200,000	-0,026	-0,086
-621,634	367,068	-0,073	-0,108
-620,619	-2,790	0,019	0,010
-619,605	800,000	0,006	0,012
-618,590	-46,410	-0,119	0,043
-617,576	-200,000	0,009	0,057
-616,561	-2,140	-0,154	-0,079
-615,546	-23,857	-0,131	0,057
-614,532	-22,626	-0,102	-0,045
-613,517	45,513	-0,045	-0,031
-612,503	800,000	0,029	0,078
-611,488	800,000	-0,016	0,037
-610,474	-200,000	-0,009	0,083
-609,459	-15,492	-0,053	-0,025
-608,444	800,000	-0,035	-0,073
-607,430	-46,820	-0,130	0,046
-606,415	-132,454	-0,100	-0,009
-605,401	800,000	0,049	0,135
-604,386	-30,159	-0,082	-0,034
-603,371	608,750	-0,027	0,049
-602,357	800,000	0,020	0,045
-601,342	-200,000	-0,028	-0,091
-600,328	603,743	-0,071	-0,130
-599,313	-101,807	-0,182	-0,032
-598,298	800,000	-0,032	-0,082
-597,284	43,938	-0,052	0,035
-596,269	-47,932	0,171	-0,060
-595,255	-200,000	-0,008	0,101
-594,240	-74,234	0,043	-0,011
-593,225	-200,000	-0,004	-0,061
-592,211	800,000	-0,034	-0,101
-591,196	-180,904	0,123	-0,002
-590,182	-146,342	0,112	-0,007
-589,167	231,962	-0,026	0,032
-588,152	-200,000	-0,006	0,047
-587,138	-171,717	-0,026	0,001
-586,123	-200,000	-0,001	-0,030
-585,109	-200,000	-0,009	-0,031
-584,094	215,753	0,053	-0,062
-583,079	41,920	0,061	0,040
-582,065	-200,000	-0,008	-0,089
-581,050	-200,000	0,032	0,108
-580,036	-200,000	-0,015	0,117
-579,021	272,147	0,035	-0,045
-578,006	-200,000	0,044	-0,166
-576,992	-200,000	-0,011	-0,085
-575,977	800,000	-0,008	0,019
-574,963	528,863	-0,011	0,019
-573,948	-200,000	-0,001	-0,017
-572,934	60,952	-0,126	0,091
-571,919	-72,211	-0,026	-0,007
-570,904	70,296	0,085	-0,064
-569,890	-200,000	0,004	-0,090
-568,875	173,197	0,076	0,081
-567,861	549,403	-0,022	-0,038
-566,846	800,000	0,021	-0,054
-565,831	-48,946	0,064	-0,022
-564,817	511,670	-0,033	0,057
-563,802	800,000	-0,024	-0,077
-562,788	-151,512	-0,058	-0,003
-561,773	37,473	0,011	-0,007
-560,758	-86,191	0,169	0,038
-559,744	324,777	0,072	0,101
-558,729	140,702	-0,060	0,058
-557,715	51,370	0,048	-0,034
-556,700	-63,088	-0,128	-0,038
-555,685	800,000	-0,034	-0,085
-554,671	-200,000	0,004	-0,112
-553,656	403,927	-0,104	0,161
-552,642	-11,392	0,064	-0,031
-551,627	-69,947	0,021	0,006
-550,612	135,156	-0,047	0,044
-549,598	604,696	0,021	-0,038
-548,583	-129,221	-0,073	-0,007
-547,569	-32,093	0,013	0,005
-546,554	-200,000	-0,008	0,057
-545,539	800,000	0,067	0,200
-544,525	566,233	0,025	0,045
-543,510	141,505	-0,064	0,062
-542,496	199,577	-0,059	-0,066
-541,481	85,848	-0,155	-0,125
-540,466	-21,066	0,054	-0,024
-539,452	-200,000	-0,029	0,097
-538,437	-46,044	-0,143	0,051
-537,423	-23,916	0,101	0,044
-536,408	11,638	0,064	0,036
-535,393	-200,000	0,019	-0,098
-534,379	-200,000	-0,062	-0,220
-533,364	-200,000	-0,033	-0,125
-532,350	800,000	0,009	0,019
-531,335	100,488	0,075	-0,063
-530,321	25,531	0,013	-0,008
-529,306	-113,123	-0,112	0,016
-528,291	800,000	0,018	-0,059
-527,277	-200,000	-0,007	-0,088
-526,262	-200,000	-0,006	-0,066
-525,248	235,423	0,064	0,078
-524,233	-161,979	-0,148	-0,005
-523,218	-200,000	0,004	0,029
-522,204	150,372	-0,035	-0,035
-521,189	-60,292	-0,091	-0,028
-520,175	-200,000	0,007	-0,152
-519,160	16,367	-0,093	0,053
-518,145	-200,000	-0,002	0,067
-517,131	-71,558	0,120	-0,033
-516,116	-200,000	-0,005	0,028
-515,102	-200,000	0,048	-0,175
-514,087	-68,308	-0,084	-0,024
-513,072	-200,000	-0,003	-0,115
-512,058	328,380	-0,087	-0,123
-511,043	-139,881	0,041	-0,003
-510,029	-200,000	-0,033	0,150
-509,014	-200,000	0,005	0,064
-507,999	-58,513	0,028	0,009
-506,985	-21,312	-0,028	0,013
-505,970	-104,886	0,082	0,014
-504,956	65,986	-0,056	0,042
-503,941	131,231	-0,015	-0,014
-502,926	-88,190	-0,075	-0,016
-501,912	800,000	0,050	0,134
-500,897	800,000	-0,033	0,072
-499,883	800,000	0,012	0,026
-498,868	87,141	0,108	-0,087
-497,853	-200,000	-0,007	0,031
-496,839	-63,364	0,067	-0,020
-495,824	-114,289	0,062	-0,009
-494,810	312,960	0,018	0,025
-493,795	-200,000	-0,026	0,106
-492,781	629,947	0,045	-0,083
-491,766	-55,532	-0,091	0,029
-490,751	800,000	0,030	-0,090
-489,737	-200,000	-0,047	-0,166
-488,722	-200,000	-0,036	0,212
-487,708	-29,954	0,060	0,025
-486,693	800,000	0,053	0,108
-485,678	355,236	0,012	-0,018
-484,664	800,000	-0,042	-0,130
-483,649	179,612	-0,021	-0,023
-482,635	-63,724	0,093	-0,028
-481,620	-200,000	-0,004	-0,111
-480,605	800,000	0,055	0,135
-479,591	400,266	0,037	-0,058
-478,576	-200,000	0,036	0,118
-477,562	-38,301	-0,053	-0,020
-476,547	-200,000	-0,013	-0,146
-475,532	-200,000	0,041	-0,132
-474,518	800,000	0,018	0,048
-473,503	-121,922	-0,101	-0,012
-472,489	268,451	-0,032	-0,041
-471,474	32,717	-0,033	-0,021
-470,459	395,877	-0,057	0,087
-469,445	539,184	-0,041	-0,071
-468,430	70,989	-0,056	0,042
-467,416	-200,000	-0,004	-0,062
-466,401	800,000	-0,034	0,091
-465,386	-180,571	0,077	-0,001
-464,372	800,000	-0,024	0,051
-463,357	-48,893	-0,092	0,032
-462,343	163,488	-0,060	0,062
-461,328	-31,815	0,075	-0,031
-460,313	484,784	0,012	-0,020
-459,299	-30,664	0,220	0,090
-458,284	-64,540	0,026	-0,008
-457,270	297,333	-0,048	0,064
-456,255	800,000	-0,013	0,042
-455,241	-150,911	0,007	-0,000
-454,226	-200,000	-0,050	0,164
-453,211	-51,118	-0,103	0,035
-452,197	-200,000	-0,018	-0,088
-451,182	800,000	0,026	0,079
-450,168	-200,000	0,015	0,056
-449,153	29,288	-0,059	0,036
-448,138	-104,463	0,096	0,016
-447,124	-162,581	-0,042	0,001
-446,109	-84,784	-0,037	-0,008
-445,095	-200,000	0,028	0,115
-444,080	305,005	0,031	0,043
-443,065	360,172	0,097	0,142
-442,051	-200,000	0,015	0,092
-441,036	-8,799	0,023	0,011
-440,022	144,910	-0,097	-0,095
-439,007	800,000	-0,022	0,046
-437,992	800,000	-0,015	0,031
-436,978	311,556	-0,097	-0,133
-435,963	-200,000	0,017	0,079
-434,949	110,726	-0,019	-0,016
-433,934	800,000	0,033	-0,096
-432,919	382,001	0,007	0,010
-431,905	91,729	0,023	-0,019
-430,890	-39,092	0,098	-0,037
-429,876	-200,000	-0,013	0,077
-428,861	-147,643	0,222	0,013
-427,846	-118,031	-0,037	-0,005
-426,832	499,933	-0,042	-0,070
-425,817	92,511	-0,097	0,080
-424,803	109,828	0,053	0,046
-423,788	800,000	0,035	0,083
-422,773	-200,000	0,022	0,094
-421,759	-200,000	-0,035	0,167
-420,744	248,915	0,001	-0,001
-419,730	800,000	0,032	-0,066
-418,715	-36,910	-0,053	0,021
-417,701	122,721	-0,049	0,045
-416,686	94,155	-0,116	0,095
-415,671	31,420	0,136	0,085
-414,657	-134,161	0,051	-0,004
-413,642	15,537	0,026	0,015
-412,628	800,000	0,025	-0,078
-411,613	800,000	-0,016	0,049
-410,598	-92,332	-0,113	0,023
-409,584	762,988	-0,012	0,024
-408,569	-130,755	-0,083	-0,008
-407,555	-52,917	0,180	0,060
-406,540	800,000	-0,029	0,093
-405,525	-76,048	0,186	0,047
-404,511	-200,000	0,007	0,104
-403,496	-135,718	-0,042	0,004
-402,482	-67,684	-0,040	0,011
-401,467	86,994	-0,054	0,043
-400,452	35,987	0,112	0,071
-399,438	-200,000	-0,022	0,104
-398,423	-5,172	0,056	0,028
-397,409	-200,000	-0,001	-0,043
-396,394	527,075	-0,028	0,048
-395,379	-66,628	-0,038	-0,011
-394,365	-43,888	0,099	-0,036
-393,350	-21,830	0,089	0,039
-392,336	67,112	0,117	0,086
-391,321	-16,720	0,050	-0,023
-390,306	800,000	-0,024	-0,063
-389,292	-102,666	-0,209	-0,036
-388,277	142,316	0,023	0,022
-387,263	757,245	0,042	0,084
-386,248	800,000	0,024	-0,050
-385,233	18,638	-0,070	0,040
-384,219	-112,474	0,067	-0,010
-383,204	-40,692	-0,197	-0,074
-382,190	-69,653	-0,107	-0,030
-381,175	107,704	0,090	-0,078
-380,160	102,982	0,060	-0,051
-379,146	-14,384	0,109	-0,051
-378,131	106,750	0,159	0,137
-377,117	-52,810	-0,060	0,020
-376,102	164,100	-0,116	-0,118
-375,088	800,000	0,022	-0,055
-374,073	-118,715	-0,092	-0,012
-373,058	32,649	0,128	0,080
-372,044	-200,000	-0,009	0,054
-371,029	-200,000	-0,001	0,168
-370,015	-67,948	0,139	-0,039
-369,000	-200,000	0,028	-0,164
-367,985	16,424	-0,053	-0,030
-366,971	134,888	0,044	-0,042
-365,956	35,188	0,076	0,049
-364,942	-200,000	-0,031	-0,119
-363,927	234,613	0,058	0,070
-362,912	148,718	-0,016	0,016
-361,898	137,393	-0,129	-0,122
-360,883	-187,579	-0,111	-0,001
-359,869	-163,511	-0,123	-0,004
-358,854	-200,000	-0,014	0,048
-357,839	-200,000	-0,030	0,157
-356,825	50,193	-0,024	-0,016
-355,810	-20,711	0,099	0,044
-354,796	242,851	0,087	-0,106
-353,781	-133,461	-0,070	-0,006
-352,766	-200,000	0,005	0,083
-351,752	-2,797	0,090	0,045
-350,737	157,206	-0,058	0,058
-349,723	-70,094	0,060	-0,016
-348,708	160,397	0,114	0,116
-347,693	-200,000	0,029	-0,185
-346,679	357,690	-0,065	-0,094
-345,664	-158,863	0,047	0,002
-344,650	-200,000	-0,010	-0,125
-343,635	-151,747	-0,057	0,003
-342,620	132,695	0,011	-0,010
-341,606	-76,420	0,180	0,046
-340,591	124,856	0,007	-0,006
-339,577	88,686	-0,038	-0,031
-338,562	44,699	-0,015	-0,010
-337,548	-131,885	-0,263	-0,025
-336,533	-200,000	0,003	0,047
-335,518	-36,415	-0,028	-0,011
-334,504	-42,280	0,154	-0,057
-333,489	354,740	-0,078	0,113
-332,475	-152,226	-0,166	0,009
-331,460	473,703	0,048	-0,079
-330,445	558,475	-0,042	-0,074
-329,431	-168,704	-0,074	-0,002
-328,416	-118,562	-0,023	0,003
-327,402	800,000	-0,048	0,138
-326,387	-200,000	0,006	0,028
-325,372	800,000	-0,031	0,092
-324,358	-200,000	0,007	-0,045
-323,343	-200,000	-0,021	-0,249
-322,329	800,000	-0,032	0,072
-321,314	541,524	0,060	0,104
-320,299	228,388	-0,132	0,156
-319,285	274,071	-0,088	0,113
-318,270	-45,189	0,008	0,003
-317,256	-72,702	0,056	-0,015
-316,241	74,387	-0,117	0,089
-315,226	537,486	0,019	-0,033
-314,212	78,268	0,043	0,033
-313,197	-200,000	-0,010	0,066
-312,183	158,619	0,025	0,025
-311,168	-102,851	-0,090	0,015
-310,153	112,422	0,083	-0,073
-309,139	598,085	-0,036	0,066
-308,124	19,501	-0,049	-0,028
-307,110	800,000	-0,006	0,016
-306,095	-35,851	-0,077	-0,030
-305,080	-120,240	0,098	0,012
-304,066	-200,000	-0,002	-0,053
-303,051	148,335	-0,111	0,108
-302,037	-71,711	-0,083	0,022
-301,022	-139,603	-0,104	0,008
-300,008	699,849	-0,027	-0,052
-298,993	800,000	-0,026	-0,062
-297,978	99,337	-0,039	0,033
-296,964	800,000	0,063	-0,134
-295,949	498,188	-0,044	-0,074
-294,935	-86,180	0,054	0,012
-293,920	41,434	-0,032	-0,021
-292,905	-151,306	0,150	0,008
-291,891	-200,000	-0,024	-0,084
-290,876	-3,791	0,132	0,066
-289,862	-200,000	0,011	-0,049
-288,847	378,220	-0,115	-0,170
-287,832	68,982	0,064	0,048
-286,818	-34,156	0,021	0,008
-285,803	800,000	0,018	0,048
-284,789	800,000	-0,014	-0,039
-283,774	60,039	0,078	0,056
-282,759	89,512	0,045	0,036
-281,745	-70,103	0,178	-0,049
-280,730	800,000	-0,093	-0,212
-279,716	-200,000	-0,014	-0,095
-278,701	-149,164	0,198	0,011
-277,686	-36,139	-0,064	-0,025
-276,672	102,371	-0,076	0,065
-275,657	390,667	0,077	0,117
-274,643	-200,000	0,013	-0,057
-273,628	-200,000	0,031	-0,110
-272,613	140,283	0,073	-0,070
-271,599	-200,000	0,001	-0,043
-270,584	-145,157	0,088	-0,006
-269,570	-200,000	-0,001	-0,011
-268,555	-200,000	-0,112	0,000
-267,540	224,658	0,110	-0,129
-266,526	-72,370	-0,030	0,008
-265,511	-200,000	-0,029	0,105
-264,497	234,440	0,063	0,075
-263,482	800,000	-0,067	0,137
-262,467	776,485	-0,051	-0,100
-261,453	-119,777	-0,015	0,002
-260,438	-200,000	0,013	-0,065
-259,424	278,638	0,033	0,043
-258,409	-200,000	-0,018	-0,073
-257,395	800,000	0,038	0,094
-256,380	-200,000	0,042	0,144
-255,365	-200,000	0,004	0,054
-254,351	-10,936	0,132	0,063
-253,336	322,377	-0,071	0,099
-252,322	199,079	-0,054	-0,060
-251,307	245,063	0,043	0,053
-250,292	-40,215	-0,094	0,035
-249,278	69,710	-0,026	0,019
-248,263	-200,000	0,005	-0,033
-247,249	-112,943	-0,093	0,013
-246,234	142,782	-0,037	0,035
-245,219	631,551	-0,009	0,017
-244,205	39,322	0,029	-0,019
-243,190	185,712	0,077	0,083
-242,176	213,474	0,086	0,099
-241,161	281,980	0,066	0,086
-240,146	-177,819	0,162	-0,003
-239,132	-200,000	-0,001	0,049
-238,117	69,841	-0,083	-0,061
-237,103	28,002	-0,110	-0,067
-236,088	800,000	-0,009	-0,024
-235,073	-200,000	0,045	0,149
-234,059	-163,525	0,127	-0,004
-233,044	-12,638	-0,135	-0,063
-232,030	77,189	-0,065	0,050
-231,015	230,544	-0,010	0,012
-230,000	-200,000	-0,041	-0,138
-228,986	-180,461	0,064	-0,001
-227,971	187,766	0,058	-0,062
-226,957	451,847	0,084	0,134
-225,942	-110,851	-0,069	-0,010
-224,927	64,765	0,116	-0,084
-223,913	-200,000	-0,036	-0,205
-222,898	800,000	0,021	-0,043
-221,884	-200,000	0,005	0,072
-220,869	251,234	-0,052	-0,064
-219,855	-111,307	0,093	-0,014
-218,840	444,419	-0,063	0,100
-217,825	129,550	-0,056	0,052
-216,811	138,270	0,127	-0,120
-215,796	800,000	0,011	-0,026
-214,782	-51,567	0,076	0,026
-213,767	-84,194	0,078	-0,018
-212,752	5,095	0,184	-0,097
-211,738	800,000	-0,007	0,015
-210,723	553,688	-0,068	-0,118
-209,709	366,406	-0,056	0,081
-208,694	483,272	-0,010	-0,017
-207,679	800,000	0,027	0,071
-206,665	-200,000	0,004	0,071
-205,650	-177,153	-0,096	0,002
-204,636	800,000	0,038	0,089
-203,621	64,235	0,070	0,051
-202,606	116,809	0,036	0,032
-201,592	238,961	-0,035	-0,042
-200,577	-200,000	0,023	0,086
-199,563	800,000	0,010	-0,023
-198,548	-38,833	0,027	0,010
-197,533	800,000	-0,044	-0,094
-196,519	-55,594	-0,154	0,050
-195,504	-200,000	0,027	-0,147
-194,490	-200,000	-0,014	-0,088
-193,475	-50,832	-0,041	-0,014
-192,460	-5,693	0,083	-0,041
-191,446	-200,000	0,008	-0,033
-190,431	454,447	0,052	-0,084
-189,417	369,192	-0,054	0,079
-188,402	298,396	0,030	-0,040
-187,387	219,441	0,065	-0,075
-186,373	-58,281	0,180	-0,056
-185,358	-156,779	0,107	-0,005
-184,344	-65,794	-0,091	-0,026
-183,329	-3,825	0,128	-0,064
-182,315	11,104	0,095	0,052
-181,300	755,342	0,035	0,069
-180,285	58,668	-0,071	-0,050
-179,271	-131,881	-0,165	0,015
-178,256	-47,871	-0,049	-0,017
-177,242	800,000	-0,017	0,050
-176,227	-46,388	0,096	-0,034
-175,212	691,373	0,036	0,068
-174,198	130,561	0,027	-0,025
-173,183	-68,224	0,051	-0,014
-172,169	479,244	-0,071	-0,116
-171,154	188,772	0,016	0,017
-170,139	800,000	-0,024	0,063
-169,125	800,000	0,076	-0,202
-168,110	62,429	-0,040	0,029
-167,096	-88,697	0,134	0,028
-166,081	-31,802	-0,053	-0,021
-165,066	-200,000	0,031	-0,133
-164,052	693,953	-0,025	-0,047
-163,037	173,890	-0,043	-0,045
-162,023	-200,000	-0,003	0,024
-161,008	15,080	0,009	-0,005
-159,993	-200,000	-0,013	0,061
-158,979	586,439	-0,043	-0,077
-157,964	-171,467	0,058	-0,001
-156,950	-200,000	-0,035	0,129
-155,935	-69,857	0,016	-0,004
-154,920	-200,000	-0,011	-0,089
-153,906	745,816	0,021	0,042
-152,891	-199,214	0,220	0,001
-151,877	10,940	-0,151	-0,083
-150,862	800,000	-0,034	0,100
-149,847	800,000	0,041	-0,106
-148,833	123,970	-0,145	-0,131
-147,818	50,099	-0,086	0,058
-146,804	271,827	0,108	0,137
-145,789	-67,459	-0,018	-0,005
-144,775	353,444	0,075	-0,108
-143,760	-33,663	-0,222	-0,088
-142,745	10,919	0,067	-0,037
-141,731	9,662	-0,070	0,038
-140,716	127,593	0,082	0,075
-139,702	355,505	0,050	0,071
-138,687	419,177	-0,099	-0,153
-137,672	800,000	-0,043	-0,136
-136,658	-200,000	-0,040	-0,137
-135,643	800,000	-0,007	0,015
-134,629	-200,000	0,013	-0,083
-133,614	800,000	0,102	-0,229
-132,599	722,469	-0,052	-0,099
-131,585	-69,040	-0,089	0,025
-130,570	-200,000	0,023	0,106
-129,556	-111,911	-0,051	0,007
-128,541	351,009	0,040	-0,058
-127,526	-200,000	0,005	0,025
-126,512	-200,000	0,012	0,064
-125,497	-128,311	0,113	0,011
-124,483	-200,000	0,009	0,147
-123,468	800,000	0,052	0,121
-122,453	-200,000	0,007	-0,051
-121,439	-144,693	-0,030	0,002
-120,424	-200,000	-0,013	-0,123
-119,410	732,014	-0,033	0,064
-118,395	-200,000	0,015	0,083
-117,380	59,899	0,020	0,014
-116,366	366,441	0,057	0,082
-115,351	-128,643	-0,141	-0,014
-114,337	160,941	-0,057	0,058
-113,322	-200,000	-0,004	0,078
-112,307	800,000	-0,008	-0,020
-111,293	-23,133	0,122	-0,053
-110,278	-54,158	0,104	-0,034
-109,264	141,800	-0,073	0,069
-108,249	-75,126	0,108	0,027
-107,234	-22,895	0,078	-0,034
-106,220	800,000	-0,030	-0,064
-105,205	-75,501	0,075	0,019
-104,191	269,479	-0,044	0,056
-103,176	-114,922	-0,085	-0,012
-102,162	-79,109	-0,016	0,004
-101,147	384,066	-0,053	0,079
-100,132	-85,380	-0,094	-0,021
-99,118	-200,000	0,014	-0,214
-98,103	-46,934	-0,115	-0,040
-97,089	532,380	0,032	0,055
-96,074	-200,000	-0,002	0,080
-95,059	-200,000	-0,013	0,043
-94,045	613,096	-0,068	0,123
-93,030	800,000	-0,038	-0,106
-92,016	-200,000	0,038	-0,156
-91,001	67,121	-0,034	-0,025
-89,986	-157,827	0,125	-0,005
-88,972	100,549	-0,084	0,070
-87,957	800,000	0,051	0,124
-86,943	800,000	0,033	-0,083
-85,928	-152,967	0,090	0,004
-84,913	800,000	-0,034	-0,084
-83,899	364,960	-0,086	-0,125
-82,884	800,000	0,044	0,092
-81,870	731,477	-0,053	0,103
-80,855	-200,000	-0,007	0,029
-79,840	-53,450	0,007	0,002
-78,826	-124,323	-0,082	-0,009
-77,811	9,302	-0,157	0,085
-76,797	354,536	0,072	0,102
-75,782	-200,000	0,011	0,097
-74,767	97,904	-0,059	0,049
-73,753	800,000	0,039	0,081
-72,738	-54,043	0,140	0,045
-71,724	112,329	-0,040	0,034
-70,709	223,805	-0,063	-0,073
-69,694	-200,000	0,022	0,108
-68,680	-69,260	0,120	0,033
-67,665	-96,657	0,187	0,035
-66,651	-200,000	-0,006	-0,037
-65,636	5,165	0,038	-0,020
-64,622	-185,262	0,034	0,000
-63,607	-200,000	-0,001	-0,015
-62,592	691,958	0,066	-0,124
-61,578	-200,000	0,006	0,061
-60,563	84,340	0,038	0,030
-59,549	-56,728	-0,158	-0,050
-58,534	64,931	-2,277	-1,647
-57,519	499,918	-1,119	-1,859
-56,505	-200,000	-0,323	-4,394
-55,490	800,000	0,863	1,840
-54,476	800,000	5,381	11,164
-53,461	-200,000	23,077	351,318
-52,446	800,000	758,852	2282,560
-51,432	503,785	1637,520	2726,799
-50,417	67,440	1551,306	1134,111
-49,403	19,955	1082,162	623,893
-48,388	11,260	774,277	423,727
-47,373	30,171	738,344	450,770
-46,359	17,981	723,228	412,122
-45,344	7,510	719,277	384,457
-44,330	7,213	717,638	382,844
-43,315	7,167	716,317	382,014
-42,300	7,273	714,896	381,496
-41,286	7,379	713,958	381,236
-40,271	7,263	713,326	380,605
-39,257	7,259	712,343	380,054
-38,242	7,442	711,349	379,951
-37,227	7,380	710,889	379,541
-36,213	7,379	709,947	379,020
-35,198	7,279	709,432	378,489
-34,184	7,448	708,867	378,578
-33,169	7,352	707,884	377,808
-32,154	7,470	707,389	377,813
-31,140	7,372	706,558	377,119
-30,125	7,394	705,597	376,643
-29,111	7,320	705,256	376,270
-28,096	7,412	704,798	376,231
-27,082	7,392	704,159	375,826
-26,067	7,395	703,264	375,340
-25,052	7,265	703,129	374,943
-24,038	7,387	702,514	374,892
-23,023	7,245	702,032	374,282
-22,009	7,449	701,228	374,324
-20,994	7,496	700,630	374,099
-19,979	7,472	700,131	373,763
-18,965	7,361	699,617	373,211
-17,950	7,476	699,179	373,235
-16,936	7,451	698,538	372,819
-15,921	7,333	698,102	372,292
-14,906	7,291	697,453	371,832
-13,892	7,342	697,084	371,740
-12,877	7,319	696,406	371,310
-11,863	7,325	696,211	371,205
-10,848	7,228	695,888	370,791
-9,833	7,376	695,440	370,884
-8,819	7,359	694,676	370,422
-7,804	7,472	693,983	370,305
-6,790	7,447	693,529	369,988
-5,775	7,304	693,530	369,640
-4,760	7,321	692,765	369,255
-3,746	7,294	692,468	369,021
-2,731	7,140	692,104	368,450
-1,717	7,040	691,866	368,075
-0,702	7,072	691,068	367,712
0,313	7,399	686,659	366,677
1,327	11,276	659,425	360,748
2,342	19,542	527,130	303,000
3,356	13,605	289,757	160,763
4,371	-15,486	196,353	89,494
5,386	-18,381	184,735	82,358
6,400	-18,548	181,365	80,744
7,415	-17,572	179,661	80,580
8,429	-18,814	178,635	79,351
9,444	-18,748	177,990	79,099
10,459	-18,474	177,487	79,034
11,473	-18,536	176,965	78,757
12,488	-18,672	176,728	78,563
13,502	-18,578	176,240	78,395
14,517	-18,594	175,958	78,254
15,531	-18,939	175,788	77,963
16,546	-18,846	175,498	77,883
17,561	-18,659	175,057	77,793
18,575	-18,535	174,892	77,787
19,590	-18,621	174,686	77,637
20,604	-18,367	174,394	77,652
21,619	-18,633	174,084	77,348
22,634	-18,722	173,864	77,191
23,648	-18,886	173,653	76,993
24,663	-18,773	173,350	76,919
25,677	-18,680	173,159	76,882
26,692	-18,516	172,979	76,893
27,707	-18,712	172,922	76,744
28,721	-18,577	172,648	76,696
29,736	-18,762	172,516	76,520
30,750	-18,768	172,340	76,432
31,765	-18,945	172,244	76,279
32,780	-18,765	172,096	76,312
33,794	-18,758	171,756	76,159
34,809	-18,568	171,574	76,183
35,823	-18,737	171,384	75,993
36,838	-18,822	171,185	75,848
37,853	-18,657	171,086	75,894
38,867	-18,968	171,016	75,674
39,882	-18,777	170,792	75,680
40,896	-18,709	170,634	75,643
41,911	-18,845	170,563	75,526
42,926	-18,784	170,320	75,446
43,940	-18,810	170,078	75,317
44,955	-18,697	169,887	75,292
45,969	-18,650	169,704	75,231
46,984	-18,649	169,520	75,144
47,999	-18,557	169,455	75,161
49,013	-18,727	169,296	74,985
50,028	-18,839	169,193	74,868
51,042	-18,538	168,950	74,928
52,057	-18,876	168,811	74,665
53,071	-18,566	168,664	74,772
54,086	-18,749	168,674	74,664
55,101	-18,672	168,460	74,607
56,115	-18,708	168,375	74,542
57,130	-18,720	168,026	74,374
58,144	-18,720	167,875	74,300
59,159	-18,753	167,745	74,218
60,174	-18,741	167,617	74,161
61,188	-18,688	167,352	74,068
62,203	-18,976	167,412	73,923
63,217	-18,535	167,135	74,046
64,232	-18,598	167,135	74,003
65,247	-18,796	166,777	73,725
66,261	-18,556	166,715	73,828
67,276	-18,615	166,523	73,703
68,290	-18,806	166,453	73,557
69,305	-18,718	166,238	73,505
70,320	-18,640	166,159	73,508
71,334	-18,641	166,002	73,431
72,349	-18,880	165,821	73,210
73,363	-18,795	165,579	73,144
74,378	-18,602	165,562	73,239
75,393	-18,638	165,329	73,109
76,407	-18,506	165,323	73,174
77,422	-18,729	165,018	72,907
78,436	-18,321	164,859	73,060
79,451	-18,612	164,671	72,807
80,466	-18,944	164,661	72,610
81,480	-18,796	164,496	72,613
82,495	-18,770	164,282	72,527
83,509	-18,597	164,328	72,637
84,524	-18,780	164,012	72,389
85,539	-18,662	164,058	72,469
86,553	-18,723	163,810	72,319
87,568	-18,500	163,580	72,335
88,582	-18,679	163,625	72,249
89,597	-18,646	163,332	72,131
90,611	-18,734	163,387	72,100
91,626	-18,836	163,131	71,924
92,641	-18,723	163,127	71,979
93,655	-18,733	162,956	71,891
94,670	-18,771	162,681	71,742
95,684	-18,766	162,602	71,704
96,699	-18,551	162,387	71,722
97,714	-18,475	162,249	71,696
98,728	-18,518	162,258	71,670
99,743	-18,665	162,220	71,566
100,757	-18,588	161,975	71,494
101,772	-18,750	161,721	71,286
102,787	-18,473	161,572	71,366
103,801	-18,724	161,490	71,186
104,816	-18,693	161,489	71,196
105,830	-18,677	161,300	71,115
106,845	-18,601	161,225	71,117
107,860	-18,693	160,972	70,949
108,874	-18,173	160,738	71,124
109,889	-18,692	160,700	70,817
110,903	-18,543	160,574	70,837
111,918	-18,625	160,457	70,734
112,933	-18,603	160,408	70,718
113,947	-18,626	160,261	70,634
114,962	-18,227	160,021	70,739
115,976	-18,585	159,825	70,452
116,991	-18,803	159,810	70,321
118,006	-18,742	159,776	70,333
119,020	-18,497	159,524	70,348
120,035	-18,284	159,426	70,414
121,049	-18,911	159,508	70,105
122,064	-18,687	159,346	70,148
123,079	-18,400	159,111	70,193
124,093	-18,479	158,825	70,018
125,108	-18,714	158,760	69,857
126,122	-18,524	158,655	69,907
127,137	-18,477	158,603	69,903
128,151	-18,293	158,360	69,889
129,166	-18,460	158,338	69,783
130,181	-18,556	158,175	69,654
131,195	-18,428	157,996	69,637
132,210	-18,501	157,801	69,505
133,224	-18,616	157,776	69,427
134,239	-18,631	157,764	69,407
135,254	-18,451	157,575	69,414
136,268	-18,294	157,413	69,420
137,283	-18,302	157,221	69,325
138,297	-18,545	157,056	69,117
139,312	-18,701	157,078	69,037
140,327	-18,646	156,839	68,955
141,341	-18,552	156,665	68,923
142,356	-18,711	156,590	68,799
143,370	-17,362	156,779	69,592
144,385	-11,430	158,267	73,424
145,400	-4,630	159,554	77,677
146,414	-2,672	159,908	78,897
147,429	-2,278	159,719	79,008
148,443	-2,121	159,656	79,054
149,458	-1,820	159,713	79,238
150,473	-1,834	159,619	79,177
151,487	-1,360	159,642	79,435
152,502	-1,514	159,372	79,211
153,516	-1,489	159,171	79,117
154,531	-1,387	159,102	79,131
155,546	-1,319	159,038	79,128
156,560	-1,410	158,898	79,003
157,575	-1,532	158,900	78,932
158,589	-1,522	158,690	78,826
159,604	-1,701	158,725	78,741
160,619	-1,366	158,459	78,780
161,633	-1,206	158,368	78,813
162,648	-1,415	158,364	78,692
163,662	-0,951	158,179	78,840
164,677	-1,252	158,087	78,628
165,692	-0,914	158,063	78,788
166,706	-0,927	157,930	78,708
167,721	-1,197	157,779	78,482
168,735	-0,990	157,717	78,554
169,750	-0,858	157,543	78,531
170,764	-1,083	157,568	78,417
171,779	-0,997	157,581	78,462
172,794	-1,281	157,397	78,213
173,808	-1,088	157,259	78,239
174,823	-1,171	157,116	78,118
175,837	-1,110	157,000	78,085
176,852	-0,844	156,824	78,131
177,867	-1,157	156,870	77,982
178,881	-1,267	156,786	77,875
179,896	-0,783	156,503	77,981
180,910	-0,862	156,372	77,868
181,925	-1,167	156,387	77,708
182,940	-1,217	156,184	77,574
183,954	-0,973	156,159	77,683
184,969	-1,252	156,010	77,456
185,983	-0,815	155,951	77,648
186,998	-0,780	155,711	77,540
188,013	-0,581	155,595	77,579
189,027	-1,042	155,606	77,337
190,042	-0,822	155,366	77,326
191,056	-0,786	155,353	77,331
192,071	-0,863	155,265	77,241
193,086	-1,042	155,008	77,013
194,100	-0,795	155,053	77,157
195,115	-1,022	154,868	76,939
196,129	-0,784	154,827	77,036
197,144	-0,874	154,588	76,864
198,159	-0,871	154,518	76,824
199,173	-0,785	154,430	76,817
200,188	-0,715	154,270	76,767
201,202	-0,813	154,097	76,623
202,217	-0,587	154,108	76,739
203,232	-0,870	153,901	76,483
204,246	-0,889	153,889	76,460
205,261	-1,045	153,818	76,338
206,275	-0,298	153,696	76,655
207,290	-0,571	153,507	76,414
208,304	-0,444	153,475	76,456
209,319	-0,415	153,322	76,388
210,334	-0,661	153,185	76,186
211,348	-0,631	153,117	76,161
212,363	-0,715	153,043	76,075
213,377	-0,952	152,871	75,862
214,392	-0,758	152,990	76,013
215,407	-0,587	152,862	76,030
216,421	-0,354	152,584	76,004
217,436	-0,397	152,448	75,908
218,450	-0,745	152,440	75,720
219,465	-0,662	152,251	75,661
220,480	-0,191	152,244	75,890
221,494	-0,678	152,133	75,581
222,509	-0,122	151,979	75,780
223,523	-0,580	152,002	75,552
224,538	-0,686	151,752	75,367
225,553	-0,535	151,635	75,379
226,567	-0,610	151,647	75,340
227,582	-0,357	151,499	75,388
228,596	-0,485	151,472	75,303
229,611	-0,575	151,351	75,191
230,626	-0,591	151,298	75,149
231,640	-0,588	151,020	75,006
232,655	-0,314	150,954	75,105
233,669	-0,651	150,909	74,906
234,684	-0,366	150,838	75,007
235,699	-0,275	150,691	74,973
236,713	-0,224	150,654	74,974
237,728	-0,438	150,507	74,787
238,742	-0,355	150,444	74,790
239,757	-0,402	150,222	74,649
240,772	-0,234	150,183	74,708
241,786	-0,447	149,907	74,457
242,801	-0,457	150,011	74,498
243,815	-0,029	149,830	74,614
244,830	0,010	149,858	74,641
245,844	-0,006	149,724	74,560
246,859	-0,144	149,607	74,426
247,874	-0,290	149,362	74,225
248,888	-0,285	149,424	74,252
249,903	-0,113	149,277	74,258
250,917	-0,183	149,217	74,186
251,932	-0,081	149,130	74,187
252,947	-0,222	149,002	74,047
253,961	-0,156	148,891	74,018
254,976	-0,192	148,641	73,870
255,990	-0,210	148,586	73,826
257,005	-0,218	148,745	73,895
258,020	-0,214	148,616	73,827
259,034	-0,219	148,380	73,700
260,049	-0,250	148,347	73,662
261,063	-0,113	148,239	73,669
262,078	-0,006	147,940	73,566
263,093	-0,078	148,042	73,575
264,107	-0,120	147,939	73,497
265,122	-0,160	147,851	73,427
266,136	0,266	147,620	73,515
267,151	0,098	147,668	73,450
268,166	-0,271	147,511	73,184
269,180	-0,021	147,389	73,239
270,195	-0,370	147,388	73,061
271,209	-0,087	147,316	73,158
272,224	0,123	147,117	73,155
273,239	-0,060	147,063	73,032
274,253	-0,116	146,912	72,923
275,268	-0,084	146,778	72,866
276,282	0,150	146,579	72,874
277,297	0,273	146,487	72,882
278,312	0,415	146,405	72,904
279,326	-0,066	146,615	72,768
280,341	0,097	146,366	72,717
281,355	-0,027	146,385	72,660
282,370	0,295	146,064	72,650
283,384	0,077	146,134	72,572
284,399	0,058	146,049	72,515
285,414	0,042	145,930	72,441
286,428	0,025	145,844	72,384
287,443	0,236	145,658	72,387
288,457	0,466	145,578	72,452
289,472	0,204	145,663	72,361
290,487	0,009	145,407	72,134
291,501	0,024	145,417	72,140
292,516	0,150	145,159	72,066
293,530	0,133	145,205	72,074
294,545	0,308	144,981	72,040
295,560	0,250	145,035	72,033
296,574	0,169	144,847	71,894
297,589	0,091	144,704	71,779
298,603	0,056	144,727	71,768
299,618	0,278	144,585	71,797
300,633	0,291	144,458	71,734
301,647	0,003	144,505	71,613
302,662	0,473	144,309	71,735
303,676	0,205	144,253	71,572
304,691	0,179	144,048	71,452
305,706	0,195	144,101	71,479
306,720	0,429	143,806	71,437
307,735	0,233	143,934	71,401
308,749	0,549	143,741	71,450
309,764	0,296	143,737	71,321
310,779	0,464	143,496	71,275
311,793	0,802	143,377	71,370
312,808	0,246	143,272	71,048
313,822	0,182	143,241	70,996
314,837	0,045	143,185	70,896
315,852	0,061	143,180	70,895
316,866	0,309	143,068	70,951
317,881	0,372	142,974	70,928
318,895	0,343	142,843	70,843
319,910	0,529	142,644	70,826
320,925	0,081	142,611	70,592
321,939	0,335	142,596	70,698
322,954	0,472	142,463	70,690
323,968	0,565	142,456	70,724
324,983	0,411	142,220	70,528
325,997	0,178	142,208	70,406
327,012	0,323	142,131	70,430
328,027	0,409	141,913	70,356
329,041	0,312	141,875	70,286
330,056	0,595	141,908	70,428
331,070	0,348	141,839	70,272
332,085	0,402	141,639	70,192
333,100	0,552	141,574	70,224
334,114	0,618	141,446	70,185
335,129	0,381	141,360	70,025
336,143	0,467	141,196	69,977
337,158	0,247	141,230	69,885
338,173	0,722	141,083	70,028
339,187	0,673	141,082	69,999
340,202	0,503	140,910	69,828
341,216	0,443	140,768	69,723
342,231	0,554	140,803	69,786
343,246	0,735	140,497	69,712
344,260	0,422	140,483	69,554
345,275	0,689	140,370	69,615
346,289	0,846	140,332	69,663
347,304	0,774	140,159	69,538
348,319	0,519	140,237	69,452
349,333	0,637	140,007	69,386
350,348	0,703	139,893	69,355
351,362	0,610	139,855	69,287
352,377	0,542	139,884	69,263
353,392	1,022	139,815	69,444
354,406	0,600	139,618	69,146
355,421	194,648	1320,773	1393,553
356,435	153,360	1465,127	1394,019
