DTS Sentinel unit serial number:	SN410029Multiplexer serial number:	ORYXHardware model number:	OX2-SRSoftware version number:	ORYX F/W v4,00 Oryx Data Collector v3.7.2.0data status	okinstallation	B3 Nyhavnadifferential loss correction	single-endedforward channel	channel 1reverse channel	N/Adate	2023/11/28time	19:07:31forward acquisition time	300,00reverse acquisition time	0,00gamma	499,1914k internal	0,3147k external	0,3147temperature offset calibration	1,0000default loss term (dB/km)	0,3820temperature slope calibration	1,0000multiplexer offset coefficient	1,0000multiplexer slope coefficient	1,0000fibre end	0,00T internal ref (°C)	7,56T ext. ref 1 (°C)	-7,24T ext. ref 2 (°C)	-7,38length (m)	temperature (°C)	Stokes	anti-Stokes-744,400	128,767	-0,238	-0,224
-743,385	-200,000	-0,074	0,287
-742,371	611,116	-0,106	-0,197
-741,356	-200,000	-0,022	0,310
-740,342	-200,000	0,014	-0,240
-739,327	-200,000	0,025	0,125
-738,312	800,000	-0,154	-0,377
-737,298	800,000	0,075	0,215
-736,283	209,108	-0,206	-0,239
-735,269	-200,000	-0,008	0,389
-734,254	350,854	-0,130	-0,191
-733,239	82,771	-0,156	0,125
-732,225	642,248	-0,126	-0,238
-731,210	-132,956	0,175	-0,016
-730,196	78,523	0,059	0,047
-729,181	56,489	0,044	-0,031
-728,167	-102,938	-0,041	0,007
-727,152	99,703	-0,049	0,042
-726,137	222,413	-0,056	-0,067
-725,123	-44,668	-0,088	-0,032
-724,108	43,555	0,025	0,017
-723,094	246,756	-0,056	-0,070
-722,079	-54,260	0,016	-0,005
-721,064	-56,076	-0,070	0,023
-720,050	800,000	0,008	0,022
-719,035	-200,000	-0,001	-0,029
-718,021	-200,000	-0,020	-0,120
-717,006	800,000	-0,058	-0,170
-715,991	-200,000	-0,060	-0,208
-714,977	-65,121	0,056	-0,017
-713,962	800,000	0,025	-0,052
-712,948	-101,390	-0,081	0,014
-711,933	54,779	-0,066	-0,047
-710,918	-200,000	-0,002	-0,064
-709,904	3,011	0,067	-0,036
-708,889	177,193	-0,171	-0,185
-707,875	-20,257	0,089	0,040
-706,860	-200,000	-0,023	-0,112
-705,845	325,510	-0,070	-0,098
-704,831	-200,000	-0,041	0,140
-703,816	301,605	0,038	0,052
-702,802	800,000	0,024	-0,071
-701,787	396,915	-0,094	-0,146
-700,772	80,960	0,020	-0,016
-699,758	-194,425	0,059	0,000
-698,743	269,577	0,015	-0,019
-697,729	-132,384	0,022	-0,002
-696,714	-56,746	-0,050	-0,016
-695,699	181,649	0,034	0,037
-694,685	231,572	-0,020	0,024
-693,670	36,126	-0,087	-0,056
-692,656	154,155	-0,029	-0,030
-691,641	640,987	-0,046	0,088
-690,627	-148,311	0,205	0,012
-689,612	-40,893	-0,160	0,061
-688,597	-200,000	0,002	-0,017
-687,583	-9,790	-0,078	-0,038
-686,568	276,636	0,041	-0,054
-685,554	800,000	-0,042	-0,092
-684,539	-200,000	0,000	-0,032
-683,524	-200,000	-0,020	0,095
-682,510	4,533	-0,079	-0,043
-681,495	-135,432	0,093	0,008
-680,481	-41,036	-0,014	0,005
-679,466	-200,000	-0,005	-0,090
-678,451	-200,000	0,009	-0,038
-677,437	715,967	0,094	-0,185
-676,422	165,969	-0,080	-0,084
-675,408	-200,000	0,013	0,133
-674,393	-33,254	-0,050	-0,020
-673,378	8,507	0,056	-0,031
-672,364	-14,701	-0,076	0,036
-671,349	614,296	-0,062	-0,116
-670,335	-200,000	0,007	0,051
-669,320	-15,204	0,042	0,020
-668,305	-200,000	0,007	-0,100
-667,291	454,763	0,035	0,057
-666,276	800,000	0,055	-0,119
-665,262	-200,000	0,023	-0,168
-664,247	-200,000	0,027	0,097
-663,232	-2,317	0,071	-0,036
-662,218	-60,237	-0,160	-0,050
-661,203	-200,000	0,024	0,164
-660,189	-200,000	-0,009	0,044
-659,174	-97,150	0,023	0,004
-658,159	-65,373	-0,075	0,022
-657,145	-83,124	-0,082	-0,019
-656,130	-200,000	-0,010	0,064
-655,116	6,565	-0,142	-0,078
-654,101	-15,334	0,117	0,055
-653,086	-200,000	0,022	0,101
-652,072	138,673	-0,111	-0,107
-651,057	-97,488	-0,078	0,015
-650,043	-200,000	-0,007	-0,072
-649,028	326,950	0,049	0,069
-648,014	-67,397	-0,157	0,045
-646,999	-113,305	-0,085	-0,012
-645,984	73,498	-0,078	-0,060
-644,970	-200,000	0,003	-0,070
-643,955	800,000	-0,055	-0,134
-642,941	800,000	-0,102	-0,238
-641,926	-51,130	-0,078	-0,027
-640,911	-200,000	0,007	0,072
-639,897	-168,425	0,147	-0,004
-638,882	-135,026	-0,034	-0,003
-637,868	544,720	0,033	-0,059
-636,853	377,626	0,018	-0,028
-635,838	731,713	-0,074	-0,146
-634,824	299,678	0,041	-0,056
-633,809	-118,366	-0,136	0,018
-632,795	800,000	-0,043	0,104
-631,780	800,000	0,064	-0,138
-630,765	-200,000	-0,001	-0,065
-629,751	-52,618	-0,059	-0,020
-628,736	-110,993	-0,086	-0,013
-627,722	-73,688	-0,086	-0,023
-626,707	481,701	-0,057	-0,095
-625,692	698,452	-0,030	0,059
-624,678	218,157	0,069	-0,081
-623,663	520,607	-0,067	-0,115
-622,649	138,554	-0,055	-0,053
-621,634	485,615	0,040	0,067
-620,619	-200,000	0,029	-0,127
-619,605	800,000	0,038	0,085
-618,590	170,816	0,050	0,053
-617,576	-72,982	0,038	-0,010
-616,561	189,706	-0,081	-0,090
-615,546	-115,316	0,106	-0,015
-614,532	-200,000	0,013	-0,144
-613,517	800,000	0,008	-0,023
-612,503	-200,000	0,025	0,108
-611,488	800,000	-0,015	0,040
-610,474	65,013	-0,084	0,062
-609,459	66,789	0,041	0,030
-608,444	-165,734	0,055	-0,002
-607,430	-57,838	-0,177	0,057
-606,415	523,903	-0,026	0,045
-605,401	-200,000	0,039	-0,147
-604,386	132,494	0,043	-0,041
-603,371	216,358	-0,037	0,043
-602,357	55,275	-0,040	0,029
-601,342	-40,107	0,079	-0,030
-600,328	27,223	-0,066	0,041
-599,313	197,743	0,029	0,032
-598,298	-62,659	-0,074	-0,022
-597,284	148,501	0,104	0,103
-596,269	79,586	-0,034	0,027
-595,255	800,000	0,033	0,106
-594,240	-97,337	-0,082	-0,016
-593,225	-200,000	-0,006	-0,028
-592,211	-200,000	0,000	-0,033
-591,196	79,445	-0,014	-0,011
-590,182	99,412	0,050	-0,043
-589,167	-200,000	0,016	-0,070
-588,152	-200,000	-0,003	-0,026
-587,138	-0,438	-0,129	0,067
-586,123	-66,764	-0,077	-0,022
-585,109	366,854	0,078	-0,115
-584,094	350,733	0,073	-0,107
-583,079	275,827	0,069	-0,090
-582,065	-100,069	0,093	-0,017
-581,050	-86,817	-0,043	0,010
-580,036	767,921	0,016	0,033
-579,021	-115,133	-0,239	0,033
-578,006	147,439	-0,039	0,038
-576,992	-200,000	0,003	0,014
-575,977	800,000	0,025	-0,080
-574,963	91,442	0,160	0,132
-573,948	413,503	-0,105	0,164
-572,934	-150,888	-0,051	-0,003
-571,919	25,423	0,079	-0,048
-570,904	800,000	-0,043	-0,122
-569,890	-93,063	-0,113	0,023
-568,875	-76,101	0,065	-0,017
-567,861	30,032	-0,014	0,009
-566,846	77,118	0,026	0,021
-565,831	287,825	-0,033	0,044
-564,817	672,774	0,041	-0,078
-563,802	-79,894	-0,173	0,042
-562,788	-200,000	-0,005	0,048
-561,773	-200,000	-0,002	0,087
-560,758	83,911	0,061	0,049
-559,744	800,000	-0,046	0,146
-558,729	-200,000	-0,007	0,142
-557,715	-200,000	-0,000	0,035
-556,700	800,000	-0,014	0,035
-555,685	-128,325	-0,100	0,010
-554,671	114,397	-0,006	0,005
-553,656	-111,780	0,102	-0,015
-552,642	-39,156	0,095	0,036
-551,627	516,052	0,073	0,126
-550,612	89,984	0,043	0,035
-549,598	216,730	-0,135	-0,158
-548,583	-37,707	0,036	0,014
-547,569	44,116	-0,035	-0,024
-546,554	70,526	-0,183	0,139
-545,539	-99,217	0,063	-0,012
-544,525	251,978	0,080	-0,100
-543,510	-150,037	0,044	-0,002
-542,496	653,979	0,039	-0,075
-541,481	192,384	-0,089	-0,099
-540,466	-95,250	0,053	0,010
-539,452	800,000	0,068	0,166
-538,437	-172,273	-0,115	0,003
-537,423	569,222	0,018	-0,032
-536,408	-0,514	0,134	0,070
-535,393	192,769	-0,084	-0,093
-534,379	800,000	-0,010	-0,023
-533,364	-200,000	-0,024	-0,120
-532,350	125,578	0,080	0,074
-531,335	800,000	0,017	-0,045
-530,321	800,000	0,050	-0,111
-529,306	-200,000	0,002	-0,023
-528,291	50,349	-0,035	-0,024
-527,277	-92,295	-0,085	-0,017
-526,262	442,366	-0,062	-0,101
-525,248	-200,000	-0,002	-0,058
-524,233	-144,458	0,124	-0,008
-523,218	800,000	0,074	0,185
-522,204	140,804	0,069	-0,067
-521,189	800,000	-0,055	-0,151
-520,175	212,042	0,092	-0,107
-519,160	2,060	0,091	0,048
-518,145	219,649	0,051	0,060
-517,131	-83,218	0,080	-0,019
-516,116	39,380	0,093	0,061
-515,102	274,946	-0,029	0,037
-514,087	-200,000	-0,006	0,024
-513,072	800,000	-0,044	-0,089
-512,058	-200,000	0,002	0,070
-511,043	-200,000	0,009	0,036
-510,029	-200,000	-0,019	0,178
-509,014	-200,000	-0,014	0,080
-507,999	-200,000	-0,019	-0,085
-506,985	538,671	-0,144	-0,252
-505,970	-52,408	-0,082	-0,028
-504,956	-112,069	-0,097	-0,014
-503,941	-8,953	-0,085	0,041
-502,926	105,897	0,076	0,066
-501,912	134,957	0,042	0,040
-500,897	-200,000	0,007	0,062
-499,883	-110,399	-0,108	-0,016
-498,868	-91,298	-0,037	-0,008
-497,853	116,056	-0,118	-0,106
-496,839	14,854	0,105	-0,060
-495,824	-165,814	0,100	-0,003
-494,810	-23,144	0,115	0,050
-493,795	149,174	0,007	-0,007
-492,781	-80,985	-0,085	0,020
-491,766	425,146	-0,011	0,018
-490,751	96,259	-0,058	0,049
-489,737	-64,772	-0,075	-0,022
-488,722	-46,970	-0,101	-0,036
-487,708	-200,000	0,055	0,204
-486,693	-200,000	-0,024	0,095
-485,678	-170,681	-0,054	0,001
-484,664	-100,895	0,055	0,010
-483,649	395,588	-0,065	-0,100
-482,635	350,368	0,070	0,102
-481,620	8,900	-0,113	-0,062
-480,605	-200,000	-0,029	0,105
-479,591	800,000	0,036	0,087
-478,576	724,160	-0,054	0,105
-477,562	-200,000	0,008	-0,114
-476,547	516,732	0,054	-0,092
-475,532	-200,000	-0,010	0,103
-474,518	800,000	-0,021	0,060
-473,503	-200,000	0,003	0,161
-472,489	333,455	-0,050	0,071
-471,474	-42,998	0,024	0,009
-470,459	-150,793	0,016	0,001
-469,445	50,486	-0,133	0,092
-468,430	149,991	-0,039	0,039
-467,416	800,000	0,061	-0,136
-466,401	-46,255	0,078	0,028
-465,386	-200,000	0,001	0,066
-464,372	213,813	-0,010	-0,012
-463,357	-73,714	-0,132	-0,035
-462,343	-133,320	-0,109	-0,010
-461,328	40,984	-0,054	-0,036
-460,313	-22,481	0,134	0,059
-459,299	68,622	-0,032	-0,024
-458,284	263,494	-0,014	0,018
-457,270	-200,000	-0,020	-0,196
-456,255	800,000	0,005	0,014
-455,241	-113,043	0,010	-0,001
-454,226	101,541	-0,128	-0,109
-453,211	800,000	0,099	-0,235
-452,197	192,021	-0,092	0,101
-451,182	-59,913	-0,138	0,043
-450,168	-49,823	0,102	-0,035
-449,153	73,312	-0,112	-0,086
-448,138	-18,819	-0,146	-0,066
-447,124	-36,800	0,180	-0,070
-446,109	101,900	-0,178	0,152
-445,095	164,157	0,016	-0,016
-444,080	46,509	0,064	0,043
-443,065	800,000	0,042	0,087
-442,051	406,208	0,030	0,047
-441,036	81,051	0,190	0,150
-440,022	210,279	-0,098	0,113
-439,007	-200,000	-0,025	0,114
-437,992	-57,040	0,086	-0,028
-436,978	-127,149	0,112	-0,012
-435,963	83,593	-0,121	-0,097
-434,949	-200,000	-0,014	0,077
-433,934	800,000	-0,055	-0,128
-432,919	-20,408	-0,092	0,041
-431,905	83,491	0,036	0,028
-430,890	-138,553	0,093	0,007
-429,876	-200,000	-0,007	-0,191
-428,861	-82,962	0,073	-0,017
-427,846	-200,000	-0,005	-0,078
-426,832	-69,204	0,061	0,017
-425,817	-82,489	-0,116	-0,027
-424,803	-200,000	-0,007	-0,115
-423,788	165,982	0,097	-0,101
-422,773	-54,616	-0,121	-0,040
-421,759	-131,142	0,058	-0,006
-420,744	308,466	0,011	-0,015
-419,730	800,000	-0,034	0,091
-418,715	800,000	0,039	-0,110
-417,701	-200,000	-0,016	-0,121
-416,686	53,649	0,096	-0,067
-415,671	58,082	0,092	-0,066
-414,657	-200,000	0,052	0,183
-413,642	-200,000	0,009	-0,119
-412,628	2,012	0,035	0,019
-411,613	-200,000	-0,015	-0,050
-410,598	-16,274	-0,082	-0,038
-409,584	20,895	0,080	-0,047
-408,569	70,016	0,051	-0,038
-407,555	10,612	0,057	-0,032
-406,540	414,868	0,025	0,040
-405,525	-13,872	0,088	0,042
-404,511	36,943	0,027	-0,017
-403,496	436,649	-0,033	0,053
-402,482	423,240	-0,045	0,072
-401,467	-200,000	-0,022	-0,080
-400,452	800,000	0,021	0,054
-399,438	-34,376	-0,131	-0,052
-398,423	-134,437	0,184	-0,016
-397,409	94,977	-0,037	-0,031
-396,394	-200,000	-0,015	-0,105
-395,379	-200,000	-0,019	-0,072
-394,365	-60,000	-0,069	-0,021
-393,350	-200,000	0,022	0,088
-392,336	-138,412	0,038	-0,003
-391,321	-78,069	-0,078	0,020
-390,306	7,724	-0,081	-0,044
-389,292	-50,767	0,073	-0,025
-388,277	-200,000	-0,016	-0,105
-387,263	800,000	-0,007	-0,014
-386,248	250,052	0,143	0,177
-385,233	-200,000	-0,030	0,121
-384,219	-19,954	-0,053	-0,024
-383,204	-49,482	0,138	0,048
-382,190	-5,586	-0,061	-0,031
-381,175	-52,326	0,102	-0,034
-380,160	-176,546	0,061	0,001
-379,146	-200,000	-0,006	0,067
-378,131	-64,543	-0,060	0,018
-377,117	653,114	0,007	0,013
-376,102	51,641	-0,146	-0,101
-375,088	366,488	-0,054	0,079
-374,073	-28,795	-0,140	-0,059
-373,058	92,540	0,122	0,100
-372,044	-200,000	0,003	0,118
-371,029	478,166	0,044	0,072
-370,015	-200,000	0,024	0,112
-369,000	138,749	-0,056	-0,054
-367,985	96,632	0,082	-0,068
-366,971	-77,119	0,074	-0,019
-365,956	-200,000	0,018	0,155
-364,942	-200,000	-0,003	0,100
-363,927	-81,599	-0,021	-0,005
-362,912	18,348	0,041	-0,024
-361,898	-200,000	-0,006	-0,186
-360,883	-71,717	0,136	0,037
-359,869	377,855	-0,118	0,177
-358,854	-163,838	-0,078	0,003
-357,839	800,000	0,082	0,174
-356,825	467,883	0,048	-0,079
-355,810	-28,891	0,049	-0,020
-354,796	290,189	0,071	0,094
-353,781	178,803	0,112	-0,120
-352,766	229,825	0,090	-0,107
-351,752	-200,000	0,018	0,095
-350,737	-200,000	0,001	-0,070
-349,723	-200,000	-0,018	0,068
-348,708	168,058	0,082	-0,085
-347,693	-200,000	-0,027	0,118
-346,679	-38,160	-0,105	-0,040
-345,664	-3,653	0,021	0,010
-344,650	-200,000	0,013	0,058
-343,635	321,658	-0,069	-0,096
-342,620	-200,000	0,053	0,185
-341,606	239,043	-0,030	-0,037
-340,591	800,000	-0,052	0,105
-339,577	591,881	-0,056	-0,100
-338,562	-41,660	-0,024	-0,009
-337,548	-104,746	-0,056	0,009
-336,533	-200,000	-0,005	-0,085
-335,518	-53,169	-0,098	0,033
-334,504	-200,000	-0,014	-0,088
-333,489	-49,343	0,058	-0,020
-332,475	800,000	0,065	-0,177
-331,460	19,265	-0,082	-0,048
-330,445	127,682	-0,056	-0,052
-329,431	800,000	0,030	-0,070
-328,416	-44,569	0,052	-0,019
-327,402	172,589	0,101	0,106
-326,387	75,821	0,041	-0,031
-325,372	800,000	0,055	-0,146
-324,358	88,302	0,035	0,029
-323,343	107,964	-0,086	-0,075
-322,329	12,125	0,125	0,070
-321,314	-134,505	0,157	0,014
-320,299	176,917	0,026	-0,028
-319,285	-200,000	-0,004	0,139
-318,270	-200,000	0,020	-0,108
-317,256	-80,007	-0,068	-0,017
-316,241	-200,000	0,023	-0,085
-315,226	65,715	-0,173	0,127
-314,212	134,917	0,138	0,131
-313,197	-200,000	0,005	0,050
-312,183	-149,503	-0,072	-0,004
-311,168	-13,548	-0,097	-0,045
-310,153	753,874	-0,037	-0,072
-309,139	-200,000	-0,005	-0,018
-308,124	800,000	-0,086	0,207
-307,110	147,383	0,072	-0,071
-306,095	346,127	-0,017	0,024
-305,080	81,495	-0,045	-0,035
-304,066	800,000	0,040	0,108
-303,051	-84,064	-0,111	0,026
-302,037	316,982	-0,100	-0,138
-301,022	583,951	-0,090	0,162
-300,008	800,000	0,047	0,113
-298,993	-200,000	0,015	0,054
-297,978	-200,000	-0,007	0,098
-296,964	405,728	0,079	0,122
-295,949	-130,780	-0,044	0,004
-294,935	58,464	-0,073	-0,052
-293,920	654,596	0,082	-0,154
-292,905	20,338	-0,159	0,093
-291,891	82,561	0,027	-0,022
-290,876	-14,683	0,037	-0,017
-289,862	96,769	-0,072	-0,060
-288,847	315,707	-0,145	0,199
-287,832	-200,000	-0,002	-0,007
-286,818	150,632	-0,065	-0,065
-285,803	25,250	-0,052	-0,031
-284,789	-200,000	-0,026	0,123
-283,774	191,956	0,043	-0,047
-282,759	118,412	-0,019	-0,017
-281,745	341,546	0,017	-0,024
-280,730	-117,245	0,087	-0,011
-279,716	-200,000	0,004	0,101
-278,701	58,671	0,191	0,136
-277,686	800,000	0,037	0,075
-276,672	-178,511	0,121	0,002
-275,657	-128,328	-0,051	0,005
-274,643	136,265	0,055	0,052
-273,628	800,000	-0,058	-0,167
-272,613	291,503	0,042	0,056
-271,599	-200,000	0,003	-0,077
-270,584	66,807	0,141	0,104
-269,570	733,938	-0,046	0,090
-268,555	71,314	0,094	0,071
-267,540	-200,000	-0,003	0,027
-266,526	800,000	0,015	0,044
-265,511	98,446	0,150	-0,125
-264,497	224,486	-0,022	0,026
-263,482	112,983	0,019	-0,017
-262,467	-17,863	0,092	0,042
-261,453	-36,607	-0,088	-0,034
-260,438	-200,000	0,004	0,112
-259,424	-200,000	-0,026	0,123
-258,409	594,167	0,037	0,067
-257,395	-152,763	0,057	-0,003
-256,380	-200,000	-0,030	-0,212
-255,365	800,000	-0,056	0,122
-254,351	-200,000	0,025	0,113
-253,336	15,845	-0,106	-0,060
-252,322	-67,930	-0,095	-0,027
-251,307	-200,000	-0,008	-0,120
-250,292	28,146	0,100	0,061
-249,278	193,072	0,032	0,035
-248,263	-200,000	0,032	-0,138
-247,249	-200,000	0,004	0,075
-246,234	235,354	-0,053	-0,063
-245,219	-110,073	0,025	0,004
-244,205	-200,000	0,001	0,078
-243,190	-65,809	0,095	0,027
-242,176	-200,000	0,033	-0,122
-241,161	-200,000	0,003	0,019
-240,146	100,931	0,067	-0,057
-239,132	45,402	0,156	0,104
-238,117	593,955	0,004	0,007
-237,103	-200,000	0,128	0,000
-236,088	-200,000	0,021	-0,238
-235,073	36,782	0,080	-0,051
-234,059	240,371	0,060	0,073
-233,044	800,000	-0,014	-0,033
-232,030	621,453	0,031	-0,057
-231,015	-4,738	-0,046	0,023
-230,000	47,012	-0,125	-0,084
-228,986	31,763	0,027	0,017
-227,971	800,000	0,033	-0,073
-226,957	111,912	-0,051	0,044
-225,942	-79,158	0,007	0,002
-224,927	25,079	0,072	0,043
-223,913	-92,793	-0,198	0,040
-222,898	169,146	0,079	0,082
-221,884	-84,788	0,075	-0,017
-220,869	503,488	0,059	0,100
-219,855	800,000	-0,018	0,038
-218,840	800,000	0,019	0,053
-217,825	250,923	0,036	0,045
-216,811	57,327	0,061	-0,043
-215,796	39,514	-0,023	-0,015
-214,782	-92,129	-0,040	-0,008
-213,767	-95,105	-0,041	0,008
-212,752	11,903	0,133	-0,074
-211,738	800,000	-0,011	-0,032
-210,723	-200,000	0,022	-0,086
-209,709	-1,703	-0,164	0,083
-208,694	199,322	0,049	0,054
-207,679	29,183	0,085	0,052
-206,665	691,881	0,025	0,048
-205,650	263,193	0,020	0,025
-204,636	162,741	0,073	0,074
-203,621	25,179	-0,139	-0,084
-202,606	281,346	-0,095	0,123
-201,592	-200,000	0,024	-0,081
-200,577	-119,532	0,085	0,011
-199,563	-80,203	0,025	-0,006
-198,548	-115,147	0,137	0,019
-197,533	-200,000	-0,017	-0,070
-196,519	-200,000	-0,042	0,172
-195,504	-200,000	0,000	-0,028
-194,490	-200,000	-0,004	-0,159
-193,475	-97,847	0,056	-0,010
-192,460	411,329	-0,044	-0,068
-191,446	-200,000	-0,006	0,039
-190,431	475,321	-0,017	0,029
-189,417	-17,000	-0,067	-0,031
-188,402	800,000	0,027	0,075
-187,387	-46,997	-0,033	-0,012
-186,373	201,572	-0,079	-0,088
-185,358	24,642	-0,046	0,027
-184,344	-200,000	-0,017	0,088
-183,329	181,554	-0,045	0,048
-182,315	-200,000	0,010	-0,103
-181,300	-32,033	0,034	0,014
-180,285	-200,000	0,014	0,101
-179,271	-200,000	-0,003	-0,070
-178,256	107,006	-0,113	-0,097
-177,242	-200,000	0,008	-0,049
-176,227	134,574	0,129	-0,121
-175,212	-200,000	-0,002	0,079
-174,198	-200,000	0,001	-0,033
-173,183	367,525	-0,126	-0,185
-172,169	-63,251	-0,112	0,033
-171,154	572,264	0,037	0,065
-170,139	283,453	0,053	0,069
-169,125	262,734	0,013	-0,016
-168,110	-73,266	-0,086	0,023
-167,096	514,097	0,045	-0,077
-166,081	439,583	0,044	0,070
-165,066	800,000	0,052	-0,159
-164,052	-200,000	0,009	0,053
-163,037	198,380	0,059	-0,065
-162,023	-200,000	-0,012	0,059
-161,008	22,363	0,038	0,022
-159,993	-200,000	0,008	-0,053
-158,979	275,908	0,038	0,049
-157,964	-200,000	-0,039	0,160
-156,950	-107,846	0,104	-0,016
-155,935	-66,239	-0,185	0,053
-154,920	-84,786	0,122	-0,027
-153,906	-1,799	0,155	-0,078
-152,891	-104,608	-0,096	0,016
-151,877	-200,000	-0,001	0,109
-150,862	-200,000	-0,007	-0,031
-149,847	-113,528	-0,030	-0,004
-148,833	800,000	0,041	-0,114
-147,818	-200,000	0,026	-0,235
-146,804	101,855	-0,127	-0,107
-145,789	101,939	0,112	-0,094
-144,775	-22,901	-0,037	0,016
-143,760	800,000	-0,017	-0,039
-142,745	-29,344	-0,089	-0,036
-141,731	172,388	-0,079	0,082
-140,716	-117,720	0,012	0,002
-139,702	-1,971	0,165	0,083
-138,687	140,633	-0,056	0,053
-137,672	-200,000	-0,024	-0,100
-136,658	76,991	-0,125	-0,096
-135,643	19,403	0,086	-0,050
-134,629	283,769	-0,046	-0,060
-133,614	-200,000	-0,024	0,142
-132,599	-119,237	0,100	0,012
-131,585	800,000	0,034	0,080
-130,570	-200,000	0,006	-0,154
-129,556	-200,000	0,010	-0,139
-128,541	800,000	-0,051	0,102
-127,526	62,857	0,095	-0,069
-126,512	216,161	0,059	-0,068
-125,497	800,000	-0,022	0,062
-124,483	26,785	-0,111	0,067
-123,468	-126,496	-0,054	0,006
-122,453	-91,974	-0,112	-0,023
-121,439	-200,000	-0,025	-0,154
-120,424	-138,087	-0,077	0,006
-119,410	72,738	0,122	0,091
-118,395	-114,056	0,084	-0,012
-117,380	800,000	-0,045	0,118
-116,366	-10,664	-0,081	0,038
-115,351	156,744	0,062	0,062
-114,337	-101,370	0,062	-0,011
-113,322	800,000	-0,012	-0,024
-112,307	-131,375	-0,052	0,005
-111,293	174,684	0,027	-0,029
-110,278	473,164	-0,106	0,173
-109,264	-200,000	0,009	0,230
-108,249	800,000	0,018	-0,038
-107,234	-94,085	-0,049	0,010
-106,220	155,717	0,031	-0,031
-105,205	8,720	0,149	-0,081
-104,191	51,742	0,042	0,029
-103,176	-200,000	-0,025	0,140
-102,162	116,187	0,080	-0,071
-101,147	154,979	-0,055	-0,055
-100,132	-12,755	-0,150	0,070
-99,118	-168,961	-0,058	0,002
-98,103	-114,449	0,105	0,014
-97,089	205,786	0,096	-0,108
-96,074	-80,497	0,094	-0,023
-95,059	698,697	0,025	-0,048
-94,045	30,652	-0,078	-0,048
-93,030	800,000	-0,021	-0,061
-92,016	27,054	-0,095	-0,057
-91,001	800,000	0,015	0,041
-89,986	800,000	0,035	0,071
-88,972	132,513	0,072	-0,067
-87,957	135,746	-0,051	0,047
-86,943	-200,000	-0,007	0,077
-85,928	-48,646	-0,070	-0,024
-84,913	50,340	-0,133	0,090
-83,899	-200,000	0,017	-0,078
-82,884	-72,202	0,118	0,031
-81,870	800,000	0,018	0,038
-80,855	296,045	-0,019	-0,026
-79,840	-8,998	-0,101	-0,049
-78,826	748,521	-0,028	-0,055
-77,811	100,815	-0,119	-0,100
-76,797	-200,000	0,008	-0,095
-75,782	-129,369	-0,037	-0,004
-74,767	3,045	0,029	0,015
-73,753	89,277	-0,070	-0,056
-72,738	517,731	0,059	-0,100
-71,724	-200,000	0,004	-0,059
-70,709	-200,000	-0,022	-0,083
-69,694	800,000	0,034	0,091
-68,680	49,494	0,065	-0,044
-67,665	157,783	-0,028	-0,028
-66,651	-129,069	0,044	-0,004
-65,636	800,000	0,005	-0,013
-64,622	800,000	-0,056	0,126
-63,607	226,003	0,026	-0,031
-62,592	-19,114	0,037	0,016
-61,578	17,552	0,114	0,065
-60,563	558,901	0,070	0,123
-59,549	71,887	0,093	0,070
-58,534	53,832	-2,249	-1,554
-57,519	581,264	-1,019	-1,807
-56,505	-200,000	-0,190	-4,249
-55,490	800,000	0,872	1,960
-54,476	800,000	5,342	11,312
-53,461	-200,000	22,577	348,091
-52,446	800,000	757,050	2281,748
-51,432	501,047	1639,164	2734,578
-50,417	63,864	1606,722	1161,271
-49,403	15,288	1356,389	763,877
-48,388	9,613	1195,952	650,503
-47,373	21,406	1177,301	687,232
-46,359	14,059	1164,012	650,624
-45,344	7,770	1159,500	623,341
-44,330	7,712	1157,481	622,002
-43,315	7,643	1155,946	620,884
-42,300	7,653	1154,586	620,167
-41,286	7,662	1153,709	619,707
-40,271	7,622	1152,966	619,127
-39,257	7,635	1152,085	618,678
-38,242	7,685	1151,218	618,386
-37,227	7,700	1150,075	617,806
-36,213	7,707	1148,834	617,142
-35,198	7,698	1147,954	616,610
-34,184	7,691	1147,471	616,297
-33,169	7,585	1146,127	615,140
-32,154	7,614	1145,527	614,905
-31,140	7,619	1144,585	614,393
-30,125	7,683	1143,517	614,045
-29,111	7,626	1142,569	613,291
-28,096	7,642	1141,592	612,803
-27,082	7,559	1140,563	611,906
-26,067	7,593	1139,846	611,630
-25,052	7,626	1138,997	611,278
-24,038	7,636	1138,296	610,913
-23,023	7,592	1137,479	610,283
-22,009	7,537	1136,773	609,668
-20,994	7,564	1135,938	609,299
-19,979	7,579	1135,330	609,007
-18,965	7,524	1134,531	608,343
-17,950	7,535	1133,553	607,836
-16,936	7,568	1132,938	607,608
-15,921	7,476	1132,185	606,827
-14,906	7,484	1131,368	606,395
-13,892	7,564	1130,544	606,236
-12,877	7,531	1129,783	605,677
-11,863	7,520	1129,050	605,218
-10,848	7,418	1128,358	604,434
-9,833	7,444	1127,647	604,127
-8,819	7,403	1127,082	603,645
-7,804	7,415	1126,220	603,202
-6,790	7,424	1125,337	602,739
-5,775	7,371	1124,892	602,278
-4,760	7,389	1123,914	601,799
-3,746	7,411	1123,119	601,434
-2,731	7,444	1122,358	601,125
-1,717	7,403	1121,708	600,600
-0,702	7,381	1120,644	599,922
0,313	11,210	1047,254	575,098
1,327	26,395	551,876	331,238
2,342	39,777	96,645	62,286
3,356	-2,182	14,867	7,484
4,371	-12,985	4,278	1,995
5,386	4,870	2,151	1,135
6,400	58,601	1,215	0,857
7,415	-97,189	0,705	0,131
8,429	-65,147	0,698	0,201
9,444	-80,062	0,558	0,134
10,459	-45,568	0,730	0,258
11,473	-41,898	0,671	0,246
12,488	-42,971	0,551	0,200
13,502	-65,788	0,670	0,191
14,517	-52,035	0,508	0,169
15,531	-80,836	0,625	0,148
16,546	-99,557	0,446	0,080
17,561	-121,681	0,397	-0,047
18,575	-40,947	0,783	0,290
19,590	-94,283	0,658	0,128
20,604	-69,983	0,574	0,156
21,619	-11,159	0,316	0,149
22,634	-120,506	0,485	-0,058
23,648	-123,593	0,409	0,046
24,663	-168,652	0,579	0,015
25,677	-65,244	0,575	0,165
26,692	-160,185	0,558	0,021
27,707	-126,000	0,529	0,056
28,721	-105,916	0,361	0,058
29,736	-60,617	0,457	0,138
30,750	-137,258	0,595	0,048
31,765	-77,919	0,441	0,108
32,780	-198,862	0,626	0,002
33,794	-161,359	0,514	0,019
34,809	-50,228	0,528	0,178
35,823	-70,517	0,535	0,144
36,838	-140,058	0,507	0,038
37,853	-111,866	0,353	0,051
38,867	-186,346	0,534	-0,005
39,882	-172,803	0,594	0,013
40,896	-31,901	0,485	0,194
41,911	-18,685	0,445	0,198
42,926	-27,375	0,534	0,222
43,940	-66,493	0,421	0,119
44,955	-114,806	0,513	-0,069
45,969	-185,833	0,398	0,004
46,984	-74,264	0,468	0,120
47,999	-173,203	0,647	0,014
49,013	-121,016	0,549	-0,065
50,028	-101,530	0,564	0,097
51,042	-63,956	0,554	0,161
52,057	-145,987	0,554	0,035
53,071	-99,970	0,459	0,081
54,086	-57,135	0,437	0,137
55,101	-140,165	0,582	0,043
56,115	-40,125	0,399	0,148
57,130	-31,163	0,397	0,160
58,144	-95,780	0,387	0,073
59,159	-122,327	0,556	0,064
60,174	-24,779	0,525	0,223
61,188	-46,292	0,672	0,235
62,203	-99,478	0,451	0,080
63,217	-171,195	0,618	0,015
64,232	-49,820	0,413	0,139
65,247	-172,166	0,523	0,012
66,261	-21,167	0,493	0,215
67,276	60,027	0,402	0,284
68,290	-55,263	0,501	0,160
69,305	-54,686	0,643	0,207
70,320	-32,196	0,570	0,227
71,334	-90,672	0,594	0,122
72,349	-57,398	0,537	0,168
73,363	-95,065	0,530	0,101
74,378	-133,455	0,414	0,037
75,393	-101,824	0,592	0,101
76,407	-94,405	0,580	0,112
77,422	-92,276	0,607	0,121
78,436	-150,113	0,577	0,031
79,451	-57,749	0,573	0,178
80,466	-83,291	0,482	0,110
81,480	-89,824	0,425	0,088
82,495	-38,405	0,593	0,223
83,509	-47,015	0,502	0,174
84,524	-117,646	0,583	0,074
85,539	-111,132	0,707	0,102
86,553	11,648	0,585	0,320
87,568	-60,757	0,462	0,139
88,582	-76,339	0,465	0,116
89,597	-127,904	0,535	0,054
90,611	-59,176	0,623	0,191
91,626	-104,691	0,590	0,096
92,641	7,718	0,405	0,216
93,655	-117,545	0,534	0,068
94,670	-83,318	0,608	0,138
95,684	-83,758	0,468	0,106
96,699	-94,107	0,602	0,117
97,714	-93,720	0,679	0,132
98,728	-97,607	0,533	0,098
99,743	-36,240	0,466	0,178
100,757	-102,758	0,525	0,088
101,772	-61,850	0,509	0,151
102,787	-10,160	0,470	0,222
103,801	-57,086	0,537	0,168
104,816	22,299	0,405	0,235
105,830	-73,830	0,737	0,190
106,845	-21,546	0,525	0,227
107,860	-58,319	0,593	0,183
108,874	-47,731	0,508	0,175
109,889	-118,204	0,501	0,063
110,903	-100,156	0,491	0,086
111,918	-74,396	0,595	0,152
112,933	-20,681	0,531	0,231
113,947	-143,033	0,648	0,044
114,962	-54,499	0,520	0,167
115,976	-104,933	0,740	0,120
116,991	-91,676	0,521	0,105
118,006	-72,797	0,505	0,131
119,020	-135,268	0,544	0,046
120,035	-28,843	0,551	0,225
121,049	-114,198	0,610	0,083
122,064	-52,310	0,549	0,180
123,079	-21,275	0,404	0,175
124,093	-176,377	0,495	-0,009
125,108	-107,388	0,505	0,078
126,122	-92,527	0,561	0,111
127,137	-105,094	0,570	0,092
128,151	-73,627	0,500	0,129
129,166	8,281	0,625	0,333
130,181	-88,116	0,646	0,137
131,195	-119,847	0,708	0,086
132,210	-125,934	0,523	0,055
133,224	51,939	0,389	0,263
134,239	-87,038	0,516	0,111
135,254	-41,094	0,565	0,207
136,268	-165,040	0,474	0,015
137,283	-94,683	0,606	0,116
138,297	-94,251	0,508	0,098
139,312	-70,324	0,515	0,138
140,327	-43,460	0,537	0,192
141,341	-73,369	0,452	0,117
142,356	-157,960	0,551	0,023
143,370	-16,275	0,518	0,233
144,385	-106,548	0,565	0,089
145,400	3,058	0,464	0,239
146,414	-53,183	0,506	0,164
147,429	-13,520	0,404	0,185
148,443	-101,974	0,656	0,111
149,458	5,138	0,553	0,288
150,473	1,290	0,601	0,306
151,487	-101,093	0,590	0,102
152,502	-122,909	0,475	0,054
153,516	-47,596	0,447	0,153
154,531	-101,698	0,615	0,105
155,546	-6,735	0,480	0,231
156,560	-104,209	0,570	0,093
157,575	-13,215	0,559	0,257
158,589	32,405	0,415	0,254
159,604	-78,479	0,602	0,145
160,619	-153,935	0,490	-0,023
161,633	-149,017	0,599	0,034
162,648	-51,358	0,535	0,177
163,662	-80,061	0,624	0,147
164,677	-8,402	0,618	0,294
165,692	42,280	0,664	0,427
166,706	-76,779	0,562	0,138
167,721	-133,732	0,443	-0,039
168,735	-82,129	0,589	0,135
169,750	-30,768	0,494	0,197
170,764	-96,821	0,506	0,093
171,779	-108,689	0,607	0,091
172,794	-90,213	0,499	0,102
173,808	52,831	0,400	0,271
174,823	37,016	0,441	0,276
175,837	-4,214	0,524	0,256
176,852	-12,647	0,520	0,239
177,867	-59,357	0,591	0,179
178,881	-60,890	0,513	0,153
179,896	54,372	0,457	0,311
180,910	21,213	0,418	0,240
181,925	-110,755	0,608	0,088
182,940	-200,000	0,595	0,001
183,954	76,388	0,485	0,364
184,969	-67,847	0,584	0,160
185,983	-82,392	0,669	0,153
186,998	-57,777	0,604	0,186
188,013	-88,932	0,586	0,122
189,027	-89,242	0,666	0,138
190,042	-108,217	0,497	0,075
191,056	-93,891	0,544	0,105
192,071	-20,105	0,503	0,219
193,086	62,232	0,607	0,428
194,100	20,452	0,521	0,297
195,115	-27,682	0,571	0,233
196,129	-71,140	0,618	0,163
197,144	-185,223	0,483	-0,005
198,159	-94,335	0,583	0,112
199,173	3,815	0,469	0,242
200,188	-1,118	0,607	0,303
201,202	-47,979	0,486	0,165
202,217	-79,461	0,517	0,123
203,232	-112,482	0,497	0,069
204,246	-57,644	0,579	0,178
205,261	3,723	0,421	0,217
206,275	-63,948	0,562	0,161
207,290	-27,852	0,518	0,211
208,304	-76,900	0,532	0,130
209,319	-67,851	0,566	0,155
210,334	-79,289	0,552	0,131
211,348	25,243	0,357	0,209
212,363	-39,187	0,516	0,190
213,377	-66,694	0,581	0,161
214,392	-17,575	0,505	0,223
215,407	-61,916	0,547	0,161
216,421	-41,471	0,679	0,245
217,436	-38,841	0,543	0,201
218,450	-12,359	0,492	0,226
219,465	-86,050	0,469	0,101
220,480	-115,472	0,520	0,068
221,494	-29,298	0,478	0,192
222,509	-41,330	0,580	0,210
223,523	-119,749	0,512	0,062
224,538	-96,985	0,580	0,106
225,553	-114,909	0,619	0,082
226,567	-37,273	0,575	0,216
227,582	-45,849	0,550	0,190
228,596	-45,417	0,657	0,228
229,611	-27,294	0,575	0,235
230,626	-94,663	0,615	0,117
231,640	-43,686	0,583	0,206
232,655	-82,209	0,471	0,107
233,669	-80,437	0,634	0,148
234,684	14,704	0,308	0,169
235,699	-71,279	0,551	0,145
236,713	-39,392	0,539	0,198
237,728	-58,062	0,615	0,188
238,742	-80,593	0,549	0,128
239,757	-77,243	0,498	0,121
240,772	-31,242	0,479	0,189
241,786	-39,542	0,488	0,179
242,801	-79,497	0,536	0,127
243,815	5,334	0,441	0,229
244,830	-55,942	0,497	0,155
245,844	-70,830	0,579	0,153
246,859	20,854	0,423	0,241
247,874	-80,250	0,485	0,113
248,888	-11,267	0,400	0,185
249,903	-33,420	0,592	0,230
250,917	-22,571	0,506	0,215
251,932	-1,956	0,481	0,237
252,947	-49,871	0,514	0,171
253,961	-30,684	0,633	0,251
254,976	-52,948	0,474	0,153
255,990	-52,091	0,562	0,182
257,005	-8,027	0,441	0,209
258,020	-46,169	0,610	0,210
259,034	65,774	0,551	0,392
260,049	-69,268	0,711	0,191
261,063	-55,249	0,471	0,148
262,078	-51,041	0,386	0,127
263,093	21,910	0,420	0,240
264,107	-91,916	0,573	0,113
265,122	30,038	0,462	0,277
266,136	-60,830	0,647	0,191
267,151	-42,578	0,502	0,179
268,166	-44,959	0,540	0,188
269,180	-72,003	0,541	0,140
270,195	-83,029	0,619	0,139
271,209	-62,983	0,542	0,157
272,224	-34,517	0,573	0,220
273,239	-124,456	0,618	0,067
274,253	47,062	0,411	0,268
275,268	-60,601	0,597	0,177
276,282	-148,079	0,475	0,027
277,297	-62,153	0,511	0,149
278,312	1,941	0,516	0,260
279,326	6,367	0,519	0,270
280,341	-161,168	0,602	0,022
281,355	21,270	0,521	0,296
282,370	-29,421	0,564	0,225
283,384	8,101	0,472	0,248
284,399	-59,967	0,481	0,143
285,414	79,843	0,430	0,324
286,428	-46,765	0,563	0,192
287,443	21,028	0,440	0,250
288,457	-62,084	0,551	0,160
289,472	8,900	0,521	0,275
290,487	-148,836	0,435	0,024
291,501	-145,192	0,487	0,030
292,516	-24,080	0,558	0,233
293,530	-1,608	0,583	0,287
294,545	-46,629	0,526	0,180
295,560	-49,432	0,488	0,162
296,574	-41,383	0,562	0,202
297,589	-152,288	0,532	0,027
298,603	-48,588	0,535	0,179
299,618	-81,546	0,563	0,129
300,633	-73,831	0,598	0,151
301,647	-43,278	0,555	0,196
302,662	-38,624	0,514	0,189
303,676	28,546	0,514	0,304
304,691	-40,176	0,564	0,205
305,706	-1,761	0,480	0,236
306,720	-97,781	0,557	0,100
307,735	11,103	0,437	0,233
308,749	-40,216	0,547	0,198
309,764	-77,052	0,565	0,137
310,779	33,176	0,531	0,322
311,793	-66,721	0,450	0,124
312,808	-25,946	0,575	0,236
313,822	-42,075	0,583	0,208
314,837	8,767	0,450	0,237
315,852	-47,707	0,679	0,229
316,866	-49,458	0,622	0,206
317,881	-63,171	0,553	0,159
318,895	-40,697	0,436	0,157
319,910	-13,546	0,558	0,252
320,925	-80,196	0,466	0,108
321,939	-94,068	0,545	0,104
322,954	-103,580	0,588	0,096
323,968	-64,825	0,645	0,181
324,983	20,709	0,521	0,294
325,997	-1,488	0,481	0,237
327,012	-27,158	0,552	0,224
328,027	-46,229	0,404	0,138
329,041	-15,334	0,542	0,241
330,056	11,305	0,535	0,286
331,070	-91,509	0,639	0,126
332,085	-48,045	0,591	0,199
333,100	64,121	0,471	0,331
334,114	-111,116	0,509	0,072
335,129	-139,678	0,400	0,029
336,143	-46,575	0,654	0,223
337,158	-26,647	0,484	0,197
338,173	-57,882	0,596	0,181
339,187	8,139	0,474	0,248
340,202	9,351	0,522	0,275
341,216	-119,389	0,470	0,056
342,231	-90,869	0,534	0,107
343,246	-76,945	0,508	0,123
344,260	-15,160	0,560	0,250
345,275	-60,685	0,585	0,172
346,289	-46,393	0,621	0,212
347,304	-44,481	0,424	0,147
348,319	-21,133	0,445	0,189
349,333	-143,965	0,488	0,032
350,348	-82,134	0,533	0,120
351,362	-100,583	0,566	0,097
352,377	-95,035	0,493	0,092
353,392	-13,937	0,513	0,230
354,406	14,006	0,556	0,301
355,421	196,789	1305,409	1389,768
356,435	150,951	1464,849	1390,234
