DTS Sentinel unit serial number:	SN410029Multiplexer serial number:	ORYXHardware model number:	OX2-SRSoftware version number:	ORYX F/W v4,00 Oryx Data Collector v3.7.2.0data status	okinstallation	B3 Nyhavnadifferential loss correction	single-endedforward channel	channel 1reverse channel	N/Adate	2023/11/28time	14:17:30forward acquisition time	300,00reverse acquisition time	0,00gamma	499,1914k internal	0,3143k external	0,3143temperature offset calibration	1,0000default loss term (dB/km)	0,3820temperature slope calibration	1,0000multiplexer offset coefficient	1,0000multiplexer slope coefficient	1,0000fibre end	0,00T internal ref (°C)	7,51T ext. ref 1 (°C)	-7,63T ext. ref 2 (°C)	-7,80length (m)	temperature (°C)	Stokes	anti-Stokes-744,400	54,732	-0,280	-0,200
-743,385	-200,000	-0,051	0,207
-742,371	14,995	-0,155	-0,090
-741,356	-200,000	0,057	0,406
-740,342	770,375	-0,119	-0,241
-739,327	-200,000	-0,085	0,313
-738,312	289,749	-0,207	-0,278
-737,298	800,000	-0,089	0,253
-736,283	437,077	-0,215	-0,348
-735,269	-200,000	0,001	0,443
-734,254	367,051	-0,140	-0,210
-733,239	-6,394	-0,260	0,131
-732,225	-78,728	-0,161	-0,040
-731,210	-200,000	-0,009	0,126
-730,196	-200,000	-0,023	-0,110
-729,181	393,441	-0,067	0,104
-728,167	689,543	-0,050	0,096
-727,152	-29,556	0,038	-0,016
-726,137	570,020	-0,032	0,058
-725,123	-200,000	0,003	0,026
-724,108	415,038	-0,121	-0,191
-723,094	779,278	-0,088	-0,179
-722,079	36,903	-0,158	-0,103
-721,064	800,000	0,035	-0,105
-720,050	240,608	-0,063	0,078
-719,035	-64,125	0,045	0,014
-718,021	402,781	-0,020	0,032
-717,006	37,010	-0,157	-0,103
-715,991	-200,000	0,047	-0,187
-714,977	-200,000	-0,006	-0,120
-713,962	66,673	-0,067	-0,050
-712,948	-141,851	0,057	0,004
-711,933	378,809	0,100	-0,152
-710,918	795,153	0,004	0,008
-709,904	201,995	0,051	-0,058
-708,889	138,454	0,067	-0,065
-707,875	-84,610	-0,064	-0,015
-706,860	-126,630	0,061	-0,007
-705,845	-200,000	-0,015	0,090
-704,831	-59,558	-0,025	0,008
-703,816	-200,000	-0,012	-0,079
-702,802	-37,842	0,119	-0,047
-701,787	800,000	-0,064	-0,152
-700,772	103,842	0,113	-0,098
-699,758	189,142	-0,101	-0,112
-698,743	800,000	0,037	0,091
-697,729	-10,701	0,137	-0,067
-696,714	800,000	-0,038	-0,096
-695,699	-200,000	0,006	-0,073
-694,685	-200,000	0,020	-0,068
-693,670	-157,458	-0,236	0,010
-692,656	-44,589	-0,081	0,030
-691,641	-200,000	0,002	0,061
-690,627	353,901	0,036	-0,054
-689,612	-200,000	-0,004	-0,051
-688,597	88,107	-0,186	-0,153
-687,583	-120,301	-0,256	-0,032
-686,568	253,880	-0,127	-0,161
-685,554	-1,995	-0,130	-0,067
-684,539	32,833	0,178	-0,114
-683,524	-51,046	-0,070	-0,024
-682,510	-200,000	-0,007	0,232
-681,495	-47,866	-0,085	-0,030
-680,481	-200,000	0,045	0,190
-679,466	-112,374	-0,039	-0,006
-678,451	-200,000	0,015	-0,135
-677,437	800,000	0,041	-0,131
-676,422	286,989	0,059	0,079
-675,408	-200,000	0,000	-0,017
-674,393	530,941	0,029	0,051
-673,378	225,205	0,033	0,039
-672,364	154,211	-0,104	-0,105
-671,349	-34,854	-0,119	-0,048
-670,335	-200,000	-0,006	-0,025
-669,320	197,866	-0,068	0,077
-668,305	-22,709	0,069	-0,031
-667,291	427,672	0,010	-0,016
-666,276	800,000	-0,042	-0,114
-665,262	-12,388	-0,147	-0,070
-664,247	-200,000	0,016	0,069
-663,232	-143,576	-0,143	-0,010
-662,218	345,197	0,056	0,082
-661,203	47,535	0,073	-0,050
-660,189	42,479	0,147	0,098
-659,174	159,977	-0,044	-0,045
-658,159	-149,697	-0,170	-0,010
-657,145	800,000	0,063	-0,178
-656,130	-87,142	-0,069	0,015
-655,116	-129,078	0,038	0,004
-654,101	-200,000	-0,003	0,059
-653,086	-200,000	0,009	-0,071
-652,072	-141,333	0,057	0,004
-651,057	-4,824	-0,081	-0,041
-650,043	-195,654	-0,150	0,001
-649,028	142,182	0,062	-0,061
-648,014	135,216	0,071	0,068
-646,999	-200,000	0,037	0,130
-645,984	200,134	0,047	0,053
-644,970	389,087	-0,059	0,090
-643,955	-200,000	0,004	-0,074
-642,941	-88,857	-0,084	0,018
-641,926	-57,303	-0,081	0,026
-640,911	-154,232	0,081	-0,004
-639,897	217,220	-0,082	0,097
-638,882	800,000	0,043	-0,094
-637,868	348,310	-0,068	-0,099
-636,853	192,544	-0,064	-0,071
-635,838	800,000	-0,039	-0,082
-634,824	-19,464	-0,073	0,033
-633,809	129,754	-0,099	0,093
-632,795	-144,108	0,142	0,010
-631,780	800,000	-0,020	-0,050
-630,765	-156,700	-0,083	-0,004
-629,751	-62,419	-0,106	0,032
-628,736	-75,970	-0,120	-0,031
-627,722	-55,721	0,099	-0,032
-626,707	-200,000	0,033	-0,158
-625,692	-200,000	-0,008	0,157
-624,678	-200,000	-0,005	-0,024
-623,663	246,944	-0,018	0,022
-622,649	190,651	-0,055	-0,061
-621,634	800,000	-0,043	-0,103
-620,619	800,000	-0,024	0,079
-619,605	317,055	-0,038	0,054
-618,590	-200,000	0,012	0,040
-617,576	800,000	-0,010	0,023
-616,561	-69,348	-0,128	0,036
-615,546	178,238	0,023	0,025
-614,532	-26,891	-0,071	0,030
-613,517	599,822	0,033	-0,060
-612,503	-37,500	0,041	-0,016
-611,488	-200,000	0,024	0,131
-610,474	-121,931	-0,108	0,013
-609,459	-132,004	0,093	-0,009
-608,444	800,000	0,013	0,028
-607,430	160,659	0,074	-0,076
-606,415	-200,000	0,039	-0,137
-605,401	52,522	0,057	-0,040
-604,386	-86,949	0,081	0,018
-603,371	-200,000	0,004	-0,067
-602,357	-200,000	0,024	-0,080
-601,342	524,327	-0,038	-0,066
-600,328	-200,000	-0,004	-0,090
-599,313	272,338	-0,034	0,044
-598,298	191,820	0,114	0,127
-597,284	268,390	-0,045	-0,058
-596,269	-135,464	0,123	0,011
-595,255	331,239	0,016	-0,023
-594,240	145,905	-0,037	0,037
-593,225	-55,581	-0,180	-0,059
-592,211	410,636	-0,050	-0,078
-591,196	-18,109	0,074	-0,034
-590,182	800,000	0,023	0,076
-589,167	-91,731	-0,138	0,029
-588,152	800,000	0,036	0,090
-587,138	509,865	-0,064	-0,110
-586,123	162,088	-0,080	-0,083
-585,109	50,209	-0,152	0,106
-584,094	-126,094	0,039	0,004
-583,079	-200,000	0,006	-0,118
-582,065	-200,000	0,027	-0,164
-581,050	-200,000	-0,016	0,084
-580,036	-200,000	0,006	-0,108
-579,021	-167,070	-0,110	-0,003
-578,006	181,060	0,042	0,045
-576,992	-42,590	-0,087	-0,032
-575,977	-140,148	0,131	0,010
-574,963	336,666	-0,019	-0,028
-573,948	-71,438	0,094	-0,026
-572,934	139,331	0,038	-0,036
-571,919	-132,885	-0,050	0,005
-570,904	-54,078	-0,159	-0,053
-569,890	800,000	0,045	-0,126
-568,875	157,570	-0,054	-0,055
-567,861	449,635	0,009	0,015
-566,846	-200,000	-0,003	0,015
-565,831	-200,000	0,016	-0,060
-564,817	800,000	-0,046	-0,107
-563,802	-200,000	0,004	-0,071
-562,788	-200,000	0,017	-0,057
-561,773	-56,254	-0,032	0,010
-560,758	800,000	0,026	0,062
-559,744	58,296	0,058	0,042
-558,729	167,351	-0,068	-0,071
-557,715	306,795	-0,018	-0,024
-556,700	-159,585	-0,103	0,004
-555,685	800,000	-0,093	-0,284
-554,671	-120,642	0,130	-0,016
-553,656	163,800	0,112	0,116
-552,642	-200,000	-0,015	0,110
-551,627	800,000	0,010	0,025
-550,612	-76,323	-0,081	-0,021
-549,598	201,128	-0,071	-0,080
-548,583	3,061	-0,093	0,050
-547,569	94,137	0,075	0,063
-546,554	102,381	0,050	0,043
-545,539	-130,122	0,037	-0,004
-544,525	51,561	-0,185	0,129
-543,510	163,212	0,049	-0,050
-542,496	211,548	0,065	-0,076
-541,481	162,845	-0,060	-0,062
-540,466	481,711	-0,034	0,056
-539,452	-77,963	-0,039	0,010
-538,437	-173,315	-0,113	-0,002
-537,423	800,000	0,038	-0,092
-536,408	120,274	0,038	0,034
-535,393	-200,000	0,008	-0,029
-534,379	800,000	-0,016	0,044
-533,364	251,044	0,046	0,058
-532,350	583,233	-0,034	0,062
-531,335	136,474	0,092	0,088
-530,321	327,783	0,109	0,154
-529,306	-200,000	-0,009	0,180
-528,291	639,694	-0,022	-0,042
-527,277	-107,491	-0,149	0,024
-526,262	-27,185	0,172	-0,073
-525,248	-129,133	0,097	-0,010
-524,233	720,700	0,030	0,058
-523,218	69,472	-0,054	-0,041
-522,204	55,030	0,045	-0,032
-521,189	800,000	-0,076	-0,163
-520,175	-84,704	-0,063	-0,014
-519,160	-21,620	-0,211	-0,094
-518,145	-112,545	-0,025	0,004
-517,131	-200,000	0,006	0,037
-516,116	-27,231	0,104	0,044
-515,102	-200,000	-0,023	0,090
-514,087	431,111	-0,087	-0,139
-513,072	-200,000	-0,025	-0,114
-512,058	259,015	0,041	0,052
-511,043	-164,610	0,028	-0,001
-510,029	-139,281	0,143	-0,011
-509,014	-67,230	0,114	0,033
-507,999	-118,304	0,087	-0,011
-506,985	201,357	-0,037	0,042
-505,970	-14,246	-0,104	-0,049
-504,956	212,501	-0,090	0,104
-503,941	800,000	0,029	0,069
-502,926	71,343	-0,116	-0,088
-501,912	78,825	-0,025	-0,019
-500,897	125,102	0,044	-0,041
-499,883	47,928	-0,074	0,051
-498,868	-200,000	-0,032	-0,148
-497,853	-200,000	-0,025	-0,278
-496,839	323,195	-0,135	-0,190
-495,824	393,147	0,072	-0,110
-494,810	-200,000	0,004	0,037
-493,795	-27,826	0,012	0,005
-492,781	800,000	0,028	-0,071
-491,766	-89,636	-0,157	-0,034
-490,751	800,000	-0,021	-0,050
-489,737	-200,000	-0,003	-0,097
-488,722	-142,412	0,218	0,015
-487,708	150,867	0,044	-0,044
-486,693	192,966	0,083	0,092
-485,678	245,688	0,076	-0,094
-484,664	800,000	-0,049	-0,119
-483,649	266,692	0,034	0,044
-482,635	644,977	0,041	-0,078
-481,620	-20,266	0,072	-0,032
-480,605	142,532	0,057	-0,056
-479,591	355,052	0,045	-0,066
-478,576	-200,000	-0,005	0,026
-477,562	-199,786	-0,126	0,000
-476,547	-200,000	-0,011	0,050
-475,532	739,880	-0,015	0,030
-474,518	40,836	0,109	-0,072
-473,503	800,000	0,038	0,087
-472,489	800,000	0,052	0,114
-471,474	350,832	-0,025	-0,036
-470,459	-42,661	-0,142	-0,053
-469,445	-200,000	0,024	-0,081
-468,430	-200,000	0,001	-0,011
-467,416	63,762	0,127	0,093
-466,401	-127,408	0,109	-0,012
-465,386	301,225	-0,028	0,037
-464,372	-61,993	-0,108	-0,033
-463,357	643,786	-0,041	-0,077
-462,343	-21,319	-0,119	0,053
-461,328	585,788	0,015	-0,026
-460,313	72,111	-0,064	0,048
-459,299	-200,000	0,009	0,044
-458,284	800,000	0,017	0,054
-457,270	-101,561	0,106	-0,019
-456,255	76,466	-0,107	-0,083
-455,241	800,000	-0,039	-0,097
-454,226	-32,795	-0,107	0,043
-453,211	-42,292	0,071	0,027
-452,197	609,852	0,049	0,089
-451,182	800,000	-0,015	-0,040
-450,168	222,494	-0,075	0,089
-449,153	-200,000	0,013	-0,099
-448,138	800,000	0,067	-0,155
-447,124	800,000	0,021	-0,062
-446,109	-59,206	-0,115	0,036
-445,095	37,859	0,172	0,112
-444,080	587,088	-0,046	0,084
-443,065	-200,000	-0,016	-0,129
-442,051	-2,672	0,045	-0,023
-441,036	78,038	-0,122	0,095
-440,022	216,765	0,068	-0,079
-439,007	-200,000	0,020	-0,068
-437,992	-90,273	0,099	0,021
-436,978	-50,265	0,110	0,038
-435,963	51,019	-0,077	-0,053
-434,949	136,042	-0,077	0,074
-433,934	268,470	0,105	0,135
-432,919	10,298	-0,045	0,025
-431,905	-200,000	-0,005	-0,058
-430,890	-48,535	0,167	-0,059
-429,876	32,299	0,055	0,035
-428,861	-200,000	0,034	0,149
-427,846	-107,246	-0,065	0,010
-426,832	13,458	-0,085	-0,048
-425,817	54,183	0,004	-0,003
-424,803	72,739	0,045	0,035
-423,788	-200,000	0,034	0,143
-422,773	-200,000	-0,001	0,094
-421,759	-130,851	0,098	-0,009
-420,744	-62,408	-0,092	-0,028
-419,730	663,481	0,078	-0,149
-418,715	116,315	-0,040	-0,036
-417,701	-200,000	-0,054	-0,187
-416,686	800,000	0,018	0,041
-415,671	-163,246	-0,062	-0,002
-414,657	-200,000	0,007	0,072
-413,642	-35,850	-0,033	-0,013
-412,628	261,862	-0,031	-0,040
-411,613	76,967	0,076	-0,059
-410,598	-68,661	0,053	-0,015
-409,584	19,997	-0,077	-0,045
-408,569	85,994	0,032	0,026
-407,555	646,585	0,061	0,115
-406,540	-119,411	-0,031	-0,004
-405,525	800,000	-0,018	-0,048
-404,511	800,000	-0,019	-0,054
-403,496	800,000	0,030	0,064
-402,482	8,563	0,093	0,051
-401,467	7,260	0,070	-0,038
-400,452	-63,450	0,074	-0,022
-399,438	-200,000	-0,004	0,074
-398,423	623,496	0,011	0,020
-397,409	31,579	-0,039	-0,024
-396,394	46,840	-0,022	-0,015
-395,379	800,000	-0,078	0,196
-394,365	6,851	0,099	-0,054
-393,350	416,572	-0,040	0,063
-392,336	800,000	0,033	0,077
-391,321	-128,989	-0,062	-0,006
-390,306	-63,017	-0,042	-0,013
-389,292	91,840	0,021	0,017
-388,277	-200,000	-0,172	0,000
-387,263	359,399	0,051	0,075
-386,248	-94,348	0,055	-0,011
-385,233	-138,571	0,217	0,017
-384,219	-200,000	-0,039	-0,128
-383,204	-200,000	-0,026	-0,096
-382,190	356,642	-0,103	-0,150
-381,175	127,462	0,030	0,028
-380,160	-200,000	0,010	0,065
-379,146	33,872	0,030	0,019
-378,131	-147,565	0,054	0,003
-377,117	261,511	-0,050	-0,064
-376,102	-200,000	-0,024	0,172
-375,088	783,580	-0,046	0,093
-374,073	48,553	0,130	-0,089
-373,058	-200,000	-0,053	-0,181
-372,044	-200,000	-0,030	0,211
-371,029	-62,543	0,113	-0,034
-370,015	-123,796	-0,134	0,015
-369,000	800,000	0,045	-0,102
-367,985	137,328	0,069	0,066
-366,971	-200,000	-0,017	-0,075
-365,956	83,734	-0,083	-0,066
-364,942	-69,827	0,028	-0,008
-363,927	363,601	-0,021	0,031
-362,912	122,891	0,070	0,064
-361,898	541,961	0,032	-0,056
-360,883	293,819	0,033	-0,043
-359,869	155,140	0,085	0,085
-358,854	800,000	-0,034	0,073
-357,839	662,883	-0,027	0,050
-356,825	-69,186	0,004	-0,001
-355,810	6,144	0,042	-0,023
-354,796	-200,000	0,018	0,059
-353,781	555,042	-0,089	0,157
-352,766	518,452	-0,063	-0,109
-351,752	177,007	-0,089	-0,095
-350,737	232,959	0,096	0,115
-349,723	-53,978	0,164	-0,054
-348,708	-6,641	-0,066	-0,033
-347,693	-107,737	-0,116	-0,018
-346,679	-200,000	-0,010	-0,034
-345,664	337,569	-0,047	-0,067
-344,650	285,534	-0,133	0,175
-343,635	624,235	0,074	0,136
-342,620	-200,000	-0,018	0,146
-341,606	-68,884	-0,104	-0,029
-340,591	96,842	-0,111	-0,093
-339,577	-109,806	0,137	-0,021
-338,562	-200,000	-0,005	0,054
-337,548	-115,189	-0,028	-0,004
-336,533	-118,091	0,058	0,007
-335,518	-179,676	0,083	-0,001
-334,504	-100,301	0,062	-0,011
-333,489	-200,000	0,002	-0,027
-332,475	-52,930	0,062	-0,021
-331,460	-200,000	0,020	-0,182
-330,445	-141,047	-0,054	-0,004
-329,431	-200,000	0,012	0,109
-328,416	-131,195	0,091	0,009
-327,402	332,853	0,114	0,162
-326,387	-200,000	0,030	0,118
-325,372	206,646	-0,083	-0,094
-324,358	-0,501	0,075	-0,039
-323,343	-37,637	0,058	0,022
-322,329	135,762	0,066	0,062
-321,314	47,980	0,075	0,051
-320,299	-84,040	-0,059	-0,013
-319,285	10,468	-0,093	0,052
-318,270	-200,000	-0,001	-0,067
-317,256	137,144	0,018	-0,017
-316,241	232,481	-0,070	0,084
-315,226	43,024	0,206	0,136
-314,212	-170,178	0,084	-0,002
-313,197	107,397	-0,024	0,021
-312,183	17,923	-0,169	0,098
-311,168	45,980	-0,036	0,024
-310,153	29,549	-0,125	-0,077
-309,139	-88,742	0,066	0,014
-308,124	-200,000	-0,014	-0,095
-307,110	-33,992	-0,024	-0,010
-306,095	-200,000	0,009	-0,053
-305,080	-200,000	0,016	0,099
-304,066	89,145	-0,090	-0,073
-303,051	122,657	-0,132	-0,121
-302,037	-99,579	0,123	0,022
-301,022	-200,000	-0,010	0,051
-300,008	-200,000	-0,001	0,063
-298,993	2,898	0,140	0,074
-297,978	105,178	0,029	0,025
-296,964	-159,688	-0,173	0,007
-295,949	-200,000	0,005	-0,050
-294,935	430,654	-0,041	-0,064
-293,920	-31,007	-0,063	0,026
-292,905	-7,920	0,087	0,043
-291,891	-200,000	-0,009	0,057
-290,876	-200,000	-0,039	0,132
-289,862	800,000	0,019	0,052
-288,847	115,482	-0,070	0,062
-287,832	-200,000	-0,005	-0,090
-286,818	800,000	-0,079	-0,221
-285,803	800,000	0,067	0,153
-284,789	-91,200	-0,051	-0,011
-283,774	266,388	0,027	-0,034
-282,759	348,768	-0,032	-0,046
-281,745	-193,380	0,113	0,001
-280,730	-191,061	0,129	-0,001
-279,716	-55,750	-0,046	-0,015
-278,701	-23,965	-0,019	0,008
-277,686	17,569	0,089	-0,051
-276,672	-200,000	0,020	-0,113
-275,657	-200,000	-0,017	0,057
-274,643	800,000	-0,039	-0,087
-273,628	-95,847	-0,119	-0,023
-272,613	-200,000	-0,017	-0,076
-271,599	-129,474	0,110	-0,011
-270,584	350,513	-0,055	-0,079
-269,570	-200,000	0,035	0,127
-268,555	-81,463	0,016	-0,004
-267,540	149,490	-0,103	-0,101
-266,526	-200,000	0,039	-0,159
-265,511	800,000	-0,021	-0,044
-264,497	-84,684	0,165	-0,038
-263,482	50,861	-0,074	0,051
-262,467	-7,490	0,128	0,063
-261,453	-1,005	-0,061	0,031
-260,438	-182,170	-0,104	-0,001
-259,424	5,146	-0,134	-0,071
-258,409	-200,000	-0,022	-0,078
-257,395	-112,214	0,102	0,015
-256,380	34,930	-0,088	0,056
-255,365	-90,427	0,175	0,037
-254,351	-2,669	-0,098	0,050
-253,336	-200,000	-0,002	-0,124
-252,322	800,000	0,013	0,034
-251,307	-200,000	0,021	0,082
-250,292	253,511	0,055	-0,068
-249,278	800,000	-0,069	-0,162
-248,263	642,283	-0,063	-0,117
-247,249	800,000	-0,060	0,171
-246,234	-200,000	0,026	0,119
-245,219	-76,861	-0,089	0,022
-244,205	-200,000	0,006	0,030
-243,190	-49,611	-0,111	-0,038
-242,176	-8,504	0,115	-0,056
-241,161	-200,000	0,012	0,180
-240,146	113,928	-0,074	-0,066
-239,132	-35,403	0,137	-0,054
-238,117	-200,000	0,001	-0,019
-237,103	-200,000	-0,004	0,080
-236,088	160,514	-0,038	0,039
-235,073	-118,714	0,163	-0,021
-234,059	-116,334	0,072	0,010
-233,044	68,615	0,097	0,072
-232,030	-153,777	0,040	0,002
-231,015	-15,568	-0,033	-0,015
-230,000	-109,929	-0,125	-0,019
-228,986	-200,000	0,000	-0,120
-227,971	-200,000	0,007	0,028
-226,957	800,000	0,033	0,075
-225,942	-61,405	0,131	0,040
-224,927	14,585	-0,062	-0,035
-223,913	-200,000	-0,010	0,064
-222,898	-143,781	-0,110	-0,007
-221,884	127,196	0,098	0,090
-220,869	65,070	-0,144	-0,106
-219,855	-131,101	0,112	-0,011
-218,840	-200,000	0,026	0,097
-217,825	-177,901	0,116	0,002
-216,811	51,700	-0,064	-0,044
-215,796	35,946	0,060	0,038
-214,782	39,511	-0,085	0,055
-213,767	-200,000	-0,010	0,050
-212,752	800,000	0,011	0,035
-211,738	130,412	-0,068	0,063
-210,723	-200,000	0,008	0,060
-209,709	-23,229	0,005	0,002
-208,694	38,767	-0,084	-0,054
-207,679	-200,000	-0,011	0,123
-206,665	-18,206	-0,135	0,061
-205,650	365,694	0,092	0,134
-204,636	243,367	0,044	0,053
-203,621	19,895	0,067	0,039
-202,606	-200,000	-0,000	-0,021
-201,592	104,823	0,045	-0,038
-200,577	154,234	0,049	0,049
-199,563	114,512	0,120	-0,106
-198,548	84,697	-0,054	-0,043
-197,533	-157,726	-0,113	0,005
-196,519	-200,000	-0,026	0,171
-195,504	-113,684	-0,159	-0,022
-194,490	800,000	0,036	0,083
-193,475	-68,083	-0,087	-0,024
-192,460	-140,792	0,137	-0,010
-191,446	-41,675	0,159	0,059
-190,431	-200,000	-0,007	0,043
-189,417	502,372	0,071	0,119
-188,402	474,830	-0,025	-0,041
-187,387	65,748	0,079	-0,058
-186,373	69,128	0,054	0,041
-185,358	-200,000	-0,019	-0,097
-184,344	-56,149	0,140	0,045
-183,329	-140,802	0,009	-0,001
-182,315	137,744	-0,069	0,065
-181,300	-200,000	0,047	-0,168
-180,285	21,022	-0,081	-0,048
-179,271	323,908	0,044	0,061
-178,256	-136,263	-0,041	0,003
-177,242	71,129	0,116	0,087
-176,227	-200,000	0,017	0,119
-175,212	-200,000	-0,020	0,122
-174,198	248,612	0,008	0,010
-173,183	378,095	-0,023	-0,035
-172,169	-200,000	-0,014	-0,047
-171,154	16,183	0,090	0,052
-170,139	532,135	0,053	0,091
-169,125	49,566	0,081	-0,055
-168,110	-200,000	-0,005	0,087
-167,096	-81,102	-0,136	0,032
-166,081	800,000	0,041	-0,096
-165,066	-200,000	-0,122	0,000
-164,052	-200,000	-0,001	-0,155
-163,037	800,000	0,070	0,155
-162,023	239,620	0,142	0,171
-161,008	336,370	-0,059	0,083
-159,993	-200,000	-0,020	-0,092
-158,979	634,573	-0,051	0,094
-157,964	800,000	0,039	0,080
-156,950	-200,000	0,008	-0,104
-155,935	-200,000	-0,000	0,108
-154,920	800,000	-0,042	0,112
-153,906	-99,631	-0,035	0,006
-152,891	-200,000	-0,026	-0,196
-151,877	-200,000	-0,003	-0,055
-150,862	313,364	-0,026	-0,036
-149,847	4,679	-0,076	0,040
-148,833	432,798	0,062	0,097
-147,818	-200,000	-0,004	-0,052
-146,804	42,885	-0,074	-0,049
-145,789	-61,394	0,057	0,017
-144,775	519,752	-0,027	0,046
-143,760	174,431	-0,029	0,031
-142,745	-79,594	0,152	-0,037
-141,731	-200,000	-0,013	0,076
-140,716	303,041	0,054	0,072
-139,702	-103,754	0,107	0,018
-138,687	-177,497	-0,126	0,002
-137,672	-200,000	-0,000	0,025
-136,658	-98,198	-0,029	0,005
-135,643	-150,182	0,054	0,003
-134,629	-200,000	-0,033	-0,164
-133,614	-120,941	-0,099	0,012
-132,599	138,588	-0,050	-0,048
-131,585	135,452	0,071	-0,067
-130,570	-200,000	-0,003	-0,017
-129,556	52,056	0,105	-0,072
-128,541	211,227	-0,042	-0,047
-127,526	-174,745	0,046	-0,001
-126,512	296,031	-0,056	0,075
-125,497	-200,000	0,017	0,159
-124,483	13,029	0,038	-0,021
-123,468	-200,000	-0,030	0,107
-122,453	-200,000	-0,023	-0,082
-121,439	-95,149	-0,030	0,006
-120,424	-200,000	0,025	-0,124
-119,410	800,000	0,041	-0,107
-118,395	-200,000	0,006	0,043
-117,380	-200,000	0,005	0,065
-116,366	-200,000	-0,013	-0,063
-115,351	-200,000	-0,037	0,148
-114,337	-72,920	-0,159	-0,042
-113,322	682,440	-0,033	0,062
-112,307	50,233	0,048	-0,033
-111,293	-82,577	-0,060	-0,014
-110,278	800,000	0,039	0,088
-109,264	800,000	0,068	-0,193
-108,249	800,000	0,008	-0,022
-107,234	98,980	-0,137	0,114
-106,220	91,441	-0,141	-0,114
-105,205	119,723	0,159	0,142
-104,191	-135,283	0,132	0,011
-103,176	182,056	-0,068	0,072
-102,162	800,000	0,033	0,085
-101,147	-200,000	0,003	0,013
-100,132	-200,000	0,000	0,077
-99,118	-71,578	0,167	0,045
-98,103	-11,117	0,005	0,002
-97,089	-54,267	0,050	0,016
-96,074	171,939	0,093	0,097
-95,059	207,816	-0,047	0,053
-94,045	-16,112	-0,073	-0,033
-93,030	36,968	-0,065	0,042
-92,016	-27,454	-0,128	-0,054
-91,001	9,008	-0,059	0,032
-89,986	-58,170	0,014	0,004
-88,972	800,000	-0,044	-0,094
-87,957	800,000	0,035	-0,072
-86,943	-95,219	-0,059	-0,011
-85,928	-41,933	-0,165	0,061
-84,913	-200,000	-0,035	-0,161
-83,899	-200,000	-0,033	-0,119
-82,884	65,898	0,016	0,012
-81,870	400,472	-0,045	0,069
-80,855	98,769	-0,128	0,107
-79,840	178,974	0,089	0,094
-78,826	800,000	0,086	-0,178
-77,811	-18,957	-0,106	-0,047
-76,797	-200,000	-0,012	-0,058
-75,782	-127,782	-0,058	-0,006
-74,767	-200,000	0,020	0,145
-73,753	-200,000	0,004	0,053
-72,738	-89,106	-0,112	0,024
-71,724	107,121	-0,070	0,060
-70,709	-200,000	-0,019	-0,102
-69,694	7,565	-0,108	-0,058
-68,680	199,082	0,151	0,167
-67,665	-121,159	0,079	0,009
-66,651	126,763	-0,064	-0,059
-65,636	205,317	0,085	0,096
-64,622	226,521	-0,070	-0,082
-63,607	-101,423	-0,114	-0,020
-62,592	-200,000	0,001	-0,013
-61,578	168,244	0,109	-0,113
-60,563	800,000	0,018	0,036
-59,549	451,493	-0,049	0,078
-58,534	63,966	-2,302	-1,667
-57,519	622,346	-1,025	-1,868
-56,505	-200,000	-0,343	-4,235
-55,490	800,000	0,797	1,909
-54,476	800,000	5,328	11,394
-53,461	-200,000	22,644	350,100
-52,446	800,000	757,152	2284,672
-51,432	500,238	1637,516	2733,342
-50,417	65,975	1564,373	1142,537
-49,403	18,459	1142,919	656,693
-48,388	10,848	866,587	475,573
-47,373	27,250	834,560	504,112
-46,359	16,778	820,141	466,523
-45,344	7,680	816,169	439,057
-44,330	7,480	814,450	437,561
-43,315	7,397	813,175	436,628
-42,300	7,392	811,776	435,848
-41,286	7,356	811,093	435,362
-40,271	7,414	810,037	434,940
-39,257	7,553	808,736	434,605
-38,242	7,523	807,938	434,078
-37,227	7,490	807,337	433,646
-36,213	7,462	806,548	433,128
-35,198	7,519	805,669	432,797
-34,184	7,612	805,078	432,717
-33,169	7,479	804,222	431,875
-32,154	7,558	803,659	431,770
-31,140	7,558	802,359	431,055
-30,125	7,653	801,467	430,818
-29,111	7,516	801,137	430,249
-28,096	7,487	800,746	429,944
-27,082	7,525	799,799	429,521
-26,067	7,584	799,036	429,255
-25,052	7,525	798,392	428,732
-24,038	7,463	798,101	428,392
-23,023	7,489	797,192	427,957
-22,009	7,630	796,665	428,040
-20,994	7,597	796,120	427,641
-19,979	7,605	795,225	427,163
-18,965	7,531	794,837	426,738
-17,950	7,560	794,405	426,567
-16,936	7,469	793,767	425,964
-15,921	7,498	793,149	425,692
-14,906	7,429	792,343	425,057
-13,892	7,448	791,945	424,878
-12,877	7,483	791,335	424,626
-11,863	7,388	790,985	424,167
-10,848	7,341	790,463	423,745
-9,833	7,528	789,928	423,944
-8,819	7,525	789,141	423,497
-7,804	7,563	788,482	423,227
-6,790	7,471	788,282	422,858
-5,775	7,511	787,941	422,764
-4,760	7,475	787,415	422,369
-3,746	7,470	786,949	422,088
-2,731	7,199	786,293	420,994
-1,717	7,269	785,901	420,955
-0,702	7,273	785,240	420,595
0,313	7,408	782,070	419,891
1,327	11,020	763,799	419,423
2,342	19,232	620,046	357,673
3,356	13,277	341,238	189,960
4,371	-15,896	230,406	105,252
5,386	-18,754	216,998	96,980
6,400	-18,876	212,749	94,983
7,415	-17,786	210,957	94,968
8,429	-19,042	209,827	93,542
9,444	-19,101	208,815	93,040
10,459	-19,259	208,594	92,820
11,473	-19,261	208,083	92,583
12,488	-19,129	207,471	92,396
13,502	-19,401	207,124	92,040
14,517	-19,055	206,687	92,084
15,531	-19,315	206,208	91,678
16,546	-19,019	205,881	91,734
17,561	-19,195	205,715	91,527
18,575	-18,845	205,419	91,635
19,590	-19,312	204,989	91,105
20,604	-19,063	204,961	91,260
21,619	-19,145	204,513	90,995
22,634	-19,356	204,267	90,729
23,648	-19,402	204,053	90,594
24,663	-19,228	203,762	90,578
25,677	-19,001	203,459	90,595
26,692	-19,107	203,418	90,494
27,707	-19,250	203,134	90,260
28,721	-19,142	202,816	90,186
29,736	-19,114	202,576	90,091
30,750	-19,163	202,366	89,955
31,765	-19,252	202,251	89,834
32,780	-19,303	202,027	89,691
33,794	-18,982	201,648	89,737
34,809	-19,087	201,576	89,625
35,823	-19,258	201,432	89,434
36,838	-19,178	201,141	89,352
37,853	-19,154	200,908	89,258
38,867	-19,076	200,694	89,208
39,882	-19,039	200,676	89,218
40,896	-19,237	200,426	88,962
41,911	-19,228	200,318	88,913
42,926	-18,919	200,002	88,976
43,940	-19,199	199,706	88,645
44,955	-19,179	199,574	88,592
45,969	-19,249	199,402	88,460
46,984	-19,152	199,371	88,505
47,999	-18,932	198,986	88,477
49,013	-19,194	198,926	88,263
50,028	-18,944	198,780	88,360
51,042	-19,132	198,369	88,042
52,057	-19,186	198,474	88,044
53,071	-19,112	198,251	87,988
54,086	-18,846	197,892	88,001
55,101	-18,992	197,849	87,875
56,115	-19,060	197,634	87,726
57,130	-19,120	197,571	87,649
58,144	-18,991	197,283	87,601
59,159	-19,144	197,075	87,397
60,174	-19,059	196,888	87,363
61,188	-18,975	196,524	87,251
62,203	-18,844	196,462	87,304
63,217	-19,155	196,400	87,059
64,232	-19,287	196,194	86,872
65,247	-19,289	196,020	86,785
66,261	-19,151	195,882	86,809
67,276	-18,901	195,527	86,812
68,290	-19,000	195,493	86,723
69,305	-19,184	195,365	86,535
70,320	-18,662	195,214	86,810
71,334	-19,063	194,948	86,415
72,349	-19,193	194,846	86,276
73,363	-19,335	194,636	86,080
74,378	-19,082	194,373	86,125
75,393	-18,919	194,132	86,119
76,407	-19,079	194,106	85,993
77,422	-19,075	194,031	85,955
78,436	-19,058	193,591	85,764
79,451	-19,145	193,482	85,650
80,466	-18,919	193,375	85,745
81,480	-19,159	193,290	85,541
82,495	-18,931	193,039	85,573
83,509	-18,590	192,936	85,744
84,524	-18,994	192,838	85,426
85,539	-18,994	192,574	85,302
86,553	-18,942	192,316	85,214
87,568	-19,060	192,210	85,082
88,582	-18,968	192,081	85,078
89,597	-18,832	191,895	85,077
90,611	-18,900	191,841	85,002
91,626	-18,864	191,662	84,938
92,641	-18,895	191,339	84,767
93,655	-18,841	191,296	84,776
94,670	-19,095	191,175	84,548
95,684	-19,145	191,023	84,441
96,699	-18,926	190,921	84,531
97,714	-19,082	190,760	84,351
98,728	-18,954	190,522	84,321
99,743	-18,967	190,497	84,294
100,757	-18,996	190,248	84,158
101,772	-18,972	189,964	84,040
102,787	-18,789	189,735	84,050
103,801	-18,875	189,716	83,978
104,816	-18,872	189,690	83,962
105,830	-19,037	189,411	83,723
106,845	-19,023	189,357	83,701
107,860	-18,942	189,099	83,632
108,874	-19,221	189,025	83,412
109,889	-18,924	188,726	83,464
110,903	-18,856	188,591	83,441
111,918	-19,269	188,623	83,182
112,933	-18,923	188,335	83,269
113,947	-18,969	188,324	83,227
114,962	-18,894	188,101	83,170
115,976	-18,894	187,979	83,108
116,991	-19,245	187,875	82,830
118,006	-19,092	187,566	82,784
119,020	-19,055	187,540	82,789
120,035	-18,771	187,477	82,936
121,049	-19,039	187,343	82,697
122,064	-19,020	187,141	82,613
123,079	-18,918	187,018	82,616
124,093	-18,994	186,794	82,462
125,108	-18,962	186,701	82,434
126,122	-18,852	186,384	82,356
127,137	-18,633	186,177	82,396
128,151	-18,968	186,140	82,160
129,166	-18,821	186,075	82,217
130,181	-18,830	185,752	82,062
131,195	-18,559	185,520	82,124
132,210	-19,090	185,548	81,792
133,224	-18,836	185,393	81,877
134,239	-19,055	185,278	81,681
135,254	-18,871	185,143	81,730
136,268	-18,993	184,829	81,508
137,283	-18,958	184,670	81,452
138,297	-18,803	184,565	81,496
139,312	-18,841	184,415	81,398
140,327	-18,830	184,194	81,301
141,341	-19,217	184,105	81,012
142,356	-19,236	183,895	80,900
143,370	-18,139	184,193	81,712
144,385	-11,556	185,955	86,652
145,400	-4,646	187,488	91,755
146,414	-2,966	187,723	92,930
147,429	-2,763	187,753	93,066
148,443	-2,728	187,613	93,010
149,458	-2,373	187,634	93,237
150,473	-1,961	187,621	93,484
151,487	-2,060	187,442	93,325
152,502	-2,143	187,229	93,157
153,516	-2,058	187,175	93,175
154,531	-1,861	187,150	93,280
155,546	-1,900	186,891	93,118
156,560	-1,819	186,709	93,070
157,575	-1,607	186,585	93,133
158,589	-1,891	186,462	92,885
159,604	-1,836	186,381	92,871
160,619	-1,780	186,063	92,739
161,633	-1,776	186,092	92,748
162,648	-1,703	185,934	92,707
163,662	-1,701	185,886	92,676
164,677	-1,682	185,845	92,659
165,692	-1,512	185,655	92,663
166,706	-1,672	185,660	92,557
167,721	-1,635	185,377	92,430
168,735	-1,534	185,240	92,417
169,750	-1,456	185,181	92,428
170,764	-1,445	185,099	92,386
171,779	-1,339	185,025	92,407
172,794	-1,639	184,855	92,127
173,808	-1,720	184,787	92,034
174,823	-1,530	184,554	92,028
175,837	-1,534	184,520	92,000
176,852	-1,592	184,388	91,890
177,867	-1,236	184,065	91,942
178,881	-1,210	183,915	91,875
179,896	-1,485	183,960	91,719
180,910	-1,222	183,657	91,722
181,925	-1,657	183,663	91,448
182,940	-1,613	183,627	91,449
183,954	-1,681	183,451	91,311
184,969	-1,353	183,298	91,429
185,983	-1,146	183,205	91,503
186,998	-1,257	183,081	91,364
188,013	-1,144	182,854	91,312
189,027	-1,119	182,690	91,238
190,042	-1,155	182,552	91,139
191,056	-1,087	182,348	91,070
192,071	-1,353	182,378	90,914
193,086	-1,135	182,277	90,990
194,100	-1,398	182,205	90,784
195,115	-1,110	181,937	90,819
196,129	-1,454	181,934	90,598
197,144	-1,247	181,597	90,549
198,159	-1,408	181,715	90,501
199,173	-1,227	181,481	90,487
200,188	-1,166	181,293	90,422
201,202	-1,136	181,156	90,364
202,217	-1,457	181,125	90,145
203,232	-1,377	180,942	90,095
204,246	-1,225	180,815	90,116
205,261	-1,123	180,500	90,013
206,275	-1,253	180,424	89,888
207,290	-1,094	180,443	89,986
208,304	-1,153	180,333	89,888
209,319	-1,075	180,152	89,836
210,334	-1,276	179,977	89,619
211,348	-1,134	179,765	89,592
212,363	-0,796	179,667	89,739
213,377	-1,141	179,694	89,536
214,392	-0,915	179,490	89,562
215,407	-0,677	179,487	89,697
216,421	-1,089	179,417	89,406
217,436	-1,222	179,273	89,246
218,450	-0,870	178,972	89,300
219,465	-1,113	179,055	89,187
220,480	-1,059	178,725	89,047
221,494	-0,978	178,787	89,119
222,509	-0,838	178,661	89,132
223,523	-1,097	178,563	88,920
224,538	-0,809	178,411	89,008
225,553	-1,092	178,254	88,753
226,567	-1,080	178,102	88,676
227,582	-1,090	178,013	88,619
228,596	-0,997	177,941	88,630
229,611	-0,799	177,885	88,713
230,626	-1,006	177,619	88,448
231,640	-0,850	177,546	88,497
232,655	-0,992	177,483	88,374
233,669	-0,989	177,239	88,246
234,684	-1,045	177,137	88,154
235,699	-1,004	177,130	88,167
236,713	-0,653	176,937	88,271
237,728	-0,832	176,968	88,173
238,742	-0,645	176,826	88,205
239,757	-0,675	176,575	88,054
240,772	-0,778	176,435	87,915
241,786	-0,719	176,491	87,971
242,801	-0,657	176,316	87,912
243,815	-0,875	176,224	87,730
244,830	-0,591	176,181	87,868
245,844	-0,728	175,785	87,582
246,859	-0,558	175,624	87,594
247,874	-0,829	175,701	87,465
248,888	-0,725	175,540	87,438
249,903	-0,908	175,500	87,303
250,917	-0,673	175,440	87,403
251,932	-0,826	175,381	87,276
252,947	-0,929	175,262	87,149
253,961	-0,669	174,881	87,104
254,976	-0,500	174,885	87,197
255,990	-0,954	174,870	86,916
257,005	-0,396	174,517	87,059
258,020	-0,709	174,608	86,914
259,034	-0,896	174,420	86,703
260,049	-0,702	174,278	86,738
261,063	-0,739	174,078	86,609
262,078	-0,609	174,003	86,640
263,093	-0,816	174,132	86,575
264,107	-0,591	173,723	86,495
265,122	-0,891	173,731	86,318
266,136	-0,590	173,540	86,389
267,151	-0,716	173,526	86,302
268,166	-0,708	173,395	86,233
269,180	-0,738	173,209	86,116
270,195	-0,662	173,038	86,067
271,209	-0,477	173,065	86,180
272,224	-0,304	172,831	86,156
273,239	-0,378	172,772	86,076
274,253	-0,244	172,616	86,068
275,268	-0,693	172,598	85,792
276,282	-0,451	172,382	85,816
277,297	-0,400	172,153	85,724
278,312	-0,378	172,234	85,770
279,326	-0,353	172,189	85,754
280,341	-0,587	172,100	85,567
281,355	-0,367	172,035	85,654
282,370	-0,512	171,728	85,410
283,384	-0,557	171,730	85,378
284,399	-0,428	171,585	85,372
285,414	-0,327	171,559	85,409
286,428	-0,258	171,374	85,349
287,443	-0,620	171,296	85,095
288,457	-0,395	171,126	85,132
289,472	-0,393	171,137	85,131
290,487	-0,444	170,868	84,960
291,501	-0,441	170,820	84,931
292,516	-0,334	170,764	84,956
293,530	-0,329	170,592	84,866
294,545	-0,258	170,565	84,885
295,560	-0,385	170,319	84,684
296,574	-0,460	170,222	84,585
297,589	-0,359	170,163	84,605
298,603	-0,232	169,943	84,560
299,618	-0,299	169,878	84,483
300,633	-0,273	169,755	84,429
301,647	-0,352	169,781	84,389
302,662	-0,213	169,542	84,342
303,676	0,043	169,480	84,447
304,691	-0,221	169,431	84,267
305,706	-0,083	169,207	84,226
306,720	-0,280	169,281	84,144
307,735	-0,150	169,087	84,113
308,749	-0,154	168,907	84,014
309,764	-0,404	168,878	83,851
310,779	-0,199	168,657	83,849
311,793	-0,482	168,682	83,695
312,808	-0,136	168,507	83,795
313,822	-0,021	168,408	83,803
314,837	-0,027	168,370	83,773
315,852	-0,179	168,226	83,609
316,866	-0,154	168,161	83,583
317,881	-0,104	168,027	83,537
318,895	-0,417	167,927	83,305
319,910	-0,269	167,762	83,298
320,925	-0,022	167,517	83,307
321,939	-0,270	167,481	83,143
322,954	-0,234	167,377	83,104
323,968	0,019	167,332	83,216
324,983	-0,119	167,353	83,142
325,997	-0,143	167,148	83,019
327,012	-0,267	166,992	82,865
328,027	-0,160	166,866	82,855
329,041	-0,118	166,805	82,840
330,056	-0,227	166,701	82,721
331,070	-0,184	166,624	82,699
332,085	0,066	166,382	82,710
333,100	-0,078	166,255	82,560
334,114	0,271	166,084	82,660
335,129	0,092	166,060	82,542
336,143	0,204	165,977	82,555
337,158	0,026	166,003	82,463
338,173	0,272	165,822	82,501
339,187	-0,192	165,821	82,237
340,202	0,031	165,591	82,239
341,216	-0,174	165,497	82,072
342,231	0,115	165,470	82,210
343,246	0,071	165,343	82,116
344,260	0,174	165,237	82,112
345,275	0,294	165,094	82,100
346,289	0,180	164,966	81,966
347,304	0,060	164,837	81,829
348,319	0,543	164,702	82,019
349,333	0,144	164,584	81,734
350,348	0,457	164,429	81,821
351,362	0,264	164,490	81,739
352,377	0,259	164,323	81,646
353,392	0,111	164,275	81,534
354,406	0,311	164,238	81,618
355,421	190,576	1324,939	1392,335
356,435	150,697	1466,788	1392,801
