DTS Sentinel unit serial number:	SN410029Multiplexer serial number:	ORYXHardware model number:	OX2-SRSoftware version number:	ORYX F/W v4,00 Oryx Data Collector v3.7.2.0data status	okinstallation	B3 Nyhavnadifferential loss correction	single-endedforward channel	channel 1reverse channel	N/Adate	2023/11/28time	15:42:30forward acquisition time	300,00reverse acquisition time	0,00gamma	499,1914k internal	0,3192k external	0,3192temperature offset calibration	1,0000default loss term (dB/km)	0,3820temperature slope calibration	1,0000multiplexer offset coefficient	1,0000multiplexer slope coefficient	1,0000fibre end	0,00T internal ref (°C)	7,27T ext. ref 1 (°C)	-7,61T ext. ref 2 (°C)	-7,77length (m)	temperature (°C)	Stokes	anti-Stokes-744,400	800,000	-0,159	-0,322
-743,385	-200,000	-0,033	0,265
-742,371	359,779	-0,050	-0,073
-741,356	-200,000	-0,007	0,144
-740,342	20,296	-0,255	-0,150
-739,327	-200,000	-0,024	0,190
-738,312	169,171	-0,170	-0,177
-737,298	-200,000	-0,015	0,159
-736,283	289,718	-0,188	-0,249
-735,269	-200,000	-0,022	0,328
-734,254	184,924	-0,142	-0,153
-733,239	-156,435	-0,244	0,011
-732,225	-200,000	-0,003	-0,276
-731,210	129,487	0,091	0,085
-730,196	-55,925	-0,049	0,016
-729,181	-200,000	0,054	-0,191
-728,167	-46,379	-0,111	0,040
-727,152	800,000	0,025	0,075
-726,137	135,423	0,057	0,054
-725,123	-50,251	-0,130	0,044
-724,108	800,000	-0,042	-0,128
-723,094	-116,868	-0,126	-0,017
-722,079	388,641	-0,098	-0,149
-721,064	-119,231	0,049	-0,006
-720,050	504,755	-0,053	0,090
-719,035	75,747	-0,096	0,074
-718,021	-200,000	0,009	-0,069
-717,006	53,092	-0,177	-0,123
-715,991	-200,000	-0,041	-0,163
-714,977	800,000	-0,038	-0,118
-713,962	698,138	0,053	-0,102
-712,948	133,194	0,066	0,062
-711,933	-81,100	-0,095	-0,023
-710,918	-25,790	-0,092	0,039
-709,904	-136,323	0,056	-0,005
-708,889	752,477	0,048	0,095
-707,875	181,714	0,046	-0,049
-706,860	-6,842	0,128	-0,063
-705,845	800,000	-0,069	0,143
-704,831	502,203	-0,048	0,081
-703,816	96,192	-0,042	-0,035
-702,802	-141,564	0,109	0,008
-701,787	-200,000	0,034	-0,153
-700,772	-200,000	0,035	-0,187
-699,758	-64,064	-0,041	-0,012
-698,743	-200,000	-0,029	0,111
-697,729	-72,452	0,032	0,009
-696,714	-98,435	-0,086	-0,016
-695,699	-92,073	-0,163	0,033
-694,685	-200,000	0,002	-0,090
-693,670	90,286	0,078	-0,063
-692,656	37,329	0,021	0,014
-691,641	356,842	-0,078	0,113
-690,627	7,718	0,064	-0,035
-689,612	-200,000	0,013	-0,059
-688,597	-200,000	0,022	-0,079
-687,583	265,086	-0,144	-0,183
-686,568	-200,000	0,000	-0,052
-685,554	237,514	-0,081	-0,098
-684,539	-178,155	0,148	0,002
-683,524	557,299	-0,085	-0,149
-682,510	8,944	-0,093	0,051
-681,495	93,677	0,048	-0,039
-680,481	-130,461	-0,036	-0,003
-679,466	573,906	-0,061	0,109
-678,451	-200,000	-0,008	-0,038
-677,437	19,072	-0,064	-0,037
-676,422	201,626	-0,041	0,046
-675,408	-57,364	0,015	-0,005
-674,393	-200,000	-0,013	0,048
-673,378	-65,411	-0,112	-0,032
-672,364	-200,000	-0,026	-0,099
-671,349	-200,000	0,016	-0,136
-670,335	-61,435	-0,074	-0,022
-669,320	-200,000	0,004	-0,023
-668,305	269,218	-0,084	0,107
-667,291	-6,112	0,200	-0,099
-666,276	226,502	-0,139	-0,164
-665,262	98,110	-0,102	-0,085
-664,247	220,651	-0,026	-0,030
-663,232	-94,316	0,103	-0,020
-662,218	547,434	0,038	-0,066
-661,203	-200,000	-0,033	0,140
-660,189	22,119	0,096	0,057
-659,174	-47,356	-0,102	0,036
-658,159	-169,905	-0,157	0,004
-657,145	-200,000	-0,003	-0,121
-656,130	800,000	-0,034	0,100
-655,116	-200,000	0,024	-0,212
-654,101	424,731	0,130	0,204
-653,086	800,000	0,005	0,010
-652,072	800,000	0,033	0,098
-651,057	677,782	0,035	0,066
-650,043	-27,006	-0,147	-0,062
-649,028	-200,000	-0,006	-0,151
-648,014	4,819	0,075	0,040
-646,999	-37,787	0,144	0,055
-645,984	-200,000	0,035	0,131
-644,970	800,000	-0,042	-0,092
-643,955	800,000	0,005	0,015
-642,941	682,805	-0,083	-0,159
-641,926	428,893	0,016	-0,025
-640,911	23,973	-0,090	-0,054
-639,897	120,997	0,041	0,037
-638,882	-200,000	0,007	-0,127
-637,868	118,772	0,081	0,072
-636,853	-200,000	-0,026	0,109
-635,838	88,134	-0,028	-0,022
-634,824	32,609	-0,151	0,095
-633,809	800,000	0,023	-0,064
-632,795	64,841	-0,082	0,060
-631,780	-57,296	-0,032	-0,010
-630,765	800,000	-0,052	0,163
-629,751	187,866	0,018	0,020
-628,736	-200,000	-0,019	-0,139
-627,722	-88,113	-0,072	-0,015
-626,707	-200,000	-0,004	-0,067
-625,692	26,538	-0,041	0,025
-624,678	-71,320	-0,057	0,015
-623,663	438,974	-0,063	-0,100
-622,649	25,082	-0,041	0,025
-621,634	399,883	-0,086	-0,131
-620,619	92,279	0,044	-0,036
-619,605	-120,531	-0,181	-0,022
-618,590	-200,000	0,009	0,087
-617,576	127,109	0,023	0,021
-616,561	364,024	-0,044	0,065
-615,546	-163,750	0,026	0,001
-614,532	-162,928	-0,110	0,004
-613,517	-200,000	0,014	-0,048
-612,503	378,458	0,026	0,038
-611,488	14,882	-0,132	0,075
-610,474	64,131	0,076	-0,055
-609,459	-200,000	-0,013	-0,066
-608,444	-27,166	-0,161	0,068
-607,430	556,967	-0,148	-0,260
-606,415	63,287	-0,046	-0,033
-605,401	-69,179	-0,046	0,013
-604,386	800,000	0,047	-0,102
-603,371	114,454	0,037	0,033
-602,357	-9,973	-0,050	0,024
-601,342	-200,000	0,014	0,091
-600,328	800,000	-0,054	-0,127
-599,313	20,387	-0,078	-0,046
-598,298	-104,605	0,088	0,014
-597,284	800,000	0,061	0,136
-596,269	-200,000	-0,025	0,106
-595,255	-116,061	-0,020	-0,003
-594,240	800,000	0,026	-0,068
-593,225	28,641	-0,081	-0,050
-592,211	256,046	-0,031	-0,038
-591,196	-200,000	0,004	-0,122
-590,182	386,346	0,064	0,096
-589,167	252,270	0,028	0,034
-588,152	32,917	-0,062	-0,039
-587,138	355,703	-0,129	-0,187
-586,123	24,978	0,047	0,028
-585,109	216,739	-0,044	-0,050
-584,094	800,000	-0,053	0,117
-583,079	-200,000	0,002	-0,055
-582,065	800,000	0,015	0,030
-581,050	-124,912	0,058	-0,006
-580,036	9,530	-0,165	-0,090
-579,021	-29,738	-0,150	-0,062
-578,006	49,667	-0,170	-0,116
-576,992	-13,896	0,103	0,048
-575,977	-23,301	-0,136	0,059
-574,963	161,764	0,088	0,089
-573,948	157,167	0,067	0,067
-572,934	-56,767	-0,042	0,013
-571,919	54,351	-0,097	0,068
-570,904	-23,482	0,081	-0,035
-569,890	592,813	-0,091	-0,163
-568,875	-200,000	-0,014	0,082
-567,861	-200,000	-0,031	0,160
-566,846	297,806	0,110	0,146
-565,831	74,985	0,058	0,044
-564,817	-200,000	-0,006	-0,035
-563,802	-31,685	-0,037	-0,015
-562,788	-200,000	0,001	-0,075
-561,773	29,976	0,219	-0,135
-560,758	-50,440	0,189	0,064
-559,744	800,000	-0,012	0,031
-558,729	800,000	0,091	0,256
-557,715	800,000	-0,034	-0,083
-556,700	780,312	0,050	-0,099
-555,685	-24,048	0,087	0,037
-554,671	-200,000	0,005	0,108
-553,656	135,950	-0,065	0,062
-552,642	-127,360	-0,047	0,005
-551,627	-200,000	-0,023	0,115
-550,612	-75,308	0,091	0,023
-549,598	-200,000	-0,010	-0,078
-548,583	-200,000	-0,013	-0,091
-547,569	61,013	0,126	-0,090
-546,554	218,892	0,056	-0,065
-545,539	463,676	-0,042	0,069
-544,525	334,600	-0,037	-0,052
-543,510	46,752	0,066	-0,044
-542,496	-200,000	0,011	-0,116
-541,481	66,779	0,041	-0,030
-540,466	-200,000	0,015	-0,092
-539,452	-57,192	0,110	-0,035
-538,437	-200,000	-0,003	0,040
-537,423	-40,480	0,084	0,031
-536,408	-71,276	0,069	0,018
-535,393	800,000	-0,075	0,166
-534,379	-200,000	0,017	-0,089
-533,364	471,938	-0,044	0,072
-532,350	314,523	0,051	0,070
-531,335	800,000	-0,035	0,107
-530,321	182,713	0,097	0,104
-529,306	358,912	-0,021	-0,031
-528,291	-46,260	-0,098	0,035
-527,277	324,081	-0,081	-0,112
-526,262	573,197	-0,040	-0,071
-525,248	13,070	0,054	0,030
-524,233	57,513	-0,041	-0,029
-523,218	800,000	-0,007	-0,019
-522,204	145,473	0,047	0,046
-521,189	800,000	0,063	-0,137
-520,175	-91,619	0,033	-0,007
-519,160	102,251	-0,067	-0,057
-518,145	-200,000	0,004	0,046
-517,131	-200,000	0,048	0,000
-516,116	75,052	-0,086	0,066
-515,102	-200,000	0,010	-0,177
-514,087	9,441	-0,051	-0,028
-513,072	4,275	-0,084	0,044
-512,058	-134,147	-0,097	0,009
-511,043	294,206	0,094	-0,124
-510,029	800,000	0,019	0,054
-509,014	204,211	0,044	0,050
-507,999	-116,432	0,055	0,007
-506,985	11,321	0,030	0,017
-505,970	-200,000	0,012	-0,052
-504,956	800,000	0,046	-0,107
-503,941	-19,747	0,157	-0,070
-502,926	103,829	-0,048	-0,040
-501,912	5,527	0,149	-0,079
-500,897	214,702	0,033	-0,038
-499,883	60,668	-0,130	0,093
-498,868	-68,548	-0,029	-0,008
-497,853	24,692	-0,032	0,019
-496,839	-76,399	0,163	-0,041
-495,824	160,590	0,040	0,040
-494,810	453,243	0,032	0,051
-493,795	-200,000	-0,014	0,075
-492,781	317,154	-0,046	0,062
-491,766	47,357	0,097	0,065
-490,751	47,523	0,079	-0,053
-489,737	-82,670	0,091	0,021
-488,722	105,412	0,020	0,017
-487,708	507,014	0,008	0,014
-486,693	800,000	0,015	0,033
-485,678	-42,754	-0,089	0,033
-484,664	-200,000	-0,002	0,061
-483,649	800,000	0,030	-0,087
-482,635	-88,260	0,153	0,033
-481,620	-9,702	0,093	0,044
-480,605	-80,233	-0,012	-0,003
-479,591	800,000	-0,039	0,098
-478,576	-200,000	0,029	-0,094
-477,562	418,438	-0,031	-0,049
-476,547	79,501	-0,066	-0,051
-475,532	206,821	-0,127	0,143
-474,518	130,533	-0,098	-0,090
-473,503	339,292	-0,085	0,119
-472,489	-200,000	-0,024	0,173
-471,474	-12,924	-0,073	0,034
-470,459	-22,686	-0,051	0,022
-469,445	-200,000	-0,018	-0,225
-468,430	209,690	-0,055	-0,062
-467,416	84,218	0,086	-0,068
-466,401	-89,939	-0,041	0,009
-465,386	-1,312	-0,187	-0,095
-464,372	800,000	-0,025	-0,051
-463,357	800,000	0,036	-0,086
-462,343	-200,000	-0,004	-0,058
-461,328	-67,083	0,102	0,029
-460,313	4,711	0,074	0,039
-459,299	137,055	0,037	-0,035
-458,284	800,000	-0,020	0,059
-457,270	300,047	0,074	-0,099
-456,255	-98,278	-0,051	0,009
-455,241	336,177	-0,129	0,181
-454,226	-200,000	0,002	-0,045
-453,211	155,961	-0,047	-0,047
-452,197	-200,000	-0,019	0,097
-451,182	690,661	0,082	-0,155
-450,168	397,487	-0,036	-0,055
-449,153	505,089	0,036	-0,060
-448,138	443,954	0,078	-0,124
-447,124	176,222	-0,089	-0,094
-446,109	4,272	0,075	-0,040
-445,095	240,142	0,035	0,042
-444,080	-49,280	0,120	-0,041
-443,065	91,515	0,075	0,060
-442,051	-200,000	-0,007	0,162
-441,036	-121,519	0,052	-0,006
-440,022	45,819	-0,098	-0,065
-439,007	-110,198	0,033	0,005
-437,992	-151,444	0,068	0,004
-436,978	-101,587	0,100	-0,017
-435,963	800,000	0,018	0,044
-434,949	58,373	0,091	-0,064
-433,934	487,488	0,033	0,055
-432,919	800,000	-0,056	0,147
-431,905	23,930	-0,102	-0,060
-430,890	96,216	-0,050	-0,041
-429,876	-165,262	0,122	0,004
-428,861	184,416	0,038	-0,041
-427,846	800,000	-0,023	-0,068
-426,832	800,000	-0,026	-0,075
-425,817	-200,000	0,078	0,000
-424,803	-97,249	0,062	0,012
-423,788	800,000	-0,061	-0,141
-422,773	127,090	0,117	0,107
-421,759	451,589	0,043	0,068
-420,744	162,579	-0,065	0,066
-419,730	-200,000	0,053	-0,246
-418,715	285,120	-0,071	-0,092
-417,701	-200,000	0,016	0,064
-416,686	-42,563	-0,057	0,021
-415,671	-140,394	0,105	-0,008
-414,657	219,435	-0,036	0,042
-413,642	-199,311	-0,051	-0,000
-412,628	465,187	-0,004	0,006
-411,613	-200,000	-0,013	-0,051
-410,598	599,939	0,025	-0,046
-409,584	87,798	-0,174	0,138
-408,569	-19,066	0,115	-0,051
-407,555	-130,172	0,145	0,014
-406,540	107,899	0,036	0,031
-405,525	-200,000	0,010	0,072
-404,511	35,910	0,036	-0,023
-403,496	800,000	-0,030	0,065
-402,482	-125,252	-0,057	-0,006
-401,467	4,305	0,099	0,052
-400,452	-27,012	-0,157	-0,066
-399,438	251,703	0,108	0,133
-398,423	624,049	-0,070	0,127
-397,409	240,590	0,090	-0,109
-396,394	-130,077	-0,043	0,004
-395,379	-36,211	0,142	0,055
-394,365	-200,000	-0,002	0,102
-393,350	-200,000	-0,015	0,080
-392,336	-200,000	0,033	0,192
-391,321	800,000	-0,016	-0,035
-390,306	-124,878	-0,112	-0,012
-389,292	-33,059	0,066	0,026
-388,277	-141,694	-0,017	-0,001
-387,263	266,281	0,016	0,020
-386,248	48,064	0,146	0,098
-385,233	72,917	-0,040	0,030
-384,219	-74,885	-0,097	-0,025
-383,204	17,783	-0,075	-0,043
-382,190	-176,617	-0,210	0,004
-381,175	-200,000	0,004	-0,016
-380,160	638,620	0,044	0,080
-379,146	800,000	0,051	0,115
-378,131	800,000	-0,014	-0,035
-377,117	-200,000	0,004	0,069
-376,102	-147,883	-0,084	-0,005
-375,088	75,441	-0,120	-0,091
-374,073	79,083	-0,052	0,040
-373,058	-200,000	-0,017	0,077
-372,044	-54,457	0,127	-0,041
-371,029	-164,978	0,138	0,004
-370,015	-200,000	0,004	0,193
-369,000	-200,000	-0,005	-0,110
-367,985	-122,986	-0,076	-0,009
-366,971	-200,000	-0,058	-0,223
-365,956	800,000	-0,024	-0,065
-364,942	-8,944	0,140	-0,067
-363,927	-16,183	-0,085	-0,039
-362,912	320,136	0,115	0,157
-361,898	-39,536	0,050	0,019
-360,883	8,946	-0,109	-0,059
-359,869	401,514	0,043	0,065
-358,854	-200,000	0,008	-0,050
-357,839	130,727	0,070	0,064
-356,825	247,838	0,026	0,031
-355,810	-168,610	0,101	0,003
-354,796	-134,243	0,068	0,006
-353,781	-200,000	0,025	0,096
-352,766	-94,423	-0,036	-0,007
-351,752	-200,000	-0,007	0,042
-350,737	47,711	-0,063	-0,042
-349,723	-118,789	-0,039	0,005
-348,708	-185,878	0,044	0,000
-347,693	320,507	-0,015	-0,020
-346,679	-93,276	-0,088	-0,017
-345,664	-200,000	0,000	-0,064
-344,650	-113,381	0,209	-0,029
-343,635	319,673	0,046	-0,062
-342,620	-49,501	0,138	0,047
-341,606	-162,485	0,081	0,003
-340,591	-63,953	-0,039	0,011
-339,577	178,711	-0,084	-0,088
-338,562	800,000	-0,020	0,055
-337,548	-161,765	0,069	0,002
-336,533	33,247	-0,050	-0,031
-335,518	-14,559	0,035	0,016
-334,504	-200,000	-0,038	0,145
-333,489	58,964	-0,058	0,041
-332,475	-200,000	-0,005	-0,076
-331,460	800,000	-0,046	-0,109
-330,445	440,120	-0,073	-0,114
-329,431	-200,000	0,011	-0,043
-328,416	-56,068	0,055	0,018
-327,402	97,899	-0,165	0,136
-326,387	-67,941	-0,080	0,022
-325,372	-200,000	0,032	-0,124
-324,358	-55,706	0,055	0,017
-323,343	-107,960	-0,163	0,025
-322,329	800,000	-0,035	0,070
-321,314	35,815	-0,044	0,028
-320,299	704,532	-0,029	0,055
-319,285	-3,469	-0,091	-0,045
-318,270	550,636	-0,063	-0,109
-317,256	-200,000	-0,001	-0,058
-316,241	-192,550	-0,079	-0,001
-315,226	-125,669	0,110	-0,012
-314,212	-200,000	-0,021	-0,080
-313,197	-117,217	0,136	-0,017
-312,183	-80,367	0,080	0,019
-311,168	640,518	-0,043	-0,079
-310,153	73,068	0,078	-0,058
-309,139	176,825	0,015	0,016
-308,124	-70,185	0,041	0,011
-307,110	269,072	0,182	0,229
-306,095	-200,000	-0,011	0,114
-305,080	-200,000	-0,023	-0,117
-304,066	-200,000	-0,011	-0,148
-303,051	575,236	-0,071	0,125
-302,037	-200,000	0,012	0,109
-301,022	121,709	0,108	0,096
-300,008	378,777	-0,011	-0,016
-298,993	-97,383	0,044	0,008
-297,978	800,000	0,028	-0,073
-296,964	-200,000	-0,029	-0,099
-295,949	-200,000	0,052	-0,244
-294,935	-200,000	0,024	-0,142
-293,920	-200,000	0,005	0,024
-292,905	508,409	-0,026	0,044
-291,891	800,000	-0,023	0,058
-290,876	-25,806	-0,102	-0,043
-289,862	-200,000	-0,004	-0,070
-288,847	133,300	-0,053	-0,049
-287,832	-3,641	0,102	0,051
-286,818	-200,000	0,020	0,137
-285,803	-142,906	0,094	-0,006
-284,789	800,000	-0,045	0,107
-283,774	756,933	-0,039	0,075
-282,759	387,530	0,016	-0,024
-281,745	-86,900	-0,053	-0,012
-280,730	58,905	0,092	-0,065
-279,716	-152,062	-0,037	-0,002
-278,701	185,726	-0,064	0,068
-277,686	208,114	-0,044	0,049
-276,672	3,402	0,063	-0,033
-275,657	-2,104	-0,130	-0,065
-274,643	800,000	-0,080	-0,171
-273,628	-49,433	0,092	-0,031
-272,613	-9,591	-0,096	-0,046
-271,599	99,668	0,054	0,045
-270,584	62,614	0,113	0,081
-269,570	258,725	0,074	0,091
-268,555	-70,000	-0,050	-0,014
-267,540	800,000	-0,044	-0,129
-266,526	327,919	-0,038	-0,053
-265,511	-200,000	-0,000	-0,069
-264,497	-135,087	0,221	-0,019
-263,482	-200,000	0,003	0,082
-262,467	-84,918	0,190	-0,042
-261,453	800,000	-0,038	0,107
-260,438	-200,000	-0,007	-0,074
-259,424	-111,167	-0,109	-0,016
-258,409	800,000	0,030	0,072
-257,395	-200,000	0,028	-0,101
-256,380	43,562	-0,076	0,050
-255,365	-200,000	0,003	0,071
-254,351	42,797	-0,037	0,024
-253,336	-200,000	-0,004	0,142
-252,322	735,899	-0,015	0,030
-251,307	-102,857	-0,113	-0,019
-250,292	-51,216	0,137	0,046
-249,278	53,558	0,084	0,058
-248,263	-117,502	0,073	-0,009
-247,249	-134,041	-0,019	-0,002
-246,234	-200,000	-0,017	0,105
-245,219	546,445	0,010	0,017
-244,205	41,516	-0,073	-0,047
-243,190	456,560	-0,052	0,082
-242,176	275,935	-0,040	0,051
-241,161	-77,432	0,094	-0,023
-240,146	800,000	-0,050	-0,103
-239,132	80,538	0,093	0,072
-238,117	446,010	0,017	0,026
-237,103	-200,000	0,009	-0,184
-236,088	800,000	0,022	-0,050
-235,073	800,000	-0,031	0,071
-234,059	-200,000	0,001	-0,010
-233,044	-200,000	-0,025	0,148
-232,030	101,330	0,046	-0,038
-231,015	15,831	0,089	0,050
-230,000	782,712	-0,064	-0,126
-228,986	-144,468	-0,123	0,008
-227,971	-200,000	0,005	0,027
-226,957	185,862	0,027	-0,029
-225,942	332,275	0,046	0,064
-224,927	655,384	-0,025	-0,046
-223,913	23,331	-0,093	0,054
-222,898	-102,662	-0,068	-0,011
-221,884	-59,360	0,104	-0,032
-220,869	-171,361	0,057	0,001
-219,855	466,122	0,085	0,137
-218,840	-200,000	-0,006	0,035
-217,825	-200,000	-0,001	0,052
-216,811	495,524	-0,053	-0,087
-215,796	-200,000	0,019	-0,069
-214,782	575,428	-0,035	0,061
-213,767	-34,525	-0,038	-0,015
-212,752	-84,041	-0,103	-0,023
-211,738	-130,663	0,160	0,015
-210,723	800,000	0,053	-0,131
-209,709	74,815	-0,093	-0,070
-208,694	-200,000	0,004	-0,017
-207,679	10,420	-0,030	-0,016
-206,665	-200,000	0,010	0,038
-205,650	142,107	-0,087	0,083
-204,636	111,516	-0,063	-0,054
-203,621	-144,583	-0,116	0,008
-202,606	654,846	-0,048	-0,089
-201,592	-31,825	-0,046	0,018
-200,577	800,000	-0,019	0,042
-199,563	530,729	0,054	-0,092
-198,548	285,656	0,103	0,133
-197,533	-128,687	0,036	0,004
-196,519	11,263	-0,095	-0,052
-195,504	251,079	0,108	0,131
-194,490	-200,000	-0,020	-0,196
-193,475	800,000	-0,038	-0,107
-192,460	159,634	-0,062	0,061
-191,446	-200,000	-0,009	-0,033
-190,431	-198,649	0,077	-0,000
-189,417	-156,404	-0,168	-0,007
-188,402	532,246	0,046	0,079
-187,387	37,142	-0,081	-0,051
-186,373	390,245	-0,066	0,098
-185,358	360,198	0,062	-0,088
-184,344	72,055	0,209	0,155
-183,329	223,019	-0,020	0,024
-182,315	-200,000	0,002	0,099
-181,300	434,224	-0,040	0,063
-180,285	222,628	-0,070	0,081
-179,271	80,290	-0,040	-0,030
-178,256	438,291	0,053	-0,082
-177,242	16,560	0,090	0,051
-176,227	-79,866	-0,055	0,013
-175,212	-200,000	0,013	-0,091
-174,198	124,258	0,052	0,046
-173,183	-200,000	0,038	-0,151
-172,169	800,000	-0,035	-0,072
-171,154	-86,732	0,148	0,032
-170,139	-200,000	-0,013	0,089
-169,125	-95,541	-0,031	-0,006
-168,110	-200,000	-0,038	0,166
-167,096	-151,072	0,201	-0,011
-166,081	173,691	0,013	0,014
-165,066	42,559	-0,137	-0,089
-164,052	86,352	0,009	-0,007
-163,037	221,964	-0,079	0,091
-162,023	57,966	-0,071	0,049
-161,008	-140,772	-0,101	0,007
-159,993	-200,000	0,000	0,063
-158,979	146,796	0,033	-0,032
-157,964	632,696	-0,027	0,049
-156,950	342,261	-0,077	0,108
-155,935	170,172	-0,075	-0,077
-154,920	-200,000	0,005	0,107
-153,906	-146,995	0,126	0,008
-152,891	12,486	0,043	-0,024
-151,877	-73,808	-0,179	0,046
-150,862	-200,000	0,018	-0,140
-149,847	-200,000	0,000	0,058
-148,833	1,889	-0,047	0,024
-147,818	382,350	-0,050	0,074
-146,804	655,796	0,057	-0,105
-145,789	800,000	0,031	-0,096
-144,775	800,000	-0,034	0,101
-143,760	235,864	-0,117	-0,138
-142,745	152,501	-0,107	-0,104
-141,731	-137,996	0,051	-0,004
-140,716	-21,334	-0,031	0,013
-139,702	96,672	-0,058	0,047
-138,687	-200,000	0,019	-0,079
-137,672	-200,000	0,006	-0,074
-136,658	-200,000	0,017	-0,102
-135,643	-200,000	0,025	0,089
-134,629	-102,663	0,119	0,020
-133,614	800,000	0,015	0,032
-132,599	-200,000	0,021	0,284
-131,585	411,356	-0,037	-0,057
-130,570	9,387	0,101	-0,054
-129,556	18,994	-0,113	-0,064
-128,541	226,944	-0,062	-0,072
-127,526	758,516	0,058	-0,112
-126,512	98,627	0,027	-0,022
-125,497	212,439	-0,021	0,023
-124,483	-11,327	0,162	-0,075
-123,468	-200,000	0,000	-0,045
-122,453	173,629	-0,041	0,042
-121,439	-99,587	0,052	-0,009
-120,424	-178,683	-0,264	0,004
-119,410	-200,000	-0,029	0,125
-118,395	-62,443	0,103	-0,030
-117,380	-113,686	-0,048	-0,007
-116,366	-104,102	-0,115	0,019
-115,351	2,916	-0,079	0,041
-114,337	395,537	0,036	0,054
-113,322	1,350	-0,072	-0,037
-112,307	-28,490	-0,027	0,011
-111,293	-200,000	-0,006	0,056
-110,278	421,046	-0,006	-0,009
-109,264	-200,000	-0,002	-0,277
-108,249	164,654	-0,092	-0,093
-107,234	219,779	0,033	-0,038
-106,220	-200,000	-0,002	-0,110
-105,205	576,404	-0,078	-0,137
-104,191	-56,082	0,066	-0,021
-103,176	-7,587	0,136	0,065
-102,162	-200,000	-0,043	-0,148
-101,147	-200,000	0,010	-0,038
-100,132	-112,659	-0,071	0,010
-99,118	-200,000	0,005	-0,021
-98,103	47,130	0,142	-0,094
-97,089	129,863	-0,060	0,055
-96,074	-200,000	0,022	0,080
-95,059	321,012	0,122	0,165
-94,045	-200,000	-0,027	0,086
-93,030	384,588	-0,094	-0,138
-92,016	-105,351	-0,073	0,012
-91,001	35,974	0,128	-0,080
-89,986	-17,688	0,037	-0,016
-88,972	503,940	0,023	0,038
-87,957	36,160	0,136	-0,085
-86,943	23,986	-0,028	-0,016
-85,928	172,808	-0,016	-0,017
-84,913	-150,885	0,107	0,006
-83,899	800,000	0,047	0,109
-82,884	8,860	-0,038	-0,020
-81,870	800,000	-0,008	-0,016
-80,855	-200,000	-0,000	0,074
-79,840	-90,976	-0,107	-0,022
-78,826	-200,000	-0,029	-0,178
-77,811	72,777	-0,057	-0,042
-76,797	-71,255	0,104	0,027
-75,782	564,055	-0,069	-0,119
-74,767	-200,000	0,020	0,066
-73,753	-67,238	0,063	0,017
-72,738	-52,796	-0,070	-0,023
-71,724	629,624	-0,028	-0,050
-70,709	-200,000	-0,002	-0,059
-69,694	-4,104	-0,109	-0,054
-68,680	800,000	-0,042	-0,097
-67,665	-4,486	-0,051	-0,025
-66,651	-1,740	0,104	0,052
-65,636	800,000	-0,040	0,116
-64,622	-5,038	-0,114	-0,055
-63,607	270,398	0,039	-0,048
-62,592	-200,000	0,026	-0,184
-61,578	-34,320	0,182	0,071
-60,563	-200,000	-0,001	0,042
-59,549	800,000	-0,053	0,155
-58,534	87,195	-2,240	-1,757
-57,519	594,035	-1,084	-1,910
-56,505	-200,000	-0,230	-4,366
-55,490	800,000	0,812	1,831
-54,476	800,000	5,286	11,261
-53,461	-200,000	22,918	351,858
-52,446	800,000	758,946	2280,693
-51,432	515,342	1637,719	2725,189
-50,417	70,449	1537,639	1127,169
-49,403	22,660	1009,319	585,074
-48,388	12,232	660,978	360,224
-47,373	35,136	619,972	384,752
-46,359	19,932	604,215	344,749
-45,344	7,460	600,040	317,391
-44,330	7,194	598,282	315,917
-43,315	7,238	597,100	315,368
-42,300	7,187	595,963	314,652
-41,286	7,198	595,211	314,264
-40,271	7,210	594,388	313,842
-39,257	7,216	593,762	313,510
-38,242	7,227	593,201	313,223
-37,227	7,278	592,419	312,900
-36,213	7,199	591,862	312,436
-35,198	7,199	591,040	311,989
-34,184	7,365	590,350	311,941
-33,169	7,170	590,021	311,371
-32,154	7,347	589,337	311,347
-31,140	7,318	588,374	310,768
-30,125	7,411	587,738	310,603
-29,111	7,351	587,251	310,216
-28,096	7,268	587,177	310,001
-27,082	7,328	586,298	309,642
-26,067	7,334	585,835	309,398
-25,052	7,172	585,606	308,946
-24,038	7,266	585,316	308,965
-23,023	7,309	584,460	308,585
-22,009	7,350	584,109	308,467
-20,994	7,318	583,619	308,134
-19,979	7,270	583,223	307,819
-18,965	7,320	582,832	307,698
-17,950	7,267	582,426	307,368
-16,936	7,290	581,901	307,123
-15,921	7,293	581,408	306,858
-14,906	7,204	580,744	306,321
-13,892	7,353	580,340	306,386
-12,877	7,303	579,805	305,994
-11,863	7,100	579,792	305,580
-10,848	7,124	579,342	305,378
-9,833	7,305	579,115	305,598
-8,819	7,188	578,478	305,023
-7,804	7,398	577,877	305,100
-6,790	7,306	577,533	304,729
-5,775	7,355	577,206	304,639
-4,760	7,394	576,723	304,446
-3,746	7,179	576,464	303,882
-2,731	6,952	576,249	303,319
-1,717	6,967	575,941	303,174
-0,702	6,970	575,435	302,901
0,313	7,694	567,635	300,625
1,327	12,292	518,567	282,591
2,342	19,990	395,472	225,618
3,356	13,664	216,009	118,681
4,371	-14,918	146,835	66,533
5,386	-17,450	138,085	61,376
6,400	-17,744	135,429	60,055
7,415	-16,934	134,161	59,857
8,429	-17,787	133,204	59,039
9,444	-18,097	132,821	58,724
10,459	-17,942	132,608	58,694
11,473	-18,200	132,146	58,369
12,488	-17,837	132,134	58,522
13,502	-18,055	131,518	58,146
14,517	-18,103	131,363	58,051
15,531	-18,347	130,984	57,769
16,546	-18,364	130,942	57,738
17,561	-18,515	130,687	57,554
18,575	-18,414	130,485	57,505
19,590	-18,377	130,350	57,457
20,604	-18,148	130,192	57,483
21,619	-18,234	129,711	57,227
22,634	-18,225	129,680	57,212
23,648	-18,145	129,432	57,133
24,663	-17,897	129,311	57,183
25,677	-18,324	129,427	57,042
26,692	-17,856	129,115	57,104
27,707	-17,895	128,966	57,016
28,721	-18,094	128,720	56,816
29,736	-18,368	128,831	56,740
30,750	-18,334	128,593	56,645
31,765	-18,176	128,499	56,667
32,780	-18,340	128,364	56,531
33,794	-18,202	128,172	56,502
34,809	-18,068	127,872	56,422
35,823	-18,048	127,889	56,434
36,838	-18,267	127,753	56,274
37,853	-18,436	127,505	56,087
38,867	-18,076	127,311	56,151
39,882	-18,198	127,396	56,131
40,896	-18,149	127,247	56,081
41,911	-17,875	127,071	56,117
42,926	-17,770	126,853	56,061
43,940	-18,198	126,856	55,873
44,955	-18,493	126,812	55,723
45,969	-18,106	126,598	55,789
46,984	-18,637	126,487	55,508
47,999	-17,771	126,594	55,921
49,013	-17,896	126,213	55,694
50,028	-18,060	126,137	55,586
51,042	-18,395	125,982	55,370
52,057	-17,970	125,912	55,515
53,071	-17,951	125,664	55,409
54,086	-18,266	125,764	55,314
55,101	-18,251	125,549	55,221
56,115	-18,216	125,403	55,167
57,130	-18,351	125,259	55,041
58,144	-17,955	125,221	55,187
59,159	-18,150	125,084	55,040
60,174	-18,340	125,068	54,947
61,188	-18,505	124,968	54,829
62,203	-17,962	124,781	54,971
63,217	-17,871	124,606	54,927
64,232	-17,834	124,683	54,972
65,247	-18,166	124,457	54,728
66,261	-18,098	124,264	54,666
67,276	-17,807	124,115	54,718
68,290	-18,103	123,971	54,526
69,305	-17,875	123,978	54,619
70,320	-18,179	123,953	54,476
71,334	-18,013	123,685	54,423
72,349	-17,862	123,628	54,456
73,363	-18,159	123,471	54,258
74,378	-18,078	123,353	54,235
75,393	-17,753	123,128	54,266
76,407	-18,233	123,131	54,064
77,422	-18,176	123,152	54,092
78,436	-18,165	122,990	54,020
79,451	-18,161	122,866	53,962
80,466	-18,138	122,706	53,897
81,480	-18,330	122,443	53,698
82,495	-18,104	122,455	53,791
83,509	-17,823	122,233	53,805
84,524	-17,706	122,224	53,844
85,539	-18,100	122,179	53,657
86,553	-18,025	122,094	53,646
87,568	-18,136	121,933	53,525
88,582	-18,060	121,968	53,567
89,597	-18,208	121,640	53,357
90,611	-17,790	121,603	53,507
91,626	-17,982	121,626	53,434
92,641	-17,845	121,479	53,421
93,655	-18,006	121,344	53,291
94,670	-17,782	121,223	53,325
95,684	-18,215	121,163	53,117
96,699	-17,781	120,979	53,208
97,714	-18,182	121,014	53,055
98,728	-18,236	121,021	53,031
99,743	-17,918	120,787	53,054
100,757	-18,080	120,702	52,946
101,772	-17,912	120,501	52,921
102,787	-18,074	120,522	52,860
103,801	-17,618	120,402	52,987
104,816	-18,223	120,206	52,651
105,830	-18,016	120,297	52,771
106,845	-17,985	120,029	52,660
107,860	-17,674	119,892	52,721
108,874	-18,242	119,833	52,462
109,889	-18,078	119,732	52,479
110,903	-17,832	119,568	52,501
111,918	-18,120	119,543	52,370
112,933	-17,834	119,512	52,466
113,947	-18,024	119,556	52,405
114,962	-17,895	119,304	52,341
115,976	-17,763	119,199	52,343
116,991	-17,826	119,026	52,238
118,006	-18,183	119,082	52,115
119,020	-18,083	118,918	52,079
120,035	-18,039	118,955	52,108
121,049	-17,913	118,801	52,085
122,064	-17,944	118,617	51,988
123,079	-17,845	118,505	51,973
124,093	-17,723	118,331	51,941
125,108	-18,149	118,364	51,782
126,122	-18,074	118,302	51,780
127,137	-17,958	118,192	51,773
128,151	-18,068	118,071	51,672
129,166	-17,938	117,766	51,585
130,181	-17,880	117,850	51,640
131,195	-17,857	117,753	51,602
132,210	-17,886	117,564	51,503
133,224	-18,081	117,459	51,376
134,239	-17,804	117,450	51,477
135,254	-18,241	117,460	51,304
136,268	-17,922	117,379	51,389
137,283	-17,519	117,179	51,456
138,297	-18,017	117,021	51,187
139,312	-17,867	116,970	51,219
140,327	-17,825	116,977	51,234
141,341	-18,115	116,875	51,071
142,356	-17,725	116,601	51,099
143,370	-16,964	116,721	51,445
144,385	-11,404	117,934	54,171
145,400	-3,962	118,742	57,490
146,414	-2,296	119,077	58,309
147,429	-1,408	119,053	58,644
148,443	-1,637	118,972	58,508
149,458	-1,272	118,988	58,655
150,473	-0,814	118,802	58,740
151,487	-0,593	118,781	58,811
152,502	-1,306	118,765	58,516
153,516	-0,961	118,642	58,586
154,531	-0,861	118,493	58,547
155,546	-1,116	118,582	58,485
156,560	-0,795	118,422	58,528
157,575	-0,495	118,085	58,474
158,589	-0,802	118,248	58,428
159,604	-1,049	118,087	58,246
160,619	-0,865	118,011	58,276
161,633	-0,783	117,927	58,262
162,648	-0,665	117,953	58,315
163,662	-0,629	117,979	58,337
164,677	-0,644	117,759	58,218
165,692	-0,287	117,567	58,256
166,706	-0,574	117,683	58,197
167,721	-0,254	117,522	58,237
168,735	-0,468	117,359	58,068
169,750	-0,127	117,339	58,185
170,764	-0,324	117,244	58,056
171,779	-0,598	117,305	57,975
172,794	-0,035	117,112	58,093
173,808	-0,324	117,126	57,982
174,823	-0,714	117,042	57,784
175,837	-0,287	116,886	57,868
176,852	-0,275	116,640	57,745
177,867	-0,133	116,772	57,861
178,881	-0,309	116,623	57,713
179,896	-0,226	116,649	57,753
180,910	-0,103	116,473	57,708
181,925	-0,396	116,349	57,529
182,940	-0,398	116,195	57,447
183,954	-0,487	116,068	57,345
184,969	-0,145	116,021	57,448
185,983	-0,120	116,017	57,450
186,998	-0,439	115,981	57,305
188,013	-0,237	115,979	57,376
189,027	-0,486	115,747	57,161
190,042	-0,344	115,790	57,231
191,056	-0,170	115,513	57,156
192,071	-0,219	115,758	57,253
193,086	-0,001	115,558	57,233
194,100	-0,118	115,567	57,187
195,115	-0,266	115,323	57,005
196,129	0,134	115,150	57,067
197,144	-0,082	115,091	56,950
198,159	-0,001	114,876	56,870
199,173	0,173	114,873	56,930
200,188	0,088	114,921	56,916
201,202	-0,161	114,850	56,781
202,217	0,065	114,837	56,855
203,232	0,111	114,672	56,786
204,246	-0,088	114,553	56,646
205,261	-0,011	114,371	56,581
206,275	-0,080	114,285	56,507
207,290	-0,263	114,389	56,484
208,304	0,259	114,142	56,554
209,319	0,048	114,191	56,494
210,334	0,295	114,031	56,503
211,348	0,098	114,009	56,413
212,363	-0,344	113,996	56,234
213,377	0,274	113,859	56,395
214,392	0,145	113,771	56,297
215,407	0,437	113,715	56,375
216,421	0,203	113,538	56,194
217,436	0,228	113,577	56,217
218,450	0,370	113,342	56,149
219,465	0,028	113,429	56,059
220,480	0,208	113,272	56,044
221,494	0,112	113,188	55,961
222,509	0,240	113,303	56,062
223,523	0,054	113,055	55,864
224,538	-0,239	113,112	55,778
225,553	0,151	112,992	55,859
226,567	0,217	112,839	55,803
227,582	-0,053	112,777	55,667
228,596	0,285	112,752	55,775
229,611	0,166	112,650	55,676
230,626	0,337	112,622	55,721
231,640	-0,331	112,467	55,391
232,655	-0,078	112,408	55,451
233,669	-0,016	112,269	55,400
234,684	0,340	112,189	55,488
235,699	0,322	112,192	55,478
236,713	0,094	112,100	55,343
237,728	0,630	112,079	55,526
238,742	0,155	111,943	55,278
239,757	-0,096	111,833	55,126
240,772	0,270	111,717	55,199
241,786	0,456	111,667	55,238
242,801	0,220	111,752	55,188
243,815	0,196	111,610	55,104
244,830	0,333	111,702	55,195
245,844	0,491	111,324	55,061
246,859	0,623	111,277	55,082
247,874	0,499	111,306	55,046
248,888	0,484	111,211	54,988
249,903	0,254	111,206	54,897
250,917	0,635	111,063	54,960
251,932	0,235	111,082	54,819
252,947	0,682	110,888	54,881
253,961	0,040	110,937	54,666
254,976	0,431	110,713	54,693
255,990	0,491	110,711	54,709
257,005	0,828	110,586	54,765
258,020	0,492	110,720	54,704
259,034	0,571	110,417	54,578
260,049	0,897	110,286	54,627
261,063	0,665	110,327	54,559
262,078	0,307	110,170	54,346
263,093	0,403	110,212	54,397
264,107	0,429	110,027	54,310
265,122	0,629	110,021	54,375
266,136	0,281	109,999	54,233
267,151	1,158	109,895	54,494
268,166	0,068	109,829	54,062
269,180	0,405	109,700	54,116
270,195	0,372	109,626	54,063
271,209	0,741	109,545	54,151
272,224	0,610	109,480	54,067
273,239	0,648	109,498	54,084
274,253	0,648	109,503	54,082
275,268	0,509	109,226	53,890
276,282	0,569	109,159	53,874
277,297	0,499	109,134	53,832
278,312	0,614	109,183	53,893
279,326	0,569	109,108	53,835
280,341	0,374	108,979	53,696
281,355	0,605	108,911	53,741
282,370	0,809	108,796	53,752
283,384	0,816	108,717	53,711
284,399	1,092	108,572	53,733
285,414	0,562	108,730	53,617
286,428	0,926	108,558	53,657
287,443	0,741	108,413	53,515
288,457	0,556	108,362	53,419
289,472	1,331	108,322	53,670
290,487	0,429	108,280	53,324
291,501	1,134	108,237	53,548
292,516	1,134	108,051	53,452
293,530	0,733	108,007	53,283
294,545	1,001	108,028	53,384
295,560	1,105	108,047	53,425
296,574	0,698	107,809	53,158
297,589	1,286	107,618	53,267
298,603	1,165	107,667	53,244
299,618	0,729	107,694	53,099
300,633	1,101	107,507	53,133
301,647	0,589	107,636	53,011
302,662	1,223	107,392	53,109
303,676	0,618	107,395	52,893
304,691	1,171	107,312	53,042
305,706	0,832	107,144	52,835
306,720	0,470	107,031	52,648
307,735	1,102	107,076	52,887
308,749	0,812	106,970	52,728
309,764	0,870	106,913	52,716
310,779	1,063	106,869	52,757
311,793	0,851	106,717	52,604
312,808	0,724	106,725	52,558
313,822	0,929	106,704	52,615
314,837	1,103	106,614	52,627
315,852	0,988	106,484	52,517
316,866	0,717	106,580	52,466
317,881	1,577	106,466	52,705
318,895	1,090	106,221	52,409
319,910	1,309	106,221	52,480
320,925	0,623	106,127	52,191
321,939	1,011	105,977	52,247
322,954	0,962	106,110	52,291
323,968	1,233	105,950	52,302
324,983	0,994	105,817	52,149
325,997	0,946	105,859	52,148
327,012	0,656	105,680	51,955
328,027	0,847	105,629	51,991
329,041	1,192	105,540	52,062
330,056	1,075	105,485	51,990
331,070	1,133	105,403	51,965
332,085	1,587	105,410	52,120
333,100	1,469	105,236	51,989
334,114	0,965	105,239	51,812
335,129	1,087	105,212	51,836
336,143	1,323	105,163	51,888
337,158	0,981	105,138	51,754
338,173	1,420	104,982	51,823
339,187	1,356	104,933	51,773
340,202	0,875	104,906	51,590
341,216	0,786	104,795	51,500
342,231	1,554	104,648	51,686
343,246	1,402	104,628	51,619
344,260	1,443	104,616	51,623
345,275	1,262	104,518	51,508
346,289	1,267	104,465	51,479
347,304	1,102	104,399	51,385
348,319	0,850	104,424	51,308
349,333	0,617	104,362	51,193
350,348	1,308	104,116	51,303
351,362	1,520	104,182	51,403
352,377	1,331	104,123	51,305
353,392	1,326	104,022	51,249
354,406	1,777	103,834	51,305
355,421	198,633	1316,575	1387,575
356,435	155,583	1464,775	1388,039
