DTS Sentinel unit serial number:	SN410029Multiplexer serial number:	ORYXHardware model number:	OX2-SRSoftware version number:	ORYX F/W v4,00 Oryx Data Collector v3.7.2.0data status	okinstallation	B3 Nyhavnadifferential loss correction	single-endedforward channel	channel 1reverse channel	N/Adate	2023/11/28time	12:17:30forward acquisition time	300,00reverse acquisition time	0,00gamma	499,1914k internal	0,3141k external	0,3141temperature offset calibration	1,0000default loss term (dB/km)	0,3820temperature slope calibration	1,0000multiplexer offset coefficient	1,0000multiplexer slope coefficient	1,0000fibre end	0,00T internal ref (°C)	8,60T ext. ref 1 (°C)	-7,61T ext. ref 2 (°C)	-7,81length (m)	temperature (°C)	Stokes	anti-Stokes-744,400	457,342	-0,169	-0,279
-743,385	-200,000	-0,055	0,294
-742,371	-200,000	0,025	-0,313
-741,356	-200,000	0,030	0,250
-740,342	174,129	-0,128	-0,138
-739,327	-200,000	-0,002	0,245
-738,312	333,123	-0,228	-0,327
-737,298	-200,000	0,067	0,334
-736,283	211,456	-0,249	-0,291
-735,269	-200,000	-0,077	0,286
-734,254	143,004	-0,203	-0,200
-733,239	-153,823	-0,228	-0,011
-732,225	800,000	-0,086	-0,236
-731,210	-200,000	0,020	0,091
-730,196	779,003	-0,011	-0,023
-729,181	-200,000	-0,011	-0,134
-728,167	112,537	-0,059	-0,053
-727,152	-27,942	0,054	-0,023
-726,137	213,422	-0,053	-0,062
-725,123	-10,182	-0,062	-0,030
-724,108	-102,064	-0,068	0,012
-723,094	59,525	-0,130	-0,095
-722,079	-200,000	-0,010	-0,111
-721,064	204,266	-0,012	0,014
-720,050	39,809	0,110	0,073
-719,035	-141,841	0,054	0,004
-718,021	150,388	-0,079	-0,080
-717,006	14,201	0,033	-0,019
-715,991	-200,000	-0,019	-0,066
-714,977	-57,820	-0,151	0,049
-713,962	-35,998	0,003	0,001
-712,948	164,015	-0,005	0,005
-711,933	119,454	-0,041	-0,037
-710,918	71,799	-0,041	0,032
-709,904	800,000	-0,070	-0,171
-708,889	-94,732	0,085	-0,017
-707,875	352,570	0,095	-0,139
-706,860	73,785	0,096	0,075
-705,845	-200,000	0,008	-0,166
-704,831	163,036	0,093	-0,097
-703,816	160,180	0,091	0,094
-702,802	800,000	-0,075	0,165
-701,787	-73,527	-0,108	-0,029
-700,772	-12,756	-0,070	-0,034
-699,758	-52,086	-0,021	-0,007
-698,743	558,025	0,015	-0,027
-697,729	275,023	0,057	-0,075
-696,714	373,491	0,051	0,078
-695,699	655,007	0,037	0,071
-694,685	-200,000	-0,004	-0,075
-693,670	25,168	-0,107	-0,066
-692,656	171,631	0,046	-0,049
-691,641	-90,690	-0,165	-0,035
-690,627	-200,000	0,006	0,070
-689,612	100,238	0,061	-0,052
-688,597	254,069	0,044	0,055
-687,583	-200,000	-0,007	-0,109
-686,568	453,932	-0,077	0,127
-685,554	515,763	-0,037	-0,064
-684,539	516,672	0,056	0,097
-683,524	89,354	0,038	0,032
-682,510	32,414	0,196	0,125
-681,495	26,548	-0,079	-0,049
-680,481	-35,002	-0,105	0,042
-679,466	-145,054	-0,130	0,009
-678,451	18,293	-0,020	0,012
-677,437	-47,189	-0,059	-0,021
-676,422	-200,000	-0,004	0,034
-675,408	-200,000	0,019	-0,130
-674,393	-71,376	-0,037	0,010
-673,378	243,972	0,045	-0,056
-672,364	-178,058	-0,089	-0,002
-671,349	-200,000	-0,006	0,044
-670,335	-116,806	-0,097	0,013
-669,320	182,090	-0,049	0,054
-668,305	800,000	0,070	0,154
-667,291	-200,000	-0,001	0,044
-666,276	-200,000	-0,012	-0,078
-665,262	12,418	0,110	-0,063
-664,247	-200,000	-0,034	-0,120
-663,232	-200,000	0,016	0,070
-662,218	194,096	-0,022	0,025
-661,203	126,227	-0,028	0,026
-660,189	-129,088	-0,067	0,007
-659,174	243,122	-0,009	-0,011
-658,159	-200,000	-0,031	-0,106
-657,145	-81,403	-0,136	-0,033
-656,130	137,239	-0,073	-0,070
-655,116	800,000	0,025	-0,057
-654,101	-24,327	0,052	0,023
-653,086	326,660	0,052	-0,073
-652,072	59,059	-0,073	-0,053
-651,057	155,974	0,062	-0,063
-650,043	50,658	0,038	-0,027
-649,028	-61,779	-0,074	-0,023
-648,014	611,457	0,085	-0,158
-646,999	198,558	-0,060	0,068
-645,984	800,000	-0,036	-0,087
-644,970	134,336	0,054	-0,052
-643,955	207,396	-0,041	-0,047
-642,941	-3,241	-0,038	0,019
-641,926	37,020	-0,071	-0,046
-640,911	-71,392	0,005	-0,001
-639,897	800,000	0,023	0,050
-638,882	98,930	0,075	0,064
-637,868	-200,000	-0,022	0,073
-636,853	-200,000	0,009	-0,085
-635,838	233,310	-0,085	-0,103
-634,824	-200,000	0,001	-0,104
-633,809	0,555	0,072	0,038
-632,795	44,747	-0,078	-0,053
-631,780	241,453	-0,057	-0,071
-630,765	131,770	-0,058	0,055
-629,751	-200,000	0,029	-0,151
-628,736	-29,555	-0,074	-0,031
-627,722	28,363	-0,104	-0,065
-626,707	-83,404	0,061	-0,014
-625,692	-42,719	-0,192	0,072
-624,678	-91,725	-0,114	-0,024
-623,663	72,068	0,140	0,107
-622,649	-200,000	0,030	-0,153
-621,634	-43,678	-0,196	0,072
-620,619	-200,000	0,011	-0,115
-619,605	36,276	-0,055	0,036
-618,590	800,000	0,039	0,084
-617,576	800,000	0,033	0,079
-616,561	44,938	-0,067	-0,045
-615,546	48,138	0,087	0,060
-614,532	-109,457	-0,049	0,008
-613,517	-44,432	-0,165	0,060
-612,503	-18,844	-0,122	-0,056
-611,488	-200,000	0,004	0,024
-610,474	-178,457	-0,077	0,001
-609,459	90,206	0,115	0,095
-608,444	-200,000	0,030	0,128
-607,430	425,041	-0,092	-0,146
-606,415	58,997	-0,047	0,034
-605,401	-200,000	0,008	0,082
-604,386	-86,023	0,065	0,015
-603,371	525,845	-0,053	0,092
-602,357	63,339	-0,045	-0,033
-601,342	46,077	-0,056	0,038
-600,328	-61,085	-0,103	0,032
-599,313	299,978	-0,126	-0,171
-598,298	766,531	0,029	-0,059
-597,284	44,564	0,167	0,113
-596,269	-150,979	0,069	0,004
-595,255	589,319	-0,008	-0,014
-594,240	-87,336	0,064	-0,014
-593,225	800,000	0,061	-0,168
-592,211	-7,132	-0,072	-0,036
-591,196	352,347	-0,051	-0,074
-590,182	-200,000	-0,034	-0,163
-589,167	-200,000	0,011	-0,079
-588,152	800,000	-0,014	0,038
-587,138	-200,000	-0,029	-0,111
-586,123	-200,000	0,027	-0,135
-585,109	-200,000	-0,045	-0,193
-584,094	800,000	-0,060	-0,174
-583,079	800,000	0,015	-0,039
-582,065	-63,965	0,132	0,040
-581,050	446,336	-0,027	0,044
-580,036	108,011	-0,063	0,055
-579,021	160,164	-0,107	-0,110
-578,006	-11,455	-0,111	-0,053
-576,992	522,114	0,056	-0,097
-575,977	-101,779	-0,059	0,010
-574,963	674,539	0,045	-0,086
-573,948	403,758	0,057	-0,089
-572,934	27,947	-0,069	-0,043
-571,919	-0,942	-0,036	0,019
-570,904	240,661	0,030	-0,037
-569,890	48,263	-0,106	0,073
-568,875	-200,000	0,015	0,093
-567,861	-200,000	-0,020	0,094
-566,846	105,660	0,049	0,043
-565,831	800,000	-0,011	-0,034
-564,817	-200,000	-0,020	-0,086
-563,802	-176,730	-0,223	0,004
-562,788	670,522	0,064	-0,122
-561,773	19,590	0,140	0,083
-560,758	-200,000	-0,005	0,054
-559,744	28,264	0,098	-0,061
-558,729	451,768	0,032	0,051
-557,715	-44,740	-0,099	0,036
-556,700	-36,656	-0,060	-0,023
-555,685	-78,691	-0,101	0,025
-554,671	48,797	0,050	0,034
-553,656	263,490	-0,032	0,040
-552,642	-200,000	0,009	0,051
-551,627	160,848	-0,116	-0,119
-550,612	-200,000	0,015	0,142
-549,598	-139,646	-0,175	-0,014
-548,583	-169,395	-0,103	-0,003
-547,569	37,838	-0,045	0,029
-546,554	91,982	0,081	-0,067
-545,539	-14,643	-0,105	-0,049
-544,525	150,659	-0,030	0,030
-543,510	-0,663	-0,124	-0,064
-542,496	1,395	-0,058	0,030
-541,481	-200,000	-0,024	-0,080
-540,466	42,642	0,118	-0,079
-539,452	-5,432	0,008	0,004
-538,437	-200,000	0,041	0,151
-537,423	166,287	-0,080	-0,083
-536,408	800,000	-0,028	-0,059
-535,393	158,571	0,105	-0,108
-534,379	138,045	0,033	-0,032
-533,364	-54,956	-0,085	0,028
-532,350	226,977	-0,023	0,027
-531,335	-200,000	0,008	0,165
-530,321	-25,197	0,066	-0,028
-529,306	-37,704	0,046	0,018
-528,291	696,890	-0,056	-0,110
-527,277	31,690	-0,064	-0,040
-526,262	251,388	-0,024	-0,031
-525,248	-200,000	0,030	0,115
-524,233	58,328	-0,077	-0,056
-523,218	-200,000	-0,003	0,116
-522,204	501,980	0,030	-0,050
-521,189	-200,000	-0,003	-0,082
-520,175	-136,101	0,053	0,005
-519,160	287,380	-0,048	-0,064
-518,145	800,000	-0,025	-0,073
-517,131	330,854	-0,043	0,061
-516,116	-124,546	0,134	-0,015
-515,102	-48,370	-0,237	-0,083
-514,087	-200,000	0,012	-0,084
-513,072	-200,000	-0,003	-0,190
-512,058	208,443	-0,030	-0,035
-511,043	166,149	0,026	-0,027
-510,029	-11,380	-0,071	0,034
-509,014	58,511	-0,039	0,028
-507,999	51,356	0,127	0,089
-506,985	800,000	-0,054	-0,118
-505,970	-22,577	-0,060	0,027
-504,956	-200,000	0,015	-0,065
-503,941	-134,910	0,099	-0,009
-502,926	-127,059	0,116	0,012
-501,912	800,000	0,038	-0,101
-500,897	-82,702	0,062	0,015
-499,883	-198,192	0,047	0,000
-498,868	363,070	0,016	0,023
-497,853	64,364	-0,098	0,072
-496,839	-200,000	0,008	-0,145
-495,824	800,000	-0,014	-0,030
-494,810	-137,860	0,144	0,012
-493,795	800,000	0,063	0,129
-492,781	-11,760	0,050	0,024
-491,766	-14,986	-0,108	-0,050
-490,751	-151,610	-0,028	0,001
-489,737	-200,000	0,013	0,125
-488,722	-109,078	0,081	-0,013
-487,708	-200,000	0,027	0,110
-486,693	118,255	0,123	0,112
-485,678	-10,846	0,102	-0,049
-484,664	-200,000	0,007	0,038
-483,649	574,583	-0,015	-0,027
-482,635	104,578	-0,144	0,125
-481,620	217,271	-0,051	0,060
-480,605	-200,000	-0,030	-0,107
-479,591	-101,031	-0,121	0,021
-478,576	191,414	0,030	0,033
-477,562	800,000	0,012	0,037
-476,547	-200,000	0,007	0,055
-475,532	-102,969	0,183	-0,032
-474,518	46,465	-0,046	-0,031
-473,503	321,751	0,121	0,169
-472,489	-171,700	0,091	0,002
-471,474	-68,233	0,150	-0,043
-470,459	-3,146	-0,092	-0,047
-469,445	800,000	-0,015	-0,032
-468,430	-200,000	-0,010	0,057
-467,416	-200,000	0,014	0,073
-466,401	-200,000	0,021	0,092
-465,386	-127,992	0,063	-0,007
-464,372	-24,693	-0,027	-0,012
-463,357	-142,440	-0,109	0,008
-462,343	-52,585	0,034	-0,012
-461,328	-68,304	0,032	0,009
-460,313	601,567	-0,043	0,079
-459,299	-133,204	0,097	-0,009
-458,284	376,552	-0,026	0,039
-457,270	288,267	-0,098	-0,130
-456,255	800,000	0,029	-0,088
-455,241	-70,958	-0,095	0,026
-454,226	143,513	0,134	-0,131
-453,211	-200,000	-0,017	-0,127
-452,197	406,314	-0,027	-0,042
-451,182	-200,000	0,013	0,148
-450,168	16,622	0,058	-0,034
-449,153	-200,000	0,006	-0,095
-448,138	96,687	-0,072	-0,061
-447,124	563,159	0,041	-0,074
-446,109	264,138	0,074	0,094
-445,095	-200,000	-0,022	0,083
-444,080	-200,000	-0,015	-0,060
-443,065	-81,280	0,090	0,022
-442,051	800,000	0,041	0,088
-441,036	268,398	0,117	-0,151
-440,022	800,000	-0,071	-0,173
-439,007	-200,000	0,029	0,098
-437,992	13,348	0,128	-0,072
-436,978	-171,811	0,033	-0,001
-435,963	163,069	-0,062	0,064
-434,949	-200,000	-0,001	0,041
-433,934	79,852	0,056	0,044
-432,919	-200,000	-0,001	-0,052
-431,905	-46,630	-0,088	0,032
-430,890	94,250	0,144	0,120
-429,876	569,126	-0,057	0,101
-428,861	-19,084	0,092	0,042
-427,846	128,896	0,014	0,013
-426,832	142,146	0,053	-0,052
-425,817	-200,000	0,006	0,086
-424,803	158,655	-0,059	-0,060
-423,788	-2,175	-0,047	-0,024
-422,773	-80,172	-0,158	0,038
-421,759	-91,308	0,090	-0,019
-420,744	-123,439	-0,109	-0,013
-419,730	-200,000	-0,030	0,154
-418,715	-120,999	-0,032	0,004
-417,701	-16,950	0,111	-0,051
-416,686	-200,000	-0,014	-0,056
-415,671	-168,318	0,171	0,005
-414,657	-200,000	-0,007	0,111
-413,642	-59,372	0,171	-0,053
-412,628	800,000	-0,062	0,153
-411,613	418,815	0,036	-0,056
-410,598	508,245	-0,020	-0,034
-409,584	627,582	-0,033	0,061
-408,569	53,775	0,150	0,105
-407,555	464,527	0,021	0,035
-406,540	-200,000	-0,034	0,118
-405,525	800,000	-0,066	-0,143
-404,511	800,000	-0,007	0,016
-403,496	75,058	0,094	-0,072
-402,482	50,584	-0,035	0,024
-401,467	-89,413	0,006	-0,001
-400,452	374,272	0,068	-0,102
-399,438	-200,000	0,021	0,083
-398,423	-11,844	-0,177	-0,085
-397,409	88,690	0,016	0,013
-396,394	-200,000	-0,008	-0,132
-395,379	-96,574	-0,121	-0,023
-394,365	570,412	0,104	0,186
-393,350	-200,000	0,007	0,123
-392,336	92,777	0,089	0,074
-391,321	57,968	0,083	-0,059
-390,306	-200,000	0,032	-0,125
-389,292	-200,000	0,031	-0,162
-388,277	277,466	-0,015	-0,020
-387,263	800,000	0,025	0,054
-386,248	15,386	0,083	-0,047
-385,233	298,264	0,087	0,118
-384,219	52,181	-0,120	-0,084
-383,204	800,000	-0,066	-0,149
-382,190	346,190	0,018	0,026
-381,175	-200,000	0,016	-0,067
-380,160	19,657	-0,043	-0,025
-379,146	197,356	0,024	0,026
-378,131	-200,000	-0,040	0,136
-377,117	-200,000	-0,001	-0,026
-376,102	-132,289	-0,148	-0,014
-375,088	251,361	-0,042	-0,052
-374,073	800,000	-0,010	-0,023
-373,058	38,791	-0,058	0,037
-372,044	-4,161	0,108	0,054
-371,029	-200,000	0,009	0,079
-370,015	109,081	0,050	-0,044
-369,000	-200,000	0,003	-0,062
-367,985	-95,190	-0,039	-0,008
-366,971	-200,000	0,014	0,061
-365,956	28,473	0,080	-0,050
-364,942	285,369	0,078	0,102
-363,927	128,395	0,059	0,055
-362,912	162,439	0,064	-0,066
-361,898	142,159	0,050	0,049
-360,883	-129,221	0,071	0,007
-359,869	262,576	0,120	0,152
-358,854	437,497	-0,030	-0,048
-357,839	-96,007	0,116	0,022
-356,825	-200,000	-0,009	0,060
-355,810	-105,929	-0,128	0,021
-354,796	132,906	-0,035	-0,033
-353,781	162,674	-0,064	0,066
-352,766	-200,000	-0,027	-0,109
-351,752	-87,832	0,027	-0,006
-350,737	-24,787	0,175	0,075
-349,723	395,873	-0,064	0,097
-348,708	317,270	0,078	0,109
-347,693	-28,037	0,093	0,039
-346,679	51,143	-0,110	-0,076
-345,664	567,934	0,032	0,056
-344,650	800,000	-0,032	-0,090
-343,635	800,000	-0,067	0,143
-342,620	800,000	0,046	0,123
-341,606	-143,451	0,079	-0,005
-340,591	-200,000	0,029	0,000
-339,577	-62,872	-0,064	0,019
-338,562	240,605	0,064	-0,077
-337,548	-200,000	0,022	-0,146
-336,533	-2,298	0,011	-0,006
-335,518	38,369	0,090	-0,058
-334,504	-122,099	-0,131	0,016
-333,489	525,990	-0,058	-0,100
-332,475	9,179	0,050	-0,028
-331,460	34,494	0,138	-0,088
-330,445	417,405	-0,060	0,094
-329,431	-158,204	0,219	0,009
-328,416	-200,000	0,004	0,118
-327,402	-21,292	0,067	0,030
-326,387	3,631	-0,068	0,036
-325,372	-200,000	0,018	-0,070
-324,358	-200,000	-0,011	0,096
-323,343	-200,000	-0,007	0,066
-322,329	-98,131	0,037	0,007
-321,314	-64,845	0,126	-0,037
-320,299	163,084	0,076	0,078
-319,285	109,071	-0,112	0,098
-318,270	14,230	0,067	-0,038
-317,256	800,000	-0,003	-0,009
-316,241	-5,055	0,092	-0,046
-315,226	-200,000	-0,002	0,029
-314,212	196,272	0,017	0,019
-313,197	-200,000	-0,015	0,091
-312,183	800,000	-0,013	0,040
-311,168	-83,384	0,049	0,011
-310,153	800,000	-0,028	0,078
-309,139	-61,874	0,037	-0,011
-308,124	-6,728	-0,049	-0,024
-307,110	-16,948	0,053	-0,024
-306,095	138,414	0,090	-0,086
-305,080	26,132	-0,011	-0,007
-304,066	-57,951	-0,106	-0,033
-303,051	-46,698	-0,080	-0,028
-302,037	800,000	0,047	-0,101
-301,022	395,326	-0,038	0,058
-300,008	-118,333	0,123	-0,016
-298,993	350,085	0,124	0,179
-297,978	98,894	0,090	0,076
-296,964	-108,967	0,102	-0,016
-295,949	800,000	0,023	-0,073
-294,935	-159,887	-0,088	0,003
-293,920	-200,000	-0,024	0,088
-292,905	249,907	0,030	-0,037
-291,891	800,000	-0,016	0,043
-290,876	-16,579	-0,118	-0,054
-289,862	-200,000	-0,017	0,102
-288,847	-67,476	0,075	-0,021
-287,832	-45,467	0,060	0,021
-286,818	-30,478	-0,166	-0,068
-285,803	75,908	-0,124	0,095
-284,789	629,872	0,057	0,106
-283,774	221,028	-0,086	-0,101
-282,759	-132,791	0,046	0,004
-281,745	15,869	-0,028	0,016
-280,730	-101,436	0,084	0,015
-279,716	-66,989	0,166	-0,047
-278,701	-200,000	0,002	0,103
-277,686	-200,000	0,017	-0,169
-276,672	519,456	0,024	-0,041
-275,657	111,274	0,100	0,088
-274,643	-119,690	-0,129	-0,016
-273,628	74,316	-0,100	-0,077
-272,613	483,408	-0,060	-0,100
-271,599	-14,144	0,031	0,014
-270,584	-200,000	0,017	0,140
-269,570	409,448	0,028	0,043
-268,555	-66,123	-0,142	-0,041
-267,540	-200,000	0,013	0,062
-266,526	385,866	-0,053	-0,080
-265,511	-106,250	-0,026	0,004
-264,497	207,846	0,062	0,071
-263,482	-119,871	0,067	0,008
-262,467	-107,710	-0,015	0,002
-261,453	800,000	0,036	0,110
-260,438	-115,588	0,118	-0,016
-259,424	-29,779	-0,105	0,043
-258,409	800,000	-0,067	-0,146
-257,395	-26,044	0,056	-0,024
-256,380	-200,000	0,009	0,041
-255,365	-96,575	0,103	-0,020
-254,351	135,274	-0,076	0,072
-253,336	54,154	0,123	0,086
-252,322	-176,187	-0,123	-0,002
-251,307	766,491	0,034	-0,068
-250,292	-200,000	-0,013	-0,124
-249,278	1,695	-0,068	0,036
-248,263	-79,005	0,046	0,011
-247,249	479,120	0,042	0,069
-246,234	89,258	0,134	-0,108
-245,219	31,870	0,051	-0,032
-244,205	-200,000	0,001	-0,091
-243,190	61,983	-0,073	-0,053
-242,176	131,348	-0,019	-0,018
-241,161	-110,497	0,150	0,022
-240,146	56,433	0,052	0,037
-239,132	130,509	0,062	-0,058
-238,117	-116,378	-0,061	-0,008
-237,103	-61,341	0,090	0,027
-236,088	360,357	-0,024	0,034
-235,073	-200,000	-0,026	0,132
-234,059	-200,000	-0,022	0,146
-233,044	-200,000	-0,057	0,234
-232,030	68,582	-0,098	0,073
-231,015	69,573	-0,151	0,113
-230,000	-200,000	0,003	-0,057
-228,986	-200,000	-0,006	-0,073
-227,971	434,650	-0,031	-0,050
-226,957	-200,000	-0,016	-0,057
-225,942	800,000	0,036	0,085
-224,927	350,222	0,057	0,082
-223,913	800,000	-0,035	-0,107
-222,898	-27,987	-0,059	0,025
-221,884	-73,736	-0,131	-0,034
-220,869	-200,000	-0,010	0,044
-219,855	356,111	-0,034	0,049
-218,840	-112,709	0,091	0,013
-217,825	-200,000	0,017	-0,094
-216,811	-200,000	-0,045	-0,145
-215,796	-200,000	-0,004	-0,070
-214,782	269,751	-0,032	0,041
-213,767	-2,491	-0,075	-0,038
-212,752	266,427	-0,032	0,041
-211,738	-108,045	0,181	0,028
-210,723	128,530	0,056	-0,052
-209,709	-116,413	-0,040	-0,005
-208,694	-120,927	-0,122	0,015
-207,679	-200,000	-0,008	-0,212
-206,665	-147,484	0,055	0,003
-205,650	-200,000	-0,008	0,088
-204,636	-200,000	-0,005	0,143
-203,621	129,607	0,018	0,017
-202,606	-78,606	0,062	-0,015
-201,592	26,306	-0,077	0,046
-200,577	343,203	0,022	-0,031
-199,563	-22,477	0,051	-0,022
-198,548	800,000	0,025	0,052
-197,533	-150,865	0,050	0,003
-196,519	800,000	-0,013	-0,028
-195,504	321,894	0,094	0,131
-194,490	236,000	-0,036	0,044
-193,475	-129,747	-0,172	0,017
-192,460	422,560	-0,069	-0,107
-191,446	-32,048	0,140	0,057
-190,431	-153,010	0,133	0,007
-189,417	-76,336	0,063	0,016
-188,402	115,748	-0,016	0,014
-187,387	-91,211	-0,105	0,022
-186,373	-200,000	0,007	-0,090
-185,358	707,066	-0,109	-0,210
-184,344	800,000	0,057	0,136
-183,329	489,779	-0,070	0,117
-182,315	41,002	0,085	0,055
-181,300	800,000	-0,041	-0,089
-180,285	800,000	-0,033	-0,094
-179,271	56,423	-0,150	-0,105
-178,256	217,410	0,095	0,110
-177,242	38,433	-0,057	0,036
-176,227	-200,000	0,006	0,079
-175,212	-142,598	-0,120	0,008
-174,198	45,474	-0,053	0,035
-173,183	285,071	-0,044	-0,057
-172,169	5,066	0,089	-0,048
-171,154	245,160	0,045	0,055
-170,139	728,568	-0,055	-0,107
-169,125	237,639	-0,047	0,056
-168,110	-200,000	-0,012	-0,059
-167,096	48,883	-0,066	0,045
-166,081	242,015	-0,077	-0,093
-165,066	77,764	0,096	0,074
-164,052	10,952	0,051	-0,028
-163,037	124,590	0,038	0,035
-162,023	185,929	-0,065	0,070
-161,008	800,000	0,076	0,192
-159,993	127,912	-0,024	-0,022
-158,979	-200,000	0,007	0,086
-157,964	-200,000	0,003	0,057
-156,950	504,596	0,029	-0,049
-155,935	-99,558	-0,073	0,013
-154,920	32,480	0,042	-0,026
-153,906	-200,000	0,005	0,137
-152,891	-143,736	-0,064	-0,004
-151,877	694,756	0,050	0,095
-150,862	800,000	0,036	0,074
-149,847	-32,597	-0,097	-0,039
-148,833	-200,000	-0,003	0,083
-147,818	-102,048	-0,070	-0,012
-146,804	180,004	0,010	0,010
-145,789	146,004	0,059	0,057
-144,775	800,000	-0,020	0,041
-143,760	201,566	-0,095	-0,106
-142,745	73,454	-0,083	-0,063
-141,731	-73,908	0,099	-0,026
-140,716	-172,886	0,021	-0,000
-139,702	-200,000	-0,021	0,083
-138,687	-57,900	0,058	0,018
-137,672	94,778	-0,077	0,064
-136,658	-31,924	-0,070	0,028
-135,643	-200,000	0,006	-0,149
-134,629	-17,895	-0,081	-0,036
-133,614	423,099	-0,023	-0,037
-132,599	800,000	-0,022	-0,066
-131,585	-200,000	0,037	0,130
-130,570	800,000	0,010	0,025
-129,556	-40,390	-0,120	0,045
-128,541	-91,128	0,130	-0,027
-127,526	-118,945	-0,030	0,004
-126,512	800,000	-0,051	0,128
-125,497	800,000	-0,014	0,039
-124,483	800,000	-0,033	0,076
-123,468	495,884	-0,028	0,047
-122,453	370,044	-0,045	0,066
-121,439	-200,000	-0,007	-0,121
-120,424	-200,000	0,026	0,091
-119,410	-174,120	0,161	0,003
-118,395	800,000	-0,043	0,119
-117,380	146,332	-0,053	0,051
-116,366	-46,818	-0,042	0,015
-115,351	14,887	-0,028	0,016
-114,337	177,346	-0,070	-0,074
-113,322	-124,380	0,004	-0,000
-112,307	-158,253	0,125	0,005
-111,293	-200,000	-0,020	0,100
-110,278	601,010	0,057	0,103
-109,264	-200,000	0,019	0,130
-108,249	-97,453	0,058	0,011
-107,234	800,000	0,027	0,083
-106,220	284,244	0,102	-0,133
-105,205	800,000	0,040	0,117
-104,191	590,392	-0,097	0,173
-103,176	800,000	0,021	0,050
-102,162	-109,283	0,069	0,010
-101,147	-200,000	0,009	-0,071
-100,132	225,822	-0,029	0,034
-99,118	800,000	-0,035	-0,071
-98,103	-200,000	0,014	0,192
-97,089	-146,360	0,170	0,011
-96,074	221,225	-0,071	-0,083
-95,059	-0,014	-0,098	-0,050
-94,045	13,159	-0,040	0,022
-93,030	225,081	0,035	0,041
-92,016	450,266	-0,089	0,143
-91,001	40,025	0,073	-0,048
-89,986	-137,474	-0,066	-0,005
-88,972	-200,000	0,018	0,142
-87,957	-200,000	0,009	0,172
-86,943	250,509	0,076	-0,094
-85,928	222,172	-0,072	-0,084
-84,913	429,680	-0,074	-0,116
-83,899	800,000	0,046	-0,095
-82,884	800,000	0,055	0,146
-81,870	-118,817	0,147	0,018
-80,855	585,553	-0,019	-0,034
-79,840	-200,000	-0,034	-0,156
-78,826	62,467	-0,164	0,118
-77,811	-107,360	-0,110	-0,017
-76,797	-120,482	0,029	-0,003
-75,782	444,335	-0,053	-0,085
-74,767	800,000	0,024	0,055
-73,753	19,823	0,045	-0,026
-72,738	104,656	0,080	0,068
-71,724	-200,000	0,007	0,091
-70,709	64,604	-0,076	-0,055
-69,694	158,920	-0,110	0,111
-68,680	327,973	0,020	-0,028
-67,665	551,059	-0,048	-0,084
-66,651	-125,178	0,012	-0,001
-65,636	239,202	0,022	0,027
-64,622	523,752	-0,015	-0,026
-63,607	635,426	-0,085	-0,157
-62,592	-153,582	0,141	-0,007
-61,578	-178,688	-0,115	-0,002
-60,563	-200,000	-0,031	0,123
-59,549	-48,744	-0,134	0,046
-58,534	62,496	-2,031	-1,463
-57,519	400,435	-1,207	-1,832
-56,505	-200,000	-0,208	-4,202
-55,490	800,000	0,835	1,748
-54,476	800,000	5,281	11,264
-53,461	-200,000	21,928	343,566
-52,446	800,000	755,892	2314,165
-51,432	514,434	1645,441	2780,744
-50,417	68,619	1574,635	1164,054
-49,403	19,849	1145,784	664,190
-48,388	11,951	862,684	477,011
-47,373	26,029	828,522	497,445
-46,359	17,552	814,594	465,837
-45,344	8,774	810,245	439,209
-44,330	8,545	808,756	437,755
-43,315	8,468	807,325	436,750
-42,300	8,519	806,060	436,187
-41,286	8,527	805,126	435,688
-40,271	8,483	804,267	435,085
-39,257	8,559	803,202	434,700
-38,242	8,658	802,264	434,446
-37,227	8,629	801,461	433,913
-36,213	8,582	800,659	433,333
-35,198	8,561	799,795	432,793
-34,184	8,698	799,158	432,802
-33,169	8,552	798,335	431,944
-32,154	8,665	797,627	431,851
-31,140	8,677	796,221	431,104
-30,125	8,778	795,613	431,031
-29,111	8,600	795,272	430,348
-28,096	8,617	794,936	430,194
-27,082	8,655	794,080	429,816
-26,067	8,670	793,218	429,373
-25,052	8,500	792,790	428,666
-24,038	8,555	791,922	428,329
-23,023	8,550	791,339	427,982
-22,009	8,669	790,802	427,996
-20,994	8,626	790,030	427,444
-19,979	8,748	789,308	427,366
-18,965	8,656	788,734	426,790
-17,950	8,628	788,539	426,594
-16,936	8,606	787,859	426,149
-15,921	8,584	787,290	425,767
-14,906	8,565	786,353	425,191
-13,892	8,519	785,988	424,854
-12,877	8,565	785,148	424,506
-11,863	8,431	785,006	424,054
-10,848	8,414	784,606	423,776
-9,833	8,588	784,019	423,905
-8,819	8,549	783,390	423,446
-7,804	8,581	782,816	423,204
-6,790	8,597	782,250	422,924
-5,775	8,610	781,952	422,781
-4,760	8,523	781,373	422,220
-3,746	8,453	781,154	421,897
-2,731	8,318	780,516	421,178
-1,717	8,324	780,219	421,018
-0,702	8,338	779,394	420,594
0,313	8,455	776,522	419,985
1,327	12,188	757,924	419,508
2,342	20,551	616,284	358,501
3,356	14,224	340,533	190,800
4,371	-15,725	229,526	105,062
5,386	-18,823	216,154	96,623
6,400	-18,882	212,007	94,717
7,415	-18,063	210,270	94,527
8,429	-19,047	208,985	93,232
9,444	-19,106	208,126	92,798
10,459	-18,809	207,614	92,774
11,473	-19,124	207,351	92,423
12,488	-18,647	206,758	92,490
13,502	-18,999	206,356	92,052
14,517	-18,837	205,893	91,952
15,531	-18,902	205,482	91,715
16,546	-18,896	205,263	91,613
17,561	-19,045	204,882	91,329
18,575	-18,853	204,735	91,391
19,590	-19,139	204,413	91,038
20,604	-19,046	204,250	91,022
21,619	-18,975	203,824	90,875
22,634	-19,059	203,658	90,733
23,648	-18,924	203,211	90,620
24,663	-18,968	203,239	90,594
25,677	-18,851	202,915	90,523
26,692	-19,304	202,790	90,143
27,707	-18,768	202,506	90,383
28,721	-18,827	202,289	90,236
29,736	-18,955	201,942	89,985
30,750	-19,050	201,748	89,824
31,765	-18,891	201,623	89,872
32,780	-18,977	201,560	89,775
33,794	-18,863	201,152	89,664
34,809	-18,679	200,933	89,686
35,823	-18,992	200,795	89,400
36,838	-18,672	200,511	89,487
37,853	-18,978	200,328	89,186
38,867	-18,774	200,024	89,183
39,882	-18,875	200,021	89,104
40,896	-18,902	199,799	88,979
41,911	-18,889	199,549	88,868
42,926	-18,851	199,293	88,773
43,940	-18,777	199,117	88,737
44,955	-19,098	199,075	88,491
45,969	-18,884	198,853	88,530
46,984	-18,692	198,679	88,576
47,999	-18,686	198,404	88,450
49,013	-18,844	198,423	88,342
50,028	-18,693	198,091	88,289
51,042	-18,875	198,001	88,118
52,057	-18,655	197,683	88,118
53,071	-18,660	197,667	88,100
54,086	-18,725	197,342	87,903
55,101	-18,629	197,213	87,902
56,115	-18,656	197,097	87,825
57,130	-18,775	196,775	87,593
58,144	-19,095	196,658	87,317
59,159	-19,047	196,361	87,210
60,174	-19,100	196,260	87,121
61,188	-18,797	196,049	87,224
62,203	-18,948	195,832	87,018
63,217	-18,580	195,603	87,156
64,232	-18,765	195,549	86,999
65,247	-18,808	195,269	86,839
66,261	-18,687	195,114	86,843
67,276	-18,989	195,208	86,675
68,290	-18,917	194,967	86,608
69,305	-18,822	194,720	86,554
70,320	-18,503	194,605	86,708
71,334	-18,866	194,362	86,350
72,349	-18,993	194,223	86,196
73,363	-18,740	193,945	86,234
74,378	-18,974	193,738	85,979
75,393	-18,852	193,559	85,972
76,407	-18,858	193,541	85,952
77,422	-18,893	193,493	85,900
78,436	-19,026	193,212	85,680
79,451	-18,803	192,852	85,660
80,466	-18,741	192,814	85,677
81,480	-18,579	192,532	85,650
82,495	-18,920	192,510	85,408
83,509	-18,900	192,324	85,331
84,524	-18,558	192,224	85,504
85,539	-18,473	192,023	85,463
86,553	-18,637	191,910	85,297
87,568	-18,695	191,596	85,112
88,582	-18,967	191,580	84,919
89,597	-18,760	191,374	84,955
90,611	-18,723	191,220	84,904
91,626	-18,881	191,101	84,741
92,641	-18,644	190,921	84,808
93,655	-18,760	190,844	84,690
94,670	-18,580	190,538	84,664
95,684	-18,853	190,467	84,447
96,699	-18,844	190,420	84,425
97,714	-18,740	190,004	84,300
98,728	-18,734	190,005	84,297
99,743	-18,813	189,896	84,190
100,757	-18,747	189,600	84,094
101,772	-18,741	189,534	84,061
102,787	-18,921	189,387	83,872
103,801	-18,902	189,321	83,847
104,816	-18,714	189,090	83,859
105,830	-18,848	189,122	83,779
106,845	-18,762	188,829	83,698
107,860	-18,774	188,663	83,609
108,874	-18,712	188,490	83,564
109,889	-18,784	188,142	83,357
110,903	-18,892	188,129	83,274
111,918	-18,861	187,993	83,226
112,933	-18,768	187,853	83,217
113,947	-18,505	187,657	83,291
114,962	-18,524	187,465	83,186
115,976	-18,834	187,264	82,891
116,991	-18,755	187,309	82,954
118,006	-18,753	187,099	82,855
119,020	-18,710	186,896	82,785
120,035	-18,601	186,700	82,761
121,049	-18,813	186,755	82,642
122,064	-18,906	186,381	82,411
123,079	-18,699	186,442	82,562
124,093	-18,929	186,194	82,298
125,108	-18,455	186,004	82,508
126,122	-18,638	185,988	82,377
127,137	-18,728	185,766	82,214
128,151	-18,494	185,489	82,233
129,166	-18,483	185,381	82,185
130,181	-18,494	185,193	82,087
131,195	-18,483	184,996	81,999
132,210	-18,975	185,034	81,698
133,224	-18,629	184,865	81,834
134,239	-18,545	184,563	81,747
135,254	-18,552	184,477	81,697
136,268	-18,705	184,451	81,581
137,283	-18,661	184,210	81,495
138,297	-18,679	184,039	81,401
139,312	-18,758	183,915	81,289
140,327	-18,902	183,613	81,059
141,341	-19,120	183,461	80,848
142,356	-19,262	183,271	80,668
143,370	-18,164	183,670	81,524
144,385	-10,690	185,652	87,121
145,400	-3,906	187,115	92,109
146,414	-2,538	187,229	93,024
147,429	-2,613	187,253	92,981
148,443	-2,338	187,058	93,050
149,458	-2,097	187,163	93,247
150,473	-1,917	186,982	93,262
151,487	-1,719	186,944	93,360
152,502	-1,822	186,663	93,147
153,516	-1,784	186,645	93,153
154,531	-1,901	186,482	92,990
155,546	-1,794	186,326	92,971
156,560	-1,619	186,183	93,002
157,575	-1,580	186,017	92,934
158,589	-1,524	185,970	92,938
159,604	-1,638	185,756	92,752
160,619	-1,494	185,608	92,760
161,633	-1,645	185,549	92,627
162,648	-1,512	185,359	92,607
163,662	-1,632	185,442	92,565
164,677	-1,666	185,367	92,499
165,692	-1,447	185,075	92,481
166,706	-1,607	184,929	92,300
167,721	-1,130	184,787	92,519
168,735	-1,445	184,720	92,280
169,750	-1,290	184,573	92,295
170,764	-1,081	184,444	92,353
171,779	-1,395	184,417	92,136
172,794	-1,389	184,354	92,100
173,808	-1,485	184,238	91,974
174,823	-1,340	183,961	91,918
175,837	-1,077	183,806	91,995
176,852	-1,291	183,806	91,854
177,867	-1,529	183,712	91,651
178,881	-1,170	183,375	91,697
179,896	-1,097	183,331	91,712
180,910	-1,261	183,226	91,550
181,925	-1,349	183,174	91,461
182,940	-1,346	182,979	91,358
183,954	-1,309	182,837	91,302
184,969	-1,037	182,661	91,373
185,983	-1,281	182,582	91,175
186,998	-1,154	182,432	91,171
188,013	-0,923	182,311	91,244
189,027	-0,846	182,200	91,227
190,042	-1,190	182,081	90,948
191,056	-1,248	181,966	90,847
192,071	-0,886	181,747	90,951
193,086	-1,042	181,767	90,858
194,100	-1,036	181,662	90,801
195,115	-1,023	181,540	90,740
196,129	-0,971	181,336	90,661
197,144	-0,970	181,038	90,505
198,159	-1,164	180,949	90,334
199,173	-1,346	180,942	90,212
200,188	-1,299	180,752	90,138
201,202	-0,963	180,682	90,300
202,217	-0,767	180,451	90,295
203,232	-0,843	180,332	90,181
204,246	-0,961	180,217	90,044
205,261	-1,017	179,987	89,887
206,275	-1,006	179,907	89,845
207,290	-1,220	179,907	89,708
208,304	-0,905	179,646	89,760
209,319	-0,969	179,590	89,686
210,334	-0,971	179,381	89,572
211,348	-1,047	179,287	89,472
212,363	-0,914	179,226	89,513
213,377	-0,702	179,005	89,523
214,392	-0,786	178,982	89,453
215,407	-0,922	178,960	89,352
216,421	-0,827	178,836	89,338
217,436	-1,008	178,635	89,122
218,450	-0,813	178,481	89,154
219,465	-0,938	178,428	89,044
220,480	-0,649	178,275	89,133
221,494	-0,699	178,150	89,033
222,509	-0,542	178,000	89,044
223,523	-0,873	177,866	88,772
224,538	-0,820	177,796	88,760
225,553	-0,809	177,591	88,656
226,567	-0,841	177,671	88,669
227,582	-1,011	177,469	88,459
228,596	-0,965	177,421	88,455
229,611	-0,626	177,167	88,522
230,626	-0,539	177,059	88,512
231,640	-0,614	176,937	88,398
232,655	-0,815	176,796	88,201
233,669	-0,997	176,723	88,049
234,684	-0,727	176,534	88,107
235,699	-0,815	176,512	88,036
236,713	-0,674	176,433	88,072
237,728	-0,809	176,459	87,998
238,742	-0,802	176,182	87,855
239,757	-0,480	176,053	87,973
240,772	-0,617	175,954	87,835
241,786	-0,844	175,817	87,625
242,801	-0,465	175,661	87,763
243,815	-0,518	175,513	87,650
244,830	-0,582	175,394	87,545
245,844	-0,683	175,388	87,475
246,859	-0,523	175,244	87,489
247,874	-0,984	175,177	87,177
248,888	-0,882	175,223	87,252
249,903	-0,351	174,750	87,319
250,917	-0,567	174,823	87,221
251,932	-0,542	174,659	87,147
252,947	-0,244	174,563	87,265
253,961	-0,388	174,419	87,102
254,976	-0,567	174,295	86,928
255,990	-0,620	174,223	86,853
257,005	-0,531	174,178	86,875
258,020	-0,442	174,040	86,850
259,034	-0,296	173,876	86,845
260,049	-0,423	173,574	86,613
261,063	-0,443	173,523	86,568
262,078	-0,646	173,589	86,475
263,093	-0,239	173,255	86,537
264,107	-0,586	173,278	86,340
265,122	-0,442	173,216	86,385
266,136	-0,528	173,100	86,269
267,151	-0,449	172,939	86,227
268,166	-0,479	172,808	86,137
269,180	-0,593	172,782	86,050
270,195	-0,291	172,623	86,138
271,209	-0,335	172,453	86,020
272,224	-0,307	172,432	86,018
273,239	-0,093	172,210	86,023
274,253	-0,243	172,212	85,930
275,268	-0,496	172,103	85,722
276,282	-0,351	171,926	85,710
277,297	-0,298	171,850	85,694
278,312	-0,257	171,580	85,575
279,326	-0,252	171,573	85,567
280,341	-0,356	171,517	85,473
281,355	-0,464	171,559	85,423
282,370	-0,103	171,238	85,463
283,384	-0,093	171,060	85,372
284,399	-0,233	171,052	85,280
285,414	-0,434	170,984	85,124
286,428	-0,354	170,880	85,110
287,443	-0,169	170,873	85,205
288,457	-0,241	170,599	85,020
289,472	0,006	170,381	85,044
290,487	-0,014	170,394	85,031
291,501	-0,151	170,244	84,871
292,516	-0,555	170,264	84,644
293,530	-0,101	170,030	84,778
294,545	-0,213	170,003	84,693
295,560	-0,081	169,938	84,728
296,574	-0,038	169,618	84,586
297,589	-0,101	169,552	84,509
298,603	-0,315	169,499	84,354
299,618	-0,310	169,506	84,353
300,633	-0,060	169,272	84,371
301,647	-0,104	169,053	84,229
302,662	-0,090	169,108	84,257
303,676	0,311	168,855	84,349
304,691	0,061	168,783	84,164
305,706	-0,386	168,693	83,860
306,720	0,116	168,562	84,070
307,735	-0,012	168,509	83,964
308,749	0,073	168,212	83,857
309,764	-0,067	168,366	83,847
310,779	0,178	168,121	83,855
311,793	-0,010	167,965	83,665
312,808	0,030	167,951	83,673
313,822	0,071	167,884	83,655
314,837	-0,135	167,694	83,438
315,852	0,133	167,626	83,546
316,866	0,331	167,493	83,583
317,881	0,078	167,343	83,359
318,895	-0,066	167,288	83,244
319,910	0,219	167,147	83,325
320,925	-0,106	167,171	83,149
321,939	0,105	167,052	83,199
322,954	0,100	166,978	83,152
323,968	0,095	166,878	83,092
324,983	0,117	166,657	82,987
325,997	0,253	166,531	82,992
327,012	0,058	166,330	82,777
328,027	0,192	166,252	82,805
329,041	-0,217	166,311	82,601
330,056	0,061	166,188	82,686
331,070	0,103	166,141	82,679
332,085	-0,088	165,928	82,460
333,100	0,193	165,786	82,536
334,114	0,107	165,680	82,429
335,129	0,178	165,548	82,395
336,143	0,298	165,403	82,381
337,158	0,137	165,291	82,230
338,173	0,345	165,306	82,345
339,187	0,353	165,136	82,257
340,202	0,413	165,037	82,233
341,216	0,190	164,867	82,019
342,231	0,237	164,830	82,019
343,246	0,299	164,668	81,965
344,260	0,510	164,559	82,019
345,275	0,559	164,556	82,037
346,289	0,406	164,563	81,949
347,304	0,134	164,375	81,700
348,319	0,244	164,260	81,695
349,333	0,481	164,148	81,761
350,348	0,339	163,865	81,536
351,362	0,049	163,961	81,419
352,377	0,260	163,775	81,433
353,392	0,297	163,761	81,440
354,406	0,321	163,487	81,309
355,421	189,873	1325,677	1391,854
356,435	150,085	1467,725	1392,338
