DTS Sentinel unit serial number:	SN410029Multiplexer serial number:	ORYXHardware model number:	OX2-SRSoftware version number:	ORYX F/W v4,00 Oryx Data Collector v3.7.2.0data status	okinstallation	B3 Nyhavnadifferential loss correction	single-endedforward channel	channel 1reverse channel	N/Adate	2023/11/28time	12:52:30forward acquisition time	300,00reverse acquisition time	0,00gamma	499,1914k internal	0,3138k external	0,3138temperature offset calibration	1,0000default loss term (dB/km)	0,3820temperature slope calibration	1,0000multiplexer offset coefficient	1,0000multiplexer slope coefficient	1,0000fibre end	0,00T internal ref (°C)	8,24T ext. ref 1 (°C)	-7,72T ext. ref 2 (°C)	-7,90length (m)	temperature (°C)	Stokes	anti-Stokes-744,400	667,321	-0,158	-0,304
-743,385	-200,000	-0,003	0,304
-742,371	224,094	-0,190	-0,228
-741,356	-200,000	0,041	0,308
-740,342	241,155	-0,127	-0,157
-739,327	-200,000	0,027	0,327
-738,312	145,439	-0,248	-0,247
-737,298	800,000	-0,099	0,278
-736,283	800,000	-0,097	-0,300
-735,269	-200,000	0,008	0,278
-734,254	-200,000	-0,103	-0,343
-733,239	-44,913	-0,200	0,074
-732,225	17,108	-0,084	-0,049
-731,210	114,404	0,223	0,202
-730,196	-109,952	-0,065	0,010
-729,181	-107,860	-0,014	0,002
-728,167	-200,000	0,002	-0,071
-727,152	800,000	-0,038	-0,082
-726,137	-200,000	-0,021	-0,114
-725,123	-200,000	0,006	0,103
-724,108	800,000	-0,085	-0,198
-723,094	-84,197	0,029	0,007
-722,079	-4,795	0,056	-0,028
-721,064	121,544	-0,089	0,082
-720,050	-115,935	-0,071	-0,010
-719,035	-94,167	-0,138	0,028
-718,021	-91,197	-0,087	0,018
-717,006	-99,835	-0,109	0,020
-715,991	-122,933	-0,144	-0,017
-714,977	457,735	0,038	-0,062
-713,962	113,337	0,075	-0,068
-712,948	800,000	-0,014	-0,046
-711,933	-200,000	-0,004	-0,071
-710,918	-200,000	0,028	0,196
-709,904	83,472	-0,144	-0,116
-708,889	36,882	-0,067	-0,044
-707,875	800,000	0,058	-0,144
-706,860	-200,000	0,029	0,122
-705,845	190,475	0,020	0,022
-704,831	211,765	0,048	0,057
-703,816	47,024	-0,072	-0,050
-702,802	-101,145	-0,086	0,015
-701,787	-169,030	-0,187	-0,005
-700,772	-200,000	-0,005	0,058
-699,758	-200,000	0,008	-0,063
-698,743	-200,000	0,021	0,101
-697,729	340,791	-0,121	0,176
-696,714	17,626	-0,051	0,030
-695,699	-92,732	-0,147	0,030
-694,685	-14,647	0,063	-0,030
-693,670	-86,480	0,127	0,029
-692,656	-200,000	0,021	-0,090
-691,641	-200,000	-0,007	0,049
-690,627	-32,943	0,141	0,058
-689,612	800,000	-0,045	-0,127
-688,597	800,000	-0,036	-0,076
-687,583	249,409	-0,080	-0,101
-686,568	-192,085	-0,185	0,001
-685,554	-200,000	-0,004	-0,043
-684,539	-49,415	0,068	0,024
-683,524	158,053	-0,017	0,017
-682,510	194,442	-0,079	0,089
-681,495	-200,000	0,001	-0,108
-680,481	687,597	-0,052	-0,101
-679,466	800,000	-0,024	-0,071
-678,451	82,725	-0,116	-0,093
-677,437	-48,474	-0,066	0,023
-676,422	-14,358	0,098	0,046
-675,408	-13,894	-0,082	0,039
-674,393	-200,000	0,023	0,101
-673,378	-200,000	0,001	0,063
-672,364	333,513	-0,080	-0,115
-671,349	-150,675	-0,086	0,005
-670,335	-200,000	0,033	-0,138
-669,320	-11,995	-0,069	0,033
-668,305	800,000	-0,014	-0,034
-667,291	-16,282	-0,164	0,077
-666,276	-200,000	-0,006	-0,021
-665,262	-200,000	0,006	-0,039
-664,247	-52,940	-0,097	-0,033
-663,232	-57,168	0,129	-0,042
-662,218	800,000	0,023	-0,065
-661,203	143,161	0,116	0,115
-660,189	-200,000	-0,014	-0,183
-659,174	800,000	-0,006	0,013
-658,159	-152,052	-0,116	0,006
-657,145	-200,000	0,011	0,070
-656,130	800,000	0,021	-0,057
-655,116	-74,073	-0,070	0,019
-654,101	-200,000	-0,005	0,070
-653,086	-146,913	-0,055	-0,003
-652,072	-52,663	-0,114	-0,039
-651,057	800,000	0,061	-0,129
-650,043	99,754	0,060	-0,051
-649,028	-200,000	-0,022	0,080
-648,014	-59,069	-0,090	0,029
-646,999	-200,000	-0,003	-0,075
-645,984	42,120	-0,035	-0,023
-644,970	-58,795	-0,032	0,010
-643,955	-65,985	-0,132	0,039
-642,941	90,532	-0,037	-0,031
-641,926	190,966	-0,075	0,083
-640,911	88,508	-0,128	0,105
-639,897	800,000	-0,008	0,020
-638,882	-15,749	-0,038	0,018
-637,868	-14,558	0,045	-0,021
-636,853	570,135	0,025	-0,045
-635,838	89,408	0,055	0,045
-634,824	194,173	-0,033	0,037
-633,809	135,754	-0,036	0,035
-632,795	-200,000	-0,004	0,198
-631,780	469,926	-0,039	-0,065
-630,765	49,850	0,080	-0,055
-629,751	351,528	-0,054	-0,080
-628,736	-139,835	0,206	0,016
-627,722	43,273	-0,105	0,071
-626,707	138,725	-0,044	-0,043
-625,692	-200,000	0,015	0,105
-624,678	-61,305	0,026	0,008
-623,663	800,000	0,004	-0,012
-622,649	5,842	0,020	-0,011
-621,634	-102,294	0,016	0,003
-620,619	-200,000	0,006	-0,039
-619,605	93,569	0,046	-0,038
-618,590	285,582	-0,016	0,021
-617,576	-67,200	-0,039	-0,011
-616,561	-26,595	-0,076	0,033
-615,546	-154,479	0,100	-0,005
-614,532	111,463	-0,014	-0,012
-613,517	570,018	-0,043	-0,078
-612,503	-200,000	0,016	0,253
-611,488	218,223	0,044	0,052
-610,474	701,496	0,039	-0,076
-609,459	304,931	-0,044	0,061
-608,444	-122,281	-0,087	0,010
-607,430	-64,056	-0,043	-0,013
-606,415	56,285	0,073	-0,053
-605,401	-94,296	-0,067	0,013
-604,386	108,349	-0,032	0,029
-603,371	-200,000	0,005	-0,029
-602,357	-200,000	0,018	0,081
-601,342	-80,403	-0,097	-0,024
-600,328	-112,240	-0,030	-0,004
-599,313	-200,000	0,006	-0,138
-598,298	584,340	-0,071	-0,129
-597,284	-200,000	0,021	0,172
-596,269	-188,796	-0,109	-0,001
-595,255	22,438	-0,096	0,058
-594,240	391,382	-0,063	-0,097
-593,225	78,536	-0,150	0,118
-592,211	59,666	-0,048	-0,035
-591,196	-18,715	-0,064	-0,029
-590,182	800,000	-0,058	0,145
-589,167	-7,746	0,130	0,065
-588,152	-174,014	0,047	0,001
-587,138	242,028	-0,046	0,057
-586,123	-84,958	-0,057	0,013
-585,109	169,517	0,023	-0,025
-584,094	-106,637	-0,060	0,010
-583,079	-66,454	0,090	-0,026
-582,065	-84,418	-0,067	-0,015
-581,050	110,945	0,080	-0,071
-580,036	-106,457	0,010	0,002
-579,021	0,537	0,056	0,030
-578,006	75,701	0,064	-0,050
-576,992	-58,823	-0,048	0,015
-575,977	371,218	0,051	-0,077
-574,963	-200,000	0,000	0,068
-573,948	800,000	0,052	-0,115
-572,934	-49,270	-0,065	0,023
-571,919	402,116	0,031	-0,048
-570,904	0,307	-0,065	0,034
-569,890	-73,364	-0,038	0,010
-568,875	-200,000	-0,020	-0,075
-567,861	-21,068	0,115	0,052
-566,846	800,000	0,063	0,149
-565,831	224,804	-0,048	-0,058
-564,817	-200,000	-0,003	-0,071
-563,802	-200,000	0,002	-0,086
-562,788	-200,000	0,025	-0,099
-561,773	-200,000	-0,017	-0,064
-560,758	-102,293	0,014	-0,002
-559,744	-86,005	0,225	0,051
-558,729	620,536	-0,043	0,080
-557,715	193,367	-0,020	-0,023
-556,700	-99,580	-0,163	-0,030
-555,685	161,910	-0,080	-0,082
-554,671	127,372	0,037	-0,035
-553,656	-122,509	0,154	0,018
-552,642	2,573	-0,108	-0,057
-551,627	-200,000	-0,000	0,001
-550,612	-43,452	-0,097	-0,036
-549,598	-200,000	-0,025	-0,131
-548,583	-85,153	0,128	-0,029
-547,569	-25,479	-0,080	-0,035
-546,554	-156,889	0,076	-0,003
-545,539	-200,000	-0,004	0,020
-544,525	-200,000	0,034	0,115
-543,510	800,000	0,034	-0,092
-542,496	-200,000	0,004	-0,068
-541,481	-74,634	0,024	0,006
-540,466	360,941	-0,048	-0,071
-539,452	-200,000	0,003	-0,042
-538,437	800,000	0,036	-0,083
-537,423	252,442	0,014	0,018
-536,408	121,057	0,066	0,061
-535,393	-71,824	0,086	0,023
-534,379	109,007	-0,118	-0,104
-533,364	800,000	0,007	0,022
-532,350	-31,664	-0,155	0,064
-531,335	-200,000	0,012	-0,066
-530,321	484,880	0,058	0,097
-529,306	-200,000	0,051	0,167
-528,291	-130,789	-0,169	0,017
-527,277	-36,797	-0,070	-0,028
-526,262	800,000	0,032	0,098
-525,248	7,043	-0,059	0,032
-524,233	-108,457	0,093	0,015
-523,218	800,000	0,040	-0,090
-522,204	355,586	-0,057	-0,083
-521,189	260,708	0,056	0,072
-520,175	357,932	-0,136	-0,200
-519,160	800,000	-0,017	-0,051
-518,145	21,705	0,053	-0,031
-517,131	199,681	0,064	0,073
-516,116	-62,736	0,053	0,016
-515,102	800,000	0,017	-0,049
-514,087	131,461	0,032	-0,030
-513,072	32,649	-0,015	-0,010
-512,058	-200,000	-0,005	0,101
-511,043	800,000	0,036	-0,096
-510,029	-69,804	0,108	-0,030
-509,014	149,506	0,054	0,053
-507,999	116,532	0,070	-0,064
-506,985	259,885	0,087	0,111
-505,970	322,951	-0,060	-0,085
-504,956	-53,499	-0,086	-0,029
-503,941	7,461	0,087	0,048
-502,926	-191,577	-0,063	0,000
-501,912	186,061	-0,103	0,113
-500,897	-200,000	-0,013	-0,149
-499,883	-67,188	0,072	-0,021
-498,868	75,126	0,066	0,051
-497,853	-176,745	-0,113	-0,002
-496,839	800,000	-0,020	0,047
-495,824	-200,000	0,004	0,026
-494,810	21,867	0,075	0,045
-493,795	678,583	-0,030	0,058
-492,781	-165,402	0,076	0,002
-491,766	-123,786	-0,015	-0,002
-490,751	800,000	-0,019	0,053
-489,737	119,950	-0,121	-0,110
-488,722	800,000	-0,020	0,044
-487,708	-82,061	0,141	0,033
-486,693	258,620	0,117	0,148
-485,678	-200,000	-0,006	0,068
-484,664	290,105	-0,090	0,120
-483,649	72,877	0,112	-0,086
-482,635	800,000	-0,031	0,098
-481,620	218,583	0,005	-0,006
-480,605	389,113	0,044	-0,066
-479,591	49,505	0,167	0,115
-478,576	92,623	0,062	-0,051
-477,562	99,209	-0,152	0,129
-476,547	-22,314	-0,066	-0,029
-475,532	-194,458	0,059	-0,000
-474,518	800,000	0,051	-0,153
-473,503	800,000	0,032	-0,073
-472,489	800,000	-0,015	-0,032
-471,474	37,532	0,071	0,046
-470,459	66,486	0,113	-0,084
-469,445	-200,000	-0,016	-0,084
-468,430	-36,294	0,101	-0,040
-467,416	-142,263	0,055	-0,004
-466,401	-200,000	-0,022	-0,077
-465,386	-200,000	0,019	-0,071
-464,372	-200,000	0,023	-0,205
-463,357	-200,000	0,022	-0,113
-462,343	800,000	-0,037	-0,112
-461,328	-151,939	0,145	0,008
-460,313	55,367	0,071	-0,051
-459,299	-200,000	-0,002	0,066
-458,284	-200,000	-0,003	0,019
-457,270	-200,000	0,034	0,120
-456,255	82,201	-0,124	-0,098
-455,241	379,595	-0,073	-0,111
-454,226	382,004	0,049	-0,075
-453,211	800,000	-0,048	-0,134
-452,197	-200,000	0,086	-0,294
-451,182	-156,705	0,043	0,002
-450,168	-32,005	-0,102	0,042
-449,153	-69,348	0,055	0,015
-448,138	-200,000	0,021	-0,169
-447,124	800,000	-0,041	0,127
-446,109	-200,000	-0,015	-0,111
-445,095	-107,464	-0,099	0,016
-444,080	800,000	0,046	0,134
-443,065	89,559	-0,076	0,062
-442,051	-3,336	0,089	-0,045
-441,036	-43,668	0,039	-0,014
-440,022	34,322	-0,129	0,083
-439,007	-191,841	-0,219	-0,002
-437,992	14,671	0,158	0,090
-436,978	800,000	0,048	-0,154
-435,963	-43,302	0,200	0,074
-434,949	-192,630	-0,068	-0,000
-433,934	-70,089	0,046	0,013
-432,919	429,771	-0,049	0,077
-431,905	-150,088	-0,137	0,008
-430,890	-11,996	0,084	0,040
-429,876	-105,623	0,112	0,018
-428,861	66,316	0,091	0,068
-427,846	800,000	-0,027	0,079
-426,832	-200,000	-0,031	0,103
-425,817	-200,000	0,003	0,019
-424,803	337,327	-0,046	0,066
-423,788	800,000	0,045	0,093
-422,773	-130,225	0,068	-0,007
-421,759	-200,000	-0,004	0,061
-420,744	800,000	-0,066	0,200
-419,730	-200,000	0,002	-0,071
-418,715	89,278	0,046	-0,038
-417,701	-200,000	0,014	-0,113
-416,686	381,580	0,013	-0,020
-415,671	800,000	0,004	0,009
-414,657	64,231	-0,093	0,068
-413,642	140,086	0,039	-0,037
-412,628	800,000	-0,018	-0,036
-411,613	686,790	-0,055	-0,105
-410,598	-200,000	0,000	-0,022
-409,584	59,555	-0,049	0,035
-408,569	-119,705	0,140	0,017
-407,555	171,738	0,183	0,192
-406,540	-62,604	-0,125	-0,038
-405,525	-76,159	-0,043	-0,011
-404,511	185,671	-0,032	0,035
-403,496	710,084	-0,028	-0,055
-402,482	-19,527	-0,065	-0,029
-401,467	650,346	0,040	0,076
-400,452	-14,836	-0,053	-0,025
-399,438	-20,288	0,056	0,025
-398,423	-93,396	0,119	0,024
-397,409	-200,000	0,015	-0,167
-396,394	126,805	0,041	-0,038
-395,379	579,592	-0,078	0,141
-394,365	1,537	0,065	-0,034
-393,350	121,912	-0,055	0,050
-392,336	-14,984	-0,187	-0,087
-391,321	-200,000	0,002	-0,028
-390,306	174,937	-0,015	-0,016
-389,292	-154,792	-0,029	-0,001
-388,277	-8,342	-0,093	-0,045
-387,263	800,000	0,031	0,088
-386,248	-7,232	0,058	-0,029
-385,233	161,909	0,055	-0,056
-384,219	-200,000	0,013	0,116
-383,204	287,016	-0,037	0,049
-382,190	399,208	-0,019	-0,030
-381,175	169,897	0,030	0,032
-380,160	-122,202	0,115	-0,014
-379,146	-23,461	-0,093	-0,040
-378,131	-200,000	-0,003	0,176
-377,117	514,277	-0,017	0,028
-376,102	-200,000	0,016	0,085
-375,088	90,271	-0,123	-0,101
-374,073	-61,815	0,023	-0,007
-373,058	-40,670	0,059	0,022
-372,044	380,824	-0,037	-0,056
-371,029	-200,000	0,012	-0,053
-370,015	-118,809	0,029	0,004
-369,000	12,217	-0,123	-0,069
-367,985	-49,398	-0,062	0,021
-366,971	-200,000	-0,013	-0,058
-365,956	210,397	0,043	-0,050
-364,942	278,314	-0,083	0,109
-363,927	-200,000	-0,008	-0,039
-362,912	-200,000	-0,004	-0,106
-361,898	-48,426	-0,032	-0,011
-360,883	26,494	-0,115	-0,070
-359,869	130,624	0,016	-0,015
-358,854	41,246	-0,033	0,022
-357,839	92,724	0,102	0,084
-356,825	-200,000	-0,001	0,074
-355,810	-29,916	0,057	-0,024
-354,796	9,653	-0,128	-0,071
-353,781	-39,000	-0,025	0,009
-352,766	214,349	-0,044	0,051
-351,752	-126,529	-0,081	0,009
-350,737	207,518	0,012	0,013
-349,723	-57,844	0,102	-0,032
-348,708	-200,000	0,024	0,105
-347,693	110,797	-0,095	0,084
-346,679	-200,000	-0,002	0,018
-345,664	-102,959	-0,022	-0,004
-344,650	10,370	-0,065	0,036
-343,635	-37,198	-0,102	0,040
-342,620	-158,862	0,089	-0,004
-341,606	-200,000	0,016	-0,111
-340,591	86,709	-0,072	-0,058
-339,577	-191,894	0,045	0,000
-338,562	-196,152	-0,113	0,001
-337,548	800,000	-0,034	-0,079
-336,533	16,522	0,113	0,065
-335,518	384,693	0,041	-0,061
-334,504	-3,084	-0,051	0,026
-333,489	-125,649	-0,095	-0,010
-332,475	-200,000	0,024	-0,099
-331,460	40,517	-0,044	0,029
-330,445	-200,000	0,004	0,098
-329,431	-43,107	-0,083	0,031
-328,416	-200,000	-0,006	-0,054
-327,402	49,694	0,025	0,017
-326,387	32,868	0,060	0,038
-325,372	800,000	0,010	-0,026
-324,358	-23,214	0,016	0,007
-323,343	267,186	0,041	0,053
-322,329	-52,920	0,079	0,026
-321,314	-107,682	0,098	-0,015
-320,299	170,804	-0,077	0,080
-319,285	-123,698	-0,123	0,014
-318,270	-75,723	0,025	-0,006
-317,256	57,984	0,033	0,024
-316,241	-15,836	0,125	0,058
-315,226	-96,521	0,181	-0,034
-314,212	34,517	-0,053	0,034
-313,197	52,171	0,029	-0,020
-312,183	800,000	-0,069	0,154
-311,168	84,772	-0,059	0,047
-310,153	82,280	0,050	-0,040
-309,139	-171,274	-0,028	-0,001
-308,124	-162,051	0,075	-0,003
-307,110	-116,671	0,092	-0,012
-306,095	-200,000	-0,050	0,255
-305,080	74,568	0,125	0,096
-304,066	35,440	-0,081	0,052
-303,051	487,790	0,057	-0,095
-302,037	-200,000	-0,000	-0,085
-301,022	213,090	0,064	0,074
-300,008	33,406	0,028	0,018
-298,993	172,075	-0,010	-0,010
-297,978	4,339	-0,123	0,065
-296,964	67,788	0,032	-0,024
-295,949	-130,064	-0,099	-0,010
-294,935	-32,237	0,015	0,006
-293,920	107,566	0,114	-0,099
-292,905	-200,000	-0,018	-0,058
-291,891	-82,025	-0,078	-0,018
-290,876	162,175	0,066	-0,068
-289,862	-114,379	-0,034	0,005
-288,847	-167,855	0,084	0,002
-287,832	52,834	-0,070	-0,048
-286,818	-59,276	-0,089	-0,028
-285,803	21,816	0,007	-0,004
-284,789	13,551	0,024	-0,014
-283,774	7,345	0,078	-0,042
-282,759	79,858	-0,058	-0,046
-281,745	438,923	-0,095	-0,152
-280,730	313,177	0,022	-0,030
-279,716	213,031	-0,053	0,061
-278,701	-200,000	-0,004	-0,035
-277,686	800,000	0,052	-0,145
-276,672	800,000	0,068	-0,182
-275,657	567,602	-0,057	0,101
-274,643	-24,802	0,045	-0,019
-273,628	-50,510	0,158	-0,054
-272,613	180,991	-0,085	-0,092
-271,599	800,000	0,029	-0,069
-270,584	77,527	0,074	0,057
-269,570	-121,169	0,056	0,007
-268,555	-71,925	-0,157	-0,042
-267,540	-200,000	0,033	-0,173
-266,526	-47,027	-0,103	0,036
-265,511	-34,090	0,166	0,066
-264,497	-200,000	0,012	0,046
-263,482	702,842	0,079	0,152
-262,467	-92,214	0,095	-0,019
-261,453	-129,218	0,079	0,008
-260,438	-200,000	-0,006	-0,125
-259,424	-186,215	-0,127	0,001
-258,409	-127,527	-0,064	-0,007
-257,395	431,060	-0,029	-0,045
-256,380	800,000	0,052	0,116
-255,365	-200,000	0,041	0,173
-254,351	322,817	0,117	0,162
-253,336	435,972	-0,018	-0,029
-252,322	506,406	0,074	-0,125
-251,307	-19,389	-0,055	-0,025
-250,292	800,000	0,054	0,152
-249,278	-122,193	-0,054	-0,006
-248,263	-93,470	0,049	-0,010
-247,249	-35,788	0,070	0,027
-246,234	-200,000	0,002	0,081
-245,219	-8,759	-0,064	-0,031
-244,205	-34,415	0,128	-0,051
-243,190	230,893	0,143	0,170
-242,176	18,324	0,121	0,070
-241,161	-200,000	0,017	0,063
-240,146	18,150	-0,055	-0,032
-239,132	-37,762	-0,077	0,029
-238,117	113,208	-0,179	-0,158
-237,103	-200,000	0,038	-0,123
-236,088	43,056	-0,016	-0,010
-235,073	-200,000	0,015	0,102
-234,059	24,969	0,111	0,067
-233,044	-107,534	0,086	0,014
-232,030	-176,878	-0,161	0,003
-231,015	244,983	-0,063	-0,077
-230,000	9,912	-0,072	-0,040
-228,986	128,516	-0,068	-0,063
-227,971	55,395	0,034	0,024
-226,957	-136,081	-0,089	0,007
-225,942	113,046	-0,092	-0,081
-224,927	73,973	0,134	0,102
-223,913	0,812	-0,023	0,012
-222,898	51,852	-0,025	-0,017
-221,884	800,000	-0,044	0,107
-220,869	155,056	0,055	0,055
-219,855	-83,041	0,061	0,014
-218,840	-200,000	0,037	0,153
-217,825	-99,985	0,159	0,029
-216,811	-74,346	-0,078	-0,020
-215,796	-200,000	-0,013	-0,057
-214,782	84,227	-0,055	-0,044
-213,767	-65,855	-0,019	-0,005
-212,752	-39,170	0,046	-0,017
-211,738	115,776	-0,064	-0,057
-210,723	60,329	0,086	0,062
-209,709	-200,000	-0,015	-0,063
-208,694	-15,967	0,016	0,007
-207,679	-200,000	-0,016	-0,158
-206,665	155,938	0,058	0,058
-205,650	-135,223	-0,102	0,009
-204,636	-200,000	-0,014	0,156
-203,621	91,090	-0,080	-0,065
-202,606	5,486	-0,088	0,047
-201,592	448,287	0,030	-0,049
-200,577	238,742	-0,074	-0,089
-199,563	574,381	0,028	0,050
-198,548	15,337	-0,089	0,050
-197,533	800,000	0,057	0,157
-196,519	-67,205	-0,055	-0,016
-195,504	-200,000	-0,031	-0,136
-194,490	-186,347	-0,200	-0,002
-193,475	-160,787	0,089	-0,003
-192,460	800,000	0,027	-0,066
-191,446	-80,676	0,068	0,016
-190,431	-200,000	-0,019	0,088
-189,417	-64,510	0,105	0,031
-188,402	96,751	0,053	-0,044
-187,387	-47,697	0,095	0,033
-186,373	800,000	0,019	-0,045
-185,358	-142,674	0,116	-0,008
-184,344	254,350	0,052	-0,064
-183,329	800,000	-0,007	0,020
-182,315	-200,000	-0,002	-0,077
-181,300	-99,651	-0,143	-0,026
-180,285	-148,292	-0,174	-0,010
-179,271	73,568	0,053	-0,040
-178,256	-6,288	0,056	0,028
-177,242	800,000	0,053	0,127
-176,227	63,082	0,060	0,043
-175,212	217,121	0,028	0,032
-174,198	-200,000	0,002	-0,054
-173,183	-200,000	-0,004	-0,104
-172,169	-73,249	-0,188	0,050
-171,154	800,000	-0,022	-0,069
-170,139	-200,000	0,025	0,097
-169,125	-200,000	-0,007	-0,059
-168,110	11,944	0,095	-0,053
-167,096	-200,000	-0,007	-0,138
-166,081	72,354	-0,113	0,085
-165,066	566,529	0,050	-0,088
-164,052	579,123	0,048	-0,086
-163,037	-200,000	0,001	0,126
-162,023	233,812	-0,090	-0,108
-161,008	8,296	0,114	0,062
-159,993	93,263	-0,067	0,055
-158,979	-200,000	-0,045	0,144
-157,964	65,589	0,082	-0,060
-156,950	115,467	-0,117	0,104
-155,935	800,000	-0,047	0,095
-154,920	-111,505	0,138	-0,020
-153,906	-66,942	0,070	0,020
-152,891	800,000	0,016	-0,037
-151,877	-92,168	-0,214	-0,044
-150,862	-200,000	0,003	-0,014
-149,847	-44,555	-0,023	0,008
-148,833	-0,020	0,186	0,096
-147,818	-34,636	-0,109	-0,043
-146,804	131,176	0,058	-0,054
-145,789	-158,018	0,091	0,004
-144,775	129,775	-0,076	-0,071
-143,760	134,596	-0,049	0,046
-142,745	-53,208	-0,030	-0,010
-141,731	308,873	0,065	-0,088
-140,716	655,727	-0,072	-0,135
-139,702	-200,000	0,002	-0,111
-138,687	-131,297	0,180	-0,017
-137,672	-200,000	0,003	0,057
-136,658	-124,625	-0,206	0,023
-135,643	-200,000	-0,011	-0,208
-134,629	43,456	0,109	0,072
-133,614	52,745	0,123	-0,085
-132,599	532,359	-0,021	-0,037
-131,585	21,591	0,006	0,003
-130,570	-115,339	-0,052	0,007
-129,556	175,976	-0,057	-0,060
-128,541	-200,000	-0,007	0,054
-127,526	-102,101	0,077	-0,013
-126,512	800,000	-0,017	-0,051
-125,497	614,729	0,094	0,170
-124,483	-85,434	0,129	0,029
-123,468	-200,000	-0,020	0,099
-122,453	68,778	0,111	-0,082
-121,439	232,558	-0,052	-0,062
-120,424	-0,368	-0,156	0,080
-119,410	800,000	0,046	-0,137
-118,395	591,575	0,057	0,102
-117,380	-104,647	-0,039	0,006
-116,366	143,414	-0,068	-0,066
-115,351	34,042	-0,071	0,045
-114,337	800,000	-0,039	-0,123
-113,322	-191,194	-0,107	0,001
-112,307	524,397	0,040	0,068
-111,293	-64,478	-0,064	-0,019
-110,278	800,000	-0,037	0,094
-109,264	-151,266	0,039	0,002
-108,249	319,686	0,048	-0,066
-107,234	-42,108	-0,128	0,047
-106,220	208,234	-0,130	-0,147
-105,205	332,267	-0,068	0,095
-104,191	-200,000	0,044	0,172
-103,176	153,461	-0,124	0,123
-102,162	-200,000	-0,031	0,101
-101,147	-32,862	0,069	-0,028
-100,132	-200,000	-0,001	0,041
-99,118	-120,430	0,142	-0,017
-98,103	257,764	0,066	-0,082
-97,089	-200,000	-0,010	0,088
-96,074	262,498	0,034	-0,043
-95,059	800,000	-0,034	0,086
-94,045	49,073	0,092	0,062
-93,030	-200,000	-0,003	-0,139
-92,016	511,274	-0,005	0,009
-91,001	800,000	-0,019	0,043
-89,986	13,768	-0,023	0,013
-88,972	8,860	0,086	-0,047
-87,957	-200,000	0,000	0,100
-86,943	-200,000	-0,009	-0,112
-85,928	-175,643	-0,078	0,001
-84,913	71,681	0,151	-0,113
-83,899	16,382	0,024	0,014
-82,884	800,000	0,032	-0,097
-81,870	-200,000	-0,009	-0,068
-80,855	30,886	-0,012	-0,008
-79,840	-60,299	0,104	0,032
-78,826	-88,179	-0,062	-0,013
-77,811	-200,000	-0,019	-0,208
-76,797	-21,717	-0,030	-0,013
-75,782	-36,698	-0,041	0,016
-74,767	-145,414	0,084	-0,005
-73,753	424,671	-0,020	0,030
-72,738	-200,000	-0,005	0,072
-71,724	-200,000	0,021	0,078
-70,709	-200,000	0,010	0,059
-69,694	800,000	-0,030	0,070
-68,680	-200,000	-0,043	0,179
-67,665	-43,475	0,045	0,016
-66,651	-57,542	0,115	0,036
-65,636	338,907	-0,101	-0,142
-64,622	-200,000	-0,004	-0,101
-63,607	800,000	0,047	0,112
-62,592	160,501	-0,063	0,063
-61,578	-86,640	-0,061	-0,013
-60,563	-200,000	-0,003	0,050
-59,549	-200,000	-0,016	0,109
-58,534	55,770	-2,128	-1,488
-57,519	597,146	-1,083	-1,947
-56,505	-200,000	-0,254	-4,306
-55,490	527,524	0,970	1,659
-54,476	800,000	5,212	11,032
-53,461	-200,000	22,113	344,653
-52,446	800,000	753,643	2302,835
-51,432	511,197	1639,471	2766,038
-50,417	67,435	1572,417	1157,624
-49,403	18,997	1159,338	669,351
-48,388	11,458	887,646	489,789
-47,373	25,894	855,213	513,570
-46,359	17,081	841,146	480,136
-45,344	8,423	836,999	453,139
-44,330	8,256	835,340	451,749
-43,315	8,183	834,075	450,840
-42,300	8,171	832,724	450,056
-41,286	8,193	831,792	449,598
-40,271	8,165	830,961	449,053
-39,257	8,208	829,721	448,484
-38,242	8,190	829,074	448,067
-37,227	8,284	827,971	447,718
-36,213	8,294	827,088	447,252
-35,198	8,265	826,298	446,726
-34,184	8,279	825,890	446,525
-33,169	8,133	825,018	445,627
-32,154	8,301	824,054	445,560
-31,140	8,292	822,851	444,867
-30,125	8,294	822,252	444,529
-29,111	8,237	821,558	443,979
-28,096	8,218	821,301	443,767
-27,082	8,309	820,367	443,501
-26,067	8,277	819,665	443,015
-25,052	8,209	818,732	442,302
-24,038	8,172	818,278	441,935
-23,023	8,277	817,619	441,857
-22,009	8,300	817,028	441,583
-20,994	8,263	816,296	441,067
-19,979	8,354	815,379	440,805
-18,965	8,314	815,051	440,500
-17,950	8,332	814,708	440,348
-16,936	8,237	814,051	439,711
-15,921	8,254	813,542	439,467
-14,906	8,224	812,598	438,857
-13,892	8,246	812,066	438,612
-12,877	8,105	811,662	437,986
-11,863	8,105	811,124	437,678
-10,848	8,174	810,614	437,576
-9,833	8,266	810,176	437,576
-8,819	8,187	809,479	436,965
-7,804	8,231	808,804	436,705
-6,790	8,206	808,459	436,432
-5,775	8,189	808,208	436,233
-4,760	8,215	807,422	435,863
-3,746	8,119	807,140	435,430
-2,731	8,000	806,484	434,730
-1,717	7,981	806,129	434,470
-0,702	7,999	805,443	434,133
0,313	8,099	802,673	433,567
1,327	11,765	785,930	434,292
2,342	20,382	640,138	372,366
3,356	14,296	352,731	197,908
4,371	-15,741	237,280	108,701
5,386	-18,671	223,332	100,043
6,400	-18,868	219,240	98,052
7,415	-17,902	217,221	97,865
8,429	-18,823	215,883	96,567
9,444	-19,246	215,344	96,003
10,459	-18,934	214,604	95,895
11,473	-19,062	214,158	95,593
12,488	-18,760	213,775	95,637
13,502	-19,059	213,347	95,216
14,517	-18,832	212,890	95,171
15,531	-19,238	212,493	94,687
16,546	-19,009	212,306	94,763
17,561	-18,941	211,862	94,606
18,575	-18,944	211,624	94,489
19,590	-19,004	211,160	94,230
20,604	-18,988	211,042	94,181
21,619	-19,125	210,697	93,919
22,634	-19,077	210,411	93,817
23,648	-18,878	210,116	93,821
24,663	-19,242	209,807	93,413
25,677	-19,023	209,733	93,529
26,692	-19,193	209,659	93,365
27,707	-18,881	209,267	93,408
28,721	-18,974	209,013	93,219
29,736	-18,922	208,686	93,102
30,750	-19,044	208,499	92,922
31,765	-19,040	208,307	92,832
32,780	-18,962	208,172	92,819
33,794	-18,818	207,949	92,814
34,809	-18,935	207,750	92,633
35,823	-18,922	207,487	92,517
36,838	-19,067	207,087	92,227
37,853	-18,904	206,965	92,281
38,867	-18,997	206,920	92,186
39,882	-19,126	206,632	91,958
40,896	-19,026	206,605	92,009
41,911	-18,936	206,243	91,904
42,926	-18,838	206,140	91,918
43,940	-19,112	205,747	91,541
44,955	-18,842	205,675	91,692
45,969	-19,018	205,516	91,489
46,984	-18,907	205,350	91,485
47,999	-18,985	205,266	91,384
49,013	-18,664	204,839	91,412
50,028	-18,836	205,018	91,363
51,042	-18,583	204,497	91,301
52,057	-18,914	204,515	91,067
53,071	-18,642	204,103	91,067
54,086	-18,851	204,035	90,882
55,101	-18,707	203,794	90,868
56,115	-18,610	203,420	90,761
57,130	-18,984	203,449	90,504
58,144	-18,961	203,201	90,401
59,159	-18,711	202,882	90,426
60,174	-19,076	202,863	90,155
61,188	-19,188	202,880	90,076
62,203	-19,102	202,528	89,971
63,217	-19,055	202,495	89,982
64,232	-18,942	202,158	89,902
65,247	-18,863	201,868	89,821
66,261	-18,904	201,783	89,746
67,276	-18,820	201,445	89,646
68,290	-18,906	201,545	89,623
69,305	-18,663	201,226	89,641
70,320	-18,795	201,051	89,464
71,334	-18,910	200,996	89,352
72,349	-18,935	200,692	89,191
73,363	-18,779	200,500	89,206
74,378	-19,000	200,288	88,952
75,393	-19,068	200,185	88,851
76,407	-18,889	200,065	88,913
77,422	-18,795	199,819	88,860
78,436	-18,983	199,646	88,647
79,451	-18,907	199,363	88,565
80,466	-18,811	199,187	88,544
81,480	-18,894	199,083	88,434
82,495	-18,895	198,984	88,381
83,509	-18,700	198,751	88,403
84,524	-18,817	198,807	88,340
85,539	-18,697	198,499	88,276
86,553	-18,793	198,415	88,166
87,568	-19,006	198,256	87,943
88,582	-18,961	198,099	87,896
89,597	-18,792	197,654	87,805
90,611	-18,894	197,651	87,727
91,626	-18,914	197,458	87,620
92,641	-18,840	197,308	87,595
93,655	-18,752	197,157	87,580
94,670	-18,787	196,910	87,439
95,684	-18,839	196,796	87,345
96,699	-19,111	196,700	87,112
97,714	-18,682	196,531	87,318
98,728	-18,726	196,327	87,190
99,743	-18,996	196,235	86,960
100,757	-18,732	196,074	87,058
101,772	-18,785	195,800	86,893
102,787	-18,812	195,800	86,867
103,801	-18,963	195,606	86,672
104,816	-19,084	195,427	86,504
105,830	-19,024	195,280	86,472
106,845	-18,909	195,124	86,471
107,860	-18,934	195,065	86,421
108,874	-18,705	194,822	86,458
109,889	-18,629	194,515	86,365
110,903	-19,049	194,477	86,061
111,918	-18,899	194,245	86,051
112,933	-18,755	194,217	86,126
113,947	-18,695	194,015	86,068
114,962	-19,080	193,856	85,735
115,976	-18,893	193,634	85,753
116,991	-18,920	193,354	85,604
118,006	-18,992	193,323	85,535
119,020	-18,842	193,246	85,592
120,035	-18,806	193,111	85,549
121,049	-18,793	193,000	85,500
122,064	-18,736	192,834	85,457
123,079	-18,748	192,716	85,389
124,093	-18,881	192,509	85,202
125,108	-18,773	192,346	85,193
126,122	-18,642	192,121	85,172
127,137	-18,556	192,086	85,206
128,151	-18,437	191,855	85,173
129,166	-18,648	191,717	84,966
130,181	-18,558	191,431	84,891
131,195	-18,670	191,430	84,809
132,210	-18,860	191,143	84,551
133,224	-18,880	190,993	84,464
134,239	-18,923	190,962	84,415
135,254	-18,558	190,800	84,573
136,268	-18,711	190,564	84,361
137,283	-18,540	190,459	84,419
138,297	-18,693	190,320	84,250
139,312	-18,813	190,207	84,115
140,327	-19,260	189,832	83,652
141,341	-19,077	189,644	83,679
142,356	-19,084	189,456	83,585
143,370	-17,989	189,931	84,497
144,385	-10,705	191,836	90,098
145,400	-4,197	193,446	95,125
146,414	-2,954	193,554	95,986
147,429	-2,640	193,603	96,208
148,443	-2,433	193,308	96,188
149,458	-2,335	193,435	96,306
150,473	-2,133	193,285	96,356
151,487	-1,864	193,140	96,451
152,502	-1,775	192,983	96,422
153,516	-1,849	192,925	96,336
154,531	-1,558	192,540	96,325
155,546	-1,841	192,602	96,163
156,560	-1,780	192,463	96,125
157,575	-1,671	192,281	96,096
158,589	-1,519	192,205	96,148
159,604	-1,747	192,082	95,930
160,619	-1,450	191,893	96,020
161,633	-1,399	191,803	96,000
162,648	-1,622	191,744	95,817
163,662	-1,544	191,512	95,743
164,677	-1,421	191,340	95,728
165,692	-1,016	191,315	95,969
166,706	-1,621	191,253	95,538
167,721	-1,474	191,079	95,537
168,735	-1,287	190,838	95,529
169,750	-1,354	190,839	95,478
170,764	-1,068	190,692	95,580
171,779	-1,376	190,708	95,381
172,794	-1,217	190,543	95,393
173,808	-1,425	190,367	95,162
174,823	-1,392	190,110	95,046
175,837	-1,270	189,988	95,055
176,852	-1,213	189,936	95,058
177,867	-1,335	189,799	94,902
178,881	-1,227	189,537	94,832
179,896	-1,195	189,453	94,801
180,910	-1,409	189,400	94,630
181,925	-1,303	189,179	94,579
182,940	-1,228	189,174	94,616
183,954	-1,306	188,958	94,450
184,969	-1,296	188,986	94,462
185,983	-0,998	188,718	94,509
186,998	-1,239	188,606	94,291
188,013	-0,984	188,454	94,369
189,027	-1,102	188,323	94,220
190,042	-0,973	188,097	94,180
191,056	-0,954	187,995	94,133
192,071	-1,049	187,992	94,063
193,086	-1,035	187,796	93,965
194,100	-1,142	187,731	93,857
195,115	-1,220	187,561	93,714
196,129	-1,109	187,334	93,662
197,144	-1,020	187,180	93,633
198,159	-0,771	187,026	93,704
199,173	-1,074	187,148	93,566
200,188	-0,984	186,850	93,465
201,202	-1,032	186,659	93,331
202,217	-0,990	186,573	93,306
203,232	-1,017	186,386	93,188
204,246	-1,194	186,454	93,102
205,261	-1,291	186,178	92,895
206,275	-1,003	186,018	92,988
207,290	-0,946	185,944	92,978
208,304	-0,895	185,818	92,939
209,319	-0,891	185,637	92,842
210,334	-0,997	185,491	92,695
211,348	-0,799	185,219	92,674
212,363	-1,065	185,347	92,564
213,377	-0,730	184,996	92,589
214,392	-0,695	184,977	92,593
215,407	-0,807	184,899	92,476
216,421	-1,017	184,816	92,296
217,436	-0,930	184,648	92,258
218,450	-0,889	184,464	92,183
219,465	-0,826	184,422	92,192
220,480	-0,771	184,148	92,082
221,494	-0,950	184,161	91,969
222,509	-0,599	184,037	92,116
223,523	-0,738	183,821	91,914
224,538	-0,743	183,846	91,915
225,553	-0,818	183,539	91,707
226,567	-1,297	183,642	91,455
227,582	-1,013	183,396	91,499
228,596	-0,744	183,307	91,612
229,611	-0,795	183,190	91,514
230,626	-0,698	183,120	91,531
231,640	-0,764	182,883	91,364
232,655	-0,630	182,681	91,337
233,669	-0,721	182,765	91,315
234,684	-0,701	182,477	91,175
235,699	-0,612	182,343	91,154
236,713	-0,544	182,305	91,169
237,728	-0,595	182,218	91,087
238,742	-0,619	182,300	91,104
239,757	-0,866	182,059	90,825
240,772	-0,297	181,778	91,024
241,786	-0,668	181,719	90,760
242,801	-0,349	181,607	90,891
243,815	-0,485	181,606	90,799
244,830	-0,435	181,452	90,744
245,844	-0,630	181,361	90,572
246,859	-0,763	181,109	90,357
247,874	-0,423	180,939	90,471
248,888	-0,450	180,888	90,421
249,903	-0,564	180,861	90,330
250,917	-0,712	180,997	90,300
251,932	-0,557	180,545	90,160
252,947	-0,640	180,377	90,018
253,961	-0,369	180,221	90,096
254,976	-0,702	180,104	89,828
255,990	-0,848	180,098	89,729
257,005	-0,558	179,974	89,834
258,020	-0,925	179,888	89,562
259,034	-0,394	179,706	89,783
260,049	-0,445	179,633	89,708
261,063	-0,383	179,398	89,620
262,078	-0,365	179,364	89,606
263,093	-0,296	179,212	89,564
264,107	-0,364	179,113	89,465
265,122	-0,447	178,976	89,339
266,136	-0,521	178,942	89,269
267,151	-0,370	178,754	89,258
268,166	-0,473	178,625	89,124
269,180	-0,379	178,398	89,059
270,195	-0,151	178,441	89,209
271,209	-0,629	178,403	88,897
272,224	-0,279	178,253	89,023
273,239	-0,353	178,098	88,894
274,253	-0,312	178,014	88,868
275,268	-0,219	177,878	88,847
276,282	-0,233	177,804	88,794
277,297	-0,531	177,650	88,532
278,312	-0,340	177,516	88,571
279,326	-0,311	177,504	88,575
280,341	-0,334	177,411	88,506
281,355	-0,174	177,057	88,416
282,370	-0,023	177,013	88,477
283,384	-0,249	176,914	88,286
284,399	-0,143	176,845	88,305
285,414	0,051	176,583	88,282
286,428	-0,127	176,524	88,139
287,443	-0,362	176,495	87,978
288,457	-0,140	176,365	88,036
289,472	-0,154	176,221	87,948
290,487	-0,250	176,104	87,825
291,501	-0,243	176,159	87,849
292,516	-0,370	175,834	87,604
293,530	-0,167	175,888	87,743
294,545	0,270	175,732	87,914
295,560	-0,130	175,569	87,590
296,574	0,048	175,484	87,645
297,589	0,095	175,401	87,622
298,603	-0,213	175,296	87,382
299,618	-0,463	175,095	87,128
300,633	-0,219	175,114	87,272
301,647	-0,034	174,972	87,301
302,662	0,170	174,756	87,305
303,676	-0,149	174,632	87,049
304,691	0,154	174,438	87,121
305,706	-0,125	174,378	86,921
306,720	-0,125	174,352	86,900
307,735	-0,022	174,150	86,852
308,749	-0,034	174,145	86,835
309,764	0,217	174,000	86,900
310,779	-0,076	173,824	86,635
311,793	0,123	173,661	86,661
312,808	-0,195	173,506	86,392
313,822	-0,137	173,645	86,487
314,837	0,080	173,424	86,494
315,852	0,087	173,397	86,478
316,866	-0,124	173,197	86,249
317,881	-0,025	173,128	86,263
318,895	0,213	172,886	86,273
319,910	-0,005	172,723	86,057
320,925	-0,170	172,738	85,963
321,939	-0,260	172,591	85,830
322,954	0,109	172,528	86,004
323,968	0,194	172,381	85,971
324,983	0,112	172,233	85,842
325,997	-0,052	172,256	85,752
327,012	0,431	172,034	85,910
328,027	0,019	172,028	85,664
329,041	0,273	171,829	85,703
330,056	0,028	171,916	85,598
331,070	0,050	171,754	85,522
332,085	0,227	171,559	85,519
333,100	0,149	171,280	85,327
334,114	0,234	171,231	85,344
335,129	-0,065	171,174	85,138
336,143	0,267	171,070	85,267
337,158	0,190	170,981	85,172
338,173	0,470	170,945	85,305
339,187	0,348	170,751	85,132
340,202	0,138	170,610	84,934
341,216	0,201	170,484	84,900
342,231	0,313	170,426	84,927
343,246	0,330	170,267	84,850
344,260	0,491	170,193	84,896
345,275	0,694	170,009	84,912
346,289	0,469	169,963	84,754
347,304	0,459	169,787	84,654
348,319	0,509	169,676	84,619
349,333	0,409	169,498	84,466
350,348	0,312	169,499	84,404
351,362	0,346	169,345	84,339
352,377	0,559	169,242	84,400
353,392	0,232	169,287	84,231
354,406	0,665	169,056	84,352
355,421	189,820	1325,380	1392,689
356,435	150,206	1466,714	1393,168
