DTS Sentinel unit serial number:	SN410029Multiplexer serial number:	ORYXHardware model number:	OX2-SRSoftware version number:	ORYX F/W v4,00 Oryx Data Collector v3.7.2.0data status	okinstallation	B3 Nyhavnadifferential loss correction	single-endedforward channel	channel 1reverse channel	N/Adate	2023/11/28time	12:07:30forward acquisition time	300,00reverse acquisition time	0,00gamma	499,1914k internal	0,3143k external	0,3143temperature offset calibration	1,0000default loss term (dB/km)	0,3820temperature slope calibration	1,0000multiplexer offset coefficient	1,0000multiplexer slope coefficient	1,0000fibre end	0,00T internal ref (°C)	8,72T ext. ref 1 (°C)	-7,51T ext. ref 2 (°C)	-7,72length (m)	temperature (°C)	Stokes	anti-Stokes-744,400	253,360	-0,175	-0,222
-743,385	-200,000	0,008	0,418
-742,371	656,275	-0,102	-0,196
-741,356	-200,000	-0,083	0,339
-740,342	16,194	-0,257	-0,150
-739,327	-200,000	-0,023	0,420
-738,312	302,577	-0,171	-0,235
-737,298	-200,000	-0,017	0,199
-736,283	299,857	-0,175	-0,240
-735,269	618,730	-0,105	0,195
-734,254	118,732	-0,246	-0,225
-733,239	-89,448	-0,288	-0,062
-732,225	514,313	-0,084	-0,145
-731,210	-152,430	0,215	0,011
-730,196	800,000	0,011	-0,028
-729,181	26,171	-0,124	-0,076
-728,167	609,608	-0,039	-0,073
-727,152	800,000	-0,028	0,077
-726,137	74,715	-0,052	-0,040
-725,123	-60,662	-0,106	0,033
-724,108	-200,000	0,001	-0,011
-723,094	-98,351	-0,192	0,036
-722,079	14,528	-0,160	0,092
-721,064	199,719	-0,141	0,160
-720,050	-5,715	0,094	-0,048
-719,035	-15,231	0,033	0,016
-718,021	-167,986	-0,175	0,005
-717,006	-80,333	0,043	0,011
-715,991	530,722	-0,084	0,147
-714,977	167,411	-0,081	-0,086
-713,962	47,386	0,029	0,020
-712,948	-66,842	0,149	-0,043
-711,933	-5,998	-0,044	-0,022
-710,918	47,629	0,130	0,089
-709,904	-200,000	-0,011	-0,053
-708,889	-200,000	-0,009	-0,052
-707,875	319,935	0,079	-0,112
-706,860	-200,000	-0,016	0,182
-705,845	-49,279	-0,019	-0,007
-704,831	-4,558	0,118	-0,060
-703,816	258,152	0,020	-0,025
-702,802	800,000	-0,077	0,157
-701,787	130,852	-0,020	-0,019
-700,772	11,748	0,080	-0,045
-699,758	-90,508	-0,109	0,023
-698,743	123,659	-0,082	0,076
-697,729	-200,000	-0,008	0,079
-696,714	250,857	0,020	0,026
-695,699	-200,000	0,008	-0,027
-694,685	19,678	0,084	-0,050
-693,670	175,006	-0,084	-0,090
-692,656	-146,263	0,113	-0,007
-691,641	800,000	-0,039	-0,118
-690,627	-46,441	0,082	0,029
-689,612	-117,963	-0,167	0,022
-688,597	-103,119	-0,155	-0,027
-687,583	80,111	-0,103	-0,082
-686,568	800,000	0,015	-0,041
-685,554	160,826	0,041	0,042
-684,539	133,665	-0,112	0,107
-683,524	-200,000	-0,011	-0,078
-682,510	-200,000	-0,005	0,231
-681,495	-13,557	-0,048	0,023
-680,481	256,940	-0,094	0,120
-679,466	-59,745	-0,095	-0,030
-678,451	-16,540	-0,035	0,016
-677,437	-70,210	-0,136	-0,038
-676,422	-200,000	-0,003	-0,122
-675,408	-200,000	-0,045	0,160
-674,393	82,608	-0,023	-0,019
-673,378	9,687	-0,097	-0,054
-672,364	-64,026	-0,119	-0,036
-671,349	-200,000	-0,008	0,069
-670,335	108,798	0,080	0,071
-669,320	448,455	0,012	-0,019
-668,305	-115,848	-0,062	-0,008
-667,291	223,202	0,041	0,049
-666,276	-129,225	-0,117	0,012
-665,262	-200,000	0,014	-0,117
-664,247	-36,259	0,114	-0,045
-663,232	119,632	-0,026	0,024
-662,218	-4,231	-0,070	-0,036
-661,203	-157,022	-0,110	0,005
-660,189	-20,286	-0,025	-0,011
-659,174	-200,000	-0,004	0,026
-658,159	295,786	0,056	-0,076
-657,145	578,074	-0,033	-0,060
-656,130	-127,263	-0,021	-0,002
-655,116	800,000	0,015	0,032
-654,101	344,001	0,068	-0,099
-653,086	96,163	0,064	-0,054
-652,072	-33,137	0,141	-0,057
-651,057	-33,253	-0,142	0,058
-650,043	753,473	-0,039	-0,077
-649,028	-200,000	0,010	0,068
-648,014	-39,815	0,104	0,040
-646,999	26,499	0,098	0,060
-645,984	-200,000	0,011	0,160
-644,970	-200,000	-0,017	-0,058
-643,955	-200,000	0,008	0,059
-642,941	106,777	-0,026	-0,022
-641,926	-77,405	-0,021	-0,005
-640,911	-83,115	0,071	-0,017
-639,897	92,550	-0,022	-0,019
-638,882	-200,000	-0,010	0,126
-637,868	307,811	-0,038	-0,053
-636,853	-81,121	-0,033	-0,008
-635,838	200,282	-0,072	-0,082
-634,824	47,867	-0,066	-0,046
-633,809	-200,000	-0,007	-0,114
-632,795	143,574	-0,022	-0,022
-631,780	-200,000	-0,008	-0,064
-630,765	-200,000	0,002	-0,063
-629,751	-28,782	-0,066	-0,028
-628,736	800,000	-0,014	-0,034
-627,722	128,608	-0,063	0,059
-626,707	6,658	0,051	-0,028
-625,692	87,117	0,110	-0,090
-624,678	-52,254	0,147	-0,050
-623,663	233,908	0,059	0,072
-622,649	422,267	-0,061	-0,097
-621,634	-200,000	-0,006	-0,021
-620,619	-200,000	-0,016	-0,082
-619,605	-33,933	-0,026	-0,010
-618,590	103,692	0,055	0,048
-617,576	-95,449	0,036	0,007
-616,561	35,578	-0,099	0,064
-615,546	10,900	0,084	-0,047
-614,532	-124,191	-0,115	-0,013
-613,517	-200,000	-0,020	-0,199
-612,503	-200,000	0,023	-0,092
-611,488	-9,457	0,114	-0,056
-610,474	6,843	-0,118	0,064
-609,459	395,263	-0,118	0,182
-608,444	596,741	0,039	-0,071
-607,430	143,611	-0,108	0,106
-606,415	755,428	0,042	-0,083
-605,401	-165,649	0,042	-0,001
-604,386	72,869	-0,040	0,031
-603,371	150,185	-0,037	0,037
-602,357	272,622	-0,083	0,108
-601,342	800,000	0,035	0,085
-600,328	12,846	-0,056	0,032
-599,313	12,975	-0,151	-0,086
-598,298	160,204	0,095	-0,098
-597,284	-51,741	0,064	-0,022
-596,269	-126,734	-0,089	0,010
-595,255	-106,686	-0,116	-0,019
-594,240	800,000	-0,049	-0,114
-593,225	800,000	-0,011	0,022
-592,211	54,093	-0,024	-0,017
-591,196	-80,131	-0,097	-0,024
-590,182	-200,000	-0,005	-0,098
-589,167	531,083	0,049	0,086
-588,152	-200,000	-0,013	-0,074
-587,138	75,911	0,065	0,051
-586,123	-106,799	0,061	-0,010
-585,109	800,000	-0,048	-0,100
-584,094	800,000	-0,027	-0,077
-583,079	-171,412	-0,095	-0,002
-582,065	98,445	0,094	-0,079
-581,050	21,295	-0,048	0,028
-580,036	-30,834	0,099	-0,041
-579,021	-40,176	-0,137	-0,052
-578,006	156,989	-0,062	-0,063
-576,992	-200,000	0,018	0,081
-575,977	-33,766	-0,050	-0,020
-574,963	165,516	0,049	-0,052
-573,948	418,950	-0,079	0,125
-572,934	217,196	0,058	-0,068
-571,919	15,537	-0,008	-0,005
-570,904	800,000	0,023	-0,073
-569,890	47,034	0,036	-0,025
-568,875	7,500	0,086	-0,047
-567,861	5,926	-0,125	0,068
-566,846	405,530	0,068	0,106
-565,831	74,458	0,070	-0,054
-564,817	666,261	-0,040	0,076
-563,802	138,965	-0,120	-0,116
-562,788	120,455	-0,017	0,016
-561,773	-122,820	0,077	0,009
-560,758	0,065	0,019	0,010
-559,744	174,496	-0,002	-0,003
-558,729	107,031	-0,109	-0,095
-557,715	-200,000	0,014	-0,120
-556,700	470,109	0,075	-0,125
-555,685	575,435	-0,038	0,069
-554,671	800,000	-0,057	0,158
-553,656	190,496	-0,085	0,094
-552,642	-38,308	-0,083	-0,032
-551,627	4,517	0,031	-0,016
-550,612	-88,438	-0,094	-0,020
-549,598	800,000	-0,068	0,154
-548,583	-91,395	-0,072	-0,015
-547,569	195,364	0,049	0,055
-546,554	-200,000	0,009	-0,106
-545,539	-92,154	0,152	0,031
-544,525	-200,000	0,042	0,161
-543,510	308,049	0,059	0,081
-542,496	138,325	-0,076	0,073
-541,481	72,997	-0,131	-0,101
-540,466	-181,635	0,132	0,002
-539,452	-200,000	-0,010	0,054
-538,437	-200,000	-0,019	0,171
-537,423	671,285	-0,032	0,061
-536,408	792,734	0,027	-0,055
-535,393	41,880	-0,075	-0,050
-534,379	319,732	0,004	0,006
-533,364	-147,780	-0,154	0,009
-532,350	276,168	0,098	0,128
-531,335	109,063	0,055	-0,048
-530,321	63,542	0,040	-0,030
-529,306	132,959	-0,050	-0,047
-528,291	800,000	-0,043	-0,126
-527,277	-200,000	-0,020	-0,114
-526,262	-37,502	-0,067	-0,026
-525,248	231,444	-0,050	0,060
-524,233	800,000	0,024	0,062
-523,218	49,626	0,057	0,040
-522,204	45,519	-0,072	-0,049
-521,189	105,157	0,043	-0,038
-520,175	46,933	-0,093	-0,063
-519,160	800,000	-0,030	-0,080
-518,145	-48,777	0,160	-0,056
-517,131	-84,225	-0,090	0,021
-516,116	-200,000	0,013	0,091
-515,102	30,430	0,139	0,087
-514,087	251,510	-0,047	-0,059
-513,072	-135,026	0,109	0,010
-512,058	-200,000	-0,015	0,068
-511,043	-200,000	0,002	0,078
-510,029	428,630	-0,085	-0,135
-509,014	57,687	0,056	0,040
-507,999	-200,000	-0,015	0,092
-506,985	682,807	0,057	0,109
-505,970	611,286	-0,050	-0,092
-504,956	800,000	0,044	-0,108
-503,941	525,346	-0,036	0,062
-502,926	-47,965	-0,079	-0,028
-501,912	-2,456	-0,113	0,058
-500,897	800,000	-0,038	0,102
-499,883	222,928	-0,038	-0,045
-498,868	-55,361	0,059	-0,019
-497,853	290,718	0,036	0,048
-496,839	-120,807	-0,030	-0,004
-495,824	-200,000	0,004	-0,033
-494,810	-32,953	0,071	-0,029
-493,795	45,863	-0,032	-0,022
-492,781	456,045	-0,022	0,036
-491,766	50,830	0,034	0,024
-490,751	-54,490	-0,050	0,017
-489,737	314,414	0,058	0,081
-488,722	18,025	-0,046	-0,027
-487,708	608,056	0,090	-0,165
-486,693	-200,000	-0,036	0,136
-485,678	142,459	-0,066	-0,064
-484,664	214,958	-0,044	-0,052
-483,649	157,326	-0,030	-0,030
-482,635	-200,000	-0,008	-0,081
-481,620	29,431	0,079	-0,049
-480,605	-200,000	-0,007	0,110
-479,591	-74,485	-0,037	0,010
-478,576	-200,000	-0,054	0,193
-477,562	-200,000	-0,022	-0,153
-476,547	85,698	0,095	0,077
-475,532	28,449	-0,054	0,034
-474,518	-95,562	0,109	-0,021
-473,503	-200,000	-0,008	-0,063
-472,489	800,000	0,023	0,058
-471,474	4,375	0,092	0,049
-470,459	-200,000	-0,041	-0,149
-469,445	83,825	-0,099	0,079
-468,430	-135,549	0,021	0,002
-467,416	-143,715	0,188	0,013
-466,401	775,331	0,010	-0,020
-465,386	-184,049	0,163	-0,002
-464,372	800,000	-0,031	-0,067
-463,357	122,509	-0,176	-0,161
-462,343	202,294	0,078	-0,088
-461,328	-75,215	0,093	0,024
-460,313	674,489	0,034	-0,064
-459,299	-111,818	0,126	-0,018
-458,284	-170,485	0,074	0,002
-457,270	149,402	0,075	0,074
-456,255	-200,000	0,005	0,025
-455,241	-200,000	-0,007	-0,037
-454,226	117,454	-0,052	0,047
-453,211	100,485	0,134	0,114
-452,197	33,402	-0,041	0,026
-451,182	800,000	0,034	-0,092
-450,168	-37,556	0,050	-0,019
-449,153	-200,000	-0,028	0,137
-448,138	-45,287	-0,102	-0,037
-447,124	-51,471	-0,071	-0,024
-446,109	-42,967	-0,005	0,002
-445,095	213,840	0,028	-0,033
-444,080	-200,000	-0,020	0,154
-443,065	444,395	0,094	0,151
-442,051	119,438	0,048	0,043
-441,036	-200,000	-0,019	-0,141
-440,022	182,458	0,038	0,041
-439,007	387,184	0,054	-0,082
-437,992	-76,169	0,233	0,060
-436,978	-50,408	-0,035	0,012
-435,963	571,123	0,058	0,103
-434,949	800,000	-0,079	-0,167
-433,934	-200,000	0,009	-0,085
-432,919	357,747	-0,025	0,037
-431,905	54,010	0,113	-0,079
-430,890	429,045	0,038	-0,061
-429,876	73,853	-0,085	-0,065
-428,861	244,944	-0,037	-0,046
-427,846	-64,651	0,209	-0,062
-426,832	-93,822	-0,101	-0,020
-425,817	-200,000	-0,023	-0,088
-424,803	319,319	0,045	-0,062
-423,788	53,187	0,085	0,060
-422,773	273,663	-0,083	0,108
-421,759	-200,000	0,018	-0,106
-420,744	-200,000	-0,013	0,107
-419,730	-200,000	-0,007	-0,109
-418,715	-200,000	-0,020	-0,132
-417,701	-37,008	0,088	0,034
-416,686	800,000	-0,005	-0,012
-415,671	105,375	0,096	-0,083
-414,657	-200,000	-0,008	-0,056
-413,642	98,047	-0,068	-0,057
-412,628	-47,595	-0,054	-0,019
-411,613	-126,618	-0,141	-0,015
-410,598	-64,735	-0,109	-0,032
-409,584	-200,000	0,015	-0,061
-408,569	800,000	0,042	0,098
-407,555	800,000	0,038	0,083
-406,540	-158,811	0,053	-0,002
-405,525	-85,176	-0,018	0,004
-404,511	-68,162	-0,077	-0,022
-403,496	800,000	0,045	-0,132
-402,482	-200,000	0,004	0,036
-401,467	-200,000	0,013	-0,115
-400,452	53,657	0,068	0,047
-399,438	303,920	0,058	-0,079
-398,423	-200,000	0,010	-0,141
-397,409	225,389	-0,057	-0,067
-396,394	-200,000	-0,038	0,135
-395,379	114,579	0,074	-0,066
-394,365	26,343	0,032	-0,020
-393,350	-77,251	-0,032	0,008
-392,336	496,686	0,031	-0,052
-391,321	-13,906	-0,090	-0,042
-390,306	130,802	-0,062	-0,058
-389,292	135,990	0,028	0,027
-388,277	36,945	0,086	-0,056
-387,263	100,191	-0,055	0,047
-386,248	-127,715	0,055	-0,006
-385,233	800,000	-0,046	-0,129
-384,219	680,606	0,028	0,054
-383,204	-200,000	0,030	-0,103
-382,190	-88,787	0,047	0,010
-381,175	-200,000	0,047	-0,156
-380,160	4,539	0,076	-0,040
-379,146	-200,000	0,031	-0,128
-378,131	289,892	0,071	-0,095
-377,117	-200,000	0,021	0,142
-376,102	800,000	-0,033	0,088
-375,088	-107,929	0,096	0,015
-374,073	136,866	-0,021	0,020
-373,058	166,189	0,076	0,079
-372,044	475,736	-0,028	-0,046
-371,029	231,824	-0,047	-0,056
-370,015	61,392	-0,085	-0,062
-369,000	800,000	-0,050	-0,105
-367,985	800,000	-0,049	-0,127
-366,971	58,276	-0,088	-0,063
-365,956	800,000	0,013	-0,036
-364,942	11,000	-0,037	-0,021
-363,927	800,000	0,046	0,147
-362,912	-200,000	-0,016	0,060
-361,898	-200,000	-0,016	-0,123
-360,883	202,313	-0,048	0,054
-359,869	-101,140	0,140	0,025
-358,854	-158,684	0,068	-0,003
-357,839	-119,779	0,210	0,026
-356,825	-33,501	0,028	-0,011
-355,810	-174,026	-0,031	0,001
-354,796	35,805	0,106	-0,068
-353,781	-43,043	-0,094	0,035
-352,766	367,220	0,037	-0,055
-351,752	-69,932	0,206	-0,057
-350,737	800,000	0,040	0,107
-349,723	-169,196	-0,049	-0,001
-348,708	800,000	-0,068	0,147
-347,693	-200,000	-0,013	0,062
-346,679	33,433	-0,157	-0,099
-345,664	-114,486	-0,026	0,004
-344,650	-200,000	-0,003	-0,119
-343,635	-115,657	0,128	0,017
-342,620	34,065	-0,118	0,075
-341,606	800,000	-0,023	0,053
-340,591	28,681	-0,101	-0,062
-339,577	-29,858	-0,119	-0,049
-338,562	-200,000	0,023	0,169
-337,548	193,785	0,037	0,041
-336,533	-91,031	0,090	0,019
-335,518	-200,000	0,000	0,004
-334,504	237,044	-0,042	0,051
-333,489	-96,702	-0,112	-0,021
-332,475	3,982	-0,139	0,074
-331,460	-200,000	-0,014	-0,077
-330,445	-189,247	0,051	-0,000
-329,431	-51,077	0,102	0,035
-328,416	106,166	0,119	0,102
-327,402	-44,330	-0,161	-0,058
-326,387	-200,000	-0,022	0,117
-325,372	-186,290	-0,095	-0,001
-324,358	800,000	-0,092	-0,212
-323,343	-200,000	0,001	0,051
-322,329	149,228	-0,068	0,067
-321,314	800,000	0,039	0,093
-320,299	800,000	0,058	0,166
-319,285	-97,799	0,029	-0,005
-318,270	0,857	-0,103	0,054
-317,256	147,909	-0,068	-0,067
-316,241	-138,270	0,068	-0,005
-315,226	800,000	-0,012	-0,029
-314,212	800,000	0,039	0,106
-313,197	800,000	-0,014	0,037
-312,183	-200,000	0,004	0,073
-311,168	-200,000	-0,021	-0,088
-310,153	-200,000	-0,008	-0,032
-309,139	-200,000	0,006	-0,057
-308,124	-12,485	0,089	0,042
-307,110	-105,370	0,068	-0,011
-306,095	-77,145	0,062	-0,016
-305,080	-66,159	-0,119	-0,034
-304,066	-11,807	-0,035	-0,017
-303,051	-200,000	0,003	-0,101
-302,037	271,742	0,038	-0,048
-301,022	-102,082	-0,045	-0,008
-300,008	-200,000	-0,004	0,090
-298,993	-32,548	0,141	-0,057
-297,978	205,351	0,124	0,141
-296,964	-200,000	-0,003	0,093
-295,949	800,000	0,020	-0,045
-294,935	-200,000	0,004	-0,105
-293,920	22,368	0,040	0,024
-292,905	800,000	-0,033	0,075
-291,891	800,000	-0,019	0,055
-290,876	107,618	0,077	0,067
-289,862	-135,073	-0,079	0,007
-288,847	201,978	-0,039	0,043
-287,832	471,209	-0,063	-0,104
-286,818	40,719	-0,038	-0,025
-285,803	128,414	0,089	0,083
-284,789	85,681	-0,056	-0,045
-283,774	800,000	-0,037	-0,104
-282,759	-200,000	0,019	0,114
-281,745	-200,000	0,022	0,092
-280,730	243,375	0,093	0,114
-279,716	800,000	0,055	0,124
-278,701	83,679	-0,074	0,059
-277,686	251,059	-0,047	-0,058
-276,672	-200,000	0,017	0,090
-275,657	-27,363	-0,030	0,013
-274,643	800,000	0,053	-0,130
-273,628	-200,000	-0,008	-0,098
-272,613	101,708	0,109	0,093
-271,599	-40,843	0,024	0,009
-270,584	-200,000	0,007	0,056
-269,570	800,000	0,062	0,127
-268,555	37,778	-0,032	-0,021
-267,540	403,130	0,036	-0,056
-266,526	511,641	-0,026	-0,045
-265,511	-200,000	0,014	0,063
-264,497	181,113	0,062	0,066
-263,482	-200,000	-0,016	0,112
-262,467	30,915	0,122	0,076
-261,453	268,261	0,072	0,092
-260,438	92,496	-0,017	-0,014
-259,424	87,408	-0,165	-0,133
-258,409	379,939	-0,015	0,023
-257,395	457,929	-0,020	-0,033
-256,380	505,760	0,059	-0,100
-255,365	796,030	-0,084	0,169
-254,351	102,676	0,128	0,109
-253,336	800,000	-0,042	-0,128
-252,322	125,115	-0,099	-0,090
-251,307	-137,409	0,072	0,006
-250,292	-181,120	-0,106	0,002
-249,278	-200,000	-0,005	0,202
-248,263	-200,000	-0,009	-0,120
-247,249	-200,000	0,018	0,090
-246,234	-200,000	0,006	-0,084
-245,219	800,000	-0,080	-0,231
-244,205	-200,000	-0,010	-0,037
-243,190	-61,467	-0,067	-0,020
-242,176	55,756	0,027	-0,019
-241,161	-1,527	0,060	0,031
-240,146	-75,149	0,062	0,016
-239,132	98,165	-0,096	-0,081
-238,117	-111,674	-0,133	-0,019
-237,103	-0,141	-0,098	-0,050
-236,088	6,647	0,046	0,025
-235,073	-200,000	0,014	0,123
-234,059	-29,988	0,057	0,023
-233,044	176,372	0,069	0,072
-232,030	-200,000	-0,020	0,116
-231,015	83,916	0,050	-0,040
-230,000	10,469	-0,163	-0,090
-228,986	498,391	0,100	0,168
-227,971	81,738	0,130	0,102
-226,957	-200,000	0,012	-0,063
-225,942	-113,447	-0,110	0,015
-224,927	-35,584	0,042	0,017
-223,913	18,388	-0,083	-0,048
-222,898	-15,538	-0,023	0,011
-221,884	-137,052	-0,042	-0,003
-220,869	-21,373	0,123	-0,054
-219,855	800,000	-0,044	0,101
-218,840	-200,000	0,002	0,155
-217,825	800,000	-0,044	-0,090
-216,811	-200,000	0,012	0,039
-215,796	19,054	0,095	0,055
-214,782	-200,000	-0,003	0,121
-213,767	800,000	0,022	0,067
-212,752	413,722	-0,041	0,063
-211,738	-119,800	-0,004	-0,000
-210,723	-200,000	-0,018	0,081
-209,709	-189,899	0,094	0,001
-208,694	-52,325	-0,038	0,013
-207,679	-4,405	0,016	-0,008
-206,665	-22,326	0,113	-0,050
-205,650	-200,000	0,007	0,030
-204,636	207,120	0,112	0,127
-203,621	-26,612	-0,075	-0,032
-202,606	-200,000	0,014	0,083
-201,592	-7,473	-0,132	-0,065
-200,577	-200,000	-0,037	-0,147
-199,563	237,724	0,039	-0,048
-198,548	-200,000	-0,002	0,055
-197,533	-200,000	-0,000	0,156
-196,519	800,000	0,042	-0,116
-195,504	157,460	0,045	0,045
-194,490	-14,050	-0,066	0,031
-193,475	583,530	-0,023	-0,040
-192,460	10,735	-0,036	-0,020
-191,446	190,047	0,098	0,106
-190,431	-125,881	-0,037	0,004
-189,417	800,000	-0,027	0,075
-188,402	35,917	-0,079	0,051
-187,387	-200,000	-0,045	-0,160
-186,373	356,253	-0,090	-0,130
-185,358	-200,000	0,039	-0,000
-184,344	187,780	0,070	-0,076
-183,329	-200,000	-0,014	0,053
-182,315	800,000	0,024	-0,074
-181,300	436,510	0,057	0,090
-180,285	110,779	-0,119	-0,104
-179,271	-97,909	0,082	0,015
-178,256	-35,631	-0,079	0,031
-177,242	-200,000	0,040	0,204
-176,227	112,051	0,036	0,031
-175,212	-107,093	0,053	-0,008
-174,198	-142,394	0,031	-0,002
-173,183	-114,975	0,179	-0,024
-172,169	-200,000	0,001	0,033
-171,154	-200,000	-0,004	0,137
-170,139	-200,000	-0,029	0,104
-169,125	17,113	0,046	0,026
-168,110	-200,000	-0,021	0,164
-167,096	178,017	-0,086	0,091
-166,081	-200,000	0,010	-0,033
-165,066	-43,818	-0,087	0,032
-164,052	32,534	0,031	0,020
-163,037	-30,892	0,061	0,025
-162,023	-200,000	-0,004	0,078
-161,008	-200,000	-0,008	-0,069
-159,993	-200,000	-0,011	-0,068
-158,979	229,807	0,030	0,036
-157,964	31,815	-0,135	-0,084
-156,950	-84,232	-0,130	0,030
-155,935	800,000	0,028	-0,058
-154,920	-113,306	-0,061	-0,009
-153,906	800,000	-0,035	-0,099
-152,891	-30,159	0,048	0,020
-151,877	800,000	-0,024	-0,055
-150,862	62,373	0,155	-0,112
-149,847	147,349	0,115	-0,112
-148,833	-200,000	0,004	0,136
-147,818	-73,561	0,068	-0,018
-146,804	-41,476	0,056	0,021
-145,789	-200,000	-0,007	0,119
-144,775	-45,531	0,056	-0,020
-143,760	-86,762	0,187	0,041
-142,745	-89,107	-0,051	-0,011
-141,731	-71,335	-0,125	-0,034
-140,716	-200,000	0,040	0,140
-139,702	141,844	0,118	0,113
-138,687	250,462	0,047	-0,057
-137,672	115,202	0,080	0,071
-136,658	25,185	-0,174	0,104
-135,643	223,254	-0,057	-0,066
-134,629	166,541	-0,083	-0,086
-133,614	73,094	-0,073	-0,055
-132,599	-21,350	0,050	0,022
-131,585	-200,000	-0,013	-0,146
-130,570	486,950	-0,056	-0,093
-129,556	-200,000	0,002	-0,009
-128,541	-200,000	0,019	0,070
-127,526	800,000	-0,053	-0,140
-126,512	-200,000	-0,009	0,038
-125,497	-32,146	0,145	-0,058
-124,483	-200,000	-0,025	0,110
-123,468	213,350	0,029	-0,033
-122,453	800,000	0,032	-0,093
-121,439	56,294	-0,127	-0,089
-120,424	-63,693	0,081	-0,024
-119,410	800,000	0,028	0,078
-118,395	124,256	0,118	0,107
-117,380	193,786	-0,072	0,079
-116,366	-200,000	0,007	-0,032
-115,351	157,546	-0,036	-0,036
-114,337	150,427	-0,101	0,100
-113,322	115,531	-0,023	-0,020
-112,307	12,342	0,015	0,009
-111,293	648,286	0,019	0,036
-110,278	-138,846	-0,083	0,006
-109,264	-200,000	0,003	-0,055
-108,249	257,299	-0,047	-0,059
-107,234	-200,000	0,015	-0,088
-106,220	579,432	0,033	0,059
-105,205	-200,000	-0,019	0,143
-104,191	2,819	0,095	0,050
-103,176	-200,000	-0,014	0,136
-102,162	-200,000	0,023	0,092
-101,147	591,491	0,016	-0,029
-100,132	-200,000	-0,038	-0,167
-99,118	414,759	-0,051	-0,079
-98,103	-9,136	-0,162	-0,078
-97,089	19,281	0,073	-0,042
-96,074	326,321	-0,041	0,057
-95,059	-200,000	-0,007	-0,191
-94,045	26,625	-0,036	0,022
-93,030	-123,171	0,053	0,006
-92,016	800,000	0,053	0,121
-91,001	-24,967	0,070	-0,030
-89,986	-32,380	0,054	0,022
-88,972	183,029	0,033	-0,035
-87,957	800,000	0,018	0,046
-86,943	-200,000	-0,004	-0,179
-85,928	-200,000	0,003	-0,021
-84,913	470,675	0,057	0,093
-83,899	797,128	0,037	-0,073
-82,884	-131,791	0,192	0,018
-81,870	629,439	0,095	0,175
-80,855	-200,000	-0,011	-0,044
-79,840	-134,967	0,073	-0,006
-78,826	-59,337	0,063	0,019
-77,811	-200,000	0,023	0,082
-76,797	-200,000	0,002	0,094
-75,782	516,452	0,087	0,147
-74,767	38,995	-0,048	0,031
-73,753	532,214	0,052	0,088
-72,738	-183,314	-0,088	0,001
-71,724	755,366	0,031	0,061
-70,709	120,662	-0,154	-0,138
-69,694	-109,312	0,086	0,013
-68,680	-200,000	-0,010	0,056
-67,665	124,862	0,065	0,059
-66,651	-200,000	-0,013	0,217
-65,636	-200,000	0,005	0,107
-64,622	560,276	-0,057	-0,099
-63,607	-123,299	0,054	-0,006
-62,592	85,302	-0,111	0,088
-61,578	-52,885	0,061	0,020
-60,563	-105,297	0,023	-0,004
-59,549	-10,313	-0,065	0,031
-58,534	77,597	-2,062	-1,582
-57,519	776,612	-1,028	-2,033
-56,505	-200,000	-0,291	-4,179
-55,490	777,966	0,853	1,689
-54,476	800,000	5,342	11,216
-53,461	-200,000	21,873	343,349
-52,446	800,000	756,105	2314,091
-51,432	514,982	1646,569	2782,086
-50,417	68,951	1575,012	1165,234
-49,403	20,126	1139,653	661,276
-48,388	12,110	852,005	471,263
-47,373	26,217	817,169	490,825
-46,359	17,857	802,904	459,683
-45,344	8,928	798,700	433,091
-44,330	8,706	797,069	431,586
-43,315	8,641	796,054	430,846
-42,300	8,673	794,608	430,132
-41,286	8,590	793,835	429,470
-40,271	8,582	792,873	428,914
-39,257	8,667	791,908	428,601
-38,242	8,715	790,830	428,131
-37,227	8,770	790,206	427,924
-36,213	8,712	789,267	427,242
-35,198	8,691	788,339	426,666
-34,184	8,801	787,744	426,623
-33,169	8,718	787,069	426,018
-32,154	8,755	786,400	425,738
-31,140	8,785	785,034	425,062
-30,125	8,888	784,217	424,877
-29,111	8,802	783,721	424,363
-28,096	8,773	783,647	424,229
-27,082	8,740	782,712	423,618
-26,067	8,709	782,019	423,144
-25,052	8,668	781,523	422,748
-24,038	8,650	780,901	422,348
-23,023	8,651	780,137	421,921
-22,009	8,803	779,589	422,010
-20,994	8,702	778,770	421,282
-19,979	8,801	778,071	421,150
-18,965	8,803	777,436	420,795
-17,950	8,751	777,211	420,520
-16,936	8,699	776,521	419,991
-15,921	8,665	776,072	419,643
-14,906	8,611	775,361	419,100
-13,892	8,710	774,873	419,080
-12,877	8,687	774,121	418,596
-11,863	8,634	773,733	418,231
-10,848	8,579	773,442	417,912
-9,833	8,720	772,946	417,996
-8,819	8,821	772,096	417,786
-7,804	8,691	771,496	417,104
-6,790	8,724	771,139	416,981
-5,775	8,798	770,885	417,020
-4,760	8,714	770,196	416,410
-3,746	8,544	769,913	415,797
-2,731	8,420	769,613	415,295
-1,717	8,476	768,778	414,973
-0,702	8,498	768,412	414,818
0,313	8,572	765,303	413,958
1,327	12,192	746,121	412,719
2,342	20,557	605,814	352,196
3,356	14,381	334,250	187,337
4,371	-15,726	224,785	102,825
5,386	-18,594	211,507	94,652
6,400	-18,621	207,687	92,915
7,415	-17,769	205,823	92,677
8,429	-18,617	204,654	91,544
9,444	-18,928	203,915	90,987
10,459	-18,858	203,500	90,843
11,473	-18,999	202,975	90,502
12,488	-18,610	202,539	90,571
13,502	-18,724	202,064	90,271
14,517	-18,629	201,780	90,202
15,531	-18,697	201,237	89,904
16,546	-18,600	200,895	89,810
17,561	-18,838	200,733	89,565
18,575	-18,924	200,381	89,340
19,590	-18,840	200,051	89,243
20,604	-18,428	199,857	89,432
21,619	-18,693	199,756	89,197
22,634	-18,712	199,230	88,941
23,648	-18,568	198,935	88,900
24,663	-18,891	198,933	88,671
25,677	-18,963	198,813	88,559
26,692	-18,950	198,510	88,426
27,707	-18,717	198,262	88,466
28,721	-18,749	197,985	88,313
29,736	-18,822	197,897	88,216
30,750	-18,913	197,573	88,002
31,765	-18,646	197,374	88,087
32,780	-18,747	197,310	87,982
33,794	-18,633	197,113	87,964
34,809	-18,496	196,696	87,862
35,823	-18,834	196,612	87,588
36,838	-18,773	196,480	87,563
37,853	-18,619	196,110	87,494
38,867	-18,750	195,951	87,327
39,882	-18,861	195,885	87,215
40,896	-18,679	195,675	87,236
41,911	-18,662	195,459	87,143
42,926	-18,678	195,152	86,988
43,940	-18,444	194,893	87,022
44,955	-18,422	194,707	86,946
45,969	-18,742	194,723	86,731
46,984	-18,469	194,342	86,736
47,999	-18,530	194,426	86,725
49,013	-18,309	194,095	86,716
50,028	-18,503	194,015	86,544
51,042	-18,308	193,876	86,604
52,057	-18,326	193,633	86,476
53,071	-18,632	193,400	86,161
54,086	-18,524	193,304	86,182
55,101	-18,381	193,171	86,210
56,115	-18,593	192,999	85,985
57,130	-18,654	192,709	85,808
58,144	-18,759	192,553	85,662
59,159	-18,820	192,214	85,463
60,174	-18,812	192,210	85,459
61,188	-18,728	191,934	85,384
62,203	-18,686	191,943	85,407
63,217	-18,654	191,656	85,293
64,232	-18,713	191,573	85,210
65,247	-18,801	191,352	85,047
66,261	-18,908	191,129	84,870
67,276	-18,750	190,871	84,851
68,290	-18,589	190,907	84,965
69,305	-18,698	190,750	84,816
70,320	-18,479	190,408	84,799
71,334	-18,539	190,296	84,703
72,349	-18,783	190,189	84,489
73,363	-18,771	189,885	84,354
74,378	-18,700	189,776	84,344
75,393	-18,679	189,621	84,281
76,407	-18,606	189,399	84,222
77,422	-18,854	189,304	84,012
78,436	-18,904	189,236	83,942
79,451	-18,806	188,854	83,828
80,466	-18,763	188,735	83,796
81,480	-18,521	188,601	83,885
82,495	-18,487	188,261	83,749
83,509	-18,439	188,307	83,792
84,524	-18,640	188,202	83,609
85,539	-18,496	187,916	83,567
86,553	-18,260	187,933	83,719
87,568	-18,639	187,708	83,368
88,582	-18,490	187,439	83,336
89,597	-18,466	187,283	83,274
90,611	-18,585	187,175	83,143
91,626	-18,777	187,060	82,962
92,641	-18,386	186,719	83,053
93,655	-18,556	186,868	83,003
94,670	-18,437	186,580	82,944
95,684	-18,629	186,572	82,810
96,699	-18,445	186,348	82,820
97,714	-18,697	186,128	82,555
98,728	-18,314	185,867	82,675
99,743	-18,519	185,728	82,476
100,757	-18,635	185,662	82,366
101,772	-18,558	185,535	82,351
102,787	-18,519	185,471	82,340
103,801	-18,694	185,237	82,118
104,816	-18,623	185,177	82,129
105,830	-18,440	184,934	82,129
106,845	-18,544	184,809	82,001
107,860	-18,683	184,728	81,870
108,874	-18,627	184,389	81,747
109,889	-18,576	184,340	81,751
110,903	-18,467	184,138	81,722
111,918	-18,629	183,937	81,524
112,933	-18,358	183,779	81,617
113,947	-18,380	183,718	81,569
114,962	-18,913	183,644	81,194
115,976	-18,651	183,555	81,311
116,991	-18,403	183,250	81,325
118,006	-18,626	183,027	81,079
119,020	-18,621	183,022	81,072
120,035	-18,646	183,019	81,048
121,049	-18,858	182,873	80,845
122,064	-18,619	182,656	80,890
123,079	-18,435	182,492	80,925
124,093	-18,664	182,249	80,668
125,108	-18,434	182,107	80,740
126,122	-18,398	182,011	80,713
127,137	-18,386	181,866	80,649
128,151	-18,480	181,817	80,562
129,166	-18,482	181,624	80,468
130,181	-18,599	181,387	80,283
131,195	-18,367	181,283	80,374
132,210	-18,283	180,928	80,261
133,224	-18,609	180,993	80,081
134,239	-18,612	180,816	79,994
135,254	-18,621	180,711	79,935
136,268	-18,473	180,437	79,897
137,283	-18,346	180,361	79,935
138,297	-18,720	180,254	79,651
139,312	-18,527	180,023	79,660
140,327	-18,706	179,669	79,387
141,341	-19,087	179,501	79,072
142,356	-19,468	179,332	78,758
143,370	-17,989	179,832	79,877
144,385	-10,878	181,676	85,084
145,400	-3,755	182,976	90,108
146,414	-2,785	183,252	90,837
147,429	-2,355	183,270	91,104
148,443	-2,316	183,270	91,121
149,458	-1,888	183,077	91,282
150,473	-1,475	182,936	91,459
151,487	-1,375	182,837	91,463
152,502	-1,481	182,660	91,301
153,516	-1,451	182,585	91,274
154,531	-1,583	182,434	91,109
155,546	-1,557	182,368	91,083
156,560	-1,439	182,225	91,077
157,575	-1,440	182,160	91,035
158,589	-1,498	181,906	90,865
159,604	-1,482	181,966	90,897
160,619	-1,206	181,616	90,883
161,633	-1,407	181,549	90,718
162,648	-1,461	181,572	90,689
163,662	-0,962	181,232	90,816
164,677	-1,387	181,346	90,605
165,692	-1,144	181,184	90,664
166,706	-1,360	181,106	90,485
167,721	-1,094	180,838	90,506
168,735	-1,363	180,814	90,321
169,750	-1,258	180,750	90,345
170,764	-1,364	180,659	90,227
171,779	-1,052	180,437	90,298
172,794	-0,942	180,253	90,265
173,808	-1,008	180,271	90,225
174,823	-1,198	179,998	89,966
175,837	-1,251	179,871	89,862
176,852	-0,962	179,651	89,920
177,867	-1,073	179,734	89,886
178,881	-1,135	179,567	89,757
179,896	-1,087	179,529	89,758
180,910	-1,299	179,408	89,561
181,925	-0,918	179,142	89,651
182,940	-1,230	179,084	89,426
183,954	-1,304	178,950	89,306
184,969	-0,996	178,931	89,475
185,983	-1,021	178,840	89,406
186,998	-0,725	178,524	89,418
188,013	-0,889	178,435	89,267
189,027	-1,262	178,275	88,955
190,042	-0,796	178,171	89,174
191,056	-0,977	178,097	89,021
192,071	-0,852	177,850	88,965
193,086	-0,616	177,836	89,091
194,100	-0,905	177,685	88,835
195,115	-0,939	177,451	88,689
196,129	-0,872	177,387	88,689
197,144	-0,889	177,195	88,576
198,159	-0,765	177,178	88,633
199,173	-0,939	177,082	88,473
200,188	-0,898	176,922	88,410
201,202	-0,819	176,921	88,448
202,217	-1,070	176,812	88,237
203,232	-0,952	176,563	88,174
204,246	-0,664	176,380	88,247
205,261	-0,529	176,204	88,230
206,275	-0,793	176,145	88,037
207,290	-0,800	176,056	87,980
208,304	-0,812	175,937	87,906
209,319	-0,820	175,813	87,831
210,334	-0,852	175,624	87,710
211,348	-0,770	175,498	87,688
212,363	-0,570	175,363	87,730
213,377	-0,719	175,424	87,665
214,392	-0,759	175,370	87,607
215,407	-0,500	175,110	87,621
216,421	-0,790	174,975	87,376
217,436	-0,596	174,802	87,396
218,450	-0,667	174,730	87,310
219,465	-0,768	174,550	87,153
220,480	-0,598	174,497	87,219
221,494	-0,825	174,366	87,012
222,509	-0,620	174,353	87,118
223,523	-0,607	174,032	86,958
224,538	-0,783	173,970	86,816
225,553	-0,481	173,947	86,973
226,567	-0,894	173,680	86,591
227,582	-0,900	173,734	86,606
228,596	-0,524	173,616	86,759
229,611	-0,748	173,329	86,477
230,626	-1,058	173,425	86,337
231,640	-0,508	173,200	86,538
232,655	-0,646	173,160	86,430
233,669	-0,673	172,902	86,278
234,684	-0,462	172,793	86,338
235,699	-0,502	172,843	86,332
236,713	-0,770	172,727	86,111
237,728	-0,545	172,506	86,123
238,742	-0,306	172,294	86,148
239,757	-0,302	172,230	86,110
240,772	-0,296	172,206	86,094
241,786	-0,610	172,078	85,841
242,801	-0,391	171,999	85,921
243,815	-0,199	171,814	85,931
244,830	-0,164	171,757	85,915
245,844	-0,269	171,545	85,741
246,859	-0,550	171,449	85,523
247,874	-0,540	171,278	85,436
248,888	-0,315	171,305	85,571
249,903	-0,117	171,166	85,608
250,917	-0,312	171,071	85,441
251,932	-0,288	170,907	85,365
252,947	-0,181	170,801	85,366
253,961	-0,405	170,681	85,170
254,976	-0,214	170,468	85,166
255,990	-0,315	170,435	85,083
257,005	-0,530	170,501	84,987
258,020	-0,447	170,186	84,869
259,034	-0,301	170,086	84,895
260,049	-0,321	170,110	84,888
261,063	-0,095	169,915	84,912
262,078	-0,292	169,751	84,710
263,093	-0,347	169,661	84,626
264,107	-0,149	169,488	84,645
265,122	-0,304	169,438	84,525
266,136	-0,167	169,378	84,564
267,151	-0,287	169,369	84,484
268,166	-0,194	169,049	84,370
269,180	-0,428	169,014	84,213
270,195	-0,490	169,071	84,199
271,209	-0,091	168,785	84,274
272,224	-0,154	168,639	84,158
273,239	-0,039	168,559	84,175
274,253	0,188	168,313	84,173
275,268	-0,222	168,260	83,908
276,282	-0,036	168,304	84,027
277,297	-0,300	168,042	83,741
278,312	0,040	167,965	83,886
279,326	0,114	167,841	83,858
280,341	0,126	167,736	83,804
281,355	0,044	167,652	83,709
282,370	-0,037	167,594	83,627
283,384	-0,040	167,440	83,541
284,399	-0,074	167,363	83,477
285,414	0,021	167,248	83,465
286,428	0,144	167,250	83,526
287,443	-0,012	167,128	83,371
288,457	-0,034	166,932	83,254
289,472	0,233	166,794	83,326
290,487	-0,158	166,699	83,054
291,501	0,074	166,540	83,096
292,516	-0,102	166,526	82,984
293,530	0,191	166,385	83,069
294,545	0,051	166,208	82,896
295,560	0,165	166,125	82,910
296,574	-0,032	166,053	82,757
297,589	0,091	165,940	82,762
298,603	0,036	165,797	82,653
299,618	0,087	165,690	82,620
300,633	-0,067	165,637	82,502
301,647	0,368	165,529	82,680
302,662	-0,095	165,471	82,389
303,676	-0,128	165,387	82,321
304,691	0,065	165,281	82,368
305,706	0,232	165,068	82,345
306,720	0,524	164,886	82,408
307,735	0,290	164,960	82,310
308,749	-0,030	164,785	82,039
309,764	0,076	164,792	82,093
310,779	0,219	164,402	81,970
311,793	0,414	164,376	82,057
312,808	0,305	164,212	81,908
313,822	0,031	164,255	81,772
314,837	0,393	164,178	81,925
315,852	0,525	163,872	81,836
316,866	0,218	163,949	81,700
317,881	0,067	163,779	81,525
318,895	0,191	163,675	81,534
319,910	0,411	163,646	81,632
320,925	0,017	163,579	81,377
321,939	0,005	163,406	81,277
322,954	0,315	163,393	81,432
323,968	0,323	163,256	81,361
324,983	0,623	163,147	81,462
325,997	0,519	162,995	81,322
327,012	-0,004	162,852	80,961
328,027	0,340	162,784	81,106
329,041	0,276	162,753	81,048
330,056	0,225	162,578	80,926
331,070	0,784	162,359	81,112
332,085	0,716	162,207	80,992
333,100	0,274	162,290	80,788
334,114	0,179	162,186	80,677
335,129	0,494	161,857	80,676
336,143	0,325	161,976	80,637
337,158	0,222	161,842	80,508
338,173	0,628	161,832	80,714
339,187	0,723	161,507	80,596
340,202	0,663	161,512	80,559
341,216	0,319	161,352	80,288
342,231	0,427	161,321	80,323
343,246	0,927	161,191	80,519
344,260	0,457	161,175	80,252
345,275	0,323	161,117	80,145
346,289	0,667	160,942	80,234
347,304	0,456	160,779	80,033
348,319	0,359	160,778	79,973
349,333	0,242	160,621	79,826
350,348	0,560	160,472	79,914
351,362	0,586	160,253	79,812
352,377	0,621	160,297	79,846
353,392	0,101	160,257	79,542
354,406	0,876	159,989	79,813
355,421	190,870	1324,876	1393,342
356,435	150,816	1467,266	1393,838
