DTS Sentinel unit serial number:	SN410029Multiplexer serial number:	ORYXHardware model number:	OX2-SRSoftware version number:	ORYX F/W v4,00 Oryx Data Collector v3.7.2.0data status	okinstallation	B3 Nyhavnadifferential loss correction	single-endedforward channel	channel 1reverse channel	N/Adate	2023/11/28time	12:37:30forward acquisition time	300,00reverse acquisition time	0,00gamma	499,1914k internal	0,3139k external	0,3139temperature offset calibration	1,0000default loss term (dB/km)	0,3820temperature slope calibration	1,0000multiplexer offset coefficient	1,0000multiplexer slope coefficient	1,0000fibre end	0,00T internal ref (°C)	8,38T ext. ref 1 (°C)	-7,52T ext. ref 2 (°C)	-7,74length (m)	temperature (°C)	Stokes	anti-Stokes-744,400	200,538	-0,214	-0,244
-743,385	-200,000	0,003	0,334
-742,371	412,932	-0,128	-0,203
-741,356	-200,000	-0,013	0,221
-740,342	171,934	-0,150	-0,160
-739,327	800,000	-0,119	0,255
-738,312	416,996	-0,154	-0,245
-737,298	-200,000	0,048	0,163
-736,283	-200,000	-0,003	-0,223
-735,269	-200,000	-0,004	0,338
-734,254	141,410	-0,296	-0,290
-733,239	-51,601	-0,185	0,064
-732,225	382,779	-0,124	-0,190
-731,210	-134,718	0,133	0,012
-730,196	-95,902	0,057	0,011
-729,181	700,659	-0,010	-0,019
-728,167	-200,000	0,047	-0,172
-727,152	-200,000	-0,009	-0,031
-726,137	-19,121	-0,108	-0,050
-725,123	-6,233	-0,046	-0,023
-724,108	272,202	-0,096	-0,126
-723,094	13,120	-0,077	-0,044
-722,079	-200,000	0,010	-0,089
-721,064	800,000	0,035	-0,098
-720,050	171,300	-0,077	-0,082
-719,035	236,880	-0,019	-0,024
-718,021	39,149	-0,137	-0,091
-717,006	800,000	-0,028	-0,075
-715,991	-9,654	-0,176	-0,086
-714,977	-144,329	-0,157	-0,011
-713,962	187,336	-0,070	0,077
-712,948	39,559	0,118	0,078
-711,933	70,572	0,085	0,065
-710,918	261,691	-0,055	-0,071
-709,904	-200,000	0,009	-0,033
-708,889	8,750	-0,037	0,021
-707,875	-111,812	-0,196	-0,029
-706,860	82,000	0,040	-0,032
-705,845	13,714	0,078	0,045
-704,831	225,637	-0,045	0,054
-703,816	625,477	0,013	0,024
-702,802	416,260	0,027	-0,043
-701,787	-200,000	-0,023	-0,126
-700,772	-200,000	0,002	0,046
-699,758	-113,860	0,122	0,017
-698,743	73,662	-0,065	-0,051
-697,729	-95,334	0,106	0,021
-696,714	-200,000	0,012	-0,114
-695,699	161,441	0,018	-0,019
-694,685	-105,806	-0,046	-0,008
-693,670	-200,000	-0,002	-0,137
-692,656	1,357	-0,119	0,063
-691,641	-200,000	0,004	-0,141
-690,627	-41,614	0,079	0,030
-689,612	749,412	0,040	0,080
-688,597	800,000	0,037	0,104
-687,583	-79,621	-0,038	0,009
-686,568	-200,000	-0,005	-0,055
-685,554	423,781	-0,037	-0,059
-684,539	116,856	0,049	-0,045
-683,524	610,342	0,076	0,141
-682,510	19,711	-0,066	-0,039
-681,495	66,545	-0,130	0,098
-680,481	-73,650	-0,106	0,028
-679,466	-200,000	0,004	-0,057
-678,451	-16,760	-0,107	0,050
-677,437	346,461	0,025	-0,037
-676,422	-200,000	-0,019	0,126
-675,408	-61,686	0,092	-0,028
-674,393	-117,621	-0,056	0,007
-673,378	384,009	0,040	0,060
-672,364	-40,510	-0,200	0,076
-671,349	74,373	0,034	-0,027
-670,335	-52,991	-0,068	-0,023
-669,320	151,080	0,050	-0,050
-668,305	800,000	0,056	0,136
-667,291	-200,000	-0,035	-0,116
-666,276	321,681	-0,078	-0,111
-665,262	208,173	-0,013	-0,016
-664,247	265,779	-0,106	-0,137
-663,232	800,000	0,039	0,100
-662,218	-130,257	-0,165	0,016
-661,203	800,000	-0,050	0,156
-660,189	72,095	-0,048	-0,037
-659,174	-15,798	-0,182	-0,086
-658,159	588,347	0,052	0,095
-657,145	-34,763	-0,108	-0,043
-656,130	147,944	0,074	-0,074
-655,116	-200,000	-0,003	0,055
-654,101	38,002	0,141	0,092
-653,086	-86,707	0,056	-0,012
-652,072	484,427	0,035	-0,059
-651,057	-200,000	-0,027	-0,133
-650,043	-200,000	-0,048	-0,185
-649,028	415,332	0,024	0,038
-648,014	800,000	-0,043	-0,130
-646,999	-94,811	0,083	-0,016
-645,984	250,781	-0,037	-0,047
-644,970	-200,000	0,030	-0,103
-643,955	442,621	-0,035	-0,057
-642,941	192,633	-0,057	-0,064
-641,926	800,000	-0,042	-0,121
-640,911	-200,000	-0,006	-0,235
-639,897	173,737	-0,114	-0,121
-638,882	277,571	0,068	-0,090
-637,868	-26,564	0,094	-0,040
-636,853	-148,331	-0,136	-0,008
-635,838	58,968	-0,082	-0,059
-634,824	-200,000	-0,047	-0,245
-633,809	-200,000	0,007	-0,084
-632,795	515,115	0,008	-0,013
-631,780	521,607	-0,051	-0,088
-630,765	51,824	0,011	-0,008
-629,751	474,221	-0,049	0,082
-628,736	43,770	0,011	-0,008
-627,722	50,156	-0,029	0,020
-626,707	404,685	0,040	0,063
-625,692	266,991	0,027	-0,035
-624,678	-200,000	0,002	0,029
-623,663	-173,853	-0,008	-0,000
-622,649	264,713	-0,033	-0,042
-621,634	-117,753	0,075	0,010
-620,619	-200,000	-0,002	-0,081
-619,605	-70,267	0,125	0,035
-618,590	-200,000	-0,004	0,125
-617,576	-53,351	0,091	-0,031
-616,561	-127,515	-0,091	-0,010
-615,546	389,034	-0,083	-0,128
-614,532	19,556	-0,101	-0,060
-613,517	-200,000	-0,022	-0,170
-612,503	124,146	0,087	0,081
-611,488	408,713	0,023	-0,036
-610,474	-154,866	0,044	0,002
-609,459	182,063	0,076	-0,083
-608,444	185,872	-0,042	0,046
-607,430	-200,000	0,006	-0,054
-606,415	800,000	-0,027	0,075
-605,401	-32,343	0,133	0,054
-604,386	200,838	-0,128	-0,146
-603,371	-38,378	-0,145	0,056
-602,357	800,000	0,045	-0,091
-601,342	511,146	0,041	-0,070
-600,328	131,030	-0,027	-0,026
-599,313	33,760	0,161	-0,103
-598,298	-200,000	-0,014	-0,120
-597,284	-107,137	-0,169	0,027
-596,269	608,642	0,027	0,050
-595,255	318,822	0,047	0,065
-594,240	-92,944	-0,071	-0,014
-593,225	-200,000	0,015	-0,058
-592,211	800,000	-0,053	-0,123
-591,196	-200,000	-0,001	-0,017
-590,182	-200,000	0,000	0,011
-589,167	800,000	-0,020	-0,054
-588,152	-76,044	-0,106	0,027
-587,138	-102,427	-0,068	-0,012
-586,123	-200,000	-0,026	-0,160
-585,109	-96,785	-0,053	0,010
-584,094	141,878	-0,079	-0,077
-583,079	800,000	0,023	-0,054
-582,065	-14,484	-0,069	0,033
-581,050	-98,904	0,139	0,026
-580,036	276,667	0,019	-0,025
-579,021	800,000	-0,034	-0,094
-578,006	26,990	-0,125	-0,077
-576,992	279,781	0,050	-0,066
-575,977	80,909	0,101	-0,080
-574,963	473,680	0,091	-0,152
-573,948	279,540	0,075	-0,099
-572,934	800,000	-0,063	0,155
-571,919	800,000	-0,035	-0,077
-570,904	106,154	-0,074	0,064
-569,890	-200,000	-0,001	-0,067
-568,875	-106,474	-0,059	-0,010
-567,861	-60,587	-0,079	0,025
-566,846	225,755	-0,102	0,122
-565,831	800,000	-0,016	-0,043
-564,817	10,260	-0,148	0,083
-563,802	-200,000	0,008	-0,032
-562,788	58,829	0,028	-0,020
-561,773	37,454	0,099	0,064
-560,758	-119,702	0,133	0,017
-559,744	-93,560	-0,078	0,016
-558,729	181,859	-0,023	-0,025
-557,715	270,619	0,042	-0,055
-556,700	171,417	-0,108	-0,115
-555,685	-200,000	0,010	0,136
-554,671	265,087	-0,006	0,007
-553,656	-20,120	0,060	-0,027
-552,642	535,924	-0,057	0,099
-551,627	669,456	0,039	0,074
-550,612	86,791	0,156	-0,127
-549,598	800,000	0,039	-0,104
-548,583	-134,978	0,119	0,010
-547,569	189,732	0,077	0,085
-546,554	-12,007	0,117	-0,056
-545,539	-200,000	0,038	0,132
-544,525	197,629	0,017	-0,020
-543,510	-37,964	-0,093	0,036
-542,496	-200,000	0,001	-0,071
-541,481	-200,000	-0,009	-0,119
-540,466	-157,248	-0,056	-0,002
-539,452	-200,000	0,015	-0,115
-538,437	-200,000	-0,036	0,140
-537,423	-200,000	0,036	0,146
-536,408	-26,816	-0,093	-0,040
-535,393	-200,000	-0,013	-0,046
-534,379	-200,000	-0,003	-0,028
-533,364	800,000	0,016	0,048
-532,350	181,874	0,033	0,036
-531,335	-200,000	0,022	0,073
-530,321	800,000	-0,050	0,127
-529,306	-200,000	0,003	0,035
-528,291	220,329	-0,054	0,064
-527,277	-11,756	0,051	0,025
-526,262	-200,000	0,001	-0,026
-525,248	88,735	0,113	0,093
-524,233	72,698	0,101	0,077
-523,218	-52,277	0,091	-0,031
-522,204	-200,000	-0,004	-0,050
-521,189	124,576	-0,055	0,051
-520,175	-140,276	-0,126	0,010
-519,160	316,376	-0,058	-0,080
-518,145	-200,000	-0,007	-0,057
-517,131	800,000	0,078	0,190
-516,116	-83,439	-0,058	-0,014
-515,102	67,520	0,030	0,023
-514,087	277,786	-0,024	-0,032
-513,072	800,000	-0,041	-0,128
-512,058	800,000	-0,027	-0,064
-511,043	136,273	0,023	-0,022
-510,029	558,962	-0,041	0,073
-509,014	354,355	-0,009	0,013
-507,999	-38,397	0,106	-0,041
-506,985	-200,000	-0,012	0,065
-505,970	-153,796	0,123	-0,006
-504,956	338,500	0,018	0,025
-503,941	-200,000	0,047	0,182
-502,926	-200,000	0,027	0,098
-501,912	36,458	-0,081	-0,052
-500,897	-200,000	-0,013	0,051
-499,883	107,515	0,010	-0,009
-498,868	800,000	-0,080	0,212
-497,853	-20,687	-0,086	0,038
-496,839	-60,984	-0,052	-0,016
-495,824	62,119	-0,128	0,093
-494,810	76,074	0,086	-0,067
-493,795	310,983	-0,014	-0,020
-492,781	-200,000	-0,000	-0,157
-491,766	426,965	-0,072	-0,114
-490,751	-200,000	-0,012	-0,167
-489,737	-200,000	-0,043	-0,153
-488,722	-116,897	-0,093	-0,012
-487,708	69,556	0,065	0,049
-486,693	27,689	-0,036	0,022
-485,678	-24,413	-0,029	-0,013
-484,664	-15,734	-0,179	-0,084
-483,649	-102,646	-0,041	0,007
-482,635	114,965	-0,058	-0,052
-481,620	151,323	0,034	0,034
-480,605	80,643	0,066	0,052
-479,591	-27,329	-0,124	-0,053
-478,576	-131,344	0,023	-0,002
-477,562	-200,000	-0,008	0,040
-476,547	152,536	-0,031	0,031
-475,532	367,461	0,083	0,123
-474,518	76,457	-0,067	0,052
-473,503	-132,953	-0,038	0,003
-472,489	-200,000	-0,035	0,117
-471,474	-55,874	-0,046	-0,015
-470,459	218,180	0,054	-0,064
-469,445	800,000	-0,009	-0,028
-468,430	390,324	0,066	-0,101
-467,416	-55,033	0,146	-0,048
-466,401	800,000	-0,025	0,076
-465,386	-54,890	0,112	-0,037
-464,372	227,499	0,015	0,018
-463,357	122,921	0,121	0,111
-462,343	-86,629	-0,031	-0,007
-461,328	58,940	-0,014	0,010
-460,313	-200,000	-0,014	0,149
-459,299	-46,720	-0,062	-0,022
-458,284	262,827	0,113	0,144
-457,270	-1,074	-0,062	-0,032
-456,255	60,787	-0,139	-0,101
-455,241	-200,000	-0,044	-0,144
-454,226	-200,000	-0,021	-0,095
-453,211	-200,000	0,013	-0,081
-452,197	-200,000	0,003	0,032
-451,182	124,199	-0,080	0,074
-450,168	-6,229	0,075	-0,038
-449,153	124,573	-0,074	-0,068
-448,138	-200,000	-0,025	-0,137
-447,124	-200,000	-0,006	-0,040
-446,109	643,601	-0,028	-0,052
-445,095	-200,000	-0,029	-0,138
-444,080	-84,322	0,028	-0,007
-443,065	734,311	0,020	-0,039
-442,051	-139,637	-0,115	0,009
-441,036	-200,000	0,012	-0,065
-440,022	-104,202	-0,069	-0,012
-439,007	-53,461	-0,078	0,026
-437,992	-200,000	0,006	0,079
-436,978	118,054	0,114	0,103
-435,963	-145,869	-0,082	-0,005
-434,949	-200,000	0,008	0,030
-433,934	800,000	-0,018	0,044
-432,919	-200,000	0,024	-0,139
-431,905	800,000	0,030	0,061
-430,890	-22,127	-0,082	-0,036
-429,876	129,179	0,057	-0,053
-428,861	275,770	-0,115	0,150
-427,846	-86,217	-0,137	0,031
-426,832	113,230	-0,070	-0,062
-425,817	-200,000	-0,015	-0,079
-424,803	-77,096	-0,099	0,025
-423,788	-69,911	-0,107	-0,030
-422,773	60,141	0,024	0,017
-421,759	28,265	-0,052	-0,032
-420,744	800,000	0,043	0,093
-419,730	46,627	-0,034	0,023
-418,715	-200,000	-0,022	0,143
-417,701	86,610	-0,106	-0,085
-416,686	120,072	0,025	0,023
-415,671	-200,000	-0,002	-0,123
-414,657	-2,416	0,091	0,047
-413,642	397,822	-0,039	-0,061
-412,628	800,000	0,049	0,106
-411,613	-134,039	0,071	0,006
-410,598	79,952	0,007	-0,005
-409,584	-38,410	-0,106	0,041
-408,569	33,553	0,066	0,042
-407,555	-200,000	0,015	0,120
-406,540	104,579	0,039	0,034
-405,525	-60,500	-0,072	0,022
-404,511	112,938	0,067	0,059
-403,496	54,685	-0,051	0,036
-402,482	-96,394	0,075	-0,014
-401,467	319,935	-0,013	-0,018
-400,452	-200,000	-0,011	0,102
-399,438	271,413	-0,153	0,198
-398,423	115,298	-0,026	0,023
-397,409	800,000	-0,028	0,061
-396,394	125,917	0,070	-0,065
-395,379	-200,000	-0,009	-0,087
-394,365	21,272	0,151	-0,089
-393,350	650,442	0,045	0,086
-392,336	57,327	0,037	-0,027
-391,321	32,342	-0,054	-0,034
-390,306	557,781	0,018	-0,031
-389,292	170,377	-0,112	-0,117
-388,277	-200,000	-0,003	0,009
-387,263	800,000	-0,017	0,044
-386,248	-121,119	0,136	0,016
-385,233	-25,532	-0,023	0,010
-384,219	79,492	-0,106	0,083
-383,204	722,580	-0,054	-0,106
-382,190	-200,000	0,013	-0,100
-381,175	800,000	0,026	-0,071
-380,160	800,000	0,021	0,052
-379,146	-200,000	0,012	0,057
-378,131	-12,699	0,071	-0,034
-377,117	-132,292	0,077	-0,007
-376,102	-200,000	0,004	-0,072
-375,088	-200,000	0,007	0,042
-374,073	-77,742	0,095	-0,024
-373,058	-43,834	0,140	-0,051
-372,044	-2,463	0,043	0,022
-371,029	416,568	-0,033	0,052
-370,015	800,000	0,022	0,058
-369,000	169,359	-0,094	-0,098
-367,985	37,123	-0,158	-0,102
-366,971	-121,260	0,096	0,012
-365,956	282,911	0,025	-0,033
-364,942	480,044	0,066	0,109
-363,927	-99,619	0,172	0,031
-362,912	17,704	-0,076	-0,044
-361,898	800,000	-0,021	-0,053
-360,883	-168,277	-0,017	-0,000
-359,869	-142,720	-0,129	-0,009
-358,854	107,011	0,081	0,071
-357,839	93,096	-0,116	0,096
-356,825	-200,000	0,007	0,107
-355,810	386,075	-0,059	0,089
-354,796	317,500	-0,072	0,100
-353,781	800,000	-0,049	-0,115
-352,766	-200,000	0,003	-0,034
-351,752	102,333	-0,013	0,011
-350,737	800,000	0,014	-0,033
-349,723	-129,665	0,049	0,005
-348,708	-70,906	0,120	0,033
-347,693	430,230	-0,104	0,165
-346,679	-8,361	0,151	-0,074
-345,664	99,569	-0,095	-0,080
-344,650	170,883	-0,066	0,069
-343,635	353,969	-0,028	-0,041
-342,620	604,417	0,048	0,087
-341,606	-200,000	0,015	0,151
-340,591	663,397	0,086	-0,163
-339,577	114,010	-0,055	-0,049
-338,562	72,212	0,087	0,066
-337,548	95,893	-0,057	0,048
-336,533	35,842	0,138	0,089
-335,518	111,891	0,090	0,080
-334,504	144,229	-0,034	0,034
-333,489	-200,000	0,021	0,122
-332,475	-38,399	-0,097	0,037
-331,460	-200,000	0,038	-0,131
-330,445	592,627	-0,050	-0,091
-329,431	-200,000	0,080	-0,000
-328,416	-32,582	0,089	0,036
-327,402	675,991	0,010	-0,020
-326,387	800,000	0,051	0,155
-325,372	-184,867	-0,119	0,001
-324,358	800,000	0,032	-0,102
-323,343	-92,283	-0,180	-0,037
-322,329	57,093	0,089	-0,063
-321,314	-64,892	0,091	-0,027
-320,299	-200,000	-0,002	0,070
-319,285	511,969	0,081	-0,139
-318,270	-200,000	0,020	0,066
-317,256	144,211	-0,124	-0,121
-316,241	30,757	-0,091	0,056
-315,226	-200,000	0,038	0,277
-314,212	-70,339	0,039	-0,011
-313,197	800,000	-0,038	-0,103
-312,183	-200,000	0,002	-0,015
-311,168	-200,000	0,003	-0,094
-310,153	800,000	-0,024	-0,074
-309,139	-101,388	0,070	-0,012
-308,124	-88,664	-0,156	0,034
-307,110	486,661	0,035	0,058
-306,095	-200,000	0,022	0,261
-305,080	-46,043	-0,098	0,035
-304,066	29,397	-0,065	0,040
-303,051	192,577	-0,022	-0,024
-302,037	-34,112	0,077	0,031
-301,022	-53,355	-0,075	0,025
-300,008	-100,272	0,112	0,020
-298,993	84,095	0,023	-0,018
-297,978	-152,404	0,122	-0,006
-296,964	322,570	-0,054	0,075
-295,949	-200,000	0,017	-0,114
-294,935	207,076	0,040	-0,046
-293,920	-55,807	0,060	-0,019
-292,905	-200,000	0,030	0,116
-291,891	236,672	-0,017	0,021
-290,876	-144,293	0,098	0,007
-289,862	-107,481	-0,049	-0,008
-288,847	17,718	-0,128	-0,074
-287,832	-66,714	-0,018	-0,005
-286,818	-120,818	-0,146	-0,018
-285,803	203,092	0,078	0,088
-284,789	7,543	-0,087	-0,047
-283,774	7,164	0,146	-0,079
-282,759	800,000	0,040	0,110
-281,745	147,923	-0,078	-0,077
-280,730	800,000	-0,022	0,050
-279,716	74,430	0,099	-0,076
-278,701	-141,448	0,084	-0,006
-277,686	462,113	0,145	0,237
-276,672	-158,282	-0,064	-0,003
-275,657	800,000	0,027	-0,066
-274,643	14,412	-0,061	0,034
-273,628	348,201	0,035	0,051
-272,613	-21,123	0,014	-0,006
-271,599	-79,906	0,078	-0,019
-270,584	-21,007	0,052	0,023
-269,570	-200,000	0,043	0,140
-268,555	206,300	0,059	-0,067
-267,540	154,440	0,047	-0,047
-266,526	170,340	-0,070	0,073
-265,511	26,111	0,053	0,032
-264,497	-200,000	0,016	0,066
-263,482	159,903	0,061	0,062
-262,467	-94,955	0,042	0,008
-261,453	-200,000	0,015	0,051
-260,438	800,000	-0,024	-0,073
-259,424	-200,000	-0,004	-0,131
-258,409	-200,000	0,017	0,102
-257,395	2,100	0,116	-0,061
-256,380	800,000	-0,061	0,140
-255,365	-31,872	0,137	-0,056
-254,351	-146,010	0,124	-0,008
-253,336	242,529	-0,114	0,139
-252,322	290,278	-0,067	0,089
-251,307	266,925	-0,018	0,024
-250,292	253,065	0,024	-0,030
-249,278	-112,392	-0,109	0,016
-248,263	74,209	-0,011	-0,009
-247,249	-77,951	0,070	0,017
-246,234	-70,378	0,031	-0,008
-245,219	800,000	-0,064	-0,160
-244,205	472,017	0,090	-0,148
-243,190	-200,000	0,010	-0,095
-242,176	113,202	0,133	0,117
-241,161	-153,534	0,104	0,005
-240,146	191,725	0,087	0,095
-239,132	800,000	-0,001	-0,003
-238,117	-119,212	0,088	-0,011
-237,103	248,100	-0,079	0,097
-236,088	-56,122	0,017	-0,006
-235,073	0,869	0,067	0,035
-234,059	-41,053	-0,080	-0,030
-233,044	-189,276	-0,069	-0,001
-232,030	58,353	-0,118	-0,084
-231,015	19,929	0,035	-0,020
-230,000	-200,000	-0,030	-0,154
-228,986	392,984	0,065	0,098
-227,971	35,830	0,028	0,018
-226,957	-200,000	-0,032	0,186
-225,942	-148,574	0,040	-0,002
-224,927	800,000	0,047	0,141
-223,913	800,000	-0,100	0,231
-222,898	197,136	-0,013	-0,015
-221,884	-200,000	-0,011	0,119
-220,869	-80,569	0,071	-0,017
-219,855	-67,396	0,103	-0,029
-218,840	800,000	-0,058	0,131
-217,825	471,651	0,040	-0,065
-216,811	141,619	-0,051	-0,049
-215,796	-20,375	0,047	-0,021
-214,782	-47,671	-0,099	0,035
-213,767	-15,898	0,097	0,045
-212,752	-80,989	0,062	0,015
-211,738	295,087	0,093	0,123
-210,723	80,817	-0,051	0,040
-209,709	297,892	-0,048	-0,065
-208,694	42,997	0,076	-0,050
-207,679	104,794	0,116	0,100
-206,665	-74,265	-0,081	-0,021
-205,650	-200,000	-0,004	0,096
-204,636	800,000	-0,007	-0,013
-203,621	-2,850	-0,062	-0,031
-202,606	60,734	0,077	-0,055
-201,592	-200,000	-0,012	0,052
-200,577	800,000	0,126	-0,259
-199,563	-125,404	0,111	-0,012
-198,548	704,701	0,077	0,148
-197,533	800,000	0,012	0,026
-196,519	-64,230	-0,083	0,024
-195,504	-16,454	-0,157	0,072
-194,490	30,365	0,102	-0,063
-193,475	800,000	0,037	-0,082
-192,460	71,909	-0,052	0,039
-191,446	380,893	-0,028	0,042
-190,431	512,133	-0,062	0,105
-189,417	622,313	0,011	0,021
-188,402	-69,863	-0,095	0,026
-187,387	33,078	-0,024	-0,015
-186,373	96,539	0,069	-0,058
-185,358	-87,706	0,185	-0,040
-184,344	800,000	-0,060	0,121
-183,329	-164,062	-0,074	-0,002
-182,315	-49,569	-0,029	-0,010
-181,300	-200,000	-0,025	0,080
-180,285	-76,438	-0,031	-0,008
-179,271	117,009	-0,051	-0,045
-178,256	-19,902	0,066	0,030
-177,242	72,982	0,057	0,043
-176,227	-34,093	0,225	0,089
-175,212	153,145	0,015	0,015
-174,198	-200,000	-0,005	-0,075
-173,183	125,067	-0,086	-0,078
-172,169	392,494	-0,048	-0,073
-171,154	-85,711	0,155	0,035
-170,139	-200,000	-0,003	-0,028
-169,125	-200,000	0,018	0,147
-168,110	-48,827	0,085	0,029
-167,096	800,000	-0,056	0,125
-166,081	-200,000	0,001	-0,069
-165,066	-42,962	0,027	0,010
-164,052	-126,719	-0,095	-0,010
-163,037	-10,394	-0,043	0,021
-162,023	-200,000	0,046	0,000
-161,008	-42,203	0,148	-0,055
-159,993	-25,081	-0,133	0,057
-158,979	176,479	-0,038	-0,040
-157,964	125,881	-0,044	-0,041
-156,950	-90,750	0,128	0,027
-155,935	800,000	0,054	-0,144
-154,920	75,014	-0,076	-0,058
-153,906	93,315	-0,094	0,077
-152,891	150,519	-0,067	0,066
-151,877	-41,615	0,057	-0,021
-150,862	628,742	-0,050	-0,093
-149,847	147,414	-0,087	0,085
-148,833	107,019	-0,068	-0,059
-147,818	-141,422	0,126	0,009
-146,804	223,444	-0,099	0,116
-145,789	800,000	-0,014	0,039
-144,775	-45,137	-0,098	-0,035
-143,760	623,462	0,012	0,021
-142,745	800,000	-0,049	-0,115
-141,731	-200,000	0,011	-0,132
-140,716	800,000	0,042	-0,093
-139,702	-200,000	-0,007	-0,069
-138,687	112,854	-0,045	-0,039
-137,672	-35,898	0,055	0,021
-136,658	-200,000	-0,003	0,044
-135,643	87,588	-0,106	0,085
-134,629	-200,000	0,021	-0,113
-133,614	-13,096	0,033	0,016
-132,599	800,000	-0,005	-0,015
-131,585	72,087	-0,090	-0,068
-130,570	-200,000	0,027	0,087
-129,556	54,495	0,084	-0,059
-128,541	-60,110	-0,065	0,020
-127,526	-19,307	-0,038	-0,017
-126,512	-143,480	0,059	0,004
-125,497	-33,666	0,096	-0,038
-124,483	185,785	0,055	-0,059
-123,468	-200,000	0,022	-0,104
-122,453	519,235	-0,053	-0,091
-121,439	-188,799	0,171	0,001
-120,424	111,419	0,034	-0,029
-119,410	-47,885	-0,148	0,051
-118,395	127,200	0,138	0,127
-117,380	-86,259	-0,060	0,013
-116,366	111,737	-0,050	-0,043
-115,351	-97,849	0,087	0,016
-114,337	496,848	0,079	0,131
-113,322	800,000	0,035	-0,088
-112,307	-88,346	0,138	0,030
-111,293	30,033	0,101	0,062
-110,278	56,842	0,167	0,118
-109,264	-32,597	0,035	0,014
-108,249	151,119	0,063	-0,062
-107,234	-200,000	-0,012	-0,081
-106,220	-200,000	0,023	-0,198
-105,205	-69,489	-0,067	-0,018
-104,191	800,000	0,030	0,087
-103,176	65,098	-0,094	0,069
-102,162	92,378	-0,087	0,071
-101,147	317,323	-0,018	0,025
-100,132	61,327	-0,089	-0,064
-99,118	-170,112	0,110	0,003
-98,103	-200,000	-0,006	0,021
-97,089	-57,972	-0,160	0,050
-96,074	60,871	0,040	-0,029
-95,059	376,177	0,037	0,054
-94,045	291,863	0,025	-0,034
-93,030	-200,000	0,007	-0,034
-92,016	-200,000	-0,007	0,066
-91,001	326,133	0,079	-0,109
-89,986	-157,778	0,052	0,002
-88,972	112,598	0,157	0,137
-87,957	17,866	0,083	0,048
-86,943	-200,000	-0,005	0,024
-85,928	800,000	-0,033	-0,075
-84,913	800,000	0,026	0,067
-83,899	800,000	0,022	0,063
-82,884	-200,000	0,016	0,133
-81,870	800,000	0,005	-0,012
-80,855	599,342	0,067	-0,120
-79,840	-200,000	-0,026	-0,108
-78,826	87,915	-0,101	0,081
-77,811	450,093	-0,041	-0,065
-76,797	41,495	-0,174	-0,113
-75,782	-31,589	0,142	0,057
-74,767	-200,000	0,012	-0,123
-73,753	70,746	0,063	-0,047
-72,738	129,811	-0,137	0,127
-71,724	-94,989	0,035	0,007
-70,709	-7,611	-0,082	-0,040
-69,694	800,000	0,074	-0,205
-68,680	-200,000	0,007	0,076
-67,665	448,352	0,027	0,043
-66,651	-35,287	0,076	0,030
-65,636	516,556	-0,017	0,028
-64,622	443,179	-0,018	0,029
-63,607	-90,579	0,011	-0,002
-62,592	79,793	-0,113	-0,088
-61,578	-200,000	0,008	0,028
-60,563	800,000	-0,021	-0,051
-59,549	800,000	0,029	0,061
-58,534	66,439	-2,186	-1,603
-57,519	385,108	-1,253	-1,871
-56,505	-200,000	-0,151	-4,366
-55,490	800,000	0,764	1,732
-54,476	800,000	5,248	11,367
-53,461	-200,000	22,227	345,868
-52,446	800,000	755,668	2313,246
-51,432	513,761	1642,413	2775,998
-50,417	68,038	1573,019	1160,756
-49,403	19,348	1153,914	667,407
-48,388	11,645	878,273	485,045
-47,373	25,901	845,635	507,699
-46,359	17,232	831,368	474,851
-45,344	8,497	827,236	447,942
-44,330	8,400	825,413	446,664
-43,315	8,335	824,069	445,736
-42,300	8,278	822,895	444,923
-41,286	8,336	821,872	444,515
-40,271	8,256	820,856	443,725
-39,257	8,354	819,942	443,486
-38,242	8,405	818,921	443,060
-37,227	8,374	818,210	442,571
-36,213	8,347	817,428	442,055
-35,198	8,367	816,450	441,565
-34,184	8,447	815,845	441,443
-33,169	8,354	814,955	440,684
-32,154	8,447	814,227	440,532
-31,140	8,478	812,917	439,890
-30,125	8,502	811,980	439,434
-29,111	8,465	811,526	439,068
-28,096	8,369	811,318	438,673
-27,082	8,309	810,688	438,148
-26,067	8,413	809,667	437,867
-25,052	8,306	809,106	437,250
-24,038	8,408	808,373	437,118
-23,023	8,312	807,808	436,531
-22,009	8,475	807,070	436,563
-20,994	8,453	806,405	436,124
-19,979	8,483	805,706	435,811
-18,965	8,443	805,282	435,457
-17,950	8,481	804,807	435,286
-16,936	8,382	803,982	434,550
-15,921	8,379	803,636	434,338
-14,906	8,365	802,808	433,836
-13,892	8,319	802,301	433,419
-12,877	8,260	801,819	432,979
-11,863	8,275	801,394	432,775
-10,848	8,265	800,859	432,441
-9,833	8,327	800,488	432,391
-8,819	8,373	799,674	432,061
-7,804	8,475	798,861	431,882
-6,790	8,397	798,608	431,517
-5,775	8,412	798,319	431,382
-4,760	8,391	797,665	430,955
-3,746	8,299	797,347	430,517
-2,731	8,085	796,922	429,691
-1,717	8,188	796,154	429,539
-0,702	8,100	795,694	429,034
0,313	8,247	792,802	428,519
1,327	12,020	775,613	429,145
2,342	20,812	630,810	367,754
3,356	14,522	348,169	195,561
4,371	-15,684	234,561	107,472
5,386	-18,612	220,935	98,987
6,400	-18,838	216,808	96,960
7,415	-18,021	214,838	96,677
8,429	-18,830	213,482	95,462
9,444	-19,113	212,940	95,003
10,459	-18,985	212,378	94,838
11,473	-19,012	211,779	94,542
12,488	-18,857	211,467	94,508
13,502	-18,936	210,906	94,190
14,517	-18,909	210,650	94,088
15,531	-18,903	210,233	93,897
16,546	-18,832	209,873	93,780
17,561	-19,118	209,497	93,397
18,575	-18,779	209,361	93,573
19,590	-19,129	209,013	93,156
20,604	-18,875	208,777	93,226
21,619	-18,919	208,555	93,087
22,634	-19,038	208,045	92,765
23,648	-18,750	207,850	92,876
24,663	-18,957	207,714	92,659
25,677	-18,800	207,482	92,660
26,692	-18,731	207,233	92,590
27,707	-18,837	206,991	92,398
28,721	-19,218	206,864	92,062
29,736	-18,963	206,335	91,999
30,750	-18,870	206,186	91,990
31,765	-19,122	206,080	91,756
32,780	-19,081	205,861	91,679
33,794	-19,057	205,690	91,612
34,809	-18,847	205,409	91,627
35,823	-18,897	205,257	91,516
36,838	-18,972	204,971	91,327
37,853	-18,768	204,860	91,413
38,867	-18,879	204,666	91,241
39,882	-18,893	204,365	91,089
40,896	-18,783	204,199	91,084
41,911	-18,792	203,861	90,918
42,926	-19,126	203,826	90,660
43,940	-18,863	203,537	90,708
44,955	-18,848	203,362	90,632
45,969	-18,814	203,099	90,530
46,984	-18,896	203,022	90,431
47,999	-18,627	202,830	90,525
49,013	-18,875	202,675	90,275
50,028	-18,826	202,655	90,292
51,042	-18,763	202,281	90,161
52,057	-18,793	202,118	90,060
53,071	-18,740	201,874	89,980
54,086	-18,760	201,747	89,902
55,101	-18,723	201,436	89,780
56,115	-18,848	201,367	89,656
57,130	-18,953	201,190	89,496
58,144	-18,922	201,017	89,432
59,159	-19,022	200,697	89,213
60,174	-18,888	200,532	89,225
61,188	-18,852	200,432	89,196
62,203	-18,733	200,049	89,100
63,217	-19,002	200,056	88,910
64,232	-18,955	199,949	88,887
65,247	-18,704	199,535	88,867
66,261	-18,723	199,326	88,753
67,276	-18,804	199,292	88,674
68,290	-19,022	199,223	88,487
69,305	-18,656	198,902	88,586
70,320	-18,608	198,875	88,599
71,334	-18,793	198,640	88,360
72,349	-18,830	198,357	88,201
73,363	-18,846	198,147	88,089
74,378	-18,836	198,082	88,060
75,393	-18,727	197,817	88,008
76,407	-18,956	197,770	87,823
77,422	-18,870	197,650	87,821
78,436	-18,686	197,436	87,842
79,451	-19,141	197,249	87,443
80,466	-18,829	197,206	87,628
81,480	-18,817	196,881	87,483
82,495	-18,716	196,682	87,455
83,509	-18,676	196,625	87,449
84,524	-18,913	196,516	87,233
85,539	-18,731	196,374	87,285
86,553	-18,625	196,061	87,209
87,568	-18,836	195,865	86,973
88,582	-18,725	195,765	86,995
89,597	-18,704	195,626	86,940
90,611	-18,788	195,431	86,789
91,626	-18,691	195,350	86,810
92,641	-18,596	195,173	86,787
93,655	-18,722	194,886	86,568
94,670	-18,789	194,848	86,499
95,684	-18,903	194,648	86,326
96,699	-18,588	194,414	86,424
97,714	-18,743	194,225	86,229
98,728	-18,676	194,237	86,271
99,743	-18,716	194,069	86,163
100,757	-18,594	193,797	86,115
101,772	-18,545	193,732	86,111
102,787	-18,790	193,555	85,862
103,801	-18,771	193,389	85,794
104,816	-18,973	193,280	85,604
105,830	-18,593	193,042	85,742
106,845	-18,877	192,937	85,500
107,860	-18,814	192,760	85,456
108,874	-19,013	192,741	85,308
109,889	-18,766	192,478	85,347
110,903	-18,939	192,129	85,071
111,918	-18,888	192,174	85,117
112,933	-18,779	191,946	85,080
113,947	-18,744	191,752	85,009
114,962	-18,453	191,542	85,099
115,976	-18,724	191,534	84,910
116,991	-18,640	191,270	84,841
118,006	-18,965	191,287	84,629
119,020	-18,996	191,136	84,534
120,035	-18,673	190,994	84,674
121,049	-18,587	190,799	84,636
122,064	-18,620	190,595	84,517
123,079	-18,606	190,449	84,454
124,093	-18,753	190,299	84,284
125,108	-18,514	190,097	84,342
126,122	-18,513	190,044	84,312
127,137	-18,279	189,841	84,366
128,151	-18,611	189,739	84,098
129,166	-18,556	189,534	84,036
130,181	-18,671	189,314	83,856
131,195	-18,780	189,231	83,741
132,210	-18,489	189,108	83,867
133,224	-18,803	188,809	83,525
134,239	-18,733	188,754	83,538
135,254	-18,780	188,768	83,507
136,268	-18,710	188,284	83,330
137,283	-18,703	188,385	83,372
138,297	-18,679	188,221	83,307
139,312	-18,376	187,895	83,349
140,327	-18,591	187,732	83,133
141,341	-19,118	187,561	82,712
142,356	-19,164	187,362	82,587
143,370	-18,083	187,686	83,415
144,385	-10,855	189,627	88,939
145,400	-4,083	191,318	94,127
146,414	-2,866	191,524	95,010
147,429	-2,714	191,274	94,976
148,443	-2,267	191,205	95,223
149,458	-2,217	191,169	95,230
150,473	-1,744	191,020	95,452
151,487	-1,478	190,882	95,547
152,502	-1,882	190,996	95,334
153,516	-1,678	190,668	95,293
154,531	-1,496	190,504	95,321
155,546	-1,720	190,570	95,201
156,560	-1,724	190,272	95,040
157,575	-1,614	190,286	95,110
158,589	-1,494	189,964	95,017
159,604	-1,418	189,805	94,978
160,619	-1,286	189,595	94,950
161,633	-1,280	189,698	94,996
162,648	-1,569	189,583	94,745
163,662	-1,400	189,477	94,792
164,677	-1,376	189,298	94,710
165,692	-1,283	189,236	94,730
166,706	-1,454	189,059	94,523
167,721	-1,043	188,933	94,714
168,735	-1,317	188,811	94,469
169,750	-1,228	188,774	94,500
170,764	-1,109	188,586	94,473
171,779	-1,229	188,467	94,328
172,794	-1,154	188,233	94,250
173,808	-1,232	188,327	94,239
174,823	-1,530	188,018	93,887
175,837	-1,382	187,984	93,956
176,852	-1,329	187,798	93,888
177,867	-1,348	187,778	93,858
178,881	-0,964	187,526	93,967
179,896	-1,163	187,417	93,777
180,910	-1,296	187,213	93,583
181,925	-1,237	187,213	93,612
182,940	-1,144	187,044	93,578
183,954	-1,315	186,920	93,400
184,969	-1,066	186,694	93,435
185,983	-1,304	186,772	93,316
186,998	-0,989	186,387	93,313
188,013	-0,952	186,350	93,310
189,027	-1,038	186,172	93,158
190,042	-0,948	186,007	93,124
191,056	-0,947	185,906	93,066
192,071	-1,123	185,897	92,943
193,086	-1,186	185,767	92,830
194,100	-1,029	185,713	92,893
195,115	-0,961	185,444	92,792
196,129	-1,067	185,368	92,680
197,144	-1,010	185,055	92,551
198,159	-0,879	185,039	92,616
199,173	-0,821	184,783	92,516
200,188	-0,857	184,774	92,480
201,202	-1,037	184,559	92,253
202,217	-0,787	184,470	92,356
203,232	-0,901	184,342	92,213
204,246	-0,870	184,201	92,153
205,261	-0,790	183,952	92,070
206,275	-0,959	183,844	91,903
207,290	-0,580	183,755	92,085
208,304	-0,769	183,748	91,956
209,319	-0,794	183,396	91,756
210,334	-0,915	183,456	91,703
211,348	-1,108	183,170	91,433
212,363	-1,275	183,177	91,326
213,377	-1,062	183,133	91,427
214,392	-0,730	183,083	91,598
215,407	-0,752	182,930	91,500
216,421	-0,825	182,771	91,368
217,436	-0,835	182,547	91,241
218,450	-0,797	182,325	91,146
219,465	-0,955	182,368	91,062
220,480	-0,839	182,251	91,067
221,494	-1,076	182,179	90,877
222,509	-0,790	182,132	91,021
223,523	-0,589	181,871	91,005
224,538	-0,789	181,784	90,832
225,553	-0,543	181,478	90,820
226,567	-0,618	181,545	90,800
227,582	-0,870	181,483	90,607
228,596	-0,537	181,135	90,628
229,611	-0,669	181,086	90,515
230,626	-0,873	181,113	90,396
231,640	-0,973	181,063	90,303
232,655	-0,787	180,830	90,291
233,669	-0,970	180,669	90,092
234,684	-0,706	180,557	90,188
235,699	-0,549	180,416	90,205
236,713	-0,775	180,408	90,056
237,728	-0,220	180,108	90,234
238,742	-0,380	180,043	90,097
239,757	-0,663	179,898	89,845
240,772	-0,572	179,833	89,859
241,786	-0,401	179,710	89,893
242,801	-0,412	179,673	89,860
243,815	-0,636	179,647	89,704
244,830	-0,584	179,438	89,623
245,844	-0,568	179,245	89,528
246,859	-0,514	179,221	89,540
247,874	-0,582	178,979	89,371
248,888	-0,416	178,816	89,381
249,903	-0,538	178,794	89,289
250,917	-0,458	178,722	89,293
251,932	-0,490	178,568	89,189
252,947	-0,623	178,589	89,111
253,961	-0,563	178,277	88,983
254,976	-0,606	178,125	88,874
255,990	-0,509	178,019	88,872
257,005	-0,453	177,933	88,854
258,020	-0,495	177,800	88,754
259,034	-0,414	177,781	88,786
260,049	-0,321	177,629	88,757
261,063	-0,556	177,549	88,569
262,078	-0,262	177,441	88,682
263,093	-0,448	177,225	88,456
264,107	-0,482	177,135	88,383
265,122	-0,237	177,078	88,492
266,136	-0,131	176,915	88,466
267,151	-0,315	176,852	88,317
268,166	-0,351	176,613	88,168
269,180	-0,368	176,488	88,088
270,195	-0,258	176,342	88,073
271,209	-0,318	176,408	88,062
272,224	-0,249	176,386	88,084
273,239	-0,041	176,099	88,055
274,253	-0,168	175,911	87,879
275,268	-0,283	175,821	87,758
276,282	-0,174	175,754	87,781
277,297	-0,283	175,520	87,593
278,312	-0,098	175,430	87,648
279,326	-0,260	175,394	87,528
280,341	0,143	175,327	87,723
281,355	-0,229	175,252	87,459
282,370	-0,063	175,077	87,461
283,384	-0,037	174,952	87,406
284,399	-0,351	174,811	87,145
285,414	0,083	174,678	87,324
286,428	-0,033	174,582	87,201
287,443	0,091	174,494	87,221
288,457	-0,079	174,369	87,051
289,472	-0,181	174,390	86,995
290,487	-0,131	174,083	86,863
291,501	-0,216	173,981	86,755
292,516	-0,094	173,952	86,804
293,530	-0,420	173,918	86,589
294,545	0,121	173,713	86,794
295,560	0,056	173,578	86,681
296,574	-0,109	173,563	86,570
297,589	-0,067	173,440	86,525
298,603	-0,067	173,208	86,402
299,618	0,201	172,960	86,425
300,633	0,008	173,140	86,396
301,647	-0,033	172,901	86,245
302,662	-0,235	172,866	86,104
303,676	-0,050	172,682	86,111
304,691	-0,098	172,584	86,027
305,706	0,175	172,429	86,099
306,720	-0,041	172,208	85,856
307,735	-0,216	172,323	85,805
308,749	0,060	172,185	85,888
309,764	0,013	172,105	85,813
310,779	0,299	171,967	85,901
311,793	0,034	171,922	85,719
312,808	-0,146	171,619	85,457
313,822	-0,040	171,633	85,517
314,837	0,051	171,560	85,525
315,852	-0,095	171,452	85,380
316,866	0,085	171,126	85,313
317,881	0,304	171,117	85,426
318,895	-0,044	170,901	85,112
319,910	0,377	170,865	85,326
320,925	0,283	170,883	85,274
321,939	-0,077	170,636	84,938
322,954	0,103	170,644	85,037
323,968	0,177	170,489	84,995
324,983	0,328	170,279	84,968
325,997	0,215	170,258	84,886
327,012	0,028	170,154	84,721
328,027	0,282	170,048	84,804
329,041	0,125	169,846	84,607
330,056	0,155	169,714	84,551
331,070	0,372	169,659	84,638
332,085	0,306	169,612	84,570
333,100	0,321	169,492	84,511
334,114	-0,032	169,283	84,200
335,129	0,001	169,211	84,175
336,143	0,462	169,046	84,345
337,158	0,280	169,020	84,223
338,173	0,377	169,004	84,261
339,187	0,477	168,792	84,204
340,202	0,393	168,730	84,118
341,216	0,337	168,530	83,980
342,231	0,395	168,567	84,024
343,246	0,489	168,379	83,975
344,260	0,525	168,243	83,920
345,275	0,193	168,223	83,716
346,289	0,448	168,023	83,752
347,304	0,278	167,998	83,637
348,319	0,521	167,845	83,689
349,333	0,105	167,756	83,405
350,348	0,338	167,632	83,466
351,362	-0,086	167,648	83,230
352,377	0,346	167,397	83,339
353,392	0,455	167,361	83,374
354,406	0,500	167,306	83,364
355,421	190,925	1325,398	1395,907
356,435	151,077	1466,954	1396,392
