DTS Sentinel unit serial number:	SN410029Multiplexer serial number:	ORYXHardware model number:	OX2-SRSoftware version number:	ORYX F/W v4,00 Oryx Data Collector v3.7.2.0data status	okinstallation	B3 Nyhavnadifferential loss correction	single-endedforward channel	channel 1reverse channel	N/Adate	2023/11/28time	10:47:30forward acquisition time	300,00reverse acquisition time	0,00gamma	499,1914k internal	0,3157k external	0,3157temperature offset calibration	1,0000default loss term (dB/km)	0,3820temperature slope calibration	1,0000multiplexer offset coefficient	1,0000multiplexer slope coefficient	1,0000fibre end	0,00T internal ref (°C)	9,66T ext. ref 1 (°C)	-7,29T ext. ref 2 (°C)	-7,54length (m)	temperature (°C)	Stokes	anti-Stokes-744,400	163,043	-0,265	-0,275
-743,385	-200,000	-0,034	0,374
-742,371	47,211	-0,193	-0,132
-741,356	-200,000	0,059	0,389
-740,342	603,402	-0,154	-0,283
-739,327	-200,000	-0,084	0,376
-738,312	297,732	-0,156	-0,211
-737,298	-200,000	-0,052	0,259
-736,283	800,000	-0,102	-0,280
-735,269	-200,000	0,032	0,399
-734,254	-10,811	-0,219	-0,106
-733,239	22,155	-0,308	0,185
-732,225	73,444	-0,187	-0,144
-731,210	307,776	0,127	0,175
-730,196	-200,000	0,008	0,058
-729,181	378,861	-0,057	0,087
-728,167	-2,455	-0,032	-0,017
-727,152	-16,734	0,111	-0,052
-726,137	-13,792	-0,092	-0,044
-725,123	-73,540	0,054	0,014
-724,108	-176,933	-0,082	-0,001
-723,094	133,805	-0,136	0,130
-722,079	-38,882	-0,119	0,046
-721,064	416,344	-0,070	-0,110
-720,050	-24,508	0,103	-0,045
-719,035	-200,000	0,002	-0,045
-718,021	-52,311	-0,101	-0,034
-717,006	533,808	0,029	-0,051
-715,991	-174,475	-0,116	0,002
-714,977	800,000	-0,021	-0,044
-713,962	-102,811	0,049	-0,009
-712,948	571,430	0,040	-0,072
-711,933	108,985	0,102	0,090
-710,918	84,739	-0,113	0,091
-709,904	-18,012	-0,056	-0,026
-708,889	253,113	-0,100	-0,126
-707,875	-200,000	0,031	-0,128
-706,860	379,023	-0,031	0,047
-705,845	-105,036	0,060	-0,010
-704,831	-200,000	-0,012	-0,052
-703,816	800,000	-0,025	-0,058
-702,802	-183,443	-0,138	-0,002
-701,787	-200,000	0,011	-0,060
-700,772	144,116	0,025	-0,025
-699,758	-200,000	0,023	0,086
-698,743	-200,000	-0,011	-0,085
-697,729	203,502	-0,051	0,058
-696,714	-200,000	-0,005	0,216
-695,699	225,775	-0,054	-0,064
-694,685	-36,527	-0,080	-0,031
-693,670	-118,984	-0,036	0,005
-692,656	800,000	-0,029	-0,083
-691,641	-200,000	0,002	0,057
-690,627	-117,427	0,105	0,014
-689,612	800,000	-0,004	0,008
-688,597	-130,555	-0,111	-0,011
-687,583	65,903	-0,086	-0,064
-686,568	-142,047	-0,041	0,003
-685,554	-200,000	0,001	-0,019
-684,539	418,104	0,020	-0,032
-683,524	68,515	-0,014	-0,010
-682,510	800,000	0,027	0,087
-681,495	59,550	-0,134	-0,097
-680,481	78,391	-0,099	0,078
-679,466	-200,000	0,012	-0,090
-678,451	-56,983	-0,029	0,009
-677,437	69,830	0,037	0,028
-676,422	43,108	0,085	0,057
-675,408	89,221	-0,021	-0,018
-674,393	427,511	-0,117	-0,187
-673,378	3,642	-0,044	0,024
-672,364	-200,000	-0,025	-0,103
-671,349	40,676	-0,087	-0,057
-670,335	-200,000	0,012	-0,074
-669,320	-57,733	-0,102	0,033
-668,305	40,140	-0,061	0,040
-667,291	-200,000	-0,016	-0,139
-666,276	-133,418	0,146	-0,013
-665,262	-131,663	-0,229	0,022
-664,247	-200,000	-0,005	-0,110
-663,232	260,887	-0,048	0,061
-662,218	365,451	-0,071	-0,105
-661,203	-200,000	0,006	0,141
-660,189	155,211	0,002	0,002
-659,174	-105,750	-0,138	0,023
-658,159	-140,073	-0,101	0,008
-657,145	93,808	-0,091	-0,076
-656,130	-91,028	-0,031	-0,006
-655,116	322,909	0,046	-0,065
-654,101	-39,366	0,083	0,032
-653,086	-200,000	-0,022	0,085
-652,072	104,819	-0,076	0,066
-651,057	-200,000	-0,042	-0,161
-650,043	-46,609	0,082	-0,029
-649,028	-200,000	0,008	0,029
-648,014	-200,000	-0,025	-0,104
-646,999	-16,753	-0,073	-0,034
-645,984	-89,070	0,025	-0,005
-644,970	51,787	-0,069	-0,048
-643,955	-200,000	-0,010	-0,115
-642,941	-120,029	-0,163	0,020
-641,926	-200,000	0,013	-0,084
-640,911	-2,145	-0,115	-0,059
-639,897	-75,509	-0,110	0,029
-638,882	77,216	-0,075	0,058
-637,868	-127,084	-0,116	-0,012
-636,853	732,327	-0,032	-0,063
-635,838	84,913	0,040	-0,032
-634,824	57,856	-0,096	0,069
-633,809	755,068	0,020	-0,040
-632,795	45,606	-0,030	-0,021
-631,780	-164,390	0,036	0,001
-630,765	800,000	-0,036	0,099
-629,751	-190,341	-0,181	0,001
-628,736	99,090	0,040	-0,034
-627,722	134,753	-0,067	-0,064
-626,707	-67,140	0,063	-0,018
-625,692	91,682	-0,162	0,133
-624,678	42,737	-0,052	0,035
-623,663	-71,804	-0,114	-0,031
-622,649	111,632	-0,081	-0,072
-621,634	-21,176	-0,057	-0,026
-620,619	188,744	-0,041	-0,045
-619,605	-98,942	-0,096	-0,018
-618,590	-87,163	0,049	-0,011
-617,576	42,667	-0,035	0,023
-616,561	61,421	0,056	-0,041
-615,546	-200,000	-0,009	-0,090
-614,532	115,496	-0,040	-0,036
-613,517	-200,000	0,003	-0,016
-612,503	-22,001	-0,107	0,048
-611,488	377,827	-0,049	0,073
-610,474	-28,239	0,050	-0,021
-609,459	-172,864	-0,064	0,001
-608,444	-200,000	0,046	-0,180
-607,430	756,662	0,013	0,027
-606,415	-141,235	-0,055	-0,004
-605,401	-147,174	0,072	0,004
-604,386	800,000	-0,051	0,156
-603,371	7,269	-0,078	0,042
-602,357	800,000	0,025	-0,052
-601,342	-29,292	-0,040	0,017
-600,328	-200,000	0,001	-0,033
-599,313	800,000	0,011	-0,025
-598,298	-128,913	0,124	-0,013
-597,284	88,216	0,102	-0,083
-596,269	372,946	0,053	0,080
-595,255	-200,000	0,042	0,175
-594,240	729,539	-0,048	0,094
-593,225	-17,470	-0,035	-0,016
-592,211	800,000	-0,022	-0,047
-591,196	10,294	0,052	0,029
-590,182	46,960	0,100	0,068
-589,167	-133,664	-0,029	0,003
-588,152	-200,000	-0,035	0,114
-587,138	-78,238	0,080	-0,020
-586,123	-200,000	-0,035	-0,139
-585,109	-200,000	-0,013	-0,081
-584,094	-9,973	-0,109	-0,053
-583,079	490,619	0,126	0,212
-582,065	-77,908	0,198	0,050
-581,050	719,129	-0,033	-0,064
-580,036	-200,000	-0,001	-0,045
-579,021	-200,000	0,010	-0,057
-578,006	-124,618	0,075	-0,008
-576,992	-200,000	0,008	-0,105
-575,977	-102,337	0,115	0,020
-574,963	-200,000	0,011	-0,104
-573,948	800,000	0,024	-0,053
-572,934	800,000	-0,023	-0,050
-571,919	103,411	-0,089	-0,076
-570,904	274,695	-0,061	-0,080
-569,890	-4,423	0,111	-0,056
-568,875	-109,390	-0,066	0,010
-567,861	-200,000	0,001	0,099
-566,846	467,544	-0,033	0,054
-565,831	-200,000	-0,026	0,136
-564,817	-60,590	-0,032	0,010
-563,802	-133,460	-0,180	-0,016
-562,788	33,241	-0,109	-0,069
-561,773	67,015	0,162	-0,120
-560,758	192,753	0,094	0,104
-559,744	21,229	0,079	0,047
-558,729	-200,000	0,003	0,236
-557,715	483,915	0,078	-0,131
-556,700	-127,242	-0,148	-0,016
-555,685	-200,000	0,006	0,025
-554,671	48,476	0,072	0,049
-553,656	-200,000	0,045	0,177
-552,642	232,162	0,034	0,041
-551,627	450,751	0,059	0,096
-550,612	-166,328	0,140	0,004
-549,598	269,195	-0,093	-0,120
-548,583	125,055	-0,087	-0,080
-547,569	-110,994	0,108	0,016
-546,554	121,926	0,030	0,027
-545,539	274,971	0,080	0,104
-544,525	68,775	0,082	-0,061
-543,510	655,127	-0,058	-0,109
-542,496	800,000	-0,023	-0,057
-541,481	-200,000	-0,020	-0,148
-540,466	94,891	-0,016	-0,013
-539,452	-114,195	0,066	-0,009
-538,437	75,355	-0,081	0,063
-537,423	-55,398	0,049	-0,016
-536,408	206,493	-0,112	-0,128
-535,393	-52,023	-0,037	-0,013
-534,379	-200,000	0,012	-0,140
-533,364	236,780	-0,128	-0,156
-532,350	26,901	0,109	0,067
-531,335	365,275	0,067	0,099
-530,321	800,000	-0,004	0,012
-529,306	46,925	-0,113	0,077
-528,291	-27,291	0,093	-0,039
-527,277	139,676	0,104	-0,101
-526,262	-76,773	-0,036	0,009
-525,248	-61,055	0,063	0,019
-524,233	719,089	0,037	0,073
-523,218	-73,307	0,101	-0,027
-522,204	372,341	0,025	-0,038
-521,189	13,326	-0,089	-0,050
-520,175	-80,209	0,035	0,009
-519,160	800,000	-0,043	-0,094
-518,145	140,544	0,025	-0,024
-517,131	289,313	0,053	0,070
-516,116	-137,080	0,110	0,009
-515,102	40,958	-0,084	0,056
-514,087	-200,000	0,029	-0,139
-513,072	800,000	-0,014	-0,030
-512,058	-127,831	0,131	-0,014
-511,043	-200,000	-0,008	-0,077
-510,029	241,533	-0,016	0,020
-509,014	216,247	-0,030	0,035
-507,999	9,112	0,051	0,028
-506,985	-200,000	-0,005	-0,044
-505,970	255,873	-0,085	0,106
-504,956	35,717	0,094	0,060
-503,941	800,000	-0,043	-0,106
-502,926	-123,866	0,050	0,006
-501,912	119,374	0,037	0,033
-500,897	-200,000	0,018	-0,078
-499,883	-54,073	-0,017	-0,006
-498,868	574,961	0,040	-0,071
-497,853	41,059	-0,103	-0,067
-496,839	281,292	0,038	-0,050
-495,824	-21,352	-0,076	-0,034
-494,810	591,359	-0,025	-0,046
-493,795	-36,947	0,081	0,032
-492,781	163,947	-0,013	0,013
-491,766	-44,236	-0,136	-0,050
-490,751	14,230	-0,045	-0,026
-489,737	-155,980	0,176	0,008
-488,722	189,300	-0,029	-0,032
-487,708	-76,166	-0,035	0,009
-486,693	141,977	-0,067	0,065
-485,678	800,000	-0,048	-0,116
-484,664	-200,000	-0,019	0,170
-483,649	800,000	0,007	-0,020
-482,635	258,223	-0,082	-0,104
-481,620	-105,603	0,116	-0,019
-480,605	186,433	0,125	-0,136
-479,591	86,911	-0,128	0,103
-478,576	450,829	0,021	0,034
-477,562	-36,031	-0,025	-0,010
-476,547	-77,699	-0,071	-0,018
-475,532	435,306	0,059	0,094
-474,518	-200,000	0,001	-0,019
-473,503	-91,041	0,219	0,045
-472,489	-200,000	0,022	0,165
-471,474	-200,000	-0,013	0,108
-470,459	-64,416	-0,107	-0,031
-469,445	-59,849	0,158	0,049
-468,430	279,699	0,065	-0,085
-467,416	-2,484	0,092	-0,047
-466,401	17,059	0,094	0,054
-465,386	242,472	0,043	0,053
-464,372	111,282	0,073	0,064
-463,357	430,886	-0,065	0,103
-462,343	-200,000	-0,018	-0,099
-461,328	800,000	0,008	0,016
-460,313	-86,843	0,105	0,023
-459,299	-171,958	0,108	0,002
-458,284	-121,069	0,025	-0,003
-457,270	-72,438	0,128	0,034
-456,255	447,429	-0,068	0,110
-455,241	53,998	0,022	0,016
-454,226	126,637	0,065	0,060
-453,211	353,109	0,083	-0,120
-452,197	576,824	-0,025	0,044
-451,182	139,797	-0,028	-0,027
-450,168	-200,000	0,007	0,111
-449,153	75,434	-0,083	0,064
-448,138	125,548	-0,013	0,012
-447,124	-95,509	0,153	-0,030
-446,109	277,902	0,099	-0,129
-445,095	152,780	0,157	0,157
-444,080	-83,231	0,033	-0,008
-443,065	-200,000	-0,022	0,094
-442,051	-158,159	0,083	0,003
-441,036	-137,518	0,070	-0,006
-440,022	516,757	-0,067	-0,115
-439,007	19,281	0,041	-0,024
-437,992	31,982	-0,091	0,057
-436,978	-200,000	0,008	0,054
-435,963	-23,898	0,064	-0,028
-434,949	-28,809	-0,168	0,070
-433,934	-16,261	-0,055	-0,025
-432,919	-200,000	-0,013	-0,121
-431,905	383,520	0,012	0,018
-430,890	27,227	0,046	0,028
-429,876	-114,762	0,115	-0,016
-428,861	130,978	0,109	0,102
-427,846	752,453	-0,068	-0,135
-426,832	800,000	-0,059	-0,136
-425,817	-40,772	0,058	0,022
-424,803	27,374	-0,055	0,034
-423,788	4,833	-0,011	-0,006
-422,773	-39,051	-0,096	-0,037
-421,759	70,785	-0,033	-0,025
-420,744	-38,438	-0,031	-0,012
-419,730	366,431	-0,006	-0,008
-418,715	189,665	0,034	-0,037
-417,701	230,617	-0,035	-0,042
-416,686	402,848	-0,044	-0,068
-415,671	-200,000	-0,020	0,093
-414,657	-200,000	-0,008	0,030
-413,642	189,523	-0,058	-0,064
-412,628	50,207	0,030	0,021
-411,613	-129,224	-0,225	-0,023
-410,598	-200,000	0,030	0,116
-409,584	263,501	0,031	-0,040
-408,569	-200,000	-0,007	-0,060
-407,555	-200,000	-0,029	0,100
-406,540	197,447	-0,020	-0,022
-405,525	-31,985	-0,084	0,034
-404,511	-200,000	-0,005	-0,048
-403,496	-160,961	-0,106	-0,004
-402,482	800,000	0,074	0,153
-401,467	-200,000	0,015	0,138
-400,452	226,137	0,067	-0,079
-399,438	262,842	-0,061	-0,077
-398,423	263,960	-0,073	0,093
-397,409	-200,000	0,004	-0,041
-396,394	-87,695	-0,145	-0,032
-395,379	-200,000	-0,004	0,148
-394,365	-164,249	0,063	0,002
-393,350	85,775	0,105	0,084
-392,336	111,646	-0,108	0,095
-391,321	-132,455	-0,105	0,010
-390,306	392,892	0,019	-0,028
-389,292	203,662	-0,073	-0,082
-388,277	423,122	-0,041	0,064
-387,263	800,000	0,028	-0,076
-386,248	-44,660	0,158	0,057
-385,233	-200,000	0,019	0,070
-384,219	-183,278	-0,051	-0,001
-383,204	-200,000	0,026	-0,086
-382,190	768,099	-0,080	-0,159
-381,175	-200,000	0,015	0,050
-380,160	-39,660	-0,221	-0,084
-379,146	-65,818	0,163	0,047
-378,131	-200,000	-0,004	0,035
-377,117	418,262	-0,040	-0,063
-376,102	-175,840	-0,193	-0,004
-375,088	800,000	0,020	0,044
-374,073	-58,370	-0,068	0,022
-373,058	800,000	0,107	0,245
-372,044	-200,000	0,031	-0,178
-371,029	22,618	-0,161	0,096
-370,015	-200,000	0,001	0,052
-369,000	-128,102	-0,072	0,007
-367,985	-188,978	0,087	-0,001
-366,971	135,611	0,030	0,028
-365,956	107,569	0,084	0,073
-364,942	-87,232	0,078	-0,017
-363,927	-109,072	0,047	-0,007
-362,912	69,823	0,066	-0,050
-361,898	-44,245	-0,182	0,066
-360,883	487,641	-0,010	-0,017
-359,869	-42,855	-0,187	-0,069
-358,854	330,870	0,044	-0,062
-357,839	-38,842	0,103	-0,039
-356,825	147,739	0,042	0,041
-355,810	-200,000	-0,026	0,084
-354,796	43,141	-0,186	-0,123
-353,781	427,423	0,062	0,098
-352,766	-132,616	0,058	0,005
-351,752	9,676	0,119	0,065
-350,737	19,328	0,073	0,042
-349,723	-200,000	-0,018	0,073
-348,708	-200,000	0,014	0,049
-347,693	-38,862	0,036	-0,014
-346,679	64,903	-0,041	-0,030
-345,664	47,505	0,095	-0,064
-344,650	-27,135	-0,138	-0,058
-343,635	-66,766	0,128	0,037
-342,620	140,323	-0,066	0,064
-341,606	277,718	-0,062	0,080
-340,591	103,139	-0,063	-0,053
-339,577	368,167	0,009	-0,014
-338,562	800,000	0,024	-0,058
-337,548	206,994	-0,033	0,037
-336,533	389,931	0,076	-0,115
-335,518	-127,661	0,068	-0,007
-334,504	800,000	-0,031	0,076
-333,489	800,000	0,034	0,074
-332,475	-77,796	-0,036	-0,009
-331,460	48,780	-0,124	-0,085
-330,445	-164,115	-0,096	0,003
-329,431	90,657	0,075	-0,061
-328,416	-200,000	0,019	0,178
-327,402	-66,807	0,022	0,006
-326,387	800,000	0,038	0,115
-325,372	-200,000	0,027	-0,199
-324,358	800,000	-0,051	-0,103
-323,343	-109,907	-0,176	0,026
-322,329	-45,085	0,067	-0,024
-321,314	-200,000	0,021	0,090
-320,299	301,100	-0,032	0,043
-319,285	-89,535	-0,135	-0,029
-318,270	-200,000	0,041	-0,180
-317,256	296,782	-0,050	-0,066
-316,241	-200,000	0,027	-0,106
-315,226	-200,000	0,002	-0,053
-314,212	-55,160	0,077	0,025
-313,197	-200,000	0,000	0,064
-312,183	-92,266	-0,066	0,013
-311,168	-200,000	0,026	-0,087
-310,153	-200,000	-0,024	0,080
-309,139	242,904	0,056	-0,068
-308,124	-115,575	-0,058	0,008
-307,110	38,931	0,031	0,020
-306,095	-117,812	0,155	0,020
-305,080	-200,000	-0,047	0,157
-304,066	-200,000	0,038	-0,149
-303,051	107,603	0,065	-0,056
-302,037	-200,000	-0,035	-0,231
-301,022	94,657	0,067	-0,055
-300,008	-200,000	0,007	0,094
-298,993	191,218	-0,102	0,112
-297,978	-200,000	0,007	0,150
-296,964	-200,000	-0,046	-0,149
-295,949	166,528	0,035	0,036
-294,935	800,000	-0,008	-0,017
-293,920	223,786	-0,034	-0,040
-292,905	-92,876	0,086	-0,017
-291,891	800,000	-0,063	0,187
-290,876	-18,916	0,092	0,041
-289,862	373,698	-0,070	0,104
-288,847	200,723	0,025	0,028
-287,832	-85,548	0,075	-0,017
-286,818	263,983	-0,067	0,084
-285,803	800,000	-0,049	-0,104
-284,789	-81,232	0,050	-0,012
-283,774	-200,000	0,000	-0,005
-282,759	-200,000	0,027	-0,105
-281,745	-200,000	-0,001	-0,087
-280,730	362,179	-0,109	-0,159
-279,716	774,994	0,057	-0,113
-278,701	119,602	0,063	0,056
-277,686	-200,000	-0,000	0,069
-276,672	-200,000	-0,059	0,196
-275,657	339,112	0,035	0,050
-274,643	384,086	-0,122	0,183
-273,628	757,827	-0,048	0,094
-272,613	-200,000	0,011	-0,047
-271,599	-200,000	-0,007	-0,050
-270,584	800,000	0,003	0,008
-269,570	66,934	0,146	0,108
-268,555	-200,000	0,021	0,093
-267,540	-68,054	-0,113	0,032
-266,526	800,000	0,043	-0,098
-265,511	-80,485	-0,111	0,026
-264,497	-63,587	0,228	0,067
-263,482	800,000	-0,036	-0,103
-262,467	26,664	-0,050	0,030
-261,453	800,000	0,038	0,111
-260,438	103,590	-0,124	-0,105
-259,424	375,756	0,058	0,085
-258,409	11,455	-0,060	0,033
-257,395	109,940	0,066	-0,057
-256,380	-200,000	0,003	-0,062
-255,365	-200,000	-0,005	-0,121
-254,351	-110,256	0,125	-0,019
-253,336	65,187	-0,087	-0,063
-252,322	-118,973	-0,112	-0,014
-251,307	-200,000	-0,004	-0,066
-250,292	-122,517	-0,014	-0,002
-249,278	800,000	-0,013	-0,042
-248,263	72,885	-0,031	0,023
-247,249	800,000	-0,041	0,090
-246,234	129,802	0,023	-0,021
-245,219	-84,338	-0,083	-0,019
-244,205	-200,000	-0,005	-0,052
-243,190	800,000	-0,055	0,163
-242,176	-99,091	0,033	0,006
-241,161	-200,000	0,012	0,131
-240,146	-200,000	-0,008	0,049
-239,132	-144,622	0,032	0,002
-238,117	145,104	-0,081	-0,078
-237,103	-200,000	0,013	0,057
-236,088	-163,290	-0,105	0,004
-235,073	44,261	0,022	0,015
-234,059	-169,773	-0,042	-0,001
-233,044	-125,035	0,107	0,012
-232,030	75,128	-0,081	-0,061
-231,015	5,140	0,055	0,029
-230,000	-200,000	0,034	0,155
-228,986	185,003	-0,111	-0,119
-227,971	-19,164	0,096	0,043
-226,957	-200,000	0,007	0,036
-225,942	-11,718	0,020	-0,009
-224,927	-107,779	-0,068	-0,011
-223,913	57,578	-0,125	0,088
-222,898	-122,909	-0,084	-0,010
-221,884	-200,000	-0,004	0,076
-220,869	800,000	0,022	0,056
-219,855	-200,000	0,008	-0,034
-218,840	-200,000	0,005	0,043
-217,825	-200,000	0,004	-0,108
-216,811	354,405	-0,043	-0,062
-215,796	-185,908	0,043	0,000
-214,782	198,733	0,053	-0,059
-213,767	-12,399	0,070	0,033
-212,752	119,591	-0,021	-0,018
-211,738	-200,000	0,002	0,084
-210,723	-13,923	-0,075	-0,035
-209,709	800,000	-0,038	-0,089
-208,694	-52,483	-0,112	0,037
-207,679	366,070	0,089	0,129
-206,665	416,020	0,019	0,029
-205,650	342,655	0,032	0,045
-204,636	800,000	-0,042	0,115
-203,621	-3,561	0,049	0,025
-202,606	165,307	-0,079	0,081
-201,592	-200,000	0,031	0,140
-200,577	-63,279	0,095	0,028
-199,563	279,999	-0,049	0,064
-198,548	52,911	0,078	0,054
-197,533	79,036	0,020	0,016
-196,519	-200,000	0,035	-0,115
-195,504	268,363	-0,172	-0,218
-194,490	391,329	-0,019	-0,028
-193,475	79,837	0,067	0,052
-192,460	-50,244	0,139	-0,047
-191,446	362,272	-0,023	0,033
-190,431	-94,667	0,138	0,027
-189,417	-52,838	-0,009	0,003
-188,402	132,786	-0,043	-0,040
-187,387	307,234	-0,053	-0,071
-186,373	-200,000	-0,005	0,046
-185,358	411,301	-0,018	0,028
-184,344	800,000	-0,029	-0,064
-183,329	-200,000	0,016	-0,074
-182,315	18,114	0,056	0,032
-181,300	-200,000	-0,023	0,077
-180,285	229,234	-0,038	0,045
-179,271	-32,237	0,098	-0,039
-178,256	-141,765	0,038	-0,003
-177,242	-200,000	0,028	-0,150
-176,227	241,374	0,073	0,088
-175,212	-200,000	0,009	-0,065
-174,198	26,021	0,060	-0,036
-173,183	800,000	0,047	-0,134
-172,169	319,618	-0,026	0,035
-171,154	152,043	0,082	-0,080
-170,139	48,398	0,104	0,070
-169,125	800,000	-0,021	0,061
-168,110	178,498	0,050	0,053
-167,096	800,000	0,008	-0,020
-166,081	800,000	0,060	-0,170
-165,066	-200,000	0,018	-0,171
-164,052	389,149	0,021	-0,032
-163,037	574,718	0,010	-0,018
-162,023	-131,616	0,070	-0,007
-161,008	22,369	0,110	0,065
-159,993	-34,327	-0,052	-0,020
-158,979	-190,193	0,099	0,001
-157,964	705,064	0,062	-0,118
-156,950	-90,316	0,074	-0,015
-155,935	223,421	-0,074	0,086
-154,920	-200,000	-0,017	0,214
-153,906	363,518	0,022	0,032
-152,891	-33,624	-0,082	-0,032
-151,877	123,504	0,110	-0,100
-150,862	168,135	-0,126	-0,130
-149,847	800,000	-0,074	-0,191
-148,833	167,116	0,079	0,081
-147,818	111,237	0,022	-0,019
-146,804	-117,893	-0,075	-0,010
-145,789	110,848	0,078	-0,068
-144,775	129,433	-0,126	-0,116
-143,760	-133,693	-0,163	-0,014
-142,745	33,525	-0,135	0,085
-141,731	37,356	0,131	-0,084
-140,716	132,240	0,131	-0,121
-139,702	800,000	-0,043	0,123
-138,687	-145,905	0,174	0,011
-137,672	-200,000	0,006	0,058
-136,658	-3,705	-0,125	-0,063
-135,643	-76,918	-0,062	-0,016
-134,629	-54,167	-0,044	0,014
-133,614	8,807	0,176	-0,095
-132,599	457,119	-0,051	0,081
-131,585	205,596	-0,077	-0,086
-130,570	-114,284	-0,089	0,012
-129,556	36,023	0,087	0,055
-128,541	-200,000	-0,008	-0,194
-127,526	152,127	-0,031	-0,031
-126,512	116,364	0,031	-0,028
-125,497	-200,000	0,004	0,091
-124,483	586,680	0,075	0,133
-123,468	218,716	0,051	0,058
-122,453	-185,933	0,074	0,001
-121,439	-129,803	-0,150	-0,015
-120,424	-78,137	-0,103	-0,025
-119,410	121,912	0,098	-0,088
-118,395	23,677	-0,113	0,067
-117,380	-200,000	0,011	0,082
-116,366	69,164	-0,053	-0,040
-115,351	-66,431	-0,069	-0,020
-114,337	-49,565	-0,101	-0,034
-113,322	-154,409	0,086	-0,004
-112,307	55,788	-0,043	0,030
-111,293	-64,206	0,208	0,061
-110,278	193,885	-0,050	-0,054
-109,264	-200,000	-0,010	-0,122
-108,249	800,000	-0,051	-0,128
-107,234	472,293	0,061	-0,099
-106,220	624,909	-0,011	0,020
-105,205	252,531	-0,105	-0,129
-104,191	-55,254	0,051	-0,017
-103,176	44,867	0,096	0,064
-102,162	-200,000	-0,041	0,148
-101,147	466,599	0,106	0,172
-100,132	549,380	0,011	-0,019
-99,118	-200,000	0,009	0,107
-98,103	7,423	-0,077	0,041
-97,089	-82,013	0,114	0,026
-96,074	-20,289	0,111	0,049
-95,059	800,000	-0,037	0,097
-94,045	-200,000	0,014	0,096
-93,030	800,000	0,027	-0,057
-92,016	-119,449	-0,122	0,015
-91,001	602,143	0,039	-0,069
-89,986	-79,747	0,056	0,014
-88,972	687,282	-0,031	-0,059
-87,957	800,000	-0,047	0,124
-86,943	521,266	-0,067	0,113
-85,928	-200,000	-0,018	-0,108
-84,913	800,000	-0,077	-0,209
-83,899	679,712	0,046	0,087
-82,884	161,681	0,011	-0,011
-81,870	-37,522	-0,038	0,014
-80,855	-155,709	0,026	-0,001
-79,840	191,686	-0,042	-0,046
-78,826	-200,000	0,017	-0,157
-77,811	-31,351	-0,056	0,023
-76,797	-181,783	-0,071	-0,001
-75,782	17,371	0,052	-0,030
-74,767	-88,901	0,097	-0,020
-73,753	-24,108	0,132	0,056
-72,738	86,424	-0,090	0,071
-71,724	-29,614	-0,105	0,043
-70,709	-68,159	-0,097	0,027
-69,694	222,590	0,050	-0,058
-68,680	-200,000	-0,027	0,107
-67,665	800,000	0,043	0,124
-66,651	35,973	0,085	-0,054
-65,636	7,596	-0,188	0,101
-64,622	625,559	-0,024	0,044
-63,607	800,000	-0,014	-0,042
-62,592	193,671	-0,010	0,011
-61,578	-159,910	-0,053	-0,002
-60,563	-9,193	-0,009	0,004
-59,549	-200,000	-0,021	0,094
-58,534	36,965	-2,110	-1,337
-57,519	479,808	-1,290	-2,107
-56,505	-200,000	-0,170	-4,243
-55,490	550,284	0,769	1,330
-54,476	800,000	5,302	11,538
-53,461	-200,000	21,448	343,670
-52,446	800,000	761,618	2361,490
-51,432	532,175	1663,231	2835,454
-50,417	73,533	1578,892	1185,399
-49,403	22,992	1089,735	639,870
-48,388	13,653	763,497	424,349
-47,373	27,630	723,419	435,927
-46,359	20,098	708,715	409,228
-45,344	9,810	704,325	382,269
-44,330	9,624	702,819	380,995
-43,315	9,657	701,444	380,313
-42,300	9,574	700,338	379,501
-41,286	9,553	699,548	379,010
-40,271	9,543	698,988	378,668
-39,257	9,567	698,061	378,207
-38,242	9,607	697,174	377,806
-37,227	9,721	696,412	377,645
-36,213	9,638	695,607	376,998
-35,198	9,696	694,501	376,522
-34,184	9,745	694,261	376,492
-33,169	9,610	693,429	375,709
-32,154	9,756	692,784	375,685
-31,140	9,710	691,608	374,927
-30,125	9,766	691,171	374,805
-29,111	9,688	690,537	374,264
-28,096	9,651	690,526	374,156
-27,082	9,620	689,981	373,774
-26,067	9,585	689,320	373,321
-25,052	9,593	688,668	372,971
-24,038	9,646	688,193	372,822
-23,023	9,614	687,538	372,377
-22,009	9,738	686,842	372,275
-20,994	9,669	686,165	371,731
-19,979	9,785	685,302	371,518
-18,965	9,638	685,402	371,218
-17,950	9,775	684,826	371,207
-16,936	9,740	684,165	370,753
-15,921	9,705	683,700	370,407
-14,906	9,636	682,866	369,779
-13,892	9,702	682,341	369,634
-12,877	9,658	681,951	369,306
-11,863	9,607	681,713	369,046
-10,848	9,506	681,450	368,656
-9,833	9,603	681,267	368,765
-8,819	9,698	680,261	368,425
-7,804	9,747	679,559	368,143
-6,790	9,614	679,382	367,727
-5,775	9,638	679,120	367,626
-4,760	9,572	678,450	367,096
-3,746	9,634	678,067	367,016
-2,731	9,394	677,874	366,348
-1,717	9,416	677,282	366,064
-0,702	9,451	676,602	365,763
0,313	9,567	672,830	364,536
1,327	13,821	645,815	359,147
2,342	22,543	518,217	303,334
3,356	16,021	286,840	161,613
4,371	-15,054	192,737	88,205
5,386	-18,456	181,399	80,892
6,400	-18,180	177,956	79,518
7,415	-17,488	176,500	79,280
8,429	-18,305	175,518	78,339
9,444	-18,348	174,913	78,037
10,459	-18,267	174,375	77,838
11,473	-18,300	174,152	77,712
12,488	-17,924	173,729	77,741
13,502	-18,414	173,407	77,298
14,517	-18,238	173,054	77,238
15,531	-18,350	172,754	77,031
16,546	-17,761	172,307	77,173
17,561	-18,181	171,937	76,752
18,575	-18,057	172,040	76,865
19,590	-17,860	171,458	76,714
20,604	-18,171	171,408	76,502
21,619	-18,352	171,184	76,289
22,634	-18,281	171,012	76,247
23,648	-18,082	170,614	76,179
24,663	-17,990	170,348	76,107
25,677	-18,183	170,446	76,032
26,692	-18,012	170,200	76,015
27,707	-18,248	170,027	75,794
28,721	-18,070	169,771	75,776
29,736	-18,109	169,589	75,665
30,750	-17,852	169,302	75,679
31,765	-18,010	169,226	75,547
32,780	-18,049	169,010	75,422
33,794	-18,069	168,922	75,364
34,809	-17,917	168,746	75,366
35,823	-18,355	168,658	75,068
36,838	-18,122	168,386	75,075
37,853	-17,964	168,202	75,076
38,867	-17,996	168,115	75,013
39,882	-18,080	167,852	74,840
40,896	-18,038	167,817	74,842
41,911	-17,761	167,483	74,845
42,926	-18,019	167,430	74,667
43,940	-17,912	167,132	74,588
44,955	-17,678	167,042	74,675
45,969	-17,961	166,888	74,438
46,984	-17,659	166,796	74,563
47,999	-17,635	166,729	74,540
49,013	-17,472	166,574	74,556
50,028	-17,694	166,460	74,373
51,042	-17,698	166,166	74,233
52,057	-17,958	166,076	74,038
53,071	-17,863	166,018	74,060
54,086	-17,598	165,678	74,051
55,101	-17,950	165,556	73,791
56,115	-17,890	165,472	73,781
57,130	-17,991	165,100	73,552
58,144	-18,320	165,093	73,357
59,159	-18,574	164,836	73,093
60,174	-18,395	164,715	73,133
61,188	-18,129	164,596	73,223
62,203	-18,043	164,454	73,202
63,217	-18,242	164,428	73,072
64,232	-18,218	164,150	72,956
65,247	-18,493	163,901	72,685
66,261	-18,290	163,655	72,682
67,276	-17,944	163,700	72,889
68,290	-17,960	163,623	72,839
69,305	-18,005	163,372	72,696
70,320	-17,672	163,294	72,840
71,334	-17,764	163,126	72,708
72,349	-18,146	162,914	72,395
73,363	-18,416	162,681	72,135
74,378	-18,133	162,711	72,298
75,393	-18,151	162,386	72,138
76,407	-18,099	162,465	72,195
77,422	-17,915	162,100	72,128
78,436	-18,264	162,071	71,916
79,451	-18,110	161,851	71,897
80,466	-18,123	161,659	71,798
81,480	-17,888	161,551	71,874
82,495	-17,973	161,657	71,868
83,509	-18,057	161,391	71,696
84,524	-17,849	161,471	71,840
85,539	-17,894	161,217	71,696
86,553	-17,590	161,017	71,767
87,568	-17,807	160,906	71,592
88,582	-17,584	160,716	71,624
89,597	-17,694	160,601	71,506
90,611	-18,130	160,629	71,274
91,626	-17,831	160,245	71,260
92,641	-18,135	160,130	71,036
93,655	-17,929	160,068	71,115
94,670	-17,873	159,902	71,065
95,684	-17,844	159,935	71,089
96,699	-17,916	159,740	70,957
97,714	-17,923	159,663	70,913
98,728	-17,700	159,492	70,951
99,743	-17,957	159,241	70,694
100,757	-17,805	159,108	70,712
101,772	-17,994	159,076	70,589
102,787	-17,968	158,749	70,451
103,801	-17,559	158,650	70,622
104,816	-17,771	158,563	70,462
105,830	-17,874	158,439	70,346
106,845	-18,075	158,357	70,194
107,860	-17,960	158,261	70,208
108,874	-17,916	158,157	70,179
109,889	-18,244	157,923	69,893
110,903	-17,897	157,748	69,995
111,918	-18,216	157,757	69,822
112,933	-17,939	157,628	69,907
113,947	-17,914	157,454	69,837
114,962	-17,854	157,375	69,827
115,976	-17,864	157,115	69,700
116,991	-18,084	157,084	69,563
118,006	-17,941	156,987	69,591
119,020	-18,110	156,893	69,453
120,035	-17,977	156,759	69,458
121,049	-17,945	156,559	69,380
122,064	-17,940	156,410	69,311
123,079	-17,951	156,402	69,295
124,093	-18,024	156,172	69,148
125,108	-18,173	156,100	69,031
126,122	-17,865	156,017	69,151
127,137	-17,438	155,999	69,363
128,151	-17,753	155,770	69,089
129,166	-17,519	155,597	69,130
130,181	-17,714	155,440	68,951
131,195	-17,823	155,251	68,803
132,210	-17,776	155,093	68,752
133,224	-17,693	155,037	68,765
134,239	-17,982	154,853	68,525
135,254	-17,921	154,647	68,460
136,268	-17,757	154,635	68,534
137,283	-17,494	154,395	68,560
138,297	-17,675	154,332	68,431
139,312	-17,849	154,007	68,190
140,327	-18,422	153,940	67,855
141,341	-18,623	153,698	67,638
142,356	-18,564	153,666	67,648
143,370	-17,682	153,991	68,245
144,385	-10,607	155,476	72,622
145,400	-3,614	156,839	76,957
146,414	-2,046	156,943	77,830
147,429	-1,883	156,985	77,931
148,443	-1,673	157,056	78,070
149,458	-1,411	156,929	78,138
150,473	-1,303	156,756	78,102
151,487	-1,369	156,758	78,061
152,502	-1,110	156,558	78,091
153,516	-1,056	156,444	78,056
154,531	-0,726	156,167	78,084
155,546	-0,841	156,289	78,077
156,560	-1,061	156,217	77,919
157,575	-1,030	156,000	77,820
158,589	-0,992	155,782	77,725
159,604	-1,151	155,768	77,627
160,619	-1,097	155,708	77,618
161,633	-0,868	155,474	77,614
162,648	-0,887	155,422	77,572
163,662	-0,812	155,304	77,545
164,677	-0,778	155,295	77,552
165,692	-0,637	155,240	77,590
166,706	-0,527	154,961	77,501
167,721	-0,496	154,900	77,480
168,735	-0,724	154,971	77,390
169,750	-1,041	154,981	77,223
170,764	-0,711	154,632	77,214
171,779	-0,594	154,548	77,226
172,794	-0,457	154,470	77,251
173,808	-0,532	154,335	77,138
174,823	-0,614	154,220	77,031
175,837	-0,907	154,151	76,838
176,852	-0,954	153,918	76,691
177,867	-0,700	154,041	76,877
178,881	-0,758	153,867	76,752
179,896	-0,496	153,719	76,807
180,910	-0,550	153,647	76,737
181,925	-0,815	153,491	76,516
182,940	-0,767	153,262	76,419
183,954	-0,882	153,264	76,354
184,969	-0,836	153,323	76,400
185,983	-0,781	153,160	76,341
186,998	-0,677	153,094	76,354
188,013	-0,720	152,816	76,187
189,027	-0,554	152,637	76,176
190,042	-0,595	152,522	76,090
191,056	-0,557	152,450	76,067
192,071	-0,477	152,371	76,062
193,086	-0,342	152,245	76,061
194,100	-0,260	152,208	76,078
195,115	-0,310	151,981	75,932
196,129	-0,465	151,993	75,852
197,144	-0,604	151,898	75,727
198,159	-0,588	151,717	75,639
199,173	-0,585	151,621	75,585
200,188	-0,426	151,499	75,599
201,202	-0,363	151,451	75,600
202,217	-0,388	151,152	75,431
203,232	-0,324	151,262	75,512
204,246	-0,339	151,035	75,384
205,261	-0,304	150,975	75,365
206,275	-0,304	150,810	75,276
207,290	-0,239	150,824	75,309
208,304	-0,240	150,668	75,224
209,319	-0,165	150,570	75,206
210,334	-0,470	150,298	74,910
211,348	-0,576	150,334	74,868
212,363	-0,706	150,250	74,754
213,377	-0,185	150,051	74,910
214,392	-0,211	149,991	74,860
215,407	-0,107	149,926	74,873
216,421	-0,173	149,656	74,699
217,436	-0,001	149,757	74,829
218,450	-0,203	149,746	74,715
219,465	-0,561	149,666	74,490
220,480	-0,462	149,441	74,420
221,494	-0,295	149,405	74,479
222,509	-0,089	149,254	74,500
223,523	-0,275	149,157	74,353
224,538	-0,180	149,031	74,330
225,553	-0,104	148,901	74,296
226,567	-0,365	148,834	74,127
227,582	-0,202	148,769	74,169
228,596	-0,488	148,786	74,029
229,611	-0,184	148,621	74,091
230,626	0,022	148,397	74,075
231,640	-0,177	148,278	73,910
232,655	-0,527	148,259	73,721
233,669	-0,167	148,117	73,821
234,684	-0,374	148,224	73,766
235,699	-0,394	148,062	73,669
236,713	-0,261	148,007	73,700
237,728	0,425	147,642	73,850
238,742	0,063	147,530	73,610
239,757	-0,239	147,582	73,480
240,772	-0,265	147,476	73,408
241,786	0,167	147,358	73,555
242,801	-0,141	147,366	73,401
243,815	0,060	147,239	73,430
244,830	0,246	147,030	73,411
245,844	-0,257	147,107	73,195
246,859	0,035	146,859	73,209
247,874	-0,083	146,796	73,113
248,888	-0,104	146,617	73,007
249,903	0,052	146,675	73,106
250,917	0,173	146,462	73,052
251,932	0,105	146,375	72,969
252,947	0,345	146,309	73,047
253,961	-0,059	146,441	72,909
254,976	0,000	146,098	72,760
255,990	0,123	145,998	72,764
257,005	0,322	146,009	72,859
258,020	0,078	145,928	72,694
259,034	0,394	145,744	72,749
260,049	-0,149	145,669	72,442
261,063	0,045	145,620	72,505
262,078	-0,176	145,474	72,319
263,093	0,067	145,310	72,348
264,107	0,147	145,154	72,303
265,122	0,005	145,099	72,201
266,136	0,221	145,045	72,271
267,151	0,343	145,042	72,322
268,166	0,093	144,895	72,122
269,180	0,158	144,774	72,087
270,195	0,529	144,705	72,225
271,209	0,108	144,653	71,990
272,224	0,234	144,495	71,965
273,239	0,126	144,478	71,898
274,253	0,244	144,317	71,868
275,268	0,460	144,217	71,916
276,282	0,260	144,112	71,761
277,297	0,373	143,895	71,701
278,312	0,317	143,955	71,698
279,326	0,295	143,882	71,644
280,341	0,147	143,716	71,485
281,355	0,341	143,705	71,566
282,370	0,590	143,526	71,589
283,384	0,511	143,408	71,486
284,399	0,137	143,419	71,306
285,414	0,432	143,258	71,361
286,428	0,605	143,070	71,343
287,443	0,471	143,114	71,295
288,457	0,405	142,914	71,158
289,472	0,268	142,979	71,119
290,487	0,329	142,800	71,052
291,501	0,504	142,580	71,019
292,516	0,433	142,555	70,967
293,530	0,469	142,468	70,934
294,545	0,487	142,445	70,925
295,560	0,615	142,260	70,887
296,574	0,427	142,182	70,753
297,589	0,695	142,155	70,860
298,603	0,402	142,071	70,673
299,618	0,266	141,934	70,535
300,633	0,410	141,948	70,603
301,647	0,608	141,824	70,628
302,662	0,555	141,693	70,532
303,676	0,381	141,683	70,439
304,691	0,669	141,445	70,449
305,706	0,530	141,389	70,350
306,720	0,470	141,404	70,323
307,735	0,530	141,224	70,255
308,749	0,652	141,133	70,261
309,764	0,819	141,107	70,320
310,779	0,499	140,984	70,103
311,793	0,474	140,750	69,969
312,808	0,535	140,626	69,929
313,822	0,841	140,669	70,087
314,837	0,637	140,519	69,911
315,852	0,683	140,591	69,962
316,866	0,439	140,423	69,759
317,881	0,699	140,338	69,831
318,895	0,381	140,179	69,598
319,910	0,688	140,145	69,717
320,925	0,987	140,002	69,778
321,939	0,389	139,942	69,465
322,954	0,440	139,922	69,473
323,968	0,797	139,820	69,581
324,983	0,563	139,690	69,402
325,997	0,780	139,607	69,455
327,012	0,925	139,441	69,433
328,027	0,620	139,346	69,239
329,041	0,421	139,332	69,134
330,056	0,797	139,213	69,242
331,070	1,027	139,131	69,301
332,085	0,810	138,988	69,124
333,100	1,194	138,887	69,244
334,114	1,118	138,813	69,166
335,129	1,128	138,680	69,098
336,143	0,731	138,653	68,897
337,158	1,023	138,501	68,949
338,173	0,990	138,488	68,921
339,187	1,103	138,275	68,860
340,202	1,135	138,281	68,872
341,216	0,845	138,253	68,719
342,231	0,909	138,113	68,673
343,246	1,165	138,093	68,773
344,260	0,924	138,020	68,621
345,275	0,963	137,862	68,554
346,289	1,007	137,915	68,594
347,304	0,603	137,774	68,334
348,319	1,025	137,701	68,484
349,333	0,974	137,492	68,351
350,348	1,388	137,438	68,506
351,362	1,410	137,200	68,391
352,377	1,075	137,229	68,247
353,392	1,240	137,143	68,274
354,406	1,003	137,115	68,146
355,421	194,768	1319,725	1394,006
356,435	153,393	1464,277	1394,513
