DTS Sentinel unit serial number:	SN410029Multiplexer serial number:	ORYXHardware model number:	OX2-SRSoftware version number:	ORYX F/W v4,00 Oryx Data Collector v3.7.2.0data status	okinstallation	B3 Nyhavnadifferential loss correction	single-endedforward channel	channel 1reverse channel	N/Adate	2023/11/28time	12:57:30forward acquisition time	300,00reverse acquisition time	0,00gamma	499,1914k internal	0,3138k external	0,3138temperature offset calibration	1,0000default loss term (dB/km)	0,3820temperature slope calibration	1,0000multiplexer offset coefficient	1,0000multiplexer slope coefficient	1,0000fibre end	0,00T internal ref (°C)	8,18T ext. ref 1 (°C)	-7,69T ext. ref 2 (°C)	-7,87length (m)	temperature (°C)	Stokes	anti-Stokes-744,400	-200,000	-0,062	-0,279
-743,385	800,000	-0,107	0,305
-742,371	116,354	-0,095	-0,086
-741,356	-200,000	-0,028	0,296
-740,342	800,000	-0,108	-0,313
-739,327	800,000	0,088	0,219
-738,312	348,446	-0,261	-0,382
-737,298	-176,720	-0,058	0,001
-736,283	800,000	-0,083	-0,263
-735,269	-200,000	-0,040	0,353
-734,254	101,533	-0,234	-0,202
-733,239	-118,466	-0,101	-0,013
-732,225	-200,000	-0,068	-0,222
-731,210	800,000	0,044	0,109
-730,196	-200,000	-0,011	-0,105
-729,181	81,621	0,065	-0,052
-728,167	-81,136	-0,052	-0,013
-727,152	800,000	-0,036	-0,112
-726,137	235,713	-0,039	0,048
-725,123	-142,378	0,066	0,005
-724,108	275,346	-0,054	-0,071
-723,094	-27,337	-0,137	-0,059
-722,079	591,567	-0,048	-0,088
-721,064	-200,000	0,014	-0,059
-720,050	-23,757	-0,073	-0,032
-719,035	-200,000	0,044	-0,151
-718,021	-55,916	-0,047	-0,015
-717,006	-200,000	-0,020	-0,108
-715,991	800,000	-0,062	-0,166
-714,977	3,296	-0,129	0,070
-713,962	198,631	0,094	0,107
-712,948	-139,641	0,083	0,006
-711,933	-27,087	-0,044	0,019
-710,918	-200,000	0,004	-0,031
-709,904	800,000	-0,035	-0,111
-708,889	171,094	0,029	-0,031
-707,875	-59,607	-0,137	0,043
-706,860	113,106	-0,106	0,095
-705,845	34,396	0,151	-0,097
-704,831	800,000	-0,058	-0,133
-703,816	348,796	-0,055	-0,081
-702,802	-200,000	-0,007	-0,070
-701,787	-37,520	0,058	-0,023
-700,772	198,946	-0,063	-0,072
-699,758	-37,550	-0,046	0,018
-698,743	-59,920	-0,057	0,018
-697,729	-92,368	-0,119	0,025
-696,714	-94,484	-0,117	0,023
-695,699	160,590	-0,154	-0,160
-694,685	-200,000	0,004	0,048
-693,670	306,993	-0,104	-0,144
-692,656	273,563	0,030	0,039
-691,641	73,493	0,056	0,044
-690,627	-113,477	-0,054	0,008
-689,612	466,125	0,019	-0,032
-688,597	37,862	-0,082	0,054
-687,583	504,335	0,051	-0,088
-686,568	-8,759	-0,139	0,069
-685,554	661,539	0,059	0,113
-684,539	800,000	-0,014	-0,031
-683,524	-200,000	0,031	-0,114
-682,510	186,090	-0,064	-0,071
-681,495	-160,127	-0,128	-0,005
-680,481	-67,185	0,047	0,014
-679,466	769,548	-0,038	-0,077
-678,451	-200,000	-0,009	-0,063
-677,437	800,000	-0,062	-0,147
-676,422	-200,000	-0,043	-0,179
-675,408	-200,000	-0,005	0,040
-674,393	24,799	0,046	-0,028
-673,378	-200,000	0,006	-0,065
-672,364	-13,001	0,083	-0,040
-671,349	759,584	0,059	-0,120
-670,335	800,000	-0,033	-0,075
-669,320	-148,898	0,013	-0,001
-668,305	-66,305	-0,075	-0,022
-667,291	73,583	-0,083	0,065
-666,276	800,000	-0,026	-0,079
-665,262	292,527	-0,076	-0,103
-664,247	70,416	-0,049	-0,037
-663,232	-200,000	-0,002	-0,015
-662,218	10,860	0,069	0,039
-661,203	-60,803	0,095	-0,030
-660,189	81,926	0,126	0,101
-659,174	-55,643	-0,041	-0,013
-658,159	-200,000	0,002	0,009
-657,145	751,981	-0,049	0,098
-656,130	226,701	0,076	-0,092
-655,116	75,294	0,043	-0,033
-654,101	184,544	0,021	0,023
-653,086	-200,000	-0,146	0,000
-652,072	788,908	-0,040	-0,081
-651,057	136,914	-0,041	-0,039
-650,043	-33,966	0,087	0,035
-649,028	800,000	-0,013	0,033
-648,014	-200,000	0,000	0,055
-646,999	-200,000	0,029	-0,111
-645,984	213,367	-0,030	0,035
-644,970	254,341	0,054	0,068
-643,955	-42,156	-0,065	0,025
-642,941	380,889	0,030	-0,045
-641,926	630,869	-0,057	-0,107
-640,911	-160,776	0,062	0,002
-639,897	253,774	0,026	0,032
-638,882	-155,033	0,068	-0,003
-637,868	6,232	0,028	0,015
-636,853	148,450	-0,049	-0,049
-635,838	-49,595	-0,141	-0,049
-634,824	-200,000	0,020	-0,124
-633,809	-200,000	-0,004	-0,126
-632,795	23,287	0,024	0,015
-631,780	-96,086	-0,058	-0,011
-630,765	-191,434	-0,150	0,001
-629,751	-123,124	-0,054	0,006
-628,736	115,844	-0,047	-0,042
-627,722	800,000	0,016	-0,040
-626,707	-200,000	-0,000	-0,054
-625,692	-61,316	0,064	-0,020
-624,678	-118,521	-0,089	-0,011
-623,663	58,886	0,080	0,058
-622,649	-200,000	0,000	-0,020
-621,634	800,000	-0,020	-0,060
-620,619	-19,052	-0,112	-0,051
-619,605	-199,327	-0,032	-0,000
-618,590	38,452	-0,118	0,077
-617,576	-113,374	0,015	0,002
-616,561	679,291	0,048	-0,092
-615,546	-18,703	-0,123	-0,056
-614,532	197,755	0,029	0,033
-613,517	134,348	0,035	-0,033
-612,503	29,437	-0,093	0,058
-611,488	-100,907	-0,074	-0,013
-610,474	-5,138	0,043	0,022
-609,459	-82,082	-0,100	0,024
-608,444	586,320	0,033	0,061
-607,430	-89,932	-0,131	-0,028
-606,415	-93,473	-0,119	0,024
-605,401	264,353	0,018	0,024
-604,386	578,162	-0,029	-0,053
-603,371	800,000	-0,038	-0,092
-602,357	-200,000	-0,026	-0,099
-601,342	-117,901	-0,137	-0,018
-600,328	-31,042	-0,138	0,057
-599,313	800,000	-0,062	-0,140
-598,298	-74,120	0,081	0,022
-597,284	35,435	0,047	0,031
-596,269	19,213	0,177	0,105
-595,255	-200,000	0,014	0,100
-594,240	627,208	0,016	-0,030
-593,225	-78,599	-0,108	-0,027
-592,211	-33,384	-0,030	0,012
-591,196	800,000	-0,043	0,124
-590,182	-61,312	-0,037	0,011
-589,167	-100,166	0,075	-0,014
-588,152	-95,035	-0,018	-0,004
-587,138	-200,000	0,006	0,056
-586,123	-200,000	0,020	-0,069
-585,109	-17,764	-0,105	-0,049
-584,094	140,613	-0,079	-0,077
-583,079	399,212	0,121	-0,187
-582,065	44,725	0,076	-0,051
-581,050	711,648	0,010	0,020
-580,036	161,452	0,079	-0,081
-579,021	-200,000	-0,012	-0,066
-578,006	410,607	-0,070	-0,110
-576,992	800,000	0,025	-0,073
-575,977	-200,000	-0,030	0,116
-574,963	135,900	0,074	0,071
-573,948	800,000	0,042	-0,110
-572,934	296,518	0,027	0,037
-571,919	79,685	0,056	-0,044
-570,904	-78,853	-0,172	-0,043
-569,890	800,000	0,050	-0,111
-568,875	-91,475	-0,016	-0,003
-567,861	-131,530	0,061	-0,006
-566,846	-200,000	0,012	-0,120
-565,831	-200,000	-0,006	-0,081
-564,817	-200,000	-0,006	-0,181
-563,802	-86,480	-0,084	-0,019
-562,788	-71,569	-0,137	-0,038
-561,773	-69,186	0,105	0,029
-560,758	490,548	0,076	0,129
-559,744	-200,000	0,002	-0,057
-558,729	43,869	-0,085	0,058
-557,715	32,455	0,022	-0,014
-556,700	-26,831	-0,104	-0,045
-555,685	733,910	-0,012	0,024
-554,671	37,566	-0,047	0,030
-553,656	-200,000	0,045	0,183
-552,642	118,140	0,116	0,105
-551,627	-200,000	-0,004	-0,127
-550,612	-20,609	-0,067	0,030
-549,598	481,780	-0,042	-0,071
-548,583	-18,127	-0,030	-0,014
-547,569	238,062	0,120	-0,147
-546,554	-160,632	0,106	0,004
-545,539	58,766	0,076	0,055
-544,525	800,000	-0,042	0,130
-543,510	-200,000	-0,004	-0,079
-542,496	-43,230	0,078	-0,029
-541,481	-42,767	0,015	-0,006
-540,466	162,152	0,077	-0,080
-539,452	800,000	-0,042	0,098
-538,437	-64,495	0,076	0,022
-537,423	718,077	0,023	0,045
-536,408	-200,000	-0,012	0,092
-535,393	185,407	0,077	-0,085
-534,379	800,000	0,018	-0,047
-533,364	-55,766	-0,090	-0,029
-532,350	-9,132	0,089	-0,044
-531,335	188,676	0,075	-0,083
-530,321	-200,000	-0,004	-0,097
-529,306	49,295	-0,034	0,024
-528,291	-179,824	-0,071	-0,001
-527,277	-145,369	-0,059	-0,004
-526,262	-94,382	-0,129	0,026
-525,248	159,307	0,093	0,095
-524,233	800,000	-0,029	0,075
-523,218	273,702	-0,085	0,111
-522,204	-200,000	0,012	0,060
-521,189	-67,925	-0,049	0,014
-520,175	171,210	-0,088	-0,093
-519,160	-37,832	0,097	-0,038
-518,145	409,038	0,051	0,080
-517,131	800,000	0,027	0,073
-516,116	27,900	0,150	0,093
-515,102	32,795	-0,083	-0,053
-514,087	5,832	-0,046	-0,025
-513,072	152,212	0,066	-0,066
-512,058	265,256	-0,033	0,042
-511,043	-200,000	-0,017	-0,055
-510,029	-200,000	0,011	-0,062
-509,014	-200,000	0,002	0,030
-507,999	-140,531	-0,063	0,005
-506,985	626,961	0,020	-0,037
-505,970	69,413	-0,086	-0,065
-504,956	-104,622	-0,104	-0,017
-503,941	132,724	-0,036	-0,034
-502,926	-69,706	-0,114	0,032
-501,912	-54,193	0,057	0,019
-500,897	257,712	0,110	0,140
-499,883	626,322	-0,022	-0,041
-498,868	-100,953	-0,112	0,020
-497,853	-94,729	0,118	-0,023
-496,839	-54,836	-0,132	0,044
-495,824	800,000	-0,002	-0,005
-494,810	800,000	-0,054	0,137
-493,795	-108,636	0,045	0,007
-492,781	-72,036	-0,059	0,016
-491,766	-91,017	-0,017	0,004
-490,751	252,582	-0,087	-0,109
-489,737	360,795	0,080	0,118
-488,722	18,952	0,135	0,079
-487,708	800,000	0,068	0,166
-486,693	800,000	0,036	0,099
-485,678	-200,000	-0,006	0,080
-484,664	36,757	0,020	0,013
-483,649	-119,833	-0,064	0,008
-482,635	-165,663	-0,093	-0,003
-481,620	-129,394	0,185	-0,019
-480,605	800,000	0,064	0,156
-479,591	-200,000	-0,013	0,080
-478,576	-37,386	-0,079	0,031
-477,562	200,735	-0,073	-0,083
-476,547	3,719	-0,071	-0,038
-475,532	-42,234	-0,104	-0,039
-474,518	-200,000	-0,004	-0,020
-473,503	-145,382	0,006	0,000
-472,489	-200,000	-0,002	0,033
-471,474	402,491	0,021	-0,032
-470,459	-68,219	-0,118	0,033
-469,445	-122,683	0,114	0,013
-468,430	-66,189	0,114	-0,033
-467,416	56,163	-0,035	0,025
-466,401	-37,736	-0,075	-0,029
-465,386	-95,274	0,063	-0,012
-464,372	-146,621	-0,174	0,011
-463,357	-103,419	-0,037	0,006
-462,343	263,058	0,040	0,051
-461,328	-28,956	-0,036	-0,015
-460,313	-200,000	-0,002	0,027
-459,299	-200,000	0,018	0,087
-458,284	12,821	0,109	0,061
-457,270	-46,864	0,176	0,063
-456,255	-124,943	-0,085	-0,009
-455,241	370,845	-0,088	0,132
-454,226	-100,977	-0,074	0,013
-453,211	-77,563	0,087	-0,022
-452,197	-200,000	-0,017	0,056
-451,182	-200,000	0,013	-0,090
-450,168	156,857	0,065	0,066
-449,153	60,744	0,023	-0,017
-448,138	146,057	-0,185	-0,182
-447,124	-200,000	0,002	-0,080
-446,109	345,508	0,072	0,104
-445,095	-170,710	-0,039	0,001
-444,080	-104,195	0,106	-0,018
-443,065	800,000	-0,014	-0,035
-442,051	800,000	-0,029	-0,066
-441,036	800,000	-0,060	-0,175
-440,022	-41,117	-0,139	-0,052
-439,007	198,348	0,049	0,055
-437,992	-135,899	0,108	0,009
-436,978	-59,534	0,028	0,009
-435,963	800,000	0,034	0,074
-434,949	94,055	0,082	-0,068
-433,934	297,646	-0,086	-0,116
-432,919	-33,520	-0,085	0,034
-431,905	62,000	0,065	0,048
-430,890	222,123	0,120	-0,142
-429,876	656,924	0,076	-0,144
-428,861	800,000	0,007	0,024
-427,846	-200,000	-0,004	-0,053
-426,832	-115,690	-0,099	0,013
-425,817	-200,000	-0,020	0,069
-424,803	17,171	-0,030	-0,017
-423,788	800,000	-0,022	-0,046
-422,773	-72,621	0,117	-0,031
-421,759	-29,967	0,049	-0,020
-420,744	39,278	0,068	0,045
-419,730	-200,000	-0,027	-0,105
-418,715	-6,284	-0,043	0,022
-417,701	-155,850	0,090	0,004
-416,686	800,000	-0,048	0,108
-415,671	74,361	0,053	-0,041
-414,657	358,605	0,056	0,082
-413,642	82,943	-0,032	-0,026
-412,628	-113,640	-0,049	-0,007
-411,613	-34,188	0,092	0,037
-410,598	162,832	0,060	0,061
-409,584	308,399	0,028	-0,039
-408,569	200,685	0,039	-0,044
-407,555	214,110	0,058	0,068
-406,540	-64,456	0,086	0,025
-405,525	-4,097	-0,098	-0,049
-404,511	-125,681	-0,061	0,007
-403,496	-200,000	-0,002	0,064
-402,482	800,000	0,017	0,040
-401,467	800,000	-0,007	0,023
-400,452	-200,000	-0,008	0,068
-399,438	293,515	0,022	0,029
-398,423	-28,823	0,059	-0,025
-397,409	-200,000	-0,008	-0,046
-396,394	-31,180	0,070	-0,029
-395,379	-200,000	-0,018	-0,133
-394,365	800,000	0,032	0,090
-393,350	344,497	0,023	0,034
-392,336	24,266	0,128	0,077
-391,321	-75,831	0,052	-0,013
-390,306	-200,000	-0,018	-0,147
-389,292	-82,952	0,141	-0,033
-388,277	-200,000	-0,004	-0,042
-387,263	-95,224	-0,164	0,032
-386,248	51,336	0,139	0,096
-385,233	129,381	0,060	0,056
-384,219	-200,000	-0,020	-0,128
-383,204	-39,575	-0,118	-0,045
-382,190	448,672	-0,102	-0,165
-381,175	800,000	-0,046	-0,115
-380,160	53,651	0,088	0,062
-379,146	74,364	0,050	0,038
-378,131	102,488	0,035	0,030
-377,117	-96,389	0,073	0,014
-376,102	275,864	-0,057	-0,074
-375,088	-117,270	0,030	-0,004
-374,073	-200,000	-0,001	0,091
-373,058	-200,000	0,015	0,155
-372,044	65,942	0,152	0,113
-371,029	-73,172	-0,170	0,045
-370,015	131,979	-0,099	0,093
-369,000	-200,000	0,005	-0,051
-367,985	800,000	-0,007	-0,022
-366,971	-87,922	-0,092	-0,020
-365,956	-200,000	0,009	-0,183
-364,942	800,000	-0,045	0,130
-363,927	-200,000	-0,008	0,071
-362,912	-48,345	0,047	-0,017
-361,898	800,000	-0,046	0,141
-360,883	-200,000	-0,017	-0,091
-359,869	-81,843	0,115	-0,027
-358,854	-49,268	0,120	0,042
-357,839	800,000	-0,020	0,048
-356,825	221,745	-0,091	0,107
-355,810	-200,000	0,035	0,114
-354,796	-200,000	0,037	0,136
-353,781	80,122	-0,033	-0,026
-352,766	122,094	-0,046	-0,042
-351,752	-35,626	0,051	-0,020
-350,737	-77,590	0,156	-0,039
-349,723	55,287	-0,066	-0,047
-348,708	-125,528	-0,238	0,026
-347,693	800,000	0,030	-0,087
-346,679	-127,787	-0,113	0,012
-345,664	174,848	-0,036	0,039
-344,650	-200,000	-0,010	0,150
-343,635	238,031	0,029	-0,035
-342,620	-103,512	-0,016	0,003
-341,606	-200,000	-0,005	0,078
-340,591	800,000	-0,059	0,144
-339,577	401,245	0,033	0,051
-338,562	800,000	-0,040	-0,114
-337,548	-50,012	-0,045	0,015
-336,533	-200,000	0,009	0,045
-335,518	593,953	0,056	0,102
-334,504	-200,000	-0,014	0,098
-333,489	173,461	0,009	-0,009
-332,475	800,000	-0,066	-0,135
-331,460	8,274	0,020	-0,011
-330,445	549,641	0,046	0,081
-329,431	-200,000	0,032	0,170
-328,416	-90,010	0,043	-0,009
-327,402	-44,103	0,196	0,071
-326,387	76,834	-0,037	-0,028
-325,372	800,000	-0,039	-0,089
-324,358	101,986	-0,021	-0,018
-323,343	-117,664	0,054	-0,007
-322,329	26,276	0,006	0,004
-321,314	197,098	-0,024	0,027
-320,299	-28,747	-0,062	-0,026
-319,285	-162,246	0,124	0,004
-318,270	642,748	-0,044	0,083
-317,256	-108,499	-0,099	0,015
-316,241	-83,532	-0,034	0,008
-315,226	-200,000	0,014	-0,124
-314,212	-103,367	0,110	0,019
-313,197	308,882	0,059	0,081
-312,183	177,874	0,066	-0,070
-311,168	52,482	-0,093	-0,064
-310,153	49,230	-0,093	-0,063
-309,139	166,512	0,032	-0,033
-308,124	-200,000	-0,005	-0,059
-307,110	-44,392	0,066	0,024
-306,095	-200,000	-0,023	0,103
-305,080	0,197	0,073	0,038
-304,066	-88,753	0,119	0,026
-303,051	-81,581	-0,118	0,028
-302,037	-84,014	0,115	-0,027
-301,022	774,243	-0,035	-0,071
-300,008	119,978	0,082	0,074
-298,993	-42,812	-0,069	-0,026
-297,978	288,535	0,111	0,146
-296,964	-58,117	0,050	0,016
-295,949	-81,199	-0,178	-0,043
-294,935	-200,000	0,017	-0,073
-293,920	-200,000	0,007	-0,024
-292,905	-77,590	-0,089	-0,022
-291,891	-150,397	0,084	0,005
-290,876	368,774	-0,061	0,090
-289,862	-200,000	-0,026	-0,131
-288,847	-131,599	-0,073	0,007
-287,832	424,189	0,067	-0,105
-286,818	-89,233	-0,146	-0,031
-285,803	40,120	0,146	0,095
-284,789	61,246	0,059	0,043
-283,774	289,120	-0,054	-0,072
-282,759	28,457	-0,058	-0,036
-281,745	196,656	0,048	-0,053
-280,730	-200,000	0,018	-0,078
-279,716	-200,000	-0,002	0,103
-278,701	-200,000	0,009	-0,108
-277,686	-3,538	0,090	-0,045
-276,672	-200,000	0,002	0,019
-275,657	213,968	-0,080	0,092
-274,643	41,912	-0,090	0,059
-273,628	-200,000	0,011	-0,037
-272,613	2,380	0,040	0,021
-271,599	18,250	-0,109	-0,063
-270,584	130,355	0,016	-0,015
-269,570	-89,973	0,287	-0,061
-268,555	-76,878	-0,109	-0,028
-267,540	800,000	0,027	-0,072
-266,526	-7,978	-0,068	0,033
-265,511	120,145	-0,072	0,065
-264,497	168,140	0,151	-0,157
-263,482	296,925	-0,043	-0,058
-262,467	30,421	0,116	0,072
-261,453	-200,000	0,006	0,023
-260,438	225,639	-0,020	-0,023
-259,424	148,275	0,075	-0,073
-258,409	258,728	0,012	-0,015
-257,395	-200,000	-0,059	0,212
-256,380	423,840	-0,038	-0,060
-255,365	-66,454	0,067	-0,019
-254,351	-200,000	-0,009	0,070
-253,336	-127,902	0,021	0,002
-252,322	-159,731	-0,027	0,001
-251,307	-200,000	-0,019	0,132
-250,292	-139,106	0,076	0,006
-249,278	800,000	0,013	0,032
-248,263	-200,000	0,015	0,115
-247,249	800,000	-0,014	0,044
-246,234	433,781	-0,029	-0,046
-245,219	490,609	0,049	0,082
-244,205	51,175	-0,076	-0,052
-243,190	-198,490	-0,132	-0,001
-242,176	157,372	0,072	0,073
-241,161	-200,000	-0,005	0,059
-240,146	-200,000	-0,002	-0,056
-239,132	-115,829	0,115	-0,015
-238,117	-21,619	-0,082	0,036
-237,103	37,584	-0,094	-0,061
-236,088	-4,558	0,105	-0,053
-235,073	800,000	0,028	0,085
-234,059	124,001	0,074	-0,067
-233,044	800,000	0,038	-0,090
-232,030	71,342	0,047	-0,036
-231,015	4,563	0,028	0,015
-230,000	51,468	0,038	-0,026
-228,986	-200,000	-0,003	0,067
-227,971	534,421	-0,020	0,035
-226,957	268,668	-0,025	0,032
-225,942	-67,948	0,050	0,014
-224,927	800,000	0,017	0,044
-223,913	254,592	-0,092	-0,115
-222,898	357,258	-0,099	-0,144
-221,884	178,922	-0,025	-0,027
-220,869	-200,000	-0,001	-0,060
-219,855	-200,000	0,017	0,064
-218,840	67,353	0,171	0,127
-217,825	-176,716	-0,161	-0,003
-216,811	227,693	0,060	-0,071
-215,796	242,424	-0,126	0,154
-214,782	-70,407	0,139	0,038
-213,767	-158,346	-0,093	0,004
-212,752	-200,000	0,003	-0,093
-211,738	-200,000	0,015	0,142
-210,723	-145,868	0,021	0,001
-209,709	310,090	0,039	0,053
-208,694	440,514	-0,044	0,071
-207,679	-76,855	-0,125	0,032
-206,665	-95,453	0,222	-0,043
-205,650	800,000	0,005	-0,012
-204,636	800,000	0,014	0,033
-203,621	81,899	-0,035	0,028
-202,606	-200,000	0,019	-0,082
-201,592	800,000	-0,040	-0,084
-200,577	-200,000	0,015	0,153
-199,563	-200,000	-0,004	-0,076
-198,548	88,104	-0,126	0,101
-197,533	-63,345	0,139	0,041
-196,519	174,676	0,039	0,041
-195,504	-44,365	0,049	-0,018
-194,490	-200,000	-0,015	-0,090
-193,475	-20,104	-0,075	0,034
-192,460	-27,718	-0,049	0,021
-191,446	378,032	0,045	0,067
-190,431	-200,000	0,003	0,060
-189,417	-34,184	0,029	-0,012
-188,402	26,570	0,019	-0,011
-187,387	-200,000	0,002	-0,016
-186,373	372,117	0,087	0,128
-185,358	663,607	-0,052	-0,098
-184,344	331,048	0,041	-0,058
-183,329	-200,000	0,007	0,036
-182,315	105,126	-0,043	0,037
-181,300	800,000	0,044	-0,096
-180,285	286,018	-0,139	-0,182
-179,271	167,212	0,046	-0,047
-178,256	600,157	0,104	-0,188
-177,242	-200,000	0,005	0,113
-176,227	-200,000	0,002	0,075
-175,212	-200,000	-0,000	0,108
-174,198	413,796	-0,029	0,045
-173,183	-16,994	-0,075	0,034
-172,169	-200,000	0,013	-0,044
-171,154	141,264	0,076	-0,073
-170,139	542,283	0,052	-0,090
-169,125	800,000	0,029	0,073
-168,110	-200,000	-0,004	-0,122
-167,096	491,093	0,041	-0,069
-166,081	240,177	-0,029	-0,035
-165,066	-11,361	-0,037	0,017
-164,052	65,591	-0,039	0,028
-163,037	800,000	0,023	0,067
-162,023	294,959	-0,122	0,163
-161,008	-77,661	0,007	0,002
-159,993	280,308	-0,031	0,040
-158,979	277,549	0,042	-0,055
-157,964	37,480	0,036	0,023
-156,950	-2,912	-0,067	-0,034
-155,935	800,000	0,042	0,112
-154,920	-200,000	-0,011	-0,038
-153,906	-200,000	-0,013	-0,196
-152,891	249,187	0,064	-0,078
-151,877	800,000	-0,027	-0,060
-150,862	269,552	-0,116	-0,148
-149,847	219,468	-0,072	-0,083
-148,833	438,539	-0,032	-0,051
-147,818	-66,149	0,104	0,030
-146,804	27,307	0,045	0,027
-145,789	-200,000	0,032	-0,112
-144,775	39,688	-0,127	0,082
-143,760	169,134	-0,081	-0,084
-142,745	800,000	-0,037	-0,114
-141,731	800,000	-0,057	0,151
-140,716	-116,322	-0,105	-0,014
-139,702	-108,100	0,072	-0,011
-138,687	-200,000	0,001	0,043
-137,672	-24,711	0,080	-0,034
-136,658	800,000	-0,046	-0,131
-135,643	180,320	-0,104	0,110
-134,629	800,000	0,020	-0,048
-133,614	-184,443	0,095	0,001
-132,599	-60,947	0,086	-0,026
-131,585	349,562	0,087	0,125
-130,570	-142,869	0,034	-0,002
-129,556	555,347	0,017	0,030
-128,541	-200,000	-0,026	-0,093
-127,526	800,000	0,049	-0,098
-126,512	317,678	0,081	0,112
-125,497	-200,000	0,008	0,107
-124,483	800,000	-0,037	0,096
-123,468	138,731	0,083	0,079
-122,453	-52,668	-0,170	-0,056
-121,439	-200,000	-0,005	-0,107
-120,424	163,277	-0,056	0,057
-119,410	70,892	-0,049	0,037
-118,395	741,115	0,032	0,063
-117,380	48,987	0,111	0,076
-116,366	389,679	-0,037	-0,056
-115,351	-37,564	0,102	-0,039
-114,337	76,755	-0,059	0,045
-113,322	-122,076	-0,070	-0,008
-112,307	-200,000	0,001	-0,015
-111,293	800,000	-0,019	0,054
-110,278	-41,459	-0,018	-0,006
-109,264	-200,000	0,011	-0,037
-108,249	195,941	-0,097	-0,107
-107,234	77,379	-0,116	0,089
-106,220	380,003	0,044	0,065
-105,205	-127,921	-0,061	-0,006
-104,191	-200,000	0,005	0,121
-103,176	446,084	0,076	0,121
-102,162	279,765	-0,104	0,135
-101,147	28,755	0,042	0,026
-100,132	-96,727	-0,041	0,008
-99,118	380,977	-0,061	-0,090
-98,103	-200,000	0,008	0,177
-97,089	-200,000	-0,022	0,099
-96,074	198,355	-0,043	-0,048
-95,059	64,355	0,036	0,026
-94,045	171,481	-0,093	-0,097
-93,030	294,041	0,082	-0,109
-92,016	-43,608	0,047	0,017
-91,001	800,000	0,046	0,110
-89,986	43,088	0,106	-0,070
-88,972	-8,215	0,085	0,041
-87,957	134,629	-0,066	0,062
-86,943	-15,080	-0,034	0,016
-85,928	760,187	-0,019	-0,037
-84,913	369,848	-0,064	-0,094
-83,899	-89,439	0,118	-0,025
-82,884	-200,000	0,003	-0,053
-81,870	670,592	-0,054	-0,101
-80,855	-38,375	-0,054	0,020
-79,840	-200,000	0,014	0,102
-78,826	7,592	0,082	0,044
-77,811	-200,000	-0,012	0,061
-76,797	-200,000	-0,015	0,059
-75,782	197,082	-0,022	0,024
-74,767	800,000	0,065	-0,160
-73,753	70,681	-0,040	-0,030
-72,738	-200,000	0,004	-0,018
-71,724	287,325	0,036	-0,048
-70,709	-89,861	-0,066	-0,014
-69,694	280,383	-0,048	0,062
-68,680	-142,055	0,175	-0,012
-67,665	800,000	-0,030	0,073
-66,651	-200,000	-0,009	0,104
-65,636	390,221	0,039	0,058
-64,622	-105,327	-0,106	0,017
-63,607	-200,000	0,001	-0,066
-62,592	159,788	0,023	-0,023
-61,578	-122,140	0,119	0,014
-60,563	800,000	0,057	0,114
-59,549	515,499	-0,045	0,076
-58,534	47,469	-2,149	-1,445
-57,519	361,265	-1,210	-1,757
-56,505	-200,000	-0,177	-4,276
-55,490	714,550	0,951	1,830
-54,476	800,000	5,104	11,194
-53,461	-200,000	22,198	345,016
-52,446	800,000	753,534	2300,018
-51,432	509,646	1638,664	2761,480
-50,417	67,160	1571,669	1155,825
-49,403	18,864	1159,930	669,244
-48,388	11,408	889,077	490,481
-47,373	26,021	857,155	515,155
-46,359	16,991	843,116	481,054
-45,344	8,345	839,021	454,059
-44,330	8,106	837,273	452,413
-43,315	8,083	836,030	451,657
-42,300	8,102	834,745	451,000
-41,286	8,221	833,548	450,674
-40,271	8,099	832,827	449,919
-39,257	8,188	831,616	449,499
-38,242	8,241	830,697	449,136
-37,227	8,209	829,969	448,632
-36,213	8,148	829,162	448,006
-35,198	8,112	828,373	447,462
-34,184	8,255	827,615	447,438
-33,169	8,167	826,610	446,628
-32,154	8,306	825,922	446,631
-31,140	8,240	824,735	445,784
-30,125	8,309	824,016	445,572
-29,111	8,129	823,582	444,814
-28,096	8,144	823,301	444,689
-27,082	8,240	822,252	444,374
-26,067	8,211	821,387	443,807
-25,052	8,220	820,562	443,368
-24,038	8,176	820,116	442,985
-23,023	8,130	819,468	442,490
-22,009	8,274	818,797	442,511
-20,994	8,217	818,305	442,070
-19,979	8,271	817,557	441,799
-18,965	8,251	817,015	441,433
-17,950	8,294	816,651	441,337
-16,936	8,149	815,882	440,503
-15,921	8,159	815,306	440,201
-14,906	8,119	814,537	439,658
-13,892	8,142	813,976	439,401
-12,877	8,121	813,626	439,138
-11,863	8,105	812,939	438,705
-10,848	8,048	812,515	438,301
-9,833	8,206	812,135	438,515
-8,819	8,096	811,428	437,812
-7,804	8,215	810,667	437,713
-6,790	8,154	810,118	437,230
-5,775	8,161	809,995	437,166
-4,760	8,151	809,203	436,694
-3,746	8,047	809,008	436,285
-2,731	7,901	808,329	435,498
-1,717	7,857	808,067	435,221
-0,702	7,898	807,283	434,892
0,313	8,003	804,456	434,312
1,327	11,612	787,896	435,015
2,342	20,169	641,829	372,928
3,356	14,328	353,309	198,292
4,371	-15,591	238,027	109,178
5,386	-18,863	224,072	100,236
6,400	-19,033	219,847	98,209
7,415	-17,764	217,874	98,273
8,429	-18,801	216,632	96,929
9,444	-18,852	215,695	96,463
10,459	-19,136	215,436	96,128
11,473	-19,133	214,934	95,897
12,488	-18,879	214,441	95,857
13,502	-19,176	214,085	95,470
14,517	-18,865	213,544	95,449
15,531	-19,189	213,141	95,022
16,546	-18,855	212,863	95,134
17,561	-19,034	212,351	94,767
18,575	-18,901	212,323	94,843
19,590	-19,210	211,920	94,429
20,604	-18,681	211,612	94,669
21,619	-19,184	211,318	94,163
22,634	-19,113	211,087	94,102
23,648	-18,948	210,755	94,066
24,663	-19,045	210,573	93,906
25,677	-19,145	210,334	93,719
26,692	-18,833	209,946	93,763
27,707	-19,033	209,902	93,590
28,721	-19,126	209,521	93,345
29,736	-18,981	209,451	93,410
30,750	-19,072	209,184	93,217
31,765	-19,009	208,983	93,165
32,780	-19,132	208,878	93,021
33,794	-19,023	208,620	92,977
34,809	-18,837	208,217	92,922
35,823	-19,098	208,058	92,656
36,838	-19,298	207,951	92,457
37,853	-19,162	207,649	92,411
38,867	-18,998	207,496	92,452
39,882	-18,972	207,365	92,404
40,896	-18,998	207,098	92,259
41,911	-18,719	206,905	92,363
42,926	-18,723	206,579	92,206
43,940	-19,009	206,614	92,010
44,955	-18,920	206,271	91,912
45,969	-18,683	206,025	91,962
46,984	-18,837	205,983	91,827
47,999	-18,963	205,854	91,672
49,013	-19,019	205,638	91,527
50,028	-18,877	205,433	91,529
51,042	-18,784	205,209	91,486
52,057	-18,779	205,069	91,419
53,071	-18,943	204,931	91,234
54,086	-18,925	204,738	91,153
55,101	-18,908	204,574	91,083
56,115	-18,814	204,306	91,022
57,130	-18,972	204,029	90,779
58,144	-19,065	203,832	90,619
59,159	-18,889	203,604	90,632
60,174	-18,976	203,488	90,512
61,188	-18,720	203,209	90,558
62,203	-18,795	203,132	90,464
63,217	-18,895	202,942	90,301
64,232	-18,824	202,696	90,233
65,247	-18,983	202,558	90,053
66,261	-18,909	202,457	90,052
67,276	-18,998	202,252	89,890
68,290	-18,809	201,968	89,887
69,305	-18,836	201,909	89,834
70,320	-18,697	201,688	89,825
71,334	-18,827	201,323	89,564
72,349	-19,058	201,325	89,397
73,363	-19,111	201,097	89,251
74,378	-19,103	200,822	89,127
75,393	-18,890	200,674	89,200
76,407	-18,785	200,557	89,213
77,422	-18,960	200,507	89,061
78,436	-18,798	200,162	89,012
79,451	-18,829	199,996	88,909
80,466	-18,848	199,768	88,787
81,480	-19,010	199,639	88,610
82,495	-19,158	199,628	88,496
83,509	-18,815	199,307	88,580
84,524	-18,719	199,239	88,607
85,539	-18,621	199,079	88,595
86,553	-18,784	198,885	88,390
87,568	-18,810	198,693	88,280
88,582	-18,832	198,551	88,194
89,597	-18,774	198,295	88,111
90,611	-18,824	198,314	88,078
91,626	-18,891	198,115	87,936
92,641	-18,946	197,991	87,836
93,655	-18,942	197,809	87,750
94,670	-18,720	197,440	87,729
95,684	-18,828	197,411	87,635
96,699	-18,926	197,204	87,469
97,714	-19,028	197,207	87,393
98,728	-18,817	197,000	87,436
99,743	-18,754	196,717	87,346
100,757	-18,866	196,756	87,279
101,772	-18,771	196,380	87,169
102,787	-18,719	196,280	87,152
103,801	-18,729	196,025	87,024
104,816	-18,833	195,918	86,899
105,830	-18,962	195,767	86,738
106,845	-18,724	195,567	86,801
107,860	-18,720	195,493	86,763
108,874	-18,898	195,391	86,591
109,889	-18,981	195,024	86,365
110,903	-19,030	194,976	86,304
111,918	-18,919	194,869	86,322
112,933	-18,764	194,774	86,376
113,947	-18,761	194,440	86,222
114,962	-18,735	194,317	86,177
115,976	-18,733	194,137	86,091
116,991	-18,617	194,065	86,128
118,006	-18,993	194,056	85,867
119,020	-18,869	193,729	85,797
120,035	-18,705	193,635	85,856
121,049	-18,831	193,526	85,717
122,064	-18,811	193,541	85,729
123,079	-19,003	193,225	85,455
124,093	-19,027	193,035	85,348
125,108	-18,893	192,905	85,371
126,122	-18,705	192,696	85,394
127,137	-18,713	192,695	85,381
128,151	-18,552	192,374	85,337
129,166	-18,708	192,178	85,140
130,181	-18,730	192,115	85,090
131,195	-18,723	191,901	84,992
132,210	-18,766	191,795	84,910
133,224	-18,868	191,599	84,748
134,239	-18,773	191,419	84,723
135,254	-18,802	191,325	84,655
136,268	-18,938	191,080	84,450
137,283	-18,559	190,955	84,635
138,297	-18,652	190,777	84,488
139,312	-18,763	190,445	84,261
140,327	-19,263	190,374	83,897
141,341	-19,045	190,114	83,917
142,356	-18,913	190,105	83,991
143,370	-18,103	190,353	84,619
144,385	-10,656	192,323	90,369
145,400	-4,172	194,024	95,436
146,414	-2,810	194,225	96,424
147,429	-2,656	194,095	96,452
148,443	-2,541	193,883	96,414
149,458	-2,195	193,911	96,646
150,473	-1,837	193,726	96,780
151,487	-1,972	193,703	96,672
152,502	-1,775	193,576	96,729
153,516	-1,560	193,278	96,711
154,531	-1,669	193,191	96,588
155,546	-1,551	193,066	96,594
156,560	-1,856	193,017	96,362
157,575	-1,898	193,048	96,341
158,589	-1,844	192,695	96,192
159,604	-1,800	192,555	96,142
160,619	-1,573	192,504	96,256
161,633	-1,757	192,391	96,071
162,648	-1,387	192,171	96,193
163,662	-1,506	192,154	96,099
164,677	-1,427	191,954	96,041
165,692	-1,413	191,820	95,974
166,706	-1,376	191,841	96,001
167,721	-1,494	191,596	95,793
168,735	-1,371	191,403	95,768
169,750	-1,397	191,485	95,783
170,764	-1,434	191,290	95,653
171,779	-1,174	191,060	95,698
172,794	-1,304	190,986	95,568
173,808	-1,005	190,733	95,626
174,823	-1,468	190,807	95,355
175,837	-1,337	190,627	95,342
176,852	-1,246	190,409	95,283
177,867	-1,471	190,345	95,097
178,881	-1,367	190,117	95,042
179,896	-1,345	190,149	95,064
180,910	-1,342	189,924	94,945
181,925	-1,165	189,755	94,965
182,940	-1,329	189,600	94,774
183,954	-1,281	189,494	94,743
184,969	-1,176	189,374	94,742
185,983	-1,106	189,306	94,744
186,998	-0,902	189,059	94,742
188,013	-1,223	188,989	94,494
189,027	-0,845	188,844	94,655
190,042	-1,089	188,672	94,404
191,056	-0,987	188,556	94,402
192,071	-1,001	188,429	94,322
193,086	-1,331	188,488	94,133
194,100	-1,123	188,209	94,117
195,115	-0,855	187,958	94,153
196,129	-1,020	187,814	93,968
197,144	-1,032	187,864	93,978
198,159	-1,047	187,611	93,833
199,173	-1,084	187,534	93,763
200,188	-1,006	187,331	93,702
201,202	-1,024	187,227	93,630
202,217	-0,841	187,025	93,636
203,232	-0,906	186,925	93,537
204,246	-1,101	186,879	93,383
205,261	-0,832	186,731	93,470
206,275	-1,033	186,485	93,212
207,290	-0,759	186,279	93,273
208,304	-0,841	186,360	93,253
209,319	-0,785	186,277	93,239
210,334	-0,976	186,130	93,037
211,348	-1,015	185,986	92,932
212,363	-1,048	185,747	92,784
213,377	-0,707	185,574	92,903
214,392	-0,916	185,696	92,824
215,407	-0,866	185,426	92,712
216,421	-1,054	185,449	92,599
217,436	-0,809	185,082	92,559
218,450	-0,914	184,991	92,440
219,465	-1,125	184,955	92,283
220,480	-0,704	184,853	92,486
221,494	-0,804	184,655	92,316
222,509	-0,767	184,614	92,311
223,523	-0,821	184,428	92,175
224,538	-0,906	184,254	92,028
225,553	-0,899	184,165	91,980
226,567	-0,928	184,165	91,953
227,582	-0,921	183,970	91,852
228,596	-1,057	184,001	91,775
229,611	-0,973	183,706	91,672
230,626	-0,673	183,572	91,781
231,640	-0,885	183,456	91,585
232,655	-0,691	183,362	91,650
233,669	-0,736	183,196	91,531
234,684	-0,851	183,069	91,388
235,699	-0,767	182,935	91,365
236,713	-1,053	183,030	91,228
237,728	-0,606	182,791	91,375
238,742	-0,603	182,687	91,317
239,757	-0,875	182,535	91,066
240,772	-0,755	182,420	91,074
241,786	-0,721	182,275	91,014
242,801	-0,844	182,198	90,893
243,815	-0,689	182,085	90,923
244,830	-0,278	181,918	91,082
245,844	-0,406	181,798	90,936
246,859	-0,980	181,627	90,492
247,874	-0,422	181,466	90,744
248,888	-0,577	181,387	90,602
249,903	-0,664	181,376	90,536
250,917	-0,431	181,137	90,550
251,932	-0,656	181,128	90,401
252,947	-0,432	180,947	90,438
253,961	-0,714	180,924	90,248
254,976	-0,485	180,808	90,320
255,990	-0,696	180,606	90,084
257,005	-0,525	180,387	90,070
258,020	-0,361	180,240	90,088
259,034	-0,459	180,234	90,017
260,049	-0,621	180,143	89,866
261,063	-0,432	179,936	89,868
262,078	-0,365	179,782	89,824
263,093	-0,688	179,821	89,641
264,107	-0,295	179,558	89,738
265,122	-0,443	179,570	89,648
266,136	-0,281	179,438	89,670
267,151	-0,381	179,294	89,531
268,166	-0,130	178,972	89,512
269,180	-0,411	178,975	89,337
270,195	-0,399	178,942	89,320
271,209	-0,482	178,902	89,242
272,224	-0,386	178,735	89,209
273,239	-0,448	178,664	89,128
274,253	-0,363	178,405	89,042
275,268	-0,221	178,280	89,056
276,282	-0,639	178,398	88,858
277,297	-0,412	178,096	88,835
278,312	-0,440	178,102	88,813
279,326	-0,218	177,973	88,873
280,341	-0,069	177,834	88,884
281,355	-0,147	177,671	88,748
282,370	-0,026	177,616	88,785
283,384	-0,280	177,420	88,528
284,399	-0,510	177,378	88,363
285,414	-0,300	177,209	88,395
286,428	-0,389	177,030	88,246
287,443	-0,112	177,030	88,402
288,457	-0,167	176,782	88,238
289,472	0,223	176,711	88,425
290,487	-0,005	176,526	88,190
291,501	-0,392	176,472	87,926
292,516	-0,214	176,433	88,004
293,530	0,119	176,243	88,098
294,545	-0,062	176,136	87,930
295,560	-0,270	176,078	87,771
296,574	-0,000	176,059	87,912
297,589	-0,034	175,830	87,770
298,603	-0,154	175,671	87,612
299,618	-0,125	175,707	87,640
300,633	-0,283	175,637	87,504
301,647	0,170	175,352	87,620
302,662	0,031	175,190	87,450
303,676	0,165	175,228	87,539
304,691	-0,067	174,944	87,254
305,706	0,084	174,918	87,321
306,720	-0,318	174,790	87,015
307,735	-0,044	174,687	87,116
308,749	-0,171	174,647	87,014
309,764	-0,118	174,494	86,961
310,779	0,030	174,375	86,980
311,793	-0,011	174,185	86,854
312,808	-0,277	174,138	86,668
313,822	-0,117	174,135	86,752
314,837	-0,252	173,920	86,559
315,852	0,096	173,855	86,720
316,866	-0,121	173,759	86,539
317,881	0,045	173,704	86,599
318,895	0,123	173,323	86,447
319,910	0,182	173,419	86,522
320,925	-0,213	173,265	86,209
321,939	0,140	173,171	86,358
322,954	0,234	173,005	86,322
323,968	0,067	172,896	86,164
324,983	-0,004	172,852	86,093
325,997	0,047	172,722	86,050
327,012	-0,137	172,654	85,903
328,027	0,203	172,394	85,961
329,041	0,239	172,255	85,904
330,056	0,013	172,265	85,772
331,070	0,043	172,000	85,650
332,085	0,009	172,039	85,642
333,100	0,272	171,878	85,705
334,114	0,053	171,807	85,537
335,129	0,293	171,630	85,578
336,143	0,236	171,569	85,508
337,158	0,361	171,409	85,491
338,173	0,363	171,230	85,396
339,187	0,248	171,108	85,262
340,202	0,215	171,110	85,236
341,216	0,288	171,022	85,226
342,231	0,282	170,866	85,138
343,246	0,120	170,776	84,993
344,260	0,274	170,664	85,017
345,275	0,627	170,679	85,217
346,289	0,449	170,382	84,961
347,304	0,388	170,489	84,972
348,319	0,462	170,262	84,893
349,333	0,449	170,108	84,801
350,348	0,280	170,007	84,648
351,362	0,304	169,902	84,602
352,377	0,536	169,748	84,648
353,392	0,222	169,707	84,443
354,406	0,253	169,635	84,418
355,421	189,425	1325,696	1391,885
356,435	149,893	1466,989	1392,359
