DTS Sentinel unit serial number:	SN410029Multiplexer serial number:	ORYXHardware model number:	OX2-SRSoftware version number:	ORYX F/W v4,00 Oryx Data Collector v3.7.2.0data status	okinstallation	B3 Nyhavnadifferential loss correction	single-endedforward channel	channel 1reverse channel	N/Adate	2023/11/28time	18:57:30forward acquisition time	300,00reverse acquisition time	0,00gamma	499,1914k internal	0,3137k external	0,3137temperature offset calibration	1,0000default loss term (dB/km)	0,3820temperature slope calibration	1,0000multiplexer offset coefficient	1,0000multiplexer slope coefficient	1,0000fibre end	0,00T internal ref (°C)	7,52T ext. ref 1 (°C)	-7,27T ext. ref 2 (°C)	-7,43length (m)	temperature (°C)	Stokes	anti-Stokes-744,400	283,113	-0,219	-0,292
-743,385	-200,000	0,017	0,249
-742,371	-200,000	-0,067	-0,281
-741,356	-200,000	-0,010	0,241
-740,342	800,000	-0,102	-0,270
-739,327	-200,000	-0,044	0,240
-738,312	315,102	-0,146	-0,205
-737,298	-200,000	-0,022	0,273
-736,283	800,000	-0,099	-0,238
-735,269	-200,000	0,066	0,330
-734,254	241,129	-0,130	-0,162
-733,239	-12,255	-0,263	0,127
-732,225	800,000	-0,110	-0,293
-731,210	271,171	0,118	0,154
-730,196	641,771	-0,036	-0,068
-729,181	52,967	0,112	-0,079
-728,167	-63,826	-0,088	0,026
-727,152	-127,092	-0,067	-0,007
-726,137	109,727	0,014	0,012
-725,123	196,425	-0,052	0,059
-724,108	-96,809	-0,128	0,025
-723,094	-200,000	-0,003	-0,035
-722,079	-200,000	0,000	0,060
-721,064	-200,000	0,027	-0,091
-720,050	-200,000	0,022	0,085
-719,035	283,464	0,092	0,123
-718,021	751,175	-0,053	-0,106
-717,006	332,454	-0,097	-0,139
-715,991	-139,658	-0,195	0,015
-714,977	-71,087	-0,161	0,045
-713,962	91,491	0,060	0,050
-712,948	254,173	0,100	0,127
-711,933	-200,000	-0,006	0,072
-710,918	800,000	-0,010	-0,032
-709,904	-86,217	-0,025	0,006
-708,889	-46,816	-0,118	-0,043
-707,875	-95,272	-0,018	0,003
-706,860	109,520	0,068	0,060
-705,845	-132,887	0,064	0,006
-704,831	800,000	0,042	0,112
-703,816	-56,275	-0,130	0,043
-702,802	-46,068	-0,044	0,016
-701,787	-78,668	-0,124	-0,031
-700,772	-122,050	0,060	0,007
-699,758	-200,000	0,007	0,063
-698,743	-2,619	-0,071	0,037
-697,729	146,817	0,035	0,035
-696,714	-200,000	-0,008	0,074
-695,699	171,437	-0,029	0,031
-694,685	121,751	-0,146	-0,135
-693,670	113,835	-0,105	-0,095
-692,656	102,221	-0,093	0,080
-691,641	800,000	0,016	0,048
-690,627	-38,288	0,061	0,024
-689,612	-96,862	0,072	0,014
-688,597	-147,767	-0,109	-0,007
-687,583	-119,617	-0,074	-0,009
-686,568	-200,000	0,003	-0,049
-685,554	207,636	-0,148	0,172
-684,539	-200,000	0,040	-0,157
-683,524	-200,000	0,023	-0,170
-682,510	48,349	-0,080	-0,055
-681,495	-46,835	-0,155	0,056
-680,481	-200,000	-0,010	-0,059
-679,466	320,278	-0,075	-0,106
-678,451	-200,000	0,018	-0,205
-677,437	47,287	0,116	0,080
-676,422	9,408	-0,114	0,064
-675,408	-200,000	0,020	0,084
-674,393	170,495	0,037	-0,040
-673,378	-200,000	0,013	0,059
-672,364	758,057	-0,062	-0,126
-671,349	550,998	-0,077	-0,136
-670,335	-105,151	0,159	-0,027
-669,320	-200,000	0,010	0,125
-668,305	-56,966	0,032	0,011
-667,291	340,093	0,110	-0,159
-666,276	435,192	-0,035	-0,057
-665,262	433,473	-0,076	-0,123
-664,247	73,696	-0,048	0,037
-663,232	-28,126	-0,107	-0,046
-662,218	675,591	0,045	0,087
-661,203	293,533	0,085	0,116
-660,189	-21,694	-0,035	-0,016
-659,174	800,000	-0,047	0,100
-658,159	-200,000	-0,042	-0,175
-657,145	-150,930	-0,082	-0,005
-656,130	-62,714	0,075	-0,023
-655,116	412,139	0,060	0,095
-654,101	-200,000	0,008	-0,057
-653,086	-200,000	-0,016	-0,192
-652,072	-200,000	-0,007	-0,052
-651,057	295,140	-0,040	-0,054
-650,043	66,888	-0,145	-0,109
-649,028	-200,000	-0,005	-0,028
-648,014	425,343	0,028	0,045
-646,999	-105,947	0,106	-0,017
-645,984	-200,000	-0,047	0,158
-644,970	484,655	0,014	0,024
-643,955	800,000	-0,052	-0,139
-642,941	395,981	-0,052	-0,081
-641,926	106,102	0,084	0,074
-640,911	-200,000	0,011	0,092
-639,897	-200,000	-0,039	0,250
-638,882	-200,000	0,007	-0,046
-637,868	800,000	-0,005	0,013
-636,853	-148,518	-0,063	-0,004
-635,838	-31,290	-0,219	-0,091
-634,824	-200,000	0,010	-0,059
-633,809	-92,631	-0,096	0,020
-632,795	146,465	0,054	-0,053
-631,780	84,031	0,062	0,050
-630,765	32,827	-0,025	-0,016
-629,751	654,381	-0,071	-0,136
-628,736	-103,878	-0,081	-0,014
-627,722	-200,000	0,007	-0,109
-626,707	-180,080	0,157	0,002
-625,692	57,791	0,104	0,075
-624,678	-200,000	0,003	0,074
-623,663	403,131	0,050	-0,077
-622,649	800,000	0,013	-0,043
-621,634	27,824	0,016	-0,010
-620,619	-51,147	-0,108	0,037
-619,605	-200,000	0,009	-0,073
-618,590	-200,000	-0,004	-0,053
-617,576	-200,000	-0,040	0,135
-616,561	732,010	0,040	-0,080
-615,546	216,904	0,022	0,026
-614,532	800,000	-0,015	-0,047
-613,517	187,361	-0,021	-0,024
-612,503	-200,000	-0,010	-0,086
-611,488	-200,000	-0,036	0,199
-610,474	-200,000	0,025	0,086
-609,459	495,289	-0,040	0,069
-608,444	258,910	-0,084	-0,107
-607,430	-200,000	-0,003	0,151
-606,415	387,436	0,066	-0,101
-605,401	-51,528	-0,140	0,048
-604,386	800,000	-0,073	0,196
-603,371	62,653	-0,098	0,072
-602,357	800,000	0,057	0,167
-601,342	-200,000	-0,024	0,167
-600,328	800,000	0,041	-0,093
-599,313	160,648	-0,047	-0,048
-598,298	-141,169	0,118	-0,009
-597,284	96,878	-0,016	-0,013
-596,269	-138,182	0,031	0,003
-595,255	304,191	0,060	-0,083
-594,240	800,000	-0,053	0,115
-593,225	602,214	-0,101	0,185
-592,211	-200,000	-0,002	0,029
-591,196	-117,124	-0,092	-0,012
-590,182	-200,000	-0,004	0,042
-589,167	28,421	0,120	0,074
-588,152	-59,852	-0,074	-0,023
-587,138	-200,000	-0,036	-0,125
-586,123	-200,000	0,019	-0,075
-585,109	761,826	0,009	0,019
-584,094	92,792	0,030	-0,025
-583,079	-33,196	0,135	0,055
-582,065	84,866	0,076	0,061
-581,050	-67,998	-0,192	-0,055
-580,036	-123,243	-0,008	-0,001
-579,021	-200,000	-0,014	-0,082
-578,006	-200,000	0,002	-0,012
-576,992	91,558	0,077	-0,064
-575,977	800,000	0,045	-0,123
-574,963	-106,973	0,039	-0,006
-573,948	170,811	0,109	0,115
-572,934	-48,631	-0,133	0,047
-571,919	800,000	-0,053	-0,157
-570,904	131,861	-0,057	0,054
-569,890	-164,209	-0,059	0,002
-568,875	800,000	0,035	0,072
-567,861	-200,000	-0,045	0,156
-566,846	-110,551	-0,103	-0,016
-565,831	-83,188	0,064	0,015
-564,817	72,841	-0,036	0,028
-563,802	800,000	0,049	-0,128
-562,788	89,922	-0,084	-0,070
-561,773	180,958	-0,071	-0,077
-560,758	800,000	0,032	-0,068
-559,744	800,000	-0,026	0,060
-558,729	541,208	-0,034	0,060
-557,715	-39,206	-0,110	-0,042
-556,700	-200,000	0,008	-0,201
-555,685	-200,000	-0,078	-0,289
-554,671	21,862	0,056	0,033
-553,656	-165,184	0,148	-0,005
-552,642	-200,000	-0,028	-0,092
-551,627	-61,383	0,082	-0,025
-550,612	800,000	-0,070	-0,161
-549,598	624,984	-0,078	-0,145
-548,583	-94,058	-0,008	0,002
-547,569	-200,000	-0,002	-0,139
-546,554	153,692	-0,103	-0,104
-545,539	-200,000	0,004	0,087
-544,525	229,348	0,064	0,077
-543,510	800,000	0,028	-0,077
-542,496	206,105	-0,012	0,013
-541,481	-15,496	0,051	-0,024
-540,466	-64,946	0,184	0,054
-539,452	67,785	0,136	-0,103
-538,437	-35,433	0,136	-0,054
-537,423	800,000	-0,035	0,074
-536,408	-3,755	0,073	0,037
-535,393	19,248	-0,106	0,062
-534,379	-164,003	0,065	0,002
-533,364	-31,505	-0,123	0,051
-532,350	131,984	0,052	-0,049
-531,335	-200,000	0,017	0,094
-530,321	800,000	0,025	-0,066
-529,306	-200,000	0,022	0,151
-528,291	38,060	-0,083	-0,054
-527,277	30,187	0,054	-0,034
-526,262	51,484	-0,127	-0,089
-525,248	-195,338	0,064	0,000
-524,233	310,312	-0,056	0,077
-523,218	800,000	-0,051	0,118
-522,204	-200,000	0,005	0,059
-521,189	-200,000	0,005	-0,071
-520,175	-72,119	-0,013	-0,004
-519,160	-200,000	-0,007	0,040
-518,145	-47,331	0,157	-0,056
-517,131	800,000	0,051	0,128
-516,116	-128,987	0,043	0,004
-515,102	245,199	0,067	-0,083
-514,087	107,872	0,055	-0,048
-513,072	-133,568	-0,173	0,016
-512,058	6,854	-0,086	-0,047
-511,043	52,038	-0,080	-0,056
-510,029	10,481	-0,054	0,030
-509,014	-101,683	-0,028	0,005
-507,999	-57,377	-0,061	0,019
-506,985	56,414	-0,056	0,040
-505,970	508,383	0,031	-0,053
-504,956	319,746	-0,056	-0,079
-503,941	-77,958	0,158	0,040
-502,926	-200,000	-0,013	-0,063
-501,912	-146,196	-0,102	0,007
-500,897	800,000	0,029	-0,067
-499,883	800,000	0,020	-0,062
-498,868	800,000	0,034	0,079
-497,853	-75,745	-0,057	0,015
-496,839	-116,230	-0,146	-0,020
-495,824	-200,000	0,016	0,082
-494,810	-200,000	0,017	-0,097
-493,795	280,442	0,086	-0,113
-492,781	-40,367	-0,080	0,030
-491,766	191,663	0,081	-0,089
-490,751	-20,714	-0,094	0,042
-489,737	19,695	0,014	0,008
-488,722	-200,000	-0,000	-0,015
-487,708	-200,000	0,014	0,160
-486,693	-174,412	-0,088	-0,002
-485,678	-200,000	-0,020	0,084
-484,664	356,384	-0,080	-0,118
-483,649	1,391	-0,067	-0,035
-482,635	-12,956	-0,077	-0,037
-481,620	800,000	0,052	-0,129
-480,605	232,632	0,110	0,132
-479,591	-200,000	0,004	0,063
-478,576	149,816	0,063	0,063
-477,562	-21,980	-0,140	-0,062
-476,547	-200,000	-0,010	0,047
-475,532	39,590	0,040	0,026
-474,518	241,353	-0,024	0,030
-473,503	-200,000	-0,006	0,069
-472,489	-200,000	-0,001	-0,027
-471,474	-200,000	0,003	0,033
-470,459	-46,018	-0,016	-0,006
-469,445	147,567	-0,049	-0,048
-468,430	800,000	-0,052	0,108
-467,416	427,656	-0,037	-0,059
-466,401	619,727	0,031	0,058
-465,386	-127,771	-0,173	0,018
-464,372	-22,498	-0,137	0,061
-463,357	-200,000	-0,025	-0,130
-462,343	-63,464	-0,070	0,021
-461,328	-200,000	0,001	-0,028
-460,313	800,000	0,057	0,153
-459,299	79,002	0,083	0,065
-458,284	330,969	0,080	-0,114
-457,270	440,773	-0,031	0,049
-456,255	-48,173	-0,068	-0,024
-455,241	319,624	0,023	0,032
-454,226	-135,401	-0,068	0,006
-453,211	259,450	0,094	0,119
-452,197	-200,000	0,023	0,186
-451,182	519,945	0,027	-0,047
-450,168	320,189	-0,033	-0,046
-449,153	800,000	0,021	-0,047
-448,138	-200,000	-0,025	-0,233
-447,124	203,006	-0,043	-0,048
-446,109	-5,247	-0,034	0,017
-445,095	306,348	0,033	0,045
-444,080	-200,000	-0,022	0,123
-443,065	214,769	-0,019	0,022
-442,051	180,425	-0,027	-0,029
-441,036	-97,434	0,089	-0,017
-440,022	-200,000	-0,009	-0,037
-439,007	179,395	-0,053	0,057
-437,992	-200,000	-0,012	0,153
-436,978	-61,606	0,130	-0,040
-435,963	800,000	-0,042	0,090
-434,949	-200,000	-0,015	-0,062
-433,934	-172,569	-0,118	-0,003
-432,919	209,902	-0,090	0,103
-431,905	129,610	0,031	0,029
-430,890	800,000	0,033	-0,072
-429,876	-56,690	0,073	0,023
-428,861	212,825	-0,008	0,009
-427,846	-200,000	0,017	-0,070
-426,832	-98,307	-0,019	0,003
-425,817	180,925	-0,020	-0,021
-424,803	-61,764	0,023	0,007
-423,788	-87,446	-0,158	0,035
-422,773	-163,710	0,097	0,003
-421,759	384,144	0,098	-0,148
-420,744	-13,211	0,047	-0,022
-419,730	-200,000	-0,003	-0,026
-418,715	-107,679	0,059	0,009
-417,701	76,392	-0,056	0,044
-416,686	-200,000	0,044	-0,183
-415,671	-119,462	0,139	0,018
-414,657	227,671	0,093	0,111
-413,642	224,802	0,033	0,040
-412,628	-135,432	-0,060	-0,005
-411,613	-200,000	0,011	-0,040
-410,598	17,438	-0,011	-0,007
-409,584	-161,928	-0,032	-0,001
-408,569	514,179	-0,034	-0,059
-407,555	309,017	0,078	0,107
-406,540	-65,083	0,021	0,006
-405,525	-200,000	-0,003	0,025
-404,511	48,704	-0,122	-0,084
-403,496	-10,578	0,073	0,035
-402,482	-200,000	0,014	0,063
-401,467	-200,000	0,002	-0,034
-400,452	320,566	-0,011	-0,015
-399,438	-200,000	0,033	0,129
-398,423	0,478	0,050	0,026
-397,409	685,074	-0,081	-0,155
-396,394	46,957	0,090	-0,061
-395,379	131,513	0,061	0,058
-394,365	31,321	0,082	-0,051
-393,350	266,155	0,044	0,056
-392,336	-106,839	0,134	-0,021
-391,321	444,156	0,075	0,121
-390,306	-154,474	-0,215	-0,010
-389,292	800,000	-0,033	-0,078
-388,277	-106,657	0,085	0,014
-387,263	-200,000	-0,001	-0,024
-386,248	172,621	-0,055	0,058
-385,233	608,529	0,030	0,054
-384,219	-200,000	0,013	-0,071
-383,204	800,000	0,017	0,035
-382,190	-1,920	-0,051	0,026
-381,175	-3,601	0,085	0,043
-380,160	-48,892	0,052	-0,018
-379,146	-200,000	0,017	0,061
-378,131	-200,000	0,044	0,181
-377,117	-200,000	-0,014	0,077
-376,102	306,449	0,061	0,083
-375,088	-200,000	-0,027	0,094
-374,073	-99,688	-0,048	0,009
-373,058	171,170	-0,014	0,015
-372,044	250,515	0,052	-0,065
-371,029	800,000	-0,014	0,038
-370,015	6,859	-0,045	0,025
-369,000	-130,899	-0,086	0,008
-367,985	18,413	-0,048	-0,028
-366,971	-200,000	-0,010	-0,061
-365,956	-200,000	-0,022	0,136
-364,942	40,650	0,091	0,060
-363,927	428,422	0,084	0,132
-362,912	800,000	0,044	0,135
-361,898	-61,531	-0,132	-0,040
-360,883	8,967	-0,016	-0,009
-359,869	596,864	-0,070	-0,127
-358,854	-31,017	-0,153	0,063
-357,839	-140,981	0,154	0,011
-356,825	167,971	0,065	-0,067
-355,810	-60,734	0,067	0,021
-354,796	106,272	0,004	-0,003
-353,781	-200,000	0,058	-0,202
-352,766	51,521	0,141	-0,098
-351,752	-200,000	-0,001	-0,021
-350,737	-158,712	0,079	0,003
-349,723	-90,369	0,139	-0,029
-348,708	-2,024	0,002	-0,001
-347,693	-82,409	-0,081	-0,019
-346,679	800,000	0,015	0,043
-345,664	-102,661	-0,157	-0,027
-344,650	-200,000	0,017	-0,128
-343,635	283,329	-0,066	0,086
-342,620	-133,103	0,064	-0,006
-341,606	14,998	-0,109	0,062
-340,591	-200,000	-0,002	0,010
-339,577	44,065	-0,040	0,027
-338,562	213,260	-0,070	-0,081
-337,548	44,828	0,095	-0,064
-336,533	-200,000	0,004	-0,064
-335,518	-153,603	0,181	0,009
-334,504	144,867	-0,037	-0,036
-333,489	-112,651	-0,093	-0,013
-332,475	800,000	0,037	-0,089
-331,460	228,293	0,035	-0,042
-330,445	800,000	0,030	-0,067
-329,431	-133,414	-0,005	0,000
-328,416	333,030	0,045	0,064
-327,402	-121,990	-0,016	-0,002
-326,387	78,016	-0,050	-0,039
-325,372	691,259	-0,020	0,038
-324,358	-200,000	0,003	-0,133
-323,343	146,026	-0,041	-0,040
-322,329	131,636	0,034	0,032
-321,314	-157,738	0,182	-0,008
-320,299	363,533	0,024	0,035
-319,285	62,765	-0,099	-0,072
-318,270	265,736	-0,084	0,107
-317,256	-196,867	-0,133	-0,001
-316,241	-123,139	0,030	0,003
-315,226	-71,539	-0,039	-0,011
-314,212	-200,000	0,003	-0,021
-313,197	185,282	0,047	-0,051
-312,183	327,349	-0,039	0,055
-311,168	245,593	-0,040	0,049
-310,153	62,759	-0,035	0,026
-309,139	-132,834	-0,166	0,015
-308,124	-93,528	-0,173	-0,035
-307,110	-90,835	-0,013	0,003
-306,095	173,665	-0,089	0,094
-305,080	-8,264	0,062	-0,030
-304,066	-117,869	-0,077	-0,010
-303,051	-62,442	0,124	0,037
-302,037	-14,393	0,114	0,053
-301,022	451,066	-0,084	0,136
-300,008	800,000	0,021	0,066
-298,993	-200,000	0,015	0,174
-297,978	32,683	-0,035	0,022
-296,964	295,098	-0,055	-0,074
-295,949	-200,000	-0,000	0,017
-294,935	-129,009	-0,203	0,020
-293,920	800,000	0,022	-0,070
-292,905	23,830	0,073	-0,043
-291,891	800,000	0,016	-0,051
-290,876	-200,000	0,002	0,095
-289,862	13,302	0,039	0,022
-288,847	244,670	0,048	-0,059
-287,832	-98,960	-0,063	0,012
-286,818	-95,299	0,090	0,018
-285,803	67,042	0,111	-0,082
-284,789	-133,825	-0,069	0,006
-283,774	10,044	0,185	0,102
-282,759	196,052	-0,084	0,093
-281,745	-75,729	0,060	-0,015
-280,730	-200,000	-0,003	-0,023
-279,716	-88,204	-0,100	-0,022
-278,701	675,800	-0,025	0,047
-277,686	3,460	0,088	0,047
-276,672	-200,000	0,015	0,062
-275,657	-200,000	0,018	0,107
-274,643	248,991	-0,030	-0,037
-273,628	414,652	-0,116	0,180
-272,613	-200,000	0,016	-0,149
-271,599	477,462	-0,006	0,010
-270,584	233,824	-0,020	-0,024
-269,570	120,172	0,061	-0,055
-268,555	800,000	0,055	-0,156
-267,540	800,000	-0,068	-0,207
-266,526	-200,000	-0,001	-0,034
-265,511	-19,172	-0,122	-0,055
-264,497	-12,492	0,091	-0,043
-263,482	74,198	-0,039	0,030
-262,467	70,729	0,155	0,117
-261,453	800,000	0,057	0,151
-260,438	48,897	-0,076	0,052
-259,424	-181,214	-0,086	0,001
-258,409	-200,000	-0,012	0,122
-257,395	256,507	0,077	0,096
-256,380	4,616	-0,068	0,036
-255,365	387,080	0,043	0,064
-254,351	121,599	0,080	0,073
-253,336	-22,619	-0,089	-0,039
-252,322	-86,569	-0,107	-0,024
-251,307	275,578	-0,010	-0,012
-250,292	-7,591	-0,074	-0,036
-249,278	199,815	0,075	-0,084
-248,263	169,735	-0,060	0,063
-247,249	213,009	-0,062	0,072
-246,234	9,851	0,060	-0,033
-245,219	-120,802	0,106	-0,013
-244,205	-107,073	-0,180	-0,029
-243,190	-145,876	0,117	0,007
-242,176	166,397	-0,038	-0,039
-241,161	-43,933	0,096	-0,035
-240,146	-127,769	0,136	-0,014
-239,132	-120,947	-0,071	0,009
-238,117	95,002	-0,087	0,072
-237,103	-200,000	-0,027	-0,166
-236,088	598,157	-0,027	-0,050
-235,073	-24,050	0,076	-0,033
-234,059	800,000	0,014	-0,032
-233,044	-200,000	0,003	-0,037
-232,030	-110,213	0,121	-0,018
-231,015	-200,000	0,026	-0,093
-230,000	-200,000	-0,001	0,127
-228,986	115,227	0,071	0,063
-227,971	-42,261	0,158	0,058
-226,957	10,736	-0,050	0,028
-225,942	-200,000	0,012	-0,117
-224,927	-160,021	0,019	-0,001
-223,913	800,000	0,037	0,088
-222,898	293,204	-0,069	0,091
-221,884	9,900	0,136	-0,075
-220,869	-200,000	-0,005	0,041
-219,855	188,954	0,072	-0,078
-218,840	-57,864	0,076	0,024
-217,825	-2,983	-0,055	-0,028
-216,811	800,000	0,026	0,063
-215,796	-112,161	0,219	-0,032
-214,782	-200,000	-0,005	-0,066
-213,767	325,074	-0,069	0,096
-212,752	-200,000	-0,001	0,064
-211,738	709,414	-0,031	-0,060
-210,723	83,693	0,026	0,021
-209,709	-200,000	0,000	-0,090
-208,694	-128,477	-0,095	0,010
-207,679	800,000	-0,023	-0,061
-206,665	-200,000	0,016	-0,082
-205,650	-200,000	-0,007	0,050
-204,636	-159,308	-0,187	0,007
-203,621	-74,347	0,083	0,022
-202,606	416,541	0,061	-0,094
-201,592	105,286	-0,068	0,058
-200,577	800,000	-0,082	0,204
-199,563	-72,464	-0,018	0,005
-198,548	-53,173	0,210	0,070
-197,533	21,689	0,152	0,089
-196,519	800,000	-0,036	0,077
-195,504	-200,000	-0,003	0,036
-194,490	-200,000	0,030	-0,131
-193,475	281,852	-0,084	0,109
-192,460	306,831	0,049	-0,067
-191,446	-200,000	0,012	0,253
-190,431	-144,937	0,042	0,003
-189,417	-200,000	-0,023	0,134
-188,402	53,197	-0,025	0,017
-187,387	201,420	-0,079	-0,088
-186,373	800,000	0,026	-0,079
-185,358	-200,000	0,005	-0,081
-184,344	26,902	-0,061	0,037
-183,329	-31,651	0,087	0,035
-182,315	36,472	0,056	-0,036
-181,300	800,000	-0,050	-0,115
-180,285	170,531	-0,112	-0,116
-179,271	16,513	0,171	-0,098
-178,256	-200,000	0,009	-0,039
-177,242	-1,185	-0,025	0,013
-176,227	67,038	-0,057	0,042
-175,212	-200,000	-0,015	-0,069
-174,198	-14,060	0,048	-0,022
-173,183	564,657	0,019	0,034
-172,169	-200,000	0,021	-0,091
-171,154	800,000	0,075	-0,157
-170,139	-26,477	0,032	0,014
-169,125	-38,421	0,109	0,042
-168,110	17,085	-0,107	0,062
-167,096	162,890	-0,038	0,039
-166,081	280,807	0,062	-0,081
-165,066	800,000	-0,040	-0,107
-164,052	-134,042	0,042	-0,004
-163,037	-104,673	-0,025	0,004
-162,023	-42,372	0,107	-0,040
-161,008	800,000	-0,011	-0,023
-159,993	-101,996	0,018	-0,003
-158,979	-74,161	0,104	-0,027
-157,964	-200,000	-0,031	-0,231
-156,950	502,877	-0,096	-0,162
-155,935	-126,258	0,035	-0,004
-154,920	-0,936	0,041	0,021
-153,906	573,173	-0,025	0,045
-152,891	800,000	0,025	-0,056
-151,877	-200,000	-0,014	-0,058
-150,862	123,085	-0,048	-0,043
-149,847	800,000	-0,019	-0,052
-148,833	-200,000	-0,010	0,047
-147,818	-200,000	0,002	0,140
-146,804	-200,000	0,013	0,062
-145,789	99,254	0,042	0,035
-144,775	-109,491	-0,095	0,014
-143,760	54,906	-0,034	0,023
-142,745	-158,637	-0,026	-0,001
-141,731	304,712	0,075	-0,102
-140,716	452,428	0,055	0,088
-139,702	-200,000	0,018	-0,076
-138,687	-127,187	-0,132	0,014
-137,672	160,457	0,062	0,062
-136,658	800,000	-0,038	0,104
-135,643	-200,000	0,015	0,067
-134,629	-200,000	0,016	0,144
-133,614	800,000	-0,033	0,091
-132,599	-200,000	0,009	0,109
-131,585	532,917	-0,082	-0,141
-130,570	-200,000	0,007	0,085
-129,556	-124,131	-0,059	-0,007
-128,541	-200,000	0,007	-0,121
-127,526	101,706	-0,067	-0,057
-126,512	324,881	-0,051	0,071
-125,497	-200,000	0,026	0,168
-124,483	-155,209	0,050	-0,002
-123,468	800,000	0,012	0,030
-122,453	800,000	0,058	-0,130
-121,439	2,707	-0,043	-0,023
-120,424	10,929	0,041	0,022
-119,410	800,000	-0,055	0,156
-118,395	-200,000	0,026	0,092
-117,380	-200,000	-0,005	0,147
-116,366	-54,482	-0,106	-0,035
-115,351	-64,180	-0,061	-0,018
-114,337	323,895	0,073	-0,101
-113,322	-28,533	-0,167	-0,070
-112,307	-200,000	-0,000	0,132
-111,293	81,700	0,019	0,015
-110,278	-48,127	-0,094	-0,033
-109,264	-73,019	0,101	-0,027
-108,249	503,332	-0,027	-0,045
-107,234	46,827	0,057	-0,038
-106,220	-143,079	0,035	0,002
-105,205	-200,000	0,019	0,069
-104,191	301,083	-0,026	-0,035
-103,176	-46,736	-0,067	-0,024
-102,162	375,106	-0,012	-0,018
-101,147	-100,506	-0,071	-0,013
-100,132	-200,000	0,009	-0,103
-99,118	-12,500	0,106	-0,050
-98,103	800,000	0,024	0,070
-97,089	74,955	0,079	0,060
-96,074	310,600	0,067	0,091
-95,059	-130,221	-0,044	-0,004
-94,045	119,647	-0,133	-0,119
-93,030	-24,006	0,023	0,010
-92,016	228,222	0,074	-0,088
-91,001	-85,404	0,032	0,007
-89,986	1,830	-0,046	-0,024
-88,972	-200,000	-0,001	0,014
-87,957	696,011	-0,020	0,039
-86,943	398,225	0,016	0,024
-85,928	28,770	-0,041	-0,025
-84,913	-200,000	0,008	-0,050
-83,899	118,956	0,072	0,064
-82,884	-200,000	0,046	0,165
-81,870	-200,000	0,035	0,239
-80,855	564,939	0,080	-0,142
-79,840	72,303	-0,051	0,038
-78,826	800,000	-0,059	-0,165
-77,811	-200,000	-0,027	-0,116
-76,797	296,686	0,073	-0,097
-75,782	800,000	0,028	-0,073
-74,767	151,243	-0,053	0,052
-73,753	-200,000	0,007	-0,068
-72,738	-27,596	-0,102	0,043
-71,724	-31,132	-0,067	-0,027
-70,709	-28,218	0,072	-0,030
-69,694	-200,000	0,016	0,188
-68,680	521,002	0,068	-0,115
-67,665	146,335	-0,056	0,054
-66,651	75,491	-0,044	-0,034
-65,636	-117,486	-0,138	0,018
-64,622	256,011	0,050	-0,062
-63,607	477,185	-0,022	0,036
-62,592	555,819	-0,018	-0,031
-61,578	-160,641	0,078	0,003
-60,563	800,000	-0,025	0,054
-59,549	800,000	-0,067	0,145
-58,534	52,749	-2,199	-1,516
-57,519	508,116	-1,091	-1,838
-56,505	-200,000	-0,243	-4,149
-55,490	800,000	0,728	1,843
-54,476	800,000	5,218	11,351
-53,461	-200,000	22,715	348,506
-52,446	800,000	757,035	2281,992
-51,432	497,027	1638,919	2734,014
-50,417	63,746	1596,988	1157,457
-49,403	15,594	1307,787	740,305
-48,388	9,690	1120,679	611,878
-47,373	22,359	1098,496	646,883
-46,359	14,538	1084,631	610,025
-45,344	7,733	1080,276	582,538
-44,330	7,680	1078,277	581,242
-43,315	7,607	1076,992	580,259
-42,300	7,580	1075,726	579,456
-41,286	7,652	1074,661	579,123
-40,271	7,671	1073,762	578,685
-39,257	7,659	1073,198	578,314
-38,242	7,658	1072,306	577,806
-37,227	7,612	1071,338	577,095
-36,213	7,664	1070,056	576,569
-35,198	7,639	1069,461	576,134
-34,184	7,668	1068,607	575,756
-33,169	7,491	1067,424	574,454
-32,154	7,563	1067,083	574,508
-31,140	7,609	1066,035	574,090
-30,125	7,614	1065,249	573,661
-29,111	7,619	1063,983	572,975
-28,096	7,576	1063,162	572,354
-27,082	7,553	1062,246	571,756
-26,067	7,564	1061,370	571,302
-25,052	7,555	1060,864	570,975
-24,038	7,607	1060,246	570,807
-23,023	7,567	1059,499	570,237
-22,009	7,557	1058,466	569,622
-20,994	7,554	1057,804	569,232
-19,979	7,537	1057,398	568,930
-18,965	7,497	1056,699	568,388
-17,950	7,511	1055,864	567,965
-16,936	7,475	1055,317	567,520
-15,921	7,426	1054,481	566,871
-14,906	7,495	1053,584	566,616
-13,892	7,513	1052,843	566,259
-12,877	7,487	1052,305	565,851
-11,863	7,476	1051,779	565,509
-10,848	7,384	1051,111	564,797
-9,833	7,407	1050,373	564,461
-8,819	7,354	1049,805	563,942
-7,804	7,382	1048,799	563,480
-6,790	7,341	1048,023	562,894
-5,775	7,374	1047,441	562,680
-4,760	7,328	1046,713	562,101
-3,746	7,356	1045,943	561,765
-2,731	7,385	1045,253	561,475
-1,717	7,414	1044,719	561,270
-0,702	7,338	1043,586	560,368
0,313	11,104	975,644	537,194
1,327	25,778	515,810	309,550
2,342	38,266	92,765	59,521
3,356	-4,417	15,749	7,833
4,371	-15,654	5,190	2,380
5,386	-24,035	3,227	1,386
6,400	24,291	2,208	1,314
7,415	-37,615	1,823	0,698
8,429	-33,752	1,770	0,701
9,444	-56,820	1,739	0,551
10,459	-43,572	1,814	0,657
11,473	-24,254	1,672	0,716
12,488	-47,955	1,750	0,607
13,502	-57,180	1,751	0,553
14,517	-32,967	1,618	0,645
15,531	-40,380	1,599	0,596
16,546	-73,649	1,787	0,466
17,561	-90,735	1,622	0,334
18,575	-33,444	1,847	0,733
19,590	-41,530	1,848	0,681
20,604	-46,693	1,696	0,595
21,619	-49,179	1,506	0,516
22,634	-66,310	1,450	0,413
23,648	-54,757	1,583	0,512
24,663	-61,759	1,566	0,470
25,677	-46,888	1,587	0,556
26,692	-20,301	1,615	0,713
27,707	-52,189	1,617	0,537
28,721	-24,228	1,462	0,626
29,736	-89,299	1,657	0,349
30,750	-87,950	1,686	0,362
31,765	-34,683	1,387	0,543
32,780	-76,965	1,677	0,419
33,794	-49,933	1,534	0,521
34,809	-59,899	1,633	0,499
35,823	-73,184	1,586	0,415
36,838	-40,214	1,496	0,557
37,853	-65,231	1,571	0,452
38,867	-52,492	1,545	0,511
39,882	-46,521	1,462	0,513
40,896	-54,915	1,580	0,510
41,911	-48,851	1,637	0,562
42,926	-12,790	1,510	0,705
43,940	-68,801	1,572	0,434
44,955	-62,308	1,610	0,479
45,969	-89,089	1,579	0,333
46,984	-46,159	1,428	0,503
47,999	-57,811	1,574	0,492
49,013	-33,395	1,450	0,574
50,028	-53,201	1,783	0,585
51,042	-95,805	1,601	0,304
52,057	-51,345	1,568	0,524
53,071	-50,236	1,540	0,521
54,086	-30,532	1,557	0,631
55,101	-28,749	1,569	0,646
56,115	-79,812	1,493	0,358
57,130	-58,263	1,465	0,455
58,144	-36,410	1,520	0,585
59,159	-28,090	1,551	0,642
60,174	-42,502	1,492	0,543
61,188	-50,376	1,498	0,505
62,203	-59,209	1,565	0,481
63,217	-33,400	1,445	0,571
64,232	-36,720	1,541	0,592
65,247	-69,080	1,595	0,438
66,261	-55,655	1,404	0,448
67,276	-45,640	1,557	0,550
68,290	-42,253	1,460	0,533
69,305	-41,270	1,542	0,568
70,320	-67,660	1,500	0,419
71,334	-46,462	1,451	0,508
72,349	-54,345	1,526	0,494
73,363	-47,260	1,409	0,490
74,378	-20,086	1,357	0,598
75,393	-51,169	1,638	0,547
76,407	-12,280	1,572	0,735
77,422	-51,540	1,637	0,545
78,436	-36,173	1,466	0,565
79,451	-46,789	1,482	0,517
80,466	-41,147	1,483	0,546
81,480	-49,920	1,443	0,488
82,495	-45,019	1,510	0,536
83,509	-63,986	1,512	0,440
84,524	-54,302	1,569	0,507
85,539	-33,711	1,550	0,610
86,553	-72,148	1,446	0,382
87,568	-40,780	1,448	0,534
88,582	-57,458	1,394	0,436
89,597	-79,997	1,552	0,370
90,611	-48,643	1,537	0,526
91,626	-32,363	1,511	0,601
92,641	-23,290	1,522	0,653
93,655	-49,875	1,544	0,522
94,670	-34,334	1,529	0,598
95,684	-61,554	1,357	0,405
96,699	-74,161	1,464	0,377
97,714	-73,101	1,577	0,411
98,728	-55,110	1,565	0,501
99,743	-35,365	1,543	0,598
100,757	-37,161	1,534	0,585
101,772	-48,704	1,443	0,493
102,787	-34,558	1,501	0,585
103,801	-31,249	1,505	0,604
104,816	-60,992	1,534	0,461
105,830	-51,430	1,600	0,532
106,845	-62,254	1,518	0,449
107,860	-40,116	1,563	0,580
108,874	-51,497	1,432	0,476
109,889	-44,264	1,440	0,513
110,903	-67,094	1,553	0,435
111,918	-80,503	1,534	0,363
112,933	-47,260	1,490	0,516
113,947	-56,772	1,537	0,483
114,962	-40,915	1,424	0,524
115,976	-42,933	1,537	0,555
116,991	-46,296	1,514	0,529
118,006	-40,569	1,347	0,497
119,020	-42,341	1,495	0,542
120,035	-32,986	1,518	0,599
121,049	-53,147	1,548	0,505
122,064	-14,257	1,279	0,586
123,079	-30,675	1,461	0,588
124,093	-67,359	1,532	0,427
125,108	-50,155	1,453	0,488
126,122	-45,893	1,664	0,583
127,137	-32,350	1,542	0,611
128,151	-44,496	1,641	0,583
129,166	-47,180	1,432	0,496
130,181	-17,735	1,446	0,646
131,195	-30,241	1,357	0,548
132,210	-90,578	1,459	0,299
133,224	-47,542	1,479	0,510
134,239	-58,441	1,536	0,473
135,254	-24,300	1,404	0,595
136,268	10,602	1,409	0,764
137,283	-61,819	1,392	0,413
138,297	-104,384	1,434	0,235
139,312	-38,864	1,359	0,508
140,327	-79,071	1,449	0,348
141,341	-73,824	1,550	0,399
142,356	-64,021	1,498	0,434
143,370	-51,751	1,507	0,498
144,385	-34,824	1,423	0,552
145,400	-26,540	1,446	0,601
146,414	-29,790	1,345	0,544
147,429	-48,778	1,413	0,481
148,443	-18,044	1,421	0,632
149,458	7,245	1,484	0,787
150,473	-23,262	1,478	0,631
151,487	-43,798	1,524	0,544
152,502	-18,610	1,421	0,629
153,516	-33,243	1,432	0,562
154,531	-36,690	1,498	0,571
155,546	-31,946	1,404	0,558
156,560	-19,555	1,495	0,657
157,575	5,048	1,418	0,741
158,589	-1,888	1,397	0,697
159,604	-19,829	1,477	0,647
160,619	-29,852	1,386	0,560
161,633	-18,824	1,444	0,638
162,648	-33,833	1,592	0,622
163,662	-1,620	1,533	0,766
164,677	-34,447	1,512	0,587
165,692	-27,743	1,279	0,526
166,706	-21,644	1,444	0,624
167,721	-22,353	1,581	0,679
168,735	-32,796	1,378	0,543
169,750	-12,504	1,494	0,691
170,764	-13,948	1,445	0,661
171,779	-15,631	1,365	0,617
172,794	17,382	1,442	0,812
173,808	-41,513	1,395	0,508
174,823	-49,148	1,485	0,502
175,837	24,139	1,332	0,780
176,852	-42,257	1,439	0,520
177,867	-44,135	1,513	0,537
178,881	-32,048	1,446	0,572
179,896	-1,089	1,410	0,706
180,910	-6,765	1,429	0,688
181,925	-48,429	1,502	0,511
182,940	-41,430	1,510	0,549
183,954	-41,136	1,516	0,553
184,969	-32,398	1,348	0,532
185,983	-35,990	1,540	0,588
186,998	-42,477	1,644	0,592
188,013	13,721	1,420	0,782
189,027	-75,325	1,392	0,350
190,042	-44,441	1,462	0,517
191,056	-43,501	1,509	0,538
192,071	-87,906	1,477	0,313
193,086	-29,340	1,421	0,575
194,100	-22,323	1,437	0,615
195,115	-28,259	1,492	0,609
196,129	-29,655	1,440	0,581
197,144	-66,969	1,546	0,430
198,159	-37,041	1,471	0,556
199,173	2,307	1,426	0,730
200,188	-31,702	1,442	0,571
201,202	-14,086	1,453	0,663
202,217	0,913	1,287	0,652
203,232	-31,464	1,439	0,571
204,246	-23,797	1,354	0,573
205,261	-49,731	1,418	0,475
206,275	0,884	1,421	0,720
207,290	-26,866	1,340	0,553
208,304	-4,689	1,543	0,752
209,319	-39,714	1,397	0,515
210,334	-34,961	1,383	0,532
211,348	-40,856	1,473	0,537
212,363	-15,739	1,451	0,653
213,377	-11,121	1,351	0,629
214,392	-20,511	1,460	0,633
215,407	-34,063	1,458	0,565
216,421	1,516	1,466	0,745
217,436	-33,505	1,462	0,570
218,450	-24,874	1,318	0,552
219,465	-24,200	1,529	0,644
220,480	-13,352	1,419	0,650
221,494	-11,054	1,301	0,605
222,509	-20,518	1,440	0,624
223,523	-16,266	1,449	0,649
224,538	-53,833	1,516	0,487
225,553	-28,842	1,387	0,562
226,567	-29,502	1,515	0,610
227,582	-26,668	1,460	0,602
228,596	-36,186	1,523	0,579
229,611	-0,889	1,310	0,654
230,626	-14,726	1,418	0,642
231,640	-21,188	1,374	0,592
232,655	-35,838	1,338	0,510
233,669	-43,799	1,347	0,477
234,684	-36,265	1,517	0,576
235,699	-24,747	1,507	0,631
236,713	-28,111	1,467	0,597
237,728	-33,657	1,432	0,556
238,742	-21,005	1,387	0,598
239,757	-60,960	1,353	0,402
240,772	-39,321	1,363	0,503
241,786	-30,170	1,278	0,511
242,801	-9,031	1,457	0,687
243,815	-21,146	1,449	0,624
244,830	-14,305	1,464	0,664
245,844	-41,831	1,451	0,523
246,859	-39,329	1,362	0,503
247,874	-31,059	1,322	0,525
248,888	-11,085	1,412	0,656
249,903	-48,568	1,400	0,473
250,917	-14,308	1,405	0,637
251,932	-37,680	1,425	0,533
252,947	9,401	1,340	0,714
253,961	-17,695	1,275	0,563
254,976	-34,453	1,420	0,547
255,990	-48,508	1,429	0,483
257,005	-7,529	1,345	0,640
258,020	-41,261	1,443	0,523
259,034	-23,565	1,370	0,578
260,049	2,614	1,356	0,691
261,063	-5,194	1,394	0,674
262,078	-41,095	1,438	0,521
263,093	-34,788	1,301	0,499
264,107	-54,656	1,372	0,435
265,122	-41,684	1,543	0,556
266,136	-38,387	1,446	0,537
267,151	-34,271	1,309	0,504
268,166	-2,343	1,274	0,628
269,180	-36,475	1,408	0,532
270,195	-52,283	1,303	0,423
271,209	-37,155	1,356	0,509
272,224	-7,340	1,348	0,641
273,239	-19,476	1,424	0,619
274,253	-15,877	1,355	0,606
275,268	23,480	1,336	0,773
276,282	-33,953	1,355	0,523
277,297	-8,311	1,233	0,583
278,312	-49,137	1,479	0,495
279,326	-34,245	1,512	0,582
280,341	0,128	1,268	0,635
281,355	-19,410	1,328	0,578
282,370	-64,991	1,368	0,387
283,384	-22,240	1,258	0,535
284,399	-78,305	1,369	0,328
285,414	-55,096	1,394	0,439
286,428	-10,404	1,323	0,615
287,443	-21,475	1,360	0,581
288,457	-17,132	1,399	0,619
289,472	-49,233	1,275	0,426
290,487	-42,877	1,380	0,491
291,501	-41,735	1,315	0,473
292,516	-11,845	1,441	0,663
293,530	-32,949	1,297	0,504
294,545	-18,624	1,522	0,665
295,560	-0,780	1,334	0,663
296,574	-12,320	1,329	0,609
297,589	-3,951	1,335	0,649
298,603	-69,460	1,533	0,411
299,618	-25,550	1,357	0,561
300,633	-46,395	1,369	0,470
301,647	-37,569	1,465	0,547
302,662	-20,988	1,379	0,591
303,676	-25,620	1,383	0,571
304,691	-40,820	1,384	0,501
305,706	-27,493	1,254	0,510
306,720	-2,925	1,282	0,627
307,735	-24,522	1,495	0,623
308,749	-52,589	1,366	0,441
309,764	-30,710	1,334	0,528
310,779	-32,048	1,456	0,570
311,793	-10,890	1,401	0,648
312,808	-44,320	1,425	0,499
313,822	-40,654	1,315	0,477
314,837	-33,969	1,387	0,534
315,852	-3,062	1,286	0,628
316,866	-30,596	1,306	0,517
317,881	-39,616	1,423	0,520
318,895	-10,812	1,299	0,601
319,910	-33,937	1,247	0,480
320,925	-17,973	1,219	0,534
321,939	-21,111	1,220	0,522
322,954	-54,655	1,346	0,425
323,968	-40,284	1,438	0,522
324,983	-46,341	1,506	0,517
325,997	-56,202	1,462	0,454
327,012	-13,041	1,277	0,580
328,027	3,125	1,260	0,641
329,041	-26,377	1,306	0,535
330,056	-42,191	1,413	0,504
331,070	-20,453	1,318	0,566
332,085	-0,796	1,273	0,630
333,100	-16,949	1,275	0,562
334,114	-44,713	1,316	0,458
335,129	-37,319	1,264	0,471
336,143	-15,265	1,258	0,562
337,158	-22,888	1,359	0,572
338,173	-28,757	1,348	0,541
339,187	-7,156	1,431	0,678
340,202	-26,213	1,303	0,534
341,216	-25,302	1,216	0,502
342,231	-11,937	1,348	0,617
343,246	-49,104	1,348	0,449
344,260	-37,651	1,392	0,517
345,275	-30,478	1,374	0,543
346,289	-76,738	1,358	0,331
347,304	-28,854	1,309	0,524
348,319	-16,408	1,444	0,639
349,333	-41,754	1,337	0,478
350,348	-11,514	1,250	0,573
351,362	-1,347	1,320	0,650
352,377	-9,978	1,318	0,611
353,392	-40,515	1,376	0,497
354,406	-12,701	1,314	0,597
355,421	195,969	1305,376	1391,752
356,435	150,302	1464,726	1392,211
