DTS Sentinel unit serial number:	SN410029Multiplexer serial number:	ORYXHardware model number:	OX2-SRSoftware version number:	ORYX F/W v4,00 Oryx Data Collector v3.7.2.0data status	okinstallation	B3 Nyhavnadifferential loss correction	single-endedforward channel	channel 1reverse channel	N/Adate	2023/11/28time	14:27:30forward acquisition time	300,00reverse acquisition time	0,00gamma	499,1914k internal	0,3146k external	0,3146temperature offset calibration	1,0000default loss term (dB/km)	0,3820temperature slope calibration	1,0000multiplexer offset coefficient	1,0000multiplexer slope coefficient	1,0000fibre end	0,00T internal ref (°C)	7,47T ext. ref 1 (°C)	-7,77T ext. ref 2 (°C)	-7,94length (m)	temperature (°C)	Stokes	anti-Stokes-744,400	125,236	-0,215	-0,200
-743,385	700,446	-0,147	0,288
-742,371	-85,789	-0,193	-0,044
-741,356	-200,000	-0,003	0,266
-740,342	188,144	-0,196	-0,217
-739,327	-200,000	0,002	0,216
-738,312	97,610	-0,213	-0,181
-737,298	-200,000	0,054	0,192
-736,283	120,727	-0,217	-0,200
-735,269	-200,000	0,015	0,250
-734,254	24,083	-0,332	-0,202
-733,239	17,986	-0,201	0,118
-732,225	62,364	-0,247	-0,182
-731,210	164,901	0,109	0,114
-730,196	7,659	0,094	-0,052
-729,181	388,695	-0,014	0,022
-728,167	-200,000	0,008	0,059
-727,152	800,000	-0,028	0,087
-726,137	-11,955	0,033	-0,016
-725,123	109,402	-0,164	-0,145
-724,108	264,831	-0,052	-0,067
-723,094	-200,000	-0,025	-0,111
-722,079	-200,000	-0,012	-0,050
-721,064	800,000	0,039	0,093
-720,050	-200,000	0,025	-0,135
-719,035	310,928	-0,066	0,091
-718,021	390,695	0,088	-0,135
-717,006	-200,000	-0,024	-0,090
-715,991	-153,334	-0,059	0,003
-714,977	187,407	-0,078	-0,087
-713,962	-40,148	0,156	-0,060
-712,948	161,056	0,036	0,038
-711,933	-200,000	0,058	0,214
-710,918	-93,604	0,056	0,011
-709,904	325,526	0,052	-0,074
-708,889	-200,000	0,021	-0,205
-707,875	-200,000	0,019	-0,100
-706,860	-120,907	0,105	-0,013
-705,845	333,598	-0,108	0,155
-704,831	26,021	0,076	0,047
-703,816	743,798	-0,068	0,135
-702,802	233,194	-0,027	0,032
-701,787	131,599	-0,025	-0,024
-700,772	563,963	0,040	-0,073
-699,758	-107,818	-0,112	0,018
-698,743	-6,858	-0,063	0,032
-697,729	222,777	0,049	0,059
-696,714	-200,000	-0,012	0,169
-695,699	-108,242	-0,065	0,010
-694,685	380,780	0,033	-0,051
-693,670	227,555	-0,055	0,066
-692,656	421,226	0,066	-0,104
-691,641	-135,030	0,027	0,002
-690,627	591,093	0,097	0,177
-689,612	-6,914	0,067	0,033
-688,597	556,128	-0,039	-0,070
-687,583	-200,000	0,010	-0,054
-686,568	615,474	0,077	0,143
-685,554	-62,625	-0,094	-0,029
-684,539	383,372	-0,053	0,081
-683,524	301,437	0,086	0,117
-682,510	-200,000	-0,022	0,086
-681,495	-200,000	-0,011	0,052
-680,481	57,606	-0,032	-0,023
-679,466	16,608	-0,075	-0,044
-678,451	800,000	-0,054	0,157
-677,437	157,916	-0,122	0,125
-676,422	-200,000	-0,026	0,101
-675,408	97,122	0,073	0,062
-674,393	282,934	0,023	0,030
-673,378	-200,000	-0,006	0,075
-672,364	103,093	-0,058	-0,050
-671,349	-200,000	0,003	-0,199
-670,335	-200,000	0,008	-0,043
-669,320	800,000	-0,006	0,018
-668,305	654,011	0,046	0,088
-667,291	84,595	0,040	-0,032
-666,276	43,513	-0,066	-0,044
-665,262	7,064	-0,004	-0,002
-664,247	-200,000	-0,037	-0,204
-663,232	466,755	-0,042	0,070
-662,218	70,270	0,134	0,102
-661,203	-180,621	0,061	-0,001
-660,189	800,000	-0,049	-0,111
-659,174	216,610	-0,072	0,085
-658,159	232,277	-0,039	0,047
-657,145	-200,000	-0,006	-0,030
-656,130	165,915	-0,011	-0,012
-655,116	-86,992	0,051	-0,011
-654,101	293,507	0,119	0,160
-653,086	11,154	-0,003	0,002
-652,072	-200,000	0,003	-0,055
-651,057	556,898	-0,109	-0,194
-650,043	-200,000	-0,030	-0,107
-649,028	-72,241	-0,039	0,011
-648,014	-139,562	-0,130	-0,010
-646,999	800,000	-0,025	0,070
-645,984	-98,350	-0,091	0,017
-644,970	34,030	0,077	-0,049
-643,955	-130,331	-0,086	-0,009
-642,941	161,895	-0,100	-0,103
-641,926	-47,823	-0,078	0,028
-640,911	-200,000	-0,004	0,081
-639,897	-80,642	0,116	-0,028
-638,882	334,693	0,067	-0,096
-637,868	-200,000	-0,000	0,022
-636,853	-39,016	-0,163	-0,063
-635,838	-100,003	0,013	0,002
-634,824	725,007	-0,081	-0,161
-633,809	-22,489	0,055	0,024
-632,795	133,109	-0,070	0,067
-631,780	800,000	0,065	0,190
-630,765	800,000	0,034	0,087
-629,751	196,679	-0,060	-0,067
-628,736	-100,281	-0,071	-0,013
-627,722	-104,300	0,142	-0,024
-626,707	141,059	-0,040	-0,039
-625,692	271,297	0,149	0,194
-624,678	800,000	-0,018	0,039
-623,663	-88,696	-0,096	-0,021
-622,649	-175,106	-0,126	-0,003
-621,634	241,107	0,046	0,057
-620,619	-33,919	0,071	0,029
-619,605	29,660	-0,050	0,031
-618,590	315,469	0,055	0,077
-617,576	-85,617	-0,112	0,025
-616,561	128,302	0,038	-0,035
-615,546	-27,843	-0,033	-0,014
-614,532	78,245	-0,095	-0,074
-613,517	-81,619	-0,030	-0,007
-612,503	800,000	-0,057	-0,131
-611,488	175,328	0,025	-0,026
-610,474	-121,430	-0,078	0,009
-609,459	143,461	0,048	0,047
-608,444	-200,000	-0,005	-0,041
-607,430	-17,855	-0,062	-0,029
-606,415	-40,521	0,114	-0,043
-605,401	-121,742	-0,107	0,013
-604,386	91,280	0,101	0,083
-603,371	-200,000	0,034	-0,196
-602,357	800,000	-0,024	-0,078
-601,342	64,919	-0,088	0,065
-600,328	200,276	-0,081	-0,091
-599,313	-200,000	-0,000	-0,065
-598,298	-200,000	0,032	0,114
-597,284	-200,000	-0,001	0,126
-596,269	-27,119	0,032	-0,014
-595,255	-6,945	-0,099	0,049
-594,240	366,994	0,083	0,124
-593,225	464,865	0,030	-0,050
-592,211	554,905	-0,056	0,099
-591,196	132,141	0,092	0,087
-590,182	599,991	-0,066	0,121
-589,167	59,813	0,126	-0,091
-588,152	222,625	0,044	-0,052
-587,138	-101,805	0,146	0,026
-586,123	-34,154	-0,065	0,026
-585,109	-14,960	-0,086	-0,041
-584,094	-76,746	0,006	0,002
-583,079	-13,191	0,106	-0,051
-582,065	-200,000	0,009	0,064
-581,050	391,522	-0,026	0,040
-580,036	-105,760	-0,081	-0,013
-579,021	-56,811	0,062	0,020
-578,006	-81,556	-0,112	0,027
-576,992	-26,912	0,064	-0,028
-575,977	-65,843	0,070	-0,020
-574,963	-200,000	-0,003	0,129
-573,948	49,085	0,069	-0,047
-572,934	23,230	-0,088	0,053
-571,919	-200,000	-0,006	0,034
-570,904	347,184	-0,014	0,020
-569,890	-63,163	0,097	0,029
-568,875	248,380	-0,058	0,072
-567,861	-200,000	-0,018	0,141
-566,846	29,797	-0,016	0,010
-565,831	-20,289	-0,073	0,033
-564,817	-124,262	-0,195	0,022
-563,802	-47,845	0,038	-0,014
-562,788	382,264	0,095	0,144
-561,773	-69,258	0,067	-0,019
-560,758	-200,000	0,008	0,091
-559,744	800,000	0,050	0,130
-558,729	514,272	0,065	0,112
-557,715	-35,257	-0,088	-0,035
-556,700	672,269	-0,048	-0,092
-555,685	436,583	-0,063	-0,102
-554,671	-200,000	0,007	0,118
-553,656	-4,430	-0,058	0,029
-552,642	86,002	0,117	0,094
-551,627	-200,000	0,002	0,012
-550,612	116,975	-0,114	-0,103
-549,598	-54,869	-0,145	0,048
-548,583	-50,475	0,126	0,043
-547,569	40,016	-0,211	-0,139
-546,554	314,795	0,043	0,059
-545,539	179,639	0,071	0,077
-544,525	-101,721	-0,100	0,018
-543,510	359,267	-0,026	0,038
-542,496	-200,000	-0,022	0,000
-541,481	-145,162	-0,103	-0,007
-540,466	306,316	0,114	0,157
-539,452	149,504	-0,132	0,131
-538,437	309,241	-0,088	-0,121
-537,423	-165,999	0,079	-0,002
-536,408	-157,055	-0,098	-0,004
-535,393	23,001	0,072	-0,043
-534,379	189,800	0,057	-0,063
-533,364	38,977	0,098	-0,064
-532,350	-13,133	-0,042	-0,020
-531,335	-55,348	0,095	0,031
-530,321	-110,892	0,037	-0,006
-529,306	128,288	0,031	-0,029
-528,291	428,490	-0,037	-0,060
-527,277	78,613	-0,078	0,061
-526,262	774,259	0,074	-0,148
-525,248	-200,000	0,009	-0,118
-524,233	152,881	0,043	-0,043
-523,218	131,435	-0,025	0,024
-522,204	101,555	-0,052	0,045
-521,189	92,114	-0,070	0,058
-520,175	800,000	-0,057	-0,128
-519,160	303,078	-0,028	-0,038
-518,145	-39,341	0,132	-0,050
-517,131	-200,000	-0,036	0,207
-516,116	-30,155	0,101	0,042
-515,102	-200,000	0,019	-0,092
-514,087	-96,972	-0,123	-0,023
-513,072	785,156	-0,036	-0,073
-512,058	42,148	0,005	0,004
-511,043	-7,496	0,059	0,029
-510,029	800,000	0,044	0,098
-509,014	-156,616	-0,122	0,005
-507,999	-49,703	0,096	-0,033
-506,985	-200,000	0,006	0,050
-505,970	415,125	0,045	0,071
-504,956	-97,075	0,038	-0,007
-503,941	800,000	-0,011	0,031
-502,926	577,276	0,058	0,105
-501,912	-200,000	0,018	0,170
-500,897	-200,000	0,003	-0,092
-499,883	-59,446	0,117	0,036
-498,868	294,591	-0,054	-0,072
-497,853	-13,918	-0,066	-0,031
-496,839	-134,373	-0,149	0,013
-495,824	164,381	0,039	0,041
-494,810	-200,000	-0,012	0,058
-493,795	765,713	-0,017	-0,034
-492,781	-142,394	0,010	0,001
-491,766	261,597	0,163	-0,207
-490,751	20,418	-0,125	-0,074
-489,737	800,000	0,012	-0,039
-488,722	-160,238	-0,115	-0,004
-487,708	-21,472	0,096	0,043
-486,693	-38,176	-0,141	-0,054
-485,678	-141,954	-0,066	0,005
-484,664	-200,000	0,012	0,080
-483,649	-60,985	0,139	-0,043
-482,635	-200,000	0,000	0,066
-481,620	800,000	0,017	0,053
-480,605	800,000	-0,044	-0,097
-479,591	-200,000	-0,024	0,090
-478,576	-113,715	0,179	0,025
-477,562	-87,803	-0,040	-0,009
-476,547	800,000	0,012	0,029
-475,532	307,206	-0,078	0,107
-474,518	800,000	0,024	0,055
-473,503	86,272	-0,033	-0,027
-472,489	51,547	0,100	0,070
-471,474	26,397	0,157	0,096
-470,459	-26,399	-0,116	-0,049
-469,445	-200,000	0,012	-0,155
-468,430	-59,790	-0,079	0,025
-467,416	75,601	-0,005	0,004
-466,401	28,374	0,104	-0,064
-465,386	-89,352	0,050	0,011
-464,372	-200,000	0,020	0,069
-463,357	-41,827	0,071	0,027
-462,343	-74,768	-0,075	-0,020
-461,328	205,679	0,014	-0,016
-460,313	-19,846	-0,074	0,034
-459,299	-146,788	0,071	0,004
-458,284	-169,519	-0,098	0,003
-457,270	499,995	0,041	0,069
-456,255	-25,509	-0,076	0,033
-455,241	-22,517	-0,139	-0,061
-454,226	-200,000	0,005	-0,134
-453,211	589,232	0,016	-0,029
-452,197	172,512	0,109	0,115
-451,182	-200,000	-0,029	0,144
-450,168	-200,000	-0,048	-0,160
-449,153	2,243	0,039	-0,020
-448,138	-61,779	-0,129	-0,039
-447,124	29,407	-0,101	-0,063
-446,109	-39,053	0,057	0,022
-445,095	-17,107	0,149	0,069
-444,080	-200,000	-0,004	0,167
-443,065	115,096	0,119	0,107
-442,051	148,706	0,035	0,035
-441,036	618,663	-0,052	-0,096
-440,022	-126,872	0,042	0,004
-439,007	-41,244	0,087	0,033
-437,992	-111,456	0,057	-0,008
-436,978	161,153	0,054	0,055
-435,963	-200,000	-0,005	0,136
-434,949	-42,105	0,023	0,009
-433,934	522,001	-0,021	0,036
-432,919	-8,551	-0,129	0,063
-431,905	-178,167	-0,030	0,000
-430,890	800,000	0,050	0,155
-429,876	-200,000	0,035	0,121
-428,861	-200,000	0,034	0,122
-427,846	-200,000	0,031	-0,157
-426,832	-180,862	0,119	0,002
-425,817	578,905	-0,034	0,062
-424,803	-94,238	0,111	-0,022
-423,788	27,339	0,102	-0,062
-422,773	-85,736	0,078	0,018
-421,759	399,956	-0,055	-0,084
-420,744	434,686	0,103	-0,164
-419,730	121,086	-0,026	0,024
-418,715	408,366	-0,027	-0,042
-417,701	-159,838	-0,114	0,004
-416,686	24,967	0,081	0,049
-415,671	28,351	0,081	-0,050
-414,657	96,283	0,047	0,039
-413,642	335,940	0,057	0,080
-412,628	44,685	0,081	-0,055
-411,613	156,601	0,073	0,074
-410,598	2,761	-0,125	0,066
-409,584	596,144	0,050	0,090
-408,569	-52,247	0,150	-0,050
-407,555	-98,786	-0,057	-0,011
-406,540	128,132	0,132	-0,123
-405,525	-200,000	-0,013	-0,074
-404,511	-200,000	0,015	-0,154
-403,496	548,821	-0,032	-0,057
-402,482	234,371	0,086	-0,103
-401,467	575,581	0,084	-0,150
-400,452	385,311	0,043	-0,065
-399,438	226,654	-0,082	-0,098
-398,423	-200,000	-0,012	0,068
-397,409	800,000	-0,016	-0,039
-396,394	-200,000	-0,014	-0,052
-395,379	-55,566	0,109	-0,035
-394,365	-42,956	0,151	0,056
-393,350	24,071	-0,174	0,104
-392,336	423,515	0,034	-0,053
-391,321	243,817	-0,079	0,097
-390,306	178,956	-0,044	-0,047
-389,292	800,000	0,042	-0,094
-388,277	96,212	-0,104	0,087
-387,263	-180,291	0,113	0,002
-386,248	4,671	-0,053	-0,028
-385,233	-10,979	-0,066	0,032
-384,219	800,000	-0,048	0,100
-383,204	22,626	-0,101	-0,060
-382,190	800,000	-0,028	0,057
-381,175	91,902	0,087	-0,071
-380,160	-99,452	-0,136	0,025
-379,146	-48,237	0,136	-0,047
-378,131	20,963	-0,123	0,072
-377,117	353,996	-0,031	-0,045
-376,102	100,047	-0,055	-0,047
-375,088	-4,460	0,045	0,023
-374,073	-41,394	-0,037	0,014
-373,058	-182,564	0,088	0,001
-372,044	-200,000	-0,030	-0,125
-371,029	142,635	0,077	-0,075
-370,015	-113,770	-0,131	-0,018
-369,000	393,830	0,086	-0,130
-367,985	-29,581	-0,146	-0,060
-366,971	792,482	0,021	-0,041
-365,956	289,791	0,110	-0,146
-364,942	-185,329	0,142	-0,002
-363,927	800,000	0,037	-0,091
-362,912	631,530	-0,072	0,134
-361,898	-3,623	0,101	-0,051
-360,883	156,605	0,103	-0,104
-359,869	121,727	-0,086	0,078
-358,854	0,024	0,133	-0,069
-357,839	99,830	-0,062	-0,052
-356,825	-200,000	0,033	0,117
-355,810	-200,000	-0,007	0,110
-354,796	515,234	-0,042	-0,072
-353,781	-200,000	-0,018	-0,088
-352,766	-43,057	-0,079	0,029
-351,752	-97,281	0,076	-0,014
-350,737	180,470	0,085	0,091
-349,723	62,542	-0,079	0,057
-348,708	-155,623	-0,083	-0,004
-347,693	150,881	-0,079	-0,079
-346,679	613,124	-0,026	-0,048
-345,664	-68,488	0,021	-0,006
-344,650	148,017	-0,048	-0,047
-343,635	-200,000	0,043	0,141
-342,620	66,891	-0,057	0,042
-341,606	800,000	0,020	-0,056
-340,591	90,000	-0,070	-0,057
-339,577	20,129	-0,113	0,066
-338,562	163,219	0,071	-0,073
-337,548	225,687	-0,110	-0,130
-336,533	-200,000	-0,015	0,100
-335,518	-84,843	0,132	0,030
-334,504	81,133	0,087	0,068
-333,489	-137,707	-0,033	0,003
-332,475	35,424	-0,144	0,092
-331,460	-176,214	-0,104	-0,002
-330,445	176,214	0,052	-0,055
-329,431	-39,691	0,116	-0,044
-328,416	-63,671	-0,055	0,016
-327,402	-200,000	0,011	-0,126
-326,387	30,826	-0,052	0,033
-325,372	-44,481	0,006	-0,002
-324,358	-200,000	0,019	-0,092
-323,343	82,829	0,046	0,036
-322,329	800,000	0,040	-0,087
-321,314	73,446	-0,088	0,067
-320,299	201,131	-0,051	-0,057
-319,285	484,446	-0,047	-0,078
-318,270	149,782	-0,079	-0,078
-317,256	237,610	0,066	0,080
-316,241	53,270	0,023	-0,016
-315,226	240,533	-0,044	0,053
-314,212	390,613	0,052	-0,079
-313,197	-200,000	-0,031	-0,137
-312,183	-200,000	-0,024	-0,101
-311,168	785,697	-0,026	-0,051
-310,153	58,804	-0,125	0,090
-309,139	361,826	-0,060	-0,087
-308,124	-200,000	0,019	-0,066
-307,110	-137,945	0,069	0,006
-306,095	-38,037	0,080	0,031
-305,080	-200,000	0,006	0,140
-304,066	-159,978	0,095	-0,004
-303,051	-32,412	-0,104	-0,042
-302,037	-108,213	0,061	0,010
-301,022	789,818	0,066	0,132
-300,008	191,689	0,066	0,072
-298,993	-200,000	-0,023	-0,114
-297,978	-92,195	0,086	0,017
-296,964	141,898	-0,047	0,045
-295,949	520,685	-0,033	-0,056
-294,935	-200,000	0,010	0,090
-293,920	175,013	0,062	-0,066
-292,905	151,492	0,137	0,136
-291,891	800,000	-0,030	-0,087
-290,876	-106,925	-0,010	-0,002
-289,862	800,000	-0,022	-0,048
-288,847	-200,000	-0,002	-0,013
-287,832	192,596	0,049	-0,054
-286,818	-200,000	-0,000	-0,052
-285,803	-188,407	0,029	-0,000
-284,789	74,483	0,049	-0,037
-283,774	800,000	0,050	0,142
-282,759	-200,000	0,007	-0,067
-281,745	-200,000	0,018	0,081
-280,730	-9,307	-0,094	-0,046
-279,716	-135,739	0,073	-0,006
-278,701	-200,000	0,043	-0,158
-277,686	-157,801	0,032	0,001
-276,672	-106,034	-0,049	-0,008
-275,657	163,444	0,025	-0,025
-274,643	48,781	-0,076	0,051
-273,628	535,738	0,078	-0,135
-272,613	9,910	-0,068	-0,037
-271,599	229,601	0,049	-0,059
-270,584	48,448	0,083	-0,056
-269,570	-41,452	-0,077	-0,029
-268,555	190,599	0,039	-0,042
-267,540	-142,867	-0,224	-0,016
-266,526	501,662	0,038	-0,064
-265,511	800,000	0,017	0,046
-264,497	-200,000	-0,018	-0,059
-263,482	-64,237	0,084	-0,025
-262,467	276,965	-0,094	0,122
-261,453	293,203	0,033	-0,043
-260,438	-200,000	0,006	0,061
-259,424	411,419	-0,077	-0,120
-258,409	265,860	-0,105	-0,133
-257,395	142,047	-0,062	0,060
-256,380	-200,000	0,008	0,161
-255,365	800,000	-0,019	0,061
-254,351	-200,000	-0,015	0,103
-253,336	396,191	0,034	-0,052
-252,322	800,000	-0,039	-0,103
-251,307	772,839	-0,050	-0,099
-250,292	800,000	-0,023	0,052
-249,278	6,171	0,044	-0,023
-248,263	312,084	0,014	0,019
-247,249	322,997	0,017	0,024
-246,234	33,468	-0,018	0,011
-245,219	-88,069	-0,153	0,033
-244,205	509,487	0,034	0,057
-243,190	-117,172	-0,081	0,011
-242,176	-200,000	-0,003	-0,121
-241,161	-200,000	-0,038	0,136
-240,146	800,000	0,031	-0,077
-239,132	-100,823	0,035	0,006
-238,117	220,113	-0,070	-0,082
-237,103	-67,658	0,097	0,027
-236,088	-200,000	0,009	-0,091
-235,073	-26,802	0,119	-0,050
-234,059	-154,774	-0,082	0,004
-233,044	800,000	0,024	-0,056
-232,030	302,703	-0,083	0,112
-231,015	650,505	-0,039	0,073
-230,000	182,123	0,075	-0,080
-228,986	9,337	0,091	0,050
-227,971	88,919	-0,052	0,042
-226,957	277,730	-0,024	-0,031
-225,942	-200,000	-0,048	0,170
-224,927	-200,000	0,014	0,096
-223,913	80,711	-0,094	-0,074
-222,898	81,970	-0,086	0,068
-221,884	-200,000	-0,012	-0,177
-220,869	668,414	0,040	-0,076
-219,855	-200,000	0,002	0,054
-218,840	7,934	0,055	0,030
-217,825	-20,472	-0,113	0,050
-216,811	-37,945	0,202	-0,078
-215,796	-77,774	-0,066	-0,016
-214,782	-200,000	-0,008	0,066
-213,767	547,885	0,026	0,045
-212,752	415,613	-0,019	0,030
-211,738	61,053	-0,049	0,035
-210,723	-86,308	0,206	-0,046
-209,709	208,121	-0,133	-0,151
-208,694	-200,000	0,012	0,074
-207,679	119,439	0,014	-0,013
-206,665	-200,000	-0,018	0,150
-205,650	800,000	-0,032	-0,075
-204,636	-200,000	0,008	-0,079
-203,621	800,000	-0,018	-0,041
-202,606	552,172	-0,067	0,117
-201,592	-200,000	-0,002	0,029
-200,577	173,772	-0,165	-0,173
-199,563	800,000	-0,056	-0,118
-198,548	800,000	-0,020	0,043
-197,533	199,025	0,095	-0,105
-196,519	800,000	0,026	0,055
-195,504	81,502	-0,135	0,106
-194,490	423,085	0,038	-0,059
-193,475	126,134	0,177	-0,162
-192,460	-122,790	0,049	0,006
-191,446	170,383	-0,091	-0,094
-190,431	683,061	0,070	0,133
-189,417	800,000	0,021	0,064
-188,402	146,884	-0,052	-0,051
-187,387	58,897	0,094	0,067
-186,373	768,811	-0,059	0,117
-185,358	-200,000	-0,001	-0,040
-184,344	4,612	0,120	-0,064
-183,329	-29,192	-0,134	-0,056
-182,315	-200,000	-0,013	-0,110
-181,300	55,077	-0,025	-0,018
-180,285	-200,000	-0,032	-0,103
-179,271	-200,000	-0,022	0,127
-178,256	83,314	0,090	0,071
-177,242	452,188	-0,018	-0,029
-176,227	-77,913	0,071	0,018
-175,212	-51,929	0,120	0,040
-174,198	-200,000	0,012	0,066
-173,183	16,989	0,048	0,027
-172,169	-82,056	-0,137	-0,032
-171,154	-200,000	-0,007	-0,076
-170,139	800,000	0,027	-0,056
-169,125	132,892	-0,139	0,130
-168,110	-138,488	0,064	-0,005
-167,096	55,852	-0,119	0,083
-166,081	191,907	0,083	0,090
-165,066	-105,180	0,048	-0,008
-164,052	-104,989	0,113	-0,019
-163,037	153,477	0,019	-0,019
-162,023	331,785	0,090	0,127
-161,008	129,345	0,059	-0,055
-159,993	800,000	-0,034	-0,076
-158,979	15,322	-0,084	0,048
-157,964	-54,199	0,076	-0,025
-156,950	800,000	0,040	-0,125
-155,935	202,265	0,066	0,073
-154,920	-50,449	0,086	-0,029
-153,906	-200,000	0,003	0,127
-152,891	604,241	0,051	0,091
-151,877	224,479	0,031	0,037
-150,862	800,000	0,005	-0,011
-149,847	-10,226	0,080	-0,038
-148,833	284,676	0,043	-0,056
-147,818	140,132	-0,005	0,005
-146,804	-200,000	-0,015	-0,064
-145,789	124,764	0,051	0,047
-144,775	800,000	-0,023	-0,059
-143,760	-200,000	-0,017	-0,112
-142,745	-99,356	0,166	0,030
-141,731	-32,890	-0,081	0,032
-140,716	-7,931	-0,086	0,042
-139,702	-24,230	0,123	0,053
-138,687	-42,843	0,116	0,043
-137,672	-85,529	0,118	0,026
-136,658	101,535	-0,157	-0,132
-135,643	258,064	-0,111	-0,138
-134,629	13,093	0,126	-0,070
-133,614	-200,000	-0,010	-0,070
-132,599	-69,332	0,080	-0,022
-131,585	-200,000	-0,005	-0,027
-130,570	235,237	0,050	0,060
-129,556	448,114	0,061	0,098
-128,541	581,870	-0,032	-0,056
-127,526	523,946	-0,047	-0,080
-126,512	-49,382	-0,061	-0,021
-125,497	103,742	0,030	-0,026
-124,483	-200,000	0,022	0,198
-123,468	-200,000	0,007	0,094
-122,453	4,941	0,068	-0,036
-121,439	123,780	-0,032	-0,029
-120,424	-3,099	0,084	0,042
-119,410	28,811	-0,093	0,057
-118,395	157,727	0,148	0,148
-117,380	-77,317	-0,043	-0,011
-116,366	800,000	0,011	-0,027
-115,351	-200,000	-0,001	-0,009
-114,337	243,874	-0,088	-0,106
-113,322	399,754	0,058	0,088
-112,307	-39,396	-0,104	0,039
-111,293	602,467	-0,018	0,032
-110,278	800,000	0,062	0,155
-109,264	396,846	-0,049	0,074
-108,249	-200,000	0,017	-0,124
-107,234	800,000	-0,044	-0,104
-106,220	-45,804	-0,023	-0,008
-105,205	800,000	0,029	0,063
-104,191	-60,511	0,109	0,033
-103,176	800,000	-0,033	0,099
-102,162	-200,000	0,003	0,052
-101,147	-65,502	-0,120	-0,035
-100,132	450,365	-0,044	0,071
-99,118	-25,930	-0,152	0,064
-98,103	136,093	-0,052	-0,049
-97,089	-31,285	-0,119	0,048
-96,074	-200,000	-0,020	0,070
-95,059	240,667	0,116	0,139
-94,045	-16,264	-0,070	0,032
-93,030	170,944	-0,134	-0,139
-92,016	8,001	-0,033	0,018
-91,001	-10,202	0,104	0,050
-89,986	-180,312	0,044	0,001
-88,972	800,000	0,068	0,160
-87,957	85,957	-0,087	-0,069
-86,943	-200,000	0,000	0,076
-85,928	-200,000	0,011	0,165
-84,913	-200,000	-0,035	0,232
-83,899	69,226	0,080	0,059
-82,884	54,417	-0,019	0,013
-81,870	800,000	0,028	0,073
-80,855	153,856	0,105	0,104
-79,840	26,389	0,115	-0,069
-78,826	-11,462	-0,148	-0,070
-77,811	-83,964	-0,042	-0,010
-76,797	-54,804	-0,065	-0,021
-75,782	-200,000	0,131	0,000
-74,767	120,485	0,050	0,045
-73,753	-23,602	0,111	-0,048
-72,738	72,947	0,068	0,051
-71,724	-200,000	-0,010	0,075
-70,709	-91,008	-0,109	-0,022
-69,694	-200,000	-0,006	-0,186
-68,680	75,037	0,067	0,051
-67,665	285,165	0,054	0,070
-66,651	-200,000	-0,028	0,266
-65,636	800,000	0,017	0,053
-64,622	102,426	-0,142	-0,120
-63,607	-58,357	0,016	0,005
-62,592	800,000	0,072	-0,190
-61,578	295,635	0,075	-0,099
-60,563	-70,918	0,070	0,019
-59,549	84,392	-0,095	0,075
-58,534	72,789	-2,148	-1,614
-57,519	568,252	-1,085	-1,906
-56,505	-200,000	-0,257	-4,393
-55,490	800,000	0,862	1,863
-54,476	800,000	5,135	11,276
-53,461	-200,000	22,726	350,689
-52,446	800,000	758,075	2283,587
-51,432	499,829	1637,592	2730,165
-50,417	66,136	1561,018	1139,896
-49,403	18,668	1128,961	648,904
-48,388	10,835	845,764	463,704
-47,373	27,832	812,794	492,115
-46,359	16,921	798,156	454,007
-45,344	7,502	794,134	426,352
-44,330	7,406	792,360	425,124
-43,315	7,366	791,151	424,350
-42,300	7,364	789,860	423,637
-41,286	7,382	788,800	423,100
-40,271	7,382	787,873	422,585
-39,257	7,437	786,807	422,144
-38,242	7,534	785,963	421,935
-37,227	7,534	785,373	421,601
-36,213	7,415	784,575	420,838
-35,198	7,431	783,561	420,319
-34,184	7,546	783,227	420,429
-33,169	7,399	782,293	419,522
-32,154	7,527	781,700	419,526
-31,140	7,501	780,562	418,830
-30,125	7,562	779,642	418,482
-29,111	7,407	779,317	417,880
-28,096	7,447	778,898	417,744
-27,082	7,495	778,082	417,418
-26,067	7,558	777,249	417,120
-25,052	7,432	776,626	416,438
-24,038	7,493	776,022	416,257
-23,023	7,433	775,522	415,814
-22,009	7,575	774,993	415,888
-20,994	7,534	774,350	415,419
-19,979	7,602	773,700	415,232
-18,965	7,460	773,111	414,528
-17,950	7,563	772,646	414,531
-16,936	7,471	772,068	413,964
-15,921	7,420	771,653	413,591
-14,906	7,367	770,753	412,954
-13,892	7,332	770,453	412,684
-12,877	7,375	769,842	412,453
-11,863	7,365	769,349	412,147
-10,848	7,299	768,940	411,740
-9,833	7,564	768,333	412,089
-8,819	7,455	767,750	411,477
-7,804	7,548	766,976	411,287
-6,790	7,466	766,762	410,942
-5,775	7,537	766,346	410,887
-4,760	7,364	765,933	410,199
-3,746	7,298	765,314	409,680
-2,731	7,182	764,867	409,124
-1,717	7,202	764,594	409,015
-0,702	7,264	763,724	408,692
0,313	7,323	760,375	407,668
1,327	10,927	740,433	406,007
2,342	19,323	599,122	345,486
3,356	13,038	330,024	183,292
4,371	-15,844	223,271	101,944
5,386	-18,700	210,119	93,864
6,400	-18,862	206,250	92,012
7,415	-17,802	204,459	91,951
8,429	-19,147	203,148	90,413
9,444	-19,221	202,532	90,079
10,459	-19,183	202,070	89,892
11,473	-19,103	201,324	89,607
12,488	-18,973	201,225	89,646
13,502	-19,152	200,615	89,242
14,517	-18,970	200,230	89,189
15,531	-19,466	199,995	88,735
16,546	-19,191	199,702	88,785
17,561	-19,121	199,223	88,613
18,575	-19,000	199,065	88,617
19,590	-19,202	198,788	88,348
20,604	-18,933	198,486	88,389
21,619	-18,948	198,040	88,172
22,634	-19,219	197,912	87,923
23,648	-19,097	197,747	87,925
24,663	-19,283	197,516	87,688
25,677	-18,897	197,224	87,813
26,692	-19,082	197,083	87,617
27,707	-19,099	196,777	87,461
28,721	-18,987	196,614	87,457
29,736	-19,264	196,401	87,167
30,750	-19,185	196,225	87,135
31,765	-19,201	196,122	87,071
32,780	-19,061	195,660	86,952
33,794	-19,021	195,597	86,942
34,809	-18,955	195,362	86,875
35,823	-18,959	195,114	86,754
36,838	-19,109	194,947	86,572
37,853	-18,980	194,756	86,565
38,867	-19,222	194,511	86,288
39,882	-19,042	194,456	86,375
40,896	-19,097	194,093	86,170
41,911	-19,246	194,176	86,099
42,926	-18,996	193,729	86,060
43,940	-19,105	193,708	85,970
44,955	-18,851	193,379	85,986
45,969	-18,870	193,249	85,907
46,984	-18,898	193,236	85,875
47,999	-18,935	193,001	85,739
49,013	-18,991	192,845	85,625
50,028	-19,006	192,569	85,485
51,042	-19,034	192,400	85,384
52,057	-18,909	192,104	85,327
53,071	-19,045	192,150	85,250
54,086	-19,004	191,885	85,152
55,101	-18,933	191,822	85,164
56,115	-18,767	191,311	85,038
57,130	-18,938	191,350	84,935
58,144	-19,387	191,171	84,554
59,159	-19,191	190,944	84,574
60,174	-18,927	190,896	84,718
61,188	-19,333	190,752	84,381
62,203	-18,957	190,429	84,476
63,217	-19,120	190,450	84,371
64,232	-18,874	189,956	84,305
65,247	-18,812	189,848	84,290
66,261	-19,260	189,824	83,981
67,276	-19,096	189,595	83,978
68,290	-19,123	189,450	83,889
69,305	-18,848	189,176	83,939
70,320	-18,781	189,120	83,950
71,334	-18,892	189,017	83,825
72,349	-18,843	188,805	83,755
73,363	-19,079	188,492	83,456
74,378	-19,224	188,517	83,366
75,393	-18,804	188,163	83,473
76,407	-18,843	188,014	83,374
77,422	-19,001	187,924	83,225
78,436	-18,962	187,790	83,184
79,451	-19,071	187,585	83,015
80,466	-18,963	187,316	82,958
81,480	-19,137	187,251	82,810
82,495	-19,007	187,040	82,793
83,509	-19,119	187,160	82,767
84,524	-18,887	186,825	82,759
85,539	-18,706	186,674	82,801
86,553	-19,057	186,426	82,460
87,568	-18,941	186,276	82,459
88,582	-18,923	186,218	82,438
89,597	-18,932	186,123	82,383
90,611	-19,051	185,998	82,245
91,626	-18,911	185,697	82,193
92,641	-18,955	185,670	82,146
93,655	-19,019	185,469	82,009
94,670	-18,893	185,252	81,985
95,684	-18,783	184,939	81,909
96,699	-18,863	185,012	81,884
97,714	-19,061	184,909	81,706
98,728	-19,040	184,662	81,603
99,743	-18,955	184,589	81,617
100,757	-18,855	184,454	81,612
101,772	-19,069	184,355	81,427
102,787	-19,079	184,023	81,267
103,801	-18,959	183,878	81,271
104,816	-18,719	183,687	81,330
105,830	-18,965	183,504	81,087
106,845	-18,699	183,506	81,248
107,860	-18,879	183,290	81,032
108,874	-18,835	183,227	81,024
109,889	-18,761	182,900	80,919
110,903	-18,852	182,835	80,826
111,918	-19,186	182,878	80,630
112,933	-18,762	182,567	80,750
113,947	-19,192	182,555	80,469
114,962	-19,038	182,255	80,426
115,976	-18,845	182,165	80,498
116,991	-18,884	181,985	80,388
118,006	-18,856	181,808	80,319
119,020	-18,618	181,754	80,436
120,035	-18,696	181,540	80,286
121,049	-19,018	181,647	80,127
122,064	-18,881	181,257	80,032
123,079	-18,820	181,180	80,029
124,093	-18,885	181,007	79,905
125,108	-18,768	180,676	79,824
126,122	-18,667	180,712	79,894
127,137	-18,794	180,659	79,786
128,151	-18,894	180,372	79,591
129,166	-18,849	180,264	79,563
130,181	-18,826	180,122	79,508
131,195	-18,802	179,944	79,437
132,210	-19,025	179,686	79,179
133,224	-18,803	179,626	79,282
134,239	-18,777	179,445	79,211
135,254	-19,122	179,426	78,984
136,268	-18,795	179,286	79,115
137,283	-18,692	179,059	79,071
138,297	-18,579	178,869	79,049
139,312	-18,763	178,649	78,833
140,327	-19,067	178,582	78,611
141,341	-18,829	178,431	78,683
142,356	-19,118	178,296	78,440
143,370	-18,085	178,614	79,201
144,385	-11,656	180,316	83,890
145,400	-4,460	181,671	88,946
146,414	-2,829	181,999	90,103
147,429	-2,844	181,950	90,061
148,443	-2,761	181,879	90,069
149,458	-2,508	181,935	90,245
150,473	-2,215	181,648	90,274
151,487	-1,742	181,578	90,521
152,502	-1,875	181,529	90,407
153,516	-1,801	181,312	90,336
154,531	-1,885	181,149	90,196
155,546	-1,665	181,058	90,277
156,560	-1,702	180,980	90,207
157,575	-1,835	180,919	90,088
158,589	-1,743	180,820	90,087
159,604	-1,741	180,498	89,919
160,619	-1,731	180,453	89,895
161,633	-1,786	180,457	89,855
162,648	-1,684	180,178	89,771
163,662	-1,740	180,183	89,731
164,677	-1,705	180,093	89,699
165,692	-1,420	179,948	89,792
166,706	-1,554	179,829	89,643
167,721	-1,478	179,713	89,623
168,735	-1,458	179,607	89,575
169,750	-1,272	179,474	89,613
170,764	-1,363	179,260	89,443
171,779	-1,119	179,263	89,585
172,794	-1,288	179,071	89,378
173,808	-1,303	179,008	89,329
174,823	-1,279	178,804	89,234
175,837	-1,435	178,797	89,129
176,852	-1,515	178,625	88,987
177,867	-1,150	178,552	89,163
178,881	-1,368	178,407	88,952
179,896	-1,526	178,338	88,814
180,910	-1,154	177,988	88,855
181,925	-1,265	178,135	88,854
182,940	-1,460	177,924	88,624
183,954	-1,445	177,732	88,529
184,969	-1,217	177,497	88,541
185,983	-1,347	177,561	88,487
186,998	-1,316	177,441	88,438
188,013	-1,454	177,318	88,286
189,027	-1,265	177,138	88,302
190,042	-1,326	176,944	88,160
191,056	-1,397	176,905	88,091
192,071	-1,131	176,724	88,151
193,086	-1,254	176,599	88,007
194,100	-1,019	176,515	88,097
195,115	-1,282	176,485	87,918
196,129	-1,408	176,206	87,697
197,144	-0,957	175,857	87,782
198,159	-1,199	175,795	87,600
199,173	-1,204	175,805	87,594
200,188	-1,289	175,802	87,535
201,202	-1,047	175,594	87,567
202,217	-1,106	175,550	87,502
203,232	-1,100	175,266	87,356
204,246	-1,163	175,210	87,284
205,261	-1,346	175,040	87,083
206,275	-1,017	174,911	87,204
207,290	-0,990	174,796	87,155
208,304	-1,181	174,686	86,980
209,319	-1,026	174,631	87,037
210,334	-1,106	174,469	86,901
211,348	-1,347	174,428	86,732
212,363	-1,149	174,327	86,789
213,377	-1,105	174,151	86,720
214,392	-0,863	174,130	86,844
215,407	-0,994	173,962	86,676
216,421	-0,837	173,739	86,648
217,436	-0,980	173,612	86,493
218,450	-1,360	173,698	86,307
219,465	-0,940	173,433	86,412
220,480	-0,927	173,363	86,377
221,494	-0,794	173,274	86,403
222,509	-1,015	173,126	86,193
223,523	-0,838	172,972	86,211
224,538	-0,908	172,902	86,128
225,553	-1,045	172,742	85,961
226,567	-0,899	172,615	85,975
227,582	-0,723	172,579	86,051
228,596	-0,733	172,380	85,939
229,611	-0,944	172,369	85,803
230,626	-0,644	172,222	85,896
231,640	-0,845	171,954	85,639
232,655	-0,800	171,939	85,649
233,669	-1,008	171,825	85,465
234,684	-0,980	171,742	85,432
235,699	-0,759	171,571	85,466
236,713	-0,658	171,496	85,480
237,728	-0,784	171,407	85,355
238,742	-0,656	171,292	85,364
239,757	-0,734	171,043	85,187
240,772	-0,742	170,950	85,129
241,786	-0,921	171,079	85,083
242,801	-1,039	170,976	84,957
243,815	-0,514	170,693	85,109
244,830	-0,654	170,648	84,998
245,844	-0,535	170,386	84,928
246,859	-1,003	170,409	84,666
247,874	-0,658	170,200	84,750
248,888	-0,477	170,084	84,788
249,903	-0,909	170,057	84,522
250,917	-0,554	169,968	84,671
251,932	-0,568	169,872	84,608
252,947	-0,649	169,843	84,540
253,961	-0,466	169,494	84,462
254,976	-0,486	169,458	84,426
255,990	-0,612	169,273	84,255
257,005	-0,554	169,261	84,274
258,020	-0,565	169,198	84,229
259,034	-0,446	169,041	84,211
260,049	-0,627	168,962	84,061
261,063	-0,722	168,859	83,949
262,078	-0,641	168,643	83,880
263,093	-0,447	168,544	83,933
264,107	-0,541	168,469	83,835
265,122	-0,518	168,374	83,793
266,136	-0,477	168,370	83,807
267,151	-0,572	168,251	83,686
268,166	-0,795	168,110	83,484
269,180	-0,465	167,929	83,572
270,195	-0,632	167,738	83,375
271,209	-0,552	167,663	83,375
272,224	-0,334	167,576	83,447
273,239	-0,458	167,592	83,378
274,253	-0,490	167,437	83,275
275,268	-0,651	167,290	83,105
276,282	-0,528	167,076	83,060
277,297	-0,586	166,977	82,971
278,312	-0,535	167,018	83,012
279,326	-0,431	166,840	82,975
280,341	-0,176	166,669	83,024
281,355	-0,198	166,511	82,926
282,370	-0,492	166,523	82,760
283,384	-0,507	166,419	82,694
284,399	-0,302	166,252	82,717
285,414	-0,259	166,157	82,686
286,428	-0,195	166,129	82,700
287,443	-0,353	165,984	82,533
288,457	-0,105	165,933	82,637
289,472	-0,589	165,843	82,318
290,487	-0,235	165,619	82,394
291,501	-0,181	165,483	82,349
292,516	-0,317	165,280	82,166
293,530	-0,091	165,401	82,344
294,545	-0,231	165,313	82,215
295,560	-0,256	165,167	82,121
296,574	-0,392	164,996	81,954
297,589	-0,467	165,067	81,941
298,603	-0,297	164,728	81,859
299,618	-0,233	164,740	81,892
300,633	-0,221	164,552	81,798
301,647	-0,085	164,472	81,826
302,662	-0,372	164,533	81,691
303,676	-0,058	164,327	81,754
304,691	-0,100	164,078	81,600
305,706	-0,305	164,054	81,469
306,720	-0,211	163,958	81,465
307,735	-0,178	163,994	81,494
308,749	0,021	163,729	81,463
309,764	0,069	163,620	81,428
310,779	-0,105	163,520	81,276
311,793	-0,141	163,388	81,184
312,808	0,027	163,219	81,184
313,822	0,152	163,261	81,265
314,837	0,024	163,165	81,140
315,852	0,012	162,925	81,008
316,866	-0,137	162,911	80,913
317,881	0,202	162,744	81,006
318,895	0,028	162,475	80,771
319,910	0,003	162,591	80,808
320,925	-0,072	162,513	80,721
321,939	-0,433	162,364	80,446
322,954	0,246	162,205	80,726
323,968	-0,151	162,173	80,488
324,983	0,093	162,009	80,531
325,997	-0,177	161,973	80,360
327,012	-0,042	161,743	80,312
328,027	-0,280	161,914	80,262
329,041	0,270	161,517	80,353
330,056	0,252	161,484	80,319
331,070	-0,191	161,531	80,098
332,085	0,288	161,229	80,198
333,100	0,044	161,289	80,090
334,114	0,131	161,055	80,013
335,129	0,099	160,910	79,917
336,143	0,248	160,895	79,982
337,158	-0,075	160,750	79,730
338,173	-0,060	160,834	79,773
339,187	0,387	160,523	79,850
340,202	0,234	160,458	79,729
341,216	0,357	160,310	79,713
342,231	-0,010	160,366	79,538
343,246	0,023	160,200	79,467
344,260	0,372	160,079	79,585
345,275	0,483	160,019	79,607
346,289	0,260	159,911	79,428
347,304	0,229	159,727	79,313
348,319	0,346	159,558	79,284
349,333	0,235	159,460	79,169
350,348	0,367	159,394	79,200
351,362	0,284	159,364	79,134
352,377	0,524	159,331	79,237
353,392	0,256	159,097	78,972
354,406	0,278	159,179	79,017
355,421	189,725	1323,949	1387,338
356,435	149,836	1466,299	1387,800
